sender,sender_type,sender_id,timestamp,meta,,blockNo,condition,duration,ended_on,img_left,img_reveal,img_right,loser,practice,response,response_action,selection_duration,time_commit,time_end,time_render,time_run,time_show,time_switch,total_blocks,total_trials,trialNo,url,winner
informed_consent,html.Screen,0,2023-09-09T16:05:19.952Z,"{""labjs_version"":""20.2.4"",""labjs_build"":{""flavor"":""development"",""commit"":""f5b4a49f956347addd546a832a3327688c2c0fef""},""location"":""https://labjs.felixhenninger.com/api/labjs_preview/index.html"",""userAgent"":""Mozilla/5.0 (Windows NT 10.0; Win64; x64) AppleWebKit/537.36 (KHTML, like Gecko) Chrome/116.0.0.0 Safari/537.36"",""platform"":""Win32"",""language"":""en-AU"",""locale"":""en-US"",""timeZone"":""America/Chicago"",""timezoneOffset"":300,""screen_width"":1680,""screen_height"":1050,""scroll_width"":1296,""scroll_height"":688,""window_innerWidth"":1296,""window_innerHeight"":736,""devicePixelRatio"":1}",,,,33767.36599980926,response,,,,,,consent,click button,,34364.39999961853,34355.199999809265,571.119,584.8999996185303,587.834,34387.033,,,,{},
Welcome,html.Screen,1,2023-09-09T16:05:30.636Z,,,,symmetry,10660.366999618527,response,,,,,,continue,click button,,45047.89999961853,45047.39999961853,34370.298,34364.699999809265,34387.033,45057.69,,,,,
trial,html.Screen,2_0_0,2023-09-09T16:05:37.742Z,,0,0,,7096.209999618528,response,ISIC_0069348.JPG,,ISIC_6997061.JPG,ISIC_6997061.JPG,true,0,keypress(z),500,52154,52153.89999961853,45041.207,45048.09999990463,45057.69,52154.842,1,6,1,,ISIC_0069348.JPG
sequence,flow.Sequence,2_0,2023-09-09T16:05:37.742Z,,0,,,7096.209999618528,completion,,,,,true,,,,52154.199999809265,52153.89999961853,45041.207,45048.09999990463,45057.69,52154.842,1,6,,,
trial,html.Screen,2_1_0,2023-09-09T16:05:40.480Z,,0,0,,2736.857999809268,response,ISIC_0009529.JPG,,ISIC_0057368.JPG,ISIC_0057368.JPG,true,0,keypress(z),500,54891.89999961853,54891.699999809265,52138.172,52154.199999809265,52154.842,54910.232,1,6,2,,ISIC_0009529.JPG
sequence,flow.Sequence,2_1,2023-09-09T16:05:40.480Z,,0,,,2736.857999809268,completion,,,,,true,,,,54892.39999961853,54891.699999809265,52138.172,52154.199999809265,52154.842,54910.232,1,6,,,
trial,html.Screen,2_2_0,2023-09-09T16:05:43.094Z,,0,0,,2595.2679999999964,response,ISIC_9758671.JPG,,ISIC_0064954.JPG,ISIC_0064954.JPG,true,0,keypress(z),500,57505.7999997139,57505.5,54893.539,54892.699999809265,54910.232,57515.428,1,6,3,,ISIC_9758671.JPG
sequence,flow.Sequence,2_2,2023-09-09T16:05:43.094Z,,0,,,2595.2679999999964,completion,,,,,true,,,,57506.09999990463,57505.5,54893.539,54892.59999990463,54910.232,57515.428,1,6,,,
trial,html.Screen,2_3_0,2023-09-09T16:05:45.565Z,,0,0,,2461.2719998092653,response,ISIC_0000080.JPG,,ISIC_0005785.JPG,ISIC_0005785.JPG,true,0,keypress(z),500,59976.7999997139,59976.699999809265,57498.596,57506.199999809265,57515.428,59986.939,1,6,4,,ISIC_0000080.JPG
sequence,flow.Sequence,2_3,2023-09-09T16:05:45.565Z,,0,,,2461.2719998092653,completion,,,,,true,,,,59977.09999990463,59976.699999809265,57498.596,57506.09999990463,57515.428,59986.939,1,6,,,
trial,html.Screen,2_4_0,2023-09-09T16:05:48.022Z,,0,0,,2447.160999904634,response,ISIC_5390060.JPG,,ISIC_7944028.JPG,ISIC_7944028.JPG,true,0,keypress(z),500,62434.2999997139,62434.09999990463,59970.26,59977.2999997139,59986.939,62441.519,1,6,5,,ISIC_5390060.JPG
sequence,flow.Sequence,2_4,2023-09-09T16:05:48.023Z,,0,,,2447.160999904634,completion,,,,,true,,,,62434.59999990463,62434.09999990463,59970.26,59977.2999997139,59986.939,62441.519,1,6,,,
trial,html.Screen,2_5_0,2023-09-09T16:05:50.478Z,,0,0,,2448.5809999046323,response,ISIC_0794216.JPG,,ISIC_0010188.JPG,ISIC_0010188.JPG,true,0,keypress(z),500,64890.2999997139,64890.09999990463,62424.86,62434.699999809265,62441.519,64896.332,1,6,6,,ISIC_0794216.JPG
sequence,flow.Sequence,2_5,2023-09-09T16:05:50.479Z,,0,,,2448.5809999046323,completion,,,,,true,,,,64890.5,64890.09999990463,62424.86,62434.59999990463,62441.519,64896.332,1,6,,,
loop,flow.Loop,2,2023-09-09T16:05:50.479Z,,,,,19832.40999990463,completion,,,,,true,,,,64890.59999990463,64890.09999990463,45041.207,45048.09999990463,45057.69,64896.332,1,6,,,
exp_instructions,html.Screen,3,2023-09-09T16:06:24.272Z,,,,,33785.168,response,,,,,,continue,keypress(Space),,98683.19999980927,98681.5,64879.723,64890.699999809265,64896.332,98695.381,,,,,
trial,html.Screen,4_0_0,2023-09-09T16:06:28.475Z,,0,1,,4190.718999904639,response,ISIC_4412555.JPG,5,ISIC_0002901.JPG,ISIC_4412555.JPG,false,1,keypress(m),500,102886.19999980927,102886.09999990463,98678.709,98683.39999961853,98695.381,102886.95,8,400,1,,ISIC_0002901.JPG
break,html.Screen,4_0_1,2023-09-09T16:06:28.476Z,,0,,,NaN,,,,,,false,,,,102887,102886.69999980927,,102886.2999997139,,102886.95,8,400,,,
break_continue,html.Screen,4_0_2,2023-09-09T16:06:28.476Z,,0,,,NaN,,,,,,false,,,,102887.2999997139,102887.2999997139,,102887.09999990463,,102886.95,8,400,,,
sequence,flow.Sequence,4_0,2023-09-09T16:06:28.476Z,,0,,,4191.918999713904,completion,,,,,false,,,,102887.39999961853,102887.2999997139,98678.709,98683.39999961853,98695.381,102886.95,8,400,,,
trial,html.Screen,4_1_0,2023-09-09T16:06:36.446Z,,0,1,,7970.1499999046355,response,ISIC_3687259.JPG,5,ISIC_1004416.JPG,ISIC_3687259.JPG,false,1,keypress(m),500,110857.19999980927,110857.09999990463,102870.22,102887.5,102886.95,110869.137,8,400,2,,ISIC_1004416.JPG
break,html.Screen,4_1_1,2023-09-09T16:06:36.447Z,,0,,,NaN,,,,,,false,,,,110858,110857.89999961853,,110857.5,,110869.137,8,400,,,
break_continue,html.Screen,4_1_2,2023-09-09T16:06:36.447Z,,0,,,NaN,,,,,,false,,,,110858.2999997139,110858.19999980927,,110858.09999990463,,110869.137,8,400,,,
sequence,flow.Sequence,4_1,2023-09-09T16:06:36.447Z,,0,,,7971.249999809268,completion,,,,,false,,,,110858.39999961853,110858.19999980927,102870.22,102887.5,102886.95,110869.137,8,400,,,
trial,html.Screen,4_2_0,2023-09-09T16:06:43.377Z,,0,1,,6918.96299990463,response,ISIC_4394524.JPG,5,ISIC_0034173.JPG,ISIC_0034173.JPG,false,0,keypress(z),500,117788.19999980927,117788.09999990463,110852.406,110858.5,110869.137,117799.329,8,400,3,,ISIC_4394524.JPG
break,html.Screen,4_2_1,2023-09-09T16:06:43.378Z,,0,,,NaN,,,,,,false,,,,117788.59999990463,117788.5,,117788.2999997139,,117799.329,8,400,,,
break_continue,html.Screen,4_2_2,2023-09-09T16:06:43.378Z,,0,,,NaN,,,,,,false,,,,117788.7999997139,117788.69999980927,,117788.69999980927,,117799.329,8,400,,,
sequence,flow.Sequence,4_2,2023-09-09T16:06:43.378Z,,0,,,6919.562999809263,completion,,,,,false,,,,117788.7999997139,117788.69999980927,110852.406,110858.39999961853,110869.137,117799.329,8,400,,,
trial,html.Screen,4_3_0,2023-09-09T16:06:50.452Z,,0,1,,7063.770999904635,response,ISIC_0031671.JPG,5,ISIC_0027031.JPG,ISIC_0027031.JPG,false,0,keypress(z),500,124863.2999997139,124863.09999990463,117782.565,117788.89999961853,117799.329,124879.703,8,400,4,,ISIC_0031671.JPG
break,html.Screen,4_3_1,2023-09-09T16:06:50.453Z,,0,,,NaN,,,,,,false,,,,124863.89999961853,124863.69999980927,,124863.39999961853,,124879.703,8,400,,,
break_continue,html.Screen,4_3_2,2023-09-09T16:06:50.453Z,,0,,,NaN,,,,,,false,,,,124864.19999980927,124864.19999980927,,124864.09999990463,,124879.703,8,400,,,
sequence,flow.Sequence,4_3,2023-09-09T16:06:50.453Z,,0,,,7064.870999809267,completion,,,,,false,,,,124864.2999997139,124864.19999980927,117782.565,117788.89999961853,117799.329,124879.703,8,400,,,
trial,html.Screen,4_4_0,2023-09-09T16:06:57.416Z,,0,1,,6946.297000000006,response,ISIC_8292279.JPG,5,ISIC_0033643.JPG,ISIC_0033643.JPG,false,0,keypress(z),500,131826.09999990463,131826,124863.037,124864.39999961853,124879.703,131826.529,8,400,5,,ISIC_8292279.JPG
break,html.Screen,4_4_1,2023-09-09T16:06:57.417Z,,0,,,NaN,,,,,,false,,,,131826.5,131826.39999961853,,131826.19999980927,,131826.529,8,400,,,
break_continue,html.Screen,4_4_2,2023-09-09T16:06:57.417Z,,0,,,NaN,,,,,,false,,,,131826.7999997139,131826.69999980927,,131826.59999990463,,131826.529,8,400,,,
sequence,flow.Sequence,4_4,2023-09-09T16:06:57.417Z,,0,,,6946.996999809271,completion,,,,,false,,,,131827,131826.69999980927,124863.037,124864.39999961853,124879.703,131826.529,8,400,,,
trial,html.Screen,4_5_0,2023-09-09T16:07:05.946Z,,0,1,,8529.570999904623,response,ISIC_0011922.JPG,4,ISIC_0032426.JPG,ISIC_0011922.JPG,false,1,keypress(m),500,140356.19999980927,140356.09999990463,131809.914,131827,131826.529,140359.815,8,400,6,,ISIC_0032426.JPG
break,html.Screen,4_5_1,2023-09-09T16:07:05.947Z,,0,,,NaN,,,,,,false,,,,140356.69999980927,140356.5,,140356.2999997139,,140359.815,8,400,,,
break_continue,html.Screen,4_5_2,2023-09-09T16:07:05.947Z,,0,,,NaN,,,,,,false,,,,140356.89999961853,140356.89999961853,,140356.7999997139,,140359.815,8,400,,,
sequence,flow.Sequence,4_5,2023-09-09T16:07:05.947Z,,0,,,8530.37099961852,completion,,,,,false,,,,140357,140356.89999961853,131809.914,131827,131826.529,140359.815,8,400,,,
trial,html.Screen,4_6_0,2023-09-09T16:07:11.533Z,,0,1,,5582.884999809263,response,ISIC_4407580.JPG,4,ISIC_1166678.JPG,ISIC_4407580.JPG,false,1,keypress(m),500,145942.89999961853,145942.69999980927,140343.344,140357.09999990463,140359.815,145954.207,8,400,7,,ISIC_1166678.JPG
break,html.Screen,4_6_1,2023-09-09T16:07:11.534Z,,0,,,NaN,,,,,,false,,,,145943.39999961853,145943.2999997139,,145943,,145954.207,8,400,,,
break_continue,html.Screen,4_6_2,2023-09-09T16:07:11.534Z,,0,,,NaN,,,,,,false,,,,145944.09999990463,145944,,145943.69999980927,,145954.207,8,400,,,
sequence,flow.Sequence,4_6,2023-09-09T16:07:11.534Z,,0,,,5584.184999999998,completion,,,,,false,,,,145944.2999997139,145944,140343.344,140357.09999990463,140359.815,145954.207,8,400,,,
trial,html.Screen,4_7_0,2023-09-09T16:07:19.184Z,,0,1,,7639.392999904638,response,ISIC_2323082.JPG,5,ISIC_5732487.JPG,ISIC_5732487.JPG,false,0,keypress(z),500,153593.69999980927,153593.59999990463,145937.385,145944.2999997139,145954.207,153602.34,8,400,8,,ISIC_2323082.JPG
break,html.Screen,4_7_1,2023-09-09T16:07:19.184Z,,0,,,NaN,,,,,,false,,,,153594.09999990463,153594,,153593.7999997139,,153602.34,8,400,,,
break_continue,html.Screen,4_7_2,2023-09-09T16:07:19.184Z,,0,,,NaN,,,,,,false,,,,153594.19999980927,153594.19999980927,,153594.19999980927,,153602.34,8,400,,,
sequence,flow.Sequence,4_7,2023-09-09T16:07:19.185Z,,0,,,7639.99299980927,completion,,,,,false,,,,153594.2999997139,153594.19999980927,145937.385,145944.2999997139,145954.207,153602.34,8,400,,,
trial,html.Screen,4_8_0,2023-09-09T16:07:25.427Z,,0,1,,6233.959999713901,response,ISIC_9024078.JPG,6,ISIC_0033021.JPG,ISIC_0033021.JPG,false,0,keypress(z),500,159836.39999961853,159836.2999997139,153585.578,153594.39999961853,153602.34,159847.852,8,400,9,,ISIC_9024078.JPG
break,html.Screen,4_8_1,2023-09-09T16:07:25.427Z,,0,,,NaN,,,,,,false,,,,159837.09999990463,159836.7999997139,,159836.59999990463,,159847.852,8,400,,,
break_continue,html.Screen,4_8_2,2023-09-09T16:07:25.428Z,,0,,,NaN,,,,,,false,,,,159837.39999961853,159837.2999997139,,159837.19999980927,,159847.852,8,400,,,
sequence,flow.Sequence,4_8,2023-09-09T16:07:25.428Z,,0,,,6234.959999713901,completion,,,,,false,,,,159837.5,159837.2999997139,153585.578,153594.39999961853,153602.34,159847.852,8,400,,,
trial,html.Screen,4_9_0,2023-09-09T16:07:34.645Z,,0,1,,9207.347999809252,response,ISIC_0062382.JPG,5,ISIC_1532403.JPG,ISIC_1532403.JPG,false,0,keypress(z),500,169055.2999997139,169055.19999980927,159831.062,159837.5,159847.852,169065.849,8,400,10,,ISIC_0062382.JPG
break,html.Screen,4_9_1,2023-09-09T16:07:34.646Z,,0,,,NaN,,,,,,false,,,,169055.89999961853,169055.59999990463,,169055.39999961853,,169065.849,8,400,,,
break_continue,html.Screen,4_9_2,2023-09-09T16:07:34.646Z,,0,,,NaN,,,,,,false,,,,169056.19999980927,169056.09999990463,,169056,,169065.849,8,400,,,
sequence,flow.Sequence,4_9,2023-09-09T16:07:34.646Z,,0,,,9208.247999904619,completion,,,,,false,,,,169056.2999997139,169056.09999990463,159831.062,159837.5,159847.852,169065.849,8,400,,,
trial,html.Screen,4_10_0,2023-09-09T16:07:40.459Z,,0,1,,5802.550999618543,response,ISIC_0032841.JPG,5,ISIC_8873236.JPG,ISIC_8873236.JPG,false,0,keypress(z),500,174868.5,174868.39999961853,169049.047,169056.2999997139,169065.849,174877.014,8,400,11,,ISIC_0032841.JPG
break,html.Screen,4_10_1,2023-09-09T16:07:40.459Z,,0,,,NaN,,,,,,false,,,,174869.09999990463,174868.89999961853,,174868.59999990463,,174877.014,8,400,,,
break_continue,html.Screen,4_10_2,2023-09-09T16:07:40.460Z,,0,,,NaN,,,,,,false,,,,174869.39999961853,174869.19999980927,,174869.09999990463,,174877.014,8,400,,,
sequence,flow.Sequence,4_10,2023-09-09T16:07:40.460Z,,0,,,5803.350999809278,completion,,,,,false,,,,174869.5,174869.19999980927,169049.047,169056.2999997139,169065.849,174877.014,8,400,,,
trial,html.Screen,4_11_0,2023-09-09T16:07:48.237Z,,0,1,,7769.68599980927,response,ISIC_0065235.JPG,5,ISIC_0024894.JPG,ISIC_0065235.JPG,false,1,keypress(m),500,182646.7999997139,182646.69999980927,174860.336,174869.5,174877.014,182658.821,8,400,12,,ISIC_0024894.JPG
break,html.Screen,4_11_1,2023-09-09T16:07:48.237Z,,0,,,NaN,,,,,,false,,,,182647.19999980927,182647.09999990463,,182646.89999961853,,182658.821,8,400,,,
break_continue,html.Screen,4_11_2,2023-09-09T16:07:48.238Z,,0,,,NaN,,,,,,false,,,,182647.39999961853,182647.39999961853,,182647.2999997139,,182658.821,8,400,,,
sequence,flow.Sequence,4_11,2023-09-09T16:07:48.238Z,,0,,,7770.385999618535,completion,,,,,false,,,,182647.39999961853,182647.39999961853,174860.336,174869.5,174877.014,182658.821,8,400,,,
trial,html.Screen,4_12_0,2023-09-09T16:07:54.336Z,,0,1,,6087.179000000004,response,ISIC_0061475.JPG,5,ISIC_0011387.JPG,ISIC_0061475.JPG,false,1,keypress(m),500,188746.09999990463,188746,182642.112,182647.59999990463,182658.821,188754.065,8,400,13,,ISIC_0011387.JPG
break,html.Screen,4_12_1,2023-09-09T16:07:54.337Z,,0,,,NaN,,,,,,false,,,,188746.69999980927,188746.5,,188746.19999980927,,188754.065,8,400,,,
break_continue,html.Screen,4_12_2,2023-09-09T16:07:54.337Z,,0,,,NaN,,,,,,false,,,,188746.7999997139,188746.7999997139,,188746.69999980927,,188754.065,8,400,,,
sequence,flow.Sequence,4_12,2023-09-09T16:07:54.337Z,,0,,,6087.978999713901,completion,,,,,false,,,,188746.89999961853,188746.7999997139,182642.112,182647.5,182658.821,188754.065,8,400,,,
trial,html.Screen,4_13_0,2023-09-09T16:07:59.971Z,,0,1,,5625.834999618528,response,ISIC_0014392.JPG,6,ISIC_4015508.JPG,ISIC_0014392.JPG,false,1,keypress(m),500,194380,194379.89999961853,188737.459,188747,188754.065,194381.608,8,400,14,,ISIC_4015508.JPG
break,html.Screen,4_13_1,2023-09-09T16:07:59.972Z,,0,,,NaN,,,,,,false,,,,194380.69999980927,194380.5,,194380.19999980927,,194381.608,8,400,,,
break_continue,html.Screen,4_13_2,2023-09-09T16:07:59.972Z,,0,,,NaN,,,,,,false,,,,194381.09999990463,194381,,194380.89999961853,,194381.608,8,400,,,
sequence,flow.Sequence,4_13,2023-09-09T16:07:59.972Z,,0,,,5626.934999999998,completion,,,,,false,,,,194381.09999990463,194381,188737.459,188747,188754.065,194381.608,8,400,,,
trial,html.Screen,4_14_0,2023-09-09T16:08:08.503Z,,0,1,,8529.891999999993,response,ISIC_0034265.JPG,5,ISIC_8555379.JPG,ISIC_8555379.JPG,false,0,keypress(z),500,202911.59999990463,202911.5,194364.93,194381.19999980927,194381.608,202914.897,8,400,15,,ISIC_0034265.JPG
break,html.Screen,4_14_1,2023-09-09T16:08:08.503Z,,0,,,NaN,,,,,,false,,,,202912.09999990463,202912,,202911.69999980927,,202914.897,8,400,,,
break_continue,html.Screen,4_14_2,2023-09-09T16:08:08.503Z,,0,,,NaN,,,,,,false,,,,202912.2999997139,202912.19999980927,,202912.09999990463,,202914.897,8,400,,,
sequence,flow.Sequence,4_14,2023-09-09T16:08:08.504Z,,0,,,8530.591999809258,completion,,,,,false,,,,202912.39999961853,202912.19999980927,194364.93,194381.19999980927,194381.608,202914.897,8,400,,,
trial,html.Screen,4_15_0,2023-09-09T16:08:12.876Z,,0,1,,4369.802999809268,response,ISIC_0067621.JPG,6,ISIC_3065032.JPG,ISIC_0067621.JPG,false,1,keypress(m),500,207284.7999997139,207284.69999980927,202898.169,202912.39999961853,202914.897,207290.054,8,400,16,,ISIC_3065032.JPG
break,html.Screen,4_15_1,2023-09-09T16:08:12.876Z,,0,,,NaN,,,,,,false,,,,207285.19999980927,207285.09999990463,,207284.89999961853,,207290.054,8,400,,,
break_continue,html.Screen,4_15_2,2023-09-09T16:08:12.877Z,,0,,,NaN,,,,,,false,,,,207285.39999961853,207285.2999997139,,207285.19999980927,,207290.054,8,400,,,
sequence,flow.Sequence,4_15,2023-09-09T16:08:12.877Z,,0,,,4370.4029997139005,completion,,,,,false,,,,207285.39999961853,207285.2999997139,202898.169,202912.39999961853,202914.897,207290.054,8,400,,,
trial,html.Screen,4_16_0,2023-09-09T16:08:18.558Z,,0,1,,5676.845999618527,response,ISIC_0033333.JPG,6,ISIC_5942564.JPG,ISIC_0033333.JPG,false,1,keypress(m),500,212967,212966.89999961853,207273.568,207285.5,207290.054,212967.783,8,400,17,,ISIC_5942564.JPG
break,html.Screen,4_16_1,2023-09-09T16:08:18.559Z,,0,,,NaN,,,,,,false,,,,212967.39999961853,212967.39999961853,,212967.09999990463,,212967.783,8,400,,,
break_continue,html.Screen,4_16_2,2023-09-09T16:08:18.559Z,,0,,,NaN,,,,,,false,,,,212967.69999980927,212967.59999990463,,212967.5,,212967.783,8,400,,,
sequence,flow.Sequence,4_16,2023-09-09T16:08:18.559Z,,0,,,5677.545999904629,completion,,,,,false,,,,212967.69999980927,212967.59999990463,207273.568,207285.5,207290.054,212967.783,8,400,,,
trial,html.Screen,4_17_0,2023-09-09T16:08:27.152Z,,0,1,,8593.217000000004,response,ISIC_0610849.JPG,5,ISIC_2054180.JPG,ISIC_2054180.JPG,false,0,keypress(z),500,221561.09999990463,221561,212951.089,212967.69999980927,212967.783,221567.845,8,400,18,,ISIC_0610849.JPG
break,html.Screen,4_17_1,2023-09-09T16:08:27.153Z,,0,,,NaN,,,,,,false,,,,221561.5,221561.39999961853,,221561.19999980927,,221567.845,8,400,,,
break_continue,html.Screen,4_17_2,2023-09-09T16:08:27.153Z,,0,,,NaN,,,,,,false,,,,221561.69999980927,221561.69999980927,,221561.59999990463,,221567.845,8,400,,,
sequence,flow.Sequence,4_17,2023-09-09T16:08:27.153Z,,0,,,8593.91699980927,completion,,,,,false,,,,221561.69999980927,221561.69999980927,212951.089,212967.69999980927,212967.783,221567.845,8,400,,,
trial,html.Screen,4_18_0,2023-09-09T16:08:32.195Z,,0,1,,5036.154999999999,response,ISIC_0010409.JPG,5,ISIC_4768512.JPG,ISIC_0010409.JPG,false,1,keypress(m),500,226604.09999990463,226604,221551.244,221561.7999997139,221567.845,226610.96,8,400,19,,ISIC_4768512.JPG
break,html.Screen,4_18_1,2023-09-09T16:08:32.196Z,,0,,,NaN,,,,,,false,,,,226604.59999990463,226604.5,,226604.19999980927,,226610.96,8,400,,,
break_continue,html.Screen,4_18_2,2023-09-09T16:08:32.196Z,,0,,,NaN,,,,,,false,,,,226604.7999997139,226604.69999980927,,226604.59999990463,,226610.96,8,400,,,
sequence,flow.Sequence,4_18,2023-09-09T16:08:32.196Z,,0,,,5036.854999809264,completion,,,,,false,,,,226604.89999961853,226604.69999980927,221551.244,221561.7999997139,221567.845,226610.96,8,400,,,
trial,html.Screen,4_19_0,2023-09-09T16:08:39.446Z,,0,1,,7243.739999809273,response,ISIC_8195604.JPG,5,ISIC_7803114.JPG,ISIC_7803114.JPG,false,0,keypress(z),500,233854.7999997139,233854.69999980927,226594.388,226605,226610.96,233858.461,8,400,20,,ISIC_8195604.JPG
break,html.Screen,4_19_1,2023-09-09T16:08:39.446Z,,0,,,NaN,,,,,,false,,,,233855.19999980927,233855.09999990463,,233854.89999961853,,233858.461,8,400,,,
break_continue,html.Screen,4_19_2,2023-09-09T16:08:39.447Z,,0,,,NaN,,,,,,false,,,,233855.39999961853,233855.2999997139,,233855.2999997139,,233858.461,8,400,,,
sequence,flow.Sequence,4_19,2023-09-09T16:08:39.447Z,,0,,,7244.339999713906,completion,,,,,false,,,,233855.5,233855.2999997139,226594.388,226605,226610.96,233858.461,8,400,,,
trial,html.Screen,4_20_0,2023-09-09T16:08:44.920Z,,0,1,,5470.3389997138875,response,ISIC_3475142.JPG,6,ISIC_5634573.JPG,ISIC_5634573.JPG,false,0,keypress(z),500,239328.89999961853,239328.7999997139,233841.779,233855.5,233858.461,239335.745,8,400,21,,ISIC_3475142.JPG
break,html.Screen,4_20_1,2023-09-09T16:08:44.921Z,,0,,,NaN,,,,,,false,,,,239329.39999961853,239329.2999997139,,239329.09999990463,,239335.745,8,400,,,
break_continue,html.Screen,4_20_2,2023-09-09T16:08:44.921Z,,0,,,NaN,,,,,,false,,,,239329.59999990463,239329.5,,239329.39999961853,,239335.745,8,400,,,
sequence,flow.Sequence,4_20,2023-09-09T16:08:44.921Z,,0,,,5471.03899999999,completion,,,,,false,,,,239329.59999990463,239329.5,233841.779,233855.5,233858.461,239335.745,8,400,,,
trial,html.Screen,4_21_0,2023-09-09T16:08:51.691Z,,0,1,,6763.554999713902,response,ISIC_0060979.JPG,5,ISIC_0062639.JPG,ISIC_0062639.JPG,false,0,keypress(z),500,246099.39999961853,246099.2999997139,239319.114,239329.69999980927,239335.745,246115.722,8,400,22,,ISIC_0060979.JPG
break,html.Screen,4_21_1,2023-09-09T16:08:51.691Z,,0,,,NaN,,,,,,false,,,,246099.7999997139,246099.69999980927,,246099.5,,246115.722,8,400,,,
break_continue,html.Screen,4_21_2,2023-09-09T16:08:51.691Z,,0,,,NaN,,,,,,false,,,,246100,246100,,246099.7999997139,,246115.722,8,400,,,
sequence,flow.Sequence,4_21,2023-09-09T16:08:51.691Z,,0,,,6764.255000000005,completion,,,,,false,,,,246100.09999990463,246100,239319.114,239329.69999980927,239335.745,246115.722,8,400,,,
trial,html.Screen,4_22_0,2023-09-09T16:08:58.958Z,,0,1,,7249.577999713889,response,ISIC_0465476.JPG,4,ISIC_3031937.JPG,ISIC_3031937.JPG,false,0,keypress(z),500,253365.5,253365.2999997139,246098.966,246100.09999990463,246115.722,253379.992,8,400,23,,ISIC_0465476.JPG
break,html.Screen,4_22_1,2023-09-09T16:08:58.958Z,,0,,,NaN,,,,,,false,,,,253365.7999997139,253365.7999997139,,253365.5,,253379.992,8,400,,,
break_continue,html.Screen,4_22_2,2023-09-09T16:08:58.958Z,,0,,,NaN,,,,,,false,,,,253366.09999990463,253366,,253365.89999961853,,253379.992,8,400,,,
sequence,flow.Sequence,4_22,2023-09-09T16:08:58.958Z,,0,,,7250.277999999991,completion,,,,,false,,,,253366.19999980927,253366,246098.966,246100.09999990463,246115.722,253379.992,8,400,,,
trial,html.Screen,4_23_0,2023-09-09T16:09:04.608Z,,0,1,,5635.807999713899,response,ISIC_0024929.JPG,6,ISIC_2228511.JPG,ISIC_0024929.JPG,false,1,keypress(m),500,259015.89999961853,259015.7999997139,253363.083,253366.39999961853,253379.992,259024.105,8,400,24,,ISIC_2228511.JPG
break,html.Screen,4_23_1,2023-09-09T16:09:04.608Z,,0,,,NaN,,,,,,false,,,,259016.2999997139,259016.19999980927,,259015.89999961853,,259024.105,8,400,,,
break_continue,html.Screen,4_23_2,2023-09-09T16:09:04.609Z,,0,,,NaN,,,,,,false,,,,259016.39999961853,259016.39999961853,,259016.2999997139,,259024.105,8,400,,,
sequence,flow.Sequence,4_23,2023-09-09T16:09:04.609Z,,0,,,5636.407999618532,completion,,,,,false,,,,259016.5,259016.39999961853,253363.083,253366.2999997139,253379.992,259024.105,8,400,,,
trial,html.Screen,4_24_0,2023-09-09T16:09:09.682Z,,0,1,,5065.694999713887,response,ISIC_1661837.JPG,5,ISIC_0000163.JPG,ISIC_0000163.JPG,false,0,keypress(z),500,264089.89999961853,264089.7999997139,259007.562,259016.59999990463,259024.105,264100.716,8,400,25,,ISIC_1661837.JPG
break,html.Screen,4_24_1,2023-09-09T16:09:09.683Z,,0,,,NaN,,,,,,false,,,,264090.39999961853,264090.2999997139,,264090.09999990463,,264100.716,8,400,,,
break_continue,html.Screen,4_24_2,2023-09-09T16:09:09.683Z,,0,,,NaN,,,,,,false,,,,264090.59999990463,264090.59999990463,,264090.5,,264100.716,8,400,,,
sequence,flow.Sequence,4_24,2023-09-09T16:09:09.683Z,,0,,,5066.494999904622,completion,,,,,false,,,,264090.69999980927,264090.59999990463,259007.562,259016.5,259024.105,264100.716,8,400,,,
trial,html.Screen,4_25_0,2023-09-09T16:09:15.692Z,,0,1,,5998.683999618515,response,ISIC_0027798.JPG,4,ISIC_8918703.JPG,ISIC_8918703.JPG,false,0,keypress(z),500,270099.7999997139,270099.39999961853,264084.116,264090.69999980927,264100.716,270112.408,8,400,26,,ISIC_0027798.JPG
break,html.Screen,4_25_1,2023-09-09T16:09:15.693Z,,0,,,NaN,,,,,,false,,,,270101.19999980927,270100.7999997139,,270100.09999990463,,270112.408,8,400,,,
break_continue,html.Screen,4_25_2,2023-09-09T16:09:15.694Z,,0,,,NaN,,,,,,false,,,,270101.89999961853,270101.7999997139,,270101.39999961853,,270112.408,8,400,,,
sequence,flow.Sequence,4_25,2023-09-09T16:09:15.694Z,,0,,,6001.083999713883,completion,,,,,false,,,,270102.19999980927,270101.7999997139,264084.116,264090.69999980927,264100.716,270112.408,8,400,,,
trial,html.Screen,4_26_0,2023-09-09T16:09:21.393Z,,0,1,,5688.191999904637,response,ISIC_5288404.JPG,5,ISIC_0025128.JPG,ISIC_0025128.JPG,false,0,keypress(z),500,275800.69999980927,275800.59999990463,270095.726,270102.5,270112.408,275806.71,8,400,27,,ISIC_5288404.JPG
break,html.Screen,4_26_1,2023-09-09T16:09:21.393Z,,0,,,NaN,,,,,,false,,,,275801.09999990463,275801,,275800.89999961853,,275806.71,8,400,,,
break_continue,html.Screen,4_26_2,2023-09-09T16:09:21.393Z,,0,,,NaN,,,,,,false,,,,275801.2999997139,275801.19999980927,,275801.19999980927,,275806.71,8,400,,,
sequence,flow.Sequence,4_26,2023-09-09T16:09:21.394Z,,0,,,5688.791999809269,completion,,,,,false,,,,275801.2999997139,275801.19999980927,270095.726,270102.39999961853,270112.408,275806.71,8,400,,,
trial,html.Screen,4_27_0,2023-09-09T16:09:27.859Z,,0,1,,6459.589999713877,response,ISIC_9012513.JPG,4,ISIC_4601527.JPG,ISIC_9012513.JPG,false,1,keypress(m),500,282266.5,282266.2999997139,275790.068,275801.39999961853,275806.71,282269.375,8,400,28,,ISIC_4601527.JPG
break,html.Screen,4_27_1,2023-09-09T16:09:27.860Z,,0,,,NaN,,,,,,false,,,,282267.7999997139,282267.39999961853,,282266.7999997139,,282269.375,8,400,,,
break_continue,html.Screen,4_27_2,2023-09-09T16:09:27.861Z,,0,,,NaN,,,,,,false,,,,282268.39999961853,282268.2999997139,,282268,,282269.375,8,400,,,
sequence,flow.Sequence,4_27,2023-09-09T16:09:27.861Z,,0,,,6461.589999713877,completion,,,,,false,,,,282268.69999980927,282268.2999997139,275790.068,275801.39999961853,275806.71,282269.375,8,400,,,
trial,html.Screen,4_28_0,2023-09-09T16:09:33.403Z,,0,1,,5540.924999713898,response,ISIC_0070412.JPG,5,ISIC_6208508.JPG,ISIC_0070412.JPG,false,1,keypress(m),500,287810.5,287810.2999997139,282252.686,282269,282269.375,287813.438,8,400,29,,ISIC_6208508.JPG
break,html.Screen,4_28_1,2023-09-09T16:09:33.403Z,,0,,,NaN,,,,,,false,,,,287811.19999980927,287810.89999961853,,287810.69999980927,,287813.438,8,400,,,
break_continue,html.Screen,4_28_2,2023-09-09T16:09:33.404Z,,0,,,NaN,,,,,,false,,,,287811.59999990463,287811.5,,287811.39999961853,,287813.438,8,400,,,
sequence,flow.Sequence,4_28,2023-09-09T16:09:33.404Z,,0,,,5542.125,completion,,,,,false,,,,287811.69999980927,287811.5,282252.686,282269,282269.375,287813.438,8,400,,,
trial,html.Screen,4_29_0,2023-09-09T16:09:39.646Z,,0,1,,6239.761999809241,response,ISIC_0033415.JPG,5,ISIC_0066399.JPG,ISIC_0066399.JPG,false,0,keypress(z),500,294053.2999997139,294053.19999980927,287796.844,287811.69999980927,287813.438,294058.928,8,400,30,,ISIC_0033415.JPG
break,html.Screen,4_29_1,2023-09-09T16:09:39.646Z,,0,,,NaN,,,,,,false,,,,294054.19999980927,294054,,294053.5,,294058.928,8,400,,,
break_continue,html.Screen,4_29_2,2023-09-09T16:09:39.647Z,,0,,,NaN,,,,,,false,,,,294054.39999961853,294054.2999997139,,294054.19999980927,,294058.928,8,400,,,
sequence,flow.Sequence,4_29,2023-09-09T16:09:39.647Z,,0,,,6240.861999713874,completion,,,,,false,,,,294054.5,294054.2999997139,287796.844,287811.69999980927,287813.438,294058.928,8,400,,,
trial,html.Screen,4_30_0,2023-09-09T16:09:45.792Z,,0,1,,6140.771999809251,response,ISIC_0030774.JPG,5,ISIC_0411688.JPG,ISIC_0411688.JPG,false,0,keypress(z),500,300199.7999997139,300199.69999980927,294042.305,294054.59999990463,294058.928,300204.322,8,400,31,,ISIC_0030774.JPG
break,html.Screen,4_30_1,2023-09-09T16:09:45.792Z,,0,,,NaN,,,,,,false,,,,300200.19999980927,300200.19999980927,,300199.89999961853,,300204.322,8,400,,,
break_continue,html.Screen,4_30_2,2023-09-09T16:09:45.793Z,,0,,,NaN,,,,,,false,,,,300200.39999961853,300200.39999961853,,300200.2999997139,,300204.322,8,400,,,
sequence,flow.Sequence,4_30,2023-09-09T16:09:45.793Z,,0,,,6141.471999618516,completion,,,,,false,,,,300200.5,300200.39999961853,294042.305,294054.59999990463,294058.928,300204.322,8,400,,,
trial,html.Screen,4_31_0,2023-09-09T16:09:51.075Z,,0,1,,5278.077999618545,response,ISIC_5559730.JPG,4,ISIC_1350519.JPG,ISIC_1350519.JPG,false,0,keypress(z),500,305482.5,305482.39999961853,300187.6,300200.5,300204.322,305497.843,8,400,32,,ISIC_5559730.JPG
break,html.Screen,4_31_1,2023-09-09T16:09:51.075Z,,0,,,NaN,,,,,,false,,,,305483.09999990463,305482.89999961853,,305482.59999990463,,305497.843,8,400,,,
break_continue,html.Screen,4_31_2,2023-09-09T16:09:51.076Z,,0,,,NaN,,,,,,false,,,,305483.5,305483.39999961853,,305483.19999980927,,305497.843,8,400,,,
sequence,flow.Sequence,4_31,2023-09-09T16:09:51.076Z,,0,,,5279.077999618545,completion,,,,,false,,,,305483.59999990463,305483.39999961853,300187.6,300200.5,300204.322,305497.843,8,400,,,
trial,html.Screen,4_32_0,2023-09-09T16:09:55.013Z,,0,1,,3922.956999713904,response,ISIC_3315146.JPG,5,ISIC_0010175.JPG,ISIC_0010175.JPG,false,0,keypress(z),500,309421,309420.7999997139,305481.313,305483.59999990463,305497.843,309422.164,8,400,33,,ISIC_3315146.JPG
break,html.Screen,4_32_1,2023-09-09T16:09:55.013Z,,0,,,NaN,,,,,,false,,,,309421.2999997139,309421.19999980927,,309421,,309422.164,8,400,,,
break_continue,html.Screen,4_32_2,2023-09-09T16:09:55.014Z,,0,,,NaN,,,,,,false,,,,309421.59999990463,309421.5,,309421.39999961853,,309422.164,8,400,,,
sequence,flow.Sequence,4_32,2023-09-09T16:09:55.014Z,,0,,,3923.6570000000065,completion,,,,,false,,,,309421.59999990463,309421.5,305481.313,305483.59999990463,305497.843,309422.164,8,400,,,
trial,html.Screen,4_33_0,2023-09-09T16:10:02.096Z,,0,1,,7080.33600000001,response,ISIC_8431648.JPG,6,ISIC_4187485.JPG,ISIC_4187485.JPG,false,0,keypress(z),500,316502.69999980927,316502.5,309405.642,309421.69999980927,309422.164,316519.383,8,400,34,,ISIC_8431648.JPG
break,html.Screen,4_33_1,2023-09-09T16:10:02.097Z,,0,,,NaN,,,,,,false,,,,316503.5,316503.2999997139,,316502.7999997139,,316519.383,8,400,,,
break_continue,html.Screen,4_33_2,2023-09-09T16:10:02.097Z,,0,,,NaN,,,,,,false,,,,316503.7999997139,316503.69999980927,,316503.59999990463,,316519.383,8,400,,,
sequence,flow.Sequence,4_33,2023-09-09T16:10:02.097Z,,0,,,7081.535999809275,completion,,,,,false,,,,316503.7999997139,316503.69999980927,309405.642,309421.69999980927,309422.164,316519.383,8,400,,,
trial,html.Screen,4_34_0,2023-09-09T16:10:07.715Z,,0,1,,5601.816999809293,response,ISIC_0053572.JPG,5,ISIC_9756858.JPG,ISIC_0053572.JPG,false,1,keypress(m),500,322121.2999997139,322121.19999980927,316502.775,316503.89999961853,316519.383,322130.33,8,400,35,,ISIC_9756858.JPG
break,html.Screen,4_34_1,2023-09-09T16:10:07.715Z,,0,,,NaN,,,,,,false,,,,322121.69999980927,322121.59999990463,,322121.39999961853,,322130.33,8,400,,,
break_continue,html.Screen,4_34_2,2023-09-09T16:10:07.715Z,,0,,,NaN,,,,,,false,,,,322121.89999961853,322121.89999961853,,322121.7999997139,,322130.33,8,400,,,
sequence,flow.Sequence,4_34,2023-09-09T16:10:07.715Z,,0,,,5602.516999618558,completion,,,,,false,,,,322122,322121.89999961853,316502.775,316503.7999997139,316519.383,322130.33,8,400,,,
trial,html.Screen,4_35_0,2023-09-09T16:10:14.743Z,,0,1,,7019.269999904616,response,ISIC_0057594.JPG,5,ISIC_8725878.JPG,ISIC_0057594.JPG,false,1,keypress(m),500,329149.69999980927,329149.59999990463,322113.575,322122,322130.33,329160.645,8,400,36,,ISIC_8725878.JPG
break,html.Screen,4_35_1,2023-09-09T16:10:14.743Z,,0,,,NaN,,,,,,false,,,,329150.19999980927,329150.09999990463,,329149.7999997139,,329160.645,8,400,,,
break_continue,html.Screen,4_35_2,2023-09-09T16:10:14.744Z,,0,,,NaN,,,,,,false,,,,329150.59999990463,329150.5,,329150.2999997139,,329160.645,8,400,,,
sequence,flow.Sequence,4_35,2023-09-09T16:10:14.744Z,,0,,,7020.169999999984,completion,,,,,false,,,,329150.69999980927,329150.5,322113.575,322122,322130.33,329160.645,8,400,,,
trial,html.Screen,4_36_0,2023-09-09T16:10:22.841Z,,0,1,,8087.254999618512,response,ISIC_3996796.JPG,5,ISIC_6721869.JPG,ISIC_3996796.JPG,false,1,keypress(m),500,337248,337247.89999961853,329144.048,329150.69999980927,329160.645,337259.747,8,400,37,,ISIC_6721869.JPG
break,html.Screen,4_36_1,2023-09-09T16:10:22.842Z,,0,,,NaN,,,,,,false,,,,337248.5,337248.2999997139,,337248.19999980927,,337259.747,8,400,,,
break_continue,html.Screen,4_36_2,2023-09-09T16:10:22.842Z,,0,,,NaN,,,,,,false,,,,337248.59999990463,337248.59999990463,,337248.5,,337259.747,8,400,,,
sequence,flow.Sequence,4_36,2023-09-09T16:10:22.842Z,,0,,,8087.954999904614,completion,,,,,false,,,,337248.69999980927,337248.59999990463,329144.048,329150.69999980927,329160.645,337259.747,8,400,,,
trial,html.Screen,4_37_0,2023-09-09T16:10:27.372Z,,0,1,,4519.152999618556,response,ISIC_2299749.JPG,5,ISIC_5390932.JPG,ISIC_2299749.JPG,false,1,keypress(m),500,341779,341778.89999961853,337243.115,337248.69999980927,337259.747,341785.162,8,400,38,,ISIC_5390932.JPG
break,html.Screen,4_37_1,2023-09-09T16:10:27.373Z,,0,,,NaN,,,,,,false,,,,341779.39999961853,341779.2999997139,,341779.09999990463,,341785.162,8,400,,,
break_continue,html.Screen,4_37_2,2023-09-09T16:10:27.373Z,,0,,,NaN,,,,,,false,,,,341779.59999990463,341779.59999990463,,341779.5,,341785.162,8,400,,,
sequence,flow.Sequence,4_37,2023-09-09T16:10:27.373Z,,0,,,4519.852999904659,completion,,,,,false,,,,341779.59999990463,341779.59999990463,337243.115,337248.69999980927,337259.747,341785.162,8,400,,,
trial,html.Screen,4_38_0,2023-09-09T16:10:33.822Z,,0,1,,6444.037999809254,response,ISIC_0883408.JPG,5,ISIC_0066200.JPG,ISIC_0066200.JPG,false,0,keypress(z),500,348229.2999997139,348229.19999980927,341768.66,341779.7999997139,341785.162,348231.001,8,400,39,,ISIC_0883408.JPG
break,html.Screen,4_38_1,2023-09-09T16:10:33.823Z,,0,,,NaN,,,,,,false,,,,348229.89999961853,348229.59999990463,,348229.2999997139,,348231.001,8,400,,,
break_continue,html.Screen,4_38_2,2023-09-09T16:10:33.823Z,,0,,,NaN,,,,,,false,,,,348230.09999990463,348230.09999990463,,348229.89999961853,,348231.001,8,400,,,
sequence,flow.Sequence,4_38,2023-09-09T16:10:33.823Z,,0,,,6444.937999904621,completion,,,,,false,,,,348230.19999980927,348230.09999990463,341768.66,341779.69999980927,341785.162,348231.001,8,400,,,
trial,html.Screen,4_39_0,2023-09-09T16:10:38.580Z,,0,1,,4755.598999904643,response,ISIC_1166522.JPG,6,ISIC_0007619.JPG,ISIC_1166522.JPG,false,1,keypress(m),500,352986.7999997139,352986.59999990463,348214.518,348230.39999961853,348231.001,352990.272,8,400,40,,ISIC_0007619.JPG
break,html.Screen,4_39_1,2023-09-09T16:10:38.580Z,,0,,,NaN,,,,,,false,,,,352987.19999980927,352987.09999990463,,352986.89999961853,,352990.272,8,400,,,
break_continue,html.Screen,4_39_2,2023-09-09T16:10:38.581Z,,0,,,NaN,,,,,,false,,,,352987.5,352987.39999961853,,352987.2999997139,,352990.272,8,400,,,
sequence,flow.Sequence,4_39,2023-09-09T16:10:38.581Z,,0,,,4756.398999618541,completion,,,,,false,,,,352987.59999990463,352987.39999961853,348214.518,348230.39999961853,348231.001,352990.272,8,400,,,
trial,html.Screen,4_40_0,2023-09-09T16:10:44.807Z,,0,1,,6223.5279997139005,response,ISIC_1948545.JPG,5,ISIC_0015390.JPG,ISIC_0015390.JPG,false,0,keypress(z),500,359214,359213.7999997139,352973.682,352987.69999980927,352990.272,359219.068,8,400,41,,ISIC_1948545.JPG
break,html.Screen,4_40_1,2023-09-09T16:10:44.808Z,,0,,,NaN,,,,,,false,,,,359214.7999997139,359214.5,,359214.19999980927,,359219.068,8,400,,,
break_continue,html.Screen,4_40_2,2023-09-09T16:10:44.808Z,,0,,,NaN,,,,,,false,,,,359215.19999980927,359215.09999990463,,359214.89999961853,,359219.068,8,400,,,
sequence,flow.Sequence,4_40,2023-09-09T16:10:44.809Z,,0,,,6224.827999904635,completion,,,,,false,,,,359215.19999980927,359215.09999990463,352973.682,352987.59999990463,352990.272,359219.068,8,400,,,
trial,html.Screen,4_41_0,2023-09-09T16:10:50.638Z,,0,1,,5826.031999904604,response,ISIC_7097665.JPG,6,ISIC_2379379.JPG,ISIC_7097665.JPG,false,1,keypress(m),500,365045.19999980927,365045.09999990463,359202.374,359215.39999961853,359219.068,365047.043,8,400,42,,ISIC_2379379.JPG
break,html.Screen,4_41_1,2023-09-09T16:10:50.639Z,,0,,,NaN,,,,,,false,,,,365045.69999980927,365045.69999980927,,365045.39999961853,,365047.043,8,400,,,
break_continue,html.Screen,4_41_2,2023-09-09T16:10:50.639Z,,0,,,NaN,,,,,,false,,,,365046,365045.89999961853,,365045.89999961853,,365047.043,8,400,,,
sequence,flow.Sequence,4_41,2023-09-09T16:10:50.639Z,,0,,,5826.831999618502,completion,,,,,false,,,,365046.09999990463,365045.89999961853,359202.374,359215.39999961853,359219.068,365047.043,8,400,,,
trial,html.Screen,4_42_0,2023-09-09T16:10:56.580Z,,0,1,,5938.356999618525,response,ISIC_0024918.JPG,4,ISIC_0072559.JPG,ISIC_0072559.JPG,false,0,keypress(z),500,370985.5,370985.39999961853,365030.543,365046.09999990463,365047.043,370992.066,8,400,43,,ISIC_0024918.JPG
break,html.Screen,4_42_1,2023-09-09T16:10:56.580Z,,0,,,NaN,,,,,,false,,,,370986.09999990463,370985.7999997139,,370985.59999990463,,370992.066,8,400,,,
break_continue,html.Screen,4_42_2,2023-09-09T16:10:56.581Z,,0,,,NaN,,,,,,false,,,,370986.2999997139,370986.2999997139,,370986.09999990463,,370992.066,8,400,,,
sequence,flow.Sequence,4_42,2023-09-09T16:10:56.581Z,,0,,,5939.256999713893,completion,,,,,false,,,,370986.39999961853,370986.2999997139,365030.543,365046.09999990463,365047.043,370992.066,8,400,,,
trial,html.Screen,4_43_0,2023-09-09T16:11:01.755Z,,0,1,,5168.6339998092735,response,ISIC_0025835.JPG,4,ISIC_2635051.JPG,ISIC_0025835.JPG,false,1,keypress(m),500,376160.7999997139,376160.69999980927,370975.365,370986.5,370992.066,376168.794,8,400,44,,ISIC_2635051.JPG
break,html.Screen,4_43_1,2023-09-09T16:11:01.756Z,,0,,,NaN,,,,,,false,,,,376161.2999997139,376161.19999980927,,376160.89999961853,,376168.794,8,400,,,
break_continue,html.Screen,4_43_2,2023-09-09T16:11:01.756Z,,0,,,NaN,,,,,,false,,,,376161.59999990463,376161.5,,376161.2999997139,,376168.794,8,400,,,
sequence,flow.Sequence,4_43,2023-09-09T16:11:01.756Z,,0,,,5169.434000000008,completion,,,,,false,,,,376161.59999990463,376161.5,370975.365,370986.5,370992.066,376168.794,8,400,,,
trial,html.Screen,4_44_0,2023-09-09T16:11:07.630Z,,0,1,,5866.505999713903,response,ISIC_0061359.JPG,6,ISIC_0029389.JPG,ISIC_0061359.JPG,false,1,keypress(m),500,382035.39999961853,382035.2999997139,376152.149,376161.69999980927,376168.794,382047.008,8,400,45,,ISIC_0029389.JPG
break,html.Screen,4_44_1,2023-09-09T16:11:07.630Z,,0,,,NaN,,,,,,false,,,,382036,382035.89999961853,,382035.59999990463,,382047.008,8,400,,,
break_continue,html.Screen,4_44_2,2023-09-09T16:11:07.631Z,,0,,,NaN,,,,,,false,,,,382036.39999961853,382036.2999997139,,382036.09999990463,,382047.008,8,400,,,
sequence,flow.Sequence,4_44,2023-09-09T16:11:07.631Z,,0,,,5867.505999713903,completion,,,,,false,,,,382036.5,382036.2999997139,376152.149,376161.69999980927,376168.794,382047.008,8,400,,,
trial,html.Screen,4_45_0,2023-09-09T16:11:13.830Z,,0,1,,6188.4920000000275,response,ISIC_7180418.JPG,6,ISIC_4445729.JPG,ISIC_4445729.JPG,false,0,keypress(z),500,388235.59999990463,388235.5,382030.215,382036.59999990463,382047.008,388242.214,8,400,46,,ISIC_7180418.JPG
break,html.Screen,4_45_1,2023-09-09T16:11:13.831Z,,0,,,NaN,,,,,,false,,,,388236.2999997139,388236,,388235.69999980927,,388242.214,8,400,,,
break_continue,html.Screen,4_45_2,2023-09-09T16:11:13.831Z,,0,,,NaN,,,,,,false,,,,388236.69999980927,388236.59999990463,,388236.5,,388242.214,8,400,,,
sequence,flow.Sequence,4_45,2023-09-09T16:11:13.831Z,,0,,,6189.59199990466,completion,,,,,false,,,,388236.7999997139,388236.59999990463,382030.215,382036.5,382047.008,388242.214,8,400,,,
trial,html.Screen,4_46_0,2023-09-09T16:11:21.310Z,,0,1,,7473.08599971392,response,ISIC_0072215.JPG,5,ISIC_0069946.JPG,ISIC_0069946.JPG,false,0,keypress(z),500,395715.5,395715.2999997139,388225.642,388236.89999961853,388242.214,395723.45,8,400,47,,ISIC_0072215.JPG
break,html.Screen,4_46_1,2023-09-09T16:11:21.310Z,,0,,,NaN,,,,,,false,,,,395716.09999990463,395716,,395715.59999990463,,395723.45,8,400,,,
break_continue,html.Screen,4_46_2,2023-09-09T16:11:21.311Z,,0,,,NaN,,,,,,false,,,,395716.39999961853,395716.2999997139,,395716.09999990463,,395723.45,8,400,,,
sequence,flow.Sequence,4_46,2023-09-09T16:11:21.311Z,,0,,,7474.08599971392,completion,,,,,false,,,,395716.5,395716.2999997139,388225.642,388236.89999961853,388242.214,395723.45,8,400,,,
trial,html.Screen,4_47_0,2023-09-09T16:11:30.641Z,,0,1,,9323.449999618519,response,ISIC_4259290.JPG,5,ISIC_3436139.JPG,ISIC_3436139.JPG,false,0,keypress(z),500,405047,405046.89999961853,395706.822,395716.59999990463,395723.45,405058.264,8,400,48,,ISIC_4259290.JPG
break,html.Screen,4_47_1,2023-09-09T16:11:30.642Z,,0,,,NaN,,,,,,false,,,,405047.7999997139,405047.5,,405047.19999980927,,405058.264,8,400,,,
break_continue,html.Screen,4_47_2,2023-09-09T16:11:30.642Z,,0,,,NaN,,,,,,false,,,,405048,405048,,405047.89999961853,,405058.264,8,400,,,
sequence,flow.Sequence,4_47,2023-09-09T16:11:30.642Z,,0,,,9324.549999999988,completion,,,,,false,,,,405048.09999990463,405048,395706.822,395716.5,395723.45,405058.264,8,400,,,
trial,html.Screen,4_48_0,2023-09-09T16:11:36.538Z,,0,1,,5884.835999904608,response,ISIC_0010653.JPG,5,ISIC_9625295.JPG,ISIC_0010653.JPG,false,1,keypress(m),500,410943.2999997139,410943.09999990463,405041.597,405048.19999980927,405058.264,410953.237,8,400,49,,ISIC_9625295.JPG
break,html.Screen,4_48_1,2023-09-09T16:11:36.539Z,,0,,,NaN,,,,,,false,,,,410944.2999997139,410944,,410943.59999990463,,410953.237,8,400,,,
break_continue,html.Screen,4_48_2,2023-09-09T16:11:36.539Z,,0,,,NaN,,,,,,false,,,,410944.69999980927,410944.59999990463,,410944.2999997139,,410953.237,8,400,,,
sequence,flow.Sequence,4_48,2023-09-09T16:11:36.539Z,,0,,,5886.335999904608,completion,,,,,false,,,,410944.7999997139,410944.59999990463,405041.597,405048.19999980927,405058.264,410953.237,8,400,,,
trial,html.Screen,4_49_0,2023-09-09T16:11:42.125Z,,0,1,,5577.6629996185075,response,ISIC_0054422.JPG,6,ISIC_0073119.JPG,ISIC_0054422.JPG,false,1,keypress(m),500,416531,416530.89999961853,410936.475,410945,410953.237,416547.259,8,400,50,,ISIC_0073119.JPG
break,html.Screen,4_49_1,2023-09-09T16:11:52.128Z,,0,,,10002.931999999972,timeout,,,,,false,,,,426534.09999990463,426533.412,416530.648,416531.19999980927,416547.259,426550.191,8,400,,,
break_continue,html.Screen,4_49_2,2023-09-09T16:12:03.094Z,,0,,,10935.708999618539,response,,,,,false,continue,keypress(Space),,437499,437485.89999961853,426533.412,426534.2999997139,426550.191,437504.795,8,400,,,
sequence,flow.Sequence,4_49,2023-09-09T16:12:03.094Z,,0,,,26532.662999618507,completion,,,,,false,,,,437499.09999990463,437485.89999961853,410936.475,410945,410953.237,437504.795,8,400,,,
trial,html.Screen,4_50_0,2023-09-09T16:12:06.487Z,,0,2,,3387.4049998092814,response,ISIC_1960468.JPG,5,ISIC_9291926.JPG,ISIC_9291926.JPG,false,0,keypress(z),500,440892.39999961853,440892.19999980927,437488.132,437499.19999980927,437504.795,440894.682,8,400,1,,ISIC_1960468.JPG
break,html.Screen,4_50_1,2023-09-09T16:12:06.488Z,,0,,,NaN,,,,,,false,,,,440892.7999997139,440892.69999980927,,440892.5,,440894.682,8,400,,,
break_continue,html.Screen,4_50_2,2023-09-09T16:12:06.488Z,,0,,,NaN,,,,,,false,,,,440893,440893,,440892.89999961853,,440894.682,8,400,,,
sequence,flow.Sequence,4_50,2023-09-09T16:12:06.488Z,,0,,,3388.2050000000163,completion,,,,,false,,,,440893.19999980927,440893,437488.132,437499.19999980927,437504.795,440894.682,8,400,,,
trial,html.Screen,4_51_0,2023-09-09T16:12:11.066Z,,0,2,,4576.0179998092935,response,ISIC_0283541.JPG,4,ISIC_3933658.JPG,ISIC_0283541.JPG,false,1,keypress(m),500,445470.7999997139,445470.69999980927,440877.985,440893.2999997139,440894.682,445486.95,8,400,2,,ISIC_3933658.JPG
break,html.Screen,4_51_1,2023-09-09T16:12:11.066Z,,0,,,NaN,,,,,,false,,,,445471.2999997139,445471.09999990463,,445470.89999961853,,445486.95,8,400,,,
break_continue,html.Screen,4_51_2,2023-09-09T16:12:11.066Z,,0,,,NaN,,,,,,false,,,,445471.39999961853,445471.39999961853,,445471.2999997139,,445486.95,8,400,,,
sequence,flow.Sequence,4_51,2023-09-09T16:12:11.067Z,,0,,,4576.717999618559,completion,,,,,false,,,,445471.5,445471.39999961853,440877.985,440893.19999980927,440894.682,445486.95,8,400,,,
trial,html.Screen,4_52_0,2023-09-09T16:12:15.789Z,,0,2,,4706.549999999988,response,ISIC_0024344.JPG,6,ISIC_8766254.JPG,ISIC_0024344.JPG,false,1,keypress(m),500,450193.59999990463,450193.5,445470.223,445471.5,445486.95,450196.103,8,400,3,,ISIC_8766254.JPG
break,html.Screen,4_52_1,2023-09-09T16:12:15.789Z,,0,,,NaN,,,,,,false,,,,450194.09999990463,450193.89999961853,,450193.69999980927,,450196.103,8,400,,,
break_continue,html.Screen,4_52_2,2023-09-09T16:12:15.789Z,,0,,,NaN,,,,,,false,,,,450194.2999997139,450194.19999980927,,450194.09999990463,,450196.103,8,400,,,
sequence,flow.Sequence,4_52,2023-09-09T16:12:15.789Z,,0,,,4707.2499998092535,completion,,,,,false,,,,450194.2999997139,450194.19999980927,445470.223,445471.5,445486.95,450196.103,8,400,,,
trial,html.Screen,4_53_0,2023-09-09T16:12:21.393Z,,0,2,,5601.7969996185275,response,ISIC_8211214.JPG,5,ISIC_0058346.JPG,ISIC_0058346.JPG,false,0,keypress(z),500,455798,455797.89999961853,450179.582,450194.5,450196.103,455807.018,8,400,4,,ISIC_8211214.JPG
break,html.Screen,4_53_1,2023-09-09T16:12:21.394Z,,0,,,NaN,,,,,,false,,,,455798.5,455798.39999961853,,455798.09999990463,,455807.018,8,400,,,
break_continue,html.Screen,4_53_2,2023-09-09T16:12:21.394Z,,0,,,NaN,,,,,,false,,,,455798.69999980927,455798.59999990463,,455798.5,,455807.018,8,400,,,
sequence,flow.Sequence,4_53,2023-09-09T16:12:21.394Z,,0,,,5602.49699990463,completion,,,,,false,,,,455798.89999961853,455798.59999990463,450179.582,450194.39999961853,450196.103,455807.018,8,400,,,
trial,html.Screen,4_54_0,2023-09-09T16:12:25.816Z,,0,2,,4413.482000000018,response,ISIC_7185913.JPG,5,ISIC_0012040.JPG,ISIC_0012040.JPG,false,0,keypress(z),500,460220.59999990463,460220.5,455790.396,455798.89999961853,455807.018,460249.05,8,400,5,,ISIC_7185913.JPG
break,html.Screen,4_54_1,2023-09-09T16:12:25.816Z,,0,,,NaN,,,,,,false,,,,460221.2999997139,460221,,460220.7999997139,,460249.05,8,400,,,
break_continue,html.Screen,4_54_2,2023-09-09T16:12:25.817Z,,0,,,NaN,,,,,,false,,,,460221.69999980927,460221.59999990463,,460221.39999961853,,460249.05,8,400,,,
sequence,flow.Sequence,4_54,2023-09-09T16:12:25.817Z,,0,,,4414.581999904651,completion,,,,,false,,,,460221.7999997139,460221.59999990463,455790.396,455798.89999961853,455807.018,460249.05,8,400,,,
trial,html.Screen,4_55_0,2023-09-09T16:12:32.586Z,,0,2,,6741.849999618542,response,ISIC_9685931.JPG,5,ISIC_0026360.JPG,ISIC_0026360.JPG,false,0,keypress(z),500,466991.09999990463,466990.89999961853,460232.455,460221.7999997139,460249.05,466995.474,8,400,6,,ISIC_9685931.JPG
break,html.Screen,4_55_1,2023-09-09T16:12:32.587Z,,0,,,NaN,,,,,,false,,,,466991.39999961853,466991.39999961853,,466991.09999990463,,466995.474,8,400,,,
break_continue,html.Screen,4_55_2,2023-09-09T16:12:32.587Z,,0,,,NaN,,,,,,false,,,,466991.59999990463,466991.59999990463,,466991.5,,466995.474,8,400,,,
sequence,flow.Sequence,4_55,2023-09-09T16:12:32.587Z,,0,,,6742.549999904644,completion,,,,,false,,,,466991.69999980927,466991.59999990463,460232.455,460221.7999997139,460249.05,466995.474,8,400,,,
trial,html.Screen,4_56_0,2023-09-09T16:12:37.660Z,,0,2,,5069.32599971391,response,ISIC_0055826.JPG,5,ISIC_0013232.JPG,ISIC_0013232.JPG,false,0,keypress(z),500,472064.89999961853,472064.7999997139,466978.866,466991.7999997139,466995.474,472072.006,8,400,7,,ISIC_0055826.JPG
break,html.Screen,4_56_1,2023-09-09T16:12:37.661Z,,0,,,NaN,,,,,,false,,,,472065.39999961853,472065.2999997139,,472065,,472072.006,8,400,,,
break_continue,html.Screen,4_56_2,2023-09-09T16:12:37.661Z,,0,,,NaN,,,,,,false,,,,472065.7999997139,472065.59999990463,,472065.59999990463,,472072.006,8,400,,,
sequence,flow.Sequence,4_56,2023-09-09T16:12:37.661Z,,0,,,5070.125999904645,completion,,,,,false,,,,472065.89999961853,472065.59999990463,466978.866,466991.7999997139,466995.474,472072.006,8,400,,,
trial,html.Screen,4_57_0,2023-09-09T16:12:43.870Z,,0,2,,6202.793999713904,response,ISIC_0028219.JPG,5,ISIC_0011097.JPG,ISIC_0028219.JPG,false,1,keypress(m),500,478275,478274.7999997139,472055.508,472066,472072.006,478284.165,8,400,8,,ISIC_0011097.JPG
break,html.Screen,4_57_1,2023-09-09T16:12:43.871Z,,0,,,NaN,,,,,,false,,,,478275.59999990463,478275.39999961853,,478275.09999990463,,478284.165,8,400,,,
break_continue,html.Screen,4_57_2,2023-09-09T16:12:43.871Z,,0,,,NaN,,,,,,false,,,,478276,478275.89999961853,,478275.7999997139,,478284.165,8,400,,,
sequence,flow.Sequence,4_57,2023-09-09T16:12:43.871Z,,0,,,6203.893999618536,completion,,,,,false,,,,478276.09999990463,478275.89999961853,472055.508,472065.89999961853,472072.006,478284.165,8,400,,,
trial,html.Screen,4_58_0,2023-09-09T16:12:51.175Z,,0,2,,7295.234999618551,response,ISIC_0065200.JPG,4,ISIC_0222117.JPG,ISIC_0065200.JPG,false,1,keypress(m),500,485579.59999990463,485579.39999961853,478267.442,478276.19999980927,478284.165,485581.642,8,400,9,,ISIC_0222117.JPG
break,html.Screen,4_58_1,2023-09-09T16:12:51.175Z,,0,,,NaN,,,,,,false,,,,485580,485579.89999961853,,485579.69999980927,,485581.642,8,400,,,
break_continue,html.Screen,4_58_2,2023-09-09T16:12:51.175Z,,0,,,NaN,,,,,,false,,,,485580.09999990463,485580.09999990463,,485580.09999990463,,485581.642,8,400,,,
sequence,flow.Sequence,4_58,2023-09-09T16:12:51.175Z,,0,,,7295.9349999046535,completion,,,,,false,,,,485580.2999997139,485580.09999990463,478267.442,478276.19999980927,478284.165,485581.642,8,400,,,
trial,html.Screen,4_59_0,2023-09-09T16:12:55.992Z,,0,2,,4815.45799990464,response,ISIC_0034090.JPG,4,ISIC_8065633.JPG,ISIC_0034090.JPG,false,1,keypress(m),500,490397.2999997139,490397.09999990463,485564.977,485580.2999997139,485581.642,490407.715,8,400,10,,ISIC_8065633.JPG
break,html.Screen,4_59_1,2023-09-09T16:12:55.993Z,,0,,,NaN,,,,,,false,,,,490397.69999980927,490397.59999990463,,490397.2999997139,,490407.715,8,400,,,
break_continue,html.Screen,4_59_2,2023-09-09T16:12:55.993Z,,0,,,NaN,,,,,,false,,,,490397.89999961853,490397.89999961853,,490397.7999997139,,490407.715,8,400,,,
sequence,flow.Sequence,4_59,2023-09-09T16:12:55.993Z,,0,,,4816.257999618538,completion,,,,,false,,,,490398,490397.89999961853,485564.977,485580.2999997139,485581.642,490407.715,8,400,,,
trial,html.Screen,4_60_0,2023-09-09T16:13:01.519Z,,0,2,,5515.584999713872,response,ISIC_0062827.JPG,4,ISIC_0026545.JPG,ISIC_0062827.JPG,false,1,keypress(m),500,495923.5,495923.2999997139,490390.981,490398.09999990463,490407.715,495935.107,8,400,11,,ISIC_0026545.JPG
break,html.Screen,4_60_1,2023-09-09T16:13:01.519Z,,0,,,NaN,,,,,,false,,,,495924,495923.89999961853,,495923.59999990463,,495935.107,8,400,,,
break_continue,html.Screen,4_60_2,2023-09-09T16:13:01.519Z,,0,,,NaN,,,,,,false,,,,495924.19999980927,495924.19999980927,,495924.09999990463,,495935.107,8,400,,,
sequence,flow.Sequence,4_60,2023-09-09T16:13:01.519Z,,0,,,5516.4849998092395,completion,,,,,false,,,,495924.39999961853,495924.19999980927,490390.981,490398.09999990463,490407.715,495935.107,8,400,,,
trial,html.Screen,4_61_0,2023-09-09T16:13:06.899Z,,0,2,,5367.292999618512,response,ISIC_0222299.JPG,6,ISIC_7984080.JPG,ISIC_0222299.JPG,false,1,keypress(m),500,501302.59999990463,501302.39999961853,495918.412,495924.5,495935.107,501312.218,8,400,12,,ISIC_7984080.JPG
break,html.Screen,4_61_1,2023-09-09T16:13:06.899Z,,0,,,NaN,,,,,,false,,,,501303.09999990463,501302.89999961853,,501302.69999980927,,501312.218,8,400,,,
break_continue,html.Screen,4_61_2,2023-09-09T16:13:06.900Z,,0,,,NaN,,,,,,false,,,,501303.5,501303.39999961853,,501303.2999997139,,501312.218,8,400,,,
sequence,flow.Sequence,4_61,2023-09-09T16:13:06.900Z,,0,,,5368.292999618512,completion,,,,,false,,,,501303.59999990463,501303.39999961853,495918.412,495924.39999961853,495935.107,501312.218,8,400,,,
trial,html.Screen,4_62_0,2023-09-09T16:13:13.830Z,,0,2,,6921.481999809272,response,ISIC_4344870.JPG,6,ISIC_7580408.JPG,ISIC_7580408.JPG,false,0,keypress(z),500,508233.7999997139,508233.69999980927,501295.672,501303.69999980927,501312.218,508242.436,8,400,13,,ISIC_4344870.JPG
break,html.Screen,4_62_1,2023-09-09T16:13:13.831Z,,0,,,NaN,,,,,,false,,,,508234.2999997139,508234.19999980927,,508234,,508242.436,8,400,,,
break_continue,html.Screen,4_62_2,2023-09-09T16:13:13.831Z,,0,,,NaN,,,,,,false,,,,508234.5,508234.39999961853,,508234.39999961853,,508242.436,8,400,,,
sequence,flow.Sequence,4_62,2023-09-09T16:13:13.831Z,,0,,,6922.181999618537,completion,,,,,false,,,,508234.69999980927,508234.39999961853,501295.672,501303.59999990463,501312.218,508242.436,8,400,,,
trial,html.Screen,4_63_0,2023-09-09T16:13:19.179Z,,0,2,,5340.363999713911,response,ISIC_3478473.JPG,4,ISIC_0026160.JPG,ISIC_0026160.JPG,false,0,keypress(z),500,513582.89999961853,513582.7999997139,508225.67,508234.69999980927,508242.436,513586.097,8,400,14,,ISIC_3478473.JPG
break,html.Screen,4_63_1,2023-09-09T16:13:19.180Z,,0,,,NaN,,,,,,false,,,,513583.5,513583.2999997139,,513583,,513586.097,8,400,,,
break_continue,html.Screen,4_63_2,2023-09-09T16:13:19.180Z,,0,,,NaN,,,,,,false,,,,513583.89999961853,513583.7999997139,,513583.59999990463,,513586.097,8,400,,,
sequence,flow.Sequence,4_63,2023-09-09T16:13:19.180Z,,0,,,5341.363999713911,completion,,,,,false,,,,513584,513583.7999997139,508225.67,508234.69999980927,508242.436,513586.097,8,400,,,
trial,html.Screen,4_64_0,2023-09-09T16:13:26.030Z,,0,2,,6847.202999713889,response,ISIC_0063845.JPG,5,ISIC_9219692.JPG,ISIC_0063845.JPG,false,1,keypress(m),500,520433.5,520433.2999997139,513569.512,513584,513586.097,520449.535,8,400,15,,ISIC_9219692.JPG
break,html.Screen,4_64_1,2023-09-09T16:13:26.030Z,,0,,,NaN,,,,,,false,,,,520434.09999990463,520434,,520433.69999980927,,520449.535,8,400,,,
break_continue,html.Screen,4_64_2,2023-09-09T16:13:26.031Z,,0,,,NaN,,,,,,false,,,,520434.2999997139,520434.2999997139,,520434.09999990463,,520449.535,8,400,,,
sequence,flow.Sequence,4_64,2023-09-09T16:13:26.031Z,,0,,,6848.202999713889,completion,,,,,false,,,,520434.39999961853,520434.2999997139,513569.512,513584,513586.097,520449.535,8,400,,,
trial,html.Screen,4_65_0,2023-09-09T16:13:32.385Z,,0,2,,6339.064999904658,response,ISIC_6385627.JPG,4,ISIC_0030116.JPG,ISIC_6385627.JPG,false,1,keypress(m),500,526788.6999998093,526788.5999999046,520432.98,520434.39999961853,520449.535,526795.124,8,400,16,,ISIC_0030116.JPG
break,html.Screen,4_65_1,2023-09-09T16:13:32.385Z,,0,,,NaN,,,,,,false,,,,526789.0999999046,526789,,526788.6999998093,,526795.124,8,400,,,
break_continue,html.Screen,4_65_2,2023-09-09T16:13:32.386Z,,0,,,NaN,,,,,,false,,,,526789.1999998093,526789.1999998093,,526789.0999999046,,526795.124,8,400,,,
sequence,flow.Sequence,4_65,2023-09-09T16:13:32.386Z,,0,,,6339.664999809291,completion,,,,,false,,,,526789.2999997139,526789.1999998093,520432.98,520434.39999961853,520449.535,526795.124,8,400,,,
trial,html.Screen,4_66_0,2023-09-09T16:13:37.001Z,,0,2,,4609.775999618578,response,ISIC_0024826.JPG,4,ISIC_0002213.JPG,ISIC_0024826.JPG,false,1,keypress(m),500,531405.0999999046,531404.8999996185,526778.574,526789.3999996185,526795.124,531420.918,8,400,17,,ISIC_0002213.JPG
break,html.Screen,4_66_1,2023-09-09T16:13:37.002Z,,0,,,NaN,,,,,,false,,,,531405.3999996185,531405.2999997139,,531405.1999998093,,531420.918,8,400,,,
break_continue,html.Screen,4_66_2,2023-09-09T16:13:37.002Z,,0,,,NaN,,,,,,false,,,,531405.5999999046,531405.5,,531405.5,,531420.918,8,400,,,
sequence,flow.Sequence,4_66,2023-09-09T16:13:37.002Z,,0,,,4610.3760000000475,completion,,,,,false,,,,531405.6999998093,531405.5,526778.574,526789.2999997139,526795.124,531420.918,8,400,,,
trial,html.Screen,4_67_0,2023-09-09T16:13:41.184Z,,0,2,,4166.781999809318,response,ISIC_0029718.JPG,5,ISIC_0027600.JPG,ISIC_0029718.JPG,false,1,keypress(m),500,535587.7999997139,535587.6999998093,531404.17,531405.7999997139,531420.918,535595.715,8,400,18,,ISIC_0027600.JPG
break,html.Screen,4_67_1,2023-09-09T16:13:41.185Z,,0,,,NaN,,,,,,false,,,,535588.2999997139,535588.0999999046,,535588,,535595.715,8,400,,,
break_continue,html.Screen,4_67_2,2023-09-09T16:13:41.185Z,,0,,,NaN,,,,,,false,,,,535588.5,535588.3999996185,,535588.2999997139,,535595.715,8,400,,,
sequence,flow.Sequence,4_67,2023-09-09T16:13:41.185Z,,0,,,4167.481999618583,completion,,,,,false,,,,535588.5,535588.3999996185,531404.17,531405.7999997139,531420.918,535595.715,8,400,,,
trial,html.Screen,4_68_0,2023-09-09T16:13:46.114Z,,0,2,,4922.184999618563,response,ISIC_9267202.JPG,5,ISIC_0010271.JPG,ISIC_0010271.JPG,false,0,keypress(z),500,540518.0999999046,540517.8999996185,535578.99,535588.5999999046,535595.715,540521.906,8,400,19,,ISIC_9267202.JPG
break,html.Screen,4_68_1,2023-09-09T16:13:46.115Z,,0,,,NaN,,,,,,false,,,,540518.5999999046,540518.5999999046,,540518.1999998093,,540521.906,8,400,,,
break_continue,html.Screen,4_68_2,2023-09-09T16:13:46.115Z,,0,,,NaN,,,,,,false,,,,540518.8999996185,540518.7999997139,,540518.7999997139,,540521.906,8,400,,,
sequence,flow.Sequence,4_68,2023-09-09T16:13:46.115Z,,0,,,4923.08499971393,completion,,,,,false,,,,540519,540518.7999997139,535578.99,535588.5,535595.715,540521.906,8,400,,,
trial,html.Screen,4_69_0,2023-09-09T16:13:51.365Z,,0,2,,5246.594000000041,response,ISIC_0072768.JPG,5,ISIC_4966148.JPG,ISIC_0072768.JPG,false,1,keypress(m),500,545768.5999999046,545768.5,540505.152,540519.0999999046,540521.906,545782.107,8,400,20,,ISIC_4966148.JPG
break,html.Screen,4_69_1,2023-09-09T16:13:51.365Z,,0,,,NaN,,,,,,false,,,,545769.0999999046,545769,,545768.7999997139,,545782.107,8,400,,,
break_continue,html.Screen,4_69_2,2023-09-09T16:13:51.366Z,,0,,,NaN,,,,,,false,,,,545769.2999997139,545769.1999998093,,545769.0999999046,,545782.107,8,400,,,
sequence,flow.Sequence,4_69,2023-09-09T16:13:51.366Z,,0,,,5247.293999809306,completion,,,,,false,,,,545769.2999997139,545769.1999998093,540505.152,540519.0999999046,540521.906,545782.107,8,400,,,
trial,html.Screen,4_70_0,2023-09-09T16:13:55.878Z,,0,2,,4499.79299961857,response,ISIC_0025186.JPG,5,ISIC_1382271.JPG,ISIC_0025186.JPG,false,1,keypress(m),500,550282.0999999046,550281.8999996185,545765.478,545769.2999997139,545782.107,550290.877,8,400,21,,ISIC_1382271.JPG
break,html.Screen,4_70_1,2023-09-09T16:13:55.879Z,,0,,,NaN,,,,,,false,,,,550282.5999999046,550282.3999996185,,550282.1999998093,,550290.877,8,400,,,
break_continue,html.Screen,4_70_2,2023-09-09T16:13:55.879Z,,0,,,NaN,,,,,,false,,,,550282.6999998093,550282.6999998093,,550282.5999999046,,550290.877,8,400,,,
sequence,flow.Sequence,4_70,2023-09-09T16:13:55.879Z,,0,,,4500.592999809305,completion,,,,,false,,,,550282.7999997139,550282.6999998093,545765.478,545769.2999997139,545782.107,550290.877,8,400,,,
trial,html.Screen,4_71_0,2023-09-09T16:14:04.825Z,,0,2,,8936.92299971392,response,ISIC_6755132.JPG,5,ISIC_5468164.JPG,ISIC_5468164.JPG,false,0,keypress(z),500,559227.8999996185,559227.7999997139,550274.308,550282.8999996185,550290.877,559241.74,8,400,22,,ISIC_6755132.JPG
break,html.Screen,4_71_1,2023-09-09T16:14:04.826Z,,0,,,NaN,,,,,,false,,,,559228.6999998093,559228.5,,559228.0999999046,,559241.74,8,400,,,
break_continue,html.Screen,4_71_2,2023-09-09T16:14:04.826Z,,0,,,NaN,,,,,,false,,,,559229,559228.8999996185,,559228.7999997139,,559241.74,8,400,,,
sequence,flow.Sequence,4_71,2023-09-09T16:14:04.826Z,,0,,,8938.022999618552,completion,,,,,false,,,,559229.0999999046,559228.8999996185,550274.308,550282.8999996185,550290.877,559241.74,8,400,,,
trial,html.Screen,4_72_0,2023-09-09T16:14:10.124Z,,0,2,,5285.15999961854,response,ISIC_4163686.JPG,5,ISIC_4745475.JPG,ISIC_4163686.JPG,false,1,keypress(m),500,564527.0999999046,564526.8999996185,559225.028,559229.1999998093,559241.74,564535.251,8,400,23,,ISIC_4745475.JPG
break,html.Screen,4_72_1,2023-09-09T16:14:10.125Z,,0,,,NaN,,,,,,false,,,,564527.6999998093,564527.5999999046,,564527.1999998093,,564535.251,8,400,,,
break_continue,html.Screen,4_72_2,2023-09-09T16:14:10.126Z,,0,,,NaN,,,,,,false,,,,564528.0999999046,564528,,564527.8999996185,,564535.251,8,400,,,
sequence,flow.Sequence,4_72,2023-09-09T16:14:10.126Z,,0,,,5286.260000000009,completion,,,,,false,,,,564528.2999997139,564528,559225.028,559229.0999999046,559241.74,564535.251,8,400,,,
trial,html.Screen,4_73_0,2023-09-09T16:14:18.069Z,,0,2,,7935.54899971385,response,ISIC_4810485.JPG,5,ISIC_1018265.JPG,ISIC_4810485.JPG,false,1,keypress(m),500,572471.1999998093,572470.7999997139,564518.767,564528.3999996185,564535.251,572484.054,8,400,24,,ISIC_1018265.JPG
break,html.Screen,4_73_1,2023-09-09T16:14:18.070Z,,0,,,NaN,,,,,,false,,,,572472.6999998093,572472.2999997139,,572471.5999999046,,572484.054,8,400,,,
break_continue,html.Screen,4_73_2,2023-09-09T16:14:18.071Z,,0,,,NaN,,,,,,false,,,,572473.7999997139,572473.5,,572473.0999999046,,572484.054,8,400,,,
sequence,flow.Sequence,4_73,2023-09-09T16:14:18.072Z,,0,,,7938.2489999999525,completion,,,,,false,,,,572474.3999996185,572473.5,564518.767,564528.2999997139,564535.251,572484.054,8,400,,,
trial,html.Screen,4_74_0,2023-09-09T16:14:22.576Z,,0,2,,4494.645999809261,response,ISIC_7875088.JPG,4,ISIC_6366631.JPG,ISIC_6366631.JPG,false,0,keypress(z),500,576978.8999996185,576978.6999998093,572467.592,572474.5999999046,572484.054,576992.928,8,400,25,,ISIC_7875088.JPG
break,html.Screen,4_74_1,2023-09-09T16:14:22.577Z,,0,,,NaN,,,,,,false,,,,576979.3999996185,576979.1999998093,,576979,,576992.928,8,400,,,
break_continue,html.Screen,4_74_2,2023-09-09T16:14:22.577Z,,0,,,NaN,,,,,,false,,,,576979.5,576979.5,,576979.3999996185,,576992.928,8,400,,,
sequence,flow.Sequence,4_74,2023-09-09T16:14:22.577Z,,0,,,4495.445999999996,completion,,,,,false,,,,576979.5999999046,576979.5,572467.592,572474.5,572484.054,576992.928,8,400,,,
trial,html.Screen,4_75_0,2023-09-09T16:14:28.874Z,,0,2,,6283.171999904676,response,ISIC_0069986.JPG,5,ISIC_0028396.JPG,ISIC_0069986.JPG,false,1,keypress(m),500,583276.0999999046,583276.0999999046,576976.176,576979.5999999046,576992.928,583288.535,8,400,26,,ISIC_0028396.JPG
break,html.Screen,4_75_1,2023-09-09T16:14:28.874Z,,0,,,NaN,,,,,,false,,,,583276.7999997139,583276.5,,583276.2999997139,,583288.535,8,400,,,
break_continue,html.Screen,4_75_2,2023-09-09T16:14:28.874Z,,0,,,NaN,,,,,,false,,,,583277.0999999046,583277,,583276.7999997139,,583288.535,8,400,,,
sequence,flow.Sequence,4_75,2023-09-09T16:14:28.875Z,,0,,,6284.072000000044,completion,,,,,false,,,,583277.1999998093,583277,576976.176,576979.5999999046,576992.928,583288.535,8,400,,,
trial,html.Screen,4_76_0,2023-09-09T16:14:33.644Z,,0,2,,4757.964999999967,response,ISIC_2668481.JPG,5,ISIC_0031034.JPG,ISIC_0031034.JPG,false,0,keypress(z),500,588046.5999999046,588046.5,583271.909,583277.1999998093,583288.535,588065.622,8,400,27,,ISIC_2668481.JPG
break,html.Screen,4_76_1,2023-09-09T16:14:33.644Z,,0,,,NaN,,,,,,false,,,,588046.8999996185,588046.7999997139,,588046.5999999046,,588065.622,8,400,,,
break_continue,html.Screen,4_76_2,2023-09-09T16:14:33.644Z,,0,,,NaN,,,,,,false,,,,588047.0999999046,588047,,588047,,588065.622,8,400,,,
sequence,flow.Sequence,4_76,2023-09-09T16:14:33.645Z,,0,,,4758.464999999967,completion,,,,,false,,,,588047.1999998093,588047,583271.909,583277.1999998093,583288.535,588065.622,8,400,,,
trial,html.Screen,4_77_0,2023-09-09T16:14:40.382Z,,0,2,,6719.277999618556,response,ISIC_0054767.JPG,4,ISIC_0062991.JPG,ISIC_0054767.JPG,false,1,keypress(m),500,594785,594784.8999996185,588030.996,588047.1999998093,588065.622,594794.231,8,400,28,,ISIC_0062991.JPG
break,html.Screen,4_77_1,2023-09-09T16:14:40.383Z,,0,,,NaN,,,,,,false,,,,594785.5999999046,594785.3999996185,,594785.0999999046,,594794.231,8,400,,,
break_continue,html.Screen,4_77_2,2023-09-09T16:14:40.383Z,,0,,,NaN,,,,,,false,,,,594786,594786,,594785.7999997139,,594794.231,8,400,,,
sequence,flow.Sequence,4_77,2023-09-09T16:14:40.383Z,,0,,,6720.378000000026,completion,,,,,false,,,,594786.0999999046,594786,588030.996,588047.1999998093,588065.622,594794.231,8,400,,,
trial,html.Screen,4_78_0,2023-09-09T16:14:46.648Z,,0,2,,6256.468999809236,response,ISIC_5994007.JPG,6,ISIC_0054087.JPG,ISIC_0054087.JPG,false,0,keypress(z),500,601050.7999997139,601050.6999998093,594777.599,594786.0999999046,594794.231,601056.329,8,400,29,,ISIC_5994007.JPG
break,html.Screen,4_78_1,2023-09-09T16:14:46.649Z,,0,,,NaN,,,,,,false,,,,601051.2999997139,601051.0999999046,,601050.8999996185,,601056.329,8,400,,,
break_continue,html.Screen,4_78_2,2023-09-09T16:14:46.649Z,,0,,,NaN,,,,,,false,,,,601051.5999999046,601051.5,,601051.3999996185,,601056.329,8,400,,,
sequence,flow.Sequence,4_78,2023-09-09T16:14:46.649Z,,0,,,6257.268999999971,completion,,,,,false,,,,601051.5999999046,601051.5,594777.599,594786.0999999046,594794.231,601056.329,8,400,,,
trial,html.Screen,4_79_0,2023-09-09T16:14:52.811Z,,0,2,,6157.170999999973,response,ISIC_0028916.JPG,5,ISIC_6208508.JPG,ISIC_0028916.JPG,false,1,keypress(m),500,607213.6999998093,607213.5,601039.656,601051.6999998093,601056.329,607218.329,8,400,30,,ISIC_6208508.JPG
break,html.Screen,4_79_1,2023-09-09T16:14:52.812Z,,0,,,NaN,,,,,,false,,,,607214.2999997139,607214.1999998093,,607213.7999997139,,607218.329,8,400,,,
break_continue,html.Screen,4_79_2,2023-09-09T16:14:52.812Z,,0,,,NaN,,,,,,false,,,,607214.6999998093,607214.5999999046,,607214.5,,607218.329,8,400,,,
sequence,flow.Sequence,4_79,2023-09-09T16:14:52.812Z,,0,,,6158.270999904606,completion,,,,,false,,,,607214.8999996185,607214.5999999046,601039.656,601051.5999999046,601056.329,607218.329,8,400,,,
trial,html.Screen,4_80_0,2023-09-09T16:14:58.782Z,,0,2,,5965.970999713871,response,ISIC_0057487.JPG,6,ISIC_6027459.JPG,ISIC_0057487.JPG,false,1,keypress(m),500,613184.3999996185,613184.2999997139,607201.644,607214.8999996185,607218.329,613196.736,8,400,31,,ISIC_6027459.JPG
break,html.Screen,4_80_1,2023-09-09T16:14:58.782Z,,0,,,NaN,,,,,,false,,,,613184.7999997139,613184.6999998093,,613184.3999996185,,613196.736,8,400,,,
break_continue,html.Screen,4_80_2,2023-09-09T16:14:58.782Z,,0,,,NaN,,,,,,false,,,,613184.8999996185,613184.8999996185,,613184.7999997139,,613196.736,8,400,,,
sequence,flow.Sequence,4_80,2023-09-09T16:14:58.782Z,,0,,,5966.570999618503,completion,,,,,false,,,,613185,613184.8999996185,607201.644,607214.8999996185,607218.329,613196.736,8,400,,,
trial,html.Screen,4_81_0,2023-09-09T16:15:02.993Z,,0,2,,4197.863999904599,response,ISIC_0011437.JPG,5,ISIC_7137773.JPG,ISIC_0011437.JPG,false,1,keypress(m),500,617394.7999997139,617394.5999999046,613180.042,613185.0999999046,613196.736,617404.907,8,400,32,,ISIC_7137773.JPG
break,html.Screen,4_81_1,2023-09-09T16:15:02.994Z,,0,,,NaN,,,,,,false,,,,617395.6999998093,617395.3999996185,,617395,,617404.907,8,400,,,
break_continue,html.Screen,4_81_2,2023-09-09T16:15:02.994Z,,0,,,NaN,,,,,,false,,,,617396,617395.8999996185,,617395.7999997139,,617404.907,8,400,,,
sequence,flow.Sequence,4_81,2023-09-09T16:15:02.995Z,,0,,,4199.163999618497,completion,,,,,false,,,,617396.0999999046,617395.8999996185,613180.042,613185.0999999046,613196.736,617404.907,8,400,,,
trial,html.Screen,4_82_0,2023-09-09T16:15:07.972Z,,0,2,,4968.692999904626,response,ISIC_9092298.JPG,6,ISIC_0029809.JPG,ISIC_0029809.JPG,false,0,keypress(z),500,622373.6999998093,622373.5999999046,617388.144,617396.1999998093,617404.907,622381.192,8,400,33,,ISIC_9092298.JPG
break,html.Screen,4_82_1,2023-09-09T16:15:07.973Z,,0,,,NaN,,,,,,false,,,,622374.7999997139,622374.5,,622374,,622381.192,8,400,,,
break_continue,html.Screen,4_82_2,2023-09-09T16:15:07.974Z,,0,,,NaN,,,,,,false,,,,622375.1999998093,622375.1999998093,,622375,,622381.192,8,400,,,
sequence,flow.Sequence,4_82,2023-09-09T16:15:07.974Z,,0,,,4970.292999809259,completion,,,,,false,,,,622375.3999996185,622375.1999998093,617388.144,617396.0999999046,617404.907,622381.192,8,400,,,
trial,html.Screen,4_83_0,2023-09-09T16:15:15.623Z,,0,2,,7643.207999618491,response,ISIC_7260977.JPG,6,ISIC_0034294.JPG,ISIC_0034294.JPG,false,0,keypress(z),500,630024.5999999046,630024.3999996185,622364.492,622375.5,622381.192,630029.401,8,400,34,,ISIC_7260977.JPG
break,html.Screen,4_83_1,2023-09-09T16:15:15.623Z,,0,,,NaN,,,,,,false,,,,630025,630024.8999996185,,630024.5999999046,,630029.401,8,400,,,
break_continue,html.Screen,4_83_2,2023-09-09T16:15:15.624Z,,0,,,NaN,,,,,,false,,,,630025.0999999046,630025.0999999046,,630025,,630029.401,8,400,,,
sequence,flow.Sequence,4_83,2023-09-09T16:15:15.624Z,,0,,,7643.907999904593,completion,,,,,false,,,,630025.1999998093,630025.0999999046,622364.492,622375.5,622381.192,630029.401,8,400,,,
trial,html.Screen,4_84_0,2023-09-09T16:15:19.337Z,,0,2,,3708.998999618576,response,ISIC_5454766.JPG,6,ISIC_0697953.JPG,ISIC_5454766.JPG,false,1,keypress(m),500,633738.5,633738.3999996185,630012.751,630025.2999997139,630029.401,633753.361,8,400,35,,ISIC_0697953.JPG
break,html.Screen,4_84_1,2023-09-09T16:15:19.337Z,,0,,,NaN,,,,,,false,,,,633738.8999996185,633738.8999996185,,633738.6999998093,,633753.361,8,400,,,
break_continue,html.Screen,4_84_2,2023-09-09T16:15:19.338Z,,0,,,NaN,,,,,,false,,,,633739.1999998093,633739.0999999046,,633739,,633753.361,8,400,,,
sequence,flow.Sequence,4_84,2023-09-09T16:15:19.338Z,,0,,,3709.698999904678,completion,,,,,false,,,,633739.1999998093,633739.0999999046,630012.751,630025.2999997139,630029.401,633753.361,8,400,,,
trial,html.Screen,4_85_0,2023-09-09T16:15:23.515Z,,0,2,,4163.338999809232,response,ISIC_0055311.JPG,4,ISIC_8755163.JPG,ISIC_0055311.JPG,false,1,keypress(m),500,637916.7999997139,637916.6999998093,633736.768,633739.1999998093,633753.361,637928.18,8,400,36,,ISIC_8755163.JPG
break,html.Screen,4_85_1,2023-09-09T16:15:23.516Z,,0,,,NaN,,,,,,false,,,,637917.2999997139,637917.1999998093,,637917,,637928.18,8,400,,,
break_continue,html.Screen,4_85_2,2023-09-09T16:15:23.516Z,,0,,,NaN,,,,,,false,,,,637917.5999999046,637917.5,,637917.3999996185,,637928.18,8,400,,,
sequence,flow.Sequence,4_85,2023-09-09T16:15:23.516Z,,0,,,4164.1389999999665,completion,,,,,false,,,,637917.5999999046,637917.5,633736.768,633739.1999998093,633753.361,637928.18,8,400,,,
trial,html.Screen,4_86_0,2023-09-09T16:15:30.804Z,,0,2,,7277.019999809214,response,ISIC_4640293.JPG,4,ISIC_0010061.JPG,ISIC_0010061.JPG,false,0,keypress(z),500,645205.2999997139,645205.1999998093,637911.5,637917.7999997139,637928.18,645208.986,8,400,37,,ISIC_4640293.JPG
break,html.Screen,4_86_1,2023-09-09T16:15:30.804Z,,0,,,NaN,,,,,,false,,,,645205.6999998093,645205.5999999046,,645205.3999996185,,645208.986,8,400,,,
break_continue,html.Screen,4_86_2,2023-09-09T16:15:30.804Z,,0,,,NaN,,,,,,false,,,,645205.7999997139,645205.7999997139,,645205.7999997139,,645208.986,8,400,,,
sequence,flow.Sequence,4_86,2023-09-09T16:15:30.804Z,,0,,,7277.6199997138465,completion,,,,,false,,,,645205.8999996185,645205.7999997139,637911.5,637917.7999997139,637928.18,645208.986,8,400,,,
trial,html.Screen,4_87_0,2023-09-09T16:15:36.694Z,,0,2,,5886.313999713864,response,ISIC_2131707.JPG,5,ISIC_0006332.JPG,ISIC_0006332.JPG,false,0,keypress(z),500,651095.5,651095.2999997139,645192.414,645206,645208.986,651103.847,8,400,38,,ISIC_2131707.JPG
break,html.Screen,4_87_1,2023-09-09T16:15:36.694Z,,0,,,NaN,,,,,,false,,,,651095.8999996185,651095.7999997139,,651095.5999999046,,651103.847,8,400,,,
break_continue,html.Screen,4_87_2,2023-09-09T16:15:36.694Z,,0,,,NaN,,,,,,false,,,,651096.0999999046,651096,,651095.8999996185,,651103.847,8,400,,,
sequence,flow.Sequence,4_87,2023-09-09T16:15:36.695Z,,0,,,5887.0139999999665,completion,,,,,false,,,,651096.0999999046,651096,645192.414,645206,645208.986,651103.847,8,400,,,
trial,html.Screen,4_88_0,2023-09-09T16:15:44.281Z,,0,2,,7578.55299961858,response,ISIC_0000517.JPG,5,ISIC_0013835.JPG,ISIC_0000517.JPG,false,1,keypress(m),500,658682.5999999046,658682.3999996185,651087.072,651096.1999998093,651103.847,658685.178,8,400,39,,ISIC_0013835.JPG
break,html.Screen,4_88_1,2023-09-09T16:15:44.282Z,,0,,,NaN,,,,,,false,,,,658683.2999997139,658683.1999998093,,658682.6999998093,,658685.178,8,400,,,
break_continue,html.Screen,4_88_2,2023-09-09T16:15:44.282Z,,0,,,NaN,,,,,,false,,,,658683.5999999046,658683.5999999046,,658683.3999996185,,658685.178,8,400,,,
sequence,flow.Sequence,4_88,2023-09-09T16:15:44.282Z,,0,,,7579.752999904682,completion,,,,,false,,,,658683.6999998093,658683.5999999046,651087.072,651096.1999998093,651103.847,658685.178,8,400,,,
trial,html.Screen,4_89_0,2023-09-09T16:15:51.996Z,,0,2,,7712.021999809309,response,ISIC_6289346.JPG,4,ISIC_1175776.JPG,ISIC_1175776.JPG,false,0,keypress(z),500,666397.2999997139,666397.1999998093,658668.596,658683.7999997139,658685.178,666400.178,8,400,40,,ISIC_6289346.JPG
break,html.Screen,4_89_1,2023-09-09T16:15:51.996Z,,0,,,NaN,,,,,,false,,,,666397.7999997139,666397.6999998093,,666397.3999996185,,666400.178,8,400,,,
break_continue,html.Screen,4_89_2,2023-09-09T16:15:51.996Z,,0,,,NaN,,,,,,false,,,,666398,666398,,666397.8999996185,,666400.178,8,400,,,
sequence,flow.Sequence,4_89,2023-09-09T16:15:51.996Z,,0,,,7712.822000000044,completion,,,,,false,,,,666398.0999999046,666398,658668.596,658683.7999997139,658685.178,666400.178,8,400,,,
trial,html.Screen,4_90_0,2023-09-09T16:15:56.339Z,,0,2,,4340.521999809309,response,ISIC_5048124.JPG,6,ISIC_0033594.JPG,ISIC_0033594.JPG,false,0,keypress(z),500,670740.8999996185,670740.6999998093,666383.638,666398.0999999046,666400.178,670741.965,8,400,41,,ISIC_5048124.JPG
break,html.Screen,4_90_1,2023-09-09T16:15:56.340Z,,0,,,NaN,,,,,,false,,,,670741.6999998093,670741.2999997139,,670741,,670741.965,8,400,,,
break_continue,html.Screen,4_90_2,2023-09-09T16:15:56.340Z,,0,,,NaN,,,,,,false,,,,670742,670741.8999996185,,670741.6999998093,,670741.965,8,400,,,
sequence,flow.Sequence,4_90,2023-09-09T16:15:56.340Z,,0,,,4341.721999618574,completion,,,,,false,,,,670742,670741.8999996185,666383.638,666398.0999999046,666400.178,670741.965,8,400,,,
trial,html.Screen,4_91_0,2023-09-09T16:16:00.878Z,,0,2,,4537.434999618563,response,ISIC_0032147.JPG,4,ISIC_0046900.JPG,ISIC_0046900.JPG,false,0,keypress(z),500,675279.5999999046,675279.3999996185,670725.249,670742.0999999046,670741.965,675284.135,8,400,42,,ISIC_0032147.JPG
break,html.Screen,4_91_1,2023-09-09T16:16:00.879Z,,0,,,NaN,,,,,,false,,,,675280.2999997139,675280.0999999046,,675279.6999998093,,675284.135,8,400,,,
break_continue,html.Screen,4_91_2,2023-09-09T16:16:00.879Z,,0,,,NaN,,,,,,false,,,,675280.6999998093,675280.5999999046,,675280.3999996185,,675284.135,8,400,,,
sequence,flow.Sequence,4_91,2023-09-09T16:16:00.879Z,,0,,,4538.634999904665,completion,,,,,false,,,,675280.8999996185,675280.5999999046,670725.249,670742,670741.965,675284.135,8,400,,,
trial,html.Screen,4_92_0,2023-09-09T16:16:05.378Z,,0,2,,4494.664999713888,response,ISIC_0065468.JPG,5,ISIC_7215208.JPG,ISIC_0065468.JPG,false,1,keypress(m),500,679778.8999996185,679778.7999997139,675267.694,675281,675284.135,679793.064,8,400,43,,ISIC_7215208.JPG
break,html.Screen,4_92_1,2023-09-09T16:16:05.379Z,,0,,,NaN,,,,,,false,,,,679779.3999996185,679779.1999998093,,679779,,679793.064,8,400,,,
break_continue,html.Screen,4_92_2,2023-09-09T16:16:05.379Z,,0,,,NaN,,,,,,false,,,,679779.5999999046,679779.5,,679779.3999996185,,679793.064,8,400,,,
sequence,flow.Sequence,4_92,2023-09-09T16:16:05.379Z,,0,,,4495.364999999991,completion,,,,,false,,,,679779.6999998093,679779.5,675267.694,675280.8999996185,675284.135,679793.064,8,400,,,
trial,html.Screen,4_93_0,2023-09-09T16:16:10.612Z,,0,2,,5219.935999999987,response,ISIC_8979275.JPG,5,ISIC_0527350.JPG,ISIC_8979275.JPG,false,1,keypress(m),500,685013.0999999046,685013,679776.266,679779.7999997139,679793.064,685019.844,8,400,44,,ISIC_0527350.JPG
break,html.Screen,4_93_1,2023-09-09T16:16:10.613Z,,0,,,NaN,,,,,,false,,,,685013.7999997139,685013.5,,685013.2999997139,,685019.844,8,400,,,
break_continue,html.Screen,4_93_2,2023-09-09T16:16:10.613Z,,0,,,NaN,,,,,,false,,,,685014.1999998093,685014.0999999046,,685013.8999996185,,685019.844,8,400,,,
sequence,flow.Sequence,4_93,2023-09-09T16:16:10.614Z,,0,,,5221.0359999046195,completion,,,,,false,,,,685014.1999998093,685014.0999999046,679776.266,679779.6999998093,679793.064,685019.844,8,400,,,
trial,html.Screen,4_94_0,2023-09-09T16:16:15.245Z,,0,2,,4625.655999999959,response,ISIC_5065245.JPG,4,ISIC_0952221.JPG,ISIC_0952221.JPG,false,0,keypress(z),500,689645.7999997139,689645.5,685003.157,685014.2999997139,685019.844,689662.195,8,400,45,,ISIC_5065245.JPG
break,html.Screen,4_94_1,2023-09-09T16:16:15.246Z,,0,,,NaN,,,,,,false,,,,689646.5,689646.2999997139,,689646,,689662.195,8,400,,,
break_continue,html.Screen,4_94_2,2023-09-09T16:16:15.246Z,,0,,,NaN,,,,,,false,,,,689646.7999997139,689646.6999998093,,689646.5999999046,,689662.195,8,400,,,
sequence,flow.Sequence,4_94,2023-09-09T16:16:15.246Z,,0,,,4626.855999809224,completion,,,,,false,,,,689646.8999996185,689646.6999998093,685003.157,685014.2999997139,685019.844,689662.195,8,400,,,
trial,html.Screen,4_95_0,2023-09-09T16:16:19.969Z,,0,2,,4707.2049996185815,response,ISIC_0007416.JPG,5,ISIC_0262770.JPG,ISIC_0262770.JPG,false,0,keypress(z),500,694369.5,694369.3999996185,689645.517,689647,689662.195,694371.274,8,400,46,,ISIC_0007416.JPG
break,html.Screen,4_95_1,2023-09-09T16:16:19.969Z,,0,,,NaN,,,,,,false,,,,694370,694369.8999996185,,694369.5999999046,,694371.274,8,400,,,
break_continue,html.Screen,4_95_2,2023-09-09T16:16:19.970Z,,0,,,NaN,,,,,,false,,,,694370.2999997139,694370.2999997139,,694370.0999999046,,694371.274,8,400,,,
sequence,flow.Sequence,4_95,2023-09-09T16:16:19.970Z,,0,,,4708.104999713949,completion,,,,,false,,,,694370.3999996185,694370.2999997139,689645.517,689647,689662.195,694371.274,8,400,,,
trial,html.Screen,4_96_0,2023-09-09T16:16:25.091Z,,0,2,,5120.525999713922,response,ISIC_7134821.JPG,6,ISIC_0024280.JPG,ISIC_0024280.JPG,false,0,keypress(z),500,699492,699491.7999997139,694354.725,694370.5999999046,694371.274,699497.889,8,400,47,,ISIC_7134821.JPG
break,html.Screen,4_96_1,2023-09-09T16:16:25.092Z,,0,,,NaN,,,,,,false,,,,699492.3999996185,699492.2999997139,,699492.0999999046,,699497.889,8,400,,,
break_continue,html.Screen,4_96_2,2023-09-09T16:16:25.092Z,,0,,,NaN,,,,,,false,,,,699492.5999999046,699492.5999999046,,699492.3999996185,,699497.889,8,400,,,
sequence,flow.Sequence,4_96,2023-09-09T16:16:25.092Z,,0,,,5121.325999904657,completion,,,,,false,,,,699492.6999998093,699492.5999999046,694354.725,694370.5,694371.274,699497.889,8,400,,,
trial,html.Screen,4_97_0,2023-09-09T16:16:31.814Z,,0,2,,6716.310999809299,response,ISIC_2930792.JPG,6,ISIC_0060719.JPG,ISIC_0060719.JPG,false,0,keypress(z),500,706214.3999996185,706214.1999998093,699481.179,699492.7999997139,699497.889,706227.749,8,400,48,,ISIC_2930792.JPG
break,html.Screen,4_97_1,2023-09-09T16:16:31.815Z,,0,,,NaN,,,,,,false,,,,706215.3999996185,706215,,706214.5999999046,,706227.749,8,400,,,
break_continue,html.Screen,4_97_2,2023-09-09T16:16:31.815Z,,0,,,NaN,,,,,,false,,,,706215.6999998093,706215.6999998093,,706215.5,,706227.749,8,400,,,
sequence,flow.Sequence,4_97,2023-09-09T16:16:31.815Z,,0,,,6717.810999809299,completion,,,,,false,,,,706215.7999997139,706215.6999998093,699481.179,699492.6999998093,699497.889,706227.749,8,400,,,
trial,html.Screen,4_98_0,2023-09-09T16:16:40.449Z,,0,2,,8622.251000000047,response,ISIC_2458253.JPG,4,ISIC_0010046.JPG,ISIC_2458253.JPG,false,1,keypress(m),500,714850.0999999046,714850,706210.999,706216,706227.749,714861.132,8,400,49,,ISIC_0010046.JPG
break,html.Screen,4_98_1,2023-09-09T16:16:40.450Z,,0,,,NaN,,,,,,false,,,,714850.5999999046,714850.3999996185,,714850.0999999046,,714861.132,8,400,,,
break_continue,html.Screen,4_98_2,2023-09-09T16:16:40.450Z,,0,,,NaN,,,,,,false,,,,714850.6999998093,714850.5999999046,,714850.5999999046,,714861.132,8,400,,,
sequence,flow.Sequence,4_98,2023-09-09T16:16:40.450Z,,0,,,8622.85099990468,completion,,,,,false,,,,714850.7999997139,714850.5999999046,706210.999,706216,706227.749,714861.132,8,400,,,
trial,html.Screen,4_99_0,2023-09-09T16:16:44.789Z,,0,2,,4328.267999618547,response,ISIC_6745554.JPG,5,ISIC_2490481.JPG,ISIC_6745554.JPG,false,1,keypress(m),500,719189.6999998093,719189.3999996185,714844.458,714850.8999996185,714861.132,719203.048,8,400,50,,ISIC_2490481.JPG
break,html.Screen,4_99_1,2023-09-09T16:16:54.789Z,,0,,,10002.732000000076,timeout,,,,,false,,,,729189.8999996185,729189.043,719186.298,719190.0999999046,719203.048,729205.78,8,400,,,
break_continue,html.Screen,4_99_2,2023-09-09T16:17:00.973Z,,0,,,6148.219999999972,response,,,,,false,continue,keypress(Space),,735374,735354,729189.043,729190.1999998093,729205.78,735384.561,8,400,,,
sequence,flow.Sequence,4_99,2023-09-09T16:17:00.974Z,,0,,,20492.868000000017,completion,,,,,false,,,,735374.1999998093,735354,714844.458,714850.7999997139,714861.132,735384.561,8,400,,,
trial,html.Screen,4_100_0,2023-09-09T16:17:04.676Z,,0,3,,3690.5389999046456,response,ISIC_0010040.JPG,6,ISIC_6357263.JPG,ISIC_0010040.JPG,false,1,keypress(m),500,739075.2999997139,739075.0999999046,735367.693,735374.2999997139,735384.561,739091.703,8,400,1,,ISIC_6357263.JPG
break,html.Screen,4_100_1,2023-09-09T16:17:04.676Z,,0,,,NaN,,,,,,false,,,,739076.0999999046,739075.8999996185,,739075.5,,739091.703,8,400,,,
break_continue,html.Screen,4_100_2,2023-09-09T16:17:04.677Z,,0,,,NaN,,,,,,false,,,,739076.3999996185,739076.2999997139,,739076.1999998093,,739091.703,8,400,,,
sequence,flow.Sequence,4_100,2023-09-09T16:17:04.677Z,,0,,,3691.7389997139107,completion,,,,,false,,,,739076.5,739076.2999997139,735367.693,735374.2999997139,735384.561,739091.703,8,400,,,
trial,html.Screen,4_101_0,2023-09-09T16:17:09.255Z,,0,3,,4562.196999618551,response,ISIC_1977265.JPG,6,ISIC_4341261.JPG,ISIC_1977265.JPG,false,1,keypress(m),500,743654.1999998093,743653.8999996185,739075.031,739076.5,739091.703,743667.197,8,400,2,,ISIC_4341261.JPG
break,html.Screen,4_101_1,2023-09-09T16:17:09.255Z,,0,,,NaN,,,,,,false,,,,743655,743654.5999999046,,743654.2999997139,,743667.197,8,400,,,
break_continue,html.Screen,4_101_2,2023-09-09T16:17:09.256Z,,0,,,NaN,,,,,,false,,,,743655.5,743655.2999997139,,743655.0999999046,,743667.197,8,400,,,
sequence,flow.Sequence,4_101,2023-09-09T16:17:09.256Z,,0,,,4563.596999713918,completion,,,,,false,,,,743655.6999998093,743655.2999997139,739075.031,739076.5,739091.703,743667.197,8,400,,,
trial,html.Screen,4_102_0,2023-09-09T16:17:13.584Z,,0,3,,4315.602999713854,response,ISIC_3031102.JPG,5,ISIC_0032844.JPG,ISIC_0032844.JPG,false,0,keypress(z),500,747983.1999998093,747982.7999997139,743650.596,743655.6999998093,743667.197,747992.342,8,400,3,,ISIC_3031102.JPG
break,html.Screen,4_102_1,2023-09-09T16:17:13.585Z,,0,,,NaN,,,,,,false,,,,747985,747984.5,,747983.5999999046,,747992.342,8,400,,,
break_continue,html.Screen,4_102_2,2023-09-09T16:17:13.586Z,,0,,,NaN,,,,,,false,,,,747985.8999996185,747985.5999999046,,747985.2999997139,,747992.342,8,400,,,
sequence,flow.Sequence,4_102,2023-09-09T16:17:13.587Z,,0,,,4318.402999904589,completion,,,,,false,,,,747986.1999998093,747985.5999999046,743650.596,743655.6999998093,743667.197,747992.342,8,400,,,
trial,html.Screen,4_103_0,2023-09-09T16:17:17.720Z,,0,3,,4126.857999809319,response,ISIC_0069124.JPG,5,ISIC_0012137.JPG,ISIC_0012137.JPG,false,0,keypress(z),500,752119.2999997139,752119.1999998093,747975.67,747986.3999996185,747992.342,752133.823,8,400,4,,ISIC_0069124.JPG
break,html.Screen,4_103_1,2023-09-09T16:17:17.720Z,,0,,,NaN,,,,,,false,,,,752119.7999997139,752119.6999998093,,752119.3999996185,,752133.823,8,400,,,
break_continue,html.Screen,4_103_2,2023-09-09T16:17:17.720Z,,0,,,NaN,,,,,,false,,,,752120,752120,,752119.8999996185,,752133.823,8,400,,,
sequence,flow.Sequence,4_103,2023-09-09T16:17:17.720Z,,0,,,4127.658000000054,completion,,,,,false,,,,752120.0999999046,752120,747975.67,747986.2999997139,747992.342,752133.823,8,400,,,
trial,html.Screen,4_104_0,2023-09-09T16:17:23.819Z,,0,3,,6085.177000000025,response,ISIC_0055289.JPG,6,ISIC_9742073.JPG,ISIC_0055289.JPG,false,1,keypress(m),500,758219.0999999046,758219,752117.09,752120.1999998093,752133.823,758228.949,8,400,5,,ISIC_9742073.JPG
break,html.Screen,4_104_1,2023-09-09T16:17:23.820Z,,0,,,NaN,,,,,,false,,,,758219.5999999046,758219.5,,758219.1999998093,,758228.949,8,400,,,
break_continue,html.Screen,4_104_2,2023-09-09T16:17:23.820Z,,0,,,NaN,,,,,,false,,,,758219.7999997139,758219.6999998093,,758219.6999998093,,758228.949,8,400,,,
sequence,flow.Sequence,4_104,2023-09-09T16:17:23.820Z,,0,,,6085.87699980929,completion,,,,,false,,,,758219.8999996185,758219.6999998093,752117.09,752120.0999999046,752133.823,758228.949,8,400,,,
trial,html.Screen,4_105_0,2023-09-09T16:17:28.190Z,,0,3,,4360.350999713875,response,ISIC_1175776.JPG,5,ISIC_0010415.JPG,ISIC_0010415.JPG,false,0,keypress(z),500,762589.6999998093,762589.2999997139,758212.205,758219.8999996185,758228.949,762604.098,8,400,6,,ISIC_1175776.JPG
break,html.Screen,4_105_1,2023-09-09T16:17:28.191Z,,0,,,NaN,,,,,,false,,,,762591,762590.6999998093,,762590,,762604.098,8,400,,,
break_continue,html.Screen,4_105_2,2023-09-09T16:17:28.192Z,,0,,,NaN,,,,,,false,,,,762591.6999998093,762591.5,,762591.1999998093,,762604.098,8,400,,,
sequence,flow.Sequence,4_105,2023-09-09T16:17:28.192Z,,0,,,4362.550999999978,completion,,,,,false,,,,762592,762591.5,758212.205,758219.8999996185,758228.949,762604.098,8,400,,,
trial,html.Screen,4_106_0,2023-09-09T16:17:33.338Z,,0,3,,5133.7019997139,response,ISIC_0033166.JPG,6,ISIC_7295035.JPG,ISIC_0033166.JPG,false,1,keypress(m),500,767737.8999996185,767737.7999997139,762587.385,762592.2999997139,762604.098,767747.414,8,400,7,,ISIC_7295035.JPG
break,html.Screen,4_106_1,2023-09-09T16:17:33.339Z,,0,,,NaN,,,,,,false,,,,767738.3999996185,767738.2999997139,,767738.0999999046,,767747.414,8,400,,,
break_continue,html.Screen,4_106_2,2023-09-09T16:17:33.339Z,,0,,,NaN,,,,,,false,,,,767738.5999999046,767738.5999999046,,767738.5,,767747.414,8,400,,,
sequence,flow.Sequence,4_106,2023-09-09T16:17:33.339Z,,0,,,5134.501999904634,completion,,,,,false,,,,767738.6999998093,767738.5999999046,762587.385,762592.0999999046,762604.098,767747.414,8,400,,,
trial,html.Screen,4_107_0,2023-09-09T16:17:39.934Z,,0,3,,6586.08600000001,response,ISIC_0031208.JPG,5,ISIC_6547707.JPG,ISIC_0031208.JPG,false,1,keypress(m),500,774333.6999998093,774333.5,767730.716,767738.6999998093,767747.414,774343.598,8,400,8,,ISIC_6547707.JPG
break,html.Screen,4_107_1,2023-09-09T16:17:39.935Z,,0,,,NaN,,,,,,false,,,,774334.0999999046,774334,,774333.7999997139,,774343.598,8,400,,,
break_continue,html.Screen,4_107_2,2023-09-09T16:17:39.935Z,,0,,,NaN,,,,,,false,,,,774334.5999999046,774334.5,,774334.2999997139,,774343.598,8,400,,,
sequence,flow.Sequence,4_107,2023-09-09T16:17:39.935Z,,0,,,6587.08600000001,completion,,,,,false,,,,774334.6999998093,774334.5,767730.716,767738.6999998093,767747.414,774343.598,8,400,,,
trial,html.Screen,4_108_0,2023-09-09T16:17:45.063Z,,0,3,,5118.601999809267,response,ISIC_2400177.JPG,6,ISIC_0331124.JPG,ISIC_2400177.JPG,false,1,keypress(m),500,779462.2999997139,779462.1999998093,774327.041,774334.6999998093,774343.598,779470.295,8,400,9,,ISIC_0331124.JPG
break,html.Screen,4_108_1,2023-09-09T16:17:45.063Z,,0,,,NaN,,,,,,false,,,,779462.6999998093,779462.5999999046,,779462.3999996185,,779470.295,8,400,,,
break_continue,html.Screen,4_108_2,2023-09-09T16:17:45.063Z,,0,,,NaN,,,,,,false,,,,779463,779462.8999996185,,779462.7999997139,,779470.295,8,400,,,
sequence,flow.Sequence,4_108,2023-09-09T16:17:45.063Z,,0,,,5119.301999618532,completion,,,,,false,,,,779463,779462.8999996185,774327.041,774334.6999998093,774343.598,779470.295,8,400,,,
trial,html.Screen,4_109_0,2023-09-09T16:17:50.233Z,,0,3,,5162.604999618488,response,ISIC_8851038.JPG,5,ISIC_0028019.JPG,ISIC_0028019.JPG,false,0,keypress(z),500,784633,784632.8999996185,779453.7,779463.0999999046,779470.295,784646.951,8,400,10,,ISIC_8851038.JPG
break,html.Screen,4_109_1,2023-09-09T16:17:50.234Z,,0,,,NaN,,,,,,false,,,,784633.3999996185,784633.2999997139,,784633,,784646.951,8,400,,,
break_continue,html.Screen,4_109_2,2023-09-09T16:17:50.234Z,,0,,,NaN,,,,,,false,,,,784633.5999999046,784633.5,,784633.5,,784646.951,8,400,,,
sequence,flow.Sequence,4_109,2023-09-09T16:17:50.234Z,,0,,,5163.204999999958,completion,,,,,false,,,,784633.5999999046,784633.5,779453.7,779463.0999999046,779470.295,784646.951,8,400,,,
trial,html.Screen,4_110_0,2023-09-09T16:17:56.572Z,,0,3,,6324.248999809264,response,ISIC_0026879.JPG,5,ISIC_5910975.JPG,ISIC_0026879.JPG,false,1,keypress(m),500,790971.5,790971.1999998093,784630.257,784633.6999998093,784646.951,790976.046,8,400,11,,ISIC_5910975.JPG
break,html.Screen,4_110_1,2023-09-09T16:17:56.573Z,,0,,,NaN,,,,,,false,,,,790972.8999996185,790972.5,,790971.7999997139,,790976.046,8,400,,,
break_continue,html.Screen,4_110_2,2023-09-09T16:17:56.574Z,,0,,,NaN,,,,,,false,,,,790973.5999999046,790973.3999996185,,790973.0999999046,,790976.046,8,400,,,
sequence,flow.Sequence,4_110,2023-09-09T16:17:56.574Z,,0,,,6326.448999618529,completion,,,,,false,,,,790973.7999997139,790973.3999996185,784630.257,784633.6999998093,784646.951,790976.046,8,400,,,
trial,html.Screen,4_111_0,2023-09-09T16:18:00.545Z,,0,3,,3968.653999809292,response,ISIC_5454766.JPG,4,ISIC_3190566.JPG,ISIC_5454766.JPG,false,1,keypress(m),500,794944.8999996185,794944.6999998093,790959.22,790974.0999999046,790976.046,794950.497,8,400,12,,ISIC_3190566.JPG
break,html.Screen,4_111_1,2023-09-09T16:18:00.546Z,,0,,,NaN,,,,,,false,,,,794945.6999998093,794945.3999996185,,794945.0999999046,,794950.497,8,400,,,
break_continue,html.Screen,4_111_2,2023-09-09T16:18:00.546Z,,0,,,NaN,,,,,,false,,,,794945.8999996185,794945.7999997139,,794945.6999998093,,794950.497,8,400,,,
sequence,flow.Sequence,4_111,2023-09-09T16:18:00.546Z,,0,,,3969.7539997139247,completion,,,,,false,,,,794946,794945.7999997139,790959.22,790974,790976.046,794950.497,8,400,,,
trial,html.Screen,4_112_0,2023-09-09T16:18:05.497Z,,0,3,,4945.003000000026,response,ISIC_9407690.JPG,4,ISIC_0013835.JPG,ISIC_9407690.JPG,false,1,keypress(m),500,799895.6999998093,799895.5,794933.738,794946,794950.497,799910.159,8,400,13,,ISIC_0013835.JPG
break,html.Screen,4_112_1,2023-09-09T16:18:05.497Z,,0,,,NaN,,,,,,false,,,,799896.1999998093,799896,,799895.8999996185,,799910.159,8,400,,,
break_continue,html.Screen,4_112_2,2023-09-09T16:18:05.498Z,,0,,,NaN,,,,,,false,,,,799896.3999996185,799896.2999997139,,799896.1999998093,,799910.159,8,400,,,
sequence,flow.Sequence,4_112,2023-09-09T16:18:05.498Z,,0,,,4945.802999713924,completion,,,,,false,,,,799896.5,799896.2999997139,794933.738,794946,794950.497,799910.159,8,400,,,
trial,html.Screen,4_113_0,2023-09-09T16:18:11.390Z,,0,3,,5877.841000000015,response,ISIC_0011797.JPG,6,ISIC_1628539.JPG,ISIC_0011797.JPG,false,1,keypress(m),500,805788.1999998093,805788,799893.318,799896.5,799910.159,805804.787,8,400,14,,ISIC_1628539.JPG
break,html.Screen,4_113_1,2023-09-09T16:18:11.390Z,,0,,,NaN,,,,,,false,,,,805789,805788.7999997139,,805788.3999996185,,805804.787,8,400,,,
break_continue,html.Screen,4_113_2,2023-09-09T16:18:11.391Z,,0,,,NaN,,,,,,false,,,,805789.5,805789.5,,805789.2999997139,,805804.787,8,400,,,
sequence,flow.Sequence,4_113,2023-09-09T16:18:11.391Z,,0,,,5879.341000000015,completion,,,,,false,,,,805789.6999998093,805789.5,799893.318,799896.5,799910.159,805804.787,8,400,,,
trial,html.Screen,4_114_0,2023-09-09T16:18:15.985Z,,0,3,,4578.412999809254,response,ISIC_0033584.JPG,5,ISIC_3529778.JPG,ISIC_0033584.JPG,false,1,keypress(m),500,810383.2999997139,810383.1999998093,805788.131,805789.7999997139,805804.787,810397.169,8,400,15,,ISIC_3529778.JPG
break,html.Screen,4_114_1,2023-09-09T16:18:15.985Z,,0,,,NaN,,,,,,false,,,,810383.7999997139,810383.6999998093,,810383.3999996185,,810397.169,8,400,,,
break_continue,html.Screen,4_114_2,2023-09-09T16:18:15.985Z,,0,,,NaN,,,,,,false,,,,810384.0999999046,810384,,810383.8999996185,,810397.169,8,400,,,
sequence,flow.Sequence,4_114,2023-09-09T16:18:15.985Z,,0,,,4579.212999999989,completion,,,,,false,,,,810384.1999998093,810384,805788.131,805789.7999997139,805804.787,810397.169,8,400,,,
trial,html.Screen,4_115_0,2023-09-09T16:18:22.980Z,,0,3,,6981.831000000006,response,ISIC_0059846.JPG,5,ISIC_0012722.JPG,ISIC_0012722.JPG,false,0,keypress(z),500,817379.1999998093,817379,810380.454,810384.1999998093,810397.169,817393.979,8,400,16,,ISIC_0059846.JPG
break,html.Screen,4_115_1,2023-09-09T16:18:22.981Z,,0,,,NaN,,,,,,false,,,,817379.5999999046,817379.5,,817379.1999998093,,817393.979,8,400,,,
break_continue,html.Screen,4_115_2,2023-09-09T16:18:22.981Z,,0,,,NaN,,,,,,false,,,,817379.7999997139,817379.6999998093,,817379.6999998093,,817393.979,8,400,,,
sequence,flow.Sequence,4_115,2023-09-09T16:18:22.981Z,,0,,,6982.530999809271,completion,,,,,false,,,,817379.8999996185,817379.6999998093,810380.454,810384.1999998093,810397.169,817393.979,8,400,,,
trial,html.Screen,4_116_0,2023-09-09T16:18:28.295Z,,0,3,,5299.220999809215,response,ISIC_0071916.JPG,5,ISIC_0066401.JPG,ISIC_0071916.JPG,false,1,keypress(m),500,822693.3999996185,822693.1999998093,817377.3,817379.8999996185,817393.979,822704.437,8,400,17,,ISIC_0066401.JPG
break,html.Screen,4_116_1,2023-09-09T16:18:28.295Z,,0,,,NaN,,,,,,false,,,,822694,822693.7999997139,,822693.3999996185,,822704.437,8,400,,,
break_continue,html.Screen,4_116_2,2023-09-09T16:18:28.296Z,,0,,,NaN,,,,,,false,,,,822694.2999997139,822694.1999998093,,822694,,822704.437,8,400,,,
sequence,flow.Sequence,4_116,2023-09-09T16:18:28.296Z,,0,,,5300.220999809215,completion,,,,,false,,,,822694.3999996185,822694.1999998093,817377.3,817379.8999996185,817393.979,822704.437,8,400,,,
trial,html.Screen,4_117_0,2023-09-09T16:18:33.152Z,,0,3,,4846.462999618496,response,ISIC_7651838.JPG,5,ISIC_5153848.JPG,ISIC_7651838.JPG,false,1,keypress(m),500,827551,827550.8999996185,822687.632,822694.5,822704.437,827563.899,8,400,18,,ISIC_5153848.JPG
break,html.Screen,4_117_1,2023-09-09T16:18:33.153Z,,0,,,NaN,,,,,,false,,,,827551.5,827551.2999997139,,827551.0999999046,,827563.899,8,400,,,
break_continue,html.Screen,4_117_2,2023-09-09T16:18:33.153Z,,0,,,NaN,,,,,,false,,,,827551.5999999046,827551.5999999046,,827551.5,,827563.899,8,400,,,
sequence,flow.Sequence,4_117,2023-09-09T16:18:33.153Z,,0,,,4847.162999904598,completion,,,,,false,,,,827551.7999997139,827551.5999999046,822687.632,822694.3999996185,822704.437,827563.899,8,400,,,
trial,html.Screen,4_118_0,2023-09-09T16:18:39.411Z,,0,3,,6246.101000000024,response,ISIC_5539001.JPG,6,ISIC_0034036.JPG,ISIC_0034036.JPG,false,0,keypress(z),500,833810.1999998093,833810,827547.15,827551.7999997139,827563.899,833825.966,8,400,19,,ISIC_5539001.JPG
break,html.Screen,4_118_1,2023-09-09T16:18:39.412Z,,0,,,NaN,,,,,,false,,,,833810.8999996185,833810.6999998093,,833810.2999997139,,833825.966,8,400,,,
break_continue,html.Screen,4_118_2,2023-09-09T16:18:39.412Z,,0,,,NaN,,,,,,false,,,,833811.0999999046,833811.0999999046,,833810.8999996185,,833825.966,8,400,,,
sequence,flow.Sequence,4_118,2023-09-09T16:18:39.413Z,,0,,,6247.200999904657,completion,,,,,false,,,,833811.2999997139,833811.0999999046,827547.15,827551.7999997139,827563.899,833825.966,8,400,,,
trial,html.Screen,4_119_0,2023-09-09T16:18:42.633Z,,0,3,,3205.1339999046177,response,ISIC_0010705.JPG,6,ISIC_0027867.JPG,ISIC_0010705.JPG,false,1,keypress(m),500,837031.2999997139,837031.0999999046,833809.377,833811.2999997139,833825.966,837050.301,8,400,20,,ISIC_0027867.JPG
break,html.Screen,4_119_1,2023-09-09T16:18:42.633Z,,0,,,NaN,,,,,,false,,,,837031.5999999046,837031.5999999046,,837031.3999996185,,837050.301,8,400,,,
break_continue,html.Screen,4_119_2,2023-09-09T16:18:42.633Z,,0,,,NaN,,,,,,false,,,,837032,837031.7999997139,,837031.7999997139,,837050.301,8,400,,,
sequence,flow.Sequence,4_119,2023-09-09T16:18:42.633Z,,0,,,3205.833999713883,completion,,,,,false,,,,837032.0999999046,837031.7999997139,833809.377,833811.2999997139,833825.966,837050.301,8,400,,,
trial,html.Screen,4_120_0,2023-09-09T16:18:48.379Z,,0,3,,5727.199000000022,response,ISIC_0000139.JPG,6,ISIC_0025235.JPG,ISIC_0000139.JPG,false,1,keypress(m),500,842777.6999998093,842777.5,837015.545,837032.0999999046,837050.301,842793.584,8,400,21,,ISIC_0025235.JPG
break,html.Screen,4_120_1,2023-09-09T16:18:48.380Z,,0,,,NaN,,,,,,false,,,,842778.2999997139,842778.1999998093,,842777.7999997139,,842793.584,8,400,,,
break_continue,html.Screen,4_120_2,2023-09-09T16:18:48.380Z,,0,,,NaN,,,,,,false,,,,842778.5999999046,842778.5,,842778.3999996185,,842793.584,8,400,,,
sequence,flow.Sequence,4_120,2023-09-09T16:18:48.380Z,,0,,,5728.199000000022,completion,,,,,false,,,,842778.6999998093,842778.5,837015.545,837032.0999999046,837050.301,842793.584,8,400,,,
trial,html.Screen,4_121_0,2023-09-09T16:18:54.096Z,,0,3,,5701.415999999968,response,ISIC_0014183.JPG,5,ISIC_2260249.JPG,ISIC_0014183.JPG,false,1,keypress(m),500,848495.0999999046,848495,842776.896,842778.6999998093,842793.584,848504.604,8,400,22,,ISIC_2260249.JPG
break,html.Screen,4_121_1,2023-09-09T16:18:54.097Z,,0,,,NaN,,,,,,false,,,,848495.7999997139,848495.5999999046,,848495.1999998093,,848504.604,8,400,,,
break_continue,html.Screen,4_121_2,2023-09-09T16:18:54.097Z,,0,,,NaN,,,,,,false,,,,848496.0999999046,848496,,848496,,848504.604,8,400,,,
sequence,flow.Sequence,4_121,2023-09-09T16:18:54.097Z,,0,,,5702.415999999968,completion,,,,,false,,,,848496.0999999046,848496,842776.896,842778.6999998093,842793.584,848504.604,8,400,,,
trial,html.Screen,4_122_0,2023-09-09T16:19:00.003Z,,0,3,,5896.89599999995,response,ISIC_9094080.JPG,5,ISIC_0030929.JPG,ISIC_0030929.JPG,false,0,keypress(z),500,854401.5999999046,854401.5,848488.057,848496.1999998093,848504.604,854416.086,8,400,23,,ISIC_9094080.JPG
break,html.Screen,4_122_1,2023-09-09T16:19:00.003Z,,0,,,NaN,,,,,,false,,,,854402.1999998093,854402,,854401.6999998093,,854416.086,8,400,,,
break_continue,html.Screen,4_122_2,2023-09-09T16:19:00.004Z,,0,,,NaN,,,,,,false,,,,854402.5,854402.5,,854402.1999998093,,854416.086,8,400,,,
sequence,flow.Sequence,4_122,2023-09-09T16:19:00.004Z,,0,,,5897.89599999995,completion,,,,,false,,,,854402.5,854402.5,848488.057,848496.0999999046,848504.604,854416.086,8,400,,,
trial,html.Screen,4_123_0,2023-09-09T16:19:05.255Z,,0,3,,5236.113999809255,response,ISIC_0002613.JPG,6,ISIC_1220154.JPG,ISIC_1220154.JPG,false,0,keypress(z),500,859652.2999997139,859652.1999998093,854399.465,854402.5999999046,854416.086,859659.61,8,400,24,,ISIC_0002613.JPG
break,html.Screen,4_123_1,2023-09-09T16:19:05.255Z,,0,,,NaN,,,,,,false,,,,859652.5999999046,859652.5999999046,,859652.3999996185,,859659.61,8,400,,,
break_continue,html.Screen,4_123_2,2023-09-09T16:19:05.255Z,,0,,,NaN,,,,,,false,,,,859652.7999997139,859652.7999997139,,859652.7999997139,,859659.61,8,400,,,
sequence,flow.Sequence,4_123,2023-09-09T16:19:05.255Z,,0,,,5236.7139997138875,completion,,,,,false,,,,859652.8999996185,859652.7999997139,854399.465,854402.5999999046,854416.086,859659.61,8,400,,,
trial,html.Screen,4_124_0,2023-09-09T16:19:11.473Z,,0,3,,6210.689999713912,response,ISIC_0030900.JPG,5,ISIC_0056790.JPG,ISIC_0030900.JPG,false,1,keypress(m),500,865870.6999998093,865870.2999997139,859643.081,859652.8999996185,859659.61,865905.116,8,400,25,,ISIC_0056790.JPG
break,html.Screen,4_124_1,2023-09-09T16:19:11.475Z,,0,,,NaN,,,,,,false,,,,865872.2999997139,865871.7999997139,,865871.0999999046,,865905.116,8,400,,,
break_continue,html.Screen,4_124_2,2023-09-09T16:19:11.475Z,,0,,,NaN,,,,,,false,,,,865873.0999999046,865872.7999997139,,865872.5,,865905.116,8,400,,,
sequence,flow.Sequence,4_124,2023-09-09T16:19:11.476Z,,0,,,6213.189999713912,completion,,,,,false,,,,865873.5,865872.7999997139,859643.081,859652.8999996185,859659.61,865905.116,8,400,,,
trial,html.Screen,4_125_0,2023-09-09T16:19:16.839Z,,0,3,,5331.1839997138595,response,ISIC_8105020.JPG,6,ISIC_0002162.JPG,ISIC_8105020.JPG,false,1,keypress(m),500,871236.5,871236.2999997139,865888.449,865873.7999997139,865905.116,871248.836,8,400,26,,ISIC_0002162.JPG
break,html.Screen,4_125_1,2023-09-09T16:19:16.839Z,,0,,,NaN,,,,,,false,,,,871236.8999996185,871236.7999997139,,871236.5999999046,,871248.836,8,400,,,
break_continue,html.Screen,4_125_2,2023-09-09T16:19:16.839Z,,0,,,NaN,,,,,,false,,,,871237.1999998093,871237.0999999046,,871237.0999999046,,871248.836,8,400,,,
sequence,flow.Sequence,4_125,2023-09-09T16:19:16.840Z,,0,,,5331.983999904594,completion,,,,,false,,,,871237.2999997139,871237.0999999046,865888.449,865873.6999998093,865905.116,871248.836,8,400,,,
trial,html.Screen,4_126_0,2023-09-09T16:19:22.430Z,,0,3,,5579.16399999999,response,ISIC_0056546.JPG,4,ISIC_0027573.JPG,ISIC_0056546.JPG,false,1,keypress(m),500,876828.1999998093,876828,871232.291,871237.3999996185,871248.836,876843.049,8,400,27,,ISIC_0027573.JPG
