sender,sender_type,sender_id,timestamp,meta,,blockNo,condition,duration,ended_on,img_left,img_reveal,img_right,loser,practice,response,response_action,selection_duration,time_commit,time_end,time_render,time_run,time_show,time_switch,total_blocks,total_trials,trialNo,url,winner
informed_consent,html.Screen,0,2023-09-11T19:04:56.911Z,"{""labjs_version"":""20.2.4"",""labjs_build"":{""flavor"":""development"",""commit"":""f5b4a49f956347addd546a832a3327688c2c0fef""},""location"":""https://labjs.felixhenninger.com/api/labjs_preview/index.html"",""userAgent"":""Mozilla/5.0 (Windows NT 10.0; Win64; x64) AppleWebKit/537.36 (KHTML, like Gecko) Chrome/116.0.0.0 Safari/537.36"",""platform"":""Win32"",""language"":""en-AU"",""locale"":""en-US"",""timeZone"":""America/Chicago"",""timezoneOffset"":300,""screen_width"":1680,""screen_height"":1050,""scroll_width"":1296,""scroll_height"":688,""window_innerWidth"":1296,""window_innerHeight"":736,""devicePixelRatio"":1}",,,,6523.12,response,,,,,,consent,click button,,7123,7122,582.185,585.9000000953674,598.88,7128.229,,,,{},
Welcome,html.Screen,1,2023-09-11T19:05:02.693Z,,,,colourful,5775.571000190735,response,,,,,,continue,click button,,12904.200000286102,12903.800000190735,7111.551,7123.200000286102,7128.229,12922.819,,,,,
trial,html.Screen,2_0_0,2023-09-11T19:05:09.400Z,,0,0,,6687.581000095368,response,ISIC_0063388.JPG,,ISIC_0025593.JPG,ISIC_0063388.JPG,true,1,keypress(m),500,19610.599999904633,19610.400000095367,12906.171,12904.400000095367,12922.819,19635.928,1,6,1,,ISIC_0025593.JPG
sequence,flow.Sequence,2_0,2023-09-11T19:05:09.400Z,,0,,,6687.581000095368,completion,,,,,true,,,,19610.800000190735,19610.400000095367,12906.171,12904.300000190735,12922.819,19635.928,1,6,,,
trial,html.Screen,2_1_0,2023-09-11T19:05:12.811Z,,0,0,,3386.2720002861024,response,ISIC_0028178.JPG,,ISIC_1309015.JPG,ISIC_1309015.JPG,true,0,keypress(z),500,23022.400000095367,23022.200000286102,19619.203,19610.800000190735,19635.928,23025.875,1,6,2,,ISIC_0028178.JPG
sequence,flow.Sequence,2_1,2023-09-11T19:05:12.811Z,,0,,,3386.2720002861024,completion,,,,,true,,,,23022.599999904633,23022.200000286102,19619.203,19610.800000190735,19635.928,23025.875,1,6,,,
trial,html.Screen,2_2_0,2023-09-11T19:05:17.167Z,,0,0,,4351.724999904633,response,ISIC_0031128.JPG,,ISIC_3314853.JPG,ISIC_3314853.JPG,true,0,keypress(z),500,27377.700000286102,27377.599999904633,23009.186,23022.700000286102,23025.875,27384.322,1,6,3,,ISIC_0031128.JPG
sequence,flow.Sequence,2_2,2023-09-11T19:05:17.167Z,,0,,,4351.724999904633,completion,,,,,true,,,,27377.900000095367,27377.599999904633,23009.186,23022.599999904633,23025.875,27384.322,1,6,,,
trial,html.Screen,2_3_0,2023-09-11T19:05:20.096Z,,0,0,,2923.0780000953673,response,ISIC_8980141.JPG,,ISIC_0031612.JPG,ISIC_8980141.JPG,true,1,keypress(m),500,30307.599999904633,30307.400000095367,27367.701,27378,27384.322,30323.352,1,6,4,,ISIC_0031612.JPG
sequence,flow.Sequence,2_3,2023-09-11T19:05:20.097Z,,0,,,2923.0780000953673,completion,,,,,true,,,,30307.900000095367,30307.400000095367,27367.701,27378,27384.322,30323.352,1,6,,,
trial,html.Screen,2_4_0,2023-09-11T19:05:23.430Z,,0,0,,3317.5480000953685,response,ISIC_1197737.JPG,,ISIC_9721604.JPG,ISIC_9721604.JPG,true,0,keypress(z),500,33641.2000002861,33640.90000009537,30306.672,30308.099999904633,30323.352,33646.481,1,6,5,,ISIC_1197737.JPG
sequence,flow.Sequence,2_4,2023-09-11T19:05:23.430Z,,0,,,3317.5480000953685,completion,,,,,true,,,,33641.300000190735,33640.90000009537,30306.672,30308,30323.352,33646.481,1,6,,,
trial,html.Screen,2_5_0,2023-09-11T19:05:27.464Z,,0,0,,4028.118999904633,response,ISIC_0025346.JPG,,ISIC_0010681.JPG,ISIC_0010681.JPG,true,0,keypress(z),500,37674.800000190735,37674.59999990463,33629.825,33641.40000009537,33646.481,37687.726,1,6,6,,ISIC_0025346.JPG
sequence,flow.Sequence,2_5,2023-09-11T19:05:27.464Z,,0,,,4028.118999904633,completion,,,,,true,,,,37675.09999990463,37674.59999990463,33629.825,33641.300000190735,33646.481,37687.726,1,6,,,
loop,flow.Loop,2,2023-09-11T19:05:27.464Z,,,,,24751.780999904633,completion,,,,,true,,,,37675.300000190735,37674.59999990463,12906.171,12904.300000190735,12922.819,37687.726,1,6,,,
exp_instructions,html.Screen,3,2023-09-11T19:05:33.676Z,,,,,6198.773999999998,response,,,,,,continue,keypress(Space),,43886.90000009537,43886.5,37671.019,37675.40000009537,37687.726,43899.875,,,,,
trial,html.Screen,4_0_0,2023-09-11T19:05:38.366Z,,0,1,,4677.325000286102,response,ISIC_7052658.JPG,5,ISIC_7139908.JPG,ISIC_7052658.JPG,false,1,keypress(m),500,48577.59999990463,48577.2000002861,43883.049,43887.09999990463,43899.875,48592.294,8,400,1,,ISIC_7139908.JPG
break,html.Screen,4_0_1,2023-09-11T19:05:38.369Z,,0,,,NaN,,,,,,false,,,,48579.59999990463,48578.90000009537,,48578,,48592.294,8,400,,,
break_continue,html.Screen,4_0_2,2023-09-11T19:05:38.370Z,,0,,,NaN,,,,,,false,,,,48580.59999990463,48580.40000009537,,48579.90000009537,,48592.294,8,400,,,
sequence,flow.Sequence,4_0,2023-09-11T19:05:38.370Z,,0,,,4680.525000095367,completion,,,,,false,,,,48580.90000009537,48580.40000009537,43883.049,43887,43899.875,48592.294,8,400,,,
trial,html.Screen,4_1_0,2023-09-11T19:05:44.854Z,,0,1,,6472.406000286101,response,ISIC_8671119.JPG,4,ISIC_3975133.JPG,ISIC_8671119.JPG,false,1,keypress(m),500,55064.800000190735,55064.7000002861,48575.652,48581.300000190735,48592.294,55071.606,8,400,2,,ISIC_3975133.JPG
break,html.Screen,4_1_1,2023-09-11T19:05:44.854Z,,0,,,NaN,,,,,,false,,,,55065.2000002861,55065.2000002861,,55064.90000009537,,55071.606,8,400,,,
break_continue,html.Screen,4_1_2,2023-09-11T19:05:44.854Z,,0,,,NaN,,,,,,false,,,,55065.5,55065.5,,55065.300000190735,,55071.606,8,400,,,
sequence,flow.Sequence,4_1,2023-09-11T19:05:44.855Z,,0,,,6473.205999999998,completion,,,,,false,,,,55065.59999990463,55065.5,48575.652,48581.2000002861,48592.294,55071.606,8,400,,,
trial,html.Screen,4_2_0,2023-09-11T19:05:50.008Z,,0,1,,5147.0940002861025,response,ISIC_7976724.JPG,5,ISIC_0030780.JPG,ISIC_0030780.JPG,false,0,keypress(z),500,60218.90000009537,60218.7000002861,55054.933,55065.7000002861,55071.606,60231.643,8,400,3,,ISIC_7976724.JPG
break,html.Screen,4_2_1,2023-09-11T19:05:50.008Z,,0,,,NaN,,,,,,false,,,,60219.300000190735,60219.09999990463,,60218.90000009537,,60231.643,8,400,,,
break_continue,html.Screen,4_2_2,2023-09-11T19:05:50.008Z,,0,,,NaN,,,,,,false,,,,60219.5,60219.40000009537,,60219.300000190735,,60231.643,8,400,,,
sequence,flow.Sequence,4_2,2023-09-11T19:05:50.008Z,,0,,,5147.794000095368,completion,,,,,false,,,,60219.5,60219.40000009537,55054.933,55065.7000002861,55071.606,60231.643,8,400,,,
trial,html.Screen,4_3_0,2023-09-11T19:05:53.870Z,,0,1,,3849.3570000000036,response,ISIC_6523645.JPG,5,ISIC_0027021.JPG,ISIC_6523645.JPG,false,1,keypress(m),500,64081.09999990463,64081,60215.077,60219.59999990463,60231.643,64089.071,8,400,4,,ISIC_0027021.JPG
break,html.Screen,4_3_1,2023-09-11T19:05:53.871Z,,0,,,NaN,,,,,,false,,,,64081.7000002861,64081.40000009537,,64081.2000002861,,64089.071,8,400,,,
break_continue,html.Screen,4_3_2,2023-09-11T19:05:53.871Z,,0,,,NaN,,,,,,false,,,,64082.09999990463,64082.09999990463,,64081.90000009537,,64089.071,8,400,,,
sequence,flow.Sequence,4_3,2023-09-11T19:05:53.871Z,,0,,,3850.456999904636,completion,,,,,false,,,,64082.2000002861,64082.09999990463,60215.077,60219.59999990463,60231.643,64089.071,8,400,,,
trial,html.Screen,4_4_0,2023-09-11T19:05:58.835Z,,0,1,,4955.428999999996,response,ISIC_0027263.JPG,5,ISIC_5388485.JPG,ISIC_5388485.JPG,false,0,keypress(z),500,69044.59999990463,69044.5,64072.581,64082.300000190735,64089.071,69048.752,8,400,5,,ISIC_0027263.JPG
break,html.Screen,4_4_1,2023-09-11T19:05:58.835Z,,0,,,NaN,,,,,,false,,,,69045.09999990463,69044.90000009537,,69044.7000002861,,69048.752,8,400,,,
break_continue,html.Screen,4_4_2,2023-09-11T19:05:58.836Z,,0,,,NaN,,,,,,false,,,,69045.2000002861,69045.09999990463,,69045.09999990463,,69048.752,8,400,,,
sequence,flow.Sequence,4_4,2023-09-11T19:05:58.836Z,,0,,,4956.028999904629,completion,,,,,false,,,,69045.30000019073,69045.09999990463,64072.581,64082.300000190735,64089.071,69048.752,8,400,,,
trial,html.Screen,4_5_0,2023-09-11T19:06:02.933Z,,0,1,,4093.8479999046394,response,ISIC_3789239.JPG,6,ISIC_0028207.JPG,ISIC_3789239.JPG,false,1,keypress(m),500,73142.7000002861,73142.59999990463,69032.119,69045.30000019073,69048.752,73156.709,8,400,6,,ISIC_0028207.JPG
break,html.Screen,4_5_1,2023-09-11T19:06:02.934Z,,0,,,NaN,,,,,,false,,,,73143.2000002861,73143,,73142.80000019073,,73156.709,8,400,,,
break_continue,html.Screen,4_5_2,2023-09-11T19:06:02.934Z,,0,,,NaN,,,,,,false,,,,73143.40000009537,73143.30000019073,,73143.30000019073,,73156.709,8,400,,,
sequence,flow.Sequence,4_5,2023-09-11T19:06:02.934Z,,0,,,4094.5480001907417,completion,,,,,false,,,,73143.5,73143.30000019073,69032.119,69045.30000019073,69048.752,73156.709,8,400,,,
trial,html.Screen,4_6_0,2023-09-11T19:06:10.208Z,,0,1,,7260.39099990463,response,ISIC_0032278.JPG,5,ISIC_0189694.JPG,ISIC_0032278.JPG,false,1,keypress(m),500,80417.2000002861,80417.09999990463,73140.204,73143.5,73156.709,80420.839,8,400,7,,ISIC_0189694.JPG
break,html.Screen,4_6_1,2023-09-11T19:06:10.208Z,,0,,,NaN,,,,,,false,,,,80417.90000009537,80417.59999990463,,80417.30000019073,,80420.839,8,400,,,
break_continue,html.Screen,4_6_2,2023-09-11T19:06:10.209Z,,0,,,NaN,,,,,,false,,,,80418.2000002861,80418.09999990463,,80418,,80420.839,8,400,,,
sequence,flow.Sequence,4_6,2023-09-11T19:06:10.209Z,,0,,,7261.39099990463,completion,,,,,false,,,,80418.30000019073,80418.09999990463,73140.204,73143.5,73156.709,80420.839,8,400,,,
trial,html.Screen,4_7_0,2023-09-11T19:06:15.923Z,,0,1,,5711.56100009536,response,ISIC_0034218.JPG,5,ISIC_0015208.JPG,ISIC_0015208.JPG,false,0,keypress(z),500,86132.59999990463,86132.40000009537,80404.197,80418.40000009537,80420.839,86148.744,8,400,8,,ISIC_0034218.JPG
break,html.Screen,4_7_1,2023-09-11T19:06:15.924Z,,0,,,NaN,,,,,,false,,,,86133.5,86133.30000019073,,86132.80000019073,,86148.744,8,400,,,
break_continue,html.Screen,4_7_2,2023-09-11T19:06:15.924Z,,0,,,NaN,,,,,,false,,,,86133.90000009537,86133.80000019073,,86133.7000002861,,86148.744,8,400,,,
sequence,flow.Sequence,4_7,2023-09-11T19:06:15.924Z,,0,,,5712.961000190728,completion,,,,,false,,,,86134.09999990463,86133.80000019073,80404.197,80418.40000009537,80420.839,86148.744,8,400,,,
trial,html.Screen,4_8_0,2023-09-11T19:06:21.385Z,,0,1,,5446.3559999046265,response,ISIC_8354042.JPG,5,ISIC_9017110.JPG,ISIC_9017110.JPG,false,0,keypress(z),500,91595.2000002861,91595.09999990463,86132.08,86134.2000002861,86148.744,91609.347,8,400,9,,ISIC_8354042.JPG
break,html.Screen,4_8_1,2023-09-11T19:06:21.386Z,,0,,,NaN,,,,,,false,,,,91595.7000002861,91595.59999990463,,91595.30000019073,,91609.347,8,400,,,
break_continue,html.Screen,4_8_2,2023-09-11T19:06:21.386Z,,0,,,NaN,,,,,,false,,,,91595.90000009537,91595.80000019073,,91595.80000019073,,91609.347,8,400,,,
sequence,flow.Sequence,4_8,2023-09-11T19:06:21.386Z,,0,,,5447.056000190729,completion,,,,,false,,,,91596,91595.80000019073,86132.08,86134.2000002861,86148.744,91609.347,8,400,,,
trial,html.Screen,4_9_0,2023-09-11T19:06:27.021Z,,0,1,,5620.953000190741,response,ISIC_0034210.JPG,6,ISIC_1296490.JPG,ISIC_0034210.JPG,false,1,keypress(m),500,97230.5,97230.30000019073,91592.568,91596,91609.347,97237.001,8,400,10,,ISIC_1296490.JPG
break,html.Screen,4_9_1,2023-09-11T19:06:27.021Z,,0,,,NaN,,,,,,false,,,,97231.2000002861,97231,,97230.59999990463,,97237.001,8,400,,,
break_continue,html.Screen,4_9_2,2023-09-11T19:06:27.022Z,,0,,,NaN,,,,,,false,,,,97231.5,97231.40000009537,,97231.30000019073,,97237.001,8,400,,,
sequence,flow.Sequence,4_9,2023-09-11T19:06:27.022Z,,0,,,5622.053000095373,completion,,,,,false,,,,97231.5,97231.40000009537,91592.568,91596,91609.347,97237.001,8,400,,,
trial,html.Screen,4_10_0,2023-09-11T19:06:31.394Z,,0,1,,4366.399000095364,response,ISIC_0033369.JPG,5,ISIC_5831880.JPG,ISIC_5831880.JPG,false,0,keypress(z),500,101603.5,101603.40000009537,97220.279,97231.59999990463,97237.001,101628.779,8,400,11,,ISIC_0033369.JPG
break,html.Screen,4_10_1,2023-09-11T19:06:31.394Z,,0,,,NaN,,,,,,false,,,,101604,101603.90000009537,,101603.59999990463,,101628.779,8,400,,,
break_continue,html.Screen,4_10_2,2023-09-11T19:06:31.395Z,,0,,,NaN,,,,,,false,,,,101604.40000009537,101604.40000009537,,101604.2000002861,,101628.779,8,400,,,
sequence,flow.Sequence,4_10,2023-09-11T19:06:31.395Z,,0,,,4367.399000095364,completion,,,,,false,,,,101604.5,101604.40000009537,97220.279,97231.59999990463,97237.001,101628.779,8,400,,,
trial,html.Screen,4_11_0,2023-09-11T19:06:38.328Z,,0,1,,6909.121000095372,response,ISIC_0069504.JPG,6,ISIC_0055747.JPG,ISIC_0055747.JPG,false,0,keypress(z),500,108538.09999990463,108537.90000009537,101612.208,101604.59999990463,101628.779,108542.257,8,400,12,,ISIC_0069504.JPG
break,html.Screen,4_11_1,2023-09-11T19:06:38.329Z,,0,,,NaN,,,,,,false,,,,108538.80000019073,108538.59999990463,,108538.2000002861,,108542.257,8,400,,,
break_continue,html.Screen,4_11_2,2023-09-11T19:06:38.329Z,,0,,,NaN,,,,,,false,,,,108539.09999990463,108539,,108538.80000019073,,108542.257,8,400,,,
sequence,flow.Sequence,4_11,2023-09-11T19:06:38.330Z,,0,,,6910.221000000005,completion,,,,,false,,,,108539.30000019073,108539,101612.208,101604.5,101628.779,108542.257,8,400,,,
trial,html.Screen,4_12_0,2023-09-11T19:06:42.365Z,,0,1,,4031.9430002861045,response,ISIC_0011434.JPG,4,ISIC_0206758.JPG,ISIC_0206758.JPG,false,0,keypress(z),500,112574.40000009537,112574.2000002861,108525.559,108539.30000019073,108542.257,112583.429,8,400,13,,ISIC_0011434.JPG
break,html.Screen,4_12_1,2023-09-11T19:06:42.365Z,,0,,,NaN,,,,,,false,,,,112575,112574.90000009537,,112574.5,,112583.429,8,400,,,
break_continue,html.Screen,4_12_2,2023-09-11T19:06:42.365Z,,0,,,NaN,,,,,,false,,,,112575.09999990463,112575.09999990463,,112575.09999990463,,112583.429,8,400,,,
sequence,flow.Sequence,4_12,2023-09-11T19:06:42.366Z,,0,,,4032.842999904635,completion,,,,,false,,,,112575.2000002861,112575.09999990463,108525.559,108539.30000019073,108542.257,112583.429,8,400,,,
trial,html.Screen,4_13_0,2023-09-11T19:06:48.934Z,,0,1,,6559.670999904629,response,ISIC_0054329.JPG,5,ISIC_6400232.JPG,ISIC_6400232.JPG,false,0,keypress(z),500,119143.30000019073,119143.09999990463,112566.765,112575.30000019073,112583.429,119146.264,8,400,14,,ISIC_0054329.JPG
break,html.Screen,4_13_1,2023-09-11T19:06:48.934Z,,0,,,NaN,,,,,,false,,,,119144.09999990463,119143.80000019073,,119143.40000009537,,119146.264,8,400,,,
break_continue,html.Screen,4_13_2,2023-09-11T19:06:48.935Z,,0,,,NaN,,,,,,false,,,,119144.5,119144.40000009537,,119144.30000019073,,119146.264,8,400,,,
sequence,flow.Sequence,4_13,2023-09-11T19:06:48.935Z,,0,,,6560.971000095364,completion,,,,,false,,,,119144.7000002861,119144.40000009537,112566.765,112575.30000019073,112583.429,119146.264,8,400,,,
trial,html.Screen,4_14_0,2023-09-11T19:06:54.221Z,,0,1,,5284.835999904637,response,ISIC_0062471.JPG,5,ISIC_0250064.JPG,ISIC_0250064.JPG,false,0,keypress(z),500,124431.09999990463,124431.09999990463,119129.627,119144.80000019073,119146.264,124456.572,8,400,15,,ISIC_0062471.JPG
break,html.Screen,4_14_1,2023-09-11T19:06:54.222Z,,0,,,NaN,,,,,,false,,,,124431.5,124431.40000009537,,124431.30000019073,,124456.572,8,400,,,
break_continue,html.Screen,4_14_2,2023-09-11T19:06:54.222Z,,0,,,NaN,,,,,,false,,,,124431.7000002861,124431.7000002861,,124431.59999990463,,124456.572,8,400,,,
sequence,flow.Sequence,4_14,2023-09-11T19:06:54.222Z,,0,,,5285.436000286107,completion,,,,,false,,,,124431.80000019073,124431.7000002861,119129.627,119144.7000002861,119146.264,124456.572,8,400,,,
trial,html.Screen,4_15_0,2023-09-11T19:06:58.421Z,,0,1,,4173.928,response,ISIC_0056406.JPG,4,ISIC_0031379.JPG,ISIC_0031379.JPG,false,0,keypress(z),500,128630.7000002861,128630.5,124439.823,124431.80000019073,124456.572,128648.087,8,400,16,,ISIC_0056406.JPG
break,html.Screen,4_15_1,2023-09-11T19:06:58.422Z,,0,,,NaN,,,,,,false,,,,128632.09999990463,128631.80000019073,,128631,,128648.087,8,400,,,
break_continue,html.Screen,4_15_2,2023-09-11T19:06:58.423Z,,0,,,NaN,,,,,,false,,,,128632.59999990463,128632.5,,128632.30000019073,,128648.087,8,400,,,
sequence,flow.Sequence,4_15,2023-09-11T19:06:58.423Z,,0,,,4175.928,completion,,,,,false,,,,128632.80000019073,128632.5,124439.823,124431.80000019073,124456.572,128648.087,8,400,,,
trial,html.Screen,4_16_0,2023-09-11T19:07:02.736Z,,0,1,,4296.113000286103,response,ISIC_4697037.JPG,6,ISIC_0012150.JPG,ISIC_4697037.JPG,false,1,keypress(m),500,132944.40000009537,132944.2000002861,128631.344,128633,128648.087,132956.447,8,400,17,,ISIC_0012150.JPG
break,html.Screen,4_16_1,2023-09-11T19:07:02.737Z,,0,,,NaN,,,,,,false,,,,132945.09999990463,132944.90000009537,,132944.59999990463,,132956.447,8,400,,,
break_continue,html.Screen,4_16_2,2023-09-11T19:07:02.737Z,,0,,,NaN,,,,,,false,,,,132945.40000009537,132945.30000019073,,132945.2000002861,,132956.447,8,400,,,
sequence,flow.Sequence,4_16,2023-09-11T19:07:02.737Z,,0,,,4297.213000190735,completion,,,,,false,,,,132945.5,132945.30000019073,128631.344,128633,128648.087,132956.447,8,400,,,
trial,html.Screen,4_17_0,2023-09-11T19:07:08.902Z,,0,1,,6154.053000000014,response,ISIC_4810485.JPG,6,ISIC_4794052.JPG,ISIC_4810485.JPG,false,1,keypress(m),500,139110.59999990463,139110.5,132939.752,132945.59999990463,132956.447,139118.446,8,400,18,,ISIC_4794052.JPG
break,html.Screen,4_17_1,2023-09-11T19:07:08.902Z,,0,,,NaN,,,,,,false,,,,139111,139110.90000009537,,139110.7000002861,,139118.446,8,400,,,
break_continue,html.Screen,4_17_2,2023-09-11T19:07:08.903Z,,0,,,NaN,,,,,,false,,,,139111.2000002861,139111.09999990463,,139111,,139118.446,8,400,,,
sequence,flow.Sequence,4_17,2023-09-11T19:07:08.903Z,,0,,,6154.652999904647,completion,,,,,false,,,,139111.2000002861,139111.09999990463,132939.752,132945.59999990463,132956.447,139118.446,8,400,,,
trial,html.Screen,4_18_0,2023-09-11T19:07:12.505Z,,0,1,,3594.8540001907386,response,ISIC_4582670.JPG,5,ISIC_7260977.JPG,ISIC_7260977.JPG,false,0,keypress(z),500,142713.30000019073,142713.30000019073,139101.701,139111.30000019073,139118.446,142725.525,8,400,19,,ISIC_4582670.JPG
break,html.Screen,4_18_1,2023-09-11T19:07:12.505Z,,0,,,NaN,,,,,,false,,,,142714,142713.80000019073,,142713.5,,142725.525,8,400,,,
break_continue,html.Screen,4_18_2,2023-09-11T19:07:12.506Z,,0,,,NaN,,,,,,false,,,,142714.30000019073,142714.30000019073,,142714.2000002861,,142725.525,8,400,,,
sequence,flow.Sequence,4_18,2023-09-11T19:07:12.506Z,,0,,,3595.8540001907386,completion,,,,,false,,,,142714.40000009537,142714.30000019073,139101.701,139111.2000002861,139118.446,142725.525,8,400,,,
trial,html.Screen,4_19_0,2023-09-11T19:07:17.211Z,,0,1,,4693.975000000006,response,ISIC_0025072.JPG,5,ISIC_0033044.JPG,ISIC_0033044.JPG,false,0,keypress(z),500,147419.59999990463,147419.5,142708.736,142714.40000009537,142725.525,147434.622,8,400,20,,ISIC_0025072.JPG
break,html.Screen,4_19_1,2023-09-11T19:07:17.212Z,,0,,,NaN,,,,,,false,,,,147420.09999990463,147420,,147419.7000002861,,147434.622,8,400,,,
break_continue,html.Screen,4_19_2,2023-09-11T19:07:17.212Z,,0,,,NaN,,,,,,false,,,,147420.30000019073,147420.30000019073,,147420.2000002861,,147434.622,8,400,,,
sequence,flow.Sequence,4_19,2023-09-11T19:07:17.212Z,,0,,,4694.775000190741,completion,,,,,false,,,,147420.40000009537,147420.30000019073,142708.736,142714.40000009537,142725.525,147434.622,8,400,,,
trial,html.Screen,4_20_0,2023-09-11T19:07:22.228Z,,0,1,,5002.078000286099,response,ISIC_3493866.JPG,6,ISIC_1102075.JPG,ISIC_1102075.JPG,false,0,keypress(z),500,152436.90000009537,152436.7000002861,147417.979,147420.5,147434.622,152444.398,8,400,21,,ISIC_3493866.JPG
break,html.Screen,4_20_1,2023-09-11T19:07:22.229Z,,0,,,NaN,,,,,,false,,,,152437.2000002861,152437.2000002861,,152436.90000009537,,152444.398,8,400,,,
break_continue,html.Screen,4_20_2,2023-09-11T19:07:22.229Z,,0,,,NaN,,,,,,false,,,,152437.40000009537,152437.40000009537,,152437.30000019073,,152444.398,8,400,,,
sequence,flow.Sequence,4_20,2023-09-11T19:07:22.229Z,,0,,,5002.778000095364,completion,,,,,false,,,,152437.59999990463,152437.40000009537,147417.979,147420.40000009537,147434.622,152444.398,8,400,,,
trial,html.Screen,4_21_0,2023-09-11T19:07:26.285Z,,0,1,,4048.6020000000135,response,ISIC_6673506.JPG,6,ISIC_0031377.JPG,ISIC_6673506.JPG,false,1,keypress(m),500,156493.2000002861,156493,152427.748,152437.59999990463,152444.398,156502.325,8,400,22,,ISIC_0031377.JPG
break,html.Screen,4_21_1,2023-09-11T19:07:26.286Z,,0,,,NaN,,,,,,false,,,,156494.59999990463,156494.30000019073,,156493.7000002861,,156502.325,8,400,,,
break_continue,html.Screen,4_21_2,2023-09-11T19:07:26.287Z,,0,,,NaN,,,,,,false,,,,156495.30000019073,156495.2000002861,,156494.90000009537,,156502.325,8,400,,,
sequence,flow.Sequence,4_21,2023-09-11T19:07:26.287Z,,0,,,4050.802000286116,completion,,,,,false,,,,156495.7000002861,156495.2000002861,152427.748,152437.59999990463,152444.398,156502.325,8,400,,,
trial,html.Screen,4_22_0,2023-09-11T19:07:32.042Z,,0,1,,5747.875000286091,response,ISIC_5415749.JPG,5,ISIC_8130596.JPG,ISIC_8130596.JPG,false,0,keypress(z),500,162250.30000019073,162250.2000002861,156485.543,156495.90000009537,156502.325,162263.511,8,400,23,,ISIC_5415749.JPG
break,html.Screen,4_22_1,2023-09-11T19:07:32.042Z,,0,,,NaN,,,,,,false,,,,162250.80000019073,162250.7000002861,,162250.40000009537,,162263.511,8,400,,,
break_continue,html.Screen,4_22_2,2023-09-11T19:07:32.042Z,,0,,,NaN,,,,,,false,,,,162251.09999990463,162250.90000009537,,162250.90000009537,,162263.511,8,400,,,
sequence,flow.Sequence,4_22,2023-09-11T19:07:32.043Z,,0,,,5748.575000095356,completion,,,,,false,,,,162251.09999990463,162250.90000009537,156485.543,156495.80000019073,156502.325,162263.511,8,400,,,
trial,html.Screen,4_23_0,2023-09-11T19:07:36.383Z,,0,1,,4328.189000286104,response,ISIC_3590167.JPG,5,ISIC_4654965.JPG,ISIC_3590167.JPG,false,1,keypress(m),500,166591.90000009537,166591.7000002861,162246.958,162251.2000002861,162263.511,166605.244,8,400,24,,ISIC_4654965.JPG
break,html.Screen,4_23_1,2023-09-11T19:07:36.384Z,,0,,,NaN,,,,,,false,,,,166592.30000019073,166592.30000019073,,166592,,166605.244,8,400,,,
break_continue,html.Screen,4_23_2,2023-09-11T19:07:36.384Z,,0,,,NaN,,,,,,false,,,,166592.5,166592.5,,166592.40000009537,,166605.244,8,400,,,
sequence,flow.Sequence,4_23,2023-09-11T19:07:36.384Z,,0,,,4328.989000000001,completion,,,,,false,,,,166592.59999990463,166592.5,162246.958,162251.09999990463,162263.511,166605.244,8,400,,,
trial,html.Screen,4_24_0,2023-09-11T19:07:40.403Z,,0,1,,4005.8559999046265,response,ISIC_9685931.JPG,5,ISIC_6442221.JPG,ISIC_9685931.JPG,false,1,keypress(m),500,170611.2000002861,170611.09999990463,166588.654,166592.7000002861,166605.244,170613.067,8,400,25,,ISIC_6442221.JPG
break,html.Screen,4_24_1,2023-09-11T19:07:40.403Z,,0,,,NaN,,,,,,false,,,,170611.59999990463,170611.5,,170611.30000019073,,170613.067,8,400,,,
break_continue,html.Screen,4_24_2,2023-09-11T19:07:40.403Z,,0,,,NaN,,,,,,false,,,,170611.7000002861,170611.7000002861,,170611.7000002861,,170613.067,8,400,,,
sequence,flow.Sequence,4_24,2023-09-11T19:07:40.403Z,,0,,,4006.4560002860962,completion,,,,,false,,,,170611.80000019073,170611.7000002861,166588.654,166592.7000002861,166605.244,170613.067,8,400,,,
trial,html.Screen,4_25_0,2023-09-11T19:07:44.837Z,,0,1,,4431.833000095357,response,ISIC_0033250.JPG,4,ISIC_5272345.JPG,ISIC_5272345.JPG,false,0,keypress(z),500,175045,175044.90000009537,170596.383,170611.90000009537,170613.067,175055.039,8,400,26,,ISIC_0033250.JPG
break,html.Screen,4_25_1,2023-09-11T19:07:44.837Z,,0,,,NaN,,,,,,false,,,,175046,175045.80000019073,,175045.30000019073,,175055.039,8,400,,,
break_continue,html.Screen,4_25_2,2023-09-11T19:07:44.838Z,,0,,,NaN,,,,,,false,,,,175046.5,175046.5,,175046.30000019073,,175055.039,8,400,,,
sequence,flow.Sequence,4_25,2023-09-11T19:07:44.838Z,,0,,,4433.43299999999,completion,,,,,false,,,,175046.80000019073,175046.5,170596.383,170611.90000009537,170613.067,175055.039,8,400,,,
trial,html.Screen,4_26_0,2023-09-11T19:07:48.557Z,,0,1,,3710.761000190745,response,ISIC_0027214.JPG,5,ISIC_0067167.JPG,ISIC_0027214.JPG,false,1,keypress(m),500,178766,178765.80000019073,175038.33,175046.90000009537,175055.039,178778.958,8,400,27,,ISIC_0067167.JPG
break,html.Screen,4_26_1,2023-09-11T19:07:48.558Z,,0,,,NaN,,,,,,false,,,,178766.30000019073,178766.30000019073,,178766,,178778.958,8,400,,,
break_continue,html.Screen,4_26_2,2023-09-11T19:07:48.558Z,,0,,,NaN,,,,,,false,,,,178766.59999990463,178766.5,,178766.40000009537,,178778.958,8,400,,,
sequence,flow.Sequence,4_26,2023-09-11T19:07:48.558Z,,0,,,3711.4610000000102,completion,,,,,false,,,,178766.59999990463,178766.5,175038.33,175046.90000009537,175055.039,178778.958,8,400,,,
trial,html.Screen,4_27_0,2023-09-11T19:07:54.368Z,,0,1,,5797.242000286089,response,ISIC_0012395.JPG,4,ISIC_0024227.JPG,ISIC_0024227.JPG,false,0,keypress(z),500,184576.40000009537,184576.2000002861,178762.389,178766.7000002861,178778.958,184590.26,8,400,28,,ISIC_0012395.JPG
break,html.Screen,4_27_1,2023-09-11T19:07:54.368Z,,0,,,NaN,,,,,,false,,,,184576.80000019073,184576.7000002861,,184576.5,,184590.26,8,400,,,
break_continue,html.Screen,4_27_2,2023-09-11T19:07:54.368Z,,0,,,NaN,,,,,,false,,,,184577,184576.90000009537,,184576.90000009537,,184590.26,8,400,,,
sequence,flow.Sequence,4_27,2023-09-11T19:07:54.368Z,,0,,,5797.942000095354,completion,,,,,false,,,,184577,184576.90000009537,178762.389,178766.7000002861,178778.958,184590.26,8,400,,,
trial,html.Screen,4_28_0,2023-09-11T19:07:58.387Z,,0,1,,4005.640000095358,response,ISIC_0056192.JPG,5,ISIC_0033981.JPG,ISIC_0033981.JPG,false,0,keypress(z),500,188596,188595.90000009537,184573.521,184577.09999990463,184590.26,188598.02,8,400,29,,ISIC_0056192.JPG
break,html.Screen,4_28_1,2023-09-11T19:07:58.388Z,,0,,,NaN,,,,,,false,,,,188596.59999990463,188596.5,,188596.2000002861,,188598.02,8,400,,,
break_continue,html.Screen,4_28_2,2023-09-11T19:07:58.388Z,,0,,,NaN,,,,,,false,,,,188596.80000019073,188596.7000002861,,188596.59999990463,,188598.02,8,400,,,
sequence,flow.Sequence,4_28,2023-09-11T19:07:58.388Z,,0,,,4006.440000286093,completion,,,,,false,,,,188596.90000009537,188596.7000002861,184573.521,184577.09999990463,184590.26,188598.02,8,400,,,
trial,html.Screen,4_29_0,2023-09-11T19:08:03.164Z,,0,1,,4773.880000095378,response,ISIC_0028929.JPG,6,ISIC_0029732.JPG,ISIC_0028929.JPG,false,1,keypress(m),500,193372,193371.90000009537,188581.328,188597,188598.02,193374,8,400,30,,ISIC_0029732.JPG
break,html.Screen,4_29_1,2023-09-11T19:08:03.164Z,,0,,,NaN,,,,,,false,,,,193372.59999990463,193372.40000009537,,193372.2000002861,,193374,8,400,,,
break_continue,html.Screen,4_29_2,2023-09-11T19:08:03.165Z,,0,,,NaN,,,,,,false,,,,193372.90000009537,193372.90000009537,,193372.7000002861,,193374,8,400,,,
sequence,flow.Sequence,4_29,2023-09-11T19:08:03.165Z,,0,,,4774.880000095378,completion,,,,,false,,,,193373.09999990463,193372.90000009537,188581.328,188597,188598.02,193374,8,400,,,
trial,html.Screen,4_30_0,2023-09-11T19:08:08.334Z,,0,1,,5168,response,ISIC_0010089.JPG,5,ISIC_4081632.JPG,ISIC_0010089.JPG,false,1,keypress(m),500,198542.2000002861,198542,193357.462,193373.09999990463,193374,198567.448,8,400,31,,ISIC_4081632.JPG
break,html.Screen,4_30_1,2023-09-11T19:08:08.335Z,,0,,,NaN,,,,,,false,,,,198542.80000019073,198542.7000002861,,198542.40000009537,,198567.448,8,400,,,
break_continue,html.Screen,4_30_2,2023-09-11T19:08:08.335Z,,0,,,NaN,,,,,,false,,,,198543.09999990463,198543,,198542.90000009537,,198567.448,8,400,,,
sequence,flow.Sequence,4_30,2023-09-11T19:08:08.335Z,,0,,,5169,completion,,,,,false,,,,198543.2000002861,198543,193357.462,193373.09999990463,193374,198567.448,8,400,,,
trial,html.Screen,4_31_0,2023-09-11T19:08:14.324Z,,0,1,,5964.752000286098,response,ISIC_9458746.JPG,5,ISIC_2833213.JPG,ISIC_2833213.JPG,false,0,keypress(z),500,204532.2000002861,204532.2000002861,198550.89,198543.2000002861,198567.448,204545.789,8,400,32,,ISIC_9458746.JPG
break,html.Screen,4_31_1,2023-09-11T19:08:14.325Z,,0,,,NaN,,,,,,false,,,,204532.80000019073,204532.59999990463,,204532.40000009537,,204545.789,8,400,,,
break_continue,html.Screen,4_31_2,2023-09-11T19:08:14.325Z,,0,,,NaN,,,,,,false,,,,204533.09999990463,204533,,204532.90000009537,,204545.789,8,400,,,
sequence,flow.Sequence,4_31,2023-09-11T19:08:14.325Z,,0,,,5965.551999999996,completion,,,,,false,,,,204533.2000002861,204533,198550.89,198543.2000002861,198567.448,204545.789,8,400,,,
trial,html.Screen,4_32_0,2023-09-11T19:08:18.839Z,,0,1,,4500.9110002861125,response,ISIC_0239178.JPG,5,ISIC_0011073.JPG,ISIC_0239178.JPG,false,1,keypress(m),500,209046.80000019073,209046.7000002861,204529.035,204533.30000019073,204545.789,209054.548,8,400,33,,ISIC_0011073.JPG
break,html.Screen,4_32_1,2023-09-11T19:08:18.839Z,,0,,,NaN,,,,,,false,,,,209047.59999990463,209047.30000019073,,209047,,209054.548,8,400,,,
break_continue,html.Screen,4_32_2,2023-09-11T19:08:18.840Z,,0,,,NaN,,,,,,false,,,,209047.90000009537,209047.80000019073,,209047.7000002861,,209054.548,8,400,,,
sequence,flow.Sequence,4_32,2023-09-11T19:08:18.840Z,,0,,,4502.011000190745,completion,,,,,false,,,,209047.90000009537,209047.80000019073,204529.035,204533.30000019073,204545.789,209054.548,8,400,,,
trial,html.Screen,4_33_0,2023-09-11T19:08:26.554Z,,0,1,,7707.551999904623,response,ISIC_2365588.JPG,5,ISIC_5218530.JPG,ISIC_2365588.JPG,false,1,keypress(m),500,216762.40000009537,216762.09999990463,209038.077,209048.09999990463,209054.548,216769.563,8,400,34,,ISIC_5218530.JPG
break,html.Screen,4_33_1,2023-09-11T19:08:26.556Z,,0,,,NaN,,,,,,false,,,,216764.2000002861,216763.7000002861,,216762.90000009537,,216769.563,8,400,,,
break_continue,html.Screen,4_33_2,2023-09-11T19:08:26.557Z,,0,,,NaN,,,,,,false,,,,216765.09999990463,216764.80000019073,,216764.40000009537,,216769.563,8,400,,,
sequence,flow.Sequence,4_33,2023-09-11T19:08:26.557Z,,0,,,7710.252000190725,completion,,,,,false,,,,216765.40000009537,216764.80000019073,209038.077,209048.09999990463,209054.548,216769.563,8,400,,,
trial,html.Screen,4_34_0,2023-09-11T19:08:33.157Z,,0,1,,6595.036999904638,response,ISIC_0071951.JPG,5,ISIC_0033787.JPG,ISIC_0071951.JPG,false,1,keypress(m),500,223364.59999990463,223364.59999990463,216752.856,216765.59999990463,216769.563,223365.702,8,400,35,,ISIC_0033787.JPG
break,html.Screen,4_34_1,2023-09-11T19:08:33.157Z,,0,,,NaN,,,,,,false,,,,223365,223364.90000009537,,223364.7000002861,,223365.702,8,400,,,
break_continue,html.Screen,4_34_2,2023-09-11T19:08:33.157Z,,0,,,NaN,,,,,,false,,,,223365.2000002861,223365.2000002861,,223365.09999990463,,223365.702,8,400,,,
sequence,flow.Sequence,4_34,2023-09-11T19:08:33.157Z,,0,,,6595.637000286108,completion,,,,,false,,,,223365.2000002861,223365.2000002861,216752.856,216765.59999990463,216769.563,223365.702,8,400,,,
trial,html.Screen,4_35_0,2023-09-11T19:08:39.558Z,,0,1,,6400.598000190745,response,ISIC_8509219.JPG,6,ISIC_3397174.JPG,ISIC_3397174.JPG,false,0,keypress(z),500,229766.5,229766.30000019073,223349.12,223365.40000009537,223365.702,229778.28,8,400,36,,ISIC_8509219.JPG
break,html.Screen,4_35_1,2023-09-11T19:08:39.559Z,,0,,,NaN,,,,,,false,,,,229767,229766.90000009537,,229766.59999990463,,229778.28,8,400,,,
break_continue,html.Screen,4_35_2,2023-09-11T19:08:39.559Z,,0,,,NaN,,,,,,false,,,,229767.2000002861,229767.09999990463,,229767,,229778.28,8,400,,,
sequence,flow.Sequence,4_35,2023-09-11T19:08:39.559Z,,0,,,6401.397999904642,completion,,,,,false,,,,229767.30000019073,229767.09999990463,223349.12,223365.40000009537,223365.702,229778.28,8,400,,,
trial,html.Screen,4_36_0,2023-09-11T19:08:46.299Z,,0,1,,6728.4200002861035,response,ISIC_0024310.JPG,5,ISIC_0030072.JPG,ISIC_0030072.JPG,false,0,keypress(z),500,236506.90000009537,236506.7000002861,229761.505,229767.5,229778.28,236508.011,8,400,37,,ISIC_0024310.JPG
break,html.Screen,4_36_1,2023-09-11T19:08:46.300Z,,0,,,NaN,,,,,,false,,,,236507.7000002861,236507.59999990463,,236507.09999990463,,236508.011,8,400,,,
break_continue,html.Screen,4_36_2,2023-09-11T19:08:46.300Z,,0,,,NaN,,,,,,false,,,,236508.2000002861,236508.09999990463,,236507.90000009537,,236508.011,8,400,,,
sequence,flow.Sequence,4_36,2023-09-11T19:08:46.300Z,,0,,,6729.819999904634,completion,,,,,false,,,,236508.40000009537,236508.09999990463,229761.505,229767.5,229778.28,236508.011,8,400,,,
trial,html.Screen,4_37_0,2023-09-11T19:08:50.627Z,,0,1,,4327.289000190736,response,ISIC_6446779.JPG,6,ISIC_0069189.JPG,ISIC_6446779.JPG,false,1,keypress(m),500,240835.40000009537,240835.30000019073,236491.279,236508.59999990463,236508.011,240849.776,8,400,38,,ISIC_0069189.JPG
break,html.Screen,4_37_1,2023-09-11T19:08:50.628Z,,0,,,NaN,,,,,,false,,,,240835.90000009537,240835.7000002861,,240835.5,,240849.776,8,400,,,
break_continue,html.Screen,4_37_2,2023-09-11T19:08:50.628Z,,0,,,NaN,,,,,,false,,,,240836.30000019073,240836.2000002861,,240836,,240849.776,8,400,,,
sequence,flow.Sequence,4_37,2023-09-11T19:08:50.628Z,,0,,,4328.189000286104,completion,,,,,false,,,,240836.30000019073,240836.2000002861,236491.279,236508.59999990463,236508.011,240849.776,8,400,,,
trial,html.Screen,4_38_0,2023-09-11T19:08:55.147Z,,0,1,,4505.524000190722,response,ISIC_1200689.JPG,4,ISIC_6469202.JPG,ISIC_1200689.JPG,false,1,keypress(m),500,245355.5,245355.30000019073,240833.204,240836.40000009537,240849.776,245358.515,8,400,39,,ISIC_6469202.JPG
break,html.Screen,4_38_1,2023-09-11T19:08:55.148Z,,0,,,NaN,,,,,,false,,,,245356,245355.90000009537,,245355.59999990463,,245358.515,8,400,,,
break_continue,html.Screen,4_38_2,2023-09-11T19:08:55.148Z,,0,,,NaN,,,,,,false,,,,245356.30000019073,245356.30000019073,,245356.2000002861,,245358.515,8,400,,,
sequence,flow.Sequence,4_38,2023-09-11T19:08:55.148Z,,0,,,4506.524000190722,completion,,,,,false,,,,245356.5,245356.30000019073,240833.204,240836.40000009537,240849.776,245358.515,8,400,,,
trial,html.Screen,4_39_0,2023-09-11T19:09:00.000Z,,0,1,,4847.285000190721,response,ISIC_0055412.JPG,5,ISIC_4850678.JPG,ISIC_4850678.JPG,false,0,keypress(z),500,250206,250205.80000019073,245341.814,245356.59999990463,245358.515,250217.947,8,400,40,,ISIC_0055412.JPG
break,html.Screen,4_39_1,2023-09-11T19:09:00.000Z,,0,,,NaN,,,,,,false,,,,250206.5,250206.30000019073,,250206.09999990463,,250217.947,8,400,,,
break_continue,html.Screen,4_39_2,2023-09-11T19:09:00.000Z,,0,,,NaN,,,,,,false,,,,250206.7000002861,250206.59999990463,,250206.59999990463,,250217.947,8,400,,,
sequence,flow.Sequence,4_39,2023-09-11T19:09:00.001Z,,0,,,4848.084999904619,completion,,,,,false,,,,250206.80000019073,250206.59999990463,245341.814,245356.5,245358.515,250217.947,8,400,,,
trial,html.Screen,4_40_0,2023-09-11T19:09:06.018Z,,0,1,,6006.453000095382,response,ISIC_0010664.JPG,5,ISIC_1684127.JPG,ISIC_1684127.JPG,false,0,keypress(z),500,256224.59999990463,256224.40000009537,250201.339,250206.90000009537,250217.947,256229.645,8,400,41,,ISIC_0010664.JPG
break,html.Screen,4_40_1,2023-09-11T19:09:06.019Z,,0,,,NaN,,,,,,false,,,,256225.09999990463,256224.90000009537,,256224.59999990463,,256229.645,8,400,,,
break_continue,html.Screen,4_40_2,2023-09-11T19:09:06.019Z,,0,,,NaN,,,,,,false,,,,256225.5,256225.40000009537,,256225.30000019073,,256229.645,8,400,,,
sequence,flow.Sequence,4_40,2023-09-11T19:09:06.019Z,,0,,,6007.453000095382,completion,,,,,false,,,,256225.5,256225.40000009537,250201.339,250206.90000009537,250217.947,256229.645,8,400,,,
trial,html.Screen,4_41_0,2023-09-11T19:09:13.429Z,,0,1,,7404.954999904643,response,ISIC_0030404.JPG,5,ISIC_0779920.JPG,ISIC_0779920.JPG,false,0,keypress(z),500,263634.80000019073,263634.59999990463,256213.037,256225.59999990463,256229.645,263660.887,8,400,42,,ISIC_0030404.JPG
break,html.Screen,4_41_1,2023-09-11T19:09:13.429Z,,0,,,NaN,,,,,,false,,,,263635.40000009537,263635.30000019073,,263634.90000009537,,263660.887,8,400,,,
break_continue,html.Screen,4_41_2,2023-09-11T19:09:13.429Z,,0,,,NaN,,,,,,false,,,,263635.7000002861,263635.59999990463,,263635.5,,263660.887,8,400,,,
sequence,flow.Sequence,4_41,2023-09-11T19:09:13.429Z,,0,,,7405.954999904643,completion,,,,,false,,,,263635.80000019073,263635.59999990463,256213.037,256225.59999990463,256229.645,263660.887,8,400,,,
trial,html.Screen,4_42_0,2023-09-11T19:09:19.048Z,,0,1,,5593.212999904645,response,ISIC_7349772.JPG,4,ISIC_3942075.JPG,ISIC_3942075.JPG,false,0,keypress(z),500,269254.2000002861,269254.09999990463,263644.141,263635.80000019073,263660.887,269255.025,8,400,43,,ISIC_7349772.JPG
break,html.Screen,4_42_1,2023-09-11T19:09:19.049Z,,0,,,NaN,,,,,,false,,,,269254.90000009537,269254.7000002861,,269254.40000009537,,269255.025,8,400,,,
break_continue,html.Screen,4_42_2,2023-09-11T19:09:19.049Z,,0,,,NaN,,,,,,false,,,,269255.40000009537,269255.30000019073,,269255.09999990463,,269255.025,8,400,,,
sequence,flow.Sequence,4_42,2023-09-11T19:09:19.049Z,,0,,,5594.413000190747,completion,,,,,false,,,,269255.5,269255.30000019073,263644.141,263635.80000019073,263660.887,269255.025,8,400,,,
trial,html.Screen,4_43_0,2023-09-11T19:09:22.978Z,,0,1,,3928.9749999999767,response,ISIC_0000174.JPG,4,ISIC_4544879.JPG,ISIC_4544879.JPG,false,0,keypress(z),500,273184.09999990463,273184,269238.444,269255.59999990463,269255.025,273195.98,8,400,44,,ISIC_0000174.JPG
break,html.Screen,4_43_1,2023-09-11T19:09:22.979Z,,0,,,NaN,,,,,,false,,,,273185,273184.7000002861,,273184.40000009537,,273195.98,8,400,,,
break_continue,html.Screen,4_43_2,2023-09-11T19:09:22.979Z,,0,,,NaN,,,,,,false,,,,273185.5,273185.40000009537,,273185.2000002861,,273195.98,8,400,,,
sequence,flow.Sequence,4_43,2023-09-11T19:09:22.979Z,,0,,,3930.375000095344,completion,,,,,false,,,,273185.59999990463,273185.40000009537,269238.444,269255.5,269255.025,273195.98,8,400,,,
trial,html.Screen,4_44_0,2023-09-11T19:09:27.078Z,,0,1,,4088.420000095386,response,ISIC_0033681.JPG,6,ISIC_8917755.JPG,ISIC_0033681.JPG,false,1,keypress(m),500,277284.7000002861,277284.40000009537,273179.326,273185.80000019073,273195.98,277287.49,8,400,45,,ISIC_8917755.JPG
break,html.Screen,4_44_1,2023-09-11T19:09:27.080Z,,0,,,NaN,,,,,,false,,,,277286,277285.59999990463,,277285.09999990463,,277287.49,8,400,,,
break_continue,html.Screen,4_44_2,2023-09-11T19:09:27.080Z,,0,,,NaN,,,,,,false,,,,277286.7000002861,277286.5,,277286.2000002861,,277287.49,8,400,,,
sequence,flow.Sequence,4_44,2023-09-11T19:09:27.081Z,,0,,,4090.5200000000186,completion,,,,,false,,,,277287,277286.5,273179.326,273185.7000002861,273195.98,277287.49,8,400,,,
trial,html.Screen,4_45_0,2023-09-11T19:09:30.608Z,,0,1,,3526.5100000000093,response,ISIC_6961503.JPG,5,ISIC_9874512.JPG,ISIC_9874512.JPG,false,0,keypress(z),500,280814.30000019073,280814,277270.658,277287.09999990463,277287.49,280827.597,8,400,46,,ISIC_6961503.JPG
break,html.Screen,4_45_1,2023-09-11T19:09:30.609Z,,0,,,NaN,,,,,,false,,,,280815.2000002861,280815,,280814.59999990463,,280827.597,8,400,,,
break_continue,html.Screen,4_45_2,2023-09-11T19:09:30.609Z,,0,,,NaN,,,,,,false,,,,280815.7000002861,280815.59999990463,,280815.30000019073,,280827.597,8,400,,,
sequence,flow.Sequence,4_45,2023-09-11T19:09:30.610Z,,0,,,3528.109999904642,completion,,,,,false,,,,280815.90000009537,280815.59999990463,277270.658,277287.09999990463,277287.49,280827.597,8,400,,,
trial,html.Screen,4_46_0,2023-09-11T19:09:33.796Z,,0,1,,3174.8030000953586,response,ISIC_0062914.JPG,5,ISIC_2784686.JPG,ISIC_2784686.JPG,false,0,keypress(z),500,284002.5,284002.40000009537,280810.821,280816.09999990463,280827.597,284017.071,8,400,47,,ISIC_0062914.JPG
break,html.Screen,4_46_1,2023-09-11T19:09:33.797Z,,0,,,NaN,,,,,,false,,,,284003.30000019073,284003.09999990463,,284002.7000002861,,284017.071,8,400,,,
break_continue,html.Screen,4_46_2,2023-09-11T19:09:33.797Z,,0,,,NaN,,,,,,false,,,,284003.7000002861,284003.5,,284003.40000009537,,284017.071,8,400,,,
sequence,flow.Sequence,4_46,2023-09-11T19:09:33.797Z,,0,,,3175.902999999991,completion,,,,,false,,,,284003.80000019073,284003.5,280810.821,280816,280827.597,284017.071,8,400,,,
trial,html.Screen,4_47_0,2023-09-11T19:09:39.256Z,,0,1,,5445.028999904636,response,ISIC_5709878.JPG,5,ISIC_0032596.JPG,ISIC_5709878.JPG,false,1,keypress(m),500,289462.30000019073,289462.09999990463,284000.505,284003.80000019073,284017.071,289477.705,8,400,48,,ISIC_0032596.JPG
break,html.Screen,4_47_1,2023-09-11T19:09:39.257Z,,0,,,NaN,,,,,,false,,,,289462.80000019073,289462.7000002861,,289462.5,,289477.705,8,400,,,
break_continue,html.Screen,4_47_2,2023-09-11T19:09:39.257Z,,0,,,NaN,,,,,,false,,,,289463.09999990463,289463.09999990463,,289463,,289477.705,8,400,,,
sequence,flow.Sequence,4_47,2023-09-11T19:09:39.257Z,,0,,,5446.028999904636,completion,,,,,false,,,,289463.2000002861,289463.09999990463,284000.505,284003.80000019073,284017.071,289477.705,8,400,,,
trial,html.Screen,4_48_0,2023-09-11T19:09:44.610Z,,0,1,,5338.794999999984,response,ISIC_0054364.JPG,5,ISIC_3571523.JPG,ISIC_3571523.JPG,false,0,keypress(z),500,294816.7000002861,294816.5,289460.97,289463.30000019073,289477.705,294821.448,8,400,49,,ISIC_0054364.JPG
break,html.Screen,4_48_1,2023-09-11T19:09:44.612Z,,0,,,NaN,,,,,,false,,,,294817.80000019073,294817.59999990463,,294817,,294821.448,8,400,,,
break_continue,html.Screen,4_48_2,2023-09-11T19:09:44.612Z,,0,,,NaN,,,,,,false,,,,294818.30000019073,294818.2000002861,,294817.90000009537,,294821.448,8,400,,,
sequence,flow.Sequence,4_48,2023-09-11T19:09:44.612Z,,0,,,5340.495000286086,completion,,,,,false,,,,294818.5,294818.2000002861,289460.97,289463.30000019073,289477.705,294821.448,8,400,,,
trial,html.Screen,4_49_0,2023-09-11T19:09:51.174Z,,0,1,,6559.151999904658,response,ISIC_3343475.JPG,5,ISIC_0062991.JPG,ISIC_0062991.JPG,false,0,keypress(z),500,301380.7000002861,301380.59999990463,294804.883,294818.7000002861,294821.448,301384.265,8,400,50,,ISIC_3343475.JPG
break,html.Screen,4_49_1,2023-09-11T19:10:01.166Z,,0,,,10002.812999999966,timeout,,,,,false,,,,311371.59999990463,311370.511,301367.659,301380.80000019073,301384.265,311387.078,8,400,,,
break_continue,html.Screen,4_49_2,2023-09-11T19:10:01.741Z,,0,,,555.6220002861228,response,,,,,false,continue,keypress(Space),,311946.7000002861,311942.7000002861,311370.511,311371.80000019073,311387.078,311971.572,8,400,,,
sequence,flow.Sequence,4_49,2023-09-11T19:10:01.741Z,,0,,,17121.252000286127,completion,,,,,false,,,,311946.80000019073,311942.7000002861,294804.883,294818.7000002861,294821.448,311971.572,8,400,,,
trial,html.Screen,4_50_0,2023-09-11T19:10:05.248Z,,0,2,,3482.027999904647,response,ISIC_0012681.JPG,6,ISIC_7558912.JPG,ISIC_7558912.JPG,false,0,keypress(z),500,315453.80000019073,315453.59999990463,311954.986,311946.80000019073,311971.572,315461.578,8,400,1,,ISIC_0012681.JPG
break,html.Screen,4_50_1,2023-09-11T19:10:05.249Z,,0,,,NaN,,,,,,false,,,,315454.90000009537,315454.7000002861,,315454,,315461.578,8,400,,,
break_continue,html.Screen,4_50_2,2023-09-11T19:10:05.250Z,,0,,,NaN,,,,,,false,,,,315455.5,315455.30000019073,,315455.09999990463,,315461.578,8,400,,,
sequence,flow.Sequence,4_50,2023-09-11T19:10:05.250Z,,0,,,3483.7280001907493,completion,,,,,false,,,,315455.59999990463,315455.30000019073,311954.986,311946.80000019073,311971.572,315461.578,8,400,,,
trial,html.Screen,4_51_0,2023-09-11T19:10:12.324Z,,0,2,,7068.021999904653,response,ISIC_0001110.JPG,5,ISIC_2310935.JPG,ISIC_2310935.JPG,false,0,keypress(z),500,322529.7000002861,322529.59999990463,315445.016,315455.80000019073,315461.578,322542.034,8,400,2,,ISIC_0001110.JPG
break,html.Screen,4_51_1,2023-09-11T19:10:12.324Z,,0,,,NaN,,,,,,false,,,,322530.2000002861,322530.09999990463,,322529.80000019073,,322542.034,8,400,,,
break_continue,html.Screen,4_51_2,2023-09-11T19:10:12.324Z,,0,,,NaN,,,,,,false,,,,322530.30000019073,322530.30000019073,,322530.2000002861,,322542.034,8,400,,,
sequence,flow.Sequence,4_51,2023-09-11T19:10:12.324Z,,0,,,7068.722000190755,completion,,,,,false,,,,322530.40000009537,322530.30000019073,315445.016,315455.80000019073,315461.578,322542.034,8,400,,,
trial,html.Screen,4_52_0,2023-09-11T19:10:16.518Z,,0,2,,4182.0659999046475,response,ISIC_0031494.JPG,5,ISIC_5323725.JPG,ISIC_5323725.JPG,false,0,keypress(z),500,326724.2000002861,326724.09999990463,322525.336,322530.5,322542.034,326733.546,8,400,3,,ISIC_0031494.JPG
break,html.Screen,4_52_1,2023-09-11T19:10:16.519Z,,0,,,NaN,,,,,,false,,,,326725.09999990463,326724.90000009537,,326724.40000009537,,326733.546,8,400,,,
break_continue,html.Screen,4_52_2,2023-09-11T19:10:16.520Z,,0,,,NaN,,,,,,false,,,,326725.59999990463,326725.40000009537,,326725.2000002861,,326733.546,8,400,,,
sequence,flow.Sequence,4_52,2023-09-11T19:10:16.520Z,,0,,,4183.366000095382,completion,,,,,false,,,,326725.7000002861,326725.40000009537,322525.336,322530.5,322542.034,326733.546,8,400,,,
trial,html.Screen,4_53_0,2023-09-11T19:10:20.890Z,,0,2,,4362.754000190762,response,ISIC_9308275.JPG,4,ISIC_0014469.JPG,ISIC_0014469.JPG,false,0,keypress(z),500,331096.40000009537,331096.30000019073,326716.811,326725.80000019073,326733.546,331108.705,8,400,4,,ISIC_9308275.JPG
break,html.Screen,4_53_1,2023-09-11T19:10:20.891Z,,0,,,NaN,,,,,,false,,,,331096.80000019073,331096.7000002861,,331096.5,,331108.705,8,400,,,
break_continue,html.Screen,4_53_2,2023-09-11T19:10:20.891Z,,0,,,NaN,,,,,,false,,,,331096.90000009537,331096.90000009537,,331096.90000009537,,331108.705,8,400,,,
sequence,flow.Sequence,4_53,2023-09-11T19:10:20.891Z,,0,,,4363.354000095394,completion,,,,,false,,,,331097.09999990463,331096.90000009537,326716.811,326725.80000019073,326733.546,331108.705,8,400,,,
trial,html.Screen,4_54_0,2023-09-11T19:10:25.357Z,,0,2,,4453.794999999984,response,ISIC_0030150.JPG,5,ISIC_0015193.JPG,ISIC_0030150.JPG,false,1,keypress(m),500,335562.59999990463,335562.5,331092.099,331097.2000002861,331108.705,335567.467,8,400,5,,ISIC_0015193.JPG
break,html.Screen,4_54_1,2023-09-11T19:10:25.357Z,,0,,,NaN,,,,,,false,,,,335563.09999990463,335563,,335562.7000002861,,335567.467,8,400,,,
break_continue,html.Screen,4_54_2,2023-09-11T19:10:25.357Z,,0,,,NaN,,,,,,false,,,,335563.2000002861,335563.2000002861,,335563.09999990463,,335567.467,8,400,,,
sequence,flow.Sequence,4_54,2023-09-11T19:10:25.357Z,,0,,,4454.495000286086,completion,,,,,false,,,,335563.30000019073,335563.2000002861,331092.099,331097.09999990463,331108.705,335567.467,8,400,,,
trial,html.Screen,4_55_0,2023-09-11T19:10:29.408Z,,0,2,,4046.233000286098,response,ISIC_0765584.JPG,5,ISIC_3198111.JPG,ISIC_0765584.JPG,false,1,keypress(m),500,339613.90000009537,339613.7000002861,335550.804,335563.40000009537,335567.467,339642.043,8,400,6,,ISIC_3198111.JPG
break,html.Screen,4_55_1,2023-09-11T19:10:29.409Z,,0,,,NaN,,,,,,false,,,,339614.59999990463,339614.5,,339614.09999990463,,339642.043,8,400,,,
break_continue,html.Screen,4_55_2,2023-09-11T19:10:29.409Z,,0,,,NaN,,,,,,false,,,,339614.90000009537,339614.90000009537,,339614.80000019073,,339642.043,8,400,,,
sequence,flow.Sequence,4_55,2023-09-11T19:10:29.409Z,,0,,,4047.4330000953632,completion,,,,,false,,,,339615,339614.90000009537,335550.804,335563.40000009537,335567.467,339642.043,8,400,,,
trial,html.Screen,4_56_0,2023-09-11T19:10:34.770Z,,0,2,,5333.75700019073,response,ISIC_0033574.JPG,5,ISIC_0274382.JPG,ISIC_0033574.JPG,false,1,keypress(m),500,344975.90000009537,344975.80000019073,339625.366,339615,339642.043,344985.728,8,400,7,,ISIC_0274382.JPG
break,html.Screen,4_56_1,2023-09-11T19:10:34.771Z,,0,,,NaN,,,,,,false,,,,344976.59999990463,344976.30000019073,,344976.09999990463,,344985.728,8,400,,,
break_continue,html.Screen,4_56_2,2023-09-11T19:10:34.771Z,,0,,,NaN,,,,,,false,,,,344976.90000009537,344976.80000019073,,344976.7000002861,,344985.728,8,400,,,
sequence,flow.Sequence,4_56,2023-09-11T19:10:34.771Z,,0,,,5334.75700019073,completion,,,,,false,,,,344977,344976.80000019073,339625.366,339615,339642.043,344985.728,8,400,,,
trial,html.Screen,4_57_0,2023-09-11T19:10:41.076Z,,0,2,,6296.37199990463,response,ISIC_8607090.JPG,5,ISIC_0026909.JPG,ISIC_8607090.JPG,false,1,keypress(m),500,351282.30000019073,351282.09999990463,344969.106,344977.09999990463,344985.728,351298.006,8,400,8,,ISIC_0026909.JPG
break,html.Screen,4_57_1,2023-09-11T19:10:41.077Z,,0,,,NaN,,,,,,false,,,,351282.90000009537,351282.7000002861,,351282.40000009537,,351298.006,8,400,,,
break_continue,html.Screen,4_57_2,2023-09-11T19:10:41.077Z,,0,,,NaN,,,,,,false,,,,351283.2000002861,351283.09999990463,,351283,,351298.006,8,400,,,
sequence,flow.Sequence,4_57,2023-09-11T19:10:41.077Z,,0,,,6297.37199990463,completion,,,,,false,,,,351283.30000019073,351283.09999990463,344969.106,344977,344985.728,351298.006,8,400,,,
trial,html.Screen,4_58_0,2023-09-11T19:10:46.461Z,,0,2,,5368.794000190741,response,ISIC_0011753.JPG,5,ISIC_7530414.JPG,ISIC_7530414.JPG,false,0,keypress(z),500,356667,356666.80000019073,351281.276,351283.40000009537,351298.006,356675.181,8,400,9,,ISIC_0011753.JPG
break,html.Screen,4_58_1,2023-09-11T19:10:46.462Z,,0,,,NaN,,,,,,false,,,,356667.5,356667.40000009537,,356667.09999990463,,356675.181,8,400,,,
break_continue,html.Screen,4_58_2,2023-09-11T19:10:46.462Z,,0,,,NaN,,,,,,false,,,,356667.7000002861,356667.7000002861,,356667.59999990463,,356675.181,8,400,,,
sequence,flow.Sequence,4_58,2023-09-11T19:10:46.462Z,,0,,,5369.694000286108,completion,,,,,false,,,,356667.80000019073,356667.7000002861,351281.276,351283.40000009537,351298.006,356675.181,8,400,,,
trial,html.Screen,4_59_0,2023-09-11T19:10:52.597Z,,0,2,,6127.619000190753,response,ISIC_5495413.JPG,6,ISIC_7299650.JPG,ISIC_7299650.JPG,false,0,keypress(z),500,362803.2000002861,362802.80000019073,356658.435,356667.90000009537,356675.181,362820.403,8,400,10,,ISIC_5495413.JPG
break,html.Screen,4_59_1,2023-09-11T19:10:52.598Z,,0,,,NaN,,,,,,false,,,,362804.30000019073,362803.90000009537,,362803.30000019073,,362820.403,8,400,,,
break_continue,html.Screen,4_59_2,2023-09-11T19:10:52.599Z,,0,,,NaN,,,,,,false,,,,362804.90000009537,362804.80000019073,,362804.5,,362820.403,8,400,,,
sequence,flow.Sequence,4_59,2023-09-11T19:10:52.599Z,,0,,,6129.619000190753,completion,,,,,false,,,,362805.09999990463,362804.80000019073,356658.435,356667.90000009537,356675.181,362820.403,8,400,,,
trial,html.Screen,4_60_0,2023-09-11T19:10:58.185Z,,0,2,,5570.696999904641,response,ISIC_1440063.JPG,5,ISIC_4930632.JPG,ISIC_4930632.JPG,false,0,keypress(z),500,368391.40000009537,368391.09999990463,362787.197,362805.2000002861,362820.403,368397.989,8,400,11,,ISIC_1440063.JPG
break,html.Screen,4_60_1,2023-09-11T19:10:58.187Z,,0,,,NaN,,,,,,false,,,,368393.30000019073,368392.7000002861,,368391.80000019073,,368397.989,8,400,,,
break_continue,html.Screen,4_60_2,2023-09-11T19:10:58.188Z,,0,,,NaN,,,,,,false,,,,368394.2000002861,368394,,368393.59999990463,,368397.989,8,400,,,
sequence,flow.Sequence,4_60,2023-09-11T19:10:58.189Z,,0,,,5573.597000000009,completion,,,,,false,,,,368394.5,368394,362787.197,362805.2000002861,362820.403,368397.989,8,400,,,
trial,html.Screen,4_61_0,2023-09-11T19:11:04.371Z,,0,2,,6176.211000286101,response,ISIC_1515947.JPG,5,ISIC_4951213.JPG,ISIC_4951213.JPG,false,0,keypress(z),500,374574.40000009537,374574.2000002861,368381.353,368394.80000019073,368397.989,374576.678,8,400,12,,ISIC_1515947.JPG
break,html.Screen,4_61_1,2023-09-11T19:11:04.372Z,,0,,,NaN,,,,,,false,,,,374575.40000009537,374575.09999990463,,374574.59999990463,,374576.678,8,400,,,
break_continue,html.Screen,4_61_2,2023-09-11T19:11:04.372Z,,0,,,NaN,,,,,,false,,,,374575.80000019073,374575.7000002861,,374575.59999990463,,374576.678,8,400,,,
sequence,flow.Sequence,4_61,2023-09-11T19:11:04.372Z,,0,,,6177.711000286101,completion,,,,,false,,,,374576,374575.7000002861,368381.353,368394.7000002861,368397.989,374576.678,8,400,,,
trial,html.Screen,4_62_0,2023-09-11T19:11:08.570Z,,0,2,,4197.321999999986,response,ISIC_2489504.JPG,6,ISIC_0072353.JPG,ISIC_2489504.JPG,false,1,keypress(m),500,378774.30000019073,378774,374559.947,374576.09999990463,374576.678,378784.898,8,400,13,,ISIC_0072353.JPG
break,html.Screen,4_62_1,2023-09-11T19:11:08.572Z,,0,,,NaN,,,,,,false,,,,378775.59999990463,378775.2000002861,,378774.59999990463,,378784.898,8,400,,,
break_continue,html.Screen,4_62_2,2023-09-11T19:11:08.572Z,,0,,,NaN,,,,,,false,,,,378776.30000019073,378776.09999990463,,378775.80000019073,,378784.898,8,400,,,
sequence,flow.Sequence,4_62,2023-09-11T19:11:08.573Z,,0,,,4199.421999904618,completion,,,,,false,,,,378776.5,378776.09999990463,374559.947,374576.09999990463,374576.678,378784.898,8,400,,,
trial,html.Screen,4_63_0,2023-09-11T19:11:13.376Z,,0,2,,4795.201999904646,response,ISIC_4026808.JPG,5,ISIC_0011789.JPG,ISIC_4026808.JPG,false,1,keypress(m),500,383580.2000002861,383580.09999990463,378768.136,378776.80000019073,378784.898,383594.191,8,400,14,,ISIC_0011789.JPG
break,html.Screen,4_63_1,2023-09-11T19:11:13.377Z,,0,,,NaN,,,,,,false,,,,383580.80000019073,383580.7000002861,,383580.40000009537,,383594.191,8,400,,,
break_continue,html.Screen,4_63_2,2023-09-11T19:11:13.377Z,,0,,,NaN,,,,,,false,,,,383581.2000002861,383581.09999990463,,383580.90000009537,,383594.191,8,400,,,
sequence,flow.Sequence,4_63,2023-09-11T19:11:13.377Z,,0,,,4796.201999904646,completion,,,,,false,,,,383581.30000019073,383581.09999990463,378768.136,378776.7000002861,378784.898,383594.191,8,400,,,
trial,html.Screen,4_64_0,2023-09-11T19:11:18.502Z,,0,2,,5111.408999904641,response,ISIC_4580926.JPG,5,ISIC_6529073.JPG,ISIC_4580926.JPG,false,1,keypress(m),500,388705.59999990463,388705.59999990463,383577.486,383581.5,383594.191,388720.882,8,400,15,,ISIC_6529073.JPG
break,html.Screen,4_64_1,2023-09-11T19:11:18.502Z,,0,,,NaN,,,,,,false,,,,388706.2000002861,388706,,388705.7000002861,,388720.882,8,400,,,
break_continue,html.Screen,4_64_2,2023-09-11T19:11:18.503Z,,0,,,NaN,,,,,,false,,,,388706.40000009537,388706.30000019073,,388706.2000002861,,388720.882,8,400,,,
sequence,flow.Sequence,4_64,2023-09-11T19:11:18.503Z,,0,,,5112.109000190743,completion,,,,,false,,,,388706.5,388706.30000019073,383577.486,383581.5,383594.191,388720.882,8,400,,,
trial,html.Screen,4_65_0,2023-09-11T19:11:25.192Z,,0,2,,6674.618000000017,response,ISIC_6180870.JPG,5,ISIC_9241599.JPG,ISIC_6180870.JPG,false,1,keypress(m),500,395395.7000002861,395395.5,388704.114,388706.59999990463,388720.882,395400.513,8,400,16,,ISIC_9241599.JPG
break,html.Screen,4_65_1,2023-09-11T19:11:25.193Z,,0,,,NaN,,,,,,false,,,,395396.5,395396.30000019073,,395395.90000009537,,395400.513,8,400,,,
break_continue,html.Screen,4_65_2,2023-09-11T19:11:25.193Z,,0,,,NaN,,,,,,false,,,,395396.80000019073,395396.80000019073,,395396.7000002861,,395400.513,8,400,,,
sequence,flow.Sequence,4_65,2023-09-11T19:11:25.193Z,,0,,,6675.918000190752,completion,,,,,false,,,,395396.90000009537,395396.80000019073,388704.114,388706.5,388720.882,395400.513,8,400,,,
trial,html.Screen,4_66_0,2023-09-11T19:11:29.891Z,,0,2,,4694.287000190758,response,ISIC_0897248.JPG,5,ISIC_5791954.JPG,ISIC_0897248.JPG,false,1,keypress(m),500,400095,400094.80000019073,395383.783,395397.09999990463,395400.513,400109.625,8,400,17,,ISIC_5791954.JPG
break,html.Screen,4_66_1,2023-09-11T19:11:29.892Z,,0,,,NaN,,,,,,false,,,,400095.5,400095.40000009537,,400095.09999990463,,400109.625,8,400,,,
break_continue,html.Screen,4_66_2,2023-09-11T19:11:29.892Z,,0,,,NaN,,,,,,false,,,,400095.80000019073,400095.7000002861,,400095.59999990463,,400109.625,8,400,,,
sequence,flow.Sequence,4_66,2023-09-11T19:11:29.892Z,,0,,,4695.187000286125,completion,,,,,false,,,,400096,400095.7000002861,395383.783,395397,395400.513,400109.625,8,400,,,
trial,html.Screen,4_67_0,2023-09-11T19:11:33.622Z,,0,2,,3716.175000190735,response,ISIC_7235128.JPG,5,ISIC_0069274.JPG,ISIC_7235128.JPG,false,1,keypress(m),500,403826,403825.80000019073,400092.938,400096,400109.625,403833.539,8,400,18,,ISIC_0069274.JPG
break,html.Screen,4_67_1,2023-09-11T19:11:33.623Z,,0,,,NaN,,,,,,false,,,,403826.5,403826.30000019073,,403826.09999990463,,403833.539,8,400,,,
break_continue,html.Screen,4_67_2,2023-09-11T19:11:33.623Z,,0,,,NaN,,,,,,false,,,,403826.7000002861,403826.59999990463,,403826.59999990463,,403833.539,8,400,,,
sequence,flow.Sequence,4_67,2023-09-11T19:11:33.623Z,,0,,,3716.9749999046326,completion,,,,,false,,,,403826.80000019073,403826.59999990463,400092.938,400096,400109.625,403833.539,8,400,,,
trial,html.Screen,4_68_0,2023-09-11T19:11:41.360Z,,0,2,,7730.060999904643,response,ISIC_2134975.JPG,5,ISIC_2797576.JPG,ISIC_2797576.JPG,false,0,keypress(z),500,411563.7000002861,411563.59999990463,403816.898,403826.80000019073,403833.539,411565.296,8,400,19,,ISIC_2134975.JPG
break,html.Screen,4_68_1,2023-09-11T19:11:41.360Z,,0,,,NaN,,,,,,false,,,,411564,411563.90000009537,,411563.7000002861,,411565.296,8,400,,,
break_continue,html.Screen,4_68_2,2023-09-11T19:11:41.360Z,,0,,,NaN,,,,,,false,,,,411564.2000002861,411564.2000002861,,411564,,411565.296,8,400,,,
sequence,flow.Sequence,4_68,2023-09-11T19:11:41.360Z,,0,,,7730.6610002861125,completion,,,,,false,,,,411564.2000002861,411564.2000002861,403816.898,403826.80000019073,403833.539,411565.296,8,400,,,
trial,html.Screen,4_69_0,2023-09-11T19:11:47.077Z,,0,2,,5715.704000000027,response,ISIC_5879789.JPG,5,ISIC_2057184.JPG,ISIC_2057184.JPG,false,0,keypress(z),500,417281.2000002861,417281,411548.75,411564.30000019073,411565.296,417293.126,8,400,20,,ISIC_5879789.JPG
break,html.Screen,4_69_1,2023-09-11T19:11:47.078Z,,0,,,NaN,,,,,,false,,,,417282.40000009537,417282.09999990463,,417281.59999990463,,417293.126,8,400,,,
break_continue,html.Screen,4_69_2,2023-09-11T19:11:47.079Z,,0,,,NaN,,,,,,false,,,,417283,417282.80000019073,,417282.5,,417293.126,8,400,,,
sequence,flow.Sequence,4_69,2023-09-11T19:11:47.079Z,,0,,,5717.504000190762,completion,,,,,false,,,,417283.2000002861,417282.80000019073,411548.75,411564.30000019073,411565.296,417293.126,8,400,,,
trial,html.Screen,4_70_0,2023-09-11T19:11:51.689Z,,0,2,,4600.074000286113,response,ISIC_1838888.JPG,5,ISIC_0011668.JPG,ISIC_1838888.JPG,false,1,keypress(m),500,421893.30000019073,421893.2000002861,417276.422,417283.5,417293.126,421902.1,8,400,21,,ISIC_0011668.JPG
break,html.Screen,4_70_1,2023-09-11T19:11:51.690Z,,0,,,NaN,,,,,,false,,,,421893.90000009537,421893.7000002861,,421893.5,,421902.1,8,400,,,
break_continue,html.Screen,4_70_2,2023-09-11T19:11:51.690Z,,0,,,NaN,,,,,,false,,,,421894.2000002861,421894.09999990463,,421894,,421902.1,8,400,,,
sequence,flow.Sequence,4_70,2023-09-11T19:11:51.690Z,,0,,,4600.973999904643,completion,,,,,false,,,,421894.30000019073,421894.09999990463,417276.422,417283.40000009537,417293.126,421902.1,8,400,,,
trial,html.Screen,4_71_0,2023-09-11T19:11:55.197Z,,0,2,,3498.499999904656,response,ISIC_7208412.JPG,6,ISIC_8412096.JPG,ISIC_7208412.JPG,false,1,keypress(m),500,425400.7000002861,425400.59999990463,421885.575,421894.40000009537,421902.1,425408.869,8,400,22,,ISIC_8412096.JPG
break,html.Screen,4_71_1,2023-09-11T19:11:55.197Z,,0,,,NaN,,,,,,false,,,,425401.09999990463,425401,,425400.7000002861,,425408.869,8,400,,,
break_continue,html.Screen,4_71_2,2023-09-11T19:11:55.197Z,,0,,,NaN,,,,,,false,,,,425401.30000019073,425401.2000002861,,425401.2000002861,,425408.869,8,400,,,
sequence,flow.Sequence,4_71,2023-09-11T19:11:55.197Z,,0,,,3499.1000002861256,completion,,,,,false,,,,425401.40000009537,425401.2000002861,421885.575,421894.30000019073,421902.1,425408.869,8,400,,,
trial,html.Screen,4_72_0,2023-09-11T19:12:00.415Z,,0,2,,5210.2309999046265,response,ISIC_0024589.JPG,5,ISIC_0015291.JPG,ISIC_0015291.JPG,false,0,keypress(z),500,430619.30000019073,430619.09999990463,425392.255,425401.5,425408.869,430635.737,8,400,23,,ISIC_0024589.JPG
break,html.Screen,4_72_1,2023-09-11T19:12:00.416Z,,0,,,NaN,,,,,,false,,,,430620,430619.90000009537,,430619.5,,430635.737,8,400,,,
break_continue,html.Screen,4_72_2,2023-09-11T19:12:00.416Z,,0,,,NaN,,,,,,false,,,,430620.30000019073,430620.30000019073,,430620.09999990463,,430635.737,8,400,,,
sequence,flow.Sequence,4_72,2023-09-11T19:12:00.417Z,,0,,,5211.431000190729,completion,,,,,false,,,,430620.40000009537,430620.30000019073,425392.255,425401.40000009537,425408.869,430635.737,8,400,,,
trial,html.Screen,4_73_0,2023-09-11T19:12:08.022Z,,0,2,,7588.86299990461,response,ISIC_0010809.JPG,6,ISIC_0025195.JPG,ISIC_0025195.JPG,false,0,keypress(z),500,438224.7000002861,438224.59999990463,430619.02,430620.59999990463,430635.737,438233.804,8,400,24,,ISIC_0010809.JPG
break,html.Screen,4_73_1,2023-09-11T19:12:08.022Z,,0,,,NaN,,,,,,false,,,,438225.30000019073,438225.09999990463,,438224.80000019073,,438233.804,8,400,,,
break_continue,html.Screen,4_73_2,2023-09-11T19:12:08.023Z,,0,,,NaN,,,,,,false,,,,438225.5,438225.40000009537,,438225.30000019073,,438233.804,8,400,,,
sequence,flow.Sequence,4_73,2023-09-11T19:12:08.023Z,,0,,,7589.663000095345,completion,,,,,false,,,,438225.5,438225.40000009537,430619.02,430620.59999990463,430635.737,438233.804,8,400,,,
trial,html.Screen,4_74_0,2023-09-11T19:12:12.809Z,,0,2,,4777.996000190731,response,ISIC_0032629.JPG,5,ISIC_0062367.JPG,ISIC_0062367.JPG,false,0,keypress(z),500,443012,443011.80000019073,438217.138,438225.59999990463,438233.804,443026.676,8,400,25,,ISIC_0032629.JPG
break,html.Screen,4_74_1,2023-09-11T19:12:12.810Z,,0,,,NaN,,,,,,false,,,,443012.7000002861,443012.5,,443012.2000002861,,443026.676,8,400,,,
break_continue,html.Screen,4_74_2,2023-09-11T19:12:12.810Z,,0,,,NaN,,,,,,false,,,,443013,443012.90000009537,,443012.80000019073,,443026.676,8,400,,,
sequence,flow.Sequence,4_74,2023-09-11T19:12:12.810Z,,0,,,4779.096000095364,completion,,,,,false,,,,443013.2000002861,443012.90000009537,438217.138,438225.59999990463,438233.804,443026.676,8,400,,,
trial,html.Screen,4_75_0,2023-09-11T19:12:18.252Z,,0,2,,5427.624000190757,response,ISIC_6384906.JPG,5,ISIC_7253401.JPG,ISIC_7253401.JPG,false,0,keypress(z),500,448454.5,448454.30000019073,443009.998,443013.30000019073,443026.676,448487.181,8,400,26,,ISIC_6384906.JPG
break,html.Screen,4_75_1,2023-09-11T19:12:18.252Z,,0,,,NaN,,,,,,false,,,,448455.09999990463,448454.90000009537,,448454.59999990463,,448487.181,8,400,,,
break_continue,html.Screen,4_75_2,2023-09-11T19:12:18.252Z,,0,,,NaN,,,,,,false,,,,448455.30000019073,448455.2000002861,,448455.09999990463,,448487.181,8,400,,,
sequence,flow.Sequence,4_75,2023-09-11T19:12:18.253Z,,0,,,5428.524000286125,completion,,,,,false,,,,448455.40000009537,448455.2000002861,443009.998,443013.30000019073,443026.676,448487.181,8,400,,,
trial,html.Screen,4_76_0,2023-09-11T19:12:22.447Z,,0,2,,4162.01900028612,response,ISIC_0031835.JPG,5,ISIC_0057067.JPG,ISIC_0031835.JPG,false,1,keypress(m),500,452649.40000009537,452649.2000002861,448470.609,448455.40000009537,448487.181,452678.674,8,400,27,,ISIC_0057067.JPG
break,html.Screen,4_76_1,2023-09-11T19:12:22.447Z,,0,,,NaN,,,,,,false,,,,452649.80000019073,452649.80000019073,,452649.40000009537,,452678.674,8,400,,,
break_continue,html.Screen,4_76_2,2023-09-11T19:12:22.447Z,,0,,,NaN,,,,,,false,,,,452650,452650,,452649.90000009537,,452678.674,8,400,,,
sequence,flow.Sequence,4_76,2023-09-11T19:12:22.447Z,,0,,,4162.819000000018,completion,,,,,false,,,,452650,452650,448470.609,448455.40000009537,448487.181,452678.674,8,400,,,
trial,html.Screen,4_77_0,2023-09-11T19:12:28.356Z,,0,2,,5880.126000190736,response,ISIC_9694020.JPG,5,ISIC_4433832.JPG,ISIC_9694020.JPG,false,1,keypress(m),500,458559,458558.80000019073,452662.004,452650.09999990463,452678.674,458590.146,8,400,28,,ISIC_4433832.JPG
break,html.Screen,4_77_1,2023-09-11T19:12:28.357Z,,0,,,NaN,,,,,,false,,,,458559.5,458559.40000009537,,458559.09999990463,,458590.146,8,400,,,
break_continue,html.Screen,4_77_2,2023-09-11T19:12:28.357Z,,0,,,NaN,,,,,,false,,,,458559.80000019073,458559.7000002861,,458559.59999990463,,458590.146,8,400,,,
sequence,flow.Sequence,4_77,2023-09-11T19:12:28.357Z,,0,,,5881.026000286103,completion,,,,,false,,,,458559.80000019073,458559.7000002861,452662.004,452650.09999990463,452678.674,458590.146,8,400,,,
trial,html.Screen,4_78_0,2023-09-11T19:12:33.001Z,,0,2,,4613.353999999992,response,ISIC_0027712.JPG,5,ISIC_0413563.JPG,ISIC_0027712.JPG,false,1,keypress(m),500,463203.7000002861,463203.5,458573.59,458559.90000009537,458590.146,463215.826,8,400,29,,ISIC_0413563.JPG
break,html.Screen,4_78_1,2023-09-11T19:12:33.002Z,,0,,,NaN,,,,,,false,,,,463204.5,463204.2000002861,,463203.80000019073,,463215.826,8,400,,,
break_continue,html.Screen,4_78_2,2023-09-11T19:12:33.002Z,,0,,,NaN,,,,,,false,,,,463204.80000019073,463204.7000002861,,463204.5,,463215.826,8,400,,,
sequence,flow.Sequence,4_78,2023-09-11T19:12:33.002Z,,0,,,4614.554000286094,completion,,,,,false,,,,463204.90000009537,463204.7000002861,458573.59,458559.90000009537,458590.146,463215.826,8,400,,,
trial,html.Screen,4_79_0,2023-09-11T19:12:38.780Z,,0,2,,5766.974000190734,response,ISIC_2772616.JPG,4,ISIC_0030747.JPG,ISIC_2772616.JPG,false,1,keypress(m),500,468982.90000009537,468982.80000019073,463199.159,463205,463215.826,468993.721,8,400,30,,ISIC_0030747.JPG
break,html.Screen,4_79_1,2023-09-11T19:12:38.781Z,,0,,,NaN,,,,,,false,,,,468983.59999990463,468983.30000019073,,468983,,468993.721,8,400,,,
break_continue,html.Screen,4_79_2,2023-09-11T19:12:38.781Z,,0,,,NaN,,,,,,false,,,,468983.80000019073,468983.80000019073,,468983.59999990463,,468993.721,8,400,,,
sequence,flow.Sequence,4_79,2023-09-11T19:12:38.781Z,,0,,,5767.974000190734,completion,,,,,false,,,,468983.90000009537,468983.80000019073,463199.159,463204.90000009537,463215.826,468993.721,8,400,,,
trial,html.Screen,4_80_0,2023-09-11T19:12:43.649Z,,0,2,,4857.878999904613,response,ISIC_8109460.JPG,6,ISIC_0031931.JPG,ISIC_8109460.JPG,false,1,keypress(m),500,473851.80000019073,473851.59999990463,468976.999,468984,468993.721,473853.189,8,400,31,,ISIC_0031931.JPG
break,html.Screen,4_80_1,2023-09-11T19:12:43.650Z,,0,,,NaN,,,,,,false,,,,473852.40000009537,473852.2000002861,,473851.90000009537,,473853.189,8,400,,,
break_continue,html.Screen,4_80_2,2023-09-11T19:12:43.650Z,,0,,,NaN,,,,,,false,,,,473852.59999990463,473852.59999990463,,473852.5,,473853.189,8,400,,,
sequence,flow.Sequence,4_80,2023-09-11T19:12:43.650Z,,0,,,4858.878999904613,completion,,,,,false,,,,473852.80000019073,473852.59999990463,468976.999,468984,468993.721,473853.189,8,400,,,
trial,html.Screen,4_81_0,2023-09-11T19:12:48.708Z,,0,2,,5056.9109999046195,response,ISIC_4887995.JPG,4,ISIC_0029933.JPG,ISIC_4887995.JPG,false,1,keypress(m),500,478910.30000019073,478910.09999990463,473836.43,473852.90000009537,473853.189,478929.708,8,400,32,,ISIC_0029933.JPG
break,html.Screen,4_81_1,2023-09-11T19:12:48.708Z,,0,,,NaN,,,,,,false,,,,478911,478910.80000019073,,478910.40000009537,,478929.708,8,400,,,
break_continue,html.Screen,4_81_2,2023-09-11T19:12:48.709Z,,0,,,NaN,,,,,,false,,,,478911.40000009537,478911.2000002861,,478911.09999990463,,478929.708,8,400,,,
sequence,flow.Sequence,4_81,2023-09-11T19:12:48.709Z,,0,,,5058.011000286089,completion,,,,,false,,,,478911.5,478911.2000002861,473836.43,473852.90000009537,473853.189,478929.708,8,400,,,
trial,html.Screen,4_82_0,2023-09-11T19:12:52.793Z,,0,2,,4065.5920001907507,response,ISIC_0072001.JPG,6,ISIC_9225640.JPG,ISIC_9225640.JPG,false,0,keypress(z),500,482995.5,482995.30000019073,478913.091,478911.59999990463,478929.708,483004.371,8,400,33,,ISIC_0072001.JPG
break,html.Screen,4_82_1,2023-09-11T19:12:52.793Z,,0,,,NaN,,,,,,false,,,,482996,482995.80000019073,,482995.59999990463,,483004.371,8,400,,,
break_continue,html.Screen,4_82_2,2023-09-11T19:12:52.793Z,,0,,,NaN,,,,,,false,,,,482996.30000019073,482996.09999990463,,482996.09999990463,,483004.371,8,400,,,
sequence,flow.Sequence,4_82,2023-09-11T19:12:52.794Z,,0,,,4066.3919999046484,completion,,,,,false,,,,482996.30000019073,482996.09999990463,478913.091,478911.59999990463,478929.708,483004.371,8,400,,,
trial,html.Screen,4_83_0,2023-09-11T19:12:56.977Z,,0,2,,4175.42900019075,response,ISIC_8071637.JPG,6,ISIC_2721699.JPG,ISIC_8071637.JPG,false,1,keypress(m),500,487179.90000009537,487179.80000019073,482987.602,482996.40000009537,483004.371,487195.813,8,400,34,,ISIC_2721699.JPG
break,html.Screen,4_83_1,2023-09-11T19:12:56.978Z,,0,,,NaN,,,,,,false,,,,487180.5,487180.40000009537,,487180.09999990463,,487195.813,8,400,,,
break_continue,html.Screen,4_83_2,2023-09-11T19:12:56.978Z,,0,,,NaN,,,,,,false,,,,487180.90000009537,487180.80000019073,,487180.59999990463,,487195.813,8,400,,,
sequence,flow.Sequence,4_83,2023-09-11T19:12:56.978Z,,0,,,4176.42900019075,completion,,,,,false,,,,487181,487180.80000019073,482987.602,482996.40000009537,483004.371,487195.813,8,400,,,
trial,html.Screen,4_84_0,2023-09-11T19:13:03.414Z,,0,2,,6419.887000286079,response,ISIC_7454512.JPG,5,ISIC_0000526.JPG,ISIC_7454512.JPG,false,1,keypress(m),500,493615.80000019073,493615.7000002861,487179.117,487181.09999990463,487195.813,493624.97,8,400,35,,ISIC_0000526.JPG
break,html.Screen,4_84_1,2023-09-11T19:13:03.415Z,,0,,,NaN,,,,,,false,,,,493616.59999990463,493616.30000019073,,493615.90000009537,,493624.97,8,400,,,
break_continue,html.Screen,4_84_2,2023-09-11T19:13:03.415Z,,0,,,NaN,,,,,,false,,,,493616.80000019073,493616.80000019073,,493616.7000002861,,493624.97,8,400,,,
sequence,flow.Sequence,4_84,2023-09-11T19:13:03.415Z,,0,,,6420.987000190711,completion,,,,,false,,,,493617,493616.80000019073,487179.117,487181.09999990463,487195.813,493624.97,8,400,,,
trial,html.Screen,4_85_0,2023-09-11T19:13:08.737Z,,0,2,,5313.430000095395,response,ISIC_8021960.JPG,5,ISIC_6801988.JPG,ISIC_6801988.JPG,false,0,keypress(z),500,498938.59999990463,498938.40000009537,493608.249,493617,493624.97,498951.974,8,400,36,,ISIC_8021960.JPG
break,html.Screen,4_85_1,2023-09-11T19:13:08.738Z,,0,,,NaN,,,,,,false,,,,498939.30000019073,498939.09999990463,,498938.80000019073,,498951.974,8,400,,,
break_continue,html.Screen,4_85_2,2023-09-11T19:13:08.738Z,,0,,,NaN,,,,,,false,,,,498939.7000002861,498939.5,,498939.40000009537,,498951.974,8,400,,,
sequence,flow.Sequence,4_85,2023-09-11T19:13:08.738Z,,0,,,5314.530000000028,completion,,,,,false,,,,498939.80000019073,498939.5,493608.249,493617,493624.97,498951.974,8,400,,,
trial,html.Screen,4_86_0,2023-09-11T19:13:16.740Z,,0,2,,7989.726000286115,response,ISIC_0053796.JPG,5,ISIC_6520237.JPG,ISIC_0053796.JPG,false,1,keypress(m),500,506941.80000019073,506941.7000002861,498935.378,498939.90000009537,498951.974,506950.874,8,400,37,,ISIC_6520237.JPG
break,html.Screen,4_86_1,2023-09-11T19:13:16.741Z,,0,,,NaN,,,,,,false,,,,506942.30000019073,506942.2000002861,,506942,,506950.874,8,400,,,
break_continue,html.Screen,4_86_2,2023-09-11T19:13:16.741Z,,0,,,NaN,,,,,,false,,,,506942.5,506942.40000009537,,506942.30000019073,,506950.874,8,400,,,
sequence,flow.Sequence,4_86,2023-09-11T19:13:16.741Z,,0,,,7990.42600009538,completion,,,,,false,,,,506942.59999990463,506942.40000009537,498935.378,498939.90000009537,498951.974,506950.874,8,400,,,
trial,html.Screen,4_87_0,2023-09-11T19:13:23.831Z,,0,2,,7081.326000286092,response,ISIC_0012990.JPG,5,ISIC_7881017.JPG,ISIC_7881017.JPG,false,0,keypress(z),500,514032.30000019073,514032.2000002861,506934.194,506942.7000002861,506950.874,514048.071,8,400,38,,ISIC_0012990.JPG
break,html.Screen,4_87_1,2023-09-11T19:13:23.831Z,,0,,,NaN,,,,,,false,,,,514032.80000019073,514032.59999990463,,514032.5,,514048.071,8,400,,,
break_continue,html.Screen,4_87_2,2023-09-11T19:13:23.831Z,,0,,,NaN,,,,,,false,,,,514033,514032.90000009537,,514032.80000019073,,514048.071,8,400,,,
sequence,flow.Sequence,4_87,2023-09-11T19:13:23.831Z,,0,,,7082.026000095357,completion,,,,,false,,,,514033,514032.90000009537,506934.194,506942.59999990463,506950.874,514048.071,8,400,,,
trial,html.Screen,4_88_0,2023-09-11T19:13:27.545Z,,0,2,,3697.9290000000037,response,ISIC_0024321.JPG,4,ISIC_0060937.JPG,ISIC_0024321.JPG,false,1,keypress(m),500,517746.2000002861,517746,514031.372,514033.09999990463,514048.071,517755.445,8,400,39,,ISIC_0060937.JPG
break,html.Screen,4_88_1,2023-09-11T19:13:27.545Z,,0,,,NaN,,,,,,false,,,,517746.80000019073,517746.59999990463,,517746.30000019073,,517755.445,8,400,,,
break_continue,html.Screen,4_88_2,2023-09-11T19:13:27.545Z,,0,,,NaN,,,,,,false,,,,517747.2000002861,517747.09999990463,,517746.90000009537,,517755.445,8,400,,,
sequence,flow.Sequence,4_88,2023-09-11T19:13:27.546Z,,0,,,3699.0289999046363,completion,,,,,false,,,,517747.2000002861,517747.09999990463,514031.372,514033,514048.071,517755.445,8,400,,,
trial,html.Screen,4_89_0,2023-09-11T19:13:35.963Z,,0,2,,8408.755000286095,response,ISIC_1507583.JPG,5,ISIC_0005377.JPG,ISIC_1507583.JPG,false,1,keypress(m),500,526164.5999999046,526164.2000002861,517738.603,517747.30000019073,517755.445,526171.731,8,400,40,,ISIC_0005377.JPG
break,html.Screen,4_89_1,2023-09-11T19:13:35.965Z,,0,,,NaN,,,,,,false,,,,526166.4000000954,526165.8000001907,,526164.9000000954,,526171.731,8,400,,,
break_continue,html.Screen,4_89_2,2023-09-11T19:13:35.966Z,,0,,,NaN,,,,,,false,,,,526167.2000002861,526167,,526166.7000002861,,526171.731,8,400,,,
sequence,flow.Sequence,4_89,2023-09-11T19:13:35.966Z,,0,,,8411.554999999993,completion,,,,,false,,,,526167.5,526167,517738.603,517747.30000019073,517755.445,526171.731,8,400,,,
trial,html.Screen,4_90_0,2023-09-11T19:13:40.897Z,,0,2,,4926.368999904604,response,ISIC_3556980.JPG,5,ISIC_4926448.JPG,ISIC_3556980.JPG,false,1,keypress(m),500,531098.3000001907,531098.0999999046,526154.946,526167.7000002861,526171.731,531114.583,8,400,41,,ISIC_4926448.JPG
break,html.Screen,4_90_1,2023-09-11T19:13:40.897Z,,0,,,NaN,,,,,,false,,,,531099,531098.9000000954,,531098.5,,531114.583,8,400,,,
break_continue,html.Screen,4_90_2,2023-09-11T19:13:40.898Z,,0,,,NaN,,,,,,false,,,,531099.3000001907,531099.2000002861,,531099.2000002861,,531114.583,8,400,,,
sequence,flow.Sequence,4_90,2023-09-11T19:13:40.898Z,,0,,,4927.469000286073,completion,,,,,false,,,,531099.4000000954,531099.2000002861,526154.946,526167.7000002861,526171.731,531114.583,8,400,,,
trial,html.Screen,4_91_0,2023-09-11T19:13:46.314Z,,0,2,,5400.516999904648,response,ISIC_0005248.JPG,6,ISIC_4864523.JPG,ISIC_4864523.JPG,false,0,keypress(z),500,536515.3000001907,536515.0999999046,531097.923,531099.5,531114.583,536525.12,8,400,42,,ISIC_0005248.JPG
break,html.Screen,4_91_1,2023-09-11T19:13:46.314Z,,0,,,NaN,,,,,,false,,,,536515.9000000954,536515.5999999046,,536515.3000001907,,536525.12,8,400,,,
break_continue,html.Screen,4_91_2,2023-09-11T19:13:46.314Z,,0,,,NaN,,,,,,false,,,,536516.2000002861,536516.0999999046,,536515.9000000954,,536525.12,8,400,,,
sequence,flow.Sequence,4_91,2023-09-11T19:13:46.315Z,,0,,,5401.516999904648,completion,,,,,false,,,,536516.3000001907,536516.0999999046,531097.923,531099.5,531114.583,536525.12,8,400,,,
trial,html.Screen,4_92_0,2023-09-11T19:13:50.259Z,,0,2,,3934.979999904637,response,ISIC_0014788.JPG,5,ISIC_3291765.JPG,ISIC_3291765.JPG,false,0,keypress(z),500,540460.3000001907,540460.0999999046,536508.455,536516.3000001907,536525.12,540466.123,8,400,43,,ISIC_0014788.JPG
break,html.Screen,4_92_1,2023-09-11T19:13:50.259Z,,0,,,NaN,,,,,,false,,,,540460.9000000954,540460.8000001907,,540460.5,,540466.123,8,400,,,
break_continue,html.Screen,4_92_2,2023-09-11T19:13:50.260Z,,0,,,NaN,,,,,,false,,,,540461.2000002861,540461.2000002861,,540461.0999999046,,540466.123,8,400,,,
sequence,flow.Sequence,4_92,2023-09-11T19:13:50.260Z,,0,,,3936.080000286107,completion,,,,,false,,,,540461.3000001907,540461.2000002861,536508.455,536516.3000001907,536525.12,540466.123,8,400,,,
trial,html.Screen,4_93_0,2023-09-11T19:13:54.248Z,,0,2,,3983.777000095346,response,ISIC_2935987.JPG,4,ISIC_8733745.JPG,ISIC_8733745.JPG,false,0,keypress(z),500,544450,544449.9000000954,540449.636,540461.5,540466.123,544457.301,8,400,44,,ISIC_2935987.JPG
break,html.Screen,4_93_1,2023-09-11T19:13:54.249Z,,0,,,NaN,,,,,,false,,,,544450.4000000954,544450.3000001907,,544450.0999999046,,544457.301,8,400,,,
break_continue,html.Screen,4_93_2,2023-09-11T19:13:54.249Z,,0,,,NaN,,,,,,false,,,,544450.5999999046,544450.5999999046,,544450.4000000954,,544457.301,8,400,,,
sequence,flow.Sequence,4_93,2023-09-11T19:13:54.249Z,,0,,,3984.476999904611,completion,,,,,false,,,,544450.7000002861,544450.5999999046,540449.636,540461.4000000954,540466.123,544457.301,8,400,,,
trial,html.Screen,4_94_0,2023-09-11T19:13:59.754Z,,0,2,,5498.199000000022,response,ISIC_5960765.JPG,5,ISIC_8702237.JPG,ISIC_8702237.JPG,false,0,keypress(z),500,549955.5999999046,549955.5,544440.587,544450.8000001907,544457.301,549984.677,8,400,45,,ISIC_5960765.JPG
break,html.Screen,4_94_1,2023-09-11T19:13:59.754Z,,0,,,NaN,,,,,,false,,,,549956.0999999046,549955.9000000954,,549955.7000002861,,549984.677,8,400,,,
break_continue,html.Screen,4_94_2,2023-09-11T19:13:59.755Z,,0,,,NaN,,,,,,false,,,,549956.3000001907,549956.0999999046,,549956.0999999046,,549984.677,8,400,,,
sequence,flow.Sequence,4_94,2023-09-11T19:13:59.755Z,,0,,,5498.798999904655,completion,,,,,false,,,,549956.3000001907,549956.0999999046,544440.587,544450.7000002861,544457.301,549984.677,8,400,,,
trial,html.Screen,4_95_0,2023-09-11T19:14:04.093Z,,0,2,,4308.822999999975,response,ISIC_0032903.JPG,7,ISIC_0065728.JPG,ISIC_0032903.JPG,false,1,keypress(m),500,554293.8000001907,554293.5,549967.95,549956.4000000954,549984.677,554326.487,8,400,46,,ISIC_0065728.JPG
break,html.Screen,4_95_1,2023-09-11T19:14:04.094Z,,0,,,NaN,,,,,,false,,,,554294.2000002861,554294.0999999046,,554293.9000000954,,554326.487,8,400,,,
break_continue,html.Screen,4_95_2,2023-09-11T19:14:04.094Z,,0,,,NaN,,,,,,false,,,,554294.5,554294.5,,554294.3000001907,,554326.487,8,400,,,
sequence,flow.Sequence,4_95,2023-09-11T19:14:04.094Z,,0,,,4309.822999999975,completion,,,,,false,,,,554294.5999999046,554294.5,549967.95,549956.4000000954,549984.677,554326.487,8,400,,,
trial,html.Screen,4_96_0,2023-09-11T19:14:09.685Z,,0,2,,5558.513000000035,response,ISIC_1233104.JPG,4,ISIC_0062162.JPG,ISIC_0062162.JPG,false,0,keypress(z),500,559885.2000002861,559885,554309.729,554294.5999999046,554326.487,559903.949,8,400,47,,ISIC_1233104.JPG
break,html.Screen,4_96_1,2023-09-11T19:14:09.685Z,,0,,,NaN,,,,,,false,,,,559885.5999999046,559885.5,,559885.3000001907,,559903.949,8,400,,,
break_continue,html.Screen,4_96_2,2023-09-11T19:14:09.685Z,,0,,,NaN,,,,,,false,,,,559885.7000002861,559885.7000002861,,559885.5999999046,,559903.949,8,400,,,
sequence,flow.Sequence,4_96,2023-09-11T19:14:09.685Z,,0,,,5559.213000286138,completion,,,,,false,,,,559885.8000001907,559885.7000002861,554309.729,554294.5999999046,554326.487,559903.949,8,400,,,
trial,html.Screen,4_97_0,2023-09-11T19:14:14.055Z,,0,2,,4351.8510001907125,response,ISIC_0070711.JPG,5,ISIC_6620377.JPG,ISIC_0070711.JPG,false,1,keypress(m),500,564255.9000000954,564255.8000001907,559887.272,559885.9000000954,559903.949,564279.137,8,400,48,,ISIC_6620377.JPG
break,html.Screen,4_97_1,2023-09-11T19:14:14.056Z,,0,,,NaN,,,,,,false,,,,564256.3000001907,564256.0999999046,,564255.9000000954,,564279.137,8,400,,,
break_continue,html.Screen,4_97_2,2023-09-11T19:14:14.056Z,,0,,,NaN,,,,,,false,,,,564256.4000000954,564256.4000000954,,564256.3000001907,,564279.137,8,400,,,
sequence,flow.Sequence,4_97,2023-09-11T19:14:14.056Z,,0,,,4352.451000095345,completion,,,,,false,,,,564256.5,564256.4000000954,559887.272,559885.9000000954,559903.949,564279.137,8,400,,,
trial,html.Screen,4_98_0,2023-09-11T19:14:20.601Z,,0,2,,6522.462999904645,response,ISIC_7114660.JPG,5,ISIC_3338629.JPG,ISIC_3338629.JPG,false,0,keypress(z),500,570801.7000002861,570801.5999999046,564262.511,564256.5999999046,564279.137,570825.292,8,400,49,,ISIC_7114660.JPG
break,html.Screen,4_98_1,2023-09-11T19:14:20.602Z,,0,,,NaN,,,,,,false,,,,570802.0999999046,570801.9000000954,,570801.8000001907,,570825.292,8,400,,,
break_continue,html.Screen,4_98_2,2023-09-11T19:14:20.602Z,,0,,,NaN,,,,,,false,,,,570802.2000002861,570802.2000002861,,570802.0999999046,,570825.292,8,400,,,
sequence,flow.Sequence,4_98,2023-09-11T19:14:20.602Z,,0,,,6523.063000286114,completion,,,,,false,,,,570802.3000001907,570802.2000002861,564262.511,564256.5999999046,564279.137,570825.292,8,400,,,
trial,html.Screen,4_99_0,2023-09-11T19:14:26.107Z,,0,2,,5482.508000190719,response,ISIC_2680588.JPG,5,ISIC_0070447.JPG,ISIC_2680588.JPG,false,1,keypress(m),500,576307.9000000954,576307.8000001907,570808.582,570802.4000000954,570825.292,576319.195,8,400,50,,ISIC_0070447.JPG
break,html.Screen,4_99_1,2023-09-11T19:14:36.105Z,,0,,,10003.082000000053,timeout,,,,,false,,,,586306,586305.433,576302.521,576308.0999999046,576319.195,586322.277,8,400,,,
break_continue,html.Screen,4_99_2,2023-09-11T19:14:38.920Z,,0,,,2786.222999999998,response,,,,,false,continue,keypress(Space),,589120.7000002861,589108.5,586305.433,586306.0999999046,586322.277,589127.467,8,400,,,
sequence,flow.Sequence,4_99,2023-09-11T19:14:38.920Z,,0,,,18283.207999999984,completion,,,,,false,,,,589120.9000000954,589108.5,570808.582,570802.3000001907,570825.292,589127.467,8,400,,,
trial,html.Screen,4_100_0,2023-09-11T19:14:43.500Z,,0,3,,4572.632999904687,response,ISIC_4163843.JPG,5,ISIC_6228963.JPG,ISIC_4163843.JPG,false,1,keypress(m),500,593700.3000001907,593700.0999999046,589110.785,589121,589127.467,593703.061,8,400,1,,ISIC_6228963.JPG
break,html.Screen,4_100_1,2023-09-11T19:14:43.500Z,,0,,,NaN,,,,,,false,,,,593700.8000001907,593700.5999999046,,593700.3000001907,,593703.061,8,400,,,
break_continue,html.Screen,4_100_2,2023-09-11T19:14:43.500Z,,0,,,NaN,,,,,,false,,,,593701,593700.9000000954,,593700.9000000954,,593703.061,8,400,,,
sequence,flow.Sequence,4_100,2023-09-11T19:14:43.501Z,,0,,,4573.433000095421,completion,,,,,false,,,,593701.0999999046,593700.9000000954,589110.785,589120.9000000954,589127.467,593703.061,8,400,,,
trial,html.Screen,4_101_0,2023-09-11T19:14:47.349Z,,0,3,,3846.3390000953805,response,ISIC_0027234.JPG,5,ISIC_2050638.JPG,ISIC_2050638.JPG,false,0,keypress(z),500,597549.5,597549.4000000954,593686.333,593701.3000001907,593703.061,597560.576,8,400,2,,ISIC_0027234.JPG
break,html.Screen,4_101_1,2023-09-11T19:14:47.350Z,,0,,,NaN,,,,,,false,,,,597550.5999999046,597550.3000001907,,597549.8000001907,,597560.576,8,400,,,
break_continue,html.Screen,4_101_2,2023-09-11T19:14:47.350Z,,0,,,NaN,,,,,,false,,,,597551,597550.9000000954,,597550.7000002861,,597560.576,8,400,,,
sequence,flow.Sequence,4_101,2023-09-11T19:14:47.351Z,,0,,,3847.8390000953805,completion,,,,,false,,,,597551.0999999046,597550.9000000954,593686.333,593701.2000002861,593703.061,597560.576,8,400,,,
trial,html.Screen,4_102_0,2023-09-11T19:14:51.691Z,,0,3,,4330.724000190734,response,ISIC_0030817.JPG,4,ISIC_0055143.JPG,ISIC_0030817.JPG,false,1,keypress(m),500,601891.5,601891.3000001907,597543.833,597551.2000002861,597560.576,601902.414,8,400,3,,ISIC_0055143.JPG
break,html.Screen,4_102_1,2023-09-11T19:14:51.692Z,,0,,,NaN,,,,,,false,,,,601892,601891.9000000954,,601891.7000002861,,601902.414,8,400,,,
break_continue,html.Screen,4_102_2,2023-09-11T19:14:51.692Z,,0,,,NaN,,,,,,false,,,,601892.3000001907,601892.2000002861,,601892.0999999046,,601902.414,8,400,,,
sequence,flow.Sequence,4_102,2023-09-11T19:14:51.692Z,,0,,,4331.624000286101,completion,,,,,false,,,,601892.3000001907,601892.2000002861,597543.833,597551.0999999046,597560.576,601902.414,8,400,,,
trial,html.Screen,4_103_0,2023-09-11T19:14:56.181Z,,0,3,,4478.486000095378,response,ISIC_3700351.JPG,5,ISIC_5525765.JPG,ISIC_3700351.JPG,false,1,keypress(m),500,606381.0999999046,606380.9000000954,601885.722,601892.4000000954,601902.414,606394.561,8,400,4,,ISIC_5525765.JPG
break,html.Screen,4_103_1,2023-09-11T19:14:56.182Z,,0,,,NaN,,,,,,false,,,,606382.0999999046,606381.8000001907,,606381.4000000954,,606394.561,8,400,,,
break_continue,html.Screen,4_103_2,2023-09-11T19:14:56.182Z,,0,,,NaN,,,,,,false,,,,606382.5999999046,606382.4000000954,,606382.2000002861,,606394.561,8,400,,,
sequence,flow.Sequence,4_103,2023-09-11T19:14:56.182Z,,0,,,4479.986000095378,completion,,,,,false,,,,606382.7000002861,606382.4000000954,601885.722,601892.3000001907,601902.414,606394.561,8,400,,,
trial,html.Screen,4_104_0,2023-09-11T19:15:00.028Z,,0,3,,3833.5389999046456,response,ISIC_5396394.JPG,5,ISIC_0056406.JPG,ISIC_5396394.JPG,false,1,keypress(m),500,610228.5,610228.0999999046,606377.684,606382.9000000954,606394.561,610235.219,8,400,5,,ISIC_0056406.JPG
break,html.Screen,4_104_1,2023-09-11T19:15:00.029Z,,0,,,NaN,,,,,,false,,,,610229.5999999046,610229.3000001907,,610228.7000002861,,610235.219,8,400,,,
break_continue,html.Screen,4_104_2,2023-09-11T19:15:00.030Z,,0,,,NaN,,,,,,false,,,,610230.5,610230.3000001907,,610229.7000002861,,610235.219,8,400,,,
sequence,flow.Sequence,4_104,2023-09-11T19:15:00.030Z,,0,,,3835.739000190748,completion,,,,,false,,,,610230.7000002861,610230.3000001907,606377.684,606382.8000001907,606394.561,610235.219,8,400,,,
trial,html.Screen,4_105_0,2023-09-11T19:15:04.338Z,,0,3,,4302.081000190694,response,ISIC_0072377.JPG,5,ISIC_7297078.JPG,ISIC_7297078.JPG,false,0,keypress(z),500,614537.5,614537.3000001907,610218.688,610230.9000000954,610235.219,614543.566,8,400,6,,ISIC_0072377.JPG
break,html.Screen,4_105_1,2023-09-11T19:15:04.339Z,,0,,,NaN,,,,,,false,,,,614538.0999999046,614537.9000000954,,614537.5999999046,,614543.566,8,400,,,
break_continue,html.Screen,4_105_2,2023-09-11T19:15:04.339Z,,0,,,NaN,,,,,,false,,,,614538.5,614538.4000000954,,614538.2000002861,,614543.566,8,400,,,
sequence,flow.Sequence,4_105,2023-09-11T19:15:04.339Z,,0,,,4303.181000095326,completion,,,,,false,,,,614538.5999999046,614538.4000000954,610218.688,610230.9000000954,610235.219,614543.566,8,400,,,
trial,html.Screen,4_106_0,2023-09-11T19:15:07.988Z,,0,3,,3644.1340002861107,response,ISIC_0024427.JPG,5,ISIC_8635853.JPG,ISIC_8635853.JPG,false,0,keypress(z),500,618187.9000000954,618187.7000002861,614527.02,614538.5999999046,614543.566,618200.785,8,400,7,,ISIC_0024427.JPG
break,html.Screen,4_106_1,2023-09-11T19:15:07.989Z,,0,,,NaN,,,,,,false,,,,618188.7000002861,618188.5999999046,,618188.0999999046,,618200.785,8,400,,,
break_continue,html.Screen,4_106_2,2023-09-11T19:15:07.990Z,,0,,,NaN,,,,,,false,,,,618189.2000002861,618189,,618188.9000000954,,618200.785,8,400,,,
sequence,flow.Sequence,4_106,2023-09-11T19:15:07.990Z,,0,,,3645.4340000000084,completion,,,,,false,,,,618189.2000002861,618189,614527.02,614538.5999999046,614543.566,618200.785,8,400,,,
trial,html.Screen,4_107_0,2023-09-11T19:15:13.867Z,,0,3,,5865.714999999967,response,ISIC_0030391.JPG,5,ISIC_2507845.JPG,ISIC_2507845.JPG,false,0,keypress(z),500,624066.7000002861,624066.5,618184.192,618189.4000000954,618200.785,624078.791,8,400,8,,ISIC_0030391.JPG
break,html.Screen,4_107_1,2023-09-11T19:15:13.868Z,,0,,,NaN,,,,,,false,,,,624067.0999999046,624067,,624066.7000002861,,624078.791,8,400,,,
break_continue,html.Screen,4_107_2,2023-09-11T19:15:13.868Z,,0,,,NaN,,,,,,false,,,,624067.2000002861,624067.2000002861,,624067.0999999046,,624078.791,8,400,,,
sequence,flow.Sequence,4_107,2023-09-11T19:15:13.868Z,,0,,,5866.41500028607,completion,,,,,false,,,,624067.2000002861,624067.2000002861,618184.192,618189.3000001907,618200.785,624078.791,8,400,,,
trial,html.Screen,4_108_0,2023-09-11T19:15:17.614Z,,0,3,,3734.2090000000317,response,ISIC_5156491.JPG,5,ISIC_0029825.JPG,ISIC_0029825.JPG,false,0,keypress(z),500,627813.2000002861,627813,624062.335,624067.4000000954,624078.791,627819.464,8,400,9,,ISIC_5156491.JPG
break,html.Screen,4_108_1,2023-09-11T19:15:17.615Z,,0,,,NaN,,,,,,false,,,,627813.9000000954,627813.8000001907,,627813.4000000954,,627819.464,8,400,,,
break_continue,html.Screen,4_108_2,2023-09-11T19:15:17.615Z,,0,,,NaN,,,,,,false,,,,627814.4000000954,627814.2000002861,,627814.0999999046,,627819.464,8,400,,,
sequence,flow.Sequence,4_108,2023-09-11T19:15:17.615Z,,0,,,3735.409000286134,completion,,,,,false,,,,627814.5,627814.2000002861,624062.335,624067.4000000954,624078.791,627819.464,8,400,,,
trial,html.Screen,4_109_0,2023-09-11T19:15:22.466Z,,0,3,,4845.736000286066,response,ISIC_2151727.JPG,5,ISIC_0032433.JPG,ISIC_0032433.JPG,false,0,keypress(z),500,632665.3000001907,632665.2000002861,627802.774,627814.5,627819.464,632678.919,8,400,10,,ISIC_2151727.JPG
break,html.Screen,4_109_1,2023-09-11T19:15:22.466Z,,0,,,NaN,,,,,,false,,,,632665.8000001907,632665.5999999046,,632665.4000000954,,632678.919,8,400,,,
break_continue,html.Screen,4_109_2,2023-09-11T19:15:22.466Z,,0,,,NaN,,,,,,false,,,,632665.9000000954,632665.9000000954,,632665.8000001907,,632678.919,8,400,,,
sequence,flow.Sequence,4_109,2023-09-11T19:15:22.467Z,,0,,,4846.436000095331,completion,,,,,false,,,,632666,632665.9000000954,627802.774,627814.5,627819.464,632678.919,8,400,,,
trial,html.Screen,4_110_0,2023-09-11T19:15:26.230Z,,0,3,,3750.0810000000056,response,ISIC_4964478.JPG,5,ISIC_2316159.JPG,ISIC_2316159.JPG,false,0,keypress(z),500,636429.3000001907,636429,632662.212,632666,632678.919,636436.186,8,400,11,,ISIC_4964478.JPG
break,html.Screen,4_110_1,2023-09-11T19:15:26.231Z,,0,,,NaN,,,,,,false,,,,636430.7000002861,636430.4000000954,,636429.5999999046,,636436.186,8,400,,,
break_continue,html.Screen,4_110_2,2023-09-11T19:15:26.232Z,,0,,,NaN,,,,,,false,,,,636431.3000001907,636431.0999999046,,636430.8000001907,,636436.186,8,400,,,
sequence,flow.Sequence,4_110,2023-09-11T19:15:26.232Z,,0,,,3752.180999904638,completion,,,,,false,,,,636431.4000000954,636431.0999999046,632662.212,632666,632678.919,636436.186,8,400,,,
trial,html.Screen,4_111_0,2023-09-11T19:15:29.933Z,,0,3,,3695.9139999046456,response,ISIC_0054914.JPG,5,ISIC_0033122.JPG,ISIC_0033122.JPG,false,0,keypress(z),500,640132.2000002861,640132.0999999046,636419.635,636431.5999999046,636436.186,640143.574,8,400,12,,ISIC_0054914.JPG
break,html.Screen,4_111_1,2023-09-11T19:15:29.933Z,,0,,,NaN,,,,,,false,,,,640132.5999999046,640132.5,,640132.3000001907,,640143.574,8,400,,,
break_continue,html.Screen,4_111_2,2023-09-11T19:15:29.933Z,,0,,,NaN,,,,,,false,,,,640132.8000001907,640132.7000002861,,640132.5999999046,,640143.574,8,400,,,
sequence,flow.Sequence,4_111,2023-09-11T19:15:29.933Z,,0,,,3696.5140002861153,completion,,,,,false,,,,640132.8000001907,640132.7000002861,636419.635,636431.5999999046,636436.186,640143.574,8,400,,,
trial,html.Screen,4_112_0,2023-09-11T19:15:35.775Z,,0,3,,5830.925999999978,response,ISIC_0059170.JPG,5,ISIC_6208222.JPG,ISIC_6208222.JPG,false,0,keypress(z),500,645974.5999999046,645974.5,640126.726,640132.9000000954,640143.574,645988.104,8,400,13,,ISIC_0059170.JPG
break,html.Screen,4_112_1,2023-09-11T19:15:35.776Z,,0,,,NaN,,,,,,false,,,,645975.0999999046,645975,,645974.8000001907,,645988.104,8,400,,,
break_continue,html.Screen,4_112_2,2023-09-11T19:15:35.776Z,,0,,,NaN,,,,,,false,,,,645975.3000001907,645975.2000002861,,645975.2000002861,,645988.104,8,400,,,
sequence,flow.Sequence,4_112,2023-09-11T19:15:35.776Z,,0,,,5831.62600028608,completion,,,,,false,,,,645975.4000000954,645975.2000002861,640126.726,640132.9000000954,640143.574,645988.104,8,400,,,
trial,html.Screen,4_113_0,2023-09-11T19:15:40.451Z,,0,3,,4662.196000190685,response,ISIC_0163812.JPG,6,ISIC_0032750.JPG,ISIC_0163812.JPG,false,1,keypress(m),500,650650.5,650650.3000001907,645971.461,645975.4000000954,645988.104,650663.918,8,400,14,,ISIC_0032750.JPG
break,html.Screen,4_113_1,2023-09-11T19:15:40.452Z,,0,,,NaN,,,,,,false,,,,650651,650650.9000000954,,650650.5999999046,,650663.918,8,400,,,
break_continue,html.Screen,4_113_2,2023-09-11T19:15:40.452Z,,0,,,NaN,,,,,,false,,,,650651.5,650651.4000000954,,650651.2000002861,,650663.918,8,400,,,
sequence,flow.Sequence,4_113,2023-09-11T19:15:40.452Z,,0,,,4663.296000095317,completion,,,,,false,,,,650651.7000002861,650651.4000000954,645971.461,645975.4000000954,645988.104,650663.918,8,400,,,
trial,html.Screen,4_114_0,2023-09-11T19:15:44.812Z,,0,3,,4346.681999904686,response,ISIC_7384382.JPG,4,ISIC_3820669.JPG,ISIC_7384382.JPG,false,1,keypress(m),500,655011.0999999046,655010.5999999046,650647.19,650651.8000001907,650663.918,655022.379,8,400,15,,ISIC_3820669.JPG
break,html.Screen,4_114_1,2023-09-11T19:15:44.814Z,,0,,,NaN,,,,,,false,,,,655013.0999999046,655012.5,,655011.5999999046,,655022.379,8,400,,,
break_continue,html.Screen,4_114_2,2023-09-11T19:15:44.815Z,,0,,,NaN,,,,,,false,,,,655014,655013.9000000954,,655013.4000000954,,655022.379,8,400,,,
sequence,flow.Sequence,4_114,2023-09-11T19:15:44.815Z,,0,,,4349.9820000954205,completion,,,,,false,,,,655014.4000000954,655013.9000000954,650647.19,650651.8000001907,650663.918,655022.379,8,400,,,
trial,html.Screen,4_115_0,2023-09-11T19:15:49.827Z,,0,3,,5004.121000000043,response,ISIC_0558485.JPG,5,ISIC_3239813.JPG,ISIC_0558485.JPG,false,1,keypress(m),500,660026.7000002861,660026.5,655005.81,655014.7000002861,655022.379,660032.157,8,400,16,,ISIC_3239813.JPG
break,html.Screen,4_115_1,2023-09-11T19:15:49.828Z,,0,,,NaN,,,,,,false,,,,660027.3000001907,660027.0999999046,,660026.8000001907,,660032.157,8,400,,,
break_continue,html.Screen,4_115_2,2023-09-11T19:15:49.828Z,,0,,,NaN,,,,,,false,,,,660027.5,660027.5,,660027.3000001907,,660032.157,8,400,,,
sequence,flow.Sequence,4_115,2023-09-11T19:15:49.828Z,,0,,,5005.121000000043,completion,,,,,false,,,,660027.7000002861,660027.5,655005.81,655014.5999999046,655022.379,660032.157,8,400,,,
trial,html.Screen,4_116_0,2023-09-11T19:15:57.462Z,,0,3,,7628.942999904626,response,ISIC_0053473.JPG,4,ISIC_0031529.JPG,ISIC_0031529.JPG,false,0,keypress(z),500,667661.3000001907,667661.0999999046,660015.549,660027.8000001907,660032.157,667663.682,8,400,17,,ISIC_0053473.JPG
break,html.Screen,4_116_1,2023-09-11T19:15:57.463Z,,0,,,NaN,,,,,,false,,,,667662.0999999046,667661.8000001907,,667661.4000000954,,667663.682,8,400,,,
break_continue,html.Screen,4_116_2,2023-09-11T19:15:57.463Z,,0,,,NaN,,,,,,false,,,,667662.5,667662.5,,667662.3000001907,,667663.682,8,400,,,
sequence,flow.Sequence,4_116,2023-09-11T19:15:57.463Z,,0,,,7630.3429999999935,completion,,,,,false,,,,667662.7000002861,667662.5,660015.549,660027.8000001907,660032.157,667663.682,8,400,,,
trial,html.Screen,4_117_0,2023-09-11T19:16:03.838Z,,0,3,,6372.618000190705,response,ISIC_0000513.JPG,5,ISIC_4182801.JPG,ISIC_0000513.JPG,false,1,keypress(m),500,674036.5,674036.3000001907,667647.062,667662.7000002861,667663.682,674042.78,8,400,18,,ISIC_4182801.JPG
break,html.Screen,4_117_1,2023-09-11T19:16:03.839Z,,0,,,NaN,,,,,,false,,,,674036.9000000954,674036.9000000954,,674036.5999999046,,674042.78,8,400,,,
break_continue,html.Screen,4_117_2,2023-09-11T19:16:03.839Z,,0,,,NaN,,,,,,false,,,,674037.0999999046,674037.0999999046,,674037,,674042.78,8,400,,,
sequence,flow.Sequence,4_117,2023-09-11T19:16:03.839Z,,0,,,6373.417999904603,completion,,,,,false,,,,674037.2000002861,674037.0999999046,667647.062,667662.7000002861,667663.682,674042.78,8,400,,,
trial,html.Screen,4_118_0,2023-09-11T19:16:08.386Z,,0,3,,4541.1200000953395,response,ISIC_0000513.JPG,5,ISIC_5614300.JPG,ISIC_0000513.JPG,false,1,keypress(m),500,678584.0999999046,678583.9000000954,674026.218,674037.3000001907,674042.78,678601.6,8,400,19,,ISIC_5614300.JPG
break,html.Screen,4_118_1,2023-09-11T19:16:08.387Z,,0,,,NaN,,,,,,false,,,,678585.2000002861,678584.9000000954,,678584.3000001907,,678601.6,8,400,,,
break_continue,html.Screen,4_118_2,2023-09-11T19:16:08.387Z,,0,,,NaN,,,,,,false,,,,678585.5999999046,678585.5,,678585.3000001907,,678601.6,8,400,,,
sequence,flow.Sequence,4_118,2023-09-11T19:16:08.387Z,,0,,,4542.719999999972,completion,,,,,false,,,,678585.7000002861,678585.5,674026.218,674037.2000002861,674042.78,678601.6,8,400,,,
trial,html.Screen,4_119_0,2023-09-11T19:16:12.381Z,,0,3,,3977.700000190758,response,ISIC_0028618.JPG,5,ISIC_0027839.JPG,ISIC_0028618.JPG,false,1,keypress(m),500,682579.5,682579.3000001907,678584.885,678585.8000001907,678601.6,682592.871,8,400,20,,ISIC_0027839.JPG
break,html.Screen,4_119_1,2023-09-11T19:16:12.382Z,,0,,,NaN,,,,,,false,,,,682579.9000000954,682579.8000001907,,682579.5999999046,,682592.871,8,400,,,
break_continue,html.Screen,4_119_2,2023-09-11T19:16:12.382Z,,0,,,NaN,,,,,,false,,,,682580.0999999046,682580,,682579.9000000954,,682592.871,8,400,,,
sequence,flow.Sequence,4_119,2023-09-11T19:16:12.382Z,,0,,,3978.4000000000233,completion,,,,,false,,,,682580.0999999046,682580,678584.885,678585.8000001907,678601.6,682592.871,8,400,,,
trial,html.Screen,4_120_0,2023-09-11T19:16:17.955Z,,0,3,,5560.72899990459,response,ISIC_0030666.JPG,5,ISIC_9103090.JPG,ISIC_9103090.JPG,false,0,keypress(z),500,688153.7000002861,688153.5999999046,682576.008,682580.2000002861,682592.871,688170.279,8,400,21,,ISIC_0030666.JPG
break,html.Screen,4_120_1,2023-09-11T19:16:17.956Z,,0,,,NaN,,,,,,false,,,,688154.3000001907,688154.2000002861,,688153.8000001907,,688170.279,8,400,,,
break_continue,html.Screen,4_120_2,2023-09-11T19:16:17.956Z,,0,,,NaN,,,,,,false,,,,688154.5999999046,688154.5,,688154.4000000954,,688170.279,8,400,,,
sequence,flow.Sequence,4_120,2023-09-11T19:16:17.956Z,,0,,,5561.628999999957,completion,,,,,false,,,,688154.7000002861,688154.5,682576.008,682580.2000002861,682592.871,688170.279,8,400,,,
trial,html.Screen,4_121_0,2023-09-11T19:16:22.854Z,,0,3,,4881.820999904652,response,ISIC_0046504.JPG,5,ISIC_9203914.JPG,ISIC_9203914.JPG,false,0,keypress(z),500,693052.3000001907,693052.0999999046,688153.55,688154.7000002861,688170.279,693063.08,8,400,22,,ISIC_0046504.JPG
break,html.Screen,4_121_1,2023-09-11T19:16:22.854Z,,0,,,NaN,,,,,,false,,,,693052.7000002861,693052.5999999046,,693052.4000000954,,693063.08,8,400,,,
break_continue,html.Screen,4_121_2,2023-09-11T19:16:22.854Z,,0,,,NaN,,,,,,false,,,,693052.9000000954,693052.9000000954,,693052.8000001907,,693063.08,8,400,,,
sequence,flow.Sequence,4_121,2023-09-11T19:16:22.855Z,,0,,,4882.621000095387,completion,,,,,false,,,,693053,693052.9000000954,688153.55,688154.7000002861,688170.279,693063.08,8,400,,,
trial,html.Screen,4_122_0,2023-09-11T19:16:28.889Z,,0,3,,6024.0199999046745,response,ISIC_0071132.JPG,5,ISIC_0058016.JPG,ISIC_0071132.JPG,false,1,keypress(m),500,699087.2000002861,699087.0999999046,693046.46,693053,693063.08,699091.452,8,400,23,,ISIC_0058016.JPG
break,html.Screen,4_122_1,2023-09-11T19:16:28.889Z,,0,,,NaN,,,,,,false,,,,699087.5999999046,699087.5,,699087.3000001907,,699091.452,8,400,,,
break_continue,html.Screen,4_122_2,2023-09-11T19:16:28.889Z,,0,,,NaN,,,,,,false,,,,699087.9000000954,699087.8000001907,,699087.7000002861,,699091.452,8,400,,,
sequence,flow.Sequence,4_122,2023-09-11T19:16:28.890Z,,0,,,6024.720000190777,completion,,,,,false,,,,699088,699087.8000001907,693046.46,693053,693063.08,699091.452,8,400,,,
trial,html.Screen,4_123_0,2023-09-11T19:16:32.746Z,,0,3,,3853.248000286054,response,ISIC_0068168.JPG,5,ISIC_0030889.JPG,ISIC_0030889.JPG,false,0,keypress(z),500,702944.9000000954,702944.7000002861,699074.948,699088,699091.452,702965.693,8,400,24,,ISIC_0068168.JPG
break,html.Screen,4_123_1,2023-09-11T19:16:32.747Z,,0,,,NaN,,,,,,false,,,,702945.3000001907,702945.2000002861,,702945,,702965.693,8,400,,,
break_continue,html.Screen,4_123_2,2023-09-11T19:16:32.747Z,,0,,,NaN,,,,,,false,,,,702945.5999999046,702945.5999999046,,702945.4000000954,,702965.693,8,400,,,
sequence,flow.Sequence,4_123,2023-09-11T19:16:32.747Z,,0,,,3854.147999904584,completion,,,,,false,,,,702945.5999999046,702945.5999999046,699074.948,699088,699091.452,702965.693,8,400,,,
trial,html.Screen,4_124_0,2023-09-11T19:16:37.196Z,,0,3,,4428.906999904662,response,ISIC_5104731.JPG,5,ISIC_0014919.JPG,ISIC_5104731.JPG,false,1,keypress(m),500,707394.8000001907,707394.5999999046,702948.957,702945.8000001907,702965.693,707407.624,8,400,25,,ISIC_0014919.JPG
break,html.Screen,4_124_1,2023-09-11T19:16:37.197Z,,0,,,NaN,,,,,,false,,,,707395.2000002861,707395,,707394.8000001907,,707407.624,8,400,,,
break_continue,html.Screen,4_124_2,2023-09-11T19:16:37.197Z,,0,,,NaN,,,,,,false,,,,707395.4000000954,707395.4000000954,,707395.2000002861,,707407.624,8,400,,,
sequence,flow.Sequence,4_124,2023-09-11T19:16:37.197Z,,0,,,4429.707000095397,completion,,,,,false,,,,707395.5,707395.4000000954,702948.957,702945.8000001907,702965.693,707407.624,8,400,,,
trial,html.Screen,4_125_0,2023-09-11T19:16:43.334Z,,0,3,,6124.776000095415,response,ISIC_4843102.JPG,5,ISIC_2721699.JPG,ISIC_2721699.JPG,false,0,keypress(z),500,713532.5,713532.4000000954,707390.954,707395.5999999046,707407.624,713536.222,8,400,26,,ISIC_4843102.JPG
break,html.Screen,4_125_1,2023-09-11T19:16:43.335Z,,0,,,NaN,,,,,,false,,,,713532.9000000954,713532.8000001907,,713532.5999999046,,713536.222,8,400,,,
break_continue,html.Screen,4_125_2,2023-09-11T19:16:43.335Z,,0,,,NaN,,,,,,false,,,,713533.0999999046,713533,,713532.9000000954,,713536.222,8,400,,,
