sender,sender_type,sender_id,timestamp,meta,,blockNo,condition,duration,ended_on,img_left,img_reveal,img_right,loser,practice,response,response_action,selection_duration,time_commit,time_end,time_render,time_run,time_show,time_switch,total_blocks,total_trials,trialNo,url,winner
informed_consent,html.Screen,0,2023-09-12T00:35:31.129Z,"{""labjs_version"":""20.2.4"",""labjs_build"":{""flavor"":""development"",""commit"":""f5b4a49f956347addd546a832a3327688c2c0fef""},""location"":""https://labjs.felixhenninger.com/api/labjs_preview/index.html"",""userAgent"":""Mozilla/5.0 (Windows NT 10.0; Win64; x64) AppleWebKit/537.36 (KHTML, like Gecko) Chrome/116.0.0.0 Safari/537.36"",""platform"":""Win32"",""language"":""en-AU"",""locale"":""en-US"",""timeZone"":""America/Chicago"",""timezoneOffset"":300,""screen_width"":1680,""screen_height"":1050,""scroll_width"":1296,""scroll_height"":688,""window_innerWidth"":1296,""window_innerHeight"":736,""devicePixelRatio"":1}",,,,57531.178000286105,response,,,,,,consent,click button,,58146,58137.7000002861,589.857,599.0999999046326,606.522,58151.809,,,,{},
Welcome,html.Screen,1,2023-09-12T00:35:32.165Z,,,,symmetry,1030.0910000953663,response,,,,,,continue,click button,,59182.59999990463,59181.90000009537,58135.157,58146.300000190735,58151.809,59187.201,,,,,
trial,html.Screen,2_0_0,2023-09-12T00:35:43.660Z,,0,0,,11522.547000000006,timeout,ISIC_6997061.JPG,,ISIC_0069348.JPG,,true,,,500,70677,70676.80000019073,59170.487,59182.800000190735,59187.201,70709.748,1,6,1,,
sequence,flow.Sequence,2_0,2023-09-12T00:35:43.660Z,,0,,,11489.599000190734,completion,,,,,true,,,,70677.09999990463,70676.80000019073,59170.487,59182.7000002861,59187.201,70709.748,1,6,,,
trial,html.Screen,2_1_0,2023-09-12T00:35:50.126Z,,0,0,,6432.652000095361,response,ISIC_0057368.JPG,,ISIC_0009529.JPG,ISIC_0057368.JPG,true,1,keypress(m),500,77142.90000009537,77142.40000009537,70692.95,70677.2000002861,70709.748,77155.583,1,6,2,,ISIC_0009529.JPG
sequence,flow.Sequence,2_1,2023-09-12T00:35:50.126Z,,0,,,6432.652000095361,completion,,,,,true,,,,77143.7000002861,77142.40000009537,70692.95,70677.2000002861,70709.748,77155.583,1,6,,,
trial,html.Screen,2_2_0,2023-09-12T00:35:54.003Z,,0,0,,3863.9170000000013,response,ISIC_0064954.JPG,,ISIC_9758671.JPG,ISIC_9758671.JPG,true,0,keypress(z),500,81019.59999990463,81019.5,77138.964,77144.30000019073,77155.583,81029.712,1,6,3,,ISIC_0064954.JPG
sequence,flow.Sequence,2_2,2023-09-12T00:35:54.004Z,,0,,,3863.9170000000013,completion,,,,,true,,,,81019.80000019073,81019.5,77138.964,77144,77155.583,81029.712,1,6,,,
trial,html.Screen,2_3_0,2023-09-12T00:35:59.095Z,,0,0,,5080.688000095368,response,ISIC_0005785.JPG,,ISIC_0000080.JPG,ISIC_0000080.JPG,true,0,keypress(z),500,86110.7000002861,86110.40000009537,81013.023,81019.90000009537,81029.712,86122.953,1,6,4,,ISIC_0005785.JPG
sequence,flow.Sequence,2_3,2023-09-12T00:35:59.095Z,,0,,,5080.688000095368,completion,,,,,true,,,,86111.40000009537,86110.40000009537,81013.023,81019.90000009537,81029.712,86122.953,1,6,,,
trial,html.Screen,2_4_0,2023-09-12T00:36:02.426Z,,0,0,,3319.2470002861082,response,ISIC_5390060.JPG,,ISIC_7944028.JPG,ISIC_7944028.JPG,true,0,keypress(z),500,89442.5,89442.2000002861,86106.334,86111.80000019073,86122.953,89446.069,1,6,5,,ISIC_5390060.JPG
sequence,flow.Sequence,2_4,2023-09-12T00:36:02.427Z,,0,,,3319.2470002861082,completion,,,,,true,,,,89442.80000019073,89442.2000002861,86106.334,86111.7000002861,86122.953,89446.069,1,6,,,
trial,html.Screen,2_5_0,2023-09-12T00:36:06.178Z,,0,0,,3747.430999999997,response,ISIC_0010188.JPG,,ISIC_0794216.JPG,ISIC_0010188.JPG,true,1,keypress(m),500,93193.90000009537,93193.5,89429.39,89442.90000009537,89446.069,93220.128,1,6,6,,ISIC_0794216.JPG
sequence,flow.Sequence,2_5,2023-09-12T00:36:06.178Z,,0,,,3747.430999999997,completion,,,,,true,,,,93194.5,93193.5,89429.39,89442.80000019073,89446.069,93220.128,1,6,,,
loop,flow.Loop,2,2023-09-12T00:36:06.179Z,,,,,34006.299,completion,,,,,true,,,,93195,93193.5,59170.487,59182.59999990463,59187.201,93220.128,1,6,,,
exp_instructions,html.Screen,3,2023-09-12T00:36:17.685Z,,,,,11480.471999904636,response,,,,,,continue,keypress(Space),,104701,104700.59999990463,93186.686,93195.2000002861,93220.128,104709.136,,,,,
trial,html.Screen,4_0_0,2023-09-12T00:36:21.895Z,,0,1,,4202.064000286104,response,ISIC_6231450.JPG,6,ISIC_8796456.JPG,ISIC_6231450.JPG,false,1,keypress(m),500,108911.40000009537,108911.2000002861,104692.4,104701.09999990463,104709.136,108917.307,8,400,1,,ISIC_8796456.JPG
break,html.Screen,4_0_1,2023-09-12T00:36:21.896Z,,0,,,NaN,,,,,,false,,,,108911.80000019073,108911.7000002861,,108911.5,,108917.307,8,400,,,
break_continue,html.Screen,4_0_2,2023-09-12T00:36:21.896Z,,0,,,NaN,,,,,,false,,,,108912.2000002861,108912,,108912,,108917.307,8,400,,,
sequence,flow.Sequence,4_0,2023-09-12T00:36:21.896Z,,0,,,4202.864000000001,completion,,,,,false,,,,108912.2000002861,108912,104692.4,104701.09999990463,104709.136,108917.307,8,400,,,
trial,html.Screen,4_1_0,2023-09-12T00:36:27.214Z,,0,1,,5312.792999904632,response,ISIC_0073075.JPG,5,ISIC_5307086.JPG,ISIC_5307086.JPG,false,0,keypress(z),500,114230.30000019073,114230.09999990463,108900.76,108912.2000002861,108917.307,114244.339,8,400,2,,ISIC_0073075.JPG
break,html.Screen,4_1_1,2023-09-12T00:36:27.215Z,,0,,,NaN,,,,,,false,,,,114230.90000009537,114230.7000002861,,114230.40000009537,,114244.339,8,400,,,
break_continue,html.Screen,4_1_2,2023-09-12T00:36:27.215Z,,0,,,NaN,,,,,,false,,,,114231.09999990463,114231,,114231,,114244.339,8,400,,,
sequence,flow.Sequence,4_1,2023-09-12T00:36:27.215Z,,0,,,5313.692999999999,completion,,,,,false,,,,114231.09999990463,114231,108900.76,108912.2000002861,108917.307,114244.339,8,400,,,
trial,html.Screen,4_2_0,2023-09-12T00:36:31.974Z,,0,1,,4746.160999999993,response,ISIC_1077375.JPG,6,ISIC_0034117.JPG,ISIC_0034117.JPG,false,0,keypress(z),500,118990.5,118990.5,114227.671,114231.2000002861,114244.339,119020.28,8,400,3,,ISIC_1077375.JPG
break,html.Screen,4_2_1,2023-09-12T00:36:31.975Z,,0,,,NaN,,,,,,false,,,,118991.09999990463,118990.90000009537,,118990.7000002861,,119020.28,8,400,,,
break_continue,html.Screen,4_2_2,2023-09-12T00:36:31.975Z,,0,,,NaN,,,,,,false,,,,118991.2000002861,118991.2000002861,,118991.09999990463,,119020.28,8,400,,,
sequence,flow.Sequence,4_2,2023-09-12T00:36:31.975Z,,0,,,4746.861000286095,completion,,,,,false,,,,118991.30000019073,118991.2000002861,114227.671,114231.2000002861,114244.339,119020.28,8,400,,,
trial,html.Screen,4_3_0,2023-09-12T00:36:36.968Z,,0,1,,4964.220000000001,response,ISIC_2260249.JPG,5,ISIC_0030695.JPG,ISIC_0030695.JPG,false,0,keypress(z),500,123984.59999990463,123984.5,119003.63,118991.30000019073,119020.28,123996.672,8,400,4,,ISIC_2260249.JPG
break,html.Screen,4_3_1,2023-09-12T00:36:36.969Z,,0,,,NaN,,,,,,false,,,,123985.30000019073,123985.09999990463,,123984.7000002861,,123996.672,8,400,,,
break_continue,html.Screen,4_3_2,2023-09-12T00:36:36.970Z,,0,,,NaN,,,,,,false,,,,123985.7000002861,123985.59999990463,,123985.40000009537,,123996.672,8,400,,,
sequence,flow.Sequence,4_3,2023-09-12T00:36:36.970Z,,0,,,4965.319999904634,completion,,,,,false,,,,123985.90000009537,123985.59999990463,119003.63,118991.30000019073,119020.28,123996.672,8,400,,,
trial,html.Screen,4_4_0,2023-09-12T00:36:41.555Z,,0,1,,4574.028000286096,response,ISIC_9096302.JPG,5,ISIC_5738369.JPG,ISIC_5738369.JPG,false,0,keypress(z),500,128570.90000009537,128570.7000002861,123980.115,123986,123996.672,128572.232,8,400,5,,ISIC_9096302.JPG
break,html.Screen,4_4_1,2023-09-12T00:36:41.555Z,,0,,,NaN,,,,,,false,,,,128571.30000019073,128571.30000019073,,128571,,128572.232,8,400,,,
break_continue,html.Screen,4_4_2,2023-09-12T00:36:41.555Z,,0,,,NaN,,,,,,false,,,,128571.59999990463,128571.40000009537,,128571.40000009537,,128572.232,8,400,,,
sequence,flow.Sequence,4_4,2023-09-12T00:36:41.555Z,,0,,,4574.7280000953615,completion,,,,,false,,,,128571.7000002861,128571.40000009537,123980.115,123986,123996.672,128572.232,8,400,,,
trial,html.Screen,4_5_0,2023-09-12T00:36:46.363Z,,0,1,,4806.668000095364,response,ISIC_4358550.JPG,5,ISIC_0025313.JPG,ISIC_4358550.JPG,false,1,keypress(m),500,133379,133378.90000009537,128555.494,128571.7000002861,128572.232,133398.278,8,400,6,,ISIC_0025313.JPG
break,html.Screen,4_5_1,2023-09-12T00:36:46.363Z,,0,,,NaN,,,,,,false,,,,133379.7000002861,133379.5,,133379.30000019073,,133398.278,8,400,,,
break_continue,html.Screen,4_5_2,2023-09-12T00:36:46.364Z,,0,,,NaN,,,,,,false,,,,133380,133379.90000009537,,133379.80000019073,,133398.278,8,400,,,
sequence,flow.Sequence,4_5,2023-09-12T00:36:46.364Z,,0,,,4807.668000095364,completion,,,,,false,,,,133380.09999990463,133379.90000009537,128555.494,128571.7000002861,128572.232,133398.278,8,400,,,
trial,html.Screen,4_6_0,2023-09-12T00:36:51.492Z,,0,1,,5109.722000000009,response,ISIC_0024752.JPG,5,ISIC_1008321.JPG,ISIC_0024752.JPG,false,1,keypress(m),500,138508.09999990463,138508,133381.718,133380.09999990463,133398.278,138524.93,8,400,7,,ISIC_1008321.JPG
break,html.Screen,4_6_1,2023-09-12T00:36:51.493Z,,0,,,NaN,,,,,,false,,,,138508.80000019073,138508.7000002861,,138508.30000019073,,138524.93,8,400,,,
break_continue,html.Screen,4_6_2,2023-09-12T00:36:51.493Z,,0,,,NaN,,,,,,false,,,,138509.2000002861,138509.09999990463,,138508.90000009537,,138524.93,8,400,,,
sequence,flow.Sequence,4_6,2023-09-12T00:36:51.493Z,,0,,,5110.821999904641,completion,,,,,false,,,,138509.30000019073,138509.09999990463,133381.718,133380.09999990463,133398.278,138524.93,8,400,,,
trial,html.Screen,4_7_0,2023-09-12T00:36:55.821Z,,0,1,,4312.070000000007,response,ISIC_0056790.JPG,5,ISIC_5717433.JPG,ISIC_5717433.JPG,false,0,keypress(z),500,142837.09999990463,142837,138508.214,138509.40000009537,138524.93,142850.003,8,400,8,,ISIC_0056790.JPG
break,html.Screen,4_7_1,2023-09-12T00:36:55.822Z,,0,,,NaN,,,,,,false,,,,142837.59999990463,142837.5,,142837.2000002861,,142850.003,8,400,,,
break_continue,html.Screen,4_7_2,2023-09-12T00:36:55.822Z,,0,,,NaN,,,,,,false,,,,142837.80000019073,142837.80000019073,,142837.59999990463,,142850.003,8,400,,,
sequence,flow.Sequence,4_7,2023-09-12T00:36:55.822Z,,0,,,4312.870000190742,completion,,,,,false,,,,142837.90000009537,142837.80000019073,138508.214,138509.30000019073,138524.93,142850.003,8,400,,,
trial,html.Screen,4_8_0,2023-09-12T00:37:00.545Z,,0,1,,4711.096999904636,response,ISIC_8121679.JPG,5,ISIC_0028129.JPG,ISIC_0028129.JPG,false,0,keypress(z),500,147561.30000019073,147561.09999990463,142833.407,142838,142850.003,147576.06,8,400,9,,ISIC_8121679.JPG
break,html.Screen,4_8_1,2023-09-12T00:37:00.546Z,,0,,,NaN,,,,,,false,,,,147561.90000009537,147561.7000002861,,147561.40000009537,,147576.06,8,400,,,
break_continue,html.Screen,4_8_2,2023-09-12T00:37:00.546Z,,0,,,NaN,,,,,,false,,,,147562.2000002861,147562.09999990463,,147562,,147576.06,8,400,,,
sequence,flow.Sequence,4_8,2023-09-12T00:37:00.546Z,,0,,,4712.096999904636,completion,,,,,false,,,,147562.2000002861,147562.09999990463,142833.407,142838,142850.003,147576.06,8,400,,,
trial,html.Screen,4_9_0,2023-09-12T00:37:05.401Z,,0,1,,4840.539999904635,response,ISIC_0014987.JPG,5,ISIC_1735204.JPG,ISIC_0014987.JPG,false,1,keypress(m),500,152416.7000002861,152416.59999990463,147559.243,147562.40000009537,147576.06,152418.608,8,400,10,,ISIC_1735204.JPG
break,html.Screen,4_9_1,2023-09-12T00:37:05.401Z,,0,,,NaN,,,,,,false,,,,152417.2000002861,152417.09999990463,,152416.80000019073,,152418.608,8,400,,,
break_continue,html.Screen,4_9_2,2023-09-12T00:37:05.401Z,,0,,,NaN,,,,,,false,,,,152417.40000009537,152417.30000019073,,152417.30000019073,,152418.608,8,400,,,
sequence,flow.Sequence,4_9,2023-09-12T00:37:05.402Z,,0,,,4841.240000190737,completion,,,,,false,,,,152417.40000009537,152417.30000019073,147559.243,147562.40000009537,147576.06,152418.608,8,400,,,
trial,html.Screen,4_10_0,2023-09-12T00:37:11.627Z,,0,1,,6224.592000286095,response,ISIC_2707664.JPG,5,ISIC_0000144.JPG,ISIC_0000144.JPG,false,0,keypress(z),500,158643.40000009537,158643.2000002861,152401.954,152417.5,152418.608,158647.476,8,400,11,,ISIC_2707664.JPG
break,html.Screen,4_10_1,2023-09-12T00:37:11.628Z,,0,,,NaN,,,,,,false,,,,158644,158643.7000002861,,158643.5,,158647.476,8,400,,,
break_continue,html.Screen,4_10_2,2023-09-12T00:37:11.628Z,,0,,,NaN,,,,,,false,,,,158644.30000019073,158644.2000002861,,158644,,158647.476,8,400,,,
sequence,flow.Sequence,4_10,2023-09-12T00:37:11.628Z,,0,,,6225.592000286095,completion,,,,,false,,,,158644.40000009537,158644.2000002861,152401.954,152417.40000009537,152418.608,158647.476,8,400,,,
trial,html.Screen,4_11_0,2023-09-12T00:37:17.854Z,,0,1,,6222.82400019074,response,ISIC_0029571.JPG,6,ISIC_0010385.JPG,ISIC_0010385.JPG,false,0,keypress(z),500,164870.40000009537,164870.30000019073,158630.844,158644.40000009537,158647.476,164876.167,8,400,12,,ISIC_0029571.JPG
break,html.Screen,4_11_1,2023-09-12T00:37:17.855Z,,0,,,NaN,,,,,,false,,,,164870.80000019073,164870.7000002861,,164870.40000009537,,164876.167,8,400,,,
break_continue,html.Screen,4_11_2,2023-09-12T00:37:17.855Z,,0,,,NaN,,,,,,false,,,,164871,164870.90000009537,,164870.90000009537,,164876.167,8,400,,,
sequence,flow.Sequence,4_11,2023-09-12T00:37:17.855Z,,0,,,6223.424000095372,completion,,,,,false,,,,164871.09999990463,164870.90000009537,158630.844,158644.40000009537,158647.476,164876.167,8,400,,,
trial,html.Screen,4_12_0,2023-09-12T00:37:24.165Z,,0,1,,6305.033000286116,response,ISIC_4296456.JPG,5,ISIC_0013084.JPG,ISIC_4296456.JPG,false,1,keypress(m),500,171181.40000009537,171181.2000002861,164859.754,164871.09999990463,164876.167,171188.55,8,400,13,,ISIC_0013084.JPG
break,html.Screen,4_12_1,2023-09-12T00:37:24.166Z,,0,,,NaN,,,,,,false,,,,171182.2000002861,171181.90000009537,,171181.59999990463,,171188.55,8,400,,,
break_continue,html.Screen,4_12_2,2023-09-12T00:37:24.167Z,,0,,,NaN,,,,,,false,,,,171182.5,171182.40000009537,,171182.30000019073,,171188.55,8,400,,,
sequence,flow.Sequence,4_12,2023-09-12T00:37:24.167Z,,0,,,6306.233000095381,completion,,,,,false,,,,171182.5,171182.40000009537,164859.754,164871.09999990463,164876.167,171188.55,8,400,,,
trial,html.Screen,4_13_0,2023-09-12T00:37:29.673Z,,0,1,,5499.850000095379,response,ISIC_9196033.JPG,5,ISIC_4582670.JPG,ISIC_4582670.JPG,false,0,keypress(z),500,176688.40000009537,176688.40000009537,171171.897,171182.59999990463,171188.55,176715.877,8,400,14,,ISIC_9196033.JPG
break,html.Screen,4_13_1,2023-09-12T00:37:29.673Z,,0,,,NaN,,,,,,false,,,,176688.80000019073,176688.80000019073,,176688.59999990463,,176715.877,8,400,,,
break_continue,html.Screen,4_13_2,2023-09-12T00:37:29.673Z,,0,,,NaN,,,,,,false,,,,176689.09999990463,176688.90000009537,,176688.90000009537,,176715.877,8,400,,,
sequence,flow.Sequence,4_13,2023-09-12T00:37:29.673Z,,0,,,5500.350000095379,completion,,,,,false,,,,176689.09999990463,176688.90000009537,171171.897,171182.59999990463,171188.55,176715.877,8,400,,,
trial,html.Screen,4_14_0,2023-09-12T00:37:34.747Z,,0,1,,5046.923000190727,response,ISIC_0069087.JPG,4,ISIC_0032565.JPG,ISIC_0069087.JPG,false,1,keypress(m),500,181762.80000019073,181762.80000019073,176699.348,176689.2000002861,176715.877,181775.94,8,400,15,,ISIC_0032565.JPG
break,html.Screen,4_14_1,2023-09-12T00:37:34.747Z,,0,,,NaN,,,,,,false,,,,181763.2000002861,181763.09999990463,,181762.90000009537,,181775.94,8,400,,,
break_continue,html.Screen,4_14_2,2023-09-12T00:37:34.747Z,,0,,,NaN,,,,,,false,,,,181763.40000009537,181763.40000009537,,181763.2000002861,,181775.94,8,400,,,
sequence,flow.Sequence,4_14,2023-09-12T00:37:34.748Z,,0,,,5047.52300009536,completion,,,,,false,,,,181763.40000009537,181763.40000009537,176699.348,176689.2000002861,176715.877,181775.94,8,400,,,
trial,html.Screen,4_15_0,2023-09-12T00:37:41.053Z,,0,1,,6293.059999999998,response,ISIC_2379908.JPG,4,ISIC_0025892.JPG,ISIC_0025892.JPG,false,0,keypress(z),500,188069.2000002861,188069,181759.153,181763.5,181775.94,188071.364,8,400,16,,ISIC_2379908.JPG
break,html.Screen,4_15_1,2023-09-12T00:37:41.054Z,,0,,,NaN,,,,,,false,,,,188069.80000019073,188069.7000002861,,188069.30000019073,,188071.364,8,400,,,
break_continue,html.Screen,4_15_2,2023-09-12T00:37:41.054Z,,0,,,NaN,,,,,,false,,,,188070.09999990463,188070.09999990463,,188070,,188071.364,8,400,,,
sequence,flow.Sequence,4_15,2023-09-12T00:37:41.054Z,,0,,,6294.15999990463,completion,,,,,false,,,,188070.30000019073,188070.09999990463,181759.153,181763.5,181775.94,188071.364,8,400,,,
trial,html.Screen,4_16_0,2023-09-12T00:37:46.016Z,,0,1,,4960.036000095366,response,ISIC_9685931.JPG,6,ISIC_9203914.JPG,ISIC_9685931.JPG,false,1,keypress(m),500,193031.59999990463,193031.40000009537,188054.815,188070.40000009537,188071.364,193047.678,8,400,17,,ISIC_9203914.JPG
break,html.Screen,4_16_1,2023-09-12T00:37:46.016Z,,0,,,NaN,,,,,,false,,,,193032.40000009537,193032.2000002861,,193031.80000019073,,193047.678,8,400,,,
break_continue,html.Screen,4_16_2,2023-09-12T00:37:46.017Z,,0,,,NaN,,,,,,false,,,,193032.7000002861,193032.59999990463,,193032.40000009537,,193047.678,8,400,,,
sequence,flow.Sequence,4_16,2023-09-12T00:37:46.017Z,,0,,,4961.235999904631,completion,,,,,false,,,,193032.80000019073,193032.59999990463,188054.815,188070.30000019073,188071.364,193047.678,8,400,,,
trial,html.Screen,4_17_0,2023-09-12T00:37:52.243Z,,0,1,,6210.522000286088,response,ISIC_3784812.JPG,6,ISIC_4969996.JPG,ISIC_3784812.JPG,false,1,keypress(m),500,199258.30000019073,199258.2000002861,193031.008,193032.90000009537,193047.678,199259.788,8,400,18,,ISIC_4969996.JPG
break,html.Screen,4_17_1,2023-09-12T00:37:52.243Z,,0,,,NaN,,,,,,false,,,,199258.7000002861,199258.59999990463,,199258.40000009537,,199259.788,8,400,,,
break_continue,html.Screen,4_17_2,2023-09-12T00:37:52.243Z,,0,,,NaN,,,,,,false,,,,199258.80000019073,199258.80000019073,,199258.7000002861,,199259.788,8,400,,,
sequence,flow.Sequence,4_17,2023-09-12T00:37:52.243Z,,0,,,6211.12200019072,completion,,,,,false,,,,199259,199258.80000019073,193031.008,193032.80000019073,193047.678,199259.788,8,400,,,
trial,html.Screen,4_18_0,2023-09-12T00:37:58.357Z,,0,1,,6112.2119999999995,response,ISIC_4442490.JPG,5,ISIC_0069093.JPG,ISIC_0069093.JPG,false,0,keypress(z),500,205372.2000002861,205372,199243.14,199259,199259.788,205388.427,8,400,19,,ISIC_4442490.JPG
break,html.Screen,4_18_1,2023-09-12T00:37:58.357Z,,0,,,NaN,,,,,,false,,,,205372.80000019073,205372.59999990463,,205372.2000002861,,205388.427,8,400,,,
break_continue,html.Screen,4_18_2,2023-09-12T00:37:58.357Z,,0,,,NaN,,,,,,false,,,,205373,205373,,205372.80000019073,,205388.427,8,400,,,
sequence,flow.Sequence,4_18,2023-09-12T00:37:58.358Z,,0,,,6113.2119999999995,completion,,,,,false,,,,205373.09999990463,205373,199243.14,199259,199259.788,205388.427,8,400,,,
trial,html.Screen,4_19_0,2023-09-12T00:38:03.656Z,,0,1,,5282.873000190739,response,ISIC_2276141.JPG,5,ISIC_6813359.JPG,ISIC_6813359.JPG,false,0,keypress(z),500,210671.30000019073,210671.30000019073,205371.837,205373.2000002861,205388.427,210682.085,8,400,20,,ISIC_2276141.JPG
break,html.Screen,4_19_1,2023-09-12T00:38:03.656Z,,0,,,NaN,,,,,,false,,,,210671.80000019073,210671.7000002861,,210671.59999990463,,210682.085,8,400,,,
break_continue,html.Screen,4_19_2,2023-09-12T00:38:03.657Z,,0,,,NaN,,,,,,false,,,,210672,210672,,210671.90000009537,,210682.085,8,400,,,
sequence,flow.Sequence,4_19,2023-09-12T00:38:03.657Z,,0,,,5283.573000000004,completion,,,,,false,,,,210672.2000002861,210672,205371.837,205373.2000002861,205388.427,210682.085,8,400,,,
trial,html.Screen,4_20_0,2023-09-12T00:38:10.174Z,,0,1,,6507.315000095376,response,ISIC_8617277.JPG,9,ISIC_0015023.JPG,ISIC_8617277.JPG,false,1,keypress(m),500,217189.59999990463,217189.40000009537,210665.336,210672.30000019073,210682.085,217194.724,8,400,21,,ISIC_0015023.JPG
break,html.Screen,4_20_1,2023-09-12T00:38:10.174Z,,0,,,NaN,,,,,,false,,,,217190,217189.90000009537,,217189.59999990463,,217194.724,8,400,,,
break_continue,html.Screen,4_20_2,2023-09-12T00:38:10.175Z,,0,,,NaN,,,,,,false,,,,217190.2000002861,217190.09999990463,,217190,,217194.724,8,400,,,
sequence,flow.Sequence,4_20,2023-09-12T00:38:10.175Z,,0,,,6508.014999904641,completion,,,,,false,,,,217190.30000019073,217190.09999990463,210665.336,210672.30000019073,210682.085,217194.724,8,400,,,
trial,html.Screen,4_21_0,2023-09-12T00:38:15.256Z,,0,1,,5076.476000286115,response,ISIC_3775417.JPG,5,ISIC_1105263.JPG,ISIC_1105263.JPG,false,0,keypress(z),500,222271.40000009537,222271.2000002861,217177.957,217190.30000019073,217194.724,222288.081,8,400,22,,ISIC_3775417.JPG
break,html.Screen,4_21_1,2023-09-12T00:38:15.257Z,,0,,,NaN,,,,,,false,,,,222272.30000019073,222272,,222271.7000002861,,222288.081,8,400,,,
break_continue,html.Screen,4_21_2,2023-09-12T00:38:15.257Z,,0,,,NaN,,,,,,false,,,,222272.80000019073,222272.7000002861,,222272.5,,222288.081,8,400,,,
sequence,flow.Sequence,4_21,2023-09-12T00:38:15.257Z,,0,,,5077.976000286115,completion,,,,,false,,,,222273,222272.7000002861,217177.957,217190.30000019073,217194.724,222288.081,8,400,,,
trial,html.Screen,4_22_0,2023-09-12T00:38:20.209Z,,0,1,,4936.719000190729,response,ISIC_0046626.JPG,6,ISIC_4348994.JPG,ISIC_0046626.JPG,false,1,keypress(m),500,227225,227224.80000019073,222271.224,222273.2000002861,222288.081,227247.59,8,400,23,,ISIC_4348994.JPG
break,html.Screen,4_22_1,2023-09-12T00:38:20.210Z,,0,,,NaN,,,,,,false,,,,227225.5,227225.40000009537,,227225.2000002861,,227247.59,8,400,,,
break_continue,html.Screen,4_22_2,2023-09-12T00:38:20.210Z,,0,,,NaN,,,,,,false,,,,227225.80000019073,227225.7000002861,,227225.59999990463,,227247.59,8,400,,,
sequence,flow.Sequence,4_22,2023-09-12T00:38:20.210Z,,0,,,4937.619000286097,completion,,,,,false,,,,227225.80000019073,227225.7000002861,222271.224,222273.09999990463,222288.081,227247.59,8,400,,,
trial,html.Screen,4_23_0,2023-09-12T00:38:26.073Z,,0,1,,5840.710000190738,response,ISIC_0062111.JPG,5,ISIC_1388297.JPG,ISIC_0062111.JPG,false,1,keypress(m),500,233088.40000009537,233088.30000019073,227230.942,227225.80000019073,227247.59,233092.294,8,400,24,,ISIC_1388297.JPG
break,html.Screen,4_23_1,2023-09-12T00:38:26.073Z,,0,,,NaN,,,,,,false,,,,233088.90000009537,233088.90000009537,,233088.59999990463,,233092.294,8,400,,,
break_continue,html.Screen,4_23_2,2023-09-12T00:38:26.074Z,,0,,,NaN,,,,,,false,,,,233089.2000002861,233089.09999990463,,233089,,233092.294,8,400,,,
sequence,flow.Sequence,4_23,2023-09-12T00:38:26.074Z,,0,,,5841.509999904636,completion,,,,,false,,,,233089.30000019073,233089.09999990463,227230.942,227225.80000019073,227247.59,233092.294,8,400,,,
trial,html.Screen,4_24_0,2023-09-12T00:38:31.600Z,,0,1,,5523.50600019074,response,ISIC_9562157.JPG,6,ISIC_5234605.JPG,ISIC_5234605.JPG,false,0,keypress(z),500,238616,238615.80000019073,233075.781,233089.40000009537,233092.294,238619.745,8,400,25,,ISIC_9562157.JPG
break,html.Screen,4_24_1,2023-09-12T00:38:31.601Z,,0,,,NaN,,,,,,false,,,,238616.90000009537,238616.59999990463,,238616.09999990463,,238619.745,8,400,,,
break_continue,html.Screen,4_24_2,2023-09-12T00:38:31.602Z,,0,,,NaN,,,,,,false,,,,238617.2000002861,238617.09999990463,,238616.90000009537,,238619.745,8,400,,,
sequence,flow.Sequence,4_24,2023-09-12T00:38:31.602Z,,0,,,5524.805999904638,completion,,,,,false,,,,238617.30000019073,238617.09999990463,233075.781,233089.40000009537,233092.294,238619.745,8,400,,,
trial,html.Screen,4_25_0,2023-09-12T00:38:37.142Z,,0,1,,5537.5550001907395,response,ISIC_0546980.JPG,6,ISIC_9197665.JPG,ISIC_9197665.JPG,false,0,keypress(z),500,244157.30000019073,244157.30000019073,238603.107,238617.40000009537,238619.745,244163.83,8,400,26,,ISIC_0546980.JPG
break,html.Screen,4_25_1,2023-09-12T00:38:37.142Z,,0,,,NaN,,,,,,false,,,,244157.80000019073,244157.7000002861,,244157.40000009537,,244163.83,8,400,,,
break_continue,html.Screen,4_25_2,2023-09-12T00:38:37.142Z,,0,,,NaN,,,,,,false,,,,244157.90000009537,244157.90000009537,,244157.80000019073,,244163.83,8,400,,,
sequence,flow.Sequence,4_25,2023-09-12T00:38:37.142Z,,0,,,5538.155000095372,completion,,,,,false,,,,244158,244157.90000009537,238603.107,238617.40000009537,238619.745,244163.83,8,400,,,
trial,html.Screen,4_26_0,2023-09-12T00:38:41.624Z,,0,1,,4475.269999904645,response,ISIC_0055361.JPG,6,ISIC_9694867.JPG,ISIC_0055361.JPG,false,1,keypress(m),500,248639.40000009537,248639.09999990463,244147.222,244158.09999990463,244163.83,248672.616,8,400,27,,ISIC_9694867.JPG
break,html.Screen,4_26_1,2023-09-12T00:38:41.625Z,,0,,,NaN,,,,,,false,,,,248640.7000002861,248640.5,,248639.90000009537,,248672.616,8,400,,,
break_continue,html.Screen,4_26_2,2023-09-12T00:38:41.626Z,,0,,,NaN,,,,,,false,,,,248641.09999990463,248641.09999990463,,248640.80000019073,,248672.616,8,400,,,
sequence,flow.Sequence,4_26,2023-09-12T00:38:41.626Z,,0,,,4477.269999904645,completion,,,,,false,,,,248641.30000019073,248641.09999990463,244147.222,244158.09999990463,244163.83,248672.616,8,400,,,
trial,html.Screen,4_27_0,2023-09-12T00:38:47.725Z,,0,1,,6067.383999999991,response,ISIC_3447331.JPG,5,ISIC_4374944.JPG,ISIC_4374944.JPG,false,0,keypress(z),500,254740.2000002861,254740,248656.031,248641.40000009537,248672.616,254751.078,8,400,28,,ISIC_3447331.JPG
break,html.Screen,4_27_1,2023-09-12T00:38:47.725Z,,0,,,NaN,,,,,,false,,,,254740.5,254740.40000009537,,254740.2000002861,,254751.078,8,400,,,
break_continue,html.Screen,4_27_2,2023-09-12T00:38:47.725Z,,0,,,NaN,,,,,,false,,,,254740.7000002861,254740.59999990463,,254740.59999990463,,254751.078,8,400,,,
sequence,flow.Sequence,4_27,2023-09-12T00:38:47.725Z,,0,,,6067.9839999046235,completion,,,,,false,,,,254740.80000019073,254740.59999990463,248656.031,248641.40000009537,248672.616,254751.078,8,400,,,
trial,html.Screen,4_28_0,2023-09-12T00:38:53.123Z,,0,1,,5387.322000095359,response,ISIC_0026500.JPG,4,ISIC_8274622.JPG,ISIC_0026500.JPG,false,1,keypress(m),500,260138.59999990463,260138.40000009537,254734.534,254740.80000019073,254751.078,260144.929,8,400,29,,ISIC_8274622.JPG
break,html.Screen,4_28_1,2023-09-12T00:38:53.124Z,,0,,,NaN,,,,,,false,,,,260139.09999990463,260138.90000009537,,260138.7000002861,,260144.929,8,400,,,
break_continue,html.Screen,4_28_2,2023-09-12T00:38:53.124Z,,0,,,NaN,,,,,,false,,,,260139.30000019073,260139.30000019073,,260139.2000002861,,260144.929,8,400,,,
sequence,flow.Sequence,4_28,2023-09-12T00:38:53.124Z,,0,,,5388.222000190726,completion,,,,,false,,,,260139.40000009537,260139.30000019073,254734.534,254740.80000019073,254751.078,260144.929,8,400,,,
trial,html.Screen,4_29_0,2023-09-12T00:38:59.241Z,,0,1,,6110.871000190731,response,ISIC_0010962.JPG,5,ISIC_0046422.JPG,ISIC_0046422.JPG,false,0,keypress(z),500,266256.09999990463,266255.80000019073,260128.243,260139.5,260144.929,266273.526,8,400,30,,ISIC_0010962.JPG
break,html.Screen,4_29_1,2023-09-12T00:38:59.243Z,,0,,,NaN,,,,,,false,,,,266258.30000019073,266257.09999990463,,266256.40000009537,,266273.526,8,400,,,
break_continue,html.Screen,4_29_2,2023-09-12T00:38:59.244Z,,0,,,NaN,,,,,,false,,,,266259.2000002861,266259.09999990463,,266258.7000002861,,266273.526,8,400,,,
sequence,flow.Sequence,4_29,2023-09-12T00:38:59.244Z,,0,,,6114.170999904629,completion,,,,,false,,,,266259.5,266259.09999990463,260128.243,260139.5,260144.929,266273.526,8,400,,,
trial,html.Screen,4_30_0,2023-09-12T00:39:03.775Z,,0,1,,4517.17400028609,response,ISIC_0011488.JPG,6,ISIC_9015182.JPG,ISIC_0011488.JPG,false,1,keypress(m),500,270790.90000009537,270790.7000002861,266256.837,266259.59999990463,266273.526,270799,8,400,31,,ISIC_9015182.JPG
break,html.Screen,4_30_1,2023-09-12T00:39:03.776Z,,0,,,NaN,,,,,,false,,,,270791.40000009537,270791.30000019073,,270791,,270799,8,400,,,
break_continue,html.Screen,4_30_2,2023-09-12T00:39:03.776Z,,0,,,NaN,,,,,,false,,,,270791.59999990463,270791.5,,270791.5,,270799,8,400,,,
sequence,flow.Sequence,4_30,2023-09-12T00:39:03.776Z,,0,,,4517.973999999987,completion,,,,,false,,,,270791.7000002861,270791.5,266256.837,266259.59999990463,266273.526,270799,8,400,,,
trial,html.Screen,4_31_0,2023-09-12T00:39:08.866Z,,0,1,,5082.400000095367,response,ISIC_1962845.JPG,6,ISIC_8147542.JPG,ISIC_1962845.JPG,false,1,keypress(m),500,275881.5,275881.40000009537,270782.415,270791.80000019073,270799,275892.236,8,400,32,,ISIC_8147542.JPG
break,html.Screen,4_31_1,2023-09-12T00:39:08.866Z,,0,,,NaN,,,,,,false,,,,275881.90000009537,275881.80000019073,,275881.59999990463,,275892.236,8,400,,,
break_continue,html.Screen,4_31_2,2023-09-12T00:39:08.867Z,,0,,,NaN,,,,,,false,,,,275882.09999990463,275882.09999990463,,275882,,275892.236,8,400,,,
sequence,flow.Sequence,4_31,2023-09-12T00:39:08.867Z,,0,,,5083.099999904633,completion,,,,,false,,,,275882.09999990463,275882.09999990463,270782.415,270791.80000019073,270799,275892.236,8,400,,,
trial,html.Screen,4_32_0,2023-09-12T00:39:14.100Z,,0,1,,5222.964000286127,response,ISIC_3568218.JPG,5,ISIC_7567699.JPG,ISIC_3568218.JPG,false,1,keypress(m),500,281115.30000019073,281115.2000002861,275875.537,275882.2000002861,275892.236,281119.086,8,400,33,,ISIC_7567699.JPG
break,html.Screen,4_32_1,2023-09-12T00:39:14.100Z,,0,,,NaN,,,,,,false,,,,281115.7000002861,281115.7000002861,,281115.40000009537,,281119.086,8,400,,,
break_continue,html.Screen,4_32_2,2023-09-12T00:39:14.100Z,,0,,,NaN,,,,,,false,,,,281116,281115.90000009537,,281115.80000019073,,281119.086,8,400,,,
sequence,flow.Sequence,4_32,2023-09-12T00:39:14.100Z,,0,,,5223.664000095392,completion,,,,,false,,,,281116.09999990463,281115.90000009537,275875.537,275882.09999990463,275892.236,281119.086,8,400,,,
trial,html.Screen,4_33_0,2023-09-12T00:39:19.150Z,,0,1,,5046.013999904622,response,ISIC_9171071.JPG,4,ISIC_0602494.JPG,ISIC_9171071.JPG,false,1,keypress(m),500,286165.2000002861,286165.09999990463,281102.396,281116.09999990463,281119.086,286179.023,8,400,34,,ISIC_0602494.JPG
break,html.Screen,4_33_1,2023-09-12T00:39:19.150Z,,0,,,NaN,,,,,,false,,,,286165.59999990463,286165.5,,286165.30000019073,,286179.023,8,400,,,
break_continue,html.Screen,4_33_2,2023-09-12T00:39:19.150Z,,0,,,NaN,,,,,,false,,,,286165.80000019073,286165.80000019073,,286165.59999990463,,286179.023,8,400,,,
sequence,flow.Sequence,4_33,2023-09-12T00:39:19.150Z,,0,,,5046.714000190725,completion,,,,,false,,,,286165.80000019073,286165.80000019073,281102.396,281116.09999990463,281119.086,286179.023,8,400,,,
trial,html.Screen,4_34_0,2023-09-12T00:39:23.424Z,,0,1,,4259.9770000000135,response,ISIC_0024757.JPG,5,ISIC_0025020.JPG,ISIC_0024757.JPG,false,1,keypress(m),500,290439.2000002861,290439,286162.396,286165.90000009537,286179.023,290453.912,8,400,35,,ISIC_0025020.JPG
break,html.Screen,4_34_1,2023-09-12T00:39:23.424Z,,0,,,NaN,,,,,,false,,,,290439.80000019073,290439.5,,290439.30000019073,,290453.912,8,400,,,
break_continue,html.Screen,4_34_2,2023-09-12T00:39:23.425Z,,0,,,NaN,,,,,,false,,,,290440.09999990463,290440,,290439.90000009537,,290453.912,8,400,,,
sequence,flow.Sequence,4_34,2023-09-12T00:39:23.425Z,,0,,,4260.9770000000135,completion,,,,,false,,,,290440.2000002861,290440,286162.396,286165.90000009537,286179.023,290453.912,8,400,,,
trial,html.Screen,4_35_0,2023-09-12T00:39:29.699Z,,0,1,,6260.488000095356,response,ISIC_0056326.JPG,5,ISIC_9947624.JPG,ISIC_9947624.JPG,false,0,keypress(z),500,296714.59999990463,296714.40000009537,290437.199,290440.2000002861,290453.912,296732.845,8,400,36,,ISIC_0056326.JPG
break,html.Screen,4_35_1,2023-09-12T00:39:29.700Z,,0,,,NaN,,,,,,false,,,,296715.09999990463,296714.90000009537,,296714.59999990463,,296732.845,8,400,,,
break_continue,html.Screen,4_35_2,2023-09-12T00:39:29.700Z,,0,,,NaN,,,,,,false,,,,296715.5,296715.40000009537,,296715.2000002861,,296732.845,8,400,,,
sequence,flow.Sequence,4_35,2023-09-12T00:39:29.700Z,,0,,,6261.488000095356,completion,,,,,false,,,,296715.59999990463,296715.40000009537,290437.199,290440.2000002861,290453.912,296732.845,8,400,,,
trial,html.Screen,4_36_0,2023-09-12T00:39:34.790Z,,0,1,,5072.7549999046605,response,ISIC_2506200.JPG,5,ISIC_2509304.JPG,ISIC_2506200.JPG,false,1,keypress(m),500,301805.7000002861,301805.59999990463,296716.095,296715.7000002861,296732.845,301809.33,8,400,37,,ISIC_2509304.JPG
break,html.Screen,4_36_1,2023-09-12T00:39:34.791Z,,0,,,NaN,,,,,,false,,,,301806.09999990463,301806,,301805.90000009537,,301809.33,8,400,,,
break_continue,html.Screen,4_36_2,2023-09-12T00:39:34.791Z,,0,,,NaN,,,,,,false,,,,301806.40000009537,301806.40000009537,,301806.2000002861,,301809.33,8,400,,,
sequence,flow.Sequence,4_36,2023-09-12T00:39:34.791Z,,0,,,5073.555000095395,completion,,,,,false,,,,301806.5,301806.40000009537,296716.095,296715.7000002861,296732.845,301809.33,8,400,,,
trial,html.Screen,4_37_0,2023-09-12T00:39:39.681Z,,0,1,,4886.870000286086,response,ISIC_6647306.JPG,6,ISIC_1253960.JPG,ISIC_1253960.JPG,false,0,keypress(z),500,306696.30000019073,306696.2000002861,301792.66,301806.5,301809.33,306718.872,8,400,38,,ISIC_6647306.JPG
break,html.Screen,4_37_1,2023-09-12T00:39:39.681Z,,0,,,NaN,,,,,,false,,,,306696.90000009537,306696.59999990463,,306696.5,,306718.872,8,400,,,
break_continue,html.Screen,4_37_2,2023-09-12T00:39:39.682Z,,0,,,NaN,,,,,,false,,,,306697.2000002861,306697,,306696.90000009537,,306718.872,8,400,,,
sequence,flow.Sequence,4_37,2023-09-12T00:39:39.682Z,,0,,,4887.669999999984,completion,,,,,false,,,,306697.2000002861,306697,301792.66,301806.5,301809.33,306718.872,8,400,,,
trial,html.Screen,4_38_0,2023-09-12T00:39:45.251Z,,0,1,,5547.828000286128,response,ISIC_0029698.JPG,5,ISIC_9588065.JPG,ISIC_0029698.JPG,false,1,keypress(m),500,312266.90000009537,312266.7000002861,306702.294,306697.30000019073,306718.872,312279.762,8,400,39,,ISIC_9588065.JPG
break,html.Screen,4_38_1,2023-09-12T00:39:45.252Z,,0,,,NaN,,,,,,false,,,,312267.40000009537,312267.2000002861,,312267,,312279.762,8,400,,,
break_continue,html.Screen,4_38_2,2023-09-12T00:39:45.252Z,,0,,,NaN,,,,,,false,,,,312267.5,312267.5,,312267.40000009537,,312279.762,8,400,,,
sequence,flow.Sequence,4_38,2023-09-12T00:39:45.252Z,,0,,,5548.628000000026,completion,,,,,false,,,,312267.7000002861,312267.5,306702.294,306697.30000019073,306718.872,312279.762,8,400,,,
trial,html.Screen,4_39_0,2023-09-12T00:39:49.734Z,,0,1,,4469.6380000953795,response,ISIC_6779421.JPG,4,ISIC_0033957.JPG,ISIC_0033957.JPG,false,0,keypress(z),500,316749.5,316749.40000009537,312263.109,312267.7000002861,312279.762,316771.805,8,400,40,,ISIC_6779421.JPG
break,html.Screen,4_39_1,2023-09-12T00:39:49.735Z,,0,,,NaN,,,,,,false,,,,316750.2000002861,316750,,316749.7000002861,,316771.805,8,400,,,
break_continue,html.Screen,4_39_2,2023-09-12T00:39:49.735Z,,0,,,NaN,,,,,,false,,,,316750.40000009537,316750.40000009537,,316750.2000002861,,316771.805,8,400,,,
sequence,flow.Sequence,4_39,2023-09-12T00:39:49.735Z,,0,,,4470.6380000953795,completion,,,,,false,,,,316750.59999990463,316750.40000009537,312263.109,312267.7000002861,312279.762,316771.805,8,400,,,
trial,html.Screen,4_40_0,2023-09-12T00:39:55.809Z,,0,1,,6051.895000286109,response,ISIC_8325260.JPG,4,ISIC_8066110.JPG,ISIC_8325260.JPG,false,1,keypress(m),500,322823.90000009537,322823.7000002861,316755.126,316750.59999990463,316771.805,322833.649,8,400,41,,ISIC_8066110.JPG
break,html.Screen,4_40_1,2023-09-12T00:39:55.810Z,,0,,,NaN,,,,,,false,,,,322824.5,322824.30000019073,,322824,,322833.649,8,400,,,
break_continue,html.Screen,4_40_2,2023-09-12T00:39:55.810Z,,0,,,NaN,,,,,,false,,,,322824.80000019073,322824.7000002861,,322824.59999990463,,322833.649,8,400,,,
sequence,flow.Sequence,4_40,2023-09-12T00:39:55.810Z,,0,,,6052.895000286109,completion,,,,,false,,,,322824.90000009537,322824.7000002861,316755.126,316750.59999990463,316771.805,322833.649,8,400,,,
trial,html.Screen,4_41_0,2023-09-12T00:40:00.998Z,,0,1,,5179.151000190759,response,ISIC_0063672.JPG,6,ISIC_8234773.JPG,ISIC_8234773.JPG,false,0,keypress(z),500,328012.90000009537,328012.80000019073,322816.942,322824.90000009537,322833.649,328027.051,8,400,42,,ISIC_0063672.JPG
break,html.Screen,4_41_1,2023-09-12T00:40:00.998Z,,0,,,NaN,,,,,,false,,,,328013.40000009537,328013.2000002861,,328013.09999990463,,328027.051,8,400,,,
break_continue,html.Screen,4_41_2,2023-09-12T00:40:00.999Z,,0,,,NaN,,,,,,false,,,,328013.5,328013.40000009537,,328013.40000009537,,328027.051,8,400,,,
sequence,flow.Sequence,4_41,2023-09-12T00:40:00.999Z,,0,,,5179.751000095392,completion,,,,,false,,,,328013.5,328013.40000009537,322816.942,322824.90000009537,322833.649,328027.051,8,400,,,
trial,html.Screen,4_42_0,2023-09-12T00:40:06.184Z,,0,1,,5172.249000190757,response,ISIC_0027797.JPG,5,ISIC_7365615.JPG,ISIC_7365615.JPG,false,0,keypress(z),500,333199.40000009537,333199.30000019073,328010.367,328013.7000002861,328027.051,333220.439,8,400,43,,ISIC_0027797.JPG
break,html.Screen,4_42_1,2023-09-12T00:40:06.185Z,,0,,,NaN,,,,,,false,,,,333199.90000009537,333199.7000002861,,333199.5,,333220.439,8,400,,,
break_continue,html.Screen,4_42_2,2023-09-12T00:40:06.185Z,,0,,,NaN,,,,,,false,,,,333200.09999990463,333200,,333199.90000009537,,333220.439,8,400,,,
sequence,flow.Sequence,4_42,2023-09-12T00:40:06.185Z,,0,,,5172.949000000022,completion,,,,,false,,,,333200.09999990463,333200,328010.367,328013.59999990463,328027.051,333220.439,8,400,,,
trial,html.Screen,4_43_0,2023-09-12T00:40:10.848Z,,0,1,,4642.1609999046195,response,ISIC_4252285.JPG,4,ISIC_0032377.JPG,ISIC_0032377.JPG,false,0,keypress(z),500,337862.80000019073,337862.59999990463,333203.867,333200.2000002861,333220.439,337879.703,8,400,44,,ISIC_4252285.JPG
break,html.Screen,4_43_1,2023-09-12T00:40:10.849Z,,0,,,NaN,,,,,,false,,,,337863.5,337863.30000019073,,337863,,337879.703,8,400,,,
break_continue,html.Screen,4_43_2,2023-09-12T00:40:10.849Z,,0,,,NaN,,,,,,false,,,,337863.90000009537,337863.80000019073,,337863.59999990463,,337879.703,8,400,,,
sequence,flow.Sequence,4_43,2023-09-12T00:40:10.849Z,,0,,,4643.361000190722,completion,,,,,false,,,,337864.09999990463,337863.80000019073,333203.867,333200.09999990463,333220.439,337879.703,8,400,,,
trial,html.Screen,4_44_0,2023-09-12T00:40:16.195Z,,0,1,,5330.097000190755,response,ISIC_1689678.JPG,5,ISIC_0064472.JPG,ISIC_1689678.JPG,false,1,keypress(m),500,343209.90000009537,343209.80000019073,337862.853,337864.09999990463,337879.703,343239.978,8,400,45,,ISIC_0064472.JPG
break,html.Screen,4_44_1,2023-09-12T00:40:16.196Z,,0,,,NaN,,,,,,false,,,,343210.40000009537,343210.30000019073,,343210,,343239.978,8,400,,,
break_continue,html.Screen,4_44_2,2023-09-12T00:40:16.196Z,,0,,,NaN,,,,,,false,,,,343210.90000009537,343210.80000019073,,343210.59999990463,,343239.978,8,400,,,
sequence,flow.Sequence,4_44,2023-09-12T00:40:16.196Z,,0,,,5331.097000190755,completion,,,,,false,,,,343211,343210.80000019073,337862.853,337864.09999990463,337879.703,343239.978,8,400,,,
trial,html.Screen,4_45_0,2023-09-12T00:40:21.677Z,,0,1,,5451.922000095365,response,ISIC_2245709.JPG,5,ISIC_9728003.JPG,ISIC_2245709.JPG,false,1,keypress(m),500,348692,348691.90000009537,343223.347,343211,343239.978,348700.578,8,400,46,,ISIC_9728003.JPG
break,html.Screen,4_45_1,2023-09-12T00:40:21.678Z,,0,,,NaN,,,,,,false,,,,348692.5,348692.30000019073,,348692.09999990463,,348700.578,8,400,,,
break_continue,html.Screen,4_45_2,2023-09-12T00:40:21.678Z,,0,,,NaN,,,,,,false,,,,348692.80000019073,348692.80000019073,,348692.7000002861,,348700.578,8,400,,,
sequence,flow.Sequence,4_45,2023-09-12T00:40:21.678Z,,0,,,5452.822000190732,completion,,,,,false,,,,348693,348692.80000019073,343223.347,343211,343239.978,348700.578,8,400,,,
trial,html.Screen,4_46_0,2023-09-12T00:40:26.585Z,,0,1,,4899.622000286123,response,ISIC_2161819.JPG,5,ISIC_9511832.JPG,ISIC_2161819.JPG,false,1,keypress(m),500,353600.40000009537,353600.2000002861,348683.982,348693,348700.578,353610.198,8,400,47,,ISIC_9511832.JPG
break,html.Screen,4_46_1,2023-09-12T00:40:26.586Z,,0,,,NaN,,,,,,false,,,,353601.09999990463,353601,,353600.59999990463,,353610.198,8,400,,,
break_continue,html.Screen,4_46_2,2023-09-12T00:40:26.587Z,,0,,,NaN,,,,,,false,,,,353601.40000009537,353601.40000009537,,353601.2000002861,,353610.198,8,400,,,
sequence,flow.Sequence,4_46,2023-09-12T00:40:26.587Z,,0,,,4900.822000095388,completion,,,,,false,,,,353601.7000002861,353601.40000009537,348683.982,348693,348700.578,353610.198,8,400,,,
trial,html.Screen,4_47_0,2023-09-12T00:40:31.388Z,,0,1,,4792.60200019076,response,ISIC_0845105.JPG,5,ISIC_9027622.JPG,ISIC_9027622.JPG,false,0,keypress(z),500,358403,358402.80000019073,353593.624,353601.7000002861,353610.198,358419.514,8,400,48,,ISIC_0845105.JPG
break,html.Screen,4_47_1,2023-09-12T00:40:31.389Z,,0,,,NaN,,,,,,false,,,,358403.80000019073,358403.5,,358403.2000002861,,358419.514,8,400,,,
break_continue,html.Screen,4_47_2,2023-09-12T00:40:31.389Z,,0,,,NaN,,,,,,false,,,,358404.30000019073,358404.09999990463,,358404,,358419.514,8,400,,,
sequence,flow.Sequence,4_47,2023-09-12T00:40:31.389Z,,0,,,4793.901999904658,completion,,,,,false,,,,358404.30000019073,358404.09999990463,353593.624,353601.7000002861,353610.198,358419.514,8,400,,,
trial,html.Screen,4_48_0,2023-09-12T00:40:36.977Z,,0,1,,5572.686000286078,response,ISIC_6430210.JPG,6,ISIC_9048507.JPG,ISIC_9048507.JPG,false,0,keypress(z),500,363992.30000019073,363992.2000002861,358402.879,358404.40000009537,358419.514,363997.01,8,400,49,,ISIC_6430210.JPG
break,html.Screen,4_48_1,2023-09-12T00:40:36.978Z,,0,,,NaN,,,,,,false,,,,363992.90000009537,363992.7000002861,,363992.5,,363997.01,8,400,,,
break_continue,html.Screen,4_48_2,2023-09-12T00:40:36.978Z,,0,,,NaN,,,,,,false,,,,363993.2000002861,363993.09999990463,,363993,,363997.01,8,400,,,
sequence,flow.Sequence,4_48,2023-09-12T00:40:36.978Z,,0,,,5573.585999904608,completion,,,,,false,,,,363993.30000019073,363993.09999990463,358402.879,358404.40000009537,358419.514,363997.01,8,400,,,
trial,html.Screen,4_49_0,2023-09-12T00:40:43.331Z,,0,1,,6348.989999999991,response,ISIC_0016085.JPG,5,ISIC_5758316.JPG,ISIC_0016085.JPG,false,1,keypress(m),500,370346.09999990463,370346,363980.35,363993.40000009537,363997.01,370359.4,8,400,50,,ISIC_5758316.JPG
break,html.Screen,4_49_1,2023-09-12T00:40:53.332Z,,0,,,10003.016000000003,timeout,,,,,false,,,,380347.2000002861,380345.657,370342.737,370346.30000019073,370359.4,380362.416,8,400,,,
break_continue,html.Screen,4_49_2,2023-09-12T00:40:56.221Z,,0,,,2862.484000095341,response,,,,,false,continue,keypress(Space),,383236.09999990463,383224.90000009537,380345.657,380347.40000009537,380362.416,383251.378,8,400,,,
sequence,flow.Sequence,4_49,2023-09-12T00:40:56.221Z,,0,,,19227.890000095358,completion,,,,,false,,,,383236.30000019073,383224.90000009537,363980.35,363993.40000009537,363997.01,383251.378,8,400,,,
trial,html.Screen,4_50_0,2023-09-12T00:41:00.657Z,,0,2,,4421.022000095341,response,ISIC_4055288.JPG,5,ISIC_0069248.JPG,ISIC_0069248.JPG,false,0,keypress(z),500,387672.40000009537,387672.40000009537,383234.547,383236.30000019073,383251.378,387676.457,8,400,1,,ISIC_4055288.JPG
break,html.Screen,4_50_1,2023-09-12T00:41:00.658Z,,0,,,NaN,,,,,,false,,,,387673,387672.80000019073,,387672.59999990463,,387676.457,8,400,,,
break_continue,html.Screen,4_50_2,2023-09-12T00:41:00.658Z,,0,,,NaN,,,,,,false,,,,387673.30000019073,387673.30000019073,,387673.09999990463,,387676.457,8,400,,,
sequence,flow.Sequence,4_50,2023-09-12T00:41:00.658Z,,0,,,4421.922000190709,completion,,,,,false,,,,387673.40000009537,387673.30000019073,383234.547,383236.30000019073,383251.378,387676.457,8,400,,,
trial,html.Screen,4_51_0,2023-09-12T00:41:05.419Z,,0,2,,4757.243000286107,response,ISIC_0385633.JPG,5,ISIC_0032341.JPG,ISIC_0032341.JPG,false,0,keypress(z),500,392433.90000009537,392433.7000002861,387659.738,387673.40000009537,387676.457,392435.703,8,400,2,,ISIC_0385633.JPG
break,html.Screen,4_51_1,2023-09-12T00:41:05.419Z,,0,,,NaN,,,,,,false,,,,392434.59999990463,392434.40000009537,,392434.09999990463,,392435.703,8,400,,,
break_continue,html.Screen,4_51_2,2023-09-12T00:41:05.420Z,,0,,,NaN,,,,,,false,,,,392434.80000019073,392434.80000019073,,392434.7000002861,,392435.703,8,400,,,
sequence,flow.Sequence,4_51,2023-09-12T00:41:05.420Z,,0,,,4758.34300019074,completion,,,,,false,,,,392434.90000009537,392434.80000019073,387659.738,387673.40000009537,387676.457,392435.703,8,400,,,
trial,html.Screen,4_52_0,2023-09-12T00:41:09.555Z,,0,2,,4134.197000095388,response,ISIC_0031039.JPG,5,ISIC_9586758.JPG,ISIC_0031039.JPG,false,1,keypress(m),500,396570,396569.90000009537,392419.092,392435,392435.703,396577.153,8,400,3,,ISIC_9586758.JPG
break,html.Screen,4_52_1,2023-09-12T00:41:09.555Z,,0,,,NaN,,,,,,false,,,,396570.5,396570.40000009537,,396570.09999990463,,396577.153,8,400,,,
break_continue,html.Screen,4_52_2,2023-09-12T00:41:09.556Z,,0,,,NaN,,,,,,false,,,,396570.7000002861,396570.7000002861,,396570.5,,396577.153,8,400,,,
sequence,flow.Sequence,4_52,2023-09-12T00:41:09.556Z,,0,,,4134.997000286123,completion,,,,,false,,,,396570.90000009537,396570.7000002861,392419.092,392435,392435.703,396577.153,8,400,,,
trial,html.Screen,4_53_0,2023-09-12T00:41:14.149Z,,0,2,,4587.047000286111,response,ISIC_8357420.JPG,6,ISIC_5706956.JPG,ISIC_8357420.JPG,false,1,keypress(m),500,401164.30000019073,401164.2000002861,396560.527,396571,396577.153,401169.36,8,400,4,,ISIC_5706956.JPG
break,html.Screen,4_53_1,2023-09-12T00:41:14.150Z,,0,,,NaN,,,,,,false,,,,401164.80000019073,401164.59999990463,,401164.40000009537,,401169.36,8,400,,,
break_continue,html.Screen,4_53_2,2023-09-12T00:41:14.150Z,,0,,,NaN,,,,,,false,,,,401164.90000009537,401164.80000019073,,401164.80000019073,,401169.36,8,400,,,
sequence,flow.Sequence,4_53,2023-09-12T00:41:14.150Z,,0,,,4587.647000190744,completion,,,,,false,,,,401165,401164.80000019073,396560.527,396571,396577.153,401169.36,8,400,,,
trial,html.Screen,4_54_0,2023-09-12T00:41:18.264Z,,0,2,,4109.540000095381,response,ISIC_7505369.JPG,6,ISIC_5988539.JPG,ISIC_5988539.JPG,false,0,keypress(z),500,405279,405278.90000009537,401152.681,401165,401169.36,405294.085,8,400,5,,ISIC_7505369.JPG
break,html.Screen,4_54_1,2023-09-12T00:41:18.264Z,,0,,,NaN,,,,,,false,,,,405279.40000009537,405279.30000019073,,405279.09999990463,,405294.085,8,400,,,
break_continue,html.Screen,4_54_2,2023-09-12T00:41:18.264Z,,0,,,NaN,,,,,,false,,,,405279.59999990463,405279.5,,405279.40000009537,,405294.085,8,400,,,
sequence,flow.Sequence,4_54,2023-09-12T00:41:18.264Z,,0,,,4110.140000000014,completion,,,,,false,,,,405279.59999990463,405279.5,401152.681,401165,401169.36,405294.085,8,400,,,
trial,html.Screen,4_55_0,2023-09-12T00:41:24.256Z,,0,2,,5977.014999904612,response,ISIC_6912979.JPG,5,ISIC_0010618.JPG,ISIC_0010618.JPG,false,0,keypress(z),500,411271.2000002861,411271.09999990463,405277.471,405279.80000019073,405294.085,411289.202,8,400,6,,ISIC_6912979.JPG
break,html.Screen,4_55_1,2023-09-12T00:41:24.257Z,,0,,,NaN,,,,,,false,,,,411271.80000019073,411271.59999990463,,411271.30000019073,,411289.202,8,400,,,
break_continue,html.Screen,4_55_2,2023-09-12T00:41:24.257Z,,0,,,NaN,,,,,,false,,,,411272.2000002861,411272.09999990463,,411272,,411289.202,8,400,,,
sequence,flow.Sequence,4_55,2023-09-12T00:41:24.257Z,,0,,,5978.014999904612,completion,,,,,false,,,,411272.30000019073,411272.09999990463,405277.471,405279.7000002861,405294.085,411289.202,8,400,,,
trial,html.Screen,4_56_0,2023-09-12T00:41:29.075Z,,0,2,,4800.79800000001,response,ISIC_0029761.JPG,6,ISIC_8082988.JPG,ISIC_0029761.JPG,false,1,keypress(m),500,416090.09999990463,416090,411272.39,411272.30000019073,411289.202,416098.406,8,400,7,,ISIC_8082988.JPG
break,html.Screen,4_56_1,2023-09-12T00:41:29.075Z,,0,,,NaN,,,,,,false,,,,416090.59999990463,416090.40000009537,,416090.2000002861,,416098.406,8,400,,,
break_continue,html.Screen,4_56_2,2023-09-12T00:41:29.076Z,,0,,,NaN,,,,,,false,,,,416090.80000019073,416090.7000002861,,416090.7000002861,,416098.406,8,400,,,
sequence,flow.Sequence,4_56,2023-09-12T00:41:29.076Z,,0,,,4801.498000286112,completion,,,,,false,,,,416090.80000019073,416090.7000002861,411272.39,411272.30000019073,411289.202,416098.406,8,400,,,
trial,html.Screen,4_57_0,2023-09-12T00:41:33.381Z,,0,2,,4297.693999904615,response,ISIC_9933790.JPG,5,ISIC_0011128.JPG,ISIC_0011128.JPG,false,0,keypress(z),500,420396.2000002861,420396.09999990463,416081.696,416090.90000009537,416098.406,420406.791,8,400,8,,ISIC_9933790.JPG
break,html.Screen,4_57_1,2023-09-12T00:41:33.382Z,,0,,,NaN,,,,,,false,,,,420396.7000002861,420396.59999990463,,420396.40000009537,,420406.791,8,400,,,
break_continue,html.Screen,4_57_2,2023-09-12T00:41:33.382Z,,0,,,NaN,,,,,,false,,,,420397,420396.90000009537,,420396.90000009537,,420406.791,8,400,,,
sequence,flow.Sequence,4_57,2023-09-12T00:41:33.382Z,,0,,,4298.49400009535,completion,,,,,false,,,,420397.09999990463,420396.90000009537,416081.696,416090.90000009537,416098.406,420406.791,8,400,,,
trial,html.Screen,4_58_0,2023-09-12T00:41:39.693Z,,0,2,,6301.509000190708,response,ISIC_0031711.JPG,5,ISIC_0027187.JPG,ISIC_0027187.JPG,false,0,keypress(z),500,426708.30000019073,426708.30000019073,420390.122,420397.09999990463,420406.791,426719.076,8,400,9,,ISIC_0031711.JPG
break,html.Screen,4_58_1,2023-09-12T00:41:39.694Z,,0,,,NaN,,,,,,false,,,,426708.80000019073,426708.7000002861,,426708.40000009537,,426719.076,8,400,,,
break_continue,html.Screen,4_58_2,2023-09-12T00:41:39.694Z,,0,,,NaN,,,,,,false,,,,426709,426709,,426708.80000019073,,426719.076,8,400,,,
sequence,flow.Sequence,4_58,2023-09-12T00:41:39.694Z,,0,,,6302.2089999999735,completion,,,,,false,,,,426709.09999990463,426709,420390.122,420397.09999990463,420406.791,426719.076,8,400,,,
trial,html.Screen,4_59_0,2023-09-12T00:41:45.074Z,,0,2,,5369.923999999999,response,ISIC_0028984.JPG,5,ISIC_4131697.JPG,ISIC_0028984.JPG,false,1,keypress(m),500,432089.2000002861,432089,426702.36,426709.2000002861,426719.076,432096.178,8,400,10,,ISIC_4131697.JPG
break,html.Screen,4_59_1,2023-09-12T00:41:45.074Z,,0,,,NaN,,,,,,false,,,,432089.59999990463,432089.5,,432089.30000019073,,432096.178,8,400,,,
break_continue,html.Screen,4_59_2,2023-09-12T00:41:45.075Z,,0,,,NaN,,,,,,false,,,,432089.80000019073,432089.7000002861,,432089.7000002861,,432096.178,8,400,,,
sequence,flow.Sequence,4_59,2023-09-12T00:41:45.075Z,,0,,,5370.624000286101,completion,,,,,false,,,,432089.90000009537,432089.7000002861,426702.36,426709.2000002861,426719.076,432096.178,8,400,,,
trial,html.Screen,4_60_0,2023-09-12T00:41:49.080Z,,0,2,,3999.3219999999856,response,ISIC_0063445.JPG,5,ISIC_3218227.JPG,ISIC_0063445.JPG,false,1,keypress(m),500,436095.59999990463,436095.5,432079.532,432089.90000009537,432096.178,436104.198,8,400,11,,ISIC_3218227.JPG
break,html.Screen,4_60_1,2023-09-12T00:41:49.081Z,,0,,,NaN,,,,,,false,,,,436096.5,436096.2000002861,,436095.7000002861,,436104.198,8,400,,,
break_continue,html.Screen,4_60_2,2023-09-12T00:41:49.082Z,,0,,,NaN,,,,,,false,,,,436096.90000009537,436096.90000009537,,436096.59999990463,,436104.198,8,400,,,
sequence,flow.Sequence,4_60,2023-09-12T00:41:49.082Z,,0,,,4000.722000095353,completion,,,,,false,,,,436097,436096.90000009537,432079.532,432089.90000009537,432096.178,436104.198,8,400,,,
trial,html.Screen,4_61_0,2023-09-12T00:41:54.015Z,,0,2,,4925.002000286127,response,ISIC_9234944.JPG,6,ISIC_7454487.JPG,ISIC_7454487.JPG,false,0,keypress(z),500,441029.30000019073,441029.2000002861,436087.336,436097.09999990463,436104.198,441030.285,8,400,12,,ISIC_9234944.JPG
break,html.Screen,4_61_1,2023-09-12T00:41:54.015Z,,0,,,NaN,,,,,,false,,,,441029.80000019073,441029.59999990463,,441029.40000009537,,441030.285,8,400,,,
break_continue,html.Screen,4_61_2,2023-09-12T00:41:54.016Z,,0,,,NaN,,,,,,false,,,,441030.09999990463,441030.09999990463,,441029.90000009537,,441030.285,8,400,,,
sequence,flow.Sequence,4_61,2023-09-12T00:41:54.016Z,,0,,,4925.901999904658,completion,,,,,false,,,,441030.2000002861,441030.09999990463,436087.336,436097,436104.198,441030.285,8,400,,,
trial,html.Screen,4_62_0,2023-09-12T00:41:58.722Z,,0,2,,4705.615000095393,response,ISIC_0028489.JPG,5,ISIC_0069257.JPG,ISIC_0028489.JPG,false,1,keypress(m),500,445736,445735.90000009537,441013.725,441030.30000019073,441030.285,445739.476,8,400,13,,ISIC_0069257.JPG
break,html.Screen,4_62_1,2023-09-12T00:41:58.722Z,,0,,,NaN,,,,,,false,,,,445736.59999990463,445736.40000009537,,445736.2000002861,,445739.476,8,400,,,
break_continue,html.Screen,4_62_2,2023-09-12T00:41:58.722Z,,0,,,NaN,,,,,,false,,,,445736.80000019073,445736.7000002861,,445736.59999990463,,445739.476,8,400,,,
sequence,flow.Sequence,4_62,2023-09-12T00:41:58.722Z,,0,,,4706.415000286128,completion,,,,,false,,,,445736.90000009537,445736.7000002861,441013.725,441030.30000019073,441030.285,445739.476,8,400,,,
trial,html.Screen,4_63_0,2023-09-12T00:42:03.621Z,,0,2,,4895.623999904608,response,ISIC_9095975.JPG,5,ISIC_7047780.JPG,ISIC_7047780.JPG,false,0,keypress(z),500,450635.2000002861,450635.09999990463,445722.715,445737,445739.476,450649.169,8,400,14,,ISIC_9095975.JPG
break,html.Screen,4_63_1,2023-09-12T00:42:03.621Z,,0,,,NaN,,,,,,false,,,,450635.59999990463,450635.5,,450635.30000019073,,450649.169,8,400,,,
break_continue,html.Screen,4_63_2,2023-09-12T00:42:03.621Z,,0,,,NaN,,,,,,false,,,,450635.80000019073,450635.7000002861,,450635.7000002861,,450649.169,8,400,,,
sequence,flow.Sequence,4_63,2023-09-12T00:42:03.621Z,,0,,,4896.224000286078,completion,,,,,false,,,,450635.80000019073,450635.7000002861,445722.715,445737,445739.476,450649.169,8,400,,,
trial,html.Screen,4_64_0,2023-09-12T00:42:09.127Z,,0,2,,5492.430999904638,response,ISIC_6758042.JPG,5,ISIC_9260499.JPG,ISIC_6758042.JPG,false,1,keypress(m),500,456141.7000002861,456141.59999990463,450632.371,450635.90000009537,450649.169,456143.037,8,400,15,,ISIC_9260499.JPG
break,html.Screen,4_64_1,2023-09-12T00:42:09.128Z,,0,,,NaN,,,,,,false,,,,456142.2000002861,456142,,456141.80000019073,,456143.037,8,400,,,
break_continue,html.Screen,4_64_2,2023-09-12T00:42:09.128Z,,0,,,NaN,,,,,,false,,,,456142.59999990463,456142.5,,456142.40000009537,,456143.037,8,400,,,
sequence,flow.Sequence,4_64,2023-09-12T00:42:09.128Z,,0,,,5493.331000000006,completion,,,,,false,,,,456142.59999990463,456142.5,450632.371,450635.90000009537,450649.169,456143.037,8,400,,,
trial,html.Screen,4_65_0,2023-09-12T00:42:13.754Z,,0,2,,4625.163000286091,response,ISIC_0029906.JPG,4,ISIC_0060089.JPG,ISIC_0060089.JPG,false,0,keypress(z),500,460768.40000009537,460768.2000002861,456126.321,456142.7000002861,456143.037,460785.408,8,400,16,,ISIC_0029906.JPG
break,html.Screen,4_65_1,2023-09-12T00:42:13.755Z,,0,,,NaN,,,,,,false,,,,460769.90000009537,460769.7000002861,,460768.7000002861,,460785.408,8,400,,,
break_continue,html.Screen,4_65_2,2023-09-12T00:42:13.756Z,,0,,,NaN,,,,,,false,,,,460770.59999990463,460770.40000009537,,460770.2000002861,,460785.408,8,400,,,
sequence,flow.Sequence,4_65,2023-09-12T00:42:13.756Z,,0,,,4627.363000095356,completion,,,,,false,,,,460770.80000019073,460770.40000009537,456126.321,456142.7000002861,456143.037,460785.408,8,400,,,
trial,html.Screen,4_66_0,2023-09-12T00:42:18.447Z,,0,2,,4676.2920002861065,response,ISIC_2680588.JPG,5,ISIC_6033222.JPG,ISIC_6033222.JPG,false,0,keypress(z),500,465461.90000009537,465461.7000002861,460768.793,460771,460785.408,465477.804,8,400,17,,ISIC_2680588.JPG
break,html.Screen,4_66_1,2023-09-12T00:42:18.448Z,,0,,,NaN,,,,,,false,,,,465462.2000002861,465462.2000002861,,465461.90000009537,,465477.804,8,400,,,
break_continue,html.Screen,4_66_2,2023-09-12T00:42:18.448Z,,0,,,NaN,,,,,,false,,,,465462.5,465462.40000009537,,465462.30000019073,,465477.804,8,400,,,
sequence,flow.Sequence,4_66,2023-09-12T00:42:18.448Z,,0,,,4676.992000095372,completion,,,,,false,,,,465462.59999990463,465462.40000009537,460768.793,460771,460785.408,465477.804,8,400,,,
trial,html.Screen,4_67_0,2023-09-12T00:42:23.697Z,,0,2,,5233.996000190731,response,ISIC_0032847.JPG,4,ISIC_0065796.JPG,ISIC_0065796.JPG,false,0,keypress(z),500,470711.90000009537,470711.80000019073,465461.159,465462.59999990463,465477.804,470738.183,8,400,18,,ISIC_0032847.JPG
break,html.Screen,4_67_1,2023-09-12T00:42:23.698Z,,0,,,NaN,,,,,,false,,,,470712.5,470712.30000019073,,470712.09999990463,,470738.183,8,400,,,
break_continue,html.Screen,4_67_2,2023-09-12T00:42:23.698Z,,0,,,NaN,,,,,,false,,,,470712.80000019073,470712.80000019073,,470712.59999990463,,470738.183,8,400,,,
sequence,flow.Sequence,4_67,2023-09-12T00:42:23.698Z,,0,,,5234.996000190731,completion,,,,,false,,,,470712.90000009537,470712.80000019073,465461.159,465462.59999990463,465477.804,470738.183,8,400,,,
trial,html.Screen,4_68_0,2023-09-12T00:42:28.435Z,,0,2,,4711.4169999046135,response,ISIC_0004042.JPG,5,ISIC_1418304.JPG,ISIC_1418304.JPG,false,0,keypress(z),500,475449.7000002861,475449.59999990463,470721.441,470713,470738.183,475480.768,8,400,19,,ISIC_0004042.JPG
break,html.Screen,4_68_1,2023-09-12T00:42:28.436Z,,0,,,NaN,,,,,,false,,,,475450,475450,,475449.80000019073,,475480.768,8,400,,,
break_continue,html.Screen,4_68_2,2023-09-12T00:42:28.436Z,,0,,,NaN,,,,,,false,,,,475450.30000019073,475450.2000002861,,475450.09999990463,,475480.768,8,400,,,
sequence,flow.Sequence,4_68,2023-09-12T00:42:28.436Z,,0,,,4712.017000286083,completion,,,,,false,,,,475450.30000019073,475450.2000002861,470721.441,470713,470738.183,475480.768,8,400,,,
trial,html.Screen,4_69_0,2023-09-12T00:42:35.877Z,,0,2,,7410.9320002861205,response,ISIC_0058047.JPG,6,ISIC_0031642.JPG,ISIC_0058047.JPG,false,1,keypress(m),500,482891.7000002861,482891.7000002861,475463.984,475450.30000019073,475480.768,482895.051,8,400,20,,ISIC_0031642.JPG
break,html.Screen,4_69_1,2023-09-12T00:42:35.878Z,,0,,,NaN,,,,,,false,,,,482892.09999990463,482892,,482891.90000009537,,482895.051,8,400,,,
break_continue,html.Screen,4_69_2,2023-09-12T00:42:35.878Z,,0,,,NaN,,,,,,false,,,,482892.30000019073,482892.30000019073,,482892.2000002861,,482895.051,8,400,,,
sequence,flow.Sequence,4_69,2023-09-12T00:42:35.878Z,,0,,,7411.532000190753,completion,,,,,false,,,,482892.40000009537,482892.30000019073,475463.984,475450.30000019073,475480.768,482895.051,8,400,,,
trial,html.Screen,4_70_0,2023-09-12T00:42:40.615Z,,0,2,,4734.249000190757,response,ISIC_8140072.JPG,6,ISIC_0060586.JPG,ISIC_0060586.JPG,false,0,keypress(z),500,487629.30000019073,487629.30000019073,482878.393,482892.5,482895.051,487637.617,8,400,21,,ISIC_8140072.JPG
break,html.Screen,4_70_1,2023-09-12T00:42:40.615Z,,0,,,NaN,,,,,,false,,,,487629.80000019073,487629.7000002861,,487629.5,,487637.617,8,400,,,
break_continue,html.Screen,4_70_2,2023-09-12T00:42:40.615Z,,0,,,NaN,,,,,,false,,,,487630,487629.90000009537,,487629.90000009537,,487637.617,8,400,,,
sequence,flow.Sequence,4_70,2023-09-12T00:42:40.616Z,,0,,,4734.84900009539,completion,,,,,false,,,,487630,487629.90000009537,482878.393,482892.40000009537,482895.051,487637.617,8,400,,,
trial,html.Screen,4_71_0,2023-09-12T00:42:44.684Z,,0,2,,4060.28300009534,response,ISIC_5413788.JPG,4,ISIC_0025316.JPG,ISIC_5413788.JPG,false,1,keypress(m),500,491698.09999990463,491697.90000009537,487621.105,487630.09999990463,487637.617,491729.045,8,400,22,,ISIC_0025316.JPG
break,html.Screen,4_71_1,2023-09-12T00:42:44.684Z,,0,,,NaN,,,,,,false,,,,491698.90000009537,491698.59999990463,,491698.30000019073,,491729.045,8,400,,,
break_continue,html.Screen,4_71_2,2023-09-12T00:42:44.685Z,,0,,,NaN,,,,,,false,,,,491699.09999990463,491699.09999990463,,491699,,491729.045,8,400,,,
sequence,flow.Sequence,4_71,2023-09-12T00:42:44.685Z,,0,,,4061.482999904605,completion,,,,,false,,,,491699.2000002861,491699.09999990463,487621.105,487630.09999990463,487637.617,491729.045,8,400,,,
trial,html.Screen,4_72_0,2023-09-12T00:42:49.653Z,,0,2,,4937.755000190751,response,ISIC_0065748.JPG,6,ISIC_0032656.JPG,ISIC_0065748.JPG,false,1,keypress(m),500,496667,496666.80000019073,491712.42,491699.30000019073,491729.045,496671.913,8,400,23,,ISIC_0032656.JPG
break,html.Screen,4_72_1,2023-09-12T00:42:49.653Z,,0,,,NaN,,,,,,false,,,,496667.5,496667.40000009537,,496667.2000002861,,496671.913,8,400,,,
break_continue,html.Screen,4_72_2,2023-09-12T00:42:49.653Z,,0,,,NaN,,,,,,false,,,,496667.80000019073,496667.7000002861,,496667.59999990463,,496671.913,8,400,,,
sequence,flow.Sequence,4_72,2023-09-12T00:42:49.653Z,,0,,,4938.655000286119,completion,,,,,false,,,,496667.80000019073,496667.7000002861,491712.42,491699.30000019073,491729.045,496671.913,8,400,,,
trial,html.Screen,4_73_0,2023-09-12T00:42:54.167Z,,0,2,,4508.987000095367,response,ISIC_2528656.JPG,5,ISIC_3556980.JPG,ISIC_3556980.JPG,false,0,keypress(z),500,501181,501180.90000009537,496655.279,496668,496671.913,501197.369,8,400,24,,ISIC_2528656.JPG
break,html.Screen,4_73_1,2023-09-12T00:42:54.167Z,,0,,,NaN,,,,,,false,,,,501181.59999990463,501181.5,,501181.2000002861,,501197.369,8,400,,,
break_continue,html.Screen,4_73_2,2023-09-12T00:42:54.168Z,,0,,,NaN,,,,,,false,,,,501181.80000019073,501181.7000002861,,501181.7000002861,,501197.369,8,400,,,
sequence,flow.Sequence,4_73,2023-09-12T00:42:54.168Z,,0,,,4509.787000286102,completion,,,,,false,,,,501181.90000009537,501181.7000002861,496655.279,496667.90000009537,496671.913,501197.369,8,400,,,
trial,html.Screen,4_74_0,2023-09-12T00:42:59.209Z,,0,2,,5025.531000095361,response,ISIC_0063295.JPG,6,ISIC_1072321.JPG,ISIC_0063295.JPG,false,1,keypress(m),500,506223,506222.90000009537,501180.826,501181.90000009537,501197.369,506240.722,8,400,25,,ISIC_1072321.JPG
break,html.Screen,4_74_1,2023-09-12T00:42:59.209Z,,0,,,NaN,,,,,,false,,,,506223.5,506223.40000009537,,506223.09999990463,,506240.722,8,400,,,
break_continue,html.Screen,4_74_2,2023-09-12T00:42:59.210Z,,0,,,NaN,,,,,,false,,,,506223.7000002861,506223.59999990463,,506223.5,,506240.722,8,400,,,
sequence,flow.Sequence,4_74,2023-09-12T00:42:59.210Z,,0,,,5026.2309999046265,completion,,,,,false,,,,506223.80000019073,506223.59999990463,501180.826,501181.90000009537,501197.369,506240.722,8,400,,,
trial,html.Screen,4_75_0,2023-09-12T00:43:03.916Z,,0,2,,4689.277999999991,response,ISIC_0010777.JPG,6,ISIC_4443373.JPG,ISIC_4443373.JPG,false,0,keypress(z),500,510930.2000002861,510930,506223.83,506223.80000019073,506240.722,510932.968,8,400,26,,ISIC_0010777.JPG
break,html.Screen,4_75_1,2023-09-12T00:43:03.917Z,,0,,,NaN,,,,,,false,,,,510930.90000009537,510930.59999990463,,510930.30000019073,,510932.968,8,400,,,
break_continue,html.Screen,4_75_2,2023-09-12T00:43:03.917Z,,0,,,NaN,,,,,,false,,,,510931.2000002861,510931.09999990463,,510931,,510932.968,8,400,,,
sequence,flow.Sequence,4_75,2023-09-12T00:43:03.917Z,,0,,,4690.377999904624,completion,,,,,false,,,,510931.30000019073,510931.09999990463,506223.83,506223.80000019073,506240.722,510932.968,8,400,,,
trial,html.Screen,4_76_0,2023-09-12T00:43:09.188Z,,0,2,,5269.332000190741,response,ISIC_0026272.JPG,4,ISIC_2011408.JPG,ISIC_2011408.JPG,false,0,keypress(z),500,516202.40000009537,516202.30000019073,510916.293,510931.30000019073,510932.968,516226.588,8,400,27,,ISIC_0026272.JPG
break,html.Screen,4_76_1,2023-09-12T00:43:09.189Z,,0,,,NaN,,,,,,false,,,,516202.80000019073,516202.59999990463,,516202.5,,516226.588,8,400,,,
break_continue,html.Screen,4_76_2,2023-09-12T00:43:09.189Z,,0,,,NaN,,,,,,false,,,,516203,516202.90000009537,,516202.80000019073,,516226.588,8,400,,,
sequence,flow.Sequence,4_76,2023-09-12T00:43:09.189Z,,0,,,5269.932000095374,completion,,,,,false,,,,516203,516202.90000009537,510916.293,510931.30000019073,510932.968,516226.588,8,400,,,
trial,html.Screen,4_77_0,2023-09-12T00:43:13.847Z,,0,2,,4634.812000095379,response,ISIC_3728352.JPG,6,ISIC_8738598.JPG,ISIC_3728352.JPG,false,1,keypress(m),500,520861.5,520861.40000009537,516209.937,516203.09999990463,516226.588,520885.668,8,400,28,,ISIC_8738598.JPG
break,html.Screen,4_77_1,2023-09-12T00:43:13.848Z,,0,,,NaN,,,,,,false,,,,520861.90000009537,520861.7000002861,,520861.5,,520885.668,8,400,,,
break_continue,html.Screen,4_77_2,2023-09-12T00:43:13.848Z,,0,,,NaN,,,,,,false,,,,520862,520861.90000009537,,520861.90000009537,,520885.668,8,400,,,
sequence,flow.Sequence,4_77,2023-09-12T00:43:13.848Z,,0,,,4635.312000095379,completion,,,,,false,,,,520862,520861.90000009537,516209.937,516203.09999990463,516226.588,520885.668,8,400,,,
trial,html.Screen,4_78_0,2023-09-12T00:43:18.282Z,,0,2,,4410.232000095362,response,ISIC_5362869.JPG,5,ISIC_4224064.JPG,ISIC_5362869.JPG,false,1,keypress(m),500,525296,525295.9000000954,520869.092,520862.09999990463,520885.668,525311.092,8,400,29,,ISIC_4224064.JPG
break,html.Screen,4_78_1,2023-09-12T00:43:18.283Z,,0,,,NaN,,,,,,false,,,,525296.5999999046,525296.4000000954,,525296.2000002861,,525311.092,8,400,,,
break_continue,html.Screen,4_78_2,2023-09-12T00:43:18.283Z,,0,,,NaN,,,,,,false,,,,525297,525296.9000000954,,525296.8000001907,,525311.092,8,400,,,
sequence,flow.Sequence,4_78,2023-09-12T00:43:18.283Z,,0,,,4411.232000095362,completion,,,,,false,,,,525297.0999999046,525296.9000000954,520869.092,520862.09999990463,520885.668,525311.092,8,400,,,
trial,html.Screen,4_79_0,2023-09-12T00:43:23.588Z,,0,2,,5291.108000286156,response,ISIC_6247668.JPG,5,ISIC_3207651.JPG,ISIC_3207651.JPG,false,0,keypress(z),500,530602.2000002861,530602.2000002861,525294.24,525297.2000002861,525311.092,530604.557,8,400,30,,ISIC_6247668.JPG
break,html.Screen,4_79_1,2023-09-12T00:43:23.589Z,,0,,,NaN,,,,,,false,,,,530602.7000002861,530602.5999999046,,530602.3000001907,,530604.557,8,400,,,
break_continue,html.Screen,4_79_2,2023-09-12T00:43:23.589Z,,0,,,NaN,,,,,,false,,,,530602.9000000954,530602.8000001907,,530602.7000002861,,530604.557,8,400,,,
sequence,flow.Sequence,4_79,2023-09-12T00:43:23.589Z,,0,,,5291.708000190789,completion,,,,,false,,,,530602.9000000954,530602.8000001907,525294.24,525297.2000002861,525311.092,530604.557,8,400,,,
trial,html.Screen,4_80_0,2023-09-12T00:43:28.502Z,,0,2,,4911.44299999997,response,ISIC_6317162.JPG,6,ISIC_7761711.JPG,ISIC_7761711.JPG,false,0,keypress(z),500,535516.3000001907,535516,530587.915,530603,530604.557,535530.856,8,400,31,,ISIC_6317162.JPG
break,html.Screen,4_80_1,2023-09-12T00:43:28.503Z,,0,,,NaN,,,,,,false,,,,535517.2000002861,535517,,535516.5,,535530.856,8,400,,,
break_continue,html.Screen,4_80_2,2023-09-12T00:43:28.503Z,,0,,,NaN,,,,,,false,,,,535517.5999999046,535517.5,,535517.4000000954,,535530.856,8,400,,,
sequence,flow.Sequence,4_80,2023-09-12T00:43:28.504Z,,0,,,4912.94299999997,completion,,,,,false,,,,535517.7000002861,535517.5,530587.915,530603,530604.557,535530.856,8,400,,,
trial,html.Screen,4_81_0,2023-09-12T00:43:33.562Z,,0,2,,5045.143999999971,response,ISIC_2638895.JPG,5,ISIC_5247383.JPG,ISIC_5247383.JPG,false,0,keypress(z),500,540576.0999999046,540576,535514.169,535517.9000000954,535530.856,540607.359,8,400,32,,ISIC_2638895.JPG
break,html.Screen,4_81_1,2023-09-12T00:43:33.562Z,,0,,,NaN,,,,,,false,,,,540576.5,540576.4000000954,,540576.2000002861,,540607.359,8,400,,,
break_continue,html.Screen,4_81_2,2023-09-12T00:43:33.563Z,,0,,,NaN,,,,,,false,,,,540576.7000002861,540576.7000002861,,540576.5999999046,,540607.359,8,400,,,
sequence,flow.Sequence,4_81,2023-09-12T00:43:33.563Z,,0,,,5045.844000286073,completion,,,,,false,,,,540576.7000002861,540576.7000002861,535514.169,535517.8000001907,535530.856,540607.359,8,400,,,
trial,html.Screen,4_82_0,2023-09-12T00:43:38.861Z,,0,2,,5267.240999904578,response,ISIC_8969883.JPG,5,ISIC_5736979.JPG,ISIC_8969883.JPG,false,1,keypress(m),500,545874.8000001907,545874.5999999046,540590.849,540576.8000001907,540607.359,545884.388,8,400,33,,ISIC_5736979.JPG
break,html.Screen,4_82_1,2023-09-12T00:43:38.862Z,,0,,,NaN,,,,,,false,,,,545876.3000001907,545875.9000000954,,545875.0999999046,,545884.388,8,400,,,
break_continue,html.Screen,4_82_2,2023-09-12T00:43:38.863Z,,0,,,NaN,,,,,,false,,,,545877,545876.8000001907,,545876.4000000954,,545884.388,8,400,,,
sequence,flow.Sequence,4_82,2023-09-12T00:43:38.863Z,,0,,,5269.44100019068,completion,,,,,false,,,,545877.3000001907,545876.8000001907,540590.849,540576.8000001907,540607.359,545884.388,8,400,,,
trial,html.Screen,4_83_0,2023-09-12T00:43:44.483Z,,0,2,,5612.211999904597,response,ISIC_9709101.JPG,5,ISIC_0028986.JPG,ISIC_0028986.JPG,false,0,keypress(z),500,551496.8000001907,551496.5999999046,545867.627,545877.5999999046,545884.388,551512.001,8,400,34,,ISIC_9709101.JPG
break,html.Screen,4_83_1,2023-09-12T00:43:44.483Z,,0,,,NaN,,,,,,false,,,,551497.2000002861,551497.0999999046,,551496.8000001907,,551512.001,8,400,,,
break_continue,html.Screen,4_83_2,2023-09-12T00:43:44.483Z,,0,,,NaN,,,,,,false,,,,551497.4000000954,551497.4000000954,,551497.2000002861,,551512.001,8,400,,,
sequence,flow.Sequence,4_83,2023-09-12T00:43:44.483Z,,0,,,5613.012000095332,completion,,,,,false,,,,551497.5,551497.4000000954,545867.627,545877.4000000954,545884.388,551512.001,8,400,,,
trial,html.Screen,4_84_0,2023-09-12T00:43:49.092Z,,0,2,,4594.39900009532,response,ISIC_0066476.JPG,5,ISIC_0030193.JPG,ISIC_0066476.JPG,false,1,keypress(m),500,556106.5,556106.4000000954,551495.335,551497.7000002861,551512.001,556137.6,8,400,35,,ISIC_0030193.JPG
break,html.Screen,4_84_1,2023-09-12T00:43:49.093Z,,0,,,NaN,,,,,,false,,,,556107,556106.9000000954,,556106.5999999046,,556137.6,8,400,,,
break_continue,html.Screen,4_84_2,2023-09-12T00:43:49.093Z,,0,,,NaN,,,,,,false,,,,556107.2000002861,556107.0999999046,,556107,,556137.6,8,400,,,
sequence,flow.Sequence,4_84,2023-09-12T00:43:49.093Z,,0,,,4595.098999904585,completion,,,,,false,,,,556107.3000001907,556107.0999999046,551495.335,551497.5999999046,551512.001,556137.6,8,400,,,
trial,html.Screen,4_85_0,2023-09-12T00:43:53.086Z,,0,2,,3962.4000000000233,response,ISIC_7349440.JPG,5,ISIC_0001149.JPG,ISIC_0001149.JPG,false,0,keypress(z),500,560100.2000002861,560100,556120.903,556107.3000001907,556137.6,560111.973,8,400,36,,ISIC_7349440.JPG
break,html.Screen,4_85_1,2023-09-12T00:43:53.086Z,,0,,,NaN,,,,,,false,,,,560100.9000000954,560100.5999999046,,560100.3000001907,,560111.973,8,400,,,
break_continue,html.Screen,4_85_2,2023-09-12T00:43:53.087Z,,0,,,NaN,,,,,,false,,,,560101.2000002861,560101.0999999046,,560100.9000000954,,560111.973,8,400,,,
sequence,flow.Sequence,4_85,2023-09-12T00:43:53.087Z,,0,,,3963.499999904656,completion,,,,,false,,,,560101.3000001907,560101.0999999046,556120.903,556107.3000001907,556137.6,560111.973,8,400,,,
trial,html.Screen,4_86_0,2023-09-12T00:43:57.441Z,,0,2,,4343.126999904634,response,ISIC_0067427.JPG,5,ISIC_7927525.JPG,ISIC_7927525.JPG,false,0,keypress(z),500,564455.5,564455.0999999046,560095.326,560101.3000001907,560111.973,564487.172,8,400,37,,ISIC_0067427.JPG
break,html.Screen,4_86_1,2023-09-12T00:43:57.442Z,,0,,,NaN,,,,,,false,,,,564456.4000000954,564456.2000002861,,564455.8000001907,,564487.172,8,400,,,
break_continue,html.Screen,4_86_2,2023-09-12T00:43:57.442Z,,0,,,NaN,,,,,,false,,,,564456.8000001907,564456.5999999046,,564456.5,,564487.172,8,400,,,
sequence,flow.Sequence,4_86,2023-09-12T00:43:57.443Z,,0,,,4344.626999904634,completion,,,,,false,,,,564457,564456.5999999046,560095.326,560101.3000001907,560111.973,564487.172,8,400,,,
trial,html.Screen,4_87_0,2023-09-12T00:44:03.172Z,,0,2,,5699.228000095347,response,ISIC_0069273.JPG,6,ISIC_3436139.JPG,ISIC_3436139.JPG,false,0,keypress(z),500,570186.8000001907,570186.4000000954,564470.556,564457.0999999046,564487.172,570198.293,8,400,38,,ISIC_0069273.JPG
break,html.Screen,4_87_1,2023-09-12T00:44:03.174Z,,0,,,NaN,,,,,,false,,,,570188.9000000954,570188.0999999046,,570187.3000001907,,570198.293,8,400,,,
break_continue,html.Screen,4_87_2,2023-09-12T00:44:03.176Z,,0,,,NaN,,,,,,false,,,,570190.0999999046,570189.8000001907,,570189.3000001907,,570198.293,8,400,,,
sequence,flow.Sequence,4_87,2023-09-12T00:44:03.176Z,,0,,,5702.628000190714,completion,,,,,false,,,,570190.4000000954,570189.8000001907,564470.556,564457.0999999046,564487.172,570198.293,8,400,,,
trial,html.Screen,4_88_0,2023-09-12T00:44:09.481Z,,0,2,,6297.207000000053,response,ISIC_0033319.JPG,5,ISIC_3296136.JPG,ISIC_0033319.JPG,false,1,keypress(m),500,576495.5999999046,576495.5,570181.725,570190.5,570198.293,576510.637,8,400,39,,ISIC_3296136.JPG
break,html.Screen,4_88_1,2023-09-12T00:44:09.482Z,,0,,,NaN,,,,,,false,,,,576496,576495.9000000954,,576495.7000002861,,576510.637,8,400,,,
break_continue,html.Screen,4_88_2,2023-09-12T00:44:09.482Z,,0,,,NaN,,,,,,false,,,,576496.0999999046,576496.0999999046,,576496,,576510.637,8,400,,,
sequence,flow.Sequence,4_88,2023-09-12T00:44:09.482Z,,0,,,6297.806999904686,completion,,,,,false,,,,576496.3000001907,576496.0999999046,570181.725,570190.5,570198.293,576510.637,8,400,,,
trial,html.Screen,4_89_0,2023-09-12T00:44:14.843Z,,0,2,,5346.363000000012,response,ISIC_5441247.JPG,6,ISIC_0029078.JPG,ISIC_0029078.JPG,false,0,keypress(z),500,581857.0999999046,581857,576493.845,576496.3000001907,576510.637,581871.024,8,400,40,,ISIC_5441247.JPG
break,html.Screen,4_89_1,2023-09-12T00:44:14.843Z,,0,,,NaN,,,,,,false,,,,581857.5,581857.3000001907,,581857.2000002861,,581871.024,8,400,,,
break_continue,html.Screen,4_89_2,2023-09-12T00:44:14.843Z,,0,,,NaN,,,,,,false,,,,581857.5999999046,581857.5999999046,,581857.5999999046,,581871.024,8,400,,,
sequence,flow.Sequence,4_89,2023-09-12T00:44:14.843Z,,0,,,5346.962999904645,completion,,,,,false,,,,581857.7000002861,581857.5999999046,576493.845,576496.3000001907,576510.637,581871.024,8,400,,,
trial,html.Screen,4_90_0,2023-09-12T00:44:20.319Z,,0,2,,5462.1760002861265,response,ISIC_3920274.JPG,5,ISIC_0623284.JPG,ISIC_3920274.JPG,false,1,keypress(m),500,587333.3000001907,587333.2000002861,581854.419,581857.8000001907,581871.024,587348.435,8,400,41,,ISIC_0623284.JPG
break,html.Screen,4_90_1,2023-09-12T00:44:20.319Z,,0,,,NaN,,,,,,false,,,,587333.7000002861,587333.5999999046,,587333.4000000954,,587348.435,8,400,,,
break_continue,html.Screen,4_90_2,2023-09-12T00:44:20.319Z,,0,,,NaN,,,,,,false,,,,587333.9000000954,587333.8000001907,,587333.8000001907,,587348.435,8,400,,,
sequence,flow.Sequence,4_90,2023-09-12T00:44:20.320Z,,0,,,5462.776000190759,completion,,,,,false,,,,587333.9000000954,587333.8000001907,581854.419,581857.8000001907,581871.024,587348.435,8,400,,,
trial,html.Screen,4_91_0,2023-09-12T00:44:25.667Z,,0,2,,5332.465000095312,response,ISIC_6536232.JPG,5,ISIC_0067206.JPG,ISIC_0067206.JPG,false,0,keypress(z),500,592681,592680.9000000954,587331.715,587334,587348.435,592692.263,8,400,42,,ISIC_6536232.JPG
break,html.Screen,4_91_1,2023-09-12T00:44:25.667Z,,0,,,NaN,,,,,,false,,,,592681.8000001907,592681.5999999046,,592681.2000002861,,592692.263,8,400,,,
break_continue,html.Screen,4_91_2,2023-09-12T00:44:25.668Z,,0,,,NaN,,,,,,false,,,,592682.2000002861,592682.0999999046,,592681.9000000954,,592692.263,8,400,,,
sequence,flow.Sequence,4_91,2023-09-12T00:44:25.668Z,,0,,,5333.664999904577,completion,,,,,false,,,,592682.3000001907,592682.0999999046,587331.715,587334,587348.435,592692.263,8,400,,,
trial,html.Screen,4_92_0,2023-09-12T00:44:32.493Z,,0,2,,6814.937000286067,response,ISIC_0066382.JPG,6,ISIC_0063473.JPG,ISIC_0066382.JPG,false,1,keypress(m),500,599507.3000001907,599507.2000002861,592675.399,592682.5,592692.263,599522.116,8,400,43,,ISIC_0063473.JPG
break,html.Screen,4_92_1,2023-09-12T00:44:32.493Z,,0,,,NaN,,,,,,false,,,,599507.9000000954,599507.8000001907,,599507.5,,599522.116,8,400,,,
break_continue,html.Screen,4_92_2,2023-09-12T00:44:32.494Z,,0,,,NaN,,,,,,false,,,,599508,599508,,599507.9000000954,,599522.116,8,400,,,
sequence,flow.Sequence,4_92,2023-09-12T00:44:32.494Z,,0,,,6815.736999999965,completion,,,,,false,,,,599508.2000002861,599508,592675.399,592682.4000000954,592692.263,599522.116,8,400,,,
trial,html.Screen,4_93_0,2023-09-12T00:44:38.464Z,,0,2,,5956.584000286064,response,ISIC_0014973.JPG,5,ISIC_0026426.JPG,ISIC_0014973.JPG,false,1,keypress(m),500,605478.8000001907,605478.7000002861,599505.318,599508.2000002861,599522.116,605483.655,8,400,44,,ISIC_0026426.JPG
break,html.Screen,4_93_1,2023-09-12T00:44:38.465Z,,0,,,NaN,,,,,,false,,,,605479.5,605479.3000001907,,605479,,605483.655,8,400,,,
break_continue,html.Screen,4_93_2,2023-09-12T00:44:38.465Z,,0,,,NaN,,,,,,false,,,,605479.8000001907,605479.8000001907,,605479.7000002861,,605483.655,8,400,,,
sequence,flow.Sequence,4_93,2023-09-12T00:44:38.465Z,,0,,,5957.684000190697,completion,,,,,false,,,,605479.9000000954,605479.8000001907,599505.318,599508.2000002861,599522.116,605483.655,8,400,,,
trial,html.Screen,4_94_0,2023-09-12T00:44:43.075Z,,0,2,,4605.844999999972,response,ISIC_4344870.JPG,6,ISIC_0028641.JPG,ISIC_4344870.JPG,false,1,keypress(m),500,610089.7000002861,610089.5,605466.948,605480,605483.655,610092.634,8,400,45,,ISIC_0028641.JPG
break,html.Screen,4_94_1,2023-09-12T00:44:43.076Z,,0,,,NaN,,,,,,false,,,,610090.7000002861,610090.4000000954,,610090,,610092.634,8,400,,,
break_continue,html.Screen,4_94_2,2023-09-12T00:44:43.076Z,,0,,,NaN,,,,,,false,,,,610090.9000000954,610090.8000001907,,610090.7000002861,,610092.634,8,400,,,
sequence,flow.Sequence,4_94,2023-09-12T00:44:43.077Z,,0,,,4607.145000190707,completion,,,,,false,,,,610091.0999999046,610090.8000001907,605466.948,605480,605483.655,610092.634,8,400,,,
trial,html.Screen,4_95_0,2023-09-12T00:44:48.637Z,,0,2,,5559.0660002861405,response,ISIC_0024256.JPG,6,ISIC_0032504.JPG,ISIC_0032504.JPG,false,0,keypress(z),500,615651.8000001907,615651.7000002861,610075.886,610091.0999999046,610092.634,615653.448,8,400,46,,ISIC_0024256.JPG
break,html.Screen,4_95_1,2023-09-12T00:44:48.638Z,,0,,,NaN,,,,,,false,,,,615652.4000000954,615652.0999999046,,615651.9000000954,,615653.448,8,400,,,
break_continue,html.Screen,4_95_2,2023-09-12T00:44:48.638Z,,0,,,NaN,,,,,,false,,,,615652.7000002861,615652.5999999046,,615652.4000000954,,615653.448,8,400,,,
sequence,flow.Sequence,4_95,2023-09-12T00:44:48.638Z,,0,,,5559.965999904671,completion,,,,,false,,,,615652.7000002861,615652.5999999046,610075.886,610091.0999999046,610092.634,615653.448,8,400,,,
trial,html.Screen,4_96_0,2023-09-12T00:44:53.008Z,,0,2,,4368.052000000025,response,ISIC_6271218.JPG,5,ISIC_0032494.JPG,ISIC_6271218.JPG,false,1,keypress(m),500,620021.5999999046,620021.5,615636.806,615652.7000002861,615653.448,620045.313,8,400,47,,ISIC_0032494.JPG
break,html.Screen,4_96_1,2023-09-12T00:44:53.008Z,,0,,,NaN,,,,,,false,,,,620022,620021.9000000954,,620021.7000002861,,620045.313,8,400,,,
break_continue,html.Screen,4_96_2,2023-09-12T00:44:53.009Z,,0,,,NaN,,,,,,false,,,,620022.2000002861,620022.0999999046,,620022.0999999046,,620045.313,8,400,,,
sequence,flow.Sequence,4_96,2023-09-12T00:44:53.009Z,,0,,,4368.651999904658,completion,,,,,false,,,,620022.3000001907,620022.0999999046,615636.806,615652.7000002861,615653.448,620045.313,8,400,,,
trial,html.Screen,4_97_0,2023-09-12T00:44:58.947Z,,0,2,,5914.786999904667,response,ISIC_0580054.JPG,5,ISIC_3493866.JPG,ISIC_3493866.JPG,false,0,keypress(z),500,625960.0999999046,625960.0999999046,620028.605,620022.3000001907,620045.313,625973.597,8,400,48,,ISIC_0580054.JPG
break,html.Screen,4_97_1,2023-09-12T00:44:58.947Z,,0,,,NaN,,,,,,false,,,,625960.7000002861,625960.5,,625960.3000001907,,625973.597,8,400,,,
break_continue,html.Screen,4_97_2,2023-09-12T00:44:58.947Z,,0,,,NaN,,,,,,false,,,,625960.8000001907,625960.8000001907,,625960.7000002861,,625973.597,8,400,,,
sequence,flow.Sequence,4_97,2023-09-12T00:44:58.947Z,,0,,,5915.487000190769,completion,,,,,false,,,,625960.9000000954,625960.8000001907,620028.605,620022.3000001907,620045.313,625973.597,8,400,,,
trial,html.Screen,4_98_0,2023-09-12T00:45:06.152Z,,0,2,,7191.703000190784,response,ISIC_0014891.JPG,5,ISIC_3573969.JPG,ISIC_0014891.JPG,false,1,keypress(m),500,633165.4000000954,633165.3000001907,625956.836,625960.9000000954,625973.597,633170.804,8,400,49,,ISIC_3573969.JPG
break,html.Screen,4_98_1,2023-09-12T00:45:06.152Z,,0,,,NaN,,,,,,false,,,,633165.8000001907,633165.7000002861,,633165.5,,633170.804,8,400,,,
break_continue,html.Screen,4_98_2,2023-09-12T00:45:06.152Z,,0,,,NaN,,,,,,false,,,,633166,633166,,633165.9000000954,,633170.804,8,400,,,
sequence,flow.Sequence,4_98,2023-09-12T00:45:06.153Z,,0,,,7192.403000000049,completion,,,,,false,,,,633166.0999999046,633166,625956.836,625960.9000000954,625973.597,633170.804,8,400,,,
trial,html.Screen,4_99_0,2023-09-12T00:45:11.869Z,,0,2,,5711.396000286099,response,ISIC_4216750.JPG,4,ISIC_5772144.JPG,ISIC_4216750.JPG,false,1,keypress(m),500,638882.4000000954,638882.2000002861,633154.156,633166.0999999046,633170.804,638898.814,8,400,50,,ISIC_5772144.JPG
break,html.Screen,4_99_1,2023-09-12T00:45:21.872Z,,0,,,10002.875,timeout,,,,,false,,,,648885.7000002861,648884.876,638881.984,638882.7000002861,638898.814,648901.689,8,400,,,
break_continue,html.Screen,4_99_2,2023-09-12T00:45:22.863Z,,0,,,937.4109999046195,response,,,,,false,continue,keypress(Space),,649876.9000000954,649839.0999999046,648884.876,648885.9000000954,648901.689,649886.789,8,400,,,
sequence,flow.Sequence,4_99,2023-09-12T00:45:22.863Z,,0,,,16668.29599990463,completion,,,,,false,,,,649877,649839.0999999046,633154.156,633166.0999999046,633170.804,649886.789,8,400,,,
trial,html.Screen,4_100_0,2023-09-12T00:45:27.367Z,,0,3,,4494.011000190745,response,ISIC_0062463.JPG,5,ISIC_0073115.JPG,ISIC_0073115.JPG,false,0,keypress(z),500,654380.9000000954,654380.8000001907,649870.248,649877.0999999046,649886.789,654395.54,8,400,1,,ISIC_0062463.JPG
break,html.Screen,4_100_1,2023-09-12T00:45:27.368Z,,0,,,NaN,,,,,,false,,,,654381.4000000954,654381.3000001907,,654381.0999999046,,654395.54,8,400,,,
break_continue,html.Screen,4_100_2,2023-09-12T00:45:27.368Z,,0,,,NaN,,,,,,false,,,,654381.5999999046,654381.5,,654381.4000000954,,654395.54,8,400,,,
sequence,flow.Sequence,4_100,2023-09-12T00:45:27.368Z,,0,,,4494.71100000001,completion,,,,,false,,,,654381.7000002861,654381.5,649870.248,649877.0999999046,649886.789,654395.54,8,400,,,
trial,html.Screen,4_101_0,2023-09-12T00:45:31.449Z,,0,3,,4067.0599999045953,response,ISIC_5011583.JPG,4,ISIC_0069933.JPG,ISIC_0069933.JPG,false,0,keypress(z),500,658462.7000002861,658462.5999999046,654378.856,654381.7000002861,654395.54,658470.079,8,400,2,,ISIC_5011583.JPG
break,html.Screen,4_101_1,2023-09-12T00:45:31.450Z,,0,,,NaN,,,,,,false,,,,658463.2000002861,658463,,658462.9000000954,,658470.079,8,400,,,
break_continue,html.Screen,4_101_2,2023-09-12T00:45:31.450Z,,0,,,NaN,,,,,,false,,,,658463.4000000954,658463.4000000954,,658463.2000002861,,658470.079,8,400,,,
sequence,flow.Sequence,4_101,2023-09-12T00:45:31.450Z,,0,,,4067.86000009533,completion,,,,,false,,,,658463.5,658463.4000000954,654378.856,654381.7000002861,654395.54,658470.079,8,400,,,
trial,html.Screen,4_102_0,2023-09-12T00:45:36.176Z,,0,3,,4719.221000190708,response,ISIC_8140072.JPG,6,ISIC_4252268.JPG,ISIC_8140072.JPG,false,1,keypress(m),500,663189.4000000954,663189.3000001907,658453.468,658463.5999999046,658470.079,663196.02,8,400,3,,ISIC_4252268.JPG
break,html.Screen,4_102_1,2023-09-12T00:45:36.176Z,,0,,,NaN,,,,,,false,,,,663189.9000000954,663189.8000001907,,663189.5999999046,,663196.02,8,400,,,
break_continue,html.Screen,4_102_2,2023-09-12T00:45:36.177Z,,0,,,NaN,,,,,,false,,,,663190.0999999046,663190,,663190,,663196.02,8,400,,,
sequence,flow.Sequence,4_102,2023-09-12T00:45:36.177Z,,0,,,4719.920999999973,completion,,,,,false,,,,663190.2000002861,663190,658453.468,658463.5999999046,658470.079,663196.02,8,400,,,
trial,html.Screen,4_103_0,2023-09-12T00:45:41.058Z,,0,3,,4875.780000190716,response,ISIC_0502582.JPG,5,ISIC_9810276.JPG,ISIC_0502582.JPG,false,1,keypress(m),500,668071.9000000954,668071.8000001907,663179.322,663190.3000001907,663196.02,668088.768,8,400,4,,ISIC_9810276.JPG
break,html.Screen,4_103_1,2023-09-12T00:45:41.059Z,,0,,,NaN,,,,,,false,,,,668073,668072.7000002861,,668072,,668088.768,8,400,,,
break_continue,html.Screen,4_103_2,2023-09-12T00:45:41.060Z,,0,,,NaN,,,,,,false,,,,668073.2000002861,668073.0999999046,,668073,,668088.768,8,400,,,
sequence,flow.Sequence,4_103,2023-09-12T00:45:41.060Z,,0,,,4877.079999904614,completion,,,,,false,,,,668073.4000000954,668073.0999999046,663179.322,663190.2000002861,663196.02,668088.768,8,400,,,
trial,html.Screen,4_104_0,2023-09-12T00:45:45.750Z,,0,3,,4674.432000286062,response,ISIC_5234605.JPG,5,ISIC_0066492.JPG,ISIC_5234605.JPG,false,1,keypress(m),500,672763.3000001907,672763.2000002861,668072.102,668073.4000000954,668088.768,672764.549,8,400,5,,ISIC_0066492.JPG
break,html.Screen,4_104_1,2023-09-12T00:45:45.750Z,,0,,,NaN,,,,,,false,,,,672763.7000002861,672763.5999999046,,672763.4000000954,,672764.549,8,400,,,
break_continue,html.Screen,4_104_2,2023-09-12T00:45:45.750Z,,0,,,NaN,,,,,,false,,,,672763.9000000954,672763.9000000954,,672763.7000002861,,672764.549,8,400,,,
sequence,flow.Sequence,4_104,2023-09-12T00:45:45.750Z,,0,,,4675.132000095327,completion,,,,,false,,,,672763.9000000954,672763.9000000954,668072.102,668073.4000000954,668088.768,672764.549,8,400,,,
trial,html.Screen,4_105_0,2023-09-12T00:45:50.104Z,,0,3,,4352.751000190736,response,ISIC_0067577.JPG,5,ISIC_6062536.JPG,ISIC_0067577.JPG,false,1,keypress(m),500,677117.5,677117.3000001907,672748.025,672764,672764.549,677139.738,8,400,6,,ISIC_6062536.JPG
break,html.Screen,4_105_1,2023-09-12T00:45:50.104Z,,0,,,NaN,,,,,,false,,,,677118.0999999046,677117.9000000954,,677117.7000002861,,677139.738,8,400,,,
break_continue,html.Screen,4_105_2,2023-09-12T00:45:50.105Z,,0,,,NaN,,,,,,false,,,,677118.4000000954,677118.3000001907,,677118.0999999046,,677139.738,8,400,,,
sequence,flow.Sequence,4_105,2023-09-12T00:45:50.105Z,,0,,,4353.751000190736,completion,,,,,false,,,,677118.4000000954,677118.3000001907,672748.025,672764,672764.549,677139.738,8,400,,,
trial,html.Screen,4_106_0,2023-09-12T00:45:55.931Z,,0,3,,5804.261999999988,response,ISIC_2753279.JPG,4,ISIC_0602494.JPG,ISIC_2753279.JPG,false,1,keypress(m),500,682944.2000002861,682944,677123.015,677118.5,677139.738,682951.01,8,400,7,,ISIC_0602494.JPG
break,html.Screen,4_106_1,2023-09-12T00:45:55.932Z,,0,,,NaN,,,,,,false,,,,682945.0999999046,682944.8000001907,,682944.4000000954,,682951.01,8,400,,,
break_continue,html.Screen,4_106_2,2023-09-12T00:45:55.932Z,,0,,,NaN,,,,,,false,,,,682945.5999999046,682945.4000000954,,682945.3000001907,,682951.01,8,400,,,
sequence,flow.Sequence,4_106,2023-09-12T00:45:55.932Z,,0,,,5805.662000095355,completion,,,,,false,,,,682945.5999999046,682945.4000000954,677123.015,677118.5,677139.738,682951.01,8,400,,,
trial,html.Screen,4_107_0,2023-09-12T00:46:00.245Z,,0,3,,4306.589999904623,response,ISIC_0006757.JPG,6,ISIC_0010409.JPG,ISIC_0010409.JPG,false,0,keypress(z),500,687257.7000002861,687257.5999999046,682934.513,682945.8000001907,682951.01,687259.457,8,400,8,,ISIC_0006757.JPG
break,html.Screen,4_107_1,2023-09-12T00:46:00.245Z,,0,,,NaN,,,,,,false,,,,687258.0999999046,687258.0999999046,,687257.8000001907,,687259.457,8,400,,,
break_continue,html.Screen,4_107_2,2023-09-12T00:46:00.245Z,,0,,,NaN,,,,,,false,,,,687258.4000000954,687258.3000001907,,687258.2000002861,,687259.457,8,400,,,
sequence,flow.Sequence,4_107,2023-09-12T00:46:00.245Z,,0,,,4307.290000190726,completion,,,,,false,,,,687258.5,687258.3000001907,682934.513,682945.8000001907,682951.01,687259.457,8,400,,,
trial,html.Screen,4_108_0,2023-09-12T00:46:05.239Z,,0,3,,4992.243000286049,response,ISIC_6423964.JPG,5,ISIC_2173158.JPG,ISIC_2173158.JPG,false,0,keypress(z),500,692251.8000001907,692251.7000002861,687242.702,687258.5,687259.457,692252.505,8,400,9,,ISIC_6423964.JPG
break,html.Screen,4_108_1,2023-09-12T00:46:05.239Z,,0,,,NaN,,,,,,false,,,,692252.2000002861,692252.0999999046,,692251.9000000954,,692252.505,8,400,,,
break_continue,html.Screen,4_108_2,2023-09-12T00:46:05.239Z,,0,,,NaN,,,,,,false,,,,692252.4000000954,692252.3000001907,,692252.2000002861,,692252.505,8,400,,,
sequence,flow.Sequence,4_108,2023-09-12T00:46:05.239Z,,0,,,4992.843000190682,completion,,,,,false,,,,692252.5,692252.3000001907,687242.702,687258.5,687259.457,692252.505,8,400,,,
trial,html.Screen,4_109_0,2023-09-12T00:46:11.072Z,,0,3,,5832.195000286098,response,ISIC_5941314.JPG,4,ISIC_0011504.JPG,ISIC_0011504.JPG,false,0,keypress(z),500,698084.8000001907,698084.7000002861,692235.829,692252.5,692252.505,698097.208,8,400,10,,ISIC_5941314.JPG
break,html.Screen,4_109_1,2023-09-12T00:46:11.072Z,,0,,,NaN,,,,,,false,,,,698085.3000001907,698085.2000002861,,698084.9000000954,,698097.208,8,400,,,
break_continue,html.Screen,4_109_2,2023-09-12T00:46:11.072Z,,0,,,NaN,,,,,,false,,,,698085.7000002861,698085.5999999046,,698085.5,,698097.208,8,400,,,
sequence,flow.Sequence,4_109,2023-09-12T00:46:11.073Z,,0,,,5833.094999904628,completion,,,,,false,,,,698085.8000001907,698085.5999999046,692235.829,692252.5,692252.505,698097.208,8,400,,,
trial,html.Screen,4_110_0,2023-09-12T00:46:16.690Z,,0,3,,5606.192000095383,response,ISIC_0011607.JPG,5,ISIC_5527224.JPG,ISIC_5527224.JPG,false,0,keypress(z),500,703703.5,703703.4000000954,698080.486,698085.9000000954,698097.208,703708.21,8,400,11,,ISIC_0011607.JPG
break,html.Screen,4_110_1,2023-09-12T00:46:16.691Z,,0,,,NaN,,,,,,false,,,,703704,703703.9000000954,,703703.5999999046,,703708.21,8,400,,,
break_continue,html.Screen,4_110_2,2023-09-12T00:46:16.691Z,,0,,,NaN,,,,,,false,,,,703704.0999999046,703704.0999999046,,703704,,703708.21,8,400,,,
sequence,flow.Sequence,4_110,2023-09-12T00:46:16.691Z,,0,,,5606.891999904648,completion,,,,,false,,,,703704.0999999046,703704.0999999046,698080.486,698085.9000000954,698097.208,703708.21,8,400,,,
trial,html.Screen,4_111_0,2023-09-12T00:46:21.732Z,,0,3,,5036.99000028614,response,ISIC_8609756.JPG,5,ISIC_0273046.JPG,ISIC_0273046.JPG,false,0,keypress(z),500,708745.4000000954,708745.2000002861,703691.426,703704.2000002861,703708.21,708751.281,8,400,12,,ISIC_8609756.JPG
break,html.Screen,4_111_1,2023-09-12T00:46:21.732Z,,0,,,NaN,,,,,,false,,,,708745.8000001907,708745.5999999046,,708745.4000000954,,708751.281,8,400,,,
break_continue,html.Screen,4_111_2,2023-09-12T00:46:21.733Z,,0,,,NaN,,,,,,false,,,,708746,708745.9000000954,,708745.8000001907,,708751.281,8,400,,,
sequence,flow.Sequence,4_111,2023-09-12T00:46:21.733Z,,0,,,5037.690000095405,completion,,,,,false,,,,708746.2000002861,708745.9000000954,703691.426,703704.2000002861,703708.21,708751.281,8,400,,,
trial,html.Screen,4_112_0,2023-09-12T00:46:26.630Z,,0,3,,4892.219000000041,response,ISIC_6945921.JPG,6,ISIC_2690597.JPG,ISIC_6945921.JPG,false,1,keypress(m),500,713643.7000002861,713643.5,708734.553,708746.2000002861,708751.281,713660.897,8,400,13,,ISIC_2690597.JPG
break,html.Screen,4_112_1,2023-09-12T00:46:26.631Z,,0,,,NaN,,,,,,false,,,,713644.4000000954,713644.0999999046,,713643.8000001907,,713660.897,8,400,,,
break_continue,html.Screen,4_112_2,2023-09-12T00:46:26.632Z,,0,,,NaN,,,,,,false,,,,713644.8000001907,713644.5999999046,,713644.5,,713660.897,8,400,,,
sequence,flow.Sequence,4_112,2023-09-12T00:46:26.632Z,,0,,,4893.318999904674,completion,,,,,false,,,,713644.9000000954,713644.5999999046,708734.553,708746.2000002861,708751.281,713660.897,8,400,,,
trial,html.Screen,4_113_0,2023-09-12T00:46:31.376Z,,0,3,,4727.903000190738,response,ISIC_0011884.JPG,5,ISIC_0033595.JPG,ISIC_0033595.JPG,false,0,keypress(z),500,718389,718388.8000001907,713644.159,713644.9000000954,713660.897,718420.054,8,400,14,,ISIC_0011884.JPG
break,html.Screen,4_113_1,2023-09-12T00:46:31.376Z,,0,,,NaN,,,,,,false,,,,718389.5,718389.3000001907,,718389.0999999046,,718420.054,8,400,,,
break_continue,html.Screen,4_113_2,2023-09-12T00:46:31.376Z,,0,,,NaN,,,,,,false,,,,718389.5999999046,718389.5999999046,,718389.5,,718420.054,8,400,,,
sequence,flow.Sequence,4_113,2023-09-12T00:46:31.376Z,,0,,,4728.702999904635,completion,,,,,false,,,,718389.7000002861,718389.5999999046,713644.159,713644.9000000954,713660.897,718420.054,8,400,,,
trial,html.Screen,4_114_0,2023-09-12T00:46:36.596Z,,0,3,,5189.246000190731,response,ISIC_0054006.JPG,4,ISIC_0160831.JPG,ISIC_0054006.JPG,false,1,keypress(m),500,723609.4000000954,723609.3000001907,718403.403,718389.7000002861,718420.054,723630.226,8,400,15,,ISIC_0160831.JPG
break,html.Screen,4_114_1,2023-09-12T00:46:36.597Z,,0,,,NaN,,,,,,false,,,,723609.9000000954,723609.8000001907,,723609.5999999046,,723630.226,8,400,,,
break_continue,html.Screen,4_114_2,2023-09-12T00:46:36.597Z,,0,,,NaN,,,,,,false,,,,723610,723610,,723609.9000000954,,723630.226,8,400,,,
sequence,flow.Sequence,4_114,2023-09-12T00:46:36.597Z,,0,,,5189.945999999996,completion,,,,,false,,,,723610.0999999046,723610,718403.403,718389.7000002861,718420.054,723630.226,8,400,,,
trial,html.Screen,4_115_0,2023-09-12T00:46:40.797Z,,0,3,,4179.474000286078,response,ISIC_0001137.JPG,6,ISIC_8101493.JPG,ISIC_0001137.JPG,false,1,keypress(m),500,727809.8000001907,727809.7000002861,723613.605,723610.2000002861,723630.226,727821.723,8,400,16,,ISIC_8101493.JPG
break,html.Screen,4_115_1,2023-09-12T00:46:40.797Z,,0,,,NaN,,,,,,false,,,,727810.5,727810.3000001907,,727810,,727821.723,8,400,,,
break_continue,html.Screen,4_115_2,2023-09-12T00:46:40.798Z,,0,,,NaN,,,,,,false,,,,727810.7000002861,727810.7000002861,,727810.5999999046,,727821.723,8,400,,,
sequence,flow.Sequence,4_115,2023-09-12T00:46:40.798Z,,0,,,4180.474000286078,completion,,,,,false,,,,727810.9000000954,727810.7000002861,723613.605,723610.2000002861,723630.226,727821.723,8,400,,,
trial,html.Screen,4_116_0,2023-09-12T00:46:45.715Z,,0,3,,4905.777000000002,response,ISIC_0028898.JPG,7,ISIC_6590303.JPG,ISIC_0028898.JPG,false,1,keypress(m),500,732727.8000001907,732727.5,727804.983,727811,727821.723,732731.374,8,400,17,,ISIC_6590303.JPG
break,html.Screen,4_116_1,2023-09-12T00:46:45.717Z,,0,,,NaN,,,,,,false,,,,732729.9000000954,732729.4000000954,,732728.2000002861,,732731.374,8,400,,,
break_continue,html.Screen,4_116_2,2023-09-12T00:46:45.718Z,,0,,,NaN,,,,,,false,,,,732730.8000001907,732730.5999999046,,732730.3000001907,,732731.374,8,400,,,
sequence,flow.Sequence,4_116,2023-09-12T00:46:45.718Z,,0,,,4908.876999904634,completion,,,,,false,,,,732731.0999999046,732730.5999999046,727804.983,727811,727821.723,732731.374,8,400,,,
trial,html.Screen,4_117_0,2023-09-12T00:46:52.718Z,,0,3,,7000.526000095415,response,ISIC_0063926.JPG,5,ISIC_0028929.JPG,ISIC_0063926.JPG,false,1,keypress(m),500,739732,739731.9000000954,732714.663,732731.3000001907,732731.374,739744.888,8,400,18,,ISIC_0028929.JPG
break,html.Screen,4_117_1,2023-09-12T00:46:52.719Z,,0,,,NaN,,,,,,false,,,,739732.5,739732.4000000954,,739732.2000002861,,739744.888,8,400,,,
break_continue,html.Screen,4_117_2,2023-09-12T00:46:52.719Z,,0,,,NaN,,,,,,false,,,,739732.7000002861,739732.5999999046,,739732.5,,739744.888,8,400,,,
sequence,flow.Sequence,4_117,2023-09-12T00:46:52.719Z,,0,,,7001.22599990468,completion,,,,,false,,,,739732.8000001907,739732.5999999046,732714.663,732731.2000002861,732731.374,739744.888,8,400,,,
trial,html.Screen,4_118_0,2023-09-12T00:46:57.029Z,,0,3,,4297.4120001906995,response,ISIC_9473492.JPG,4,ISIC_0034262.JPG,ISIC_0034262.JPG,false,0,keypress(z),500,744042.3000001907,744042.3000001907,739728.234,739732.8000001907,739744.888,744070.043,8,400,19,,ISIC_9473492.JPG
break,html.Screen,4_118_1,2023-09-12T00:46:57.029Z,,0,,,NaN,,,,,,false,,,,744042.8000001907,744042.7000002861,,744042.5,,744070.043,8,400,,,
break_continue,html.Screen,4_118_2,2023-09-12T00:46:57.029Z,,0,,,NaN,,,,,,false,,,,744042.9000000954,744042.9000000954,,744042.8000001907,,744070.043,8,400,,,
sequence,flow.Sequence,4_118,2023-09-12T00:46:57.029Z,,0,,,4298.012000095332,completion,,,,,false,,,,744043,744042.9000000954,739728.234,739732.8000001907,739744.888,744070.043,8,400,,,
trial,html.Screen,4_119_0,2023-09-12T00:47:01.867Z,,0,3,,4810.457000000053,response,ISIC_0028528.JPG,5,ISIC_5122042.JPG,ISIC_0028528.JPG,false,1,keypress(m),500,748880.5999999046,748880.5,744053.305,744043.0999999046,744070.043,748896.075,8,400,20,,ISIC_5122042.JPG
break,html.Screen,4_119_1,2023-09-12T00:47:01.868Z,,0,,,NaN,,,,,,false,,,,748881.5,748881.0999999046,,748880.9000000954,,748896.075,8,400,,,
break_continue,html.Screen,4_119_2,2023-09-12T00:47:01.868Z,,0,,,NaN,,,,,,false,,,,748882,748881.9000000954,,748881.7000002861,,748896.075,8,400,,,
sequence,flow.Sequence,4_119,2023-09-12T00:47:01.869Z,,0,,,4811.8570000954205,completion,,,,,false,,,,748882.2000002861,748881.9000000954,744053.305,744043.0999999046,744070.043,748896.075,8,400,,,
trial,html.Screen,4_120_0,2023-09-12T00:47:07.343Z,,0,3,,5460.225000190781,response,ISIC_0021052.JPG,6,ISIC_0536433.JPG,ISIC_0021052.JPG,false,1,keypress(m),500,754356.5,754356.3000001907,748879.442,748882.4000000954,748896.075,754373.46,8,400,21,,ISIC_0536433.JPG
break,html.Screen,4_120_1,2023-09-12T00:47:07.344Z,,0,,,NaN,,,,,,false,,,,754357.9000000954,754357.7000002861,,754356.9000000954,,754373.46,8,400,,,
break_continue,html.Screen,4_120_2,2023-09-12T00:47:07.345Z,,0,,,NaN,,,,,,false,,,,754358.3000001907,754358.2000002861,,754358,,754373.46,8,400,,,
sequence,flow.Sequence,4_120,2023-09-12T00:47:07.345Z,,0,,,5462.125000286149,completion,,,,,false,,,,754358.4000000954,754358.2000002861,748879.442,748882.3000001907,748896.075,754373.46,8,400,,,
trial,html.Screen,4_121_0,2023-09-12T00:47:12.102Z,,0,3,,4741.74000028614,response,ISIC_0071806.JPG,4,ISIC_8234773.JPG,ISIC_0071806.JPG,false,1,keypress(m),500,759115.3000001907,759115.2000002861,754356.706,754358.5,754373.46,759132.867,8,400,22,,ISIC_8234773.JPG
break,html.Screen,4_121_1,2023-09-12T00:47:12.103Z,,0,,,NaN,,,,,,false,,,,759116.3000001907,759115.8000001907,,759115.5999999046,,759132.867,8,400,,,
break_continue,html.Screen,4_121_2,2023-09-12T00:47:12.103Z,,0,,,NaN,,,,,,false,,,,759116.5999999046,759116.5999999046,,759116.4000000954,,759132.867,8,400,,,
sequence,flow.Sequence,4_121,2023-09-12T00:47:12.103Z,,0,,,4743.13999990467,completion,,,,,false,,,,759116.7000002861,759116.5999999046,754356.706,754358.5,754373.46,759132.867,8,400,,,
trial,html.Screen,4_122_0,2023-09-12T00:47:16.953Z,,0,3,,4833.433000190766,response,ISIC_0014324.JPG,4,ISIC_7282415.JPG,ISIC_0014324.JPG,false,1,keypress(m),500,763966.4000000954,763966.3000001907,759115.973,759116.7000002861,759132.867,763975.365,8,400,23,,ISIC_7282415.JPG
break,html.Screen,4_122_1,2023-09-12T00:47:16.953Z,,0,,,NaN,,,,,,false,,,,763967,763966.9000000954,,763966.5999999046,,763975.365,8,400,,,
break_continue,html.Screen,4_122_2,2023-09-12T00:47:16.954Z,,0,,,NaN,,,,,,false,,,,763967.3000001907,763967.2000002861,,763967.0999999046,,763975.365,8,400,,,
sequence,flow.Sequence,4_122,2023-09-12T00:47:16.954Z,,0,,,4834.333000286133,completion,,,,,false,,,,763967.3000001907,763967.2000002861,759115.973,759116.7000002861,759132.867,763975.365,8,400,,,
trial,html.Screen,4_123_0,2023-09-12T00:47:21.599Z,,0,3,,4637.535000095377,response,ISIC_0024441.JPG,5,ISIC_0059065.JPG,ISIC_0059065.JPG,false,0,keypress(z),500,768613,768612.9000000954,763958.679,763967.3000001907,763975.365,768617.758,8,400,24,,ISIC_0024441.JPG
break,html.Screen,4_123_1,2023-09-12T00:47:21.600Z,,0,,,NaN,,,,,,false,,,,768613.4000000954,768613.3000001907,,768613.0999999046,,768617.758,8,400,,,
break_continue,html.Screen,4_123_2,2023-09-12T00:47:21.600Z,,0,,,NaN,,,,,,false,,,,768613.5999999046,768613.5,,768613.4000000954,,768617.758,8,400,,,
sequence,flow.Sequence,4_123,2023-09-12T00:47:21.600Z,,0,,,4638.135000000009,completion,,,,,false,,,,768613.7000002861,768613.5,763958.679,763967.3000001907,763975.365,768617.758,8,400,,,
trial,html.Screen,4_124_0,2023-09-12T00:47:26.295Z,,0,3,,4690.442000286072,response,ISIC_0054925.JPG,6,ISIC_2159510.JPG,ISIC_0054925.JPG,false,1,keypress(m),500,773308.3000001907,773308.2000002861,768601.107,768613.7000002861,768617.758,773310.252,8,400,25,,ISIC_2159510.JPG
break,html.Screen,4_124_1,2023-09-12T00:47:26.295Z,,0,,,NaN,,,,,,false,,,,773309,773308.8000001907,,773308.5,,773310.252,8,400,,,
break_continue,html.Screen,4_124_2,2023-09-12T00:47:26.296Z,,0,,,NaN,,,,,,false,,,,773309.4000000954,773309.3000001907,,773309.2000002861,,773310.252,8,400,,,
sequence,flow.Sequence,4_124,2023-09-12T00:47:26.296Z,,0,,,4691.542000190704,completion,,,,,false,,,,773309.5,773309.3000001907,768601.107,768613.7000002861,768617.758,773310.252,8,400,,,
trial,html.Screen,4_125_0,2023-09-12T00:47:31.147Z,,0,3,,4850.248000000021,response,ISIC_5798015.JPG,4,ISIC_4264600.JPG,ISIC_4264600.JPG,false,0,keypress(z),500,778160.7000002861,778160.5,773293.522,773309.5999999046,773310.252,778169.866,8,400,26,,ISIC_5798015.JPG
break,html.Screen,4_125_1,2023-09-12T00:47:31.148Z,,0,,,NaN,,,,,,false,,,,778161.3000001907,778161.2000002861,,778160.8000001907,,778169.866,8,400,,,
break_continue,html.Screen,4_125_2,2023-09-12T00:47:31.148Z,,0,,,NaN,,,,,,false,,,,778161.7000002861,778161.5999999046,,778161.4000000954,,778169.866,8,400,,,
sequence,flow.Sequence,4_125,2023-09-12T00:47:31.148Z,,0,,,4851.347999904654,completion,,,,,false,,,,778161.8000001907,778161.5999999046,773293.522,773309.5999999046,773310.252,778169.866,8,400,,,
