sender,sender_type,sender_id,timestamp,meta,,blockNo,condition,duration,ended_on,img_left,img_reveal,img_right,loser,practice,response,response_action,selection_duration,time_commit,time_end,time_render,time_run,time_show,time_switch,total_blocks,total_trials,trialNo,url,winner
informed_consent,html.Screen,0,2023-09-02T21:30:43.069Z,"{""labjs_version"":""20.2.4"",""labjs_build"":{""flavor"":""development"",""commit"":""f5b4a49f956347addd546a832a3327688c2c0fef""},""location"":""https://labjs.felixhenninger.com/api/labjs_preview/index.html"",""userAgent"":""Mozilla/5.0 (Windows NT 10.0; Win64; x64) AppleWebKit/537.36 (KHTML, like Gecko) Chrome/116.0.0.0 Safari/537.36"",""platform"":""Win32"",""language"":""en-AU"",""locale"":""en-US"",""timeZone"":""America/Chicago"",""timezoneOffset"":300,""screen_width"":1536,""screen_height"":864,""scroll_width"":1056,""scroll_height"":626,""window_innerWidth"":1056,""window_innerHeight"":674,""devicePixelRatio"":1.25}",,,,2419.7200000089406,response,,,,,,consent,click button,,3466.1000000089407,3464.6000000089407,1028.077,1155.2000000029802,1044.88,3334.163,,,,{},
Welcome,html.Screen,1,2023-09-02T21:30:44.763Z,,,,symmetry,1824.0370000029802,response,,,,,,continue,click button,,5159.29999999702,5158.20000000298,3317.465,3466.4000000059605,3334.163,5026.702,,,,,
trial,html.Screen,2_0_0,2023-09-02T21:30:49.151Z,,0,0,,4520.3980000089405,response,ISIC_0069348.JPG,,ISIC_6997061.JPG,ISIC_0069348.JPG,true,1,keypress(m),500,9547.40000000596,9547.10000000894,5010.351,5159.600000008941,5026.702,9423.342,1,6,1,,ISIC_6997061.JPG
sequence,flow.Sequence,2_0,2023-09-02T21:30:49.151Z,,0,,,4520.3980000089405,completion,,,,,true,,,,9547.79999999702,9547.10000000894,5010.351,5159.600000008941,5026.702,9423.342,1,6,,,
trial,html.Screen,2_1_0,2023-09-02T21:30:52.114Z,,0,0,,3087.3580000029797,response,ISIC_0057368.JPG,,ISIC_0009529.JPG,ISIC_0057368.JPG,true,1,keypress(m),500,12510.90000000596,12510.70000000298,9401.917,9547.79999999702,9423.342,12382.581,1,6,2,,ISIC_0009529.JPG
sequence,flow.Sequence,2_1,2023-09-02T21:30:52.115Z,,0,,,3087.3580000029797,completion,,,,,true,,,,12511.20000000298,12510.70000000298,9401.917,9547.79999999702,9423.342,12382.581,1,6,,,
trial,html.Screen,2_2_0,2023-09-02T21:30:55.817Z,,0,0,,3830.419,response,ISIC_9758671.JPG,,ISIC_0064954.JPG,ISIC_9758671.JPG,true,1,keypress(m),500,16213.10000000894,16213,12367.082,12511.20000000298,12382.581,16088.151,1,6,3,,ISIC_0064954.JPG
sequence,flow.Sequence,2_2,2023-09-02T21:30:55.817Z,,0,,,3830.419,completion,,,,,true,,,,16213.20000000298,16213,12367.082,12511.20000000298,12382.581,16088.151,1,6,,,
trial,html.Screen,2_3_0,2023-09-02T21:30:59.067Z,,0,0,,3374.949000008941,response,ISIC_0000080.JPG,,ISIC_0005785.JPG,ISIC_0005785.JPG,true,0,keypress(z),500,19463.29999999702,19463.10000000894,16069.807,16213.40000000596,16088.151,19321.702,1,6,4,,ISIC_0000080.JPG
sequence,flow.Sequence,2_3,2023-09-02T21:30:59.067Z,,0,,,3374.949000008941,completion,,,,,true,,,,19463.5,19463.10000000894,16069.807,16213.29999999702,16088.151,19321.702,1,6,,,
trial,html.Screen,2_4_0,2023-09-02T21:31:02.837Z,,0,0,,3911.1980000059593,response,ISIC_7944028.JPG,,ISIC_5390060.JPG,ISIC_5390060.JPG,true,0,keypress(z),500,23233.20000000298,23232.90000000596,19317.89,19463.70000000298,19321.702,23091.491,1,6,5,,ISIC_7944028.JPG
sequence,flow.Sequence,2_4,2023-09-02T21:31:02.837Z,,0,,,3911.1980000059593,completion,,,,,true,,,,23233.40000000596,23232.90000000596,19317.89,19463.60000000894,19321.702,23091.491,1,6,,,
trial,html.Screen,2_5_0,2023-09-02T21:31:05.740Z,,0,0,,3044.808999997018,response,ISIC_0010188.JPG,,ISIC_0794216.JPG,ISIC_0010188.JPG,true,1,keypress(m),500,26136.60000000894,26136.29999999702,23088.754,23233.5,23091.491,26012.699,1,6,6,,ISIC_0794216.JPG
sequence,flow.Sequence,2_5,2023-09-02T21:31:05.740Z,,0,,,3044.808999997018,completion,,,,,true,,,,26136.79999999702,26136.29999999702,23088.754,23233.40000000596,23091.491,26012.699,1,6,,,
loop,flow.Loop,2,2023-09-02T21:31:05.740Z,,,,,21109.59799999702,completion,,,,,true,,,,26137,26136.29999999702,5010.351,5159.5,5026.702,26012.699,1,6,,,
exp_instructions,html.Screen,3,2023-09-02T21:31:06.686Z,,,,,1069.8009999999995,response,,,,,,continue,keypress(Space),,27082.90000000596,27082.5,25990.073,26137,26012.699,26959.1,,,,,
trial,html.Screen,4_0_0,2023-09-02T21:31:11.395Z,,0,1,,4832.800000005962,response,ISIC_0031835.JPG,5,ISIC_0016094.JPG,ISIC_0016094.JPG,false,0,keypress(z),500,31792,31791.90000000596,26927.776,27083.10000000894,26959.1,31665.991,8,400,1,,ISIC_0031835.JPG
break,html.Screen,4_0_1,2023-09-02T21:31:11.396Z,,0,,,NaN,,,,,,false,,,,31792.90000000596,31792.70000000298,,31792.20000000298,,31665.991,8,400,,,
break_continue,html.Screen,4_0_2,2023-09-02T21:31:11.397Z,,0,,,NaN,,,,,,false,,,,31793.20000000298,31793.10000000894,,31793,,31665.991,8,400,,,
sequence,flow.Sequence,4_0,2023-09-02T21:31:11.397Z,,0,,,4834.000000008942,completion,,,,,false,,,,31793.20000000298,31793.10000000894,26927.776,27083.10000000894,26959.1,31665.991,8,400,,,
trial,html.Screen,4_1_0,2023-09-02T21:31:15.613Z,,0,1,,4343.109000008939,response,ISIC_0071367.JPG,6,ISIC_7097931.JPG,ISIC_7097931.JPG,false,0,keypress(z),500,36009.20000000298,36009.10000000894,31648.133,31793.20000000298,31665.991,35867.941,8,400,2,,ISIC_0071367.JPG
break,html.Screen,4_1_1,2023-09-02T21:31:15.614Z,,0,,,NaN,,,,,,false,,,,36010.20000000298,36009.90000000596,,36009.40000000596,,35867.941,8,400,,,
break_continue,html.Screen,4_1_2,2023-09-02T21:31:15.614Z,,0,,,NaN,,,,,,false,,,,36010.60000000894,36010.5,,36010.40000000596,,35867.941,8,400,,,
sequence,flow.Sequence,4_1,2023-09-02T21:31:15.614Z,,0,,,4344.508999999998,completion,,,,,false,,,,36010.70000000298,36010.5,31648.133,31793.20000000298,31665.991,35867.941,8,400,,,
trial,html.Screen,4_2_0,2023-09-02T21:31:19.488Z,,0,1,,4016.559000000001,response,ISIC_0006517.JPG,6,ISIC_0034294.JPG,ISIC_0034294.JPG,false,0,keypress(z),500,39884.60000000894,39884.5,35864.961,36010.79999999702,35867.941,39750.321,8,400,3,,ISIC_0006517.JPG
break,html.Screen,4_2_1,2023-09-02T21:31:19.489Z,,0,,,NaN,,,,,,false,,,,39885.20000000298,39885,,39884.79999999702,,39750.321,8,400,,,
break_continue,html.Screen,4_2_2,2023-09-02T21:31:19.489Z,,0,,,NaN,,,,,,false,,,,39885.40000000596,39885.40000000596,,39885.29999999702,,39750.321,8,400,,,
sequence,flow.Sequence,4_2,2023-09-02T21:31:19.489Z,,0,,,4017.4590000059616,completion,,,,,false,,,,39885.5,39885.40000000596,35864.961,36010.79999999702,35867.941,39750.321,8,400,,,
trial,html.Screen,4_3_0,2023-09-02T21:31:22.548Z,,0,1,,3193.779000008937,response,ISIC_4508511.JPG,5,ISIC_0057495.JPG,ISIC_4508511.JPG,false,1,keypress(m),500,42944.29999999702,42944.10000000894,39733.689,39885.5,39750.321,42819.879,8,400,4,,ISIC_0057495.JPG
break,html.Screen,4_3_1,2023-09-02T21:31:22.548Z,,0,,,NaN,,,,,,false,,,,42944.70000000298,42944.60000000894,,42944.40000000596,,42819.879,8,400,,,
break_continue,html.Screen,4_3_2,2023-09-02T21:31:22.548Z,,0,,,NaN,,,,,,false,,,,42944.90000000596,42944.90000000596,,42944.90000000596,,42819.879,8,400,,,
sequence,flow.Sequence,4_3,2023-09-02T21:31:22.548Z,,0,,,3194.579000005957,completion,,,,,false,,,,42945,42944.90000000596,39733.689,39885.5,39750.321,42819.879,8,400,,,
trial,html.Screen,4_4_0,2023-09-02T21:31:25.637Z,,0,1,,3213.920999997019,response,ISIC_5318217.JPG,5,ISIC_4453506.JPG,ISIC_4453506.JPG,false,0,keypress(z),500,46034,46033.79999999702,42792.833,42945.10000000894,42819.879,45906.05,8,400,5,,ISIC_5318217.JPG
break,html.Screen,4_4_1,2023-09-02T21:31:25.638Z,,0,,,NaN,,,,,,false,,,,46034.70000000298,46034.40000000596,,46034.10000000894,,45906.05,8,400,,,
break_continue,html.Screen,4_4_2,2023-09-02T21:31:25.638Z,,0,,,NaN,,,,,,false,,,,46034.90000000596,46034.90000000596,,46034.70000000298,,45906.05,8,400,,,
sequence,flow.Sequence,4_4,2023-09-02T21:31:25.638Z,,0,,,3215.0210000059596,completion,,,,,false,,,,46035,46034.90000000596,42792.833,42945.10000000894,42819.879,45906.05,8,400,,,
trial,html.Screen,4_5_0,2023-09-02T21:31:29.961Z,,0,1,,4450.949999999997,response,ISIC_0026369.JPG,5,ISIC_7044184.JPG,ISIC_0026369.JPG,false,1,keypress(m),500,50357.29999999702,50357,45888.905,46035.10000000894,45906.05,50223.365,8,400,6,,ISIC_7044184.JPG
break,html.Screen,4_5_1,2023-09-02T21:31:29.962Z,,0,,,NaN,,,,,,false,,,,50358.40000000596,50358.10000000894,,50357.60000000894,,50223.365,8,400,,,
break_continue,html.Screen,4_5_2,2023-09-02T21:31:29.962Z,,0,,,NaN,,,,,,false,,,,50358.90000000596,50358.79999999702,,50358.60000000894,,50223.365,8,400,,,
sequence,flow.Sequence,4_5,2023-09-02T21:31:29.962Z,,0,,,4452.749999997017,completion,,,,,false,,,,50359,50358.79999999702,45888.905,46035.10000000894,45906.05,50223.365,8,400,,,
trial,html.Screen,4_6_0,2023-09-02T21:31:33.168Z,,0,1,,3340.7350000089427,response,ISIC_0009975.JPG,5,ISIC_7803114.JPG,ISIC_0009975.JPG,false,1,keypress(m),500,53564.20000000298,53564.10000000894,50205.922,50359.20000000298,50223.365,53422.671,8,400,7,,ISIC_7803114.JPG
break,html.Screen,4_6_1,2023-09-02T21:31:33.168Z,,0,,,NaN,,,,,,false,,,,53564.70000000298,53564.5,,53564.29999999702,,53422.671,8,400,,,
break_continue,html.Screen,4_6_2,2023-09-02T21:31:33.168Z,,0,,,NaN,,,,,,false,,,,53564.90000000596,53564.79999999702,,53564.70000000298,,53422.671,8,400,,,
sequence,flow.Sequence,4_6,2023-09-02T21:31:33.169Z,,0,,,3341.434999997022,completion,,,,,false,,,,53565.60000000894,53564.79999999702,50205.922,50359.20000000298,50223.365,53422.671,8,400,,,
trial,html.Screen,4_7_0,2023-09-02T21:31:40.390Z,,0,1,,7363.929000008939,response,ISIC_3673080.JPG,5,ISIC_0070048.JPG,ISIC_3673080.JPG,false,1,keypress(m),500,60786.79999999702,60786.60000000894,53404.98,53565.60000000894,53422.671,60645.346,8,400,8,,ISIC_0070048.JPG
break,html.Screen,4_7_1,2023-09-02T21:31:40.391Z,,0,,,NaN,,,,,,false,,,,60787.60000000894,60787.29999999702,,60787,,60645.346,8,400,,,
break_continue,html.Screen,4_7_2,2023-09-02T21:31:40.392Z,,0,,,NaN,,,,,,false,,,,60788.29999999702,60788.20000000298,,60787.79999999702,,60645.346,8,400,,,
sequence,flow.Sequence,4_7,2023-09-02T21:31:40.392Z,,0,,,7365.529000002978,completion,,,,,false,,,,60788.40000000596,60788.20000000298,53404.98,53565.60000000894,53422.671,60645.346,8,400,,,
trial,html.Screen,4_8_0,2023-09-02T21:31:44.097Z,,0,1,,3847.6540000000023,response,ISIC_0069595.JPG,6,ISIC_1150482.JPG,ISIC_0069595.JPG,false,1,keypress(m),500,64493.40000000596,64493,60640.67,60788.40000000596,60645.346,64352.291,8,400,9,,ISIC_1150482.JPG
break,html.Screen,4_8_1,2023-09-02T21:31:44.098Z,,0,,,NaN,,,,,,false,,,,64494.40000000596,64494.10000000894,,64493.5,,64352.291,8,400,,,
break_continue,html.Screen,4_8_2,2023-09-02T21:31:44.098Z,,0,,,NaN,,,,,,false,,,,64495,64494.90000000596,,64494.60000000894,,64352.291,8,400,,,
sequence,flow.Sequence,4_8,2023-09-02T21:31:44.099Z,,0,,,3849.5540000059627,completion,,,,,false,,,,64495.10000000894,64494.90000000596,60640.67,60788.40000000596,60645.346,64352.291,8,400,,,
trial,html.Screen,4_9_0,2023-09-02T21:31:49.653Z,,0,1,,5696.709000000003,response,ISIC_5569568.JPG,5,ISIC_0071797.JPG,ISIC_5569568.JPG,false,1,keypress(m),500,70049.29999999702,70049,64349.674,64495.20000000298,64352.291,69908.238,8,400,10,,ISIC_0071797.JPG
break,html.Screen,4_9_1,2023-09-02T21:31:49.654Z,,0,,,NaN,,,,,,false,,,,70050.20000000298,70050,,70049.5,,69908.238,8,400,,,
break_continue,html.Screen,4_9_2,2023-09-02T21:31:49.654Z,,0,,,NaN,,,,,,false,,,,70050.70000000298,70050.60000000894,,70050.5,,69908.238,8,400,,,
sequence,flow.Sequence,4_9,2023-09-02T21:31:49.654Z,,0,,,5698.309000008943,completion,,,,,false,,,,70051,70050.60000000894,64349.674,64495.20000000298,64352.291,69908.238,8,400,,,
trial,html.Screen,4_10_0,2023-09-02T21:31:52.808Z,,0,1,,3296.561999997022,response,ISIC_0063753.JPG,6,ISIC_0010255.JPG,ISIC_0063753.JPG,false,1,keypress(m),500,73205.10000000894,73204.79999999702,69901.449,70051,69908.238,73064.109,8,400,11,,ISIC_0010255.JPG
break,html.Screen,4_10_1,2023-09-02T21:31:52.809Z,,0,,,NaN,,,,,,false,,,,73206,73205.79999999702,,73205.20000000298,,73064.109,8,400,,,
break_continue,html.Screen,4_10_2,2023-09-02T21:31:52.810Z,,0,,,NaN,,,,,,false,,,,73206.5,73206.40000000596,,73206.20000000298,,73064.109,8,400,,,
sequence,flow.Sequence,4_10,2023-09-02T21:31:52.810Z,,0,,,3298.162000005963,completion,,,,,false,,,,73206.60000000894,73206.40000000596,69901.449,70051,69908.238,73064.109,8,400,,,
trial,html.Screen,4_11_0,2023-09-02T21:31:55.521Z,,0,1,,2853.2910000059637,response,ISIC_5831880.JPG,4,ISIC_0064932.JPG,ISIC_0064932.JPG,false,0,keypress(z),500,75917.70000000298,75917.40000000596,73055.992,73206.79999999702,73064.109,75776.667,8,400,12,,ISIC_5831880.JPG
break,html.Screen,4_11_1,2023-09-02T21:31:55.522Z,,0,,,NaN,,,,,,false,,,,75918.79999999702,75918.5,,75918,,75776.667,8,400,,,
break_continue,html.Screen,4_11_2,2023-09-02T21:31:55.523Z,,0,,,NaN,,,,,,false,,,,75919.40000000596,75919.20000000298,,75919,,75776.667,8,400,,,
sequence,flow.Sequence,4_11,2023-09-02T21:31:55.523Z,,0,,,2855.0910000029835,completion,,,,,false,,,,75919.5,75919.20000000298,73055.992,73206.79999999702,73064.109,75776.667,8,400,,,
trial,html.Screen,4_12_0,2023-09-02T21:31:58.199Z,,0,1,,2819.233000005959,response,ISIC_6558697.JPG,4,ISIC_7633960.JPG,ISIC_7633960.JPG,false,0,keypress(z),500,78596,78595.90000000596,75774.912,75919.60000000894,75776.667,78457.67,8,400,13,,ISIC_6558697.JPG
break,html.Screen,4_12_1,2023-09-02T21:31:58.200Z,,0,,,NaN,,,,,,false,,,,78596.5,78596.29999999702,,78596.10000000894,,78457.67,8,400,,,
break_continue,html.Screen,4_12_2,2023-09-02T21:31:58.200Z,,0,,,NaN,,,,,,false,,,,78596.70000000298,78596.70000000298,,78596.5,,78457.67,8,400,,,
sequence,flow.Sequence,4_12,2023-09-02T21:31:58.200Z,,0,,,2820.033000002979,completion,,,,,false,,,,78596.70000000298,78596.70000000298,75774.912,75919.5,75776.667,78457.67,8,400,,,
trial,html.Screen,4_13_0,2023-09-02T21:32:01.259Z,,0,1,,3197.230000005962,response,ISIC_0046305.JPG,6,ISIC_0927854.JPG,ISIC_0927854.JPG,false,0,keypress(z),500,81655.10000000894,81654.90000000596,78436.605,78596.79999999702,78457.67,81514.193,8,400,14,,ISIC_0046305.JPG
break,html.Screen,4_13_1,2023-09-02T21:32:01.259Z,,0,,,NaN,,,,,,false,,,,81656,81655.70000000298,,81655.29999999702,,81514.193,8,400,,,
break_continue,html.Screen,4_13_2,2023-09-02T21:32:01.260Z,,0,,,NaN,,,,,,false,,,,81656.29999999702,81656.29999999702,,81656.10000000894,,81514.193,8,400,,,
sequence,flow.Sequence,4_13,2023-09-02T21:32:01.260Z,,0,,,3198.6299999970215,completion,,,,,false,,,,81656.5,81656.29999999702,78436.605,78596.79999999702,78457.67,81514.193,8,400,,,
trial,html.Screen,4_14_0,2023-09-02T21:32:04.190Z,,0,1,,3072.007000002981,response,ISIC_4136663.JPG,5,ISIC_6661691.JPG,ISIC_4136663.JPG,false,1,keypress(m),500,84586.40000000596,84586.20000000298,81507.687,81656.5,81514.193,84445.412,8,400,15,,ISIC_6661691.JPG
break,html.Screen,4_14_1,2023-09-02T21:32:04.191Z,,0,,,NaN,,,,,,false,,,,84587.5,84587.20000000298,,84586.60000000894,,84445.412,8,400,,,
break_continue,html.Screen,4_14_2,2023-09-02T21:32:04.191Z,,0,,,NaN,,,,,,false,,,,84588.10000000894,84587.90000000596,,84587.60000000894,,84445.412,8,400,,,
sequence,flow.Sequence,4_14,2023-09-02T21:32:04.192Z,,0,,,3073.707000005961,completion,,,,,false,,,,84588.10000000894,84587.90000000596,81507.687,81656.5,81514.193,84445.412,8,400,,,
trial,html.Screen,4_15_0,2023-09-02T21:32:07.241Z,,0,1,,3191.887999997023,response,ISIC_2489146.JPG,5,ISIC_0538042.JPG,ISIC_2489146.JPG,false,1,keypress(m),500,87637.60000000894,87637.29999999702,84436.591,84588.29999999702,84445.412,87496.581,8,400,16,,ISIC_0538042.JPG
break,html.Screen,4_15_1,2023-09-02T21:32:07.242Z,,0,,,NaN,,,,,,false,,,,87638.5,87638.29999999702,,87637.79999999702,,87496.581,8,400,,,
break_continue,html.Screen,4_15_2,2023-09-02T21:32:07.242Z,,0,,,NaN,,,,,,false,,,,87639.10000000894,87638.90000000596,,87638.70000000298,,87496.581,8,400,,,
sequence,flow.Sequence,4_15,2023-09-02T21:32:07.243Z,,0,,,3193.488000005964,completion,,,,,false,,,,87639.20000000298,87638.90000000596,84436.591,84588.29999999702,84445.412,87496.581,8,400,,,
trial,html.Screen,4_16_0,2023-09-02T21:32:10.399Z,,0,1,,3298.4189999999944,response,ISIC_0009894.JPG,4,ISIC_8847321.JPG,ISIC_0009894.JPG,false,1,keypress(m),500,90795.20000000298,90795,87493.367,87639.29999999702,87496.581,90654.136,8,400,17,,ISIC_8847321.JPG
break,html.Screen,4_16_1,2023-09-02T21:32:10.400Z,,0,,,NaN,,,,,,false,,,,90796.29999999702,90796,,90795.40000000596,,90654.136,8,400,,,
break_continue,html.Screen,4_16_2,2023-09-02T21:32:10.400Z,,0,,,NaN,,,,,,false,,,,90796.70000000298,90796.60000000894,,90796.40000000596,,90654.136,8,400,,,
sequence,flow.Sequence,4_16,2023-09-02T21:32:10.400Z,,0,,,3300.019000008935,completion,,,,,false,,,,90796.79999999702,90796.60000000894,87493.367,87639.29999999702,87496.581,90654.136,8,400,,,
trial,html.Screen,4_17_0,2023-09-02T21:32:13.940Z,,0,1,,3681.964000008942,response,ISIC_0000313.JPG,5,ISIC_4519298.JPG,ISIC_0000313.JPG,false,1,keypress(m),500,94336.40000000596,94336.10000000894,90646.287,90797,90654.136,94196.041,8,400,18,,ISIC_4519298.JPG
break,html.Screen,4_17_1,2023-09-02T21:32:13.941Z,,0,,,NaN,,,,,,false,,,,94337.40000000596,94337.10000000894,,94336.60000000894,,94196.041,8,400,,,
break_continue,html.Screen,4_17_2,2023-09-02T21:32:13.941Z,,0,,,NaN,,,,,,false,,,,94337.90000000596,94337.79999999702,,94337.5,,94196.041,8,400,,,
sequence,flow.Sequence,4_17,2023-09-02T21:32:13.942Z,,0,,,3683.663999997021,completion,,,,,false,,,,94338.20000000298,94337.79999999702,90646.287,90796.90000000596,90654.136,94196.041,8,400,,,
trial,html.Screen,4_18_0,2023-09-02T21:32:16.792Z,,0,1,,2992.859000005963,response,ISIC_6684042.JPG,5,ISIC_2421696.JPG,ISIC_6684042.JPG,false,1,keypress(m),500,97189.10000000894,97188.90000000596,94179.426,94338.40000000596,94196.041,97047.899,8,400,19,,ISIC_2421696.JPG
break,html.Screen,4_18_1,2023-09-02T21:32:16.794Z,,0,,,NaN,,,,,,false,,,,97190.79999999702,97189.90000000596,,97189.29999999702,,97047.899,8,400,,,
break_continue,html.Screen,4_18_2,2023-09-02T21:32:16.795Z,,0,,,NaN,,,,,,false,,,,97191.29999999702,97191.20000000298,,97191,,97047.899,8,400,,,
sequence,flow.Sequence,4_18,2023-09-02T21:32:16.795Z,,0,,,2995.159000002983,completion,,,,,false,,,,97191.60000000894,97191.20000000298,94179.426,94338.20000000298,94196.041,97047.899,8,400,,,
trial,html.Screen,4_19_0,2023-09-02T21:32:21.954Z,,0,1,,5302.001000005956,response,ISIC_0070551.JPG,4,ISIC_7693611.JPG,ISIC_7693611.JPG,false,0,keypress(z),500,102350.10000000894,102349.90000000596,97038.656,97191.70000000298,97047.899,102209.099,8,400,20,,ISIC_0070551.JPG
break,html.Screen,4_19_1,2023-09-02T21:32:21.955Z,,0,,,NaN,,,,,,false,,,,102351.20000000298,102350.90000000596,,102350.40000000596,,102209.099,8,400,,,
break_continue,html.Screen,4_19_2,2023-09-02T21:32:21.955Z,,0,,,NaN,,,,,,false,,,,102351.70000000298,102351.60000000894,,102351.40000000596,,102209.099,8,400,,,
sequence,flow.Sequence,4_19,2023-09-02T21:32:21.955Z,,0,,,5303.701000008936,completion,,,,,false,,,,102351.90000000596,102351.60000000894,97038.656,97191.60000000894,97047.899,102209.099,8,400,,,
trial,html.Screen,4_20_0,2023-09-02T21:32:24.741Z,,0,1,,2928.200999997018,response,ISIC_0067274.JPG,5,ISIC_0962787.JPG,ISIC_0067274.JPG,false,1,keypress(m),500,105137.60000000894,105137.29999999702,102207.281,102352.10000000894,102209.099,105006.027,8,400,21,,ISIC_0962787.JPG
break,html.Screen,4_20_1,2023-09-02T21:32:24.742Z,,0,,,NaN,,,,,,false,,,,105138.70000000298,105138.40000000596,,105137.79999999702,,105006.027,8,400,,,
break_continue,html.Screen,4_20_2,2023-09-02T21:32:24.743Z,,0,,,NaN,,,,,,false,,,,105139.20000000298,105139.10000000894,,105138.90000000596,,105006.027,8,400,,,
sequence,flow.Sequence,4_20,2023-09-02T21:32:24.743Z,,0,,,2930.0010000089387,completion,,,,,false,,,,105139.29999999702,105139.10000000894,102207.281,102352,102209.099,105006.027,8,400,,,
trial,html.Screen,4_21_0,2023-09-02T21:32:28.464Z,,0,1,,3854.3730000059586,response,ISIC_0059547.JPG,4,ISIC_5490352.JPG,ISIC_0059547.JPG,false,1,keypress(m),500,108860.70000000298,108860.40000000596,104994.68,105139.5,105006.027,108719.619,8,400,22,,ISIC_5490352.JPG
break,html.Screen,4_21_1,2023-09-02T21:32:28.465Z,,0,,,NaN,,,,,,false,,,,108861.79999999702,108861.5,,108860.90000000596,,108719.619,8,400,,,
break_continue,html.Screen,4_21_2,2023-09-02T21:32:28.466Z,,0,,,NaN,,,,,,false,,,,108862.29999999702,108862.10000000894,,108862,,108719.619,8,400,,,
sequence,flow.Sequence,4_21,2023-09-02T21:32:28.466Z,,0,,,3856.073000008939,completion,,,,,false,,,,108862.40000000596,108862.10000000894,104994.68,105139.5,105006.027,108719.619,8,400,,,
trial,html.Screen,4_22_0,2023-09-02T21:32:31.638Z,,0,1,,3314.6809999970137,response,ISIC_6089318.JPG,4,ISIC_4128129.JPG,ISIC_6089318.JPG,false,1,keypress(m),500,112034.5,112034.29999999702,108717.763,108862.60000000894,108719.619,111892.454,8,400,23,,ISIC_4128129.JPG
break,html.Screen,4_22_1,2023-09-02T21:32:31.639Z,,0,,,NaN,,,,,,false,,,,112035.70000000298,112035.60000000894,,112034.70000000298,,111892.454,8,400,,,
break_continue,html.Screen,4_22_2,2023-09-02T21:32:31.639Z,,0,,,NaN,,,,,,false,,,,112035.79999999702,112035.79999999702,,112035.70000000298,,111892.454,8,400,,,
sequence,flow.Sequence,4_22,2023-09-02T21:32:31.639Z,,0,,,3316.1809999970137,completion,,,,,false,,,,112035.90000000596,112035.79999999702,108717.763,108862.5,108719.619,111892.454,8,400,,,
trial,html.Screen,4_23_0,2023-09-02T21:32:35.549Z,,0,1,,4052.4460000059626,response,ISIC_0010760.JPG,5,ISIC_8916136.JPG,ISIC_0010760.JPG,false,1,keypress(m),500,115945,115944.90000000596,111874.75,112036,111892.454,115803.735,8,400,24,,ISIC_8916136.JPG
break,html.Screen,4_23_1,2023-09-02T21:32:35.550Z,,0,,,NaN,,,,,,false,,,,115946.79999999702,115945.90000000596,,115945.29999999702,,115803.735,8,400,,,
break_continue,html.Screen,4_23_2,2023-09-02T21:32:35.551Z,,0,,,NaN,,,,,,false,,,,115947.5,115947.29999999702,,115947,,115803.735,8,400,,,
sequence,flow.Sequence,4_23,2023-09-02T21:32:35.551Z,,0,,,4054.845999997022,completion,,,,,false,,,,115947.70000000298,115947.29999999702,111874.75,112036,111892.454,115803.735,8,400,,,
trial,html.Screen,4_24_0,2023-09-02T21:32:38.725Z,,0,1,,3317.7649999999994,response,ISIC_0027683.JPG,5,ISIC_0014189.JPG,ISIC_0014189.JPG,false,0,keypress(z),500,119121.79999999702,119121.5,115799.7,115947.79999999702,115803.735,118980.322,8,400,25,,ISIC_0027683.JPG
break,html.Screen,4_24_1,2023-09-02T21:32:38.726Z,,0,,,NaN,,,,,,false,,,,119122.60000000894,119122.29999999702,,119121.90000000596,,118980.322,8,400,,,
break_continue,html.Screen,4_24_2,2023-09-02T21:32:38.727Z,,0,,,NaN,,,,,,false,,,,119123.60000000894,119123.5,,119123.29999999702,,118980.322,8,400,,,
sequence,flow.Sequence,4_24,2023-09-02T21:32:38.727Z,,0,,,3319.7649999999994,completion,,,,,false,,,,119123.70000000298,119123.5,115799.7,115947.70000000298,115803.735,118980.322,8,400,,,
trial,html.Screen,4_25_0,2023-09-02T21:32:42.137Z,,0,1,,3553.178,response,ISIC_0053574.JPG,4,ISIC_0054185.JPG,ISIC_0054185.JPG,false,0,keypress(z),500,122533.79999999702,122533.5,118975.232,119123.79999999702,118980.322,122401.051,8,400,26,,ISIC_0053574.JPG
break,html.Screen,4_25_1,2023-09-02T21:32:42.138Z,,0,,,NaN,,,,,,false,,,,122535.10000000894,122534.70000000298,,122534,,122401.051,8,400,,,
break_continue,html.Screen,4_25_2,2023-09-02T21:32:42.139Z,,0,,,NaN,,,,,,false,,,,122535.60000000894,122535.5,,122535.20000000298,,122401.051,8,400,,,
sequence,flow.Sequence,4_25,2023-09-02T21:32:42.139Z,,0,,,3555.178,completion,,,,,false,,,,122535.79999999702,122535.5,118975.232,119123.79999999702,118980.322,122401.051,8,400,,,
trial,html.Screen,4_26_0,2023-09-02T21:32:45.757Z,,0,1,,3752.6490000029735,response,ISIC_2724529.JPG,5,ISIC_0033981.JPG,ISIC_0033981.JPG,false,0,keypress(z),500,126153.79999999702,126153.70000000298,122387.284,122536,122401.051,126027.458,8,400,27,,ISIC_2724529.JPG
break,html.Screen,4_26_1,2023-09-02T21:32:45.758Z,,0,,,NaN,,,,,,false,,,,126154.20000000298,126154.10000000894,,126153.79999999702,,126027.458,8,400,,,
break_continue,html.Screen,4_26_2,2023-09-02T21:32:45.758Z,,0,,,NaN,,,,,,false,,,,126154.5,126154.40000000596,,126154.29999999702,,126027.458,8,400,,,
sequence,flow.Sequence,4_26,2023-09-02T21:32:45.758Z,,0,,,3753.3490000059537,completion,,,,,false,,,,126154.60000000894,126154.40000000596,122387.284,122535.90000000596,122401.051,126027.458,8,400,,,
trial,html.Screen,4_27_0,2023-09-02T21:32:51.780Z,,0,1,,6148.841999997021,response,ISIC_0056793.JPG,5,ISIC_6978997.JPG,ISIC_6978997.JPG,false,0,keypress(z),500,132176.60000000894,132176.29999999702,126008.855,126154.60000000894,126027.458,132035.591,8,400,28,,ISIC_0056793.JPG
break,html.Screen,4_27_1,2023-09-02T21:32:51.781Z,,0,,,NaN,,,,,,false,,,,132177.60000000894,132177.29999999702,,132176.79999999702,,132035.591,8,400,,,
break_continue,html.Screen,4_27_2,2023-09-02T21:32:51.782Z,,0,,,NaN,,,,,,false,,,,132178.10000000894,132178,,132177.79999999702,,132035.591,8,400,,,
sequence,flow.Sequence,4_27,2023-09-02T21:32:51.782Z,,0,,,6150.542000000001,completion,,,,,false,,,,132178.40000000596,132178,126008.855,126154.60000000894,126027.458,132035.591,8,400,,,
trial,html.Screen,4_28_0,2023-09-02T21:32:54.760Z,,0,1,,3120.909000000014,response,ISIC_0054244.JPG,5,ISIC_0011931.JPG,ISIC_0011931.JPG,false,0,keypress(z),500,135156.70000000298,135156.5,132028.348,132178.5,132035.591,135015.536,8,400,29,,ISIC_0054244.JPG
break,html.Screen,4_28_1,2023-09-02T21:32:54.762Z,,0,,,NaN,,,,,,false,,,,135158.5,135157.60000000894,,135157,,135015.536,8,400,,,
break_continue,html.Screen,4_28_2,2023-09-02T21:32:54.763Z,,0,,,NaN,,,,,,false,,,,135159.20000000298,135159.10000000894,,135158.79999999702,,135015.536,8,400,,,
sequence,flow.Sequence,4_28,2023-09-02T21:32:54.763Z,,0,,,3123.509000008955,completion,,,,,false,,,,135159.5,135159.10000000894,132028.348,132178.5,132035.591,135015.536,8,400,,,
trial,html.Screen,4_29_0,2023-09-02T21:33:02.116Z,,0,1,,7496.564000008948,response,ISIC_9122215.JPG,5,ISIC_0046671.JPG,ISIC_0046671.JPG,false,0,keypress(z),500,142512.20000000298,142512.10000000894,135012.958,135159.60000000894,135015.536,142370.581,8,400,30,,ISIC_9122215.JPG
break,html.Screen,4_29_1,2023-09-02T21:33:02.117Z,,0,,,NaN,,,,,,false,,,,142513.60000000894,142512.90000000596,,142512.40000000596,,142370.581,8,400,,,
break_continue,html.Screen,4_29_2,2023-09-02T21:33:02.118Z,,0,,,NaN,,,,,,false,,,,142514,142514,,142513.70000000298,,142370.581,8,400,,,
sequence,flow.Sequence,4_29,2023-09-02T21:33:02.118Z,,0,,,7498.464000000007,completion,,,,,false,,,,142514.20000000298,142514,135012.958,135159.60000000894,135015.536,142370.581,8,400,,,
trial,html.Screen,4_30_0,2023-09-02T21:33:09.753Z,,0,1,,7778.319000005955,response,ISIC_8911740.JPG,6,ISIC_4372519.JPG,ISIC_8911740.JPG,false,1,keypress(m),500,150149.20000000298,150148.90000000596,142353.875,142514.29999999702,142370.581,150013.336,8,400,31,,ISIC_4372519.JPG
break,html.Screen,4_30_1,2023-09-02T21:33:09.753Z,,0,,,NaN,,,,,,false,,,,150150.10000000894,150149.79999999702,,150149.29999999702,,150013.336,8,400,,,
break_continue,html.Screen,4_30_2,2023-09-02T21:33:09.754Z,,0,,,NaN,,,,,,false,,,,150150.40000000596,150150.29999999702,,150150.20000000298,,150013.336,8,400,,,
sequence,flow.Sequence,4_30,2023-09-02T21:33:09.754Z,,0,,,7779.718999997014,completion,,,,,false,,,,150150.40000000596,150150.29999999702,142353.875,142514.29999999702,142370.581,150013.336,8,400,,,
trial,html.Screen,4_31_0,2023-09-02T21:33:13.759Z,,0,1,,4142.06400000595,response,ISIC_2211136.JPG,5,ISIC_0032903.JPG,ISIC_0032903.JPG,false,0,keypress(z),500,154155.60000000894,154155.40000000596,150000.924,150150.5,150013.336,154031.859,8,400,32,,ISIC_2211136.JPG
break,html.Screen,4_31_1,2023-09-02T21:33:13.760Z,,0,,,NaN,,,,,,false,,,,154156.90000000596,154156.5,,154155.90000000596,,154031.859,8,400,,,
break_continue,html.Screen,4_31_2,2023-09-02T21:33:13.761Z,,0,,,NaN,,,,,,false,,,,154157.5,154157.40000000596,,154157.10000000894,,154031.859,8,400,,,
sequence,flow.Sequence,4_31,2023-09-02T21:33:13.761Z,,0,,,4144.06400000595,completion,,,,,false,,,,154157.60000000894,154157.40000000596,150000.924,150150.40000000596,150013.336,154031.859,8,400,,,
trial,html.Screen,4_32_0,2023-09-02T21:33:21.416Z,,0,1,,7780.241000008944,response,ISIC_8615491.JPG,6,ISIC_3448546.JPG,ISIC_8615491.JPG,false,1,keypress(m),500,161812.29999999702,161812.10000000894,154015.055,154157.79999999702,154031.859,161670.605,8,400,33,,ISIC_3448546.JPG
break,html.Screen,4_32_1,2023-09-02T21:33:21.417Z,,0,,,NaN,,,,,,false,,,,161813.10000000894,161812.90000000596,,161812.5,,161670.605,8,400,,,
break_continue,html.Screen,4_32_2,2023-09-02T21:33:21.417Z,,0,,,NaN,,,,,,false,,,,161813.29999999702,161813.29999999702,,161813.20000000298,,161670.605,8,400,,,
sequence,flow.Sequence,4_32,2023-09-02T21:33:21.417Z,,0,,,7781.440999997023,completion,,,,,false,,,,161813.40000000596,161813.29999999702,154015.055,154157.70000000298,154031.859,161670.605,8,400,,,
trial,html.Screen,4_33_0,2023-09-02T21:33:25.901Z,,0,1,,4626.29500000595,response,ISIC_0055293.JPG,6,ISIC_0016128.JPG,ISIC_0055293.JPG,false,1,keypress(m),500,166297.10000000894,166296.90000000596,161667.056,161813.40000000596,161670.605,166155.883,8,400,34,,ISIC_0016128.JPG
break,html.Screen,4_33_1,2023-09-02T21:33:25.902Z,,0,,,NaN,,,,,,false,,,,166299,166298,,166297.40000000596,,166155.883,8,400,,,
break_continue,html.Screen,4_33_2,2023-09-02T21:33:25.903Z,,0,,,NaN,,,,,,false,,,,166299.79999999702,166299.60000000894,,166299.10000000894,,166155.883,8,400,,,
sequence,flow.Sequence,4_33,2023-09-02T21:33:25.903Z,,0,,,4628.99500000893,completion,,,,,false,,,,166299.90000000596,166299.60000000894,161667.056,161813.40000000596,161670.605,166155.883,8,400,,,
trial,html.Screen,4_34_0,2023-09-02T21:33:29.253Z,,0,1,,3493.6169999999984,response,ISIC_0058035.JPG,6,ISIC_0057371.JPG,ISIC_0058035.JPG,false,1,keypress(m),500,169649.79999999702,169649.5,166154.596,166300.10000000894,166155.883,169509.786,8,400,35,,ISIC_0057371.JPG
break,html.Screen,4_34_1,2023-09-02T21:33:29.254Z,,0,,,NaN,,,,,,false,,,,169650.90000000596,169650.60000000894,,169650,,169509.786,8,400,,,
break_continue,html.Screen,4_34_2,2023-09-02T21:33:29.255Z,,0,,,NaN,,,,,,false,,,,169651.29999999702,169651.20000000298,,169651.10000000894,,169509.786,8,400,,,
sequence,flow.Sequence,4_34,2023-09-02T21:33:29.255Z,,0,,,3495.3170000029786,completion,,,,,false,,,,169651.5,169651.20000000298,166154.596,166300,166155.883,169509.786,8,400,,,
trial,html.Screen,4_35_0,2023-09-02T21:33:31.945Z,,0,1,,2832.013999997027,response,ISIC_4974868.JPG,4,ISIC_6536232.JPG,ISIC_6536232.JPG,false,0,keypress(z),500,172342,172341.79999999702,169506.285,169651.70000000298,169509.786,172200.767,8,400,36,,ISIC_4974868.JPG
break,html.Screen,4_35_1,2023-09-02T21:33:31.947Z,,0,,,NaN,,,,,,false,,,,172343.90000000596,172342.90000000596,,172342.29999999702,,172200.767,8,400,,,
break_continue,html.Screen,4_35_2,2023-09-02T21:33:31.948Z,,0,,,NaN,,,,,,false,,,,172344.60000000894,172344.40000000596,,172344,,172200.767,8,400,,,
sequence,flow.Sequence,4_35,2023-09-02T21:33:31.948Z,,0,,,2834.6140000059677,completion,,,,,false,,,,172344.79999999702,172344.40000000596,169506.285,169651.70000000298,169509.786,172200.767,8,400,,,
trial,html.Screen,4_36_0,2023-09-02T21:33:36.079Z,,0,1,,4274.833000008948,response,ISIC_9498942.JPG,5,ISIC_8021960.JPG,ISIC_9498942.JPG,false,1,keypress(m),500,176475.70000000298,176475.60000000894,172194.283,172344.90000000596,172200.767,176340.944,8,400,37,,ISIC_8021960.JPG
break,html.Screen,4_36_1,2023-09-02T21:33:36.080Z,,0,,,NaN,,,,,,false,,,,176476.5,176476.29999999702,,176475.90000000596,,176340.944,8,400,,,
break_continue,html.Screen,4_36_2,2023-09-02T21:33:36.080Z,,0,,,NaN,,,,,,false,,,,176476.90000000596,176476.90000000596,,176476.70000000298,,176340.944,8,400,,,
sequence,flow.Sequence,4_36,2023-09-02T21:33:36.081Z,,0,,,4276.133000005968,completion,,,,,false,,,,176477,176476.90000000596,172194.283,172344.90000000596,172200.767,176340.944,8,400,,,
trial,html.Screen,4_37_0,2023-09-02T21:33:42.050Z,,0,1,,6104.956000005972,response,ISIC_0024565.JPG,5,ISIC_5122042.JPG,ISIC_0024565.JPG,false,1,keypress(m),500,182446.10000000894,182445.90000000596,176332.889,176477,176340.944,182304.861,8,400,38,,ISIC_5122042.JPG
break,html.Screen,4_37_1,2023-09-02T21:33:42.051Z,,0,,,NaN,,,,,,false,,,,182447.90000000596,182447,,182446.40000000596,,182304.861,8,400,,,
break_continue,html.Screen,4_37_2,2023-09-02T21:33:42.052Z,,0,,,NaN,,,,,,false,,,,182448.70000000298,182448.5,,182448.10000000894,,182304.861,8,400,,,
sequence,flow.Sequence,4_37,2023-09-02T21:33:42.052Z,,0,,,6107.556000000011,completion,,,,,false,,,,182448.90000000596,182448.5,176332.889,176477,176340.944,182304.861,8,400,,,
trial,html.Screen,4_38_0,2023-09-02T21:33:50.695Z,,0,1,,8786.138999999996,response,ISIC_0032996.JPG,5,ISIC_0031914.JPG,ISIC_0031914.JPG,false,0,keypress(z),500,191091.20000000298,191091,182299.251,182449,182304.861,190949.761,8,400,39,,ISIC_0032996.JPG
break,html.Screen,4_38_1,2023-09-02T21:33:50.695Z,,0,,,NaN,,,,,,false,,,,191091.90000000596,191091.70000000298,,191091.29999999702,,190949.761,8,400,,,
break_continue,html.Screen,4_38_2,2023-09-02T21:33:50.696Z,,0,,,NaN,,,,,,false,,,,191092.90000000596,191092.79999999702,,191092,,190949.761,8,400,,,
sequence,flow.Sequence,4_38,2023-09-02T21:33:50.696Z,,0,,,8787.938999997015,completion,,,,,false,,,,191092.90000000596,191092.79999999702,182299.251,182449,182304.861,190949.761,8,400,,,
trial,html.Screen,4_39_0,2023-09-02T21:33:54.140Z,,0,1,,3586.038999997021,response,ISIC_6737771.JPG,5,ISIC_3824206.JPG,ISIC_3824206.JPG,false,0,keypress(z),500,194536.10000000894,194535.79999999702,190942.28,191092.90000000596,190949.761,194395.006,8,400,40,,ISIC_6737771.JPG
break,html.Screen,4_39_1,2023-09-02T21:33:54.142Z,,0,,,NaN,,,,,,false,,,,194538.10000000894,194537.20000000298,,194536.29999999702,,194395.006,8,400,,,
break_continue,html.Screen,4_39_2,2023-09-02T21:33:54.142Z,,0,,,NaN,,,,,,false,,,,194538.90000000596,194538.70000000298,,194538.20000000298,,194395.006,8,400,,,
sequence,flow.Sequence,4_39,2023-09-02T21:33:54.143Z,,0,,,3588.9390000029816,completion,,,,,false,,,,194539,194538.70000000298,190942.28,191092.90000000596,190949.761,194395.006,8,400,,,
trial,html.Screen,4_40_0,2023-09-02T21:33:57.830Z,,0,1,,3831.3940000059665,response,ISIC_0069908.JPG,5,ISIC_0006672.JPG,ISIC_0069908.JPG,false,1,keypress(m),500,198226.70000000298,198226.40000000596,194386.202,194539.10000000894,194395.006,198086.933,8,400,41,,ISIC_0006672.JPG
break,html.Screen,4_40_1,2023-09-02T21:33:57.833Z,,0,,,NaN,,,,,,false,,,,198229.5,198229.10000000894,,198228.40000000596,,198086.933,8,400,,,
break_continue,html.Screen,4_40_2,2023-09-02T21:33:57.834Z,,0,,,NaN,,,,,,false,,,,198230.20000000298,198230,,198229.79999999702,,198086.933,8,400,,,
sequence,flow.Sequence,4_40,2023-09-02T21:33:57.834Z,,0,,,3834.994000000006,completion,,,,,false,,,,198230.5,198230,194386.202,194539.10000000894,194395.006,198086.933,8,400,,,
trial,html.Screen,4_41_0,2023-09-02T21:34:00.914Z,,0,1,,3222.9670000059705,response,ISIC_0027590.JPG,4,ISIC_0054357.JPG,ISIC_0027590.JPG,false,1,keypress(m),500,201310.20000000298,201309.90000000596,198082.923,198230.70000000298,198086.933,201168.906,8,400,42,,ISIC_0054357.JPG
break,html.Screen,4_41_1,2023-09-02T21:34:00.916Z,,0,,,NaN,,,,,,false,,,,201312,201311,,201310.40000000596,,201168.906,8,400,,,
break_continue,html.Screen,4_41_2,2023-09-02T21:34:00.916Z,,0,,,NaN,,,,,,false,,,,201312.79999999702,201312.60000000894,,201312.20000000298,,201168.906,8,400,,,
sequence,flow.Sequence,4_41,2023-09-02T21:34:00.917Z,,0,,,3225.6670000089507,completion,,,,,false,,,,201313.10000000894,201312.60000000894,198082.923,198230.60000000894,198086.933,201168.906,8,400,,,
trial,html.Screen,4_42_0,2023-09-02T21:34:04.441Z,,0,1,,3668.3939999970316,response,ISIC_0071576.JPG,6,ISIC_0071300.JPG,ISIC_0071300.JPG,false,0,keypress(z),500,204837.60000000894,204837.29999999702,201156.311,201313.20000000298,201168.906,204696.432,8,400,43,,ISIC_0071576.JPG
break,html.Screen,4_42_1,2023-09-02T21:34:04.443Z,,0,,,NaN,,,,,,false,,,,204839.5,204838.5,,204837.90000000596,,204696.432,8,400,,,
break_continue,html.Screen,4_42_2,2023-09-02T21:34:04.444Z,,0,,,NaN,,,,,,false,,,,204840.20000000298,204840,,204839.60000000894,,204696.432,8,400,,,
sequence,flow.Sequence,4_42,2023-09-02T21:34:04.444Z,,0,,,3671.094000000012,completion,,,,,false,,,,204840.40000000596,204840,201156.311,201313.20000000298,201168.906,204696.432,8,400,,,
trial,html.Screen,4_43_0,2023-09-02T21:34:08.820Z,,0,1,,4520.067999999999,response,ISIC_1343433.JPG,5,ISIC_4220010.JPG,ISIC_4220010.JPG,false,0,keypress(z),500,209216.79999999702,209216.5,204686.309,204840.5,204696.432,209077.777,8,400,44,,ISIC_1343433.JPG
break,html.Screen,4_43_1,2023-09-02T21:34:08.821Z,,0,,,NaN,,,,,,false,,,,209217.79999999702,209217.60000000894,,209217,,209077.777,8,400,,,
break_continue,html.Screen,4_43_2,2023-09-02T21:34:08.822Z,,0,,,NaN,,,,,,false,,,,209218.29999999702,209218.20000000298,,209218,,209077.777,8,400,,,
sequence,flow.Sequence,4_43,2023-09-02T21:34:08.822Z,,0,,,4521.7680000029795,completion,,,,,false,,,,209218.5,209218.20000000298,204686.309,204840.40000000596,204696.432,209077.777,8,400,,,
trial,html.Screen,4_44_0,2023-09-02T21:34:13.753Z,,0,1,,5071.423000002978,response,ISIC_5831880.JPG,5,ISIC_0027031.JPG,ISIC_5831880.JPG,false,1,keypress(m),500,214149.40000000596,214149.20000000298,209072.46,209218.60000000894,209077.777,214007.522,8,400,45,,ISIC_0027031.JPG
break,html.Screen,4_44_1,2023-09-02T21:34:13.754Z,,0,,,NaN,,,,,,false,,,,214150.20000000298,214149.90000000596,,214149.5,,214007.522,8,400,,,
break_continue,html.Screen,4_44_2,2023-09-02T21:34:13.754Z,,0,,,NaN,,,,,,false,,,,214150.60000000894,214150.60000000894,,214150.5,,214007.522,8,400,,,
sequence,flow.Sequence,4_44,2023-09-02T21:34:13.754Z,,0,,,5072.823000008939,completion,,,,,false,,,,214150.70000000298,214150.60000000894,209072.46,209218.5,209077.777,214007.522,8,400,,,
trial,html.Screen,4_45_0,2023-09-02T21:34:16.819Z,,0,1,,3207.2779999970226,response,ISIC_0013651.JPG,5,ISIC_0011350.JPG,ISIC_0011350.JPG,false,0,keypress(z),500,217215,217214.79999999702,213998.505,214150.70000000298,214007.522,217073.846,8,400,46,,ISIC_0013651.JPG
break,html.Screen,4_45_1,2023-09-02T21:34:16.819Z,,0,,,NaN,,,,,,false,,,,217216,217215.70000000298,,217215.20000000298,,217073.846,8,400,,,
break_continue,html.Screen,4_45_2,2023-09-02T21:34:16.820Z,,0,,,NaN,,,,,,false,,,,217216.40000000596,217216.29999999702,,217216.10000000894,,217073.846,8,400,,,
sequence,flow.Sequence,4_45,2023-09-02T21:34:16.820Z,,0,,,3208.7779999970226,completion,,,,,false,,,,217216.60000000894,217216.29999999702,213998.505,214150.70000000298,214007.522,217073.846,8,400,,,
trial,html.Screen,4_46_0,2023-09-02T21:34:19.766Z,,0,1,,3088.4539999970293,response,ISIC_0053929.JPG,5,ISIC_0072917.JPG,ISIC_0072917.JPG,false,0,keypress(z),500,220162.60000000894,220162.29999999702,217071.589,217216.70000000298,217073.846,220021.574,8,400,47,,ISIC_0053929.JPG
break,html.Screen,4_46_1,2023-09-02T21:34:19.768Z,,0,,,NaN,,,,,,false,,,,220164.79999999702,220163.60000000894,,220162.79999999702,,220021.574,8,400,,,
break_continue,html.Screen,4_46_2,2023-09-02T21:34:19.769Z,,0,,,NaN,,,,,,false,,,,220165.5,220165.29999999702,,220165.10000000894,,220021.574,8,400,,,
sequence,flow.Sequence,4_46,2023-09-02T21:34:19.769Z,,0,,,3091.4539999970293,completion,,,,,false,,,,220165.70000000298,220165.29999999702,217071.589,217216.60000000894,217073.846,220021.574,8,400,,,
trial,html.Screen,4_47_0,2023-09-02T21:34:22.443Z,,0,1,,2818.0260000089474,response,ISIC_5832901.JPG,4,ISIC_0032626.JPG,ISIC_0032626.JPG,false,0,keypress(Z),500,222839.90000000596,222839.60000000894,220019.795,220165.90000000596,220021.574,222698.639,8,400,48,,ISIC_5832901.JPG
break,html.Screen,4_47_1,2023-09-02T21:34:22.445Z,,0,,,NaN,,,,,,false,,,,222841.70000000298,222840.79999999702,,222840.10000000894,,222698.639,8,400,,,
break_continue,html.Screen,4_47_2,2023-09-02T21:34:22.446Z,,0,,,NaN,,,,,,false,,,,222842.5,222842.29999999702,,222841.90000000596,,222698.639,8,400,,,
sequence,flow.Sequence,4_47,2023-09-02T21:34:22.446Z,,0,,,2820.7259999970265,completion,,,,,false,,,,222842.70000000298,222842.29999999702,220019.795,220165.79999999702,220021.574,222698.639,8,400,,,
trial,html.Screen,4_48_0,2023-09-02T21:34:26.208Z,,0,1,,3905.8610000000044,response,ISIC_3506204.JPG,4,ISIC_5426854.JPG,ISIC_3506204.JPG,false,1,keypress(m),500,226604.60000000894,226604.5,222689.779,222842.79999999702,222698.639,226467.79,8,400,49,,ISIC_5426854.JPG
break,html.Screen,4_48_1,2023-09-02T21:34:26.209Z,,0,,,NaN,,,,,,false,,,,226605.20000000298,226605.10000000894,,226604.70000000298,,226467.79,8,400,,,
break_continue,html.Screen,4_48_2,2023-09-02T21:34:26.209Z,,0,,,NaN,,,,,,false,,,,226605.40000000596,226605.29999999702,,226605.29999999702,,226467.79,8,400,,,
sequence,flow.Sequence,4_48,2023-09-02T21:34:26.209Z,,0,,,3906.660999997024,completion,,,,,false,,,,226605.40000000596,226605.29999999702,222689.779,222842.79999999702,222698.639,226467.79,8,400,,,
trial,html.Screen,4_49_0,2023-09-02T21:34:29.330Z,,0,1,,3258.410000002972,response,ISIC_0033616.JPG,5,ISIC_0029170.JPG,ISIC_0029170.JPG,false,0,keypress(z),500,229726.29999999702,229726.20000000298,226461.469,226605.5,226467.79,229600.165,8,400,50,,ISIC_0033616.JPG
break,html.Screen,4_49_1,2023-09-02T21:34:39.339Z,,0,,,10008.516999999993,timeout,,,,,false,,,,239736.10000000894,239592.1,229581.696,229726.40000000596,229600.165,239608.682,8,400,,,
break_continue,html.Screen,4_49_2,2023-09-02T21:34:57.711Z,,0,,,18483.91800000894,response,,,,,false,continue,keypress(Space),,258108.20000000298,258092.60000000894,239592.1,239736.29999999702,239608.682,257983.176,8,400,,,
sequence,flow.Sequence,4_49,2023-09-02T21:34:57.711Z,,0,,,31624.810000008933,completion,,,,,false,,,,258108.29999999702,258092.60000000894,226461.469,226605.5,226467.79,257983.176,8,400,,,
trial,html.Screen,4_50_0,2023-09-02T21:35:00.658Z,,0,2,,3071.2240000059537,response,ISIC_0061559.JPG,6,ISIC_1944650.JPG,ISIC_0061559.JPG,false,1,keypress(m),500,261054.70000000298,261054.40000000596,257959.231,258108.40000000596,257983.176,260930.19,8,400,1,,ISIC_1944650.JPG
break,html.Screen,4_50_1,2023-09-02T21:35:00.660Z,,0,,,NaN,,,,,,false,,,,261056.70000000298,261055.70000000298,,261055,,260930.19,8,400,,,
break_continue,html.Screen,4_50_2,2023-09-02T21:35:00.660Z,,0,,,NaN,,,,,,false,,,,261057.29999999702,261057.20000000298,,261056.90000000596,,260930.19,8,400,,,
sequence,flow.Sequence,4_50,2023-09-02T21:35:00.660Z,,0,,,3074.0240000029735,completion,,,,,false,,,,261057.5,261057.20000000298,257959.231,258108.29999999702,257983.176,260930.19,8,400,,,
trial,html.Screen,4_51_0,2023-09-02T21:35:04.038Z,,0,2,,3504.510000002978,response,ISIC_0799535.JPG,6,ISIC_0054006.JPG,ISIC_0054006.JPG,false,0,keypress(z),500,264434.799999997,264434.700000003,260908.331,261057.60000000894,260930.19,264297.512,8,400,2,,ISIC_0799535.JPG
break,html.Screen,4_51_1,2023-09-02T21:35:04.039Z,,0,,,NaN,,,,,,false,,,,264435.60000000894,264435.40000000596,,264435,,264297.512,8,400,,,
break_continue,html.Screen,4_51_2,2023-09-02T21:35:04.039Z,,0,,,NaN,,,,,,false,,,,264436,264435.90000000596,,264435.799999997,,264297.512,8,400,,,
sequence,flow.Sequence,4_51,2023-09-02T21:35:04.039Z,,0,,,3505.710000005958,completion,,,,,false,,,,264436,264435.90000000596,260908.331,261057.60000000894,260930.19,264297.512,8,400,,,
trial,html.Screen,4_52_0,2023-09-02T21:35:07.019Z,,0,2,,3118.088000008953,response,ISIC_0072087.JPG,5,ISIC_2438917.JPG,ISIC_0072087.JPG,false,1,keypress(m),500,267415.90000000596,267415.60000000894,264286.74,264436,264297.512,267291.139,8,400,3,,ISIC_2438917.JPG
break,html.Screen,4_52_1,2023-09-02T21:35:07.020Z,,0,,,NaN,,,,,,false,,,,267417.5,267416.5,,267416,,267291.139,8,400,,,
break_continue,html.Screen,4_52_2,2023-09-02T21:35:07.021Z,,0,,,NaN,,,,,,false,,,,267417.700000003,267417.700000003,,267417.60000000894,,267291.139,8,400,,,
sequence,flow.Sequence,4_52,2023-09-02T21:35:07.021Z,,0,,,3120.1880000029923,completion,,,,,false,,,,267417.799999997,267417.700000003,264286.74,264436,264297.512,267291.139,8,400,,,
trial,html.Screen,4_53_0,2023-09-02T21:35:09.870Z,,0,2,,2976.0610000029556,response,ISIC_0028692.JPG,5,ISIC_0005319.JPG,ISIC_0028692.JPG,false,1,keypress(m),500,270267.5,270267.200000003,267272.806,267418,267291.139,270126.415,8,400,4,,ISIC_0005319.JPG
break,html.Screen,4_53_1,2023-09-02T21:35:09.873Z,,0,,,NaN,,,,,,false,,,,270269.700000003,270268.5,,270267.700000003,,270126.415,8,400,,,
break_continue,html.Screen,4_53_2,2023-09-02T21:35:09.873Z,,0,,,NaN,,,,,,false,,,,270270.40000000596,270270.299999997,,270270.10000000894,,270126.415,8,400,,,
sequence,flow.Sequence,4_53,2023-09-02T21:35:09.874Z,,0,,,2979.160999996995,completion,,,,,false,,,,270270.60000000894,270270.299999997,267272.806,267418,267291.139,270126.415,8,400,,,
trial,html.Screen,4_54_0,2023-09-02T21:35:15.556Z,,0,2,,5826.585000000021,response,ISIC_3382231.JPG,5,ISIC_0719631.JPG,ISIC_3382231.JPG,false,1,keypress(m),500,275953.299999997,275953,270119.904,270270.799999997,270126.415,275812.112,8,400,5,,ISIC_0719631.JPG
break,html.Screen,4_54_1,2023-09-02T21:35:15.558Z,,0,,,NaN,,,,,,false,,,,275955.200000003,275954.200000003,,275953.5,,275812.112,8,400,,,
break_continue,html.Screen,4_54_2,2023-09-02T21:35:15.559Z,,0,,,NaN,,,,,,false,,,,275955.90000000596,275955.700000003,,275955.299999997,,275812.112,8,400,,,
sequence,flow.Sequence,4_54,2023-09-02T21:35:15.559Z,,0,,,5829.285000003001,completion,,,,,false,,,,275956,275955.700000003,270119.904,270270.700000003,270126.415,275812.112,8,400,,,
trial,html.Screen,4_55_0,2023-09-02T21:35:18.556Z,,0,2,,3140.488000008918,response,ISIC_0222299.JPG,5,ISIC_9458746.JPG,ISIC_9458746.JPG,false,0,keypress(z),500,278952.90000000596,278952.60000000894,275807.177,275956.200000003,275812.112,278811.702,8,400,6,,ISIC_0222299.JPG
break,html.Screen,4_55_1,2023-09-02T21:35:18.558Z,,0,,,NaN,,,,,,false,,,,278954.90000000596,278953.90000000596,,278953.200000003,,278811.702,8,400,,,
break_continue,html.Screen,4_55_2,2023-09-02T21:35:18.559Z,,0,,,NaN,,,,,,false,,,,278955.700000003,278955.60000000894,,278955.200000003,,278811.702,8,400,,,
sequence,flow.Sequence,4_55,2023-09-02T21:35:18.559Z,,0,,,3143.488000008918,completion,,,,,false,,,,278956,278955.60000000894,275807.177,275956.10000000894,275812.112,278811.702,8,400,,,
trial,html.Screen,4_56_0,2023-09-02T21:35:22.050Z,,0,2,,3634.6980000059702,response,ISIC_0007148.JPG,6,ISIC_1300967.JPG,ISIC_0007148.JPG,false,1,keypress(m),500,282446.60000000894,282446.40000000596,278809.898,278956.10000000894,278811.702,282305.314,8,400,7,,ISIC_1300967.JPG
break,html.Screen,4_56_1,2023-09-02T21:35:22.051Z,,0,,,NaN,,,,,,false,,,,282448.40000000596,282447.5,,282446.90000000596,,282305.314,8,400,,,
break_continue,html.Screen,4_56_2,2023-09-02T21:35:22.052Z,,0,,,NaN,,,,,,false,,,,282449.10000000894,282448.90000000596,,282448.60000000894,,282305.314,8,400,,,
sequence,flow.Sequence,4_56,2023-09-02T21:35:22.052Z,,0,,,3637.1980000059702,completion,,,,,false,,,,282449.299999997,282448.90000000596,278809.898,278956.10000000894,278811.702,282305.314,8,400,,,
trial,html.Screen,4_57_0,2023-09-02T21:35:25.166Z,,0,2,,3256.9859999970067,response,ISIC_1436929.JPG,5,ISIC_0059093.JPG,ISIC_0059093.JPG,false,0,keypress(z),500,285562.700000003,285562.299999997,282292.438,282449.40000000596,282305.314,285438.391,8,400,8,,ISIC_1436929.JPG
break,html.Screen,4_57_1,2023-09-02T21:35:25.168Z,,0,,,NaN,,,,,,false,,,,285564.5,285563.5,,285562.90000000596,,285438.391,8,400,,,
break_continue,html.Screen,4_57_2,2023-09-02T21:35:25.168Z,,0,,,NaN,,,,,,false,,,,285565.10000000894,285564.90000000596,,285564.700000003,,285438.391,8,400,,,
sequence,flow.Sequence,4_57,2023-09-02T21:35:25.168Z,,0,,,3259.5860000059474,completion,,,,,false,,,,285565.200000003,285564.90000000596,282292.438,282449.40000000596,282305.314,285438.391,8,400,,,
trial,html.Screen,4_58_0,2023-09-02T21:35:27.991Z,,0,2,,2949.509000005957,response,ISIC_0000315.JPG,5,ISIC_0059976.JPG,ISIC_0000315.JPG,false,1,keypress(m),500,288388.200000003,288387.90000000596,285418.811,285565.40000000596,285438.391,288246.816,8,400,9,,ISIC_0059976.JPG
break,html.Screen,4_58_1,2023-09-02T21:35:27.992Z,,0,,,NaN,,,,,,false,,,,288389,288388.700000003,,288388.200000003,,288246.816,8,400,,,
break_continue,html.Screen,4_58_2,2023-09-02T21:35:27.993Z,,0,,,NaN,,,,,,false,,,,288389.799999997,288389.799999997,,288389.10000000894,,288246.816,8,400,,,
sequence,flow.Sequence,4_58,2023-09-02T21:35:27.993Z,,0,,,2951.4089999970165,completion,,,,,false,,,,288390,288389.799999997,285418.811,285565.40000000596,285438.391,288246.816,8,400,,,
trial,html.Screen,4_59_0,2023-09-02T21:35:31.995Z,,0,2,,4144.784000008949,response,ISIC_5879418.JPG,5,ISIC_4525317.JPG,ISIC_4525317.JPG,false,0,keypress(z),500,292391.90000000596,292391.60000000894,288245.282,288390.10000000894,288246.816,292260.757,8,400,10,,ISIC_5879418.JPG
break,html.Screen,4_59_1,2023-09-02T21:35:31.996Z,,0,,,NaN,,,,,,false,,,,292393.299999997,292392.799999997,,292392.10000000894,,292260.757,8,400,,,
break_continue,html.Screen,4_59_2,2023-09-02T21:35:31.997Z,,0,,,NaN,,,,,,false,,,,292393.799999997,292393.700000003,,292393.40000000596,,292260.757,8,400,,,
sequence,flow.Sequence,4_59,2023-09-02T21:35:31.997Z,,0,,,4146.884000002989,completion,,,,,false,,,,292394.10000000894,292393.700000003,288245.282,288390,288246.816,292260.757,8,400,,,
trial,html.Screen,4_60_0,2023-09-02T21:35:35.203Z,,0,2,,3338.1430000059772,response,ISIC_0058079.JPG,6,ISIC_9386509.JPG,ISIC_9386509.JPG,false,0,keypress(z),500,295599.200000003,295598.90000000596,292244.444,292394.299999997,292260.757,295457.729,8,400,11,,ISIC_0058079.JPG
break,html.Screen,4_60_1,2023-09-02T21:35:35.204Z,,0,,,NaN,,,,,,false,,,,295600.700000003,295599.799999997,,295599.299999997,,295457.729,8,400,,,
break_continue,html.Screen,4_60_2,2023-09-02T21:35:35.205Z,,0,,,NaN,,,,,,false,,,,295601.299999997,295601.10000000894,,295600.90000000596,,295457.729,8,400,,,
sequence,flow.Sequence,4_60,2023-09-02T21:35:35.205Z,,0,,,3340.3430000089575,completion,,,,,false,,,,295601.5,295601.10000000894,292244.444,292394.200000003,292260.757,295457.729,8,400,,,
trial,html.Screen,4_61_0,2023-09-02T21:35:38.666Z,,0,2,,3604.8710000089486,response,ISIC_3067522.JPG,5,ISIC_0033845.JPG,ISIC_3067522.JPG,false,1,keypress(m),500,299062.90000000596,299062.60000000894,295451.983,295601.60000000894,295457.729,298938.44,8,400,12,,ISIC_0033845.JPG
break,html.Screen,4_61_1,2023-09-02T21:35:38.668Z,,0,,,NaN,,,,,,false,,,,299064.799999997,299063.799999997,,299063.200000003,,298938.44,8,400,,,
break_continue,html.Screen,4_61_2,2023-09-02T21:35:38.669Z,,0,,,NaN,,,,,,false,,,,299065.299999997,299065.299999997,,299065,,298938.44,8,400,,,
sequence,flow.Sequence,4_61,2023-09-02T21:35:38.669Z,,0,,,3607.5709999970277,completion,,,,,false,,,,299065.5,299065.299999997,295451.983,295601.60000000894,295457.729,298938.44,8,400,,,
trial,html.Screen,4_62_0,2023-09-02T21:35:43.631Z,,0,2,,5088.960000005958,response,ISIC_0012040.JPG,5,ISIC_0066200.JPG,ISIC_0066200.JPG,false,0,keypress(z),500,304027.700000003,304027.40000000596,298919.279,299065.60000000894,298938.44,303886.457,8,400,13,,ISIC_0012040.JPG
break,html.Screen,4_62_1,2023-09-02T21:35:43.633Z,,0,,,NaN,,,,,,false,,,,304029.60000000894,304028.700000003,,304028,,303886.457,8,400,,,
break_continue,html.Screen,4_62_2,2023-09-02T21:35:43.634Z,,0,,,NaN,,,,,,false,,,,304030.299999997,304030,,304029.700000003,,303886.457,8,400,,,
sequence,flow.Sequence,4_62,2023-09-02T21:35:43.634Z,,0,,,5091.559999999998,completion,,,,,false,,,,304030.40000000596,304030,298919.279,299065.60000000894,298938.44,303886.457,8,400,,,
trial,html.Screen,4_63_0,2023-09-02T21:35:50.837Z,,0,2,,7346.643000008946,response,ISIC_3664380.JPG,5,ISIC_4811165.JPG,ISIC_4811165.JPG,false,0,keypress(z),500,311233.200000003,311233.10000000894,303877.586,304030.5,303886.457,311098.998,8,400,14,,ISIC_3664380.JPG
break,html.Screen,4_63_1,2023-09-02T21:35:50.837Z,,0,,,NaN,,,,,,false,,,,311233.799999997,311233.700000003,,311233.299999997,,311098.998,8,400,,,
break_continue,html.Screen,4_63_2,2023-09-02T21:35:50.837Z,,0,,,NaN,,,,,,false,,,,311234,311233.90000000596,,311233.799999997,,311098.998,8,400,,,
sequence,flow.Sequence,4_63,2023-09-02T21:35:50.837Z,,0,,,7347.443000005966,completion,,,,,false,,,,311234,311233.90000000596,303877.586,304030.5,303886.457,311098.998,8,400,,,
trial,html.Screen,4_64_0,2023-09-02T21:35:54.570Z,,0,2,,3867.402000005939,response,ISIC_0061562.JPG,5,ISIC_1414751.JPG,ISIC_1414751.JPG,false,0,keypress(z),500,314966.700000003,314966.40000000596,311081.414,311234.10000000894,311098.998,314825.535,8,400,15,,ISIC_0061562.JPG
break,html.Screen,4_64_1,2023-09-02T21:35:54.572Z,,0,,,NaN,,,,,,false,,,,314968.60000000894,314967.60000000894,,314967,,314825.535,8,400,,,
break_continue,html.Screen,4_64_2,2023-09-02T21:35:54.573Z,,0,,,NaN,,,,,,false,,,,314969.40000000596,314969.200000003,,314968.799999997,,314825.535,8,400,,,
sequence,flow.Sequence,4_64,2023-09-02T21:35:54.573Z,,0,,,3870.202000002959,completion,,,,,false,,,,314969.700000003,314969.200000003,311081.414,311234.10000000894,311098.998,314825.535,8,400,,,
trial,html.Screen,4_65_0,2023-09-02T21:35:58.500Z,,0,2,,4070.865000005986,response,ISIC_0027445.JPG,5,ISIC_8523262.JPG,ISIC_0027445.JPG,false,1,keypress(m),500,318896.700000003,318896.40000000596,314809.877,314969.90000000596,314825.535,318755.443,8,400,16,,ISIC_8523262.JPG
break,html.Screen,4_65_1,2023-09-02T21:35:58.502Z,,0,,,NaN,,,,,,false,,,,318898.60000000894,318897.700000003,,318897,,318755.443,8,400,,,
break_continue,html.Screen,4_65_2,2023-09-02T21:35:58.503Z,,0,,,NaN,,,,,,false,,,,318899.200000003,318899,,318898.700000003,,318755.443,8,400,,,
sequence,flow.Sequence,4_65,2023-09-02T21:35:58.503Z,,0,,,4073.4650000000256,completion,,,,,false,,,,318899.5,318899,314809.877,314969.799999997,314825.535,318755.443,8,400,,,
trial,html.Screen,4_66_0,2023-09-02T21:36:05.673Z,,0,2,,7313.556999999972,response,ISIC_0059506.JPG,5,ISIC_0011984.JPG,ISIC_0011984.JPG,false,0,keypress(z),500,326069.299999997,326069,318753.724,318899.60000000894,318755.443,325944.748,8,400,17,,ISIC_0059506.JPG
break,html.Screen,4_66_1,2023-09-02T21:36:05.674Z,,0,,,NaN,,,,,,false,,,,326071,326070.200000003,,326069.5,,325944.748,8,400,,,
break_continue,html.Screen,4_66_2,2023-09-02T21:36:05.675Z,,0,,,NaN,,,,,,false,,,,326071.5,326071.40000000596,,326071.200000003,,325944.748,8,400,,,
sequence,flow.Sequence,4_66,2023-09-02T21:36:05.675Z,,0,,,7315.957000005932,completion,,,,,false,,,,326071.60000000894,326071.40000000596,318753.724,318899.5,318755.443,325944.748,8,400,,,
trial,html.Screen,4_67_0,2023-09-02T21:36:10.419Z,,0,2,,4870.751999999979,response,ISIC_8350973.JPG,5,ISIC_0032019.JPG,ISIC_0032019.JPG,false,0,keypress(z),500,330815.60000000894,330815.5,325926.056,326071.799999997,325944.748,330687.266,8,400,18,,ISIC_8350973.JPG
break,html.Screen,4_67_1,2023-09-02T21:36:10.420Z,,0,,,NaN,,,,,,false,,,,330816.200000003,330816,,330815.700000003,,330687.266,8,400,,,
break_continue,html.Screen,4_67_2,2023-09-02T21:36:10.420Z,,0,,,NaN,,,,,,false,,,,330816.5,330816.5,,330816.299999997,,330687.266,8,400,,,
sequence,flow.Sequence,4_67,2023-09-02T21:36:10.420Z,,0,,,4871.751999999979,completion,,,,,false,,,,330816.5,330816.5,325926.056,326071.700000003,325944.748,330687.266,8,400,,,
trial,html.Screen,4_68_0,2023-09-02T21:36:16.582Z,,0,2,,6290.934000002977,response,ISIC_3319229.JPG,4,ISIC_9268141.JPG,ISIC_3319229.JPG,false,1,keypress(m),500,336978.40000000596,336978.200000003,330671.944,330816.5,330687.266,336845.289,8,400,19,,ISIC_9268141.JPG
break,html.Screen,4_68_1,2023-09-02T21:36:16.584Z,,0,,,NaN,,,,,,false,,,,336980.5,336980.299999997,,336978.60000000894,,336845.289,8,400,,,
break_continue,html.Screen,4_68_2,2023-09-02T21:36:16.584Z,,0,,,NaN,,,,,,false,,,,336980.799999997,336980.799999997,,336980.60000000894,,336845.289,8,400,,,
sequence,flow.Sequence,4_68,2023-09-02T21:36:16.584Z,,0,,,6293.5339999970165,completion,,,,,false,,,,336981,336980.799999997,330671.944,330816.5,330687.266,336845.289,8,400,,,
trial,html.Screen,4_69_0,2023-09-02T21:36:20.354Z,,0,2,,3905.311000008951,response,ISIC_0058022.JPG,5,ISIC_0066992.JPG,ISIC_0066992.JPG,false,0,keypress(z),500,340750.90000000596,340750.60000000894,336835.416,336981.10000000894,336845.289,340609.932,8,400,20,,ISIC_0058022.JPG
break,html.Screen,4_69_1,2023-09-02T21:36:20.356Z,,0,,,NaN,,,,,,false,,,,340752,340751.700000003,,340751.10000000894,,340609.932,8,400,,,
break_continue,html.Screen,4_69_2,2023-09-02T21:36:20.356Z,,0,,,NaN,,,,,,false,,,,340753,340752.799999997,,340752.299999997,,340609.932,8,400,,,
sequence,flow.Sequence,4_69,2023-09-02T21:36:20.357Z,,0,,,3907.51099999703,completion,,,,,false,,,,340753.200000003,340752.799999997,336835.416,336981.10000000894,336845.289,340609.932,8,400,,,
trial,html.Screen,4_70_0,2023-09-02T21:36:23.180Z,,0,2,,2966.5680000000284,response,ISIC_8427534.JPG,5,ISIC_0072004.JPG,ISIC_0072004.JPG,false,0,keypress(z),500,343576.799999997,343576.5,340593.303,340753.299999997,340609.932,343435.475,8,400,21,,ISIC_8427534.JPG
break,html.Screen,4_70_1,2023-09-02T21:36:23.181Z,,0,,,NaN,,,,,,false,,,,343578,343577.60000000894,,343577.10000000894,,343435.475,8,400,,,
break_continue,html.Screen,4_70_2,2023-09-02T21:36:23.182Z,,0,,,NaN,,,,,,false,,,,343578.5,343578.299999997,,343578.200000003,,343435.475,8,400,,,
sequence,flow.Sequence,4_70,2023-09-02T21:36:23.182Z,,0,,,2968.367999997048,completion,,,,,false,,,,343578.60000000894,343578.299999997,340593.303,340753.299999997,340609.932,343435.475,8,400,,,
trial,html.Screen,4_71_0,2023-09-02T21:36:29.986Z,,0,2,,6946.425000005984,response,ISIC_3291765.JPG,4,ISIC_2930792.JPG,ISIC_2930792.JPG,false,0,keypress(z),500,350382.10000000894,350381.90000000596,343424.53,343578.700000003,343435.475,350257.137,8,400,22,,ISIC_3291765.JPG
break,html.Screen,4_71_1,2023-09-02T21:36:29.987Z,,0,,,NaN,,,,,,false,,,,350383.299999997,350382.90000000596,,350382.40000000596,,350257.137,8,400,,,
break_continue,html.Screen,4_71_2,2023-09-02T21:36:29.987Z,,0,,,NaN,,,,,,false,,,,350383.700000003,350383.60000000894,,350383.40000000596,,350257.137,8,400,,,
sequence,flow.Sequence,4_71,2023-09-02T21:36:29.987Z,,0,,,6948.125000008964,completion,,,,,false,,,,350383.799999997,350383.60000000894,343424.53,343578.700000003,343435.475,350257.137,8,400,,,
trial,html.Screen,4_72_0,2023-09-02T21:36:36.998Z,,0,2,,7137.363000000012,response,ISIC_0014171.JPG,4,ISIC_0000152.JPG,ISIC_0014171.JPG,false,1,keypress(m),500,357394.799999997,357394.5,350239.561,350384,350257.137,357254.932,8,400,23,,ISIC_0000152.JPG
break,html.Screen,4_72_1,2023-09-02T21:36:36.999Z,,0,,,NaN,,,,,,false,,,,357395.700000003,357395.60000000894,,357395.10000000894,,357254.932,8,400,,,
break_continue,html.Screen,4_72_2,2023-09-02T21:36:37.000Z,,0,,,NaN,,,,,,false,,,,357396.10000000894,357396.10000000894,,357395.799999997,,357254.932,8,400,,,
sequence,flow.Sequence,4_72,2023-09-02T21:36:37.000Z,,0,,,7138.963000008953,completion,,,,,false,,,,357396.200000003,357396.10000000894,350239.561,350384,350257.137,357254.932,8,400,,,
trial,html.Screen,4_73_0,2023-09-02T21:36:42.697Z,,0,2,,5838.768000003009,response,ISIC_1638357.JPG,5,ISIC_8414421.JPG,ISIC_1638357.JPG,false,1,keypress(m),500,363093.90000000596,363093.700000003,357243.935,357396.200000003,357254.932,362952.767,8,400,24,,ISIC_8414421.JPG
break,html.Screen,4_73_1,2023-09-02T21:36:42.699Z,,0,,,NaN,,,,,,false,,,,363095.799999997,363094.799999997,,363094.200000003,,362952.767,8,400,,,
break_continue,html.Screen,4_73_2,2023-09-02T21:36:42.700Z,,0,,,NaN,,,,,,false,,,,363096.5,363096.40000000596,,363096,,362952.767,8,400,,,
sequence,flow.Sequence,4_73,2023-09-02T21:36:42.700Z,,0,,,5841.468000005989,completion,,,,,false,,,,363096.799999997,363096.40000000596,357243.935,357396.200000003,357254.932,362952.767,8,400,,,
trial,html.Screen,4_74_0,2023-09-02T21:36:48.511Z,,0,2,,5954.733000000007,response,ISIC_4702522.JPG,6,ISIC_3690890.JPG,ISIC_3690890.JPG,false,0,keypress(z),500,368907.700000003,368907.5,362935.565,363096.90000000596,362952.767,368766.306,8,400,25,,ISIC_4702522.JPG
break,html.Screen,4_74_1,2023-09-02T21:36:48.513Z,,0,,,NaN,,,,,,false,,,,368909.40000000596,368908.5,,368907.90000000596,,368766.306,8,400,,,
break_continue,html.Screen,4_74_2,2023-09-02T21:36:48.513Z,,0,,,NaN,,,,,,false,,,,368909.90000000596,368909.799999997,,368909.5,,368766.306,8,400,,,
sequence,flow.Sequence,4_74,2023-09-02T21:36:48.514Z,,0,,,5957.032999997027,completion,,,,,false,,,,368910.200000003,368909.799999997,362935.565,363096.799999997,362952.767,368766.306,8,400,,,
trial,html.Screen,4_75_0,2023-09-02T21:36:54.436Z,,0,2,,6065.4939999970375,response,ISIC_3013468.JPG,6,ISIC_0010251.JPG,ISIC_0010251.JPG,false,0,keypress(z),500,374832,374831.799999997,368764.669,368910.200000003,368766.306,374702.44,8,400,26,,ISIC_3013468.JPG
break,html.Screen,4_75_1,2023-09-02T21:36:54.437Z,,0,,,NaN,,,,,,false,,,,374833.299999997,374833,,374832.299999997,,374702.44,8,400,,,
break_continue,html.Screen,4_75_2,2023-09-02T21:36:54.437Z,,0,,,NaN,,,,,,false,,,,374833.90000000596,374833.700000003,,374833.40000000596,,374702.44,8,400,,,
sequence,flow.Sequence,4_75,2023-09-02T21:36:54.437Z,,0,,,6067.394000002998,completion,,,,,false,,,,374833.90000000596,374833.700000003,368764.669,368910.200000003,368766.306,374702.44,8,400,,,
trial,html.Screen,4_76_0,2023-09-02T21:36:59.518Z,,0,2,,5211.559999999998,response,ISIC_8295834.JPG,6,ISIC_6119202.JPG,ISIC_6119202.JPG,false,0,keypress(z),500,379914.200000003,379914,374685.847,374834.10000000894,374702.44,379784.317,8,400,27,,ISIC_8295834.JPG
break,html.Screen,4_76_1,2023-09-02T21:36:59.519Z,,0,,,NaN,,,,,,false,,,,379915.299999997,379915,,379914.40000000596,,379784.317,8,400,,,
break_continue,html.Screen,4_76_2,2023-09-02T21:36:59.519Z,,0,,,NaN,,,,,,false,,,,379915.5,379915.5,,379915.40000000596,,379784.317,8,400,,,
sequence,flow.Sequence,4_76,2023-09-02T21:36:59.519Z,,0,,,5213.059999999998,completion,,,,,false,,,,379915.60000000894,379915.5,374685.847,374834.10000000894,374702.44,379784.317,8,400,,,
trial,html.Screen,4_77_0,2023-09-02T21:37:02.919Z,,0,2,,3530.78300000896,response,ISIC_1014075.JPG,6,ISIC_6451703.JPG,ISIC_1014075.JPG,false,1,keypress(m),500,383315.40000000596,383315.10000000894,379770.95,379915.700000003,379784.317,383190.816,8,400,28,,ISIC_6451703.JPG
break,html.Screen,4_77_1,2023-09-02T21:37:02.920Z,,0,,,NaN,,,,,,false,,,,383316.60000000894,383316.299999997,,383315.60000000894,,383190.816,8,400,,,
break_continue,html.Screen,4_77_2,2023-09-02T21:37:02.921Z,,0,,,NaN,,,,,,false,,,,383317.10000000894,383317,,383316.799999997,,383190.816,8,400,,,
sequence,flow.Sequence,4_77,2023-09-02T21:37:02.921Z,,0,,,3532.683000000019,completion,,,,,false,,,,383317.299999997,383317,379770.95,379915.60000000894,379784.317,383190.816,8,400,,,
trial,html.Screen,4_78_0,2023-09-02T21:37:06.092Z,,0,2,,3297.483999997028,response,ISIC_0028069.JPG,5,ISIC_3901421.JPG,ISIC_0028069.JPG,false,1,keypress(m),500,386488.60000000894,386488.299999997,383174.008,383317.40000000596,383190.816,386347.038,8,400,29,,ISIC_3901421.JPG
break,html.Screen,4_78_1,2023-09-02T21:37:06.094Z,,0,,,NaN,,,,,,false,,,,386490.10000000894,386489.40000000596,,386488.700000003,,386347.038,8,400,,,
break_continue,html.Screen,4_78_2,2023-09-02T21:37:06.094Z,,0,,,NaN,,,,,,false,,,,386490.299999997,386490.299999997,,386490.200000003,,386347.038,8,400,,,
sequence,flow.Sequence,4_78,2023-09-02T21:37:06.094Z,,0,,,3299.483999997028,completion,,,,,false,,,,386490.40000000596,386490.299999997,383174.008,383317.40000000596,383190.816,386347.038,8,400,,,
trial,html.Screen,4_79_0,2023-09-02T21:37:11.809Z,,0,2,,5858.261999997019,response,ISIC_3787504.JPG,6,ISIC_2366652.JPG,ISIC_3787504.JPG,false,1,keypress(m),500,392205.5,392205.299999997,386338.665,386490.5,386347.038,392064.354,8,400,30,,ISIC_2366652.JPG
break,html.Screen,4_79_1,2023-09-02T21:37:11.810Z,,0,,,NaN,,,,,,false,,,,392207,392206.60000000894,,392205.799999997,,392064.354,8,400,,,
break_continue,html.Screen,4_79_2,2023-09-02T21:37:11.811Z,,0,,,NaN,,,,,,false,,,,392207.5,392207.40000000596,,392207.10000000894,,392064.354,8,400,,,
sequence,flow.Sequence,4_79,2023-09-02T21:37:11.811Z,,0,,,5860.36200000596,completion,,,,,false,,,,392207.799999997,392207.40000000596,386338.665,386490.40000000596,386347.038,392064.354,8,400,,,
trial,html.Screen,4_80_0,2023-09-02T21:37:19.960Z,,0,2,,8292.346000002988,response,ISIC_0015245.JPG,6,ISIC_0281179.JPG,ISIC_0281179.JPG,false,0,keypress(z),500,400356.90000000596,400356.700000003,392062.457,392207.90000000596,392064.354,400232.205,8,400,31,,ISIC_0015245.JPG
break,html.Screen,4_80_1,2023-09-02T21:37:19.961Z,,0,,,NaN,,,,,,false,,,,400357.700000003,400357.40000000596,,400357.10000000894,,400232.205,8,400,,,
break_continue,html.Screen,4_80_2,2023-09-02T21:37:19.961Z,,0,,,NaN,,,,,,false,,,,400358,400357.90000000596,,400357.799999997,,400232.205,8,400,,,
sequence,flow.Sequence,4_80,2023-09-02T21:37:19.962Z,,0,,,8293.546000005968,completion,,,,,false,,,,400358,400357.90000000596,392062.457,392207.90000000596,392064.354,400232.205,8,400,,,
trial,html.Screen,4_81_0,2023-09-02T21:37:22.958Z,,0,2,,3122.3950000089244,response,ISIC_3269018.JPG,6,ISIC_5557025.JPG,ISIC_3269018.JPG,false,1,keypress(m),500,403354.90000000596,403354.60000000894,400213.743,400358.10000000894,400232.205,403215.752,8,400,32,,ISIC_5557025.JPG
break,html.Screen,4_81_1,2023-09-02T21:37:22.959Z,,0,,,NaN,,,,,,false,,,,403356,403355.60000000894,,403355.10000000894,,403215.752,8,400,,,
break_continue,html.Screen,4_81_2,2023-09-02T21:37:22.960Z,,0,,,NaN,,,,,,false,,,,403356.60000000894,403356.40000000596,,403356.200000003,,403215.752,8,400,,,
sequence,flow.Sequence,4_81,2023-09-02T21:37:22.960Z,,0,,,3124.195000005944,completion,,,,,false,,,,403356.700000003,403356.40000000596,400213.743,400358.10000000894,400232.205,403215.752,8,400,,,
trial,html.Screen,4_82_0,2023-09-02T21:37:27.778Z,,0,2,,4959.047999997041,response,ISIC_0033782.JPG,6,ISIC_7764987.JPG,ISIC_7764987.JPG,false,0,keypress(z),500,408175,408174.799999997,403210.279,403356.799999997,403215.752,408033.759,8,400,33,,ISIC_0033782.JPG
break,html.Screen,4_82_1,2023-09-02T21:37:27.780Z,,0,,,NaN,,,,,,false,,,,408176.90000000596,408176,,408175.200000003,,408033.759,8,400,,,
break_continue,html.Screen,4_82_2,2023-09-02T21:37:27.781Z,,0,,,NaN,,,,,,false,,,,408177.60000000894,408177.40000000596,,408177.10000000894,,408033.759,8,400,,,
sequence,flow.Sequence,4_82,2023-09-02T21:37:27.781Z,,0,,,4961.648000005982,completion,,,,,false,,,,408177.799999997,408177.40000000596,403210.279,403356.799999997,403215.752,408033.759,8,400,,,
trial,html.Screen,4_83_0,2023-09-02T21:37:32.249Z,,0,2,,4611.841000008921,response,ISIC_0033856.JPG,5,ISIC_0059948.JPG,ISIC_0059948.JPG,false,0,keypress(z),500,412645.90000000596,412645.60000000894,408026.24,408177.90000000596,408033.759,412509.63,8,400,34,,ISIC_0033856.JPG
break,html.Screen,4_83_1,2023-09-02T21:37:32.250Z,,0,,,NaN,,,,,,false,,,,412647,412646.60000000894,,412646.10000000894,,412509.63,8,400,,,
break_continue,html.Screen,4_83_2,2023-09-02T21:37:32.251Z,,0,,,NaN,,,,,,false,,,,412647.40000000596,412647.40000000596,,412647.10000000894,,412509.63,8,400,,,
sequence,flow.Sequence,4_83,2023-09-02T21:37:32.251Z,,0,,,4613.64100000594,completion,,,,,false,,,,412647.60000000894,412647.40000000596,408026.24,408177.799999997,408033.759,412509.63,8,400,,,
trial,html.Screen,4_84_0,2023-09-02T21:37:36.941Z,,0,2,,4827.970000008936,response,ISIC_0032430.JPG,5,ISIC_0061343.JPG,ISIC_0032430.JPG,false,1,keypress(m),500,417337.90000000596,417337.60000000894,412502.13,412647.700000003,412509.63,417196.443,8,400,35,,ISIC_0061343.JPG
break,html.Screen,4_84_1,2023-09-02T21:37:36.943Z,,0,,,NaN,,,,,,false,,,,417339.5,417338.60000000894,,417338,,417196.443,8,400,,,
break_continue,html.Screen,4_84_2,2023-09-02T21:37:36.944Z,,0,,,NaN,,,,,,false,,,,417340.10000000894,417339.90000000596,,417339.700000003,,417196.443,8,400,,,
sequence,flow.Sequence,4_84,2023-09-02T21:37:36.944Z,,0,,,4830.270000005956,completion,,,,,false,,,,417340.299999997,417339.90000000596,412502.13,412647.700000003,412509.63,417196.443,8,400,,,
trial,html.Screen,4_85_0,2023-09-02T21:37:43.297Z,,0,2,,6496.856999996991,response,ISIC_0030342.JPG,5,ISIC_5994286.JPG,ISIC_5994286.JPG,false,0,keypress(z),500,423693.60000000894,423693.299999997,417191.554,417340.40000000596,417196.443,423552.262,8,400,36,,ISIC_0030342.JPG
break,html.Screen,4_85_1,2023-09-02T21:37:43.299Z,,0,,,NaN,,,,,,false,,,,423695.299999997,423694.40000000596,,423693.799999997,,423552.262,8,400,,,
break_continue,html.Screen,4_85_2,2023-09-02T21:37:43.299Z,,0,,,NaN,,,,,,false,,,,423696,423695.799999997,,423695.5,,423552.262,8,400,,,
sequence,flow.Sequence,4_85,2023-09-02T21:37:43.300Z,,0,,,6499.356999996991,completion,,,,,false,,,,423696.200000003,423695.799999997,417191.554,417340.40000000596,417196.443,423552.262,8,400,,,
trial,html.Screen,4_86_0,2023-09-02T21:37:46.059Z,,0,2,,2902.9380000029923,response,ISIC_1251639.JPG,5,ISIC_4142019.JPG,ISIC_1251639.JPG,false,1,keypress(m),500,426455.40000000596,426455.200000003,423544.585,423696.299999997,423552.262,426314.1,8,400,37,,ISIC_4142019.JPG
break,html.Screen,4_86_1,2023-09-02T21:37:46.061Z,,0,,,NaN,,,,,,false,,,,426457.200000003,426456.299999997,,426455.60000000894,,426314.1,8,400,,,
break_continue,html.Screen,4_86_2,2023-09-02T21:37:46.061Z,,0,,,NaN,,,,,,false,,,,426458,426457.799999997,,426457.299999997,,426314.1,8,400,,,
sequence,flow.Sequence,4_86,2023-09-02T21:37:46.062Z,,0,,,2905.537999997032,completion,,,,,false,,,,426458.10000000894,426457.799999997,423544.585,423696.299999997,423552.262,426314.1,8,400,,,
trial,html.Screen,4_87_0,2023-09-02T21:37:49.535Z,,0,2,,3617.6000000030035,response,ISIC_8911740.JPG,5,ISIC_6780662.JPG,ISIC_6780662.JPG,false,0,keypress(z),500,429931.90000000596,429931.700000003,426307.51,426458.200000003,426314.1,429806.619,8,400,38,,ISIC_8911740.JPG
break,html.Screen,4_87_1,2023-09-02T21:37:49.536Z,,0,,,NaN,,,,,,false,,,,429932.299999997,429932.200000003,,429932,,429806.619,8,400,,,
break_continue,html.Screen,4_87_2,2023-09-02T21:37:49.536Z,,0,,,NaN,,,,,,false,,,,429932.5,429932.5,,429932.40000000596,,429806.619,8,400,,,
sequence,flow.Sequence,4_87,2023-09-02T21:37:49.536Z,,0,,,3618.4000000000233,completion,,,,,false,,,,429932.60000000894,429932.5,426307.51,426458.200000003,426314.1,429806.619,8,400,,,
trial,html.Screen,4_88_0,2023-09-02T21:37:54.818Z,,0,2,,5407.581000002974,response,ISIC_0004996.JPG,6,ISIC_0010385.JPG,ISIC_0010385.JPG,false,0,keypress(z),500,435214.40000000596,435214.200000003,429787.338,429932.700000003,429806.619,435073.222,8,400,39,,ISIC_0004996.JPG
break,html.Screen,4_88_1,2023-09-02T21:37:54.820Z,,0,,,NaN,,,,,,false,,,,435216.200000003,435215.299999997,,435214.60000000894,,435073.222,8,400,,,
break_continue,html.Screen,4_88_2,2023-09-02T21:37:54.820Z,,0,,,NaN,,,,,,false,,,,435216.90000000596,435216.700000003,,435216.40000000596,,435073.222,8,400,,,
sequence,flow.Sequence,4_88,2023-09-02T21:37:54.821Z,,0,,,5410.081000002974,completion,,,,,false,,,,435217.10000000894,435216.700000003,429787.338,429932.700000003,429806.619,435073.222,8,400,,,
trial,html.Screen,4_89_0,2023-09-02T21:37:57.820Z,,0,2,,3142.777999999991,response,ISIC_0064478.JPG,6,ISIC_7642142.JPG,ISIC_0064478.JPG,false,1,keypress(m),500,438216.10000000894,438216,435071.168,435217.200000003,435073.222,438083.911,8,400,40,,ISIC_7642142.JPG
break,html.Screen,4_89_1,2023-09-02T21:37:57.820Z,,0,,,NaN,,,,,,false,,,,438216.60000000894,438216.5,,438216.200000003,,438083.911,8,400,,,
break_continue,html.Screen,4_89_2,2023-09-02T21:37:57.820Z,,0,,,NaN,,,,,,false,,,,438216.799999997,438216.700000003,,438216.700000003,,438083.911,8,400,,,
sequence,flow.Sequence,4_89,2023-09-02T21:37:57.820Z,,0,,,3143.4780000029714,completion,,,,,false,,,,438216.799999997,438216.700000003,435071.168,435217.200000003,435073.222,438083.911,8,400,,,
trial,html.Screen,4_90_0,2023-09-02T21:38:01.038Z,,0,2,,3349.888999996998,response,ISIC_0033368.JPG,5,ISIC_0012049.JPG,ISIC_0012049.JPG,false,0,keypress(z),500,441434.10000000894,441433.799999997,438071.986,438216.90000000596,438083.911,441292.786,8,400,41,,ISIC_0033368.JPG
break,html.Screen,4_90_1,2023-09-02T21:38:01.039Z,,0,,,NaN,,,,,,false,,,,441435.90000000596,441435,,441434.299999997,,441292.786,8,400,,,
break_continue,html.Screen,4_90_2,2023-09-02T21:38:01.040Z,,0,,,NaN,,,,,,false,,,,441436.60000000894,441436.299999997,,441436,,441292.786,8,400,,,
sequence,flow.Sequence,4_90,2023-09-02T21:38:01.040Z,,0,,,3352.388999996998,completion,,,,,false,,,,441436.700000003,441436.299999997,438071.986,438216.90000000596,438083.911,441292.786,8,400,,,
trial,html.Screen,4_91_0,2023-09-02T21:38:03.685Z,,0,2,,2788.713999999978,response,ISIC_0026911.JPG,5,ISIC_0027591.JPG,ISIC_0027591.JPG,false,0,keypress(z),500,444081.700000003,444081.5,441287.479,441436.90000000596,441292.786,443956.374,8,400,42,,ISIC_0026911.JPG
break,html.Screen,4_91_1,2023-09-02T21:38:03.686Z,,0,,,NaN,,,,,,false,,,,444082.40000000596,444082.10000000894,,444081.799999997,,443956.374,8,400,,,
break_continue,html.Screen,4_91_2,2023-09-02T21:38:03.686Z,,0,,,NaN,,,,,,false,,,,444082.5,444082.40000000596,,444082.40000000596,,443956.374,8,400,,,
sequence,flow.Sequence,4_91,2023-09-02T21:38:03.686Z,,0,,,2789.6140000059386,completion,,,,,false,,,,444082.60000000894,444082.40000000596,441287.479,441436.90000000596,441292.786,443956.374,8,400,,,
trial,html.Screen,4_92_0,2023-09-02T21:38:09.435Z,,0,2,,5875.22600000893,response,ISIC_0000118.JPG,5,ISIC_6937905.JPG,ISIC_6937905.JPG,false,0,keypress(z),500,449831.90000000596,449831.60000000894,443938.067,444082.700000003,443956.374,449690.558,8,400,43,,ISIC_0000118.JPG
break,html.Screen,4_92_1,2023-09-02T21:38:09.437Z,,0,,,NaN,,,,,,false,,,,449833.60000000894,449832.700000003,,449832.200000003,,449690.558,8,400,,,
break_continue,html.Screen,4_92_2,2023-09-02T21:38:09.438Z,,0,,,NaN,,,,,,false,,,,449834.10000000894,449834,,449833.799999997,,449690.558,8,400,,,
sequence,flow.Sequence,4_92,2023-09-02T21:38:09.438Z,,0,,,5877.625999999989,completion,,,,,false,,,,449834.299999997,449834,443938.067,444082.60000000894,443956.374,449690.558,8,400,,,
trial,html.Screen,4_93_0,2023-09-02T21:38:14.448Z,,0,2,,5153.941999999981,response,ISIC_1166522.JPG,5,ISIC_4569077.JPG,ISIC_1166522.JPG,false,1,keypress(m),500,454844.799999997,454844.5,449673.029,449834.5,449690.558,454703.493,8,400,44,,ISIC_4569077.JPG
break,html.Screen,4_93_1,2023-09-02T21:38:14.450Z,,0,,,NaN,,,,,,false,,,,454846.60000000894,454845.60000000894,,454845,,454703.493,8,400,,,
break_continue,html.Screen,4_93_2,2023-09-02T21:38:14.451Z,,0,,,NaN,,,,,,false,,,,454847.200000003,454847,,454846.700000003,,454703.493,8,400,,,
sequence,flow.Sequence,4_93,2023-09-02T21:38:14.451Z,,0,,,5156.441999999981,completion,,,,,false,,,,454847.5,454847,449673.029,449834.5,449690.558,454703.493,8,400,,,
trial,html.Screen,4_94_0,2023-09-02T21:38:17.159Z,,0,2,,2852.2070000029635,response,ISIC_9095975.JPG,5,ISIC_0005572.JPG,ISIC_9095975.JPG,false,1,keypress(m),500,457555.90000000596,457555.700000003,454693.639,454847.5,454703.493,457427.244,8,400,45,,ISIC_0005572.JPG
break,html.Screen,4_94_1,2023-09-02T21:38:17.160Z,,0,,,NaN,,,,,,false,,,,457556.40000000596,457556.200000003,,457555.90000000596,,457427.244,8,400,,,
break_continue,html.Screen,4_94_2,2023-09-02T21:38:17.160Z,,0,,,NaN,,,,,,false,,,,457556.5,457556.5,,457556.40000000596,,457427.244,8,400,,,
sequence,flow.Sequence,4_94,2023-09-02T21:38:17.160Z,,0,,,2853.0069999999832,completion,,,,,false,,,,457556.60000000894,457556.5,454693.639,454847.5,454703.493,457427.244,8,400,,,
trial,html.Screen,4_95_0,2023-09-02T21:38:20.793Z,,0,2,,3762.0559999970137,response,ISIC_0069150.JPG,5,ISIC_0066739.JPG,ISIC_0066739.JPG,false,0,keypress(z),500,461189.60000000894,461189.299999997,457412.546,457556.60000000894,457427.244,461048.287,8,400,46,,ISIC_0069150.JPG
break,html.Screen,4_95_1,2023-09-02T21:38:20.795Z,,0,,,NaN,,,,,,false,,,,461191.40000000596,461190.40000000596,,461189.799999997,,461048.287,8,400,,,
break_continue,html.Screen,4_95_2,2023-09-02T21:38:20.795Z,,0,,,NaN,,,,,,false,,,,461192,461191.90000000596,,461191.5,,461048.287,8,400,,,
sequence,flow.Sequence,4_95,2023-09-02T21:38:20.796Z,,0,,,3764.6560000059544,completion,,,,,false,,,,461192.299999997,461191.90000000596,457412.546,457556.60000000894,457427.244,461048.287,8,400,,,
trial,html.Screen,4_96_0,2023-09-02T21:38:24.302Z,,0,2,,3649.913000002969,response,ISIC_8821700.JPG,5,ISIC_0027095.JPG,ISIC_0027095.JPG,false,0,keypress(z),500,464698.5,464698.200000003,461031.416,461192.40000000596,461048.287,464563.175,8,400,47,,ISIC_8821700.JPG
break,html.Screen,4_96_1,2023-09-02T21:38:24.303Z,,0,,,NaN,,,,,,false,,,,464699.200000003,464699,,464698.60000000894,,464563.175,8,400,,,
break_continue,html.Screen,4_96_2,2023-09-02T21:38:24.304Z,,0,,,NaN,,,,,,false,,,,464700.299999997,464700.200000003,,464700,,464563.175,8,400,,,
sequence,flow.Sequence,4_96,2023-09-02T21:38:24.304Z,,0,,,3651.913000002969,completion,,,,,false,,,,464700.299999997,464700.200000003,461031.416,461192.40000000596,461048.287,464563.175,8,400,,,
trial,html.Screen,4_97_0,2023-09-02T21:38:27.689Z,,0,2,,3522.025000002992,response,ISIC_0026613.JPG,6,ISIC_0062649.JPG,ISIC_0062649.JPG,false,0,keypress(z),500,468085.5,468085.200000003,464546.464,464700.40000000596,464563.175,467944.275,8,400,48,,ISIC_0026613.JPG
break,html.Screen,4_97_1,2023-09-02T21:38:27.691Z,,0,,,NaN,,,,,,false,,,,468087.40000000596,468086.40000000596,,468085.700000003,,467944.275,8,400,,,
break_continue,html.Screen,4_97_2,2023-09-02T21:38:27.691Z,,0,,,NaN,,,,,,false,,,,468088.10000000894,468087.90000000596,,468087.60000000894,,467944.275,8,400,,,
sequence,flow.Sequence,4_97,2023-09-02T21:38:27.692Z,,0,,,3524.725000005972,completion,,,,,false,,,,468088.200000003,468087.90000000596,464546.464,464700.40000000596,464563.175,467944.275,8,400,,,
trial,html.Screen,4_98_0,2023-09-02T21:38:30.590Z,,0,2,,3042.3250000089174,response,ISIC_0031463.JPG,5,ISIC_0032134.JPG,ISIC_0032134.JPG,false,0,keypress(z),500,470987,470986.60000000894,467942.195,468088.40000000596,467944.275,470857.922,8,400,49,,ISIC_0031463.JPG
break,html.Screen,4_98_1,2023-09-02T21:38:30.592Z,,0,,,NaN,,,,,,false,,,,470988.200000003,470987.90000000596,,470987.5,,470857.922,8,400,,,
break_continue,html.Screen,4_98_2,2023-09-02T21:38:30.592Z,,0,,,NaN,,,,,,false,,,,470988.60000000894,470988.5,,470988.299999997,,470857.922,8,400,,,
sequence,flow.Sequence,4_98,2023-09-02T21:38:30.592Z,,0,,,3044.2249999999767,completion,,,,,false,,,,470988.700000003,470988.5,467942.195,468088.299999997,467944.275,470857.922,8,400,,,
trial,html.Screen,4_99_0,2023-09-02T21:38:33.893Z,,0,2,,3431.3779999969993,response,ISIC_0000535.JPG,4,ISIC_0033103.JPG,ISIC_0033103.JPG,false,0,keypress(z),500,474289.700000003,474289.299999997,470841.174,470988.700000003,470857.922,474163.745,8,400,50,,ISIC_0000535.JPG
break,html.Screen,4_99_1,2023-09-02T21:38:43.887Z,,0,,,9991.699000000022,timeout,,,,,false,,,,484283.299999997,484138.829,474144.006,474289.90000000596,474163.745,484155.444,8,400,,,
break_continue,html.Screen,4_99_2,2023-09-02T21:39:48.624Z,,0,,,64846.55599999998,response,,,,,false,continue,keypress(Space),,549021.1000000089,549002,484138.829,484283.5,484155.444,548879.402,8,400,,,
sequence,flow.Sequence,4_99,2023-09-02T21:39:48.624Z,,0,,,78144.07799999998,completion,,,,,false,,,,549021.299999997,549002,470841.174,470988.700000003,470857.922,548879.402,8,400,,,
trial,html.Screen,4_100_0,2023-09-02T21:39:51.425Z,,0,3,,2942.897999997018,response,ISIC_0001104.JPG,5,ISIC_9187876.JPG,ISIC_0001104.JPG,false,1,keypress(m),500,551822.6000000089,551822.299999997,548865.228,549021.299999997,548879.402,551681.29,8,400,1,,ISIC_9187876.JPG
break,html.Screen,4_100_1,2023-09-02T21:39:51.426Z,,0,,,NaN,,,,,,false,,,,551823.700000003,551823.400000006,,551822.799999997,,551681.29,8,400,,,
break_continue,html.Screen,4_100_2,2023-09-02T21:39:51.427Z,,0,,,NaN,,,,,,false,,,,551824.200000003,551824.1000000089,,551823.900000006,,551681.29,8,400,,,
sequence,flow.Sequence,4_100,2023-09-02T21:39:51.427Z,,0,,,2944.698000008939,completion,,,,,false,,,,551824.400000006,551824.1000000089,548865.228,549021.299999997,548879.402,551681.29,8,400,,,
trial,html.Screen,4_101_0,2023-09-02T21:39:55.768Z,,0,3,,4484.110000005923,response,ISIC_0003345.JPG,5,ISIC_0029502.JPG,ISIC_0029502.JPG,false,0,keypress(z),500,556165.6000000089,556165.400000006,551671.498,551824.5,551681.29,556024.419,8,400,2,,ISIC_0003345.JPG
break,html.Screen,4_101_1,2023-09-02T21:39:55.770Z,,0,,,NaN,,,,,,false,,,,556167.5,556166.5,,556165.900000006,,556024.419,8,400,,,
break_continue,html.Screen,4_101_2,2023-09-02T21:39:55.771Z,,0,,,NaN,,,,,,false,,,,556168.1000000089,556168,,556167.6000000089,,556024.419,8,400,,,
sequence,flow.Sequence,4_101,2023-09-02T21:39:55.771Z,,0,,,4486.709999999963,completion,,,,,false,,,,556168.299999997,556168,551671.498,551824.5,551681.29,556024.419,8,400,,,
trial,html.Screen,4_102_0,2023-09-02T21:40:00.989Z,,0,3,,5361.380999997025,response,ISIC_2151856.JPG,5,ISIC_0031935.JPG,ISIC_0031935.JPG,false,0,keypress(z),500,561386.1000000089,561385.799999997,556022.696,556168.400000006,556024.419,561244.943,8,400,3,,ISIC_2151856.JPG
break,html.Screen,4_102_1,2023-09-02T21:40:00.991Z,,0,,,NaN,,,,,,false,,,,561388.200000003,561387,,561386.299999997,,561244.943,8,400,,,
break_continue,html.Screen,4_102_2,2023-09-02T21:40:00.992Z,,0,,,NaN,,,,,,false,,,,561388.900000006,561388.799999997,,561388.5,,561244.943,8,400,,,
sequence,flow.Sequence,4_102,2023-09-02T21:40:00.992Z,,0,,,5364.380999997025,completion,,,,,false,,,,561389.1000000089,561388.799999997,556022.696,556168.400000006,556024.419,561244.943,8,400,,,
trial,html.Screen,4_103_0,2023-09-02T21:40:05.145Z,,0,3,,4297.1570000089705,response,ISIC_0014302.JPG,4,ISIC_0072828.JPG,ISIC_0072828.JPG,false,0,keypress(z),500,565542.299999997,565542.1000000089,561239.927,561389.200000003,561244.943,565401.062,8,400,4,,ISIC_0014302.JPG
break,html.Screen,4_103_1,2023-09-02T21:40:05.147Z,,0,,,NaN,,,,,,false,,,,565544.200000003,565543.1000000089,,565542.6000000089,,565401.062,8,400,,,
break_continue,html.Screen,4_103_2,2023-09-02T21:40:05.147Z,,0,,,NaN,,,,,,false,,,,565544.900000006,565544.6000000089,,565544.299999997,,565401.062,8,400,,,
sequence,flow.Sequence,4_103,2023-09-02T21:40:05.148Z,,0,,,4299.6570000089705,completion,,,,,false,,,,565545,565544.6000000089,561239.927,561389.1000000089,561244.943,565401.062,8,400,,,
trial,html.Screen,4_104_0,2023-09-02T21:40:09.933Z,,0,3,,4929.237999996985,response,ISIC_0033463.JPG,6,ISIC_2142639.JPG,ISIC_0033463.JPG,false,1,keypress(m),500,570330.6000000089,570330.299999997,565399.402,565545.200000003,565401.062,570189.244,8,400,5,,ISIC_2142639.JPG
break,html.Screen,4_104_1,2023-09-02T21:40:09.935Z,,0,,,NaN,,,,,,false,,,,570332.400000006,570331.400000006,,570330.799999997,,570189.244,8,400,,,
break_continue,html.Screen,4_104_2,2023-09-02T21:40:09.936Z,,0,,,NaN,,,,,,false,,,,570333.1000000089,570332.900000006,,570332.5,,570189.244,8,400,,,
sequence,flow.Sequence,4_104,2023-09-02T21:40:09.936Z,,0,,,4931.838000005926,completion,,,,,false,,,,570333.299999997,570332.900000006,565399.402,565545.1000000089,565401.062,570189.244,8,400,,,
trial,html.Screen,4_105_0,2023-09-02T21:40:14.019Z,,0,3,,4226.456000003032,response,ISIC_0056938.JPG,4,ISIC_0066338.JPG,ISIC_0056938.JPG,false,1,keypress(m),500,574416,574415.700000003,570181.851,570333.299999997,570189.244,574274.915,8,400,6,,ISIC_0066338.JPG
break,html.Screen,4_105_1,2023-09-02T21:40:14.020Z,,0,,,NaN,,,,,,false,,,,574417.200000003,574416.799999997,,574416.200000003,,574274.915,8,400,,,
break_continue,html.Screen,4_105_2,2023-09-02T21:40:14.020Z,,0,,,NaN,,,,,,false,,,,574417.6000000089,574417.6000000089,,574417.299999997,,574274.915,8,400,,,
sequence,flow.Sequence,4_105,2023-09-02T21:40:14.020Z,,0,,,4228.356000008993,completion,,,,,false,,,,574417.900000006,574417.6000000089,570181.851,570333.299999997,570189.244,574274.915,8,400,,,
trial,html.Screen,4_106_0,2023-09-02T21:40:17.133Z,,0,3,,3254.8849999969825,response,ISIC_7883190.JPG,6,ISIC_4969996.JPG,ISIC_7883190.JPG,false,1,keypress(m),500,577529.900000006,577529.799999997,574258.338,574418,574274.915,577388.271,8,400,7,,ISIC_4969996.JPG
break,html.Screen,4_106_1,2023-09-02T21:40:17.133Z,,0,,,NaN,,,,,,false,,,,577530.5,577530.299999997,,577530,,577388.271,8,400,,,
break_continue,html.Screen,4_106_2,2023-09-02T21:40:17.133Z,,0,,,NaN,,,,,,false,,,,577530.700000003,577530.700000003,,577530.6000000089,,577388.271,8,400,,,
sequence,flow.Sequence,4_106,2023-09-02T21:40:17.133Z,,0,,,3255.785000002943,completion,,,,,false,,,,577530.799999997,577530.700000003,574258.338,574417.900000006,574274.915,577388.271,8,400,,,
trial,html.Screen,4_107_0,2023-09-02T21:40:20.704Z,,0,3,,3712.6290000060108,response,ISIC_0305800.JPG,5,ISIC_6383486.JPG,ISIC_6383486.JPG,false,0,keypress(z),500,581101.200000003,581100.900000006,577386.097,577530.799999997,577388.271,580966.113,8,400,8,,ISIC_0305800.JPG
break,html.Screen,4_107_1,2023-09-02T21:40:20.705Z,,0,,,NaN,,,,,,false,,,,581102.6000000089,581102.200000003,,581101.5,,580966.113,8,400,,,
break_continue,html.Screen,4_107_2,2023-09-02T21:40:20.706Z,,0,,,NaN,,,,,,false,,,,581103,581103,,581102.700000003,,580966.113,8,400,,,
sequence,flow.Sequence,4_107,2023-09-02T21:40:20.706Z,,0,,,3714.7290000000503,completion,,,,,false,,,,581103.200000003,581103,577386.097,577530.799999997,577388.271,580966.113,8,400,,,
trial,html.Screen,4_108_0,2023-09-02T21:40:23.701Z,,0,3,,3131.7870000059484,response,ISIC_0026103.JPG,5,ISIC_9900191.JPG,ISIC_0026103.JPG,false,1,keypress(m),500,584098.1000000089,584097.900000006,580957.79,581103.299999997,580966.113,583960.544,8,400,9,,ISIC_9900191.JPG
break,html.Screen,4_108_1,2023-09-02T21:40:23.702Z,,0,,,NaN,,,,,,false,,,,584099,584098.799999997,,584098.299999997,,583960.544,8,400,,,
break_continue,html.Screen,4_108_2,2023-09-02T21:40:23.702Z,,0,,,NaN,,,,,,false,,,,584099.299999997,584099.200000003,,584099,,583960.544,8,400,,,
sequence,flow.Sequence,4_108,2023-09-02T21:40:23.702Z,,0,,,3133.087000002968,completion,,,,,false,,,,584099.299999997,584099.200000003,580957.79,581103.299999997,580966.113,583960.544,8,400,,,
trial,html.Screen,4_109_0,2023-09-02T21:40:29.079Z,,0,3,,5515.755999997025,response,ISIC_7835257.JPG,5,ISIC_0053760.JPG,ISIC_0053760.JPG,false,0,keypress(z),500,589476.400000006,589476.299999997,583939.209,584099.5,583960.544,589335.145,8,400,10,,ISIC_7835257.JPG
break,html.Screen,4_109_1,2023-09-02T21:40:29.080Z,,0,,,NaN,,,,,,false,,,,589477.200000003,589477,,589476.6000000089,,589335.145,8,400,,,
break_continue,html.Screen,4_109_2,2023-09-02T21:40:29.080Z,,0,,,NaN,,,,,,false,,,,589477.5,589477.400000006,,589477.299999997,,589335.145,8,400,,,
sequence,flow.Sequence,4_109,2023-09-02T21:40:29.080Z,,0,,,5516.856000005966,completion,,,,,false,,,,589477.6000000089,589477.400000006,583939.209,584099.400000006,583960.544,589335.145,8,400,,,
trial,html.Screen,4_110_0,2023-09-02T21:40:34.746Z,,0,3,,5808.255000005942,response,ISIC_8709211.JPG,5,ISIC_1224329.JPG,ISIC_1224329.JPG,false,0,keypress(z),500,595143.5,595143.400000006,589332.985,589478,589335.145,595016.888,8,400,11,,ISIC_8709211.JPG
break,html.Screen,4_110_1,2023-09-02T21:40:34.747Z,,0,,,NaN,,,,,,false,,,,595144.400000006,595144.1000000089,,595143.6000000089,,595016.888,8,400,,,
break_continue,html.Screen,4_110_2,2023-09-02T21:40:34.747Z,,0,,,NaN,,,,,,false,,,,595144.700000003,595144.6000000089,,595144.5,,595016.888,8,400,,,
sequence,flow.Sequence,4_110,2023-09-02T21:40:34.747Z,,0,,,5809.455000008922,completion,,,,,false,,,,595144.700000003,595144.6000000089,589332.985,589477.700000003,589335.145,595016.888,8,400,,,
trial,html.Screen,4_111_0,2023-09-02T21:40:37.906Z,,0,3,,3286.7120000089053,response,ISIC_0024226.JPG,5,ISIC_9278685.JPG,ISIC_0024226.JPG,false,1,keypress(m),500,598303.799999997,598303.6000000089,594993.434,595144.799999997,595016.888,598172.6,8,400,12,,ISIC_9278685.JPG
break,html.Screen,4_111_1,2023-09-02T21:40:37.907Z,,0,,,NaN,,,,,,false,,,,598304.5,598304.299999997,,598303.900000006,,598172.6,8,400,,,
break_continue,html.Screen,4_111_2,2023-09-02T21:40:37.907Z,,0,,,NaN,,,,,,false,,,,598304.900000006,598304.799999997,,598304.700000003,,598172.6,8,400,,,
sequence,flow.Sequence,4_111,2023-09-02T21:40:37.908Z,,0,,,3287.9119999969844,completion,,,,,false,,,,598305,598304.799999997,594993.434,595144.799999997,595016.888,598172.6,8,400,,,
trial,html.Screen,4_112_0,2023-09-02T21:40:41.353Z,,0,3,,3577.6000000030035,response,ISIC_5049165.JPG,5,ISIC_1694817.JPG,ISIC_1694817.JPG,false,0,keypress(z),500,601750.400000006,601750.200000003,598159.257,598305,598172.6,601608.771,8,400,13,,ISIC_5049165.JPG
break,html.Screen,4_112_1,2023-09-02T21:40:41.355Z,,0,,,NaN,,,,,,false,,,,601752,601751.700000003,,601750.6000000089,,601608.771,8,400,,,
break_continue,html.Screen,4_112_2,2023-09-02T21:40:41.355Z,,0,,,NaN,,,,,,false,,,,601752.299999997,601752.200000003,,601752.1000000089,,601608.771,8,400,,,
sequence,flow.Sequence,4_112,2023-09-02T21:40:41.355Z,,0,,,3579.6000000030035,completion,,,,,false,,,,601752.299999997,601752.200000003,598159.257,598305,598172.6,601608.771,8,400,,,
trial,html.Screen,4_113_0,2023-09-02T21:40:44.158Z,,0,3,,2946.829000008991,response,ISIC_0025800.JPG,5,ISIC_2027392.JPG,ISIC_0025800.JPG,false,1,keypress(m),500,604555.799999997,604555.6000000089,601607.25,601752.400000006,601608.771,604414.504,8,400,14,,ISIC_2027392.JPG
break,html.Screen,4_113_1,2023-09-02T21:40:44.159Z,,0,,,NaN,,,,,,false,,,,604556.6000000089,604556.400000006,,604556,,604414.504,8,400,,,
break_continue,html.Screen,4_113_2,2023-09-02T21:40:44.160Z,,0,,,NaN,,,,,,false,,,,604556.900000006,604556.799999997,,604556.700000003,,604414.504,8,400,,,
sequence,flow.Sequence,4_113,2023-09-02T21:40:44.160Z,,0,,,2948.02899999707,completion,,,,,false,,,,604557.400000006,604556.799999997,601607.25,601752.400000006,601608.771,604414.504,8,400,,,
trial,html.Screen,4_114_0,2023-09-02T21:40:48.899Z,,0,3,,4881.196000003023,response,ISIC_5410481.JPG,5,ISIC_0033232.JPG,ISIC_5410481.JPG,false,1,keypress(m),500,609295.900000006,609295.700000003,604412.193,604557.5,604414.504,609171.297,8,400,15,,ISIC_0033232.JPG
break,html.Screen,4_114_1,2023-09-02T21:40:48.901Z,,0,,,NaN,,,,,,false,,,,609297.5,609296.6000000089,,609296.1000000089,,609171.297,8,400,,,
break_continue,html.Screen,4_114_2,2023-09-02T21:40:48.901Z,,0,,,NaN,,,,,,false,,,,609298,609297.799999997,,609297.6000000089,,609171.297,8,400,,,
sequence,flow.Sequence,4_114,2023-09-02T21:40:48.902Z,,0,,,4883.295999997063,completion,,,,,false,,,,609298.1000000089,609297.799999997,604412.193,604557.5,604414.504,609171.297,8,400,,,
trial,html.Screen,4_115_0,2023-09-02T21:40:53.005Z,,0,3,,4230.002999996999,response,ISIC_0060233.JPG,5,ISIC_0026727.JPG,ISIC_0060233.JPG,false,1,keypress(m),500,613401.6000000089,613401.299999997,609154.474,609298.200000003,609171.297,613277.158,8,400,16,,ISIC_0026727.JPG
break,html.Screen,4_115_1,2023-09-02T21:40:53.006Z,,0,,,NaN,,,,,,false,,,,613402.700000003,613402.400000006,,613401.799999997,,613277.158,8,400,,,
break_continue,html.Screen,4_115_2,2023-09-02T21:40:53.007Z,,0,,,NaN,,,,,,false,,,,613403.799999997,613403.700000003,,613403.5,,613277.158,8,400,,,
sequence,flow.Sequence,4_115,2023-09-02T21:40:53.007Z,,0,,,4232.40300000296,completion,,,,,false,,,,613404.1000000089,613403.700000003,609154.474,609298.200000003,609171.297,613277.158,8,400,,,
trial,html.Screen,4_116_0,2023-09-02T21:40:56.146Z,,0,3,,3264.9420000088867,response,ISIC_4055361.JPG,5,ISIC_0053555.JPG,ISIC_0053555.JPG,false,0,keypress(z),500,616542.299999997,616542.1000000089,613258.129,613404.200000003,613277.158,616401.021,8,400,17,,ISIC_4055361.JPG
break,html.Screen,4_116_1,2023-09-02T21:40:56.147Z,,0,,,NaN,,,,,,false,,,,616544.1000000089,616543.200000003,,616542.5,,616401.021,8,400,,,
break_continue,html.Screen,4_116_2,2023-09-02T21:40:56.148Z,,0,,,NaN,,,,,,false,,,,616544.799999997,616544.6000000089,,616544.299999997,,616401.021,8,400,,,
sequence,flow.Sequence,4_116,2023-09-02T21:40:56.148Z,,0,,,3267.4420000088867,completion,,,,,false,,,,616545,616544.6000000089,613258.129,613404.1000000089,613277.158,616401.021,8,400,,,
trial,html.Screen,4_117_0,2023-09-02T21:41:00.759Z,,0,3,,4754.1790000030305,response,ISIC_0056271.JPG,5,ISIC_0053816.JPG,ISIC_0056271.JPG,false,1,keypress(m),500,621155.400000006,621155.200000003,616399.473,616545.1000000089,616401.021,621013.83,8,400,18,,ISIC_0053816.JPG
break,html.Screen,4_117_1,2023-09-02T21:41:00.760Z,,0,,,NaN,,,,,,false,,,,621156.799999997,621156,,621155.5,,621013.83,8,400,,,
break_continue,html.Screen,4_117_2,2023-09-02T21:41:00.761Z,,0,,,NaN,,,,,,false,,,,621157.1000000089,621157.1000000089,,621156.900000006,,621013.83,8,400,,,
sequence,flow.Sequence,4_117,2023-09-02T21:41:00.761Z,,0,,,4756.079000008991,completion,,,,,false,,,,621157.299999997,621157.1000000089,616399.473,616545.1000000089,616401.021,621013.83,8,400,,,
trial,html.Screen,4_118_0,2023-09-02T21:41:03.855Z,,0,3,,3237.4699999970617,response,ISIC_9053910.JPG,5,ISIC_0011210.JPG,ISIC_9053910.JPG,false,1,keypress(m),500,624251.400000006,624251.299999997,621010.394,621157.5,621013.83,624109.511,8,400,19,,ISIC_0011210.JPG
break,html.Screen,4_118_1,2023-09-02T21:41:03.856Z,,0,,,NaN,,,,,,false,,,,624252.5,624251.799999997,,624251.5,,624109.511,8,400,,,
break_continue,html.Screen,4_118_2,2023-09-02T21:41:03.856Z,,0,,,NaN,,,,,,false,,,,624252.799999997,624252.700000003,,624252.6000000089,,624109.511,8,400,,,
sequence,flow.Sequence,4_118,2023-09-02T21:41:03.856Z,,0,,,3238.870000003022,completion,,,,,false,,,,624252.900000006,624252.700000003,621010.394,621157.400000006,621013.83,624109.511,8,400,,,
trial,html.Screen,4_119_0,2023-09-02T21:41:09.140Z,,0,3,,5426.589000008884,response,ISIC_5746904.JPG,5,ISIC_0016127.JPG,ISIC_0016127.JPG,false,0,keypress(z),500,629536.299999997,629536.1000000089,624099.121,624253,624109.511,629395.219,8,400,20,,ISIC_5746904.JPG
break,html.Screen,4_119_1,2023-09-02T21:41:09.142Z,,0,,,NaN,,,,,,false,,,,629538.299999997,629537.299999997,,629536.6000000089,,629395.219,8,400,,,
break_continue,html.Screen,4_119_2,2023-09-02T21:41:09.142Z,,0,,,NaN,,,,,,false,,,,629539,629538.799999997,,629538.5,,629395.219,8,400,,,
sequence,flow.Sequence,4_119,2023-09-02T21:41:09.143Z,,0,,,5429.288999996963,completion,,,,,false,,,,629539.200000003,629538.799999997,624099.121,624253,624109.511,629395.219,8,400,,,
trial,html.Screen,4_120_0,2023-09-02T21:41:14.296Z,,0,3,,5297.481000002939,response,ISIC_0014987.JPG,6,ISIC_0626501.JPG,ISIC_0014987.JPG,false,1,keypress(m),500,634692.900000006,634692.700000003,629388.548,629539.400000006,629395.219,634551.731,8,400,21,,ISIC_0626501.JPG
break,html.Screen,4_120_1,2023-09-02T21:41:14.298Z,,0,,,NaN,,,,,,false,,,,634694.200000003,634693.799999997,,634693.200000003,,634551.731,8,400,,,
break_continue,html.Screen,4_120_2,2023-09-02T21:41:14.298Z,,0,,,NaN,,,,,,false,,,,634694.700000003,634694.6000000089,,634694.299999997,,634551.731,8,400,,,
sequence,flow.Sequence,4_120,2023-09-02T21:41:14.298Z,,0,,,5299.3810000089,completion,,,,,false,,,,634694.900000006,634694.6000000089,629388.548,629539.200000003,629395.219,634551.731,8,400,,,
trial,html.Screen,4_121_0,2023-09-02T21:41:17.293Z,,0,3,,3137.768999999971,response,ISIC_0054480.JPG,6,ISIC_0033444.JPG,ISIC_0054480.JPG,false,1,keypress(m),500,637689.700000003,637689.5,634549.005,634695,634551.731,637547.772,8,400,22,,ISIC_0033444.JPG
break,html.Screen,4_121_1,2023-09-02T21:41:17.294Z,,0,,,NaN,,,,,,false,,,,637690.799999997,637690,,637689.700000003,,637547.772,8,400,,,
break_continue,html.Screen,4_121_2,2023-09-02T21:41:17.294Z,,0,,,NaN,,,,,,false,,,,637691,637690.900000006,,637690.900000006,,637547.772,8,400,,,
sequence,flow.Sequence,4_121,2023-09-02T21:41:17.294Z,,0,,,3139.1690000059316,completion,,,,,false,,,,637691,637690.900000006,634549.005,634694.900000006,634551.731,637547.772,8,400,,,
trial,html.Screen,4_122_0,2023-09-02T21:41:25.136Z,,0,3,,7984.8280000089435,response,ISIC_0063824.JPG,4,ISIC_5406677.JPG,ISIC_5406677.JPG,false,0,keypress(z),500,645532.799999997,645532.6000000089,637538.343,637691.1000000089,637547.772,645391.706,8,400,23,,ISIC_0063824.JPG
break,html.Screen,4_122_1,2023-09-02T21:41:25.137Z,,0,,,NaN,,,,,,false,,,,645533.900000006,645533.700000003,,645533.1000000089,,645391.706,8,400,,,
break_continue,html.Screen,4_122_2,2023-09-02T21:41:25.138Z,,0,,,NaN,,,,,,false,,,,645534.400000006,645534.200000003,,645534,,645391.706,8,400,,,
sequence,flow.Sequence,4_122,2023-09-02T21:41:25.138Z,,0,,,7986.428000002983,completion,,,,,false,,,,645534.5,645534.200000003,637538.343,637691,637547.772,645391.706,8,400,,,
trial,html.Screen,4_123_0,2023-09-02T21:41:30.259Z,,0,3,,5264.093999997014,response,ISIC_0626501.JPG,6,ISIC_9865097.JPG,ISIC_0626501.JPG,false,1,keypress(m),500,650656,650655.799999997,645387.543,645534.6000000089,645391.706,650514.717,8,400,24,,ISIC_9865097.JPG
break,html.Screen,4_123_1,2023-09-02T21:41:30.261Z,,0,,,NaN,,,,,,false,,,,650658,650656.799999997,,650656.299999997,,650514.717,8,400,,,
break_continue,html.Screen,4_123_2,2023-09-02T21:41:30.262Z,,0,,,NaN,,,,,,false,,,,650658.6000000089,650658.5,,650658.299999997,,650514.717,8,400,,,
sequence,flow.Sequence,4_123,2023-09-02T21:41:30.262Z,,0,,,5266.793999999994,completion,,,,,false,,,,650658.799999997,650658.5,645387.543,645534.5,645391.706,650514.717,8,400,,,
trial,html.Screen,4_124_0,2023-09-02T21:41:33.433Z,,0,3,,3314.4830000030342,response,ISIC_0033501.JPG,6,ISIC_0553565.JPG,ISIC_0033501.JPG,false,1,keypress(m),500,653829.5,653829.200000003,650512.636,650658.900000006,650514.717,653688.309,8,400,25,,ISIC_0553565.JPG
break,html.Screen,4_124_1,2023-09-02T21:41:33.434Z,,0,,,NaN,,,,,,false,,,,653830.700000003,653830.299999997,,653829.700000003,,653688.309,8,400,,,
break_continue,html.Screen,4_124_2,2023-09-02T21:41:33.435Z,,0,,,NaN,,,,,,false,,,,653831.200000003,653831.1000000089,,653830.900000006,,653688.309,8,400,,,
sequence,flow.Sequence,4_124,2023-09-02T21:41:33.435Z,,0,,,3316.3830000089947,completion,,,,,false,,,,653831.400000006,653831.1000000089,650512.636,650658.900000006,650514.717,653688.309,8,400,,,
trial,html.Screen,4_125_0,2023-09-02T21:41:36.877Z,,0,3,,3584.6909999999916,response,ISIC_0069189.JPG,5,ISIC_3967213.JPG,ISIC_0069189.JPG,false,1,keypress(m),500,657273.200000003,657273,653679.49,653831.5,653688.309,657132.252,8,400,26,,ISIC_3967213.JPG
break,html.Screen,4_125_1,2023-09-02T21:41:36.878Z,,0,,,NaN,,,,,,false,,,,657274.200000003,657273.900000006,,657273.400000006,,657132.252,8,400,,,
break_continue,html.Screen,4_125_2,2023-09-02T21:41:36.878Z,,0,,,NaN,,,,,,false,,,,657274.700000003,657274.5,,657274.299999997,,657132.252,8,400,,,
sequence,flow.Sequence,4_125,2023-09-02T21:41:36.878Z,,0,,,3586.1909999999916,completion,,,,,false,,,,657274.900000006,657274.5,653679.49,653831.5,653688.309,657132.252,8,400,,,
trial,html.Screen,4_126_0,2023-09-02T21:41:40.545Z,,0,3,,3808.7480000000214,response,ISIC_0069361.JPG,5,ISIC_0034217.JPG,ISIC_0069361.JPG,false,1,keypress(m),500,660941.299999997,660941,657124.054,657275,657132.252,660800.107,8,400,27,,ISIC_0034217.JPG
break,html.Screen,4_126_1,2023-09-02T21:41:40.546Z,,0,,,NaN,,,,,,false,,,,660942.700000003,660942.200000003,,660941.5,,660800.107,8,400,,,
break_continue,html.Screen,4_126_2,2023-09-02T21:41:40.547Z,,0,,,NaN,,,,,,false,,,,660943.200000003,660943.1000000089,,660942.900000006,,660800.107,8,400,,,
sequence,flow.Sequence,4_126,2023-09-02T21:41:40.547Z,,0,,,3810.848000008962,completion,,,,,false,,,,660943.400000006,660943.1000000089,657124.054,657274.900000006,657132.252,660800.107,8,400,,,
