sender,sender_type,sender_id,timestamp,meta,,blockNo,condition,duration,ended_on,img_left,img_reveal,img_right,loser,practice,response,response_action,selection_duration,time_commit,time_end,time_render,time_run,time_show,time_switch,total_blocks,total_trials,trialNo,url,winner
informed_consent,html.Screen,0,2023-09-13T15:46:11.524Z,"{""labjs_version"":""20.2.4"",""labjs_build"":{""flavor"":""development"",""commit"":""f5b4a49f956347addd546a832a3327688c2c0fef""},""location"":""https://labjs.felixhenninger.com/api/labjs_preview/index.html"",""userAgent"":""Mozilla/5.0 (Windows NT 10.0; Win64; x64) AppleWebKit/537.36 (KHTML, like Gecko) Chrome/116.0.0.0 Safari/537.36"",""platform"":""Win32"",""language"":""en-AU"",""locale"":""en-US"",""timeZone"":""America/Chicago"",""timezoneOffset"":300,""screen_width"":2560,""screen_height"":1440,""scroll_width"":1296,""scroll_height"":688,""window_innerWidth"":1296,""window_innerHeight"":736,""devicePixelRatio"":1}",,,,4782.873,response,,,,,,consent,click button,,5338.5,5337.5,537.966,549.5,554.627,5347.291,,,,{},
Welcome,html.Screen,1,2023-09-13T15:46:12.057Z,,,,asymmetry,524.0089997138975,response,,,,,,continue,click button,,5872.099999904633,5871.299999713898,5330.696,5338.699999809265,5347.291,5881.652,,,,,
trial,html.Screen,2_0_0,2023-09-13T15:46:23.556Z,,0,0,,11522.47,timeout,ISIC_0069348.JPG,,ISIC_6997061.JPG,,true,,,500,17371.400000095367,17371.099999904633,5864.965,5872.199999809265,5881.652,17404.122,1,6,1,,
sequence,flow.Sequence,2_0,2023-09-13T15:46:23.557Z,,0,,,11489.447999904633,completion,,,,,true,,,,17371.599999904633,17371.099999904633,5864.965,5872.099999904633,5881.652,17404.122,1,6,,,
trial,html.Screen,2_1_0,2023-09-13T15:46:35.079Z,,0,0,,11522.563000000002,timeout,ISIC_0009529.JPG,,ISIC_0057368.JPG,,true,,,500,28893.900000095367,28893.599999904633,17387.528,17371.699999809265,17404.122,28926.685,1,6,2,,
sequence,flow.Sequence,2_1,2023-09-13T15:46:35.079Z,,0,,,11489.477999904633,completion,,,,,true,,,,28894.099999904633,28893.599999904633,17387.528,17371.599999904633,17404.122,28926.685,1,6,,,
trial,html.Screen,2_2_0,2023-09-13T15:46:46.603Z,,0,0,,11522.459999999995,timeout,ISIC_0064954.JPG,,ISIC_9758671.JPG,,true,,,500,40416.09999990463,40415.90000009537,28909.854,28894.099999904633,28926.685,40449.145,1,6,3,,
sequence,flow.Sequence,2_2,2023-09-13T15:46:46.603Z,,0,,,11489.215000095366,completion,,,,,true,,,,40416.5,40415.90000009537,28909.854,28894.099999904633,28926.685,40449.145,1,6,,,
trial,html.Screen,2_3_0,2023-09-13T15:46:58.125Z,,0,0,,11522.262000000002,timeout,ISIC_0005785.JPG,,ISIC_0000080.JPG,,true,,,500,51938.5,51938.2999997139,40432.357,40416.59999990463,40449.145,51971.407,1,6,4,,
sequence,flow.Sequence,2_3,2023-09-13T15:46:58.125Z,,0,,,11489.1549997139,completion,,,,,true,,,,51938.699999809265,51938.2999997139,40432.357,40416.59999990463,40449.145,51971.407,1,6,,,
trial,html.Screen,2_4_0,2023-09-13T15:47:08.943Z,,0,0,,10784.692999904633,response,ISIC_7944028.JPG,,ISIC_5390060.JPG,ISIC_7944028.JPG,true,1,keypress(m),500,62756.199999809265,62756.09999990463,51954.792,51938.7999997139,51971.407,62759.056,1,6,5,,ISIC_5390060.JPG
sequence,flow.Sequence,2_4,2023-09-13T15:47:08.943Z,,0,,,10784.692999904633,completion,,,,,true,,,,62756.40000009537,62756.09999990463,51954.792,51938.7999997139,51971.407,62759.056,1,6,,,
trial,html.Screen,2_5_0,2023-09-13T15:47:11.536Z,,0,0,,2590.444000000003,response,ISIC_0794216.JPG,,ISIC_0010188.JPG,ISIC_0794216.JPG,true,1,keypress(m),500,65349.59999990463,65349.5,62742.44,62756.5,62759.056,65364.261,1,6,6,,ISIC_0010188.JPG
sequence,flow.Sequence,2_5,2023-09-13T15:47:11.537Z,,0,,,2590.444000000003,completion,,,,,true,,,,65349.7999997139,65349.5,62742.44,62756.5,62759.056,65364.261,1,6,,,
loop,flow.Loop,2,2023-09-13T15:47:11.537Z,,,,,59467.848,completion,,,,,true,,,,65349.90000009537,65349.5,5864.965,5872.099999904633,5881.652,65364.261,1,6,,,
exp_instructions,html.Screen,3,2023-09-13T15:47:28.914Z,,,,,17362.13900009537,response,,,,,,continue,keypress(Space),,82726.90000009537,82726.40000009537,65347.496,65350,65364.261,82747.95,,,,,
trial,html.Screen,4_0_0,2023-09-13T15:47:34.555Z,,0,1,,5620.45000009537,response,ISIC_0029198.JPG,5,ISIC_0001148.JPG,ISIC_0001148.JPG,false,0,keypress(z),500,88368.59999990463,88368.40000009537,82731.302,82727.09999990463,82747.95,88375.563,8,400,1,,ISIC_0029198.JPG
break,html.Screen,4_0_1,2023-09-13T15:47:34.556Z,,0,,,NaN,,,,,,false,,,,88369.09999990463,88368.90000009537,,88368.59999990463,,88375.563,8,400,,,
break_continue,html.Screen,4_0_2,2023-09-13T15:47:34.556Z,,0,,,NaN,,,,,,false,,,,88369.40000009537,88369.2999997139,,88369.19999980927,,88375.563,8,400,,,
sequence,flow.Sequence,4_0,2023-09-13T15:47:34.556Z,,0,,,5621.349999713901,completion,,,,,false,,,,88369.40000009537,88369.2999997139,82731.302,82727,82747.95,88375.563,8,400,,,
trial,html.Screen,4_1_0,2023-09-13T15:47:40.656Z,,0,1,,6091.536999904638,response,ISIC_7526530.JPG,5,ISIC_3760796.JPG,ISIC_7526530.JPG,false,1,keypress(m),500,94467.19999980927,94467.09999990463,88359.114,88369.5,88375.563,94470.743,8,400,2,,ISIC_3760796.JPG
break,html.Screen,4_1_1,2023-09-13T15:47:40.656Z,,0,,,NaN,,,,,,false,,,,94467.59999990463,94467.59999990463,,94467.2999997139,,94470.743,8,400,,,
break_continue,html.Screen,4_1_2,2023-09-13T15:47:40.656Z,,0,,,NaN,,,,,,false,,,,94467.90000009537,94467.7999997139,,94467.69999980927,,94470.743,8,400,,,
sequence,flow.Sequence,4_1,2023-09-13T15:47:40.656Z,,0,,,6092.236999713903,completion,,,,,false,,,,94467.90000009537,94467.7999997139,88359.114,88369.5,88375.563,94470.743,8,400,,,
trial,html.Screen,4_2_0,2023-09-13T15:47:48.645Z,,0,1,,7985.456999809263,response,ISIC_5110133.JPG,5,ISIC_4699066.JPG,ISIC_4699066.JPG,false,0,keypress(z),500,102456.40000009537,102456.19999980927,94454.001,94467.90000009537,94470.743,102469.705,8,400,3,,ISIC_5110133.JPG
break,html.Screen,4_2_1,2023-09-13T15:47:48.646Z,,0,,,NaN,,,,,,false,,,,102457.5,102457.09999990463,,102456.59999990463,,102469.705,8,400,,,
break_continue,html.Screen,4_2_2,2023-09-13T15:47:48.646Z,,0,,,NaN,,,,,,false,,,,102457.90000009537,102457.7999997139,,102457.59999990463,,102469.705,8,400,,,
sequence,flow.Sequence,4_2,2023-09-13T15:47:48.646Z,,0,,,7987.0569997138955,completion,,,,,false,,,,102458.09999990463,102457.7999997139,94454.001,94467.90000009537,94470.743,102469.705,8,400,,,
trial,html.Screen,4_3_0,2023-09-13T15:47:55.470Z,,0,1,,6812.195000095366,response,ISIC_5122220.JPG,5,ISIC_0021271.JPG,ISIC_5122220.JPG,false,1,keypress(m),500,109282,109281.90000009537,102453.103,102458.19999980927,102469.705,109282.924,8,400,4,,ISIC_0021271.JPG
break,html.Screen,4_3_1,2023-09-13T15:47:55.471Z,,0,,,NaN,,,,,,false,,,,109282.59999990463,109282.40000009537,,109282.09999990463,,109282.924,8,400,,,
break_continue,html.Screen,4_3_2,2023-09-13T15:47:55.471Z,,0,,,NaN,,,,,,false,,,,109282.90000009537,109282.7999997139,,109282.69999980927,,109282.924,8,400,,,
sequence,flow.Sequence,4_3,2023-09-13T15:47:55.471Z,,0,,,6813.094999713896,completion,,,,,false,,,,109283.09999990463,109282.7999997139,102453.103,102458.09999990463,102469.705,109282.924,8,400,,,
trial,html.Screen,4_4_0,2023-09-13T15:48:02.244Z,,0,1,,6772.275999809266,response,ISIC_8029613.JPG,5,ISIC_9622250.JPG,ISIC_9622250.JPG,false,0,keypress(z),500,116055.2999997139,116055.19999980927,109266.283,109283.19999980927,109282.924,116062.768,8,400,5,,ISIC_8029613.JPG
break,html.Screen,4_4_1,2023-09-13T15:48:02.245Z,,0,,,NaN,,,,,,false,,,,116056.2999997139,116056.09999990463,,116055.59999990463,,116062.768,8,400,,,
break_continue,html.Screen,4_4_2,2023-09-13T15:48:02.245Z,,0,,,NaN,,,,,,false,,,,116056.69999980927,116056.59999990463,,116056.40000009537,,116062.768,8,400,,,
sequence,flow.Sequence,4_4,2023-09-13T15:48:02.245Z,,0,,,6773.6759999046335,completion,,,,,false,,,,116056.90000009537,116056.59999990463,109266.283,109283.09999990463,109282.924,116062.768,8,400,,,
trial,html.Screen,4_5_0,2023-09-13T15:48:08.877Z,,0,1,,6625.831999904636,response,ISIC_4274519.JPG,5,ISIC_0013762.JPG,ISIC_4274519.JPG,false,1,keypress(m),500,122688.69999980927,122688.59999990463,116046.08,116057,116062.768,122692.317,8,400,6,,ISIC_0013762.JPG
break,html.Screen,4_5_1,2023-09-13T15:48:08.878Z,,0,,,NaN,,,,,,false,,,,122689.59999990463,122689.2999997139,,122688.90000009537,,122692.317,8,400,,,
break_continue,html.Screen,4_5_2,2023-09-13T15:48:08.878Z,,0,,,NaN,,,,,,false,,,,122689.90000009537,122689.69999980927,,122689.59999990463,,122692.317,8,400,,,
sequence,flow.Sequence,4_5,2023-09-13T15:48:08.878Z,,0,,,6626.931999809269,completion,,,,,false,,,,122689.90000009537,122689.69999980927,116046.08,116057,116062.768,122692.317,8,400,,,
trial,html.Screen,4_6_0,2023-09-13T15:48:16.143Z,,0,1,,7262.1830000000045,response,ISIC_4713698.JPG,5,ISIC_0485914.JPG,ISIC_0485914.JPG,false,0,keypress(z),500,129954.59999990463,129954.5,122675.755,122690,122692.317,129956.46,8,400,7,,ISIC_4713698.JPG
break,html.Screen,4_6_1,2023-09-13T15:48:16.144Z,,0,,,NaN,,,,,,false,,,,129955.19999980927,129955,,129954.7999997139,,129956.46,8,400,,,
break_continue,html.Screen,4_6_2,2023-09-13T15:48:16.144Z,,0,,,NaN,,,,,,false,,,,129955.5,129955.5,,129955.2999997139,,129956.46,8,400,,,
sequence,flow.Sequence,4_6,2023-09-13T15:48:16.144Z,,0,,,7263.1830000000045,completion,,,,,false,,,,129955.59999990463,129955.5,122675.755,122689.90000009537,122692.317,129956.46,8,400,,,
trial,html.Screen,4_7_0,2023-09-13T15:48:21.478Z,,0,1,,5332.639999904626,response,ISIC_0027081.JPG,5,ISIC_0010861.JPG,ISIC_0010861.JPG,false,0,keypress(z),500,135289.19999980927,135289.09999990463,129939.935,129955.69999980927,129956.46,135300.158,8,400,8,,ISIC_0027081.JPG
break,html.Screen,4_7_1,2023-09-13T15:48:21.478Z,,0,,,NaN,,,,,,false,,,,135289.7999997139,135289.59999990463,,135289.2999997139,,135300.158,8,400,,,
break_continue,html.Screen,4_7_2,2023-09-13T15:48:21.478Z,,0,,,NaN,,,,,,false,,,,135290,135290,,135289.90000009537,,135300.158,8,400,,,
sequence,flow.Sequence,4_7,2023-09-13T15:48:21.478Z,,0,,,5333.539999999994,completion,,,,,false,,,,135290.19999980927,135290,129939.935,129955.69999980927,129956.46,135300.158,8,400,,,
trial,html.Screen,4_8_0,2023-09-13T15:48:26.665Z,,0,1,,5176.041999809269,response,ISIC_2508901.JPG,5,ISIC_0064660.JPG,ISIC_2508901.JPG,false,1,keypress(m),500,140476.19999980927,140476.19999980927,135283.496,135290.2999997139,135300.158,140476.888,8,400,9,,ISIC_0064660.JPG
break,html.Screen,4_8_1,2023-09-13T15:48:26.665Z,,0,,,NaN,,,,,,false,,,,140476.7999997139,140476.59999990463,,140476.2999997139,,140476.888,8,400,,,
break_continue,html.Screen,4_8_2,2023-09-13T15:48:26.665Z,,0,,,NaN,,,,,,false,,,,140477.09999990463,140477,,140476.7999997139,,140476.888,8,400,,,
sequence,flow.Sequence,4_8,2023-09-13T15:48:26.666Z,,0,,,5176.842000000004,completion,,,,,false,,,,140477.2999997139,140477,135283.496,135290.19999980927,135300.158,140476.888,8,400,,,
trial,html.Screen,4_9_0,2023-09-13T15:48:33.153Z,,0,1,,6487.311999809259,response,ISIC_9261199.JPG,5,ISIC_8398000.JPG,ISIC_8398000.JPG,false,0,keypress(z),500,146964.40000009537,146964.19999980927,140460.218,140477.2999997139,140476.888,146972.978,8,400,10,,ISIC_9261199.JPG
break,html.Screen,4_9_1,2023-09-13T15:48:33.154Z,,0,,,NaN,,,,,,false,,,,146965.19999980927,146964.90000009537,,146964.59999990463,,146972.978,8,400,,,
break_continue,html.Screen,4_9_2,2023-09-13T15:48:33.154Z,,0,,,NaN,,,,,,false,,,,146965.69999980927,146965.59999990463,,146965.40000009537,,146972.978,8,400,,,
sequence,flow.Sequence,4_9,2023-09-13T15:48:33.154Z,,0,,,6488.711999904626,completion,,,,,false,,,,146965.69999980927,146965.59999990463,140460.218,140477.2999997139,140476.888,146972.978,8,400,,,
trial,html.Screen,4_10_0,2023-09-13T15:48:38.713Z,,0,1,,5550.422000095365,response,ISIC_0002939.JPG,5,ISIC_6604862.JPG,ISIC_6604862.JPG,false,0,keypress(z),500,152523.5,152523.40000009537,146956.211,146965.7999997139,146972.978,152533.745,8,400,11,,ISIC_0002939.JPG
break,html.Screen,4_10_1,2023-09-13T15:48:38.714Z,,0,,,NaN,,,,,,false,,,,152524.09999990463,152523.90000009537,,152523.69999980927,,152533.745,8,400,,,
break_continue,html.Screen,4_10_2,2023-09-13T15:48:38.714Z,,0,,,NaN,,,,,,false,,,,152524.5,152524.40000009537,,152524.09999990463,,152533.745,8,400,,,
sequence,flow.Sequence,4_10,2023-09-13T15:48:38.714Z,,0,,,5551.422000095365,completion,,,,,false,,,,152524.5,152524.40000009537,146956.211,146965.7999997139,146972.978,152533.745,8,400,,,
trial,html.Screen,4_11_0,2023-09-13T15:48:45.053Z,,0,1,,6329.054999713902,response,ISIC_0028152.JPG,4,ISIC_0026683.JPG,ISIC_0026683.JPG,false,0,keypress(z),500,158862.90000009537,158862.7999997139,152517.067,152524.59999990463,152533.745,158879.587,8,400,12,,ISIC_0028152.JPG
break,html.Screen,4_11_1,2023-09-13T15:48:45.054Z,,0,,,NaN,,,,,,false,,,,158863.7999997139,158863.59999990463,,158863.19999980927,,158879.587,8,400,,,
break_continue,html.Screen,4_11_2,2023-09-13T15:48:45.054Z,,0,,,NaN,,,,,,false,,,,158864.09999990463,158864,,158864,,158879.587,8,400,,,
sequence,flow.Sequence,4_11,2023-09-13T15:48:45.054Z,,0,,,6330.255000000005,completion,,,,,false,,,,158864.09999990463,158864,152517.067,152524.59999990463,152533.745,158879.587,8,400,,,
trial,html.Screen,4_12_0,2023-09-13T15:48:50.085Z,,0,1,,5015.212999713898,response,ISIC_0169604.JPG,5,ISIC_0015046.JPG,ISIC_0169604.JPG,false,1,keypress(m),500,163894.90000009537,163894.7999997139,158862.74,158864.09999990463,158879.587,163905.839,8,400,13,,ISIC_0015046.JPG
break,html.Screen,4_12_1,2023-09-13T15:48:50.085Z,,0,,,NaN,,,,,,false,,,,163895.2999997139,163895.2999997139,,163895,,163905.839,8,400,,,
break_continue,html.Screen,4_12_2,2023-09-13T15:48:50.085Z,,0,,,NaN,,,,,,false,,,,163895.5,163895.40000009537,,163895.2999997139,,163905.839,8,400,,,
sequence,flow.Sequence,4_12,2023-09-13T15:48:50.085Z,,0,,,5015.813000095368,completion,,,,,false,,,,163895.5,163895.40000009537,158862.74,158864.09999990463,158879.587,163905.839,8,400,,,
trial,html.Screen,4_13_0,2023-09-13T15:48:58.618Z,,0,1,,8521.96099971389,response,ISIC_0817140.JPG,4,ISIC_0011409.JPG,ISIC_0817140.JPG,false,1,keypress(m),500,172427.90000009537,172427.7999997139,163889.174,163895.59999990463,163905.839,172439.253,8,400,14,,ISIC_0011409.JPG
break,html.Screen,4_13_1,2023-09-13T15:48:58.618Z,,0,,,NaN,,,,,,false,,,,172428.40000009537,172428.2999997139,,172428,,172439.253,8,400,,,
break_continue,html.Screen,4_13_2,2023-09-13T15:48:58.618Z,,0,,,NaN,,,,,,false,,,,172428.5,172428.5,,172428.5,,172439.253,8,400,,,
sequence,flow.Sequence,4_13,2023-09-13T15:48:58.619Z,,0,,,8522.660999999993,completion,,,,,false,,,,172428.59999990463,172428.5,163889.174,163895.5,163905.839,172439.253,8,400,,,
trial,html.Screen,4_14_0,2023-09-13T15:49:05.025Z,,0,1,,6396.046999713901,response,ISIC_0011830.JPG,5,ISIC_0497390.JPG,ISIC_0011830.JPG,false,1,keypress(m),500,178835.5,178835.2999997139,172422.597,172428.69999980927,172439.253,178851.615,8,400,15,,ISIC_0497390.JPG
break,html.Screen,4_14_1,2023-09-13T15:49:05.026Z,,0,,,NaN,,,,,,false,,,,178836,178835.69999980927,,178835.59999990463,,178851.615,8,400,,,
break_continue,html.Screen,4_14_2,2023-09-13T15:49:05.026Z,,0,,,NaN,,,,,,false,,,,178836.09999990463,178836.09999990463,,178836,,178851.615,8,400,,,
sequence,flow.Sequence,4_14,2023-09-13T15:49:05.026Z,,0,,,6396.846999904636,completion,,,,,false,,,,178836.19999980927,178836.09999990463,172422.597,172428.59999990463,172439.253,178851.615,8,400,,,
trial,html.Screen,4_15_0,2023-09-13T15:49:11.908Z,,0,1,,6866.084999809274,response,ISIC_8106899.JPG,4,ISIC_0033166.JPG,ISIC_0033166.JPG,false,0,keypress(z),500,185717.7999997139,185717.69999980927,178834.941,178836.2999997139,178851.615,185731.648,8,400,16,,ISIC_8106899.JPG
break,html.Screen,4_15_1,2023-09-13T15:49:11.908Z,,0,,,NaN,,,,,,false,,,,185718.40000009537,185718.19999980927,,185718,,185731.648,8,400,,,
break_continue,html.Screen,4_15_2,2023-09-13T15:49:11.909Z,,0,,,NaN,,,,,,false,,,,185718.7999997139,185718.69999980927,,185718.5,,185731.648,8,400,,,
sequence,flow.Sequence,4_15,2023-09-13T15:49:11.909Z,,0,,,6867.084999809274,completion,,,,,false,,,,185718.90000009537,185718.69999980927,178834.941,178836.2999997139,178851.615,185731.648,8,400,,,
trial,html.Screen,4_16_0,2023-09-13T15:49:17.574Z,,0,1,,5652.3520000000135,response,ISIC_7053271.JPG,4,ISIC_0060481.JPG,ISIC_7053271.JPG,false,1,keypress(m),500,191384,191384,185715.091,185718.90000009537,185731.648,191392.702,8,400,17,,ISIC_0060481.JPG
break,html.Screen,4_16_1,2023-09-13T15:49:17.574Z,,0,,,NaN,,,,,,false,,,,191384.40000009537,191384.40000009537,,191384.19999980927,,191392.702,8,400,,,
break_continue,html.Screen,4_16_2,2023-09-13T15:49:17.574Z,,0,,,NaN,,,,,,false,,,,191384.59999990463,191384.59999990463,,191384.5,,191392.702,8,400,,,
sequence,flow.Sequence,4_16,2023-09-13T15:49:17.575Z,,0,,,5652.951999904646,completion,,,,,false,,,,191384.69999980927,191384.59999990463,185715.091,185718.90000009537,185731.648,191392.702,8,400,,,
trial,html.Screen,4_17_0,2023-09-13T15:49:23.005Z,,0,1,,5422.397999904642,response,ISIC_0063496.JPG,5,ISIC_0013316.JPG,ISIC_0013316.JPG,false,0,keypress(z),500,196815.19999980927,196815.09999990463,191376.001,191384.7999997139,191392.702,196819.897,8,400,18,,ISIC_0063496.JPG
break,html.Screen,4_17_1,2023-09-13T15:49:23.005Z,,0,,,NaN,,,,,,false,,,,196815.69999980927,196815.5,,196815.2999997139,,196819.897,8,400,,,
break_continue,html.Screen,4_17_2,2023-09-13T15:49:23.006Z,,0,,,NaN,,,,,,false,,,,196815.7999997139,196815.69999980927,,196815.69999980927,,196819.897,8,400,,,
sequence,flow.Sequence,4_17,2023-09-13T15:49:23.006Z,,0,,,5422.997999809275,completion,,,,,false,,,,196815.90000009537,196815.69999980927,191376.001,191384.7999997139,191392.702,196819.897,8,400,,,
trial,html.Screen,4_18_0,2023-09-13T15:49:28.757Z,,0,1,,5746.802999809268,response,ISIC_6026759.JPG,5,ISIC_8887039.JPG,ISIC_8887039.JPG,false,0,keypress(z),500,202566.7999997139,202566.69999980927,196803.311,196815.90000009537,196819.897,202581.314,8,400,19,,ISIC_6026759.JPG
break,html.Screen,4_18_1,2023-09-13T15:49:28.757Z,,0,,,NaN,,,,,,false,,,,202567.40000009537,202567.19999980927,,202566.90000009537,,202581.314,8,400,,,
break_continue,html.Screen,4_18_2,2023-09-13T15:49:28.758Z,,0,,,NaN,,,,,,false,,,,202567.69999980927,202567.59999990463,,202567.5,,202581.314,8,400,,,
sequence,flow.Sequence,4_18,2023-09-13T15:49:28.758Z,,0,,,5747.702999904635,completion,,,,,false,,,,202567.7999997139,202567.59999990463,196803.311,196815.90000009537,196819.897,202581.314,8,400,,,
trial,html.Screen,4_19_0,2023-09-13T15:49:34.734Z,,0,1,,5962.7859999046195,response,ISIC_0032510.JPG,5,ISIC_3687259.JPG,ISIC_3687259.JPG,false,0,keypress(z),500,208544.19999980927,208544.09999990463,202564.437,202567.7999997139,202581.314,208559.508,8,400,20,,ISIC_0032510.JPG
break,html.Screen,4_19_1,2023-09-13T15:49:34.734Z,,0,,,NaN,,,,,,false,,,,208544.59999990463,208544.5,,208544.2999997139,,208559.508,8,400,,,
break_continue,html.Screen,4_19_2,2023-09-13T15:49:34.735Z,,0,,,NaN,,,,,,false,,,,208544.7999997139,208544.69999980927,,208544.69999980927,,208559.508,8,400,,,
sequence,flow.Sequence,4_19,2023-09-13T15:49:34.735Z,,0,,,5963.385999809252,completion,,,,,false,,,,208544.90000009537,208544.69999980927,202564.437,202567.7999997139,202581.314,208559.508,8,400,,,
trial,html.Screen,4_20_0,2023-09-13T15:49:41.336Z,,0,1,,6585.091999904631,response,ISIC_9639931.JPG,6,ISIC_0062812.JPG,ISIC_9639931.JPG,false,1,keypress(m),500,215144.7999997139,215144.59999990463,208542.732,208545,208559.508,215155.612,8,400,21,,ISIC_0062812.JPG
break,html.Screen,4_20_1,2023-09-13T15:49:41.337Z,,0,,,NaN,,,,,,false,,,,215145.40000009537,215145.09999990463,,215144.7999997139,,215155.612,8,400,,,
break_continue,html.Screen,4_20_2,2023-09-13T15:49:41.337Z,,0,,,NaN,,,,,,false,,,,215145.69999980927,215145.59999990463,,215145.5,,215155.612,8,400,,,
sequence,flow.Sequence,4_20,2023-09-13T15:49:41.337Z,,0,,,6586.091999904631,completion,,,,,false,,,,215145.7999997139,215145.59999990463,208542.732,208545,208559.508,215155.612,8,400,,,
trial,html.Screen,4_21_0,2023-09-13T15:49:47.985Z,,0,1,,6637.487999904639,response,ISIC_0027411.JPG,4,ISIC_2598575.JPG,ISIC_2598575.JPG,false,0,keypress(z),500,221793.19999980927,221793.09999990463,215138.903,215145.90000009537,215155.612,221801.926,8,400,22,,ISIC_0027411.JPG
break,html.Screen,4_21_1,2023-09-13T15:49:47.985Z,,0,,,NaN,,,,,,false,,,,221793.69999980927,221793.5,,221793.2999997139,,221801.926,8,400,,,
break_continue,html.Screen,4_21_2,2023-09-13T15:49:47.985Z,,0,,,NaN,,,,,,false,,,,221793.90000009537,221793.7999997139,,221793.69999980927,,221801.926,8,400,,,
sequence,flow.Sequence,4_21,2023-09-13T15:49:47.985Z,,0,,,6638.187999713904,completion,,,,,false,,,,221793.90000009537,221793.7999997139,215138.903,215145.7999997139,215155.612,221801.926,8,400,,,
trial,html.Screen,4_22_0,2023-09-13T15:49:54.275Z,,0,1,,6281.273999809258,response,ISIC_9160614.JPG,5,ISIC_0032701.JPG,ISIC_9160614.JPG,false,1,keypress(m),500,228083.40000009537,228083.19999980927,221785.156,221794,221801.926,228097.446,8,400,23,,ISIC_0032701.JPG
break,html.Screen,4_22_1,2023-09-13T15:49:54.275Z,,0,,,NaN,,,,,,false,,,,228083.7999997139,228083.69999980927,,228083.5,,228097.446,8,400,,,
break_continue,html.Screen,4_22_2,2023-09-13T15:49:54.275Z,,0,,,NaN,,,,,,false,,,,228084.09999990463,228084,,228083.90000009537,,228097.446,8,400,,,
sequence,flow.Sequence,4_22,2023-09-13T15:49:54.276Z,,0,,,6282.073999999993,completion,,,,,false,,,,228084.09999990463,228084,221785.156,221794,221801.926,228097.446,8,400,,,
trial,html.Screen,4_23_0,2023-09-13T15:50:00.886Z,,0,1,,6597.153999904636,response,ISIC_1504257.JPG,5,ISIC_5852396.JPG,ISIC_1504257.JPG,false,1,keypress(m),500,234694.90000009537,234694.59999990463,228080.704,228084.19999980927,228097.446,234710.387,8,400,24,,ISIC_5852396.JPG
break,html.Screen,4_23_1,2023-09-13T15:50:00.888Z,,0,,,NaN,,,,,,false,,,,234696.40000009537,234696,,234695.2999997139,,234710.387,8,400,,,
break_continue,html.Screen,4_23_2,2023-09-13T15:50:00.889Z,,0,,,NaN,,,,,,false,,,,234697.2999997139,234697.09999990463,,234696.69999980927,,234710.387,8,400,,,
sequence,flow.Sequence,4_23,2023-09-13T15:50:00.889Z,,0,,,6599.653999904636,completion,,,,,false,,,,234697.59999990463,234697.09999990463,228080.704,228084.19999980927,228097.446,234710.387,8,400,,,
trial,html.Screen,4_24_0,2023-09-13T15:50:07.037Z,,0,1,,6135.113000000012,response,ISIC_0351547.JPG,6,ISIC_1110583.JPG,ISIC_1110583.JPG,false,0,keypress(z),500,240845.69999980927,240845.5,234693.65,234697.69999980927,234710.387,240855.681,8,400,25,,ISIC_0351547.JPG
break,html.Screen,4_24_1,2023-09-13T15:50:07.038Z,,0,,,NaN,,,,,,false,,,,240847,240846.69999980927,,240846.09999990463,,240855.681,8,400,,,
break_continue,html.Screen,4_24_2,2023-09-13T15:50:07.039Z,,0,,,NaN,,,,,,false,,,,240847.7999997139,240847.59999990463,,240847.19999980927,,240855.681,8,400,,,
sequence,flow.Sequence,4_24,2023-09-13T15:50:07.039Z,,0,,,6137.212999904645,completion,,,,,false,,,,240848.09999990463,240847.59999990463,234693.65,234697.69999980927,234710.387,240855.681,8,400,,,
trial,html.Screen,4_25_0,2023-09-13T15:50:11.476Z,,0,1,,4429.018999809254,response,ISIC_0058580.JPG,6,ISIC_3981101.JPG,ISIC_3981101.JPG,false,0,keypress(z),500,245284.7999997139,245284.69999980927,240839.027,240848.2999997139,240855.681,245297.586,8,400,26,,ISIC_0058580.JPG
break,html.Screen,4_25_1,2023-09-13T15:50:11.477Z,,0,,,NaN,,,,,,false,,,,245285.19999980927,245285.09999990463,,245284.90000009537,,245297.586,8,400,,,
break_continue,html.Screen,4_25_2,2023-09-13T15:50:11.477Z,,0,,,NaN,,,,,,false,,,,245285.40000009537,245285.2999997139,,245285.2999997139,,245297.586,8,400,,,
sequence,flow.Sequence,4_25,2023-09-13T15:50:11.477Z,,0,,,4429.618999713886,completion,,,,,false,,,,245285.5,245285.2999997139,240839.027,240848.19999980927,240855.681,245297.586,8,400,,,
trial,html.Screen,4_26_0,2023-09-13T15:50:18.646Z,,0,1,,7157.013999904622,response,ISIC_0033171.JPG,4,ISIC_4116770.JPG,ISIC_4116770.JPG,false,0,keypress(z),500,252455,252454.59999990463,245281,245285.5,245297.586,252461.597,8,400,27,,ISIC_0033171.JPG
break,html.Screen,4_26_1,2023-09-13T15:50:18.648Z,,0,,,NaN,,,,,,false,,,,252456.2999997139,252456,,252455.2999997139,,252461.597,8,400,,,
break_continue,html.Screen,4_26_2,2023-09-13T15:50:18.648Z,,0,,,NaN,,,,,,false,,,,252457.09999990463,252456.7999997139,,252456.59999990463,,252461.597,8,400,,,
sequence,flow.Sequence,4_26,2023-09-13T15:50:18.649Z,,0,,,7159.2139997138875,completion,,,,,false,,,,252457.40000009537,252456.7999997139,245281,245285.5,245297.586,252461.597,8,400,,,
trial,html.Screen,4_27_0,2023-09-13T15:50:24.030Z,,0,1,,5376.902999999991,response,ISIC_4771769.JPG,6,ISIC_0025955.JPG,ISIC_0025955.JPG,false,0,keypress(z),500,257838.69999980927,257838.5,252444.817,252457.69999980927,252461.597,257855.353,8,400,28,,ISIC_4771769.JPG
break,html.Screen,4_27_1,2023-09-13T15:50:24.031Z,,0,,,NaN,,,,,,false,,,,257839.69999980927,257839.40000009537,,257838.90000009537,,257855.353,8,400,,,
break_continue,html.Screen,4_27_2,2023-09-13T15:50:24.031Z,,0,,,NaN,,,,,,false,,,,257840.09999990463,257840,,257839.7999997139,,257855.353,8,400,,,
sequence,flow.Sequence,4_27,2023-09-13T15:50:24.032Z,,0,,,5378.402999999991,completion,,,,,false,,,,257840.2999997139,257840,252444.817,252457.5,252461.597,257855.353,8,400,,,
trial,html.Screen,4_28_0,2023-09-13T15:50:28.808Z,,0,1,,4761.547000095365,response,ISIC_0054767.JPG,4,ISIC_9775430.JPG,ISIC_9775430.JPG,false,0,keypress(z),500,262617,262616.90000009537,257838.656,257840.5,257855.353,262631.341,8,400,29,,ISIC_0054767.JPG
break,html.Screen,4_28_1,2023-09-13T15:50:28.809Z,,0,,,NaN,,,,,,false,,,,262617.59999990463,262617.5,,262617.19999980927,,262631.341,8,400,,,
break_continue,html.Screen,4_28_2,2023-09-13T15:50:28.809Z,,0,,,NaN,,,,,,false,,,,262617.90000009537,262617.7999997139,,262617.69999980927,,262631.341,8,400,,,
sequence,flow.Sequence,4_28,2023-09-13T15:50:28.809Z,,0,,,4762.446999713895,completion,,,,,false,,,,262617.90000009537,262617.7999997139,257838.656,257840.40000009537,257855.353,262631.341,8,400,,,
trial,html.Screen,4_29_0,2023-09-13T15:50:34.171Z,,0,1,,5348.458999713883,response,ISIC_0033518.JPG,5,ISIC_0033213.JPG,ISIC_0033213.JPG,false,0,keypress(z),500,267980,267979.7999997139,262614.736,262618,262631.341,267991.76,8,400,30,,ISIC_0033518.JPG
break,html.Screen,4_29_1,2023-09-13T15:50:34.172Z,,0,,,NaN,,,,,,false,,,,267980.69999980927,267980.40000009537,,267980.09999990463,,267991.76,8,400,,,
break_continue,html.Screen,4_29_2,2023-09-13T15:50:34.172Z,,0,,,NaN,,,,,,false,,,,267981.09999990463,267981,,267980.7999997139,,267991.76,8,400,,,
sequence,flow.Sequence,4_29,2023-09-13T15:50:34.173Z,,0,,,5349.658999999985,completion,,,,,false,,,,267981.19999980927,267981,262614.736,262618,262631.341,267991.76,8,400,,,
trial,html.Screen,4_30_0,2023-09-13T15:50:38.948Z,,0,1,,4763.140000095358,response,ISIC_3065032.JPG,5,ISIC_9012513.JPG,ISIC_3065032.JPG,false,1,keypress(m),500,272755,272754.90000009537,267975.074,267981.19999980927,267991.76,272767.818,8,400,31,,ISIC_9012513.JPG
break,html.Screen,4_30_1,2023-09-13T15:50:38.948Z,,0,,,NaN,,,,,,false,,,,272755.40000009537,272755.40000009537,,272755.09999990463,,272767.818,8,400,,,
break_continue,html.Screen,4_30_2,2023-09-13T15:50:38.949Z,,0,,,NaN,,,,,,false,,,,272755.69999980927,272755.59999990463,,272755.5,,272767.818,8,400,,,
sequence,flow.Sequence,4_30,2023-09-13T15:50:38.949Z,,0,,,4763.839999904623,completion,,,,,false,,,,272755.69999980927,272755.59999990463,267975.074,267981.19999980927,267991.76,272767.818,8,400,,,
trial,html.Screen,4_31_0,2023-09-13T15:50:44.711Z,,0,1,,5749.781999904604,response,ISIC_6330529.JPG,5,ISIC_3466769.JPG,ISIC_3466769.JPG,false,0,keypress(z),500,278517.69999980927,278517.59999990463,272751.009,272755.69999980927,272767.818,278529.046,8,400,32,,ISIC_6330529.JPG
break,html.Screen,4_31_1,2023-09-13T15:50:44.711Z,,0,,,NaN,,,,,,false,,,,278518.2999997139,278518.09999990463,,278517.90000009537,,278529.046,8,400,,,
break_continue,html.Screen,4_31_2,2023-09-13T15:50:44.711Z,,0,,,NaN,,,,,,false,,,,278518.5,278518.5,,278518.40000009537,,278529.046,8,400,,,
sequence,flow.Sequence,4_31,2023-09-13T15:50:44.712Z,,0,,,5750.681999999972,completion,,,,,false,,,,278518.59999990463,278518.5,272751.009,272755.69999980927,272767.818,278529.046,8,400,,,
trial,html.Screen,4_32_0,2023-09-13T15:50:49.901Z,,0,1,,5179.354000095394,response,ISIC_5703909.JPG,5,ISIC_0024892.JPG,ISIC_5703909.JPG,false,1,keypress(m),500,283708.40000009537,283708.40000009537,278512.439,278518.59999990463,278529.046,283722.336,8,400,33,,ISIC_0024892.JPG
break,html.Screen,4_32_1,2023-09-13T15:50:49.902Z,,0,,,NaN,,,,,,false,,,,283709,283708.7999997139,,283708.5,,283722.336,8,400,,,
break_continue,html.Screen,4_32_2,2023-09-13T15:50:49.902Z,,0,,,NaN,,,,,,false,,,,283709.5,283709.2999997139,,283709.19999980927,,283722.336,8,400,,,
sequence,flow.Sequence,4_32,2023-09-13T15:50:49.902Z,,0,,,5180.253999713925,completion,,,,,false,,,,283709.59999990463,283709.2999997139,278512.439,278518.59999990463,278529.046,283722.336,8,400,,,
trial,html.Screen,4_33_0,2023-09-13T15:50:56.577Z,,0,1,,6661.363999809255,response,ISIC_5909451.JPG,4,ISIC_8869929.JPG,ISIC_5909451.JPG,false,1,keypress(m),500,290383.7999997139,290383.69999980927,283705.719,283709.59999990463,283722.336,290385.319,8,400,34,,ISIC_8869929.JPG
break,html.Screen,4_33_1,2023-09-13T15:50:56.577Z,,0,,,NaN,,,,,,false,,,,290384.19999980927,290384.09999990463,,290383.90000009537,,290385.319,8,400,,,
break_continue,html.Screen,4_33_2,2023-09-13T15:50:56.577Z,,0,,,NaN,,,,,,false,,,,290384.5,290384.40000009537,,290384.40000009537,,290385.319,8,400,,,
sequence,flow.Sequence,4_33,2023-09-13T15:50:56.577Z,,0,,,6662.064000095357,completion,,,,,false,,,,290384.5,290384.40000009537,283705.719,283709.59999990463,283722.336,290385.319,8,400,,,
trial,html.Screen,4_34_0,2023-09-13T15:51:03.529Z,,0,1,,6950.58100009535,response,ISIC_0013977.JPG,5,ISIC_0028618.JPG,ISIC_0013977.JPG,false,1,keypress(m),500,297336,297335.90000009537,290368.723,290384.59999990463,290385.319,297349.116,8,400,35,,ISIC_0028618.JPG
break,html.Screen,4_34_1,2023-09-13T15:51:03.529Z,,0,,,NaN,,,,,,false,,,,297336.5,297336.2999997139,,297336.09999990463,,297349.116,8,400,,,
break_continue,html.Screen,4_34_2,2023-09-13T15:51:03.530Z,,0,,,NaN,,,,,,false,,,,297336.69999980927,297336.59999990463,,297336.59999990463,,297349.116,8,400,,,
sequence,flow.Sequence,4_34,2023-09-13T15:51:03.530Z,,0,,,6951.280999904615,completion,,,,,false,,,,297336.7999997139,297336.59999990463,290368.723,290384.5,290385.319,297349.116,8,400,,,
trial,html.Screen,4_35_0,2023-09-13T15:51:08.987Z,,0,1,,5445.38400000002,response,ISIC_0029937.JPG,6,ISIC_0032504.JPG,ISIC_0029937.JPG,false,1,keypress(m),500,302794.59999990463,302794.5,297332.237,297336.7999997139,297349.116,302809.502,8,400,36,,ISIC_0032504.JPG
break,html.Screen,4_35_1,2023-09-13T15:51:08.988Z,,0,,,NaN,,,,,,false,,,,302795,302794.90000009537,,302794.59999990463,,302809.502,8,400,,,
break_continue,html.Screen,4_35_2,2023-09-13T15:51:08.988Z,,0,,,NaN,,,,,,false,,,,302795.19999980927,302795.19999980927,,302795.09999990463,,302809.502,8,400,,,
sequence,flow.Sequence,4_35,2023-09-13T15:51:08.988Z,,0,,,5446.083999809285,completion,,,,,false,,,,302795.2999997139,302795.19999980927,297332.237,297336.7999997139,297349.116,302809.502,8,400,,,
trial,html.Screen,4_36_0,2023-09-13T15:51:15.326Z,,0,1,,6323.197999809287,response,ISIC_8389839.JPG,5,ISIC_3762459.JPG,ISIC_3762459.JPG,false,0,keypress(z),500,309132.7999997139,309132.69999980927,302792.812,302795.40000009537,302809.502,309138.523,8,400,37,,ISIC_8389839.JPG
break,html.Screen,4_36_1,2023-09-13T15:51:15.326Z,,0,,,NaN,,,,,,false,,,,309133.19999980927,309133.09999990463,,309132.90000009537,,309138.523,8,400,,,
break_continue,html.Screen,4_36_2,2023-09-13T15:51:15.326Z,,0,,,NaN,,,,,,false,,,,309133.40000009537,309133.40000009537,,309133.19999980927,,309138.523,8,400,,,
sequence,flow.Sequence,4_36,2023-09-13T15:51:15.326Z,,0,,,6323.898000095389,completion,,,,,false,,,,309133.40000009537,309133.40000009537,302792.812,302795.2999997139,302809.502,309138.523,8,400,,,
trial,html.Screen,4_37_0,2023-09-13T15:51:21.574Z,,0,1,,6242.676999809279,response,ISIC_2547431.JPG,4,ISIC_0014150.JPG,ISIC_2547431.JPG,false,1,keypress(m),500,315381.2999997139,315381.19999980927,309121.768,309133.59999990463,309138.523,315383.99,8,400,38,,ISIC_0014150.JPG
break,html.Screen,4_37_1,2023-09-13T15:51:21.575Z,,0,,,NaN,,,,,,false,,,,315381.69999980927,315381.59999990463,,315381.40000009537,,315383.99,8,400,,,
break_continue,html.Screen,4_37_2,2023-09-13T15:51:21.575Z,,0,,,NaN,,,,,,false,,,,315381.7999997139,315381.7999997139,,315381.7999997139,,315383.99,8,400,,,
sequence,flow.Sequence,4_37,2023-09-13T15:51:21.575Z,,0,,,6243.276999713911,completion,,,,,false,,,,315382,315381.7999997139,309121.768,309133.5,309138.523,315383.99,8,400,,,
trial,html.Screen,4_38_0,2023-09-13T15:51:27.071Z,,0,1,,5493.609999904642,response,ISIC_7599444.JPG,5,ISIC_0013577.JPG,ISIC_7599444.JPG,false,1,keypress(m),500,320877.69999980927,320877.59999990463,315367.298,315382,315383.99,320894.729,8,400,39,,ISIC_0013577.JPG
break,html.Screen,4_38_1,2023-09-13T15:51:27.071Z,,0,,,NaN,,,,,,false,,,,320878.19999980927,320878,,320877.7999997139,,320894.729,8,400,,,
break_continue,html.Screen,4_38_2,2023-09-13T15:51:27.071Z,,0,,,NaN,,,,,,false,,,,320878.40000009537,320878.40000009537,,320878.19999980927,,320894.729,8,400,,,
sequence,flow.Sequence,4_38,2023-09-13T15:51:27.071Z,,0,,,5494.410000095377,completion,,,,,false,,,,320878.5,320878.40000009537,315367.298,315382,315383.99,320894.729,8,400,,,
trial,html.Screen,4_39_0,2023-09-13T15:51:32.513Z,,0,1,,5425.171000095375,response,ISIC_0007884.JPG,5,ISIC_4197990.JPG,ISIC_0007884.JPG,false,1,keypress(m),500,326320,326319.90000009537,320878.051,320878.5,320894.729,326321.953,8,400,40,,ISIC_4197990.JPG
break,html.Screen,4_39_1,2023-09-13T15:51:32.514Z,,0,,,NaN,,,,,,false,,,,326320.7999997139,326320.59999990463,,326320.2999997139,,326321.953,8,400,,,
break_continue,html.Screen,4_39_2,2023-09-13T15:51:32.514Z,,0,,,NaN,,,,,,false,,,,326321.19999980927,326321.09999990463,,326320.90000009537,,326321.953,8,400,,,
sequence,flow.Sequence,4_39,2023-09-13T15:51:32.514Z,,0,,,5426.3709999046405,completion,,,,,false,,,,326321.2999997139,326321.09999990463,320878.051,320878.5,320894.729,326321.953,8,400,,,
trial,html.Screen,4_40_0,2023-09-13T15:51:37.910Z,,0,1,,5393.246999809286,response,ISIC_0360367.JPG,4,ISIC_0644590.JPG,ISIC_0360367.JPG,false,1,keypress(m),500,331715.2999997139,331715.19999980927,326305.311,326321.5,326321.953,331732.463,8,400,41,,ISIC_0644590.JPG
break,html.Screen,4_40_1,2023-09-13T15:51:37.910Z,,0,,,NaN,,,,,,false,,,,331715.7999997139,331715.69999980927,,331715.40000009537,,331732.463,8,400,,,
break_continue,html.Screen,4_40_2,2023-09-13T15:51:37.910Z,,0,,,NaN,,,,,,false,,,,331715.90000009537,331715.90000009537,,331715.7999997139,,331732.463,8,400,,,
sequence,flow.Sequence,4_40,2023-09-13T15:51:37.911Z,,0,,,5393.947000095388,completion,,,,,false,,,,331716.09999990463,331715.90000009537,326305.311,326321.40000009537,326321.953,331732.463,8,400,,,
trial,html.Screen,4_41_0,2023-09-13T15:51:43.816Z,,0,1,,5889.136999904644,response,ISIC_0063447.JPG,5,ISIC_3520750.JPG,ISIC_3520750.JPG,false,0,keypress(z),500,337621.7999997139,337621.59999990463,331699.141,331716.09999990463,331732.463,337627.343,8,400,42,,ISIC_0063447.JPG
break,html.Screen,4_41_1,2023-09-13T15:51:43.817Z,,0,,,NaN,,,,,,false,,,,337622.2999997139,337622.09999990463,,337621.90000009537,,337627.343,8,400,,,
break_continue,html.Screen,4_41_2,2023-09-13T15:51:43.817Z,,0,,,NaN,,,,,,false,,,,337622.69999980927,337622.59999990463,,337622.5,,337627.343,8,400,,,
sequence,flow.Sequence,4_41,2023-09-13T15:51:43.817Z,,0,,,5890.136999904644,completion,,,,,false,,,,337622.7999997139,337622.59999990463,331699.141,331716.09999990463,331732.463,337627.343,8,400,,,
trial,html.Screen,4_42_0,2023-09-13T15:51:49.516Z,,0,1,,5694.356999809272,response,ISIC_0770920.JPG,5,ISIC_0024236.JPG,ISIC_0024236.JPG,false,0,keypress(z),500,343321.90000009537,343321.69999980927,337610.56,337622.7999997139,337627.343,343338.461,8,400,43,,ISIC_0770920.JPG
break,html.Screen,4_42_1,2023-09-13T15:51:49.517Z,,0,,,NaN,,,,,,false,,,,343322.90000009537,343322.69999980927,,343322.09999990463,,343338.461,8,400,,,
break_continue,html.Screen,4_42_2,2023-09-13T15:51:49.518Z,,0,,,NaN,,,,,,false,,,,343323.40000009537,343323.19999980927,,343323.09999990463,,343338.461,8,400,,,
sequence,flow.Sequence,4_42,2023-09-13T15:51:49.518Z,,0,,,5695.856999809272,completion,,,,,false,,,,343323.40000009537,343323.19999980927,337610.56,337622.7999997139,337627.343,343338.461,8,400,,,
trial,html.Screen,4_43_0,2023-09-13T15:51:54.196Z,,0,1,,4663.138999904622,response,ISIC_0027266.JPG,5,ISIC_3666094.JPG,ISIC_3666094.JPG,false,0,keypress(z),500,348001.69999980927,348001.59999990463,343321.684,343323.59999990463,343338.461,348014.146,8,400,44,,ISIC_0027266.JPG
break,html.Screen,4_43_1,2023-09-13T15:51:54.197Z,,0,,,NaN,,,,,,false,,,,348002.19999980927,348002.09999990463,,348001.90000009537,,348014.146,8,400,,,
break_continue,html.Screen,4_43_2,2023-09-13T15:51:54.197Z,,0,,,NaN,,,,,,false,,,,348002.40000009537,348002.40000009537,,348002.2999997139,,348014.146,8,400,,,
sequence,flow.Sequence,4_43,2023-09-13T15:51:54.197Z,,0,,,4663.939000095357,completion,,,,,false,,,,348002.59999990463,348002.40000009537,343321.684,343323.59999990463,343338.461,348014.146,8,400,,,
trial,html.Screen,4_44_0,2023-09-13T15:51:59.495Z,,0,1,,5286.7540000953595,response,ISIC_9058340.JPG,4,ISIC_1388297.JPG,ISIC_9058340.JPG,false,1,keypress(m),500,353301,353300.90000009537,347997.403,348002.69999980927,348014.146,353324.531,8,400,45,,ISIC_1388297.JPG
break,html.Screen,4_44_1,2023-09-13T15:51:59.496Z,,0,,,NaN,,,,,,false,,,,353301.5,353301.2999997139,,353301.19999980927,,353324.531,8,400,,,
break_continue,html.Screen,4_44_2,2023-09-13T15:51:59.496Z,,0,,,NaN,,,,,,false,,,,353301.59999990463,353301.59999990463,,353301.5,,353324.531,8,400,,,
sequence,flow.Sequence,4_44,2023-09-13T15:51:59.496Z,,0,,,5287.453999904625,completion,,,,,false,,,,353301.69999980927,353301.59999990463,347997.403,348002.59999990463,348014.146,353324.531,8,400,,,
trial,html.Screen,4_45_0,2023-09-13T15:52:04.009Z,,0,1,,4490.36900009535,response,ISIC_7039203.JPG,5,ISIC_0005062.JPG,ISIC_0005062.JPG,false,0,keypress(z),500,357814.90000009537,357814.90000009537,353307.763,353301.7999997139,353324.531,357816.572,8,400,46,,ISIC_7039203.JPG
break,html.Screen,4_45_1,2023-09-13T15:52:04.010Z,,0,,,NaN,,,,,,false,,,,357815.69999980927,357815.40000009537,,357815.19999980927,,357816.572,8,400,,,
break_continue,html.Screen,4_45_2,2023-09-13T15:52:04.011Z,,0,,,NaN,,,,,,false,,,,357816,357816,,357815.7999997139,,357816.572,8,400,,,
sequence,flow.Sequence,4_45,2023-09-13T15:52:04.011Z,,0,,,4491.468999999983,completion,,,,,false,,,,357816.09999990463,357816,353307.763,353301.7999997139,353324.531,357816.572,8,400,,,
trial,html.Screen,4_46_0,2023-09-13T15:52:08.829Z,,0,1,,4818.027999904647,response,ISIC_0009488.JPG,5,ISIC_4229473.JPG,ISIC_0009488.JPG,false,1,keypress(m),500,362634.69999980927,362634.59999990463,357799.914,357816.19999980927,357816.572,362642.757,8,400,47,,ISIC_4229473.JPG
break,html.Screen,4_46_1,2023-09-13T15:52:08.830Z,,0,,,NaN,,,,,,false,,,,362635.09999990463,362635,,362634.7999997139,,362642.757,8,400,,,
break_continue,html.Screen,4_46_2,2023-09-13T15:52:08.830Z,,0,,,NaN,,,,,,false,,,,362635.2999997139,362635.19999980927,,362635.09999990463,,362642.757,8,400,,,
sequence,flow.Sequence,4_46,2023-09-13T15:52:08.830Z,,0,,,4818.62799980928,completion,,,,,false,,,,362635.40000009537,362635.19999980927,357799.914,357816.19999980927,357816.572,362642.757,8,400,,,
trial,html.Screen,4_47_0,2023-09-13T15:52:15.249Z,,0,1,,6411.842999904649,response,ISIC_8160596.JPG,5,ISIC_3913709.JPG,ISIC_3913709.JPG,false,0,keypress(z),500,369054.90000009537,369054.59999990463,362625.948,362635.40000009537,362642.757,369071.832,8,400,48,,ISIC_8160596.JPG
break,html.Screen,4_47_1,2023-09-13T15:52:15.251Z,,0,,,NaN,,,,,,false,,,,369056,369055.69999980927,,369055.09999990463,,369071.832,8,400,,,
break_continue,html.Screen,4_47_2,2023-09-13T15:52:15.251Z,,0,,,NaN,,,,,,false,,,,369056.69999980927,369056.5,,369056.2999997139,,369071.832,8,400,,,
sequence,flow.Sequence,4_47,2023-09-13T15:52:15.251Z,,0,,,6413.743000000017,completion,,,,,false,,,,369056.90000009537,369056.5,362625.948,362635.40000009537,362642.757,369071.832,8,400,,,
trial,html.Screen,4_48_0,2023-09-13T15:52:23.462Z,,0,1,,8195.568000095373,response,ISIC_0026141.JPG,5,ISIC_2977718.JPG,ISIC_0026141.JPG,false,1,keypress(m),500,377267.5,377267.40000009537,369055.068,369057,369071.832,377271.09,8,400,49,,ISIC_2977718.JPG
break,html.Screen,4_48_1,2023-09-13T15:52:23.463Z,,0,,,NaN,,,,,,false,,,,377268,377267.7999997139,,377267.59999990463,,377271.09,8,400,,,
break_continue,html.Screen,4_48_2,2023-09-13T15:52:23.463Z,,0,,,NaN,,,,,,false,,,,377268.19999980927,377268.19999980927,,377268,,377271.09,8,400,,,
sequence,flow.Sequence,4_48,2023-09-13T15:52:23.463Z,,0,,,8196.36799980927,completion,,,,,false,,,,377268.19999980927,377268.19999980927,369055.068,369057,369071.832,377271.09,8,400,,,
trial,html.Screen,4_49_0,2023-09-13T15:52:28.346Z,,0,1,,4880.709999713872,response,ISIC_0010034.JPG,6,ISIC_0014703.JPG,ISIC_0010034.JPG,false,1,keypress(m),500,382151.90000009537,382151.7999997139,377254.462,377268.2999997139,377271.09,382163.915,8,400,50,,ISIC_0014703.JPG
break,html.Screen,4_49_1,2023-09-13T15:52:38.347Z,,0,,,10003.016000000003,timeout,,,,,false,,,,392151.5,392150.143,382147.329,382152,382163.915,392166.931,8,400,,,
break_continue,html.Screen,4_49_2,2023-09-13T15:54:44.665Z,,0,,,126283.06900000002,response,,,,,false,continue,keypress(Space),,518467.09999990463,518450,392150.143,392151.69999980927,392166.931,518479.158,8,400,,,
sequence,flow.Sequence,4_49,2023-09-13T15:54:44.665Z,,0,,,141178.90999999997,completion,,,,,false,,,,518467.19999980927,518450,377254.462,377268.2999997139,377271.09,518479.158,8,400,,,
trial,html.Screen,4_50_0,2023-09-13T15:54:49.440Z,,0,2,,4762.742000095372,response,ISIC_0068627.JPG,5,ISIC_0028071.JPG,ISIC_0028071.JPG,false,0,keypress(z),500,523242,523241.90000009537,518462.516,518467.2999997139,518479.158,523255.155,8,400,1,,ISIC_0068627.JPG
break,html.Screen,4_50_1,2023-09-13T15:54:49.441Z,,0,,,NaN,,,,,,false,,,,523242.69999980927,523242.59999990463,,523242.19999980927,,523255.155,8,400,,,
break_continue,html.Screen,4_50_2,2023-09-13T15:54:49.441Z,,0,,,NaN,,,,,,false,,,,523243,523242.90000009537,,523242.7999997139,,523255.155,8,400,,,
sequence,flow.Sequence,4_50,2023-09-13T15:54:49.441Z,,0,,,4763.742000095372,completion,,,,,false,,,,523243.09999990463,523242.90000009537,518462.516,518467.2999997139,518479.158,523255.155,8,400,,,
trial,html.Screen,4_51_0,2023-09-13T15:54:54.851Z,,0,2,,5397.944999904605,response,ISIC_0024720.JPG,5,ISIC_5581297.JPG,ISIC_0024720.JPG,false,1,keypress(m),500,528653.1999998093,528653.0999999046,523238.474,523243.2999997139,523255.155,528665.715,8,400,2,,ISIC_5581297.JPG
break,html.Screen,4_51_1,2023-09-13T15:54:54.851Z,,0,,,NaN,,,,,,false,,,,528653.6999998093,528653.5999999046,,528653.2999997139,,528665.715,8,400,,,
break_continue,html.Screen,4_51_2,2023-09-13T15:54:54.852Z,,0,,,NaN,,,,,,false,,,,528653.7999997139,528653.6999998093,,528653.6999998093,,528665.715,8,400,,,
sequence,flow.Sequence,4_51,2023-09-13T15:54:54.852Z,,0,,,5398.544999809237,completion,,,,,false,,,,528653.9000000954,528653.6999998093,523238.474,523243.2999997139,523255.155,528665.715,8,400,,,
trial,html.Screen,4_52_0,2023-09-13T15:55:00.678Z,,0,2,,5814.884999904665,response,ISIC_0060403.JPG,5,ISIC_5247383.JPG,ISIC_0060403.JPG,false,1,keypress(m),500,534480.6999998093,534480.5999999046,528649.005,528653.9000000954,528665.715,534493.689,8,400,3,,ISIC_5247383.JPG
break,html.Screen,4_52_1,2023-09-13T15:55:00.679Z,,0,,,NaN,,,,,,false,,,,534481.1999998093,534481.0999999046,,534480.7999997139,,534493.689,8,400,,,
break_continue,html.Screen,4_52_2,2023-09-13T15:55:00.679Z,,0,,,NaN,,,,,,false,,,,534481.4000000954,534481.4000000954,,534481.2999997139,,534493.689,8,400,,,
sequence,flow.Sequence,4_52,2023-09-13T15:55:00.679Z,,0,,,5815.6850000954,completion,,,,,false,,,,534481.5,534481.4000000954,528649.005,528653.9000000954,528665.715,534493.689,8,400,,,
trial,html.Screen,4_53_0,2023-09-13T15:55:06.488Z,,0,2,,5796.510999809252,response,ISIC_3564136.JPG,4,ISIC_0659400.JPG,ISIC_0659400.JPG,false,0,keypress(z),500,540290.4000000954,540290.1999998093,534477.051,534481.5999999046,534493.689,540305.025,8,400,4,,ISIC_3564136.JPG
break,html.Screen,4_53_1,2023-09-13T15:55:06.489Z,,0,,,NaN,,,,,,false,,,,540290.9000000954,540290.6999998093,,540290.5,,540305.025,8,400,,,
break_continue,html.Screen,4_53_2,2023-09-13T15:55:06.489Z,,0,,,NaN,,,,,,false,,,,540291.1999998093,540291,,540291,,540305.025,8,400,,,
sequence,flow.Sequence,4_53,2023-09-13T15:55:06.489Z,,0,,,5797.310999999987,completion,,,,,false,,,,540291.2999997139,540291,534477.051,534481.5999999046,534493.689,540305.025,8,400,,,
trial,html.Screen,4_54_0,2023-09-13T15:55:11.355Z,,0,2,,4851.674999809242,response,ISIC_1046678.JPG,5,ISIC_1265755.JPG,ISIC_1046678.JPG,false,1,keypress(m),500,545156.7999997139,545156.6999998093,540288.278,540291.2999997139,540305.025,545164.497,8,400,5,,ISIC_1265755.JPG
break,html.Screen,4_54_1,2023-09-13T15:55:11.355Z,,0,,,NaN,,,,,,false,,,,545157.4000000954,545157.1999998093,,545157,,545164.497,8,400,,,
break_continue,html.Screen,4_54_2,2023-09-13T15:55:11.355Z,,0,,,NaN,,,,,,false,,,,545157.5999999046,545157.5,,545157.4000000954,,545164.497,8,400,,,
sequence,flow.Sequence,4_54,2023-09-13T15:55:11.355Z,,0,,,4852.474999999977,completion,,,,,false,,,,545157.5999999046,545157.5,540288.278,540291.2999997139,540305.025,545164.497,8,400,,,
trial,html.Screen,4_55_0,2023-09-13T15:55:15.552Z,,0,2,,4187.4030000953935,response,ISIC_0066101.JPG,5,ISIC_0894785.JPG,ISIC_0894785.JPG,false,0,keypress(z),500,549352,549351.9000000954,545147.747,545157.6999998093,545164.497,549355.92,8,400,6,,ISIC_0066101.JPG
break,html.Screen,4_55_1,2023-09-13T15:55:15.552Z,,0,,,NaN,,,,,,false,,,,549352.4000000954,549352.2999997139,,549352.0999999046,,549355.92,8,400,,,
break_continue,html.Screen,4_55_2,2023-09-13T15:55:15.552Z,,0,,,NaN,,,,,,false,,,,549352.5999999046,549352.5,,549352.5,,549355.92,8,400,,,
sequence,flow.Sequence,4_55,2023-09-13T15:55:15.552Z,,0,,,4188.003000000026,completion,,,,,false,,,,549352.5999999046,549352.5,545147.747,545157.6999998093,545164.497,549355.92,8,400,,,
trial,html.Screen,4_56_0,2023-09-13T15:55:20.994Z,,0,2,,5437.879999713856,response,ISIC_2622189.JPG,5,ISIC_9024078.JPG,ISIC_9024078.JPG,false,0,keypress(z),500,554793.9000000954,554793.7999997139,549339.27,549352.5999999046,549355.92,554799.865,8,400,7,,ISIC_2622189.JPG
break,html.Screen,4_56_1,2023-09-13T15:55:20.994Z,,0,,,NaN,,,,,,false,,,,554794.2999997139,554794.1999998093,,554794,,554799.865,8,400,,,
break_continue,html.Screen,4_56_2,2023-09-13T15:55:20.994Z,,0,,,NaN,,,,,,false,,,,554794.5,554794.4000000954,,554794.4000000954,,554799.865,8,400,,,
sequence,flow.Sequence,4_56,2023-09-13T15:55:20.994Z,,0,,,5438.4800000953255,completion,,,,,false,,,,554794.5999999046,554794.4000000954,549339.27,549352.5999999046,549355.92,554799.865,8,400,,,
trial,html.Screen,4_57_0,2023-09-13T15:55:26.329Z,,0,2,,5329.434999713907,response,ISIC_0693902.JPG,5,ISIC_2860618.JPG,ISIC_0693902.JPG,false,1,keypress(m),500,560129.5,560129.2999997139,554783.199,554794.5999999046,554799.865,560143.787,8,400,8,,ISIC_2860618.JPG
break,html.Screen,4_57_1,2023-09-13T15:55:26.330Z,,0,,,NaN,,,,,,false,,,,560130.4000000954,560130,,560129.6999998093,,560143.787,8,400,,,
break_continue,html.Screen,4_57_2,2023-09-13T15:55:26.331Z,,0,,,NaN,,,,,,false,,,,560130.9000000954,560130.6999998093,,560130.5999999046,,560143.787,8,400,,,
sequence,flow.Sequence,4_57,2023-09-13T15:55:26.331Z,,0,,,5330.834999809274,completion,,,,,false,,,,560130.9000000954,560130.6999998093,554783.199,554794.5999999046,554799.865,560143.787,8,400,,,
trial,html.Screen,4_58_0,2023-09-13T15:55:31.549Z,,0,2,,5205.113000095356,response,ISIC_0031550.JPG,5,ISIC_0061085.JPG,ISIC_0061085.JPG,false,0,keypress(z),500,565349,565348.9000000954,560126.963,560131.0999999046,560143.787,565353.758,8,400,9,,ISIC_0031550.JPG
break,html.Screen,4_58_1,2023-09-13T15:55:31.549Z,,0,,,NaN,,,,,,false,,,,565349.4000000954,565349.2999997139,,565349,,565353.758,8,400,,,
break_continue,html.Screen,4_58_2,2023-09-13T15:55:31.549Z,,0,,,NaN,,,,,,false,,,,565349.5999999046,565349.5,,565349.5,,565353.758,8,400,,,
sequence,flow.Sequence,4_58,2023-09-13T15:55:31.549Z,,0,,,5205.712999999989,completion,,,,,false,,,,565349.6999998093,565349.5,560126.963,560131.0999999046,560143.787,565353.758,8,400,,,
trial,html.Screen,4_59_0,2023-09-13T15:55:35.776Z,,0,2,,4222.241999999969,response,ISIC_2562668.JPG,4,ISIC_0001152.JPG,ISIC_2562668.JPG,false,1,keypress(m),500,569576.1999998093,569576,565337.054,565349.6999998093,565353.758,569578.639,8,400,10,,ISIC_0001152.JPG
break,html.Screen,4_59_1,2023-09-13T15:55:35.777Z,,0,,,NaN,,,,,,false,,,,569576.7999997139,569576.5999999046,,569576.4000000954,,569578.639,8,400,,,
break_continue,html.Screen,4_59_2,2023-09-13T15:55:35.777Z,,0,,,NaN,,,,,,false,,,,569577.1999998093,569577,,569577,,569578.639,8,400,,,
sequence,flow.Sequence,4_59,2023-09-13T15:55:35.777Z,,0,,,4223.241999999969,completion,,,,,false,,,,569577.2999997139,569577,565337.054,565349.6999998093,565353.758,569578.639,8,400,,,
trial,html.Screen,4_60_0,2023-09-13T15:55:41.747Z,,0,2,,5968.660999713931,response,ISIC_0057821.JPG,4,ISIC_0034187.JPG,ISIC_0034187.JPG,false,0,keypress(z),500,575547.5,575547.2999997139,569561.976,569577.4000000954,569578.639,575557.018,8,400,11,,ISIC_0057821.JPG
break,html.Screen,4_60_1,2023-09-13T15:55:41.748Z,,0,,,NaN,,,,,,false,,,,575548.5,575548.1999998093,,575547.6999998093,,575557.018,8,400,,,
break_continue,html.Screen,4_60_2,2023-09-13T15:55:41.749Z,,0,,,NaN,,,,,,false,,,,575548.9000000954,575548.6999998093,,575548.5999999046,,575557.018,8,400,,,
sequence,flow.Sequence,4_60,2023-09-13T15:55:41.749Z,,0,,,5970.060999809299,completion,,,,,false,,,,575549,575548.6999998093,569561.976,569577.2999997139,569578.639,575557.018,8,400,,,
trial,html.Screen,4_61_0,2023-09-13T15:55:46.471Z,,0,2,,4713.98199999996,response,ISIC_0011344.JPG,4,ISIC_0013073.JPG,ISIC_0011344.JPG,false,1,keypress(m),500,580271.1999998093,580271,575540.346,575549.0999999046,575557.018,580282.75,8,400,12,,ISIC_0013073.JPG
break,html.Screen,4_61_1,2023-09-13T15:55:46.471Z,,0,,,NaN,,,,,,false,,,,580271.5999999046,580271.5,,580271.1999998093,,580282.75,8,400,,,
break_continue,html.Screen,4_61_2,2023-09-13T15:55:46.472Z,,0,,,NaN,,,,,,false,,,,580271.9000000954,580271.7999997139,,580271.6999998093,,580282.75,8,400,,,
sequence,flow.Sequence,4_61,2023-09-13T15:55:46.472Z,,0,,,4714.781999713858,completion,,,,,false,,,,580271.9000000954,580271.7999997139,575540.346,575549.0999999046,575557.018,580282.75,8,400,,,
trial,html.Screen,4_62_0,2023-09-13T15:55:51.594Z,,0,2,,5111.549999713898,response,ISIC_6324832.JPG,5,ISIC_9134566.JPG,ISIC_6324832.JPG,false,1,keypress(m),500,585394.4000000954,585394.2999997139,580266.208,580272.0999999046,580282.75,585426.177,8,400,13,,ISIC_9134566.JPG
break,html.Screen,4_62_1,2023-09-13T15:55:51.595Z,,0,,,NaN,,,,,,false,,,,585394.7999997139,585394.6999998093,,585394.5999999046,,585426.177,8,400,,,
break_continue,html.Screen,4_62_2,2023-09-13T15:55:51.595Z,,0,,,NaN,,,,,,false,,,,585395,585395,,585394.7999997139,,585426.177,8,400,,,
sequence,flow.Sequence,4_62,2023-09-13T15:55:51.595Z,,0,,,5112.25,completion,,,,,false,,,,585395.0999999046,585395,580266.208,580272,580282.75,585426.177,8,400,,,
trial,html.Screen,4_63_0,2023-09-13T15:55:56.419Z,,0,2,,4792.622999713873,response,ISIC_0033027.JPG,5,ISIC_0031843.JPG,ISIC_0031843.JPG,false,0,keypress(z),500,590218.9000000954,590218.7999997139,585410.57,585395.0999999046,585426.177,590235.598,8,400,14,,ISIC_0033027.JPG
break,html.Screen,4_63_1,2023-09-13T15:55:56.419Z,,0,,,NaN,,,,,,false,,,,590219.5,590219.4000000954,,590219.1999998093,,590235.598,8,400,,,
break_continue,html.Screen,4_63_2,2023-09-13T15:55:56.420Z,,0,,,NaN,,,,,,false,,,,590219.9000000954,590219.7999997139,,590219.6999998093,,590235.598,8,400,,,
sequence,flow.Sequence,4_63,2023-09-13T15:55:56.420Z,,0,,,4793.622999713873,completion,,,,,false,,,,590219.9000000954,590219.7999997139,585410.57,585395.0999999046,585426.177,590235.598,8,400,,,
trial,html.Screen,4_64_0,2023-09-13T15:56:02.441Z,,0,2,,6004.802000095369,response,ISIC_0081584.JPG,5,ISIC_9978498.JPG,ISIC_0081584.JPG,false,1,keypress(m),500,596240.9000000954,596240.4000000954,590218.904,590220,590235.598,596247.33,8,400,15,,ISIC_9978498.JPG
break,html.Screen,4_64_1,2023-09-13T15:56:02.443Z,,0,,,NaN,,,,,,false,,,,596243.0999999046,596242.2999997139,,596241.2999997139,,596247.33,8,400,,,
break_continue,html.Screen,4_64_2,2023-09-13T15:56:02.444Z,,0,,,NaN,,,,,,false,,,,596243.9000000954,596243.6999998093,,596243.4000000954,,596247.33,8,400,,,
sequence,flow.Sequence,4_64,2023-09-13T15:56:02.444Z,,0,,,6008.101999809267,completion,,,,,false,,,,596244.1999998093,596243.6999998093,590218.904,590220,590235.598,596247.33,8,400,,,
trial,html.Screen,4_65_0,2023-09-13T15:56:07.598Z,,0,2,,5151.170000000042,response,ISIC_0033279.JPG,5,ISIC_0068259.JPG,ISIC_0068259.JPG,false,0,keypress(z),500,601398.5999999046,601398.5,596230.685,596244.5,596247.33,601407.328,8,400,16,,ISIC_0033279.JPG
break,html.Screen,4_65_1,2023-09-13T15:56:07.599Z,,0,,,NaN,,,,,,false,,,,601399.2999997139,601399.0999999046,,601398.7999997139,,601407.328,8,400,,,
break_continue,html.Screen,4_65_2,2023-09-13T15:56:07.599Z,,0,,,NaN,,,,,,false,,,,601399.6999998093,601399.5999999046,,601399.4000000954,,601407.328,8,400,,,
sequence,flow.Sequence,4_65,2023-09-13T15:56:07.600Z,,0,,,5152.2699999046745,completion,,,,,false,,,,601399.6999998093,601399.5999999046,596230.685,596244.5,596247.33,601407.328,8,400,,,
trial,html.Screen,4_66_0,2023-09-13T15:56:12.546Z,,0,2,,4939.072000095388,response,ISIC_9116323.JPG,5,ISIC_0034239.JPG,ISIC_9116323.JPG,false,1,keypress(m),500,606346.5999999046,606346.4000000954,601390.596,601399.9000000954,601407.328,606350.219,8,400,17,,ISIC_0034239.JPG
break,html.Screen,4_66_1,2023-09-13T15:56:12.547Z,,0,,,NaN,,,,,,false,,,,606347.0999999046,606346.7999997139,,606346.5999999046,,606350.219,8,400,,,
break_continue,html.Screen,4_66_2,2023-09-13T15:56:12.547Z,,0,,,NaN,,,,,,false,,,,606347.5,606347.4000000954,,606347.2999997139,,606350.219,8,400,,,
sequence,flow.Sequence,4_66,2023-09-13T15:56:12.547Z,,0,,,4940.072000095388,completion,,,,,false,,,,606347.5999999046,606347.4000000954,601390.596,601399.7999997139,601407.328,606350.219,8,400,,,
trial,html.Screen,4_67_0,2023-09-13T15:56:18.221Z,,0,2,,5669.681000095326,response,ISIC_0009441.JPG,6,ISIC_0027666.JPG,ISIC_0009441.JPG,false,1,keypress(m),500,612020.1999998093,612019.9000000954,606333.508,606347.5999999046,606350.219,612027.908,8,400,18,,ISIC_0027666.JPG
break,html.Screen,4_67_1,2023-09-13T15:56:18.222Z,,0,,,NaN,,,,,,false,,,,612021.0999999046,612020.9000000954,,612020.4000000954,,612027.908,8,400,,,
break_continue,html.Screen,4_67_2,2023-09-13T15:56:18.223Z,,0,,,NaN,,,,,,false,,,,612021.2999997139,612021.2999997139,,612021.1999998093,,612027.908,8,400,,,
sequence,flow.Sequence,4_67,2023-09-13T15:56:18.223Z,,0,,,5671.080999713857,completion,,,,,false,,,,612021.5,612021.2999997139,606333.508,606347.5999999046,606350.219,612027.908,8,400,,,
trial,html.Screen,4_68_0,2023-09-13T15:56:23.952Z,,0,2,,5723.191999904579,response,ISIC_0031550.JPG,5,ISIC_0027030.JPG,ISIC_0031550.JPG,false,1,keypress(m),500,617751.1999998093,617751.0999999046,612011.384,612021.5999999046,612027.908,617755.735,8,400,19,,ISIC_0027030.JPG
break,html.Screen,4_68_1,2023-09-13T15:56:23.953Z,,0,,,NaN,,,,,,false,,,,617751.5999999046,617751.5,,617751.1999998093,,617755.735,8,400,,,
break_continue,html.Screen,4_68_2,2023-09-13T15:56:23.953Z,,0,,,NaN,,,,,,false,,,,617751.7999997139,617751.6999998093,,617751.5999999046,,617755.735,8,400,,,
sequence,flow.Sequence,4_68,2023-09-13T15:56:23.953Z,,0,,,5723.791999809211,completion,,,,,false,,,,617751.9000000954,617751.6999998093,612011.384,612021.5,612027.908,617755.735,8,400,,,
trial,html.Screen,4_69_0,2023-09-13T15:56:28.867Z,,0,2,,4909.964999809279,response,ISIC_0013311.JPG,5,ISIC_7152347.JPG,ISIC_0013311.JPG,false,1,keypress(m),500,622665.7999997139,622665.6999998093,617739.2,617751.9000000954,617755.735,622681.941,8,400,20,,ISIC_7152347.JPG
break,html.Screen,4_69_1,2023-09-13T15:56:28.867Z,,0,,,NaN,,,,,,false,,,,622666.1999998093,622666.0999999046,,622665.9000000954,,622681.941,8,400,,,
break_continue,html.Screen,4_69_2,2023-09-13T15:56:28.868Z,,0,,,NaN,,,,,,false,,,,622666.2999997139,622666.2999997139,,622666.1999998093,,622681.941,8,400,,,
sequence,flow.Sequence,4_69,2023-09-13T15:56:28.868Z,,0,,,4910.564999713912,completion,,,,,false,,,,622666.4000000954,622666.2999997139,617739.2,617751.9000000954,617755.735,622681.941,8,400,,,
trial,html.Screen,4_70_0,2023-09-13T15:56:33.365Z,,0,2,,4481.858999713906,response,ISIC_0565743.JPG,5,ISIC_0070074.JPG,ISIC_0565743.JPG,false,1,keypress(m),500,627164.0999999046,627163.7999997139,622665.387,622666.4000000954,622681.941,627174.115,8,400,21,,ISIC_0070074.JPG
break,html.Screen,4_70_1,2023-09-13T15:56:33.367Z,,0,,,NaN,,,,,,false,,,,627165.5,627165.0999999046,,627164.5,,627174.115,8,400,,,
break_continue,html.Screen,4_70_2,2023-09-13T15:56:33.367Z,,0,,,NaN,,,,,,false,,,,627166.0999999046,627166,,627165.6999998093,,627174.115,8,400,,,
sequence,flow.Sequence,4_70,2023-09-13T15:56:33.368Z,,0,,,4484.059000000008,completion,,,,,false,,,,627166.5,627166,622665.387,622666.4000000954,622681.941,627174.115,8,400,,,
trial,html.Screen,4_71_0,2023-09-13T15:56:39.887Z,,0,2,,6511.385000000009,response,ISIC_1654318.JPG,6,ISIC_0006727.JPG,ISIC_0006727.JPG,false,0,keypress(z),500,633685.5999999046,633685.5,627157.535,627166.6999998093,627174.115,633686.755,8,400,22,,ISIC_1654318.JPG
break,html.Screen,4_71_1,2023-09-13T15:56:39.887Z,,0,,,NaN,,,,,,false,,,,633686.1999998093,633685.9000000954,,633685.7999997139,,633686.755,8,400,,,
break_continue,html.Screen,4_71_2,2023-09-13T15:56:39.888Z,,0,,,NaN,,,,,,false,,,,633686.4000000954,633686.4000000954,,633686.1999998093,,633686.755,8,400,,,
sequence,flow.Sequence,4_71,2023-09-13T15:56:39.888Z,,0,,,6512.285000095377,completion,,,,,false,,,,633686.5,633686.4000000954,627157.535,627166.5999999046,627174.115,633686.755,8,400,,,
trial,html.Screen,4_72_0,2023-09-13T15:56:45.289Z,,0,2,,5400.344999904628,response,ISIC_0028930.JPG,6,ISIC_9308275.JPG,ISIC_9308275.JPG,false,0,keypress(z),500,639087.2999997139,639087.0999999046,633670.126,633686.5999999046,633686.755,639097.265,8,400,23,,ISIC_0028930.JPG
break,html.Screen,4_72_1,2023-09-13T15:56:45.289Z,,0,,,NaN,,,,,,false,,,,639087.6999998093,639087.5,,639087.2999997139,,639097.265,8,400,,,
break_continue,html.Screen,4_72_2,2023-09-13T15:56:45.289Z,,0,,,NaN,,,,,,false,,,,639087.9000000954,639087.9000000954,,639087.6999998093,,639097.265,8,400,,,
sequence,flow.Sequence,4_72,2023-09-13T15:56:45.289Z,,0,,,5401.145000095363,completion,,,,,false,,,,639088,639087.9000000954,633670.126,633686.5999999046,633686.755,639097.265,8,400,,,
trial,html.Screen,4_73_0,2023-09-13T15:56:50.267Z,,0,2,,4968.334999904619,response,ISIC_3452564.JPG,5,ISIC_0063181.JPG,ISIC_0063181.JPG,false,0,keypress(z),500,644065.7999997139,644065.5999999046,639080.744,639088,639097.265,644073.632,8,400,24,,ISIC_3452564.JPG
break,html.Screen,4_73_1,2023-09-13T15:56:50.268Z,,0,,,NaN,,,,,,false,,,,644066.4000000954,644066.0999999046,,644065.7999997139,,644073.632,8,400,,,
break_continue,html.Screen,4_73_2,2023-09-13T15:56:50.268Z,,0,,,NaN,,,,,,false,,,,644066.5999999046,644066.5999999046,,644066.4000000954,,644073.632,8,400,,,
sequence,flow.Sequence,4_73,2023-09-13T15:56:50.268Z,,0,,,4969.334999904619,completion,,,,,false,,,,644066.6999998093,644066.5999999046,639080.744,639088,639097.265,644073.632,8,400,,,
trial,html.Screen,4_74_0,2023-09-13T15:56:57.762Z,,0,2,,7486.467999904649,response,ISIC_0054874.JPG,6,ISIC_0033392.JPG,ISIC_0054874.JPG,false,1,keypress(m),500,651560.2999997139,651560.0999999046,644056.865,644066.6999998093,644073.632,651571.533,8,400,25,,ISIC_0033392.JPG
break,html.Screen,4_74_1,2023-09-13T15:56:57.762Z,,0,,,NaN,,,,,,false,,,,651560.7999997139,651560.5999999046,,651560.4000000954,,651571.533,8,400,,,
break_continue,html.Screen,4_74_2,2023-09-13T15:56:57.762Z,,0,,,NaN,,,,,,false,,,,651561.1999998093,651561.0999999046,,651561,,651571.533,8,400,,,
sequence,flow.Sequence,4_74,2023-09-13T15:56:57.763Z,,0,,,7487.467999904649,completion,,,,,false,,,,651561.1999998093,651561.0999999046,644056.865,644066.6999998093,644073.632,651571.533,8,400,,,
trial,html.Screen,4_75_0,2023-09-13T15:57:02.618Z,,0,2,,4845.367000095313,response,ISIC_0033424.JPG,5,ISIC_0694677.JPG,ISIC_0694677.JPG,false,0,keypress(z),500,656417.0999999046,656416.9000000954,651554.873,651561.2999997139,651571.533,656431.041,8,400,26,,ISIC_0033424.JPG
break,html.Screen,4_75_1,2023-09-13T15:57:02.619Z,,0,,,NaN,,,,,,false,,,,656417.5999999046,656417.4000000954,,656417.0999999046,,656431.041,8,400,,,
break_continue,html.Screen,4_75_2,2023-09-13T15:57:02.619Z,,0,,,NaN,,,,,,false,,,,656417.7999997139,656417.7999997139,,656417.6999998093,,656431.041,8,400,,,
sequence,flow.Sequence,4_75,2023-09-13T15:57:02.619Z,,0,,,4846.266999713844,completion,,,,,false,,,,656417.9000000954,656417.7999997139,651554.873,651561.2999997139,651571.533,656431.041,8,400,,,
trial,html.Screen,4_76_0,2023-09-13T15:57:07.053Z,,0,2,,4420.758999713929,response,ISIC_2033237.JPG,4,ISIC_9482039.JPG,ISIC_9482039.JPG,false,0,keypress(z),500,660851.9000000954,660851.7999997139,656414.466,656418,656431.041,660856.252,8,400,27,,ISIC_2033237.JPG
break,html.Screen,4_76_1,2023-09-13T15:57:07.054Z,,0,,,NaN,,,,,,false,,,,660852.4000000954,660852.2999997139,,660852,,660856.252,8,400,,,
break_continue,html.Screen,4_76_2,2023-09-13T15:57:07.054Z,,0,,,NaN,,,,,,false,,,,660852.5,660852.5,,660852.5,,660856.252,8,400,,,
sequence,flow.Sequence,4_76,2023-09-13T15:57:07.054Z,,0,,,4421.459000000032,completion,,,,,false,,,,660852.6999998093,660852.5,656414.466,656418,656431.041,660856.252,8,400,,,
trial,html.Screen,4_77_0,2023-09-13T15:57:15.090Z,,0,2,,8030.947999809287,response,ISIC_0056425.JPG,5,ISIC_6250970.JPG,ISIC_0056425.JPG,false,1,keypress(m),500,668887.1999998093,668887.1999998093,660839.653,660852.6999998093,660856.252,668888.571,8,400,28,,ISIC_6250970.JPG
break,html.Screen,4_77_1,2023-09-13T15:57:15.090Z,,0,,,NaN,,,,,,false,,,,668887.6999998093,668887.5999999046,,668887.4000000954,,668888.571,8,400,,,
break_continue,html.Screen,4_77_2,2023-09-13T15:57:15.091Z,,0,,,NaN,,,,,,false,,,,668887.7999997139,668887.7999997139,,668887.6999998093,,668888.571,8,400,,,
sequence,flow.Sequence,4_77,2023-09-13T15:57:15.091Z,,0,,,8031.547999713919,completion,,,,,false,,,,668888,668887.7999997139,660839.653,660852.6999998093,660856.252,668888.571,8,400,,,
trial,html.Screen,4_78_0,2023-09-13T15:57:20.042Z,,0,2,,4950.228999713901,response,ISIC_2532039.JPG,6,ISIC_0014925.JPG,ISIC_2532039.JPG,false,1,keypress(m),500,673839,673838.7999997139,668871.831,668888.0999999046,668888.571,673848.253,8,400,29,,ISIC_0014925.JPG
break,html.Screen,4_78_1,2023-09-13T15:57:20.043Z,,0,,,NaN,,,,,,false,,,,673840,673839.5999999046,,673839.1999998093,,673848.253,8,400,,,
break_continue,html.Screen,4_78_2,2023-09-13T15:57:20.043Z,,0,,,NaN,,,,,,false,,,,673840.4000000954,673840.1999998093,,673840.0999999046,,673848.253,8,400,,,
sequence,flow.Sequence,4_78,2023-09-13T15:57:20.043Z,,0,,,4951.628999809269,completion,,,,,false,,,,673840.5,673840.1999998093,668871.831,668888.0999999046,668888.571,673848.253,8,400,,,
trial,html.Screen,4_79_0,2023-09-13T15:57:24.208Z,,0,2,,4156.946999809239,response,ISIC_4502605.JPG,5,ISIC_0071434.JPG,ISIC_4502605.JPG,false,1,keypress(m),500,678005.2999997139,678005.1999998093,673831.695,673840.7999997139,673848.253,678006.316,8,400,30,,ISIC_0071434.JPG
break,html.Screen,4_79_1,2023-09-13T15:57:24.209Z,,0,,,NaN,,,,,,false,,,,678005.7999997139,678005.5999999046,,678005.4000000954,,678006.316,8,400,,,
break_continue,html.Screen,4_79_2,2023-09-13T15:57:24.209Z,,0,,,NaN,,,,,,false,,,,678006,678005.9000000954,,678005.7999997139,,678006.316,8,400,,,
sequence,flow.Sequence,4_79,2023-09-13T15:57:24.209Z,,0,,,4157.647000095341,completion,,,,,false,,,,678006,678005.9000000954,673831.695,673840.6999998093,673848.253,678006.316,8,400,,,
trial,html.Screen,4_80_0,2023-09-13T15:57:29.460Z,,0,2,,5250.983999713906,response,ISIC_3067885.JPG,5,ISIC_4069836.JPG,ISIC_4069836.JPG,false,0,keypress(z),500,683257.4000000954,683257.2999997139,677989.853,678006.0999999046,678006.316,683266.573,8,400,31,,ISIC_3067885.JPG
break,html.Screen,4_80_1,2023-09-13T15:57:29.461Z,,0,,,NaN,,,,,,false,,,,683258.0999999046,683257.9000000954,,683257.5,,683266.573,8,400,,,
break_continue,html.Screen,4_80_2,2023-09-13T15:57:29.461Z,,0,,,NaN,,,,,,false,,,,683258.2999997139,683258.1999998093,,683258.0999999046,,683266.573,8,400,,,
sequence,flow.Sequence,4_80,2023-09-13T15:57:29.461Z,,0,,,5251.8839998092735,completion,,,,,false,,,,683258.4000000954,683258.1999998093,677989.853,678006.0999999046,678006.316,683266.573,8,400,,,
trial,html.Screen,4_81_0,2023-09-13T15:57:33.463Z,,0,2,,3993.6269998092903,response,ISIC_3495799.JPG,5,ISIC_8319768.JPG,ISIC_3495799.JPG,false,1,keypress(m),500,687260.5,687260.1999998093,683249.861,683258.5,683266.573,687274.357,8,400,32,,ISIC_8319768.JPG
break,html.Screen,4_81_1,2023-09-13T15:57:33.465Z,,0,,,NaN,,,,,,false,,,,687262,687261.5,,687260.6999998093,,687274.357,8,400,,,
break_continue,html.Screen,4_81_2,2023-09-13T15:57:33.466Z,,0,,,NaN,,,,,,false,,,,687262.7999997139,687262.5999999046,,687262.1999998093,,687274.357,8,400,,,
sequence,flow.Sequence,4_81,2023-09-13T15:57:33.466Z,,0,,,3996.0269999046577,completion,,,,,false,,,,687263.1999998093,687262.5999999046,683249.861,683258.5,683266.573,687274.357,8,400,,,
trial,html.Screen,4_82_0,2023-09-13T15:57:38.626Z,,0,2,,5148.842999809305,response,ISIC_0011750.JPG,6,ISIC_0009958.JPG,ISIC_0009958.JPG,false,0,keypress(z),500,692423.4000000954,692423.1999998093,687257.656,687263.5999999046,687274.357,692434.408,8,400,33,,ISIC_0011750.JPG
break,html.Screen,4_82_1,2023-09-13T15:57:38.627Z,,0,,,NaN,,,,,,false,,,,692423.7999997139,692423.6999998093,,692423.4000000954,,692434.408,8,400,,,
break_continue,html.Screen,4_82_2,2023-09-13T15:57:38.627Z,,0,,,NaN,,,,,,false,,,,692424,692424,,692423.9000000954,,692434.408,8,400,,,
sequence,flow.Sequence,4_82,2023-09-13T15:57:38.627Z,,0,,,5149.64300000004,completion,,,,,false,,,,692424.0999999046,692424,687257.656,687263.4000000954,687274.357,692434.408,8,400,,,
trial,html.Screen,4_83_0,2023-09-13T15:57:43.493Z,,0,2,,4855.391999713844,response,ISIC_7984080.JPG,5,ISIC_4084359.JPG,ISIC_4084359.JPG,false,0,keypress(z),500,697289.9000000954,697289.7999997139,692417.656,692424.1999998093,692434.408,697293.839,8,400,34,,ISIC_7984080.JPG
break,html.Screen,4_83_1,2023-09-13T15:57:43.493Z,,0,,,NaN,,,,,,false,,,,697290.5999999046,697290.5,,697290.0999999046,,697293.839,8,400,,,
break_continue,html.Screen,4_83_2,2023-09-13T15:57:43.494Z,,0,,,NaN,,,,,,false,,,,697290.9000000954,697290.7999997139,,697290.6999998093,,697293.839,8,400,,,
sequence,flow.Sequence,4_83,2023-09-13T15:57:43.494Z,,0,,,4856.391999713844,completion,,,,,false,,,,697291,697290.7999997139,692417.656,692424.1999998093,692434.408,697293.839,8,400,,,
trial,html.Screen,4_84_0,2023-09-13T15:57:48.462Z,,0,2,,4965.660999999964,response,ISIC_3256887.JPG,5,ISIC_0033916.JPG,ISIC_0033916.JPG,false,0,keypress(z),500,702259.5999999046,702259.5,697277.308,697291,697293.839,702270.182,8,400,35,,ISIC_3256887.JPG
break,html.Screen,4_84_1,2023-09-13T15:57:48.463Z,,0,,,NaN,,,,,,false,,,,702260,702260,,702259.7999997139,,702270.182,8,400,,,
break_continue,html.Screen,4_84_2,2023-09-13T15:57:48.463Z,,0,,,NaN,,,,,,false,,,,702260.2999997139,702260.1999998093,,702260.0999999046,,702270.182,8,400,,,
sequence,flow.Sequence,4_84,2023-09-13T15:57:48.463Z,,0,,,4966.360999809229,completion,,,,,false,,,,702260.4000000954,702260.1999998093,697277.308,697291,697293.839,702270.182,8,400,,,
trial,html.Screen,4_85_0,2023-09-13T15:57:54.006Z,,0,2,,5533.017999809235,response,ISIC_0029729.JPG,5,ISIC_0082704.JPG,ISIC_0082704.JPG,false,0,keypress(z),500,707803.4000000954,707803.1999998093,702253.505,702260.5,702270.182,707830.972,8,400,36,,ISIC_0029729.JPG
break,html.Screen,4_85_1,2023-09-13T15:57:54.007Z,,0,,,NaN,,,,,,false,,,,707804.2999997139,707803.9000000954,,707803.5999999046,,707830.972,8,400,,,
break_continue,html.Screen,4_85_2,2023-09-13T15:57:54.008Z,,0,,,NaN,,,,,,false,,,,707805.0999999046,707804.7999997139,,707804.4000000954,,707830.972,8,400,,,
sequence,flow.Sequence,4_85,2023-09-13T15:57:54.008Z,,0,,,5534.617999713868,completion,,,,,false,,,,707805.2999997139,707804.7999997139,702253.505,702260.5,702270.182,707830.972,8,400,,,
trial,html.Screen,4_86_0,2023-09-13T15:58:00.221Z,,0,2,,6186.827999713947,response,ISIC_0024298.JPG,5,ISIC_1899683.JPG,ISIC_1899683.JPG,false,0,keypress(z),500,714017.9000000954,714017.7999997139,707814.312,707805.4000000954,707830.972,714026.439,8,400,37,,ISIC_0024298.JPG
break,html.Screen,4_86_1,2023-09-13T15:58:00.221Z,,0,,,NaN,,,,,,false,,,,714018.2999997139,714018.1999998093,,714017.9000000954,,714026.439,8,400,,,
break_continue,html.Screen,4_86_2,2023-09-13T15:58:00.221Z,,0,,,NaN,,,,,,false,,,,714018.4000000954,714018.4000000954,,714018.2999997139,,714026.439,8,400,,,
sequence,flow.Sequence,4_86,2023-09-13T15:58:00.221Z,,0,,,6187.428000095417,completion,,,,,false,,,,714018.5,714018.4000000954,707814.312,707805.4000000954,707830.972,714026.439,8,400,,,
trial,html.Screen,4_87_0,2023-09-13T15:58:07.767Z,,0,2,,7537.260999809252,response,ISIC_2612661.JPG,4,ISIC_0000121.JPG,ISIC_0000121.JPG,false,0,keypress(z),500,721563.9000000954,721563.6999998093,714009.783,714018.5999999046,714026.439,721574.508,8,400,38,,ISIC_2612661.JPG
break,html.Screen,4_87_1,2023-09-13T15:58:07.767Z,,0,,,NaN,,,,,,false,,,,721564.4000000954,721564.2999997139,,721564,,721574.508,8,400,,,
break_continue,html.Screen,4_87_2,2023-09-13T15:58:07.767Z,,0,,,NaN,,,,,,false,,,,721564.5,721564.5,,721564.4000000954,,721574.508,8,400,,,
sequence,flow.Sequence,4_87,2023-09-13T15:58:07.767Z,,0,,,7538.060999999987,completion,,,,,false,,,,721564.6999998093,721564.5,714009.783,714018.5999999046,714026.439,721574.508,8,400,,,
trial,html.Screen,4_88_0,2023-09-13T15:58:14.010Z,,0,2,,6231.691999809234,response,ISIC_0331389.JPG,5,ISIC_0068407.JPG,ISIC_0331389.JPG,false,1,keypress(m),500,727806.1999998093,727806.1999998093,721557.717,721564.6999998093,721574.508,727819.9,8,400,39,,ISIC_0068407.JPG
break,html.Screen,4_88_1,2023-09-13T15:58:14.010Z,,0,,,NaN,,,,,,false,,,,727806.7999997139,727806.5999999046,,727806.4000000954,,727819.9,8,400,,,
break_continue,html.Screen,4_88_2,2023-09-13T15:58:14.011Z,,0,,,NaN,,,,,,false,,,,727807.1999998093,727807,,727806.9000000954,,727819.9,8,400,,,
sequence,flow.Sequence,4_88,2023-09-13T15:58:14.011Z,,0,,,6232.491999999969,completion,,,,,false,,,,727807.1999998093,727807,721557.717,721564.6999998093,721574.508,727819.9,8,400,,,
trial,html.Screen,4_89_0,2023-09-13T15:58:20.349Z,,0,2,,6325.099999999977,response,ISIC_0257447.JPG,6,ISIC_0033603.JPG,ISIC_0033603.JPG,false,0,keypress(z),500,734145.1999998093,734145,727803.238,727807.2999997139,727819.9,734148.986,8,400,40,,ISIC_0257447.JPG
break,html.Screen,4_89_1,2023-09-13T15:58:20.350Z,,0,,,NaN,,,,,,false,,,,734146.7999997139,734146.2999997139,,734145.6999998093,,734148.986,8,400,,,
break_continue,html.Screen,4_89_2,2023-09-13T15:58:20.351Z,,0,,,NaN,,,,,,false,,,,734147.5999999046,734147.4000000954,,734147.0999999046,,734148.986,8,400,,,
sequence,flow.Sequence,4_89,2023-09-13T15:58:20.351Z,,0,,,6327.500000095344,completion,,,,,false,,,,734147.9000000954,734147.4000000954,727803.238,727807.1999998093,727819.9,734148.986,8,400,,,
trial,html.Screen,4_90_0,2023-09-13T15:58:27.205Z,,0,2,,6852.5139999999665,response,ISIC_0189694.JPG,5,ISIC_0066637.JPG,ISIC_0066637.JPG,false,0,keypress(z),500,741001.5999999046,741001.5,734132.284,734148.0999999046,734148.986,741012.237,8,400,41,,ISIC_0189694.JPG
break,html.Screen,4_90_1,2023-09-13T15:58:27.206Z,,0,,,NaN,,,,,,false,,,,741002,741001.9000000954,,741001.6999998093,,741012.237,8,400,,,
break_continue,html.Screen,4_90_2,2023-09-13T15:58:27.206Z,,0,,,NaN,,,,,,false,,,,741002.1999998093,741002.1999998093,,741002.0999999046,,741012.237,8,400,,,
sequence,flow.Sequence,4_90,2023-09-13T15:58:27.206Z,,0,,,6853.213999809232,completion,,,,,false,,,,741002.2999997139,741002.1999998093,734132.284,734148,734148.986,741012.237,8,400,,,
trial,html.Screen,4_91_0,2023-09-13T15:58:32.455Z,,0,2,,5238.9629998093005,response,ISIC_4368650.JPG,5,ISIC_9041897.JPG,ISIC_9041897.JPG,false,0,keypress(z),500,746251.2999997139,746251.1999998093,740995.573,741002.2999997139,741012.237,746255.759,8,400,42,,ISIC_4368650.JPG
break,html.Screen,4_91_1,2023-09-13T15:58:32.455Z,,0,,,NaN,,,,,,false,,,,746251.9000000954,746251.6999998093,,746251.5,,746255.759,8,400,,,
break_continue,html.Screen,4_91_2,2023-09-13T15:58:32.456Z,,0,,,NaN,,,,,,false,,,,746252,746252,,746251.9000000954,,746255.759,8,400,,,
sequence,flow.Sequence,4_91,2023-09-13T15:58:32.456Z,,0,,,5239.763000000035,completion,,,,,false,,,,746252.0999999046,746252,740995.573,741002.2999997139,741012.237,746255.759,8,400,,,
trial,html.Screen,4_92_0,2023-09-13T15:58:39.033Z,,0,2,,6573.940999809303,response,ISIC_7364041.JPG,5,ISIC_0010432.JPG,ISIC_0010432.JPG,false,0,keypress(z),500,752829.9000000954,752829.6999998093,746239.116,746252.1999998093,746255.759,752835.267,8,400,43,,ISIC_7364041.JPG
break,html.Screen,4_92_1,2023-09-13T15:58:39.034Z,,0,,,NaN,,,,,,false,,,,752830.5999999046,752830.4000000954,,752830,,752835.267,8,400,,,
break_continue,html.Screen,4_92_2,2023-09-13T15:58:39.034Z,,0,,,NaN,,,,,,false,,,,752830.6999998093,752830.6999998093,,752830.5999999046,,752835.267,8,400,,,
sequence,flow.Sequence,4_92,2023-09-13T15:58:39.034Z,,0,,,6574.940999809303,completion,,,,,false,,,,752830.7999997139,752830.6999998093,746239.116,746252.1999998093,746255.759,752835.267,8,400,,,
trial,html.Screen,4_93_0,2023-09-13T15:58:44.015Z,,0,2,,4975.932999809273,response,ISIC_1689678.JPG,5,ISIC_0030106.JPG,ISIC_1689678.JPG,false,1,keypress(m),500,757811.4000000954,757811.1999998093,752818.685,752830.9000000954,752835.267,757828.294,8,400,44,,ISIC_0030106.JPG
break,html.Screen,4_93_1,2023-09-13T15:58:44.016Z,,0,,,NaN,,,,,,false,,,,757812.2999997139,757812,,757811.5,,757828.294,8,400,,,
break_continue,html.Screen,4_93_2,2023-09-13T15:58:44.016Z,,0,,,NaN,,,,,,false,,,,757812.6999998093,757812.5,,757812.5,,757828.294,8,400,,,
sequence,flow.Sequence,4_93,2023-09-13T15:58:44.016Z,,0,,,4977.233000000007,completion,,,,,false,,,,757812.7999997139,757812.5,752818.685,752830.9000000954,752835.267,757828.294,8,400,,,
trial,html.Screen,4_94_0,2023-09-13T15:58:49.763Z,,0,2,,5730.805999904638,response,ISIC_6254731.JPG,6,ISIC_5897134.JPG,ISIC_6254731.JPG,false,1,keypress(m),500,763559.1999998093,763559.0999999046,757811.62,757812.9000000954,757828.294,763572.804,8,400,45,,ISIC_5897134.JPG
break,html.Screen,4_94_1,2023-09-13T15:58:49.763Z,,0,,,NaN,,,,,,false,,,,763559.7999997139,763559.5999999046,,763559.2999997139,,763572.804,8,400,,,
break_continue,html.Screen,4_94_2,2023-09-13T15:58:49.764Z,,0,,,NaN,,,,,,false,,,,763560,763559.9000000954,,763559.9000000954,,763572.804,8,400,,,
sequence,flow.Sequence,4_94,2023-09-13T15:58:49.764Z,,0,,,5731.606000095373,completion,,,,,false,,,,763560.0999999046,763559.9000000954,757811.62,757812.9000000954,757828.294,763572.804,8,400,,,
trial,html.Screen,4_95_0,2023-09-13T15:58:54.838Z,,0,2,,5061.495999713894,response,ISIC_4311777.JPG,5,ISIC_5586765.JPG,ISIC_5586765.JPG,false,0,keypress(z),500,768634.4000000954,768634.2999997139,763556.143,763560.0999999046,763572.804,768649.334,8,400,46,,ISIC_4311777.JPG
break,html.Screen,4_95_1,2023-09-13T15:58:54.838Z,,0,,,NaN,,,,,,false,,,,768634.9000000954,768634.7999997139,,768634.5,,768649.334,8,400,,,
break_continue,html.Screen,4_95_2,2023-09-13T15:58:54.839Z,,0,,,NaN,,,,,,false,,,,768635.0999999046,768635.0999999046,,768634.9000000954,,768649.334,8,400,,,
sequence,flow.Sequence,4_95,2023-09-13T15:58:54.839Z,,0,,,5062.295999904629,completion,,,,,false,,,,768635.1999998093,768635.0999999046,763556.143,763560.0999999046,763572.804,768649.334,8,400,,,
trial,html.Screen,4_96_0,2023-09-13T15:59:00.585Z,,0,2,,5731.965999713866,response,ISIC_6330529.JPG,5,ISIC_8837443.JPG,ISIC_8837443.JPG,false,0,keypress(z),500,774381.5,774381.2999997139,768632.67,768635.1999998093,768649.334,774393.861,8,400,47,,ISIC_6330529.JPG
break,html.Screen,4_96_1,2023-09-13T15:59:00.586Z,,0,,,NaN,,,,,,false,,,,774382,774381.7999997139,,774381.5,,774393.861,8,400,,,
break_continue,html.Screen,4_96_2,2023-09-13T15:59:00.586Z,,0,,,NaN,,,,,,false,,,,774382.4000000954,774382.2999997139,,774382.0999999046,,774393.861,8,400,,,
sequence,flow.Sequence,4_96,2023-09-13T15:59:00.586Z,,0,,,5732.965999713866,completion,,,,,false,,,,774382.5,774382.2999997139,768632.67,768635.1999998093,768649.334,774393.861,8,400,,,
trial,html.Screen,4_97_0,2023-09-13T15:59:06.700Z,,0,2,,6102.039000095334,response,ISIC_0059671.JPG,6,ISIC_0011526.JPG,ISIC_0011526.JPG,false,0,keypress(z),500,780495.9000000954,780495.9000000954,774377.138,774382.5,774393.861,780505.809,8,400,48,,ISIC_0059671.JPG
break,html.Screen,4_97_1,2023-09-13T15:59:06.700Z,,0,,,NaN,,,,,,false,,,,780496.4000000954,780496.2999997139,,780496.0999999046,,780505.809,8,400,,,
break_continue,html.Screen,4_97_2,2023-09-13T15:59:06.700Z,,0,,,NaN,,,,,,false,,,,780496.6999998093,780496.5999999046,,780496.5999999046,,780505.809,8,400,,,
sequence,flow.Sequence,4_97,2023-09-13T15:59:06.700Z,,0,,,6102.738999904599,completion,,,,,false,,,,780496.7999997139,780496.5999999046,774377.138,774382.5,774393.861,780505.809,8,400,,,
trial,html.Screen,4_98_0,2023-09-13T15:59:11.663Z,,0,2,,4953.990999713889,response,ISIC_9544832.JPG,6,ISIC_8274622.JPG,ISIC_8274622.JPG,false,0,keypress(z),500,785460,785459.7999997139,780489.062,780496.7999997139,780505.809,785465.395,8,400,49,,ISIC_9544832.JPG
break,html.Screen,4_98_1,2023-09-13T15:59:11.664Z,,0,,,NaN,,,,,,false,,,,785460.7999997139,785460.5,,785460.0999999046,,785465.395,8,400,,,
break_continue,html.Screen,4_98_2,2023-09-13T15:59:11.665Z,,0,,,NaN,,,,,,false,,,,785461,785461,,785460.9000000954,,785465.395,8,400,,,
sequence,flow.Sequence,4_98,2023-09-13T15:59:11.665Z,,0,,,4955.190999999992,completion,,,,,false,,,,785461.0999999046,785461,780489.062,780496.7999997139,780505.809,785465.395,8,400,,,
trial,html.Screen,4_99_0,2023-09-13T15:59:17.253Z,,0,2,,5582.204999904614,response,ISIC_0033224.JPG,7,ISIC_0033692.JPG,ISIC_0033692.JPG,false,0,keypress(z),500,791047.6999998093,791047.5999999046,785448.752,785461.1999998093,785465.395,791059.661,8,400,50,,ISIC_0033224.JPG
break,html.Screen,4_99_1,2023-09-13T15:59:27.252Z,,0,,,10002.886999999988,timeout,,,,,false,,,,801046.4000000954,801045.866,791042.911,791047.7999997139,791059.661,801062.548,8,400,,,
break_continue,html.Screen,4_99_2,2023-09-13T16:00:23.463Z,,0,,,56177.852000095416,response,,,,,false,continue,keypress(Space),,857255.5,857240.4000000954,801045.866,801046.5999999046,801062.548,857271.856,8,400,,,
sequence,flow.Sequence,4_99,2023-09-13T16:00:23.463Z,,0,,,71775.00500009535,completion,,,,,false,,,,857255.5999999046,857240.4000000954,785448.752,785461.1999998093,785465.395,857271.856,8,400,,,
trial,html.Screen,4_100_0,2023-09-13T16:00:29.736Z,,0,3,,6257.143999999971,response,ISIC_7147898.JPG,5,ISIC_0070246.JPG,ISIC_0070246.JPG,false,0,keypress(z),500,863529.1999998093,863529,857255.093,857255.6999998093,857271.856,863533.986,8,400,1,,ISIC_7147898.JPG
break,html.Screen,4_100_1,2023-09-13T16:00:29.737Z,,0,,,NaN,,,,,,false,,,,863529.5999999046,863529.5,,863529.1999998093,,863533.986,8,400,,,
break_continue,html.Screen,4_100_2,2023-09-13T16:00:29.737Z,,0,,,NaN,,,,,,false,,,,863529.9000000954,863529.7999997139,,863529.6999998093,,863533.986,8,400,,,
sequence,flow.Sequence,4_100,2023-09-13T16:00:29.737Z,,0,,,6257.943999713869,completion,,,,,false,,,,863529.9000000954,863529.7999997139,857255.093,857255.6999998093,857271.856,863533.986,8,400,,,
trial,html.Screen,4_101_0,2023-09-13T16:00:36.160Z,,0,3,,6418.914000095334,response,ISIC_0014826.JPG,5,ISIC_0031883.JPG,ISIC_0031883.JPG,false,0,keypress(z),500,869953,869952.9000000954,863517.449,863530.0999999046,863533.986,869963.229,8,400,2,,ISIC_0014826.JPG
break,html.Screen,4_101_1,2023-09-13T16:00:36.161Z,,0,,,NaN,,,,,,false,,,,869953.5999999046,869953.5,,869953.1999998093,,869963.229,8,400,,,
break_continue,html.Screen,4_101_2,2023-09-13T16:00:36.161Z,,0,,,NaN,,,,,,false,,,,869953.9000000954,869953.7999997139,,869953.6999998093,,869963.229,8,400,,,
sequence,flow.Sequence,4_101,2023-09-13T16:00:36.161Z,,0,,,6419.813999713864,completion,,,,,false,,,,869954,869953.7999997139,863517.449,863530.0999999046,863533.986,869963.229,8,400,,,
trial,html.Screen,4_102_0,2023-09-13T16:00:42.306Z,,0,3,,6135.870999904582,response,ISIC_0027263.JPG,4,ISIC_9498448.JPG,ISIC_9498448.JPG,false,0,keypress(z),500,876099.1999998093,876099.0999999046,869946.573,869954.0999999046,869963.229,876108.527,8,400,3,,ISIC_0027263.JPG
break,html.Screen,4_102_1,2023-09-13T16:00:42.307Z,,0,,,NaN,,,,,,false,,,,876099.6999998093,876099.5999999046,,876099.2999997139,,876108.527,8,400,,,
break_continue,html.Screen,4_102_2,2023-09-13T16:00:42.307Z,,0,,,NaN,,,,,,false,,,,876099.9000000954,876099.9000000954,,876099.7999997139,,876108.527,8,400,,,
sequence,flow.Sequence,4_102,2023-09-13T16:00:42.307Z,,0,,,6136.671000095317,completion,,,,,false,,,,876100.0999999046,876099.9000000954,869946.573,869954.0999999046,869963.229,876108.527,8,400,,,
trial,html.Screen,4_103_0,2023-09-13T16:00:48.764Z,,0,3,,6448.172999809263,response,ISIC_0057067.JPG,4,ISIC_3503302.JPG,ISIC_3503302.JPG,false,0,keypress(z),500,882556.7999997139,882556.6999998093,876091.829,876100.1999998093,876108.527,882571.078,8,400,4,,ISIC_0057067.JPG
break,html.Screen,4_103_1,2023-09-13T16:00:48.764Z,,0,,,NaN,,,,,,false,,,,882557.1999998093,882557.0999999046,,882556.9000000954,,882571.078,8,400,,,
break_continue,html.Screen,4_103_2,2023-09-13T16:00:48.765Z,,0,,,NaN,,,,,,false,,,,882557.4000000954,882557.2999997139,,882557.1999998093,,882571.078,8,400,,,
sequence,flow.Sequence,4_103,2023-09-13T16:00:48.765Z,,0,,,6448.772999713896,completion,,,,,false,,,,882557.4000000954,882557.2999997139,876091.829,876100.0999999046,876108.527,882571.078,8,400,,,
trial,html.Screen,4_104_0,2023-09-13T16:00:54.035Z,,0,3,,5256.621999809286,response,ISIC_0028467.JPG,5,ISIC_5065360.JPG,ISIC_5065360.JPG,false,0,keypress(z),500,887827.7999997139,887827.6999998093,882554.454,882557.5,882571.078,887831.261,8,400,5,,ISIC_0028467.JPG
break,html.Screen,4_104_1,2023-09-13T16:00:54.035Z,,0,,,NaN,,,,,,false,,,,887828.2999997139,887828.0999999046,,887827.9000000954,,887831.261,8,400,,,
break_continue,html.Screen,4_104_2,2023-09-13T16:00:54.036Z,,0,,,NaN,,,,,,false,,,,887828.5999999046,887828.5999999046,,887828.4000000954,,887831.261,8,400,,,
sequence,flow.Sequence,4_104,2023-09-13T16:00:54.036Z,,0,,,5257.521999904653,completion,,,,,false,,,,887828.6999998093,887828.5999999046,882554.454,882557.5,882571.078,887831.261,8,400,,,
trial,html.Screen,4_105_0,2023-09-13T16:01:03.013Z,,0,3,,8974.63900009531,response,ISIC_1387456.JPG,6,ISIC_0012064.JPG,ISIC_1387456.JPG,false,1,keypress(m),500,896806.0999999046,896805.9000000954,887814.715,887828.7999997139,887831.261,896815.521,8,400,6,,ISIC_0012064.JPG
break,html.Screen,4_105_1,2023-09-13T16:01:03.014Z,,0,,,NaN,,,,,,false,,,,896806.9000000954,896806.5999999046,,896806.2999997139,,896815.521,8,400,,,
break_continue,html.Screen,4_105_2,2023-09-13T16:01:03.014Z,,0,,,NaN,,,,,,false,,,,896807.2999997139,896807.0999999046,,896807,,896815.521,8,400,,,
sequence,flow.Sequence,4_105,2023-09-13T16:01:03.015Z,,0,,,8975.838999904576,completion,,,,,false,,,,896807.2999997139,896807.0999999046,887814.715,887828.7999997139,887831.261,896815.521,8,400,,,
trial,html.Screen,4_106_0,2023-09-13T16:01:09.513Z,,0,3,,6489.678999809315,response,ISIC_0053513.JPG,6,ISIC_4129321.JPG,ISIC_0053513.JPG,false,1,keypress(m),500,903305.2999997139,903305.1999998093,896798.779,896807.5,896815.521,903311.441,8,400,7,,ISIC_4129321.JPG
break,html.Screen,4_106_1,2023-09-13T16:01:09.513Z,,0,,,NaN,,,,,,false,,,,903305.7999997139,903305.6999998093,,903305.5,,903311.441,8,400,,,
break_continue,html.Screen,4_106_2,2023-09-13T16:01:09.513Z,,0,,,NaN,,,,,,false,,,,903306,903306,,903305.7999997139,,903311.441,8,400,,,
sequence,flow.Sequence,4_106,2023-09-13T16:01:09.513Z,,0,,,6490.47900000005,completion,,,,,false,,,,903306.0999999046,903306,896798.779,896807.4000000954,896815.521,903311.441,8,400,,,
trial,html.Screen,4_107_0,2023-09-13T16:01:14.355Z,,0,3,,4835.7589998092735,response,ISIC_5754233.JPG,6,ISIC_4359258.JPG,ISIC_5754233.JPG,false,1,keypress(m),500,908147.2999997139,908147.1999998093,903294.917,903306.0999999046,903311.441,908154.361,8,400,8,,ISIC_4359258.JPG
break,html.Screen,4_107_1,2023-09-13T16:01:14.355Z,,0,,,NaN,,,,,,false,,,,908148,908147.7999997139,,908147.5,,908154.361,8,400,,,
break_continue,html.Screen,4_107_2,2023-09-13T16:01:14.355Z,,0,,,NaN,,,,,,false,,,,908148.2999997139,908148.1999998093,,908148.0999999046,,908154.361,8,400,,,
sequence,flow.Sequence,4_107,2023-09-13T16:01:14.356Z,,0,,,4836.7589998092735,completion,,,,,false,,,,908148.4000000954,908148.1999998093,903294.917,903306.0999999046,903311.441,908154.361,8,400,,,
trial,html.Screen,4_108_0,2023-09-13T16:01:19.253Z,,0,3,,4891.6389999999665,response,ISIC_0030943.JPG,4,ISIC_0014926.JPG,ISIC_0014926.JPG,false,0,keypress(z),500,913046.1999998093,913046,908137.541,908148.4000000954,908154.361,913047.033,8,400,9,,ISIC_0030943.JPG
break,html.Screen,4_108_1,2023-09-13T16:01:19.254Z,,0,,,NaN,,,,,,false,,,,913046.6999998093,913046.5,,913046.2999997139,,913047.033,8,400,,,
break_continue,html.Screen,4_108_2,2023-09-13T16:01:19.254Z,,0,,,NaN,,,,,,false,,,,913047.2999997139,913047.0999999046,,913046.7999997139,,913047.033,8,400,,,
sequence,flow.Sequence,4_108,2023-09-13T16:01:19.255Z,,0,,,4892.738999904599,completion,,,,,false,,,,913047.4000000954,913047.0999999046,908137.541,908148.4000000954,908154.361,913047.033,8,400,,,
trial,html.Screen,4_109_0,2023-09-13T16:01:24.890Z,,0,3,,5633.666999809211,response,ISIC_9743052.JPG,6,ISIC_4623351.JPG,ISIC_9743052.JPG,false,1,keypress(m),500,918680.7999997139,918680.6999998093,913030.542,913047.5,913047.033,918691.366,8,400,10,,ISIC_4623351.JPG
break,html.Screen,4_109_1,2023-09-13T16:01:24.890Z,,0,,,NaN,,,,,,false,,,,918681.4000000954,918681.1999998093,,918680.9000000954,,918691.366,8,400,,,
break_continue,html.Screen,4_109_2,2023-09-13T16:01:24.890Z,,0,,,NaN,,,,,,false,,,,918681.6999998093,918681.5999999046,,918681.5,,918691.366,8,400,,,
sequence,flow.Sequence,4_109,2023-09-13T16:01:24.890Z,,0,,,5634.566999904579,completion,,,,,false,,,,918681.7999997139,918681.5999999046,913030.542,913047.5,913047.033,918691.366,8,400,,,
trial,html.Screen,4_110_0,2023-09-13T16:01:29.901Z,,0,3,,5000.9339997138595,response,ISIC_0054523.JPG,5,ISIC_6778515.JPG,ISIC_6778515.JPG,false,0,keypress(z),500,923692.4000000954,923692.2999997139,918674.688,918681.7999997139,918691.366,923701.183,8,400,11,,ISIC_0054523.JPG
break,html.Screen,4_110_1,2023-09-13T16:01:29.902Z,,0,,,NaN,,,,,,false,,,,923692.7999997139,923692.6999998093,,923692.5,,923701.183,8,400,,,
break_continue,html.Screen,4_110_2,2023-09-13T16:01:29.902Z,,0,,,NaN,,,,,,false,,,,923693,923692.9000000954,,923692.9000000954,,923701.183,8,400,,,
sequence,flow.Sequence,4_110,2023-09-13T16:01:29.902Z,,0,,,5001.534000095329,completion,,,,,false,,,,923693.0999999046,923692.9000000954,918674.688,918681.7999997139,918691.366,923701.183,8,400,,,
trial,html.Screen,4_111_0,2023-09-13T16:01:34.798Z,,0,3,,4888.516999809304,response,ISIC_0010912.JPG,5,ISIC_4960406.JPG,ISIC_4960406.JPG,false,0,keypress(z),500,928589.6999998093,928589.6999998093,923684.492,923693.0999999046,923701.183,928610.685,8,400,12,,ISIC_0010912.JPG
break,html.Screen,4_111_1,2023-09-13T16:01:34.799Z,,0,,,NaN,,,,,,false,,,,928590.2999997139,928590.2999997139,,928590,,928610.685,8,400,,,
break_continue,html.Screen,4_111_2,2023-09-13T16:01:34.799Z,,0,,,NaN,,,,,,false,,,,928590.5999999046,928590.4000000954,,928590.4000000954,,928610.685,8,400,,,
sequence,flow.Sequence,4_111,2023-09-13T16:01:34.799Z,,0,,,4889.217000095407,completion,,,,,false,,,,928590.6999998093,928590.4000000954,923684.492,923693.0999999046,923701.183,928610.685,8,400,,,
trial,html.Screen,4_112_0,2023-09-13T16:01:38.994Z,,0,3,,4174.215000095312,response,ISIC_0068895.JPG,5,ISIC_0058585.JPG,ISIC_0058585.JPG,false,0,keypress(z),500,932785.0999999046,932784.9000000954,928593.994,928590.6999998093,928610.685,932802.132,8,400,13,,ISIC_0068895.JPG
break,html.Screen,4_112_1,2023-09-13T16:01:38.994Z,,0,,,NaN,,,,,,false,,,,932785.6999998093,932785.5,,932785.1999998093,,932802.132,8,400,,,
break_continue,html.Screen,4_112_2,2023-09-13T16:01:38.995Z,,0,,,NaN,,,,,,false,,,,932786,932785.9000000954,,932785.6999998093,,932802.132,8,400,,,
sequence,flow.Sequence,4_112,2023-09-13T16:01:38.995Z,,0,,,4175.215000095312,completion,,,,,false,,,,932786.0999999046,932785.9000000954,928593.994,928590.6999998093,928610.685,932802.132,8,400,,,
trial,html.Screen,4_113_0,2023-09-13T16:01:44.665Z,,0,3,,5653.6679997139145,response,ISIC_3397174.JPG,7,ISIC_6907218.JPG,ISIC_3397174.JPG,false,1,keypress(m),500,938455.9000000954,938455.7999997139,932785.477,932786.0999999046,932802.132,938479.837,8,400,14,,ISIC_6907218.JPG
break,html.Screen,4_113_1,2023-09-13T16:01:44.665Z,,0,,,NaN,,,,,,false,,,,938456.2999997139,938456.1999998093,,938455.9000000954,,938479.837,8,400,,,
break_continue,html.Screen,4_113_2,2023-09-13T16:01:44.665Z,,0,,,NaN,,,,,,false,,,,938456.4000000954,938456.4000000954,,938456.4000000954,,938479.837,8,400,,,
sequence,flow.Sequence,4_113,2023-09-13T16:01:44.665Z,,0,,,5654.268000095384,completion,,,,,false,,,,938456.5,938456.4000000954,932785.477,932786.0999999046,932802.132,938479.837,8,400,,,
trial,html.Screen,4_114_0,2023-09-13T16:01:50.818Z,,0,3,,6129.56300009531,response,ISIC_6733338.JPG,6,ISIC_7039203.JPG,ISIC_6733338.JPG,false,1,keypress(m),500,944609.5999999046,944609.4000000954,938463.193,938456.5,938479.837,944625.332,8,400,15,,ISIC_7039203.JPG
break,html.Screen,4_114_1,2023-09-13T16:01:50.819Z,,0,,,NaN,,,,,,false,,,,944610.0999999046,944609.9000000954,,944609.6999998093,,944625.332,8,400,,,
break_continue,html.Screen,4_114_2,2023-09-13T16:01:50.819Z,,0,,,NaN,,,,,,false,,,,944610.1999998093,944610.0999999046,,944610.0999999046,,944625.332,8,400,,,
sequence,flow.Sequence,4_114,2023-09-13T16:01:50.819Z,,0,,,6130.262999904575,completion,,,,,false,,,,944610.2999997139,944610.0999999046,938463.193,938456.5,938479.837,944625.332,8,400,,,
trial,html.Screen,4_115_0,2023-09-13T16:01:57.141Z,,0,3,,6306.7679999045795,response,ISIC_0030255.JPG,5,ISIC_0028412.JPG,ISIC_0030255.JPG,false,1,keypress(m),500,950932.1999998093,950932.0999999046,944608.574,944610.4000000954,944625.332,950937.454,8,400,16,,ISIC_0028412.JPG
break,html.Screen,4_115_1,2023-09-13T16:01:57.141Z,,0,,,NaN,,,,,,false,,,,950932.7999997139,950932.5,,950932.2999997139,,950937.454,8,400,,,
break_continue,html.Screen,4_115_2,2023-09-13T16:01:57.142Z,,0,,,NaN,,,,,,false,,,,950933.0999999046,950933,,950932.9000000954,,950937.454,8,400,,,
sequence,flow.Sequence,4_115,2023-09-13T16:01:57.142Z,,0,,,6307.667999999947,completion,,,,,false,,,,950933.0999999046,950933,944608.574,944610.2999997139,944625.332,950937.454,8,400,,,
trial,html.Screen,4_116_0,2023-09-13T16:02:03.447Z,,0,3,,6301.245999809238,response,ISIC_0027951.JPG,4,ISIC_0071257.JPG,ISIC_0027951.JPG,false,1,keypress(m),500,957238.7999997139,957238.6999998093,950920.74,950933.1999998093,950937.454,957249.709,8,400,17,,ISIC_0071257.JPG
break,html.Screen,4_116_1,2023-09-13T16:02:03.448Z,,0,,,NaN,,,,,,false,,,,957239.1999998093,957239.0999999046,,957238.9000000954,,957249.709,8,400,,,
break_continue,html.Screen,4_116_2,2023-09-13T16:02:03.448Z,,0,,,NaN,,,,,,false,,,,957239.4000000954,957239.4000000954,,957239.2999997139,,957249.709,8,400,,,
sequence,flow.Sequence,4_116,2023-09-13T16:02:03.448Z,,0,,,6301.94600009534,completion,,,,,false,,,,957239.5999999046,957239.4000000954,950920.74,950933.1999998093,950937.454,957249.709,8,400,,,
trial,html.Screen,4_117_0,2023-09-13T16:02:09.274Z,,0,3,,5815.590999713866,response,ISIC_9268487.JPG,4,ISIC_5628615.JPG,ISIC_5628615.JPG,false,0,keypress(z),500,963065.4000000954,963065.2999997139,957233.107,957239.5999999046,957249.709,963077.847,8,400,18,,ISIC_9268487.JPG
break,html.Screen,4_117_1,2023-09-13T16:02:09.275Z,,0,,,NaN,,,,,,false,,,,963065.7999997139,963065.6999998093,,963065.5,,963077.847,8,400,,,
break_continue,html.Screen,4_117_2,2023-09-13T16:02:09.275Z,,0,,,NaN,,,,,,false,,,,963066,963066,,963065.7999997139,,963077.847,8,400,,,
sequence,flow.Sequence,4_117,2023-09-13T16:02:09.275Z,,0,,,5816.290999999968,completion,,,,,false,,,,963066.0999999046,963066,957233.107,957239.5999999046,957249.709,963077.847,8,400,,,
trial,html.Screen,4_118_0,2023-09-13T16:02:13.949Z,,0,3,,4662.452999713947,response,ISIC_0054640.JPG,6,ISIC_0010468.JPG,ISIC_0054640.JPG,false,1,keypress(m),500,967740.5,967740.2999997139,963061.133,963066.1999998093,963077.847,967753.48,8,400,19,,ISIC_0010468.JPG
break,html.Screen,4_118_1,2023-09-13T16:02:13.950Z,,0,,,NaN,,,,,,false,,,,967741,967740.9000000954,,967740.5999999046,,967753.48,8,400,,,
break_continue,html.Screen,4_118_2,2023-09-13T16:02:13.950Z,,0,,,NaN,,,,,,false,,,,967741.1999998093,967741.1999998093,,967741,,967753.48,8,400,,,
sequence,flow.Sequence,4_118,2023-09-13T16:02:13.950Z,,0,,,4663.3529998093145,completion,,,,,false,,,,967741.2999997139,967741.1999998093,963061.133,963066.0999999046,963077.847,967753.48,8,400,,,
trial,html.Screen,4_119_0,2023-09-13T16:02:19.199Z,,0,3,,5236.719999809284,response,ISIC_0010757.JPG,6,ISIC_0055140.JPG,ISIC_0055140.JPG,false,0,keypress(z),500,972990.4000000954,972990.1999998093,967736.771,967741.2999997139,967753.48,973013.757,8,400,20,,ISIC_0010757.JPG
break,html.Screen,4_119_1,2023-09-13T16:02:19.200Z,,0,,,NaN,,,,,,false,,,,972990.9000000954,972990.6999998093,,972990.5,,973013.757,8,400,,,
break_continue,html.Screen,4_119_2,2023-09-13T16:02:19.200Z,,0,,,NaN,,,,,,false,,,,972991.0999999046,972991,,972990.9000000954,,973013.757,8,400,,,
sequence,flow.Sequence,4_119,2023-09-13T16:02:19.200Z,,0,,,5237.520000000019,completion,,,,,false,,,,972991.0999999046,972991,967736.771,967741.2999997139,967753.48,973013.757,8,400,,,
trial,html.Screen,4_120_0,2023-09-13T16:02:26.004Z,,0,3,,6779.5429997139145,response,ISIC_0003664.JPG,5,ISIC_0063988.JPG,ISIC_0003664.JPG,false,1,keypress(m),500,979793.4000000954,979793.2999997139,972996.986,972991.1999998093,973013.757,979810.312,8,400,21,,ISIC_0063988.JPG
break,html.Screen,4_120_1,2023-09-13T16:02:26.004Z,,0,,,NaN,,,,,,false,,,,979793.7999997139,979793.6999998093,,979793.4000000954,,979810.312,8,400,,,
break_continue,html.Screen,4_120_2,2023-09-13T16:02:26.004Z,,0,,,NaN,,,,,,false,,,,979794,979794,,979793.7999997139,,979810.312,8,400,,,
sequence,flow.Sequence,4_120,2023-09-13T16:02:26.004Z,,0,,,6780.243000000017,completion,,,,,false,,,,979794.0999999046,979794,972996.986,972991.1999998093,973013.757,979810.312,8,400,,,
trial,html.Screen,4_121_0,2023-09-13T16:02:34.428Z,,0,3,,8406.987999713863,response,ISIC_0064863.JPG,5,ISIC_4329176.JPG,ISIC_4329176.JPG,false,0,keypress(z),500,988217.4000000954,988217.2999997139,979793.609,979794.1999998093,979810.312,988226.652,8,400,22,,ISIC_0064863.JPG
break,html.Screen,4_121_1,2023-09-13T16:02:34.428Z,,0,,,NaN,,,,,,false,,,,988218.0999999046,988217.7999997139,,988217.5,,988226.652,8,400,,,
break_continue,html.Screen,4_121_2,2023-09-13T16:02:34.428Z,,0,,,NaN,,,,,,false,,,,988218.1999998093,988218.1999998093,,988218.0999999046,,988226.652,8,400,,,
sequence,flow.Sequence,4_121,2023-09-13T16:02:34.428Z,,0,,,8407.88799980923,completion,,,,,false,,,,988218.2999997139,988218.1999998093,979793.609,979794.1999998093,979810.312,988226.652,8,400,,,
trial,html.Screen,4_122_0,2023-09-13T16:02:40.416Z,,0,3,,5978.748000095366,response,ISIC_0024961.JPG,5,ISIC_5884700.JPG,ISIC_5884700.JPG,false,0,keypress(z),500,994205.5999999046,994205.4000000954,988209.97,988218.4000000954,988226.652,994221.675,8,400,23,,ISIC_0024961.JPG
break,html.Screen,4_122_1,2023-09-13T16:02:40.416Z,,0,,,NaN,,,,,,false,,,,994206.0999999046,994205.9000000954,,994205.6999998093,,994221.675,8,400,,,
break_continue,html.Screen,4_122_2,2023-09-13T16:02:40.416Z,,0,,,NaN,,,,,,false,,,,994206.2999997139,994206.2999997139,,994206.1999998093,,994221.675,8,400,,,
sequence,flow.Sequence,4_122,2023-09-13T16:02:40.417Z,,0,,,5979.647999713896,completion,,,,,false,,,,994206.2999997139,994206.2999997139,988209.97,988218.2999997139,988226.652,994221.675,8,400,,,
trial,html.Screen,4_123_0,2023-09-13T16:02:47.091Z,,0,3,,6659.124999713851,response,ISIC_0011692.JPG,5,ISIC_3163773.JPG,ISIC_3163773.JPG,false,0,keypress(z),500,1000880.9000000954,1000880.7999997139,994205.003,994206.4000000954,994221.675,1000884.62,8,400,24,,ISIC_0011692.JPG
break,html.Screen,4_123_1,2023-09-13T16:02:47.092Z,,0,,,NaN,,,,,,false,,,,1000881.2999997139,1000881.1999998093,,1000881.0999999046,,1000884.62,8,400,,,
break_continue,html.Screen,4_123_2,2023-09-13T16:02:47.092Z,,0,,,NaN,,,,,,false,,,,1000881.5,1000881.5,,1000881.4000000954,,1000884.62,8,400,,,
sequence,flow.Sequence,4_123,2023-09-13T16:02:47.092Z,,0,,,6659.824999999953,completion,,,,,false,,,,1000881.6999998093,1000881.5,994205.003,994206.4000000954,994221.675,1000884.62,8,400,,,
trial,html.Screen,4_124_0,2023-09-13T16:02:52.950Z,,0,3,,5854.979999904637,response,ISIC_8603734.JPG,5,ISIC_1228845.JPG,ISIC_8603734.JPG,false,1,keypress(m),500,1006739.6999998093,1006739.5999999046,1000867.943,1000881.7999997139,1000884.62,1006746.136,8,400,25,,ISIC_1228845.JPG
break,html.Screen,4_124_1,2023-09-13T16:02:52.950Z,,0,,,NaN,,,,,,false,,,,1006740,1006740,,1006739.6999998093,,1006746.136,8,400,,,
break_continue,html.Screen,4_124_2,2023-09-13T16:02:52.950Z,,0,,,NaN,,,,,,false,,,,1006740.2999997139,1006740.1999998093,,1006740.0999999046,,1006746.136,8,400,,,
sequence,flow.Sequence,4_124,2023-09-13T16:02:52.951Z,,0,,,5855.57999980927,completion,,,,,false,,,,1006740.4000000954,1006740.1999998093,1000867.943,1000881.7999997139,1000884.62,1006746.136,8,400,,,
trial,html.Screen,4_125_0,2023-09-13T16:03:00.760Z,,0,3,,7803.764000095311,response,ISIC_0011753.JPG,5,ISIC_9280171.JPG,ISIC_9280171.JPG,false,0,keypress(z),500,1014550,1014549.9000000954,1006729.547,1006740.4000000954,1006746.136,1014561.241,8,400,26,,ISIC_0011753.JPG
break,html.Screen,4_125_1,2023-09-13T16:03:00.761Z,,0,,,NaN,,,,,,false,,,,1014550.4000000954,1014550.2999997139,,1014550.0999999046,,1014561.241,8,400,,,
break_continue,html.Screen,4_125_2,2023-09-13T16:03:00.761Z,,0,,,NaN,,,,,,false,,,,1014550.6999998093,1014550.5999999046,,1014550.5,,1014561.241,8,400,,,
sequence,flow.Sequence,4_125,2023-09-13T16:03:00.761Z,,0,,,7804.463999904576,completion,,,,,false,,,,1014550.7999997139,1014550.5999999046,1006729.547,1006740.4000000954,1006746.136,1014561.241,8,400,,,
trial,html.Screen,4_126_0,2023-09-13T16:03:05.807Z,,0,3,,5035.659000095329,response,ISIC_0061544.JPG,6,ISIC_0031045.JPG,ISIC_0031045.JPG,false,0,keypress(z),500,1019597,1019596.9000000954,1014544.757,1014550.7999997139,1014561.241,1019604.452,8,400,27,,ISIC_0061544.JPG
