sender,sender_type,sender_id,timestamp,meta,,blockNo,condition,duration,ended_on,img_left,img_reveal,img_right,loser,practice,response,response_action,selection_duration,time_commit,time_end,time_render,time_run,time_show,time_switch,total_blocks,total_trials,trialNo,url,winner
informed_consent,html.Screen,0,2023-09-11T19:04:34.407Z,"{""labjs_version"":""20.2.4"",""labjs_build"":{""flavor"":""development"",""commit"":""f5b4a49f956347addd546a832a3327688c2c0fef""},""location"":""https://labjs.felixhenninger.com/api/labjs_preview/index.html"",""userAgent"":""Mozilla/5.0 (Windows NT 10.0; Win64; x64) AppleWebKit/537.36 (KHTML, like Gecko) Chrome/116.0.0.0 Safari/537.36"",""platform"":""Win32"",""language"":""en-AU"",""locale"":""en-US"",""timeZone"":""America/Chicago"",""timezoneOffset"":300,""screen_width"":1680,""screen_height"":1050,""scroll_width"":1296,""scroll_height"":688,""window_innerWidth"":1296,""window_innerHeight"":736,""devicePixelRatio"":1}",,,,8216.298999904633,response,,,,,,consent,click button,,8771.5,8770.599999904633,537.625,549.7000002861023,554.301,8787.043,,,,{},
Welcome,html.Screen,1,2023-09-11T19:05:04.977Z,,,,colourful,30553.257000190737,response,,,,,,continue,click button,,39340.800000190735,39340.300000190735,8770.554,8771.800000190735,8787.043,39363.158,,,,,
trial,html.Screen,2_0_0,2023-09-11T19:05:10.693Z,,0,0,,5694.042000286099,response,ISIC_0025593.JPG,,ISIC_0063388.JPG,ISIC_0063388.JPG,true,0,keypress(z),500,45057.40000009537,45057.2000002861,39346.485,39341,39363.158,45074.469,1,6,1,,ISIC_0025593.JPG
sequence,flow.Sequence,2_0,2023-09-11T19:05:10.693Z,,0,,,5694.042000286099,completion,,,,,true,,,,45057.5,45057.2000002861,39346.485,39341,39363.158,45074.469,1,6,,,
trial,html.Screen,2_1_0,2023-09-11T19:05:15.222Z,,0,0,,4511.8310001907375,response,ISIC_1309015.JPG,,ISIC_0028178.JPG,ISIC_1309015.JPG,true,1,keypress(m),500,49586.5,49586.300000190735,45057.698,45057.59999990463,45074.469,49599.722,1,6,2,,ISIC_0028178.JPG
sequence,flow.Sequence,2_1,2023-09-11T19:05:15.222Z,,0,,,4511.8310001907375,completion,,,,,true,,,,49586.7000002861,49586.300000190735,45057.698,45057.59999990463,45074.469,49599.722,1,6,,,
trial,html.Screen,2_2_0,2023-09-11T19:05:18.456Z,,0,0,,3220.877999904631,response,ISIC_3314853.JPG,,ISIC_0031128.JPG,ISIC_3314853.JPG,true,1,keypress(m),500,52820.7000002861,52820.59999990463,49583.146,49586.90000009537,49599.722,52839.403,1,6,3,,ISIC_0031128.JPG
sequence,flow.Sequence,2_2,2023-09-11T19:05:18.457Z,,0,,,3220.877999904631,completion,,,,,true,,,,52820.800000190735,52820.59999990463,49583.146,49586.90000009537,49599.722,52839.403,1,6,,,
trial,html.Screen,2_3_0,2023-09-11T19:05:21.418Z,,0,0,,2942.997000095369,response,ISIC_0031612.JPG,,ISIC_8980141.JPG,ISIC_0031612.JPG,true,1,keypress(m),500,55782.5,55782.40000009537,52822.719,52820.90000009537,52839.403,55795.147,1,6,4,,ISIC_8980141.JPG
sequence,flow.Sequence,2_3,2023-09-11T19:05:21.418Z,,0,,,2942.997000095369,completion,,,,,true,,,,55782.7000002861,55782.40000009537,52822.719,52820.90000009537,52839.403,55795.147,1,6,,,
trial,html.Screen,2_4_0,2023-09-11T19:05:24.879Z,,0,0,,3447.6530001907377,response,ISIC_9721604.JPG,,ISIC_1197737.JPG,ISIC_9721604.JPG,true,1,keypress(m),500,59243,59242.800000190735,55778.518,55782.800000190735,55795.147,59268.543,1,6,5,,ISIC_1197737.JPG
sequence,flow.Sequence,2_4,2023-09-11T19:05:24.879Z,,0,,,3447.6530001907377,completion,,,,,true,,,,59243.09999990463,59242.800000190735,55778.518,55782.800000190735,55795.147,59268.543,1,6,,,
trial,html.Screen,2_5_0,2023-09-11T19:05:30.288Z,,0,0,,5383.957000000002,response,ISIC_0010681.JPG,,ISIC_0025346.JPG,ISIC_0025346.JPG,true,0,keypress(z),500,64652.59999990463,64652.5,59251.899,59243.2000002861,59268.543,64662.382,1,6,6,,ISIC_0010681.JPG
sequence,flow.Sequence,2_5,2023-09-11T19:05:30.289Z,,0,,,5383.957000000002,completion,,,,,true,,,,64652.800000190735,64652.5,59251.899,59243.2000002861,59268.543,64662.382,1,6,,,
loop,flow.Loop,2,2023-09-11T19:05:30.289Z,,,,,25289.341999999997,completion,,,,,true,,,,64653,64652.5,39346.485,39340.90000009537,39363.158,64662.382,1,6,,,
exp_instructions,html.Screen,3,2023-09-11T19:05:34.915Z,,,,,4616.01800009537,response,,,,,,continue,keypress(Space),,69279,69278.40000009537,64645.806,64653,64662.382,69304.727,,,,,
trial,html.Screen,4_0_0,2023-09-11T19:05:41.397Z,,0,1,,6456.872999904634,response,ISIC_8618835.JPG,5,ISIC_1566931.JPG,ISIC_8618835.JPG,false,1,keypress(m),500,75761.7000002861,75761.59999990463,69288.034,69279.09999990463,69304.727,75767.421,8,400,1,,ISIC_1566931.JPG
break,html.Screen,4_0_1,2023-09-11T19:05:41.398Z,,0,,,NaN,,,,,,false,,,,75762.30000019073,75762.09999990463,,75761.80000019073,,75767.421,8,400,,,
break_continue,html.Screen,4_0_2,2023-09-11T19:05:41.398Z,,0,,,NaN,,,,,,false,,,,75762.5,75762.5,,75762.40000009537,,75767.421,8,400,,,
sequence,flow.Sequence,4_0,2023-09-11T19:05:41.398Z,,0,,,6457.773000000001,completion,,,,,false,,,,75762.59999990463,75762.5,69288.034,69279.09999990463,69304.727,75767.421,8,400,,,
trial,html.Screen,4_1_0,2023-09-11T19:05:46.712Z,,0,1,,5308.979000095365,response,ISIC_0071594.JPG,4,ISIC_5179620.JPG,ISIC_5179620.JPG,false,0,keypress(z),500,81076.5,81076.40000009537,75750.866,75762.59999990463,75767.421,81077.677,8,400,2,,ISIC_0071594.JPG
break,html.Screen,4_1_1,2023-09-11T19:05:46.713Z,,0,,,NaN,,,,,,false,,,,81076.90000009537,81076.80000019073,,81076.59999990463,,81077.677,8,400,,,
break_continue,html.Screen,4_1_2,2023-09-11T19:05:46.713Z,,0,,,NaN,,,,,,false,,,,81077.09999990463,81077,,81077,,81077.677,8,400,,,
sequence,flow.Sequence,4_1,2023-09-11T19:05:46.713Z,,0,,,5309.578999999998,completion,,,,,false,,,,81077.2000002861,81077,75750.866,75762.59999990463,75767.421,81077.677,8,400,,,
trial,html.Screen,4_2_0,2023-09-11T19:05:51.634Z,,0,1,,4920.823000000004,response,ISIC_0064557.JPG,5,ISIC_0033464.JPG,ISIC_0064557.JPG,false,1,keypress(m),500,85998.80000019073,85998.5,81061.082,81077.2000002861,81077.677,86003.95,8,400,3,,ISIC_0033464.JPG
break,html.Screen,4_2_1,2023-09-11T19:05:51.636Z,,0,,,NaN,,,,,,false,,,,86000.30000019073,85999.80000019073,,85999.2000002861,,86003.95,8,400,,,
break_continue,html.Screen,4_2_2,2023-09-11T19:05:51.637Z,,0,,,NaN,,,,,,false,,,,86001,86000.80000019073,,86000.5,,86003.95,8,400,,,
sequence,flow.Sequence,4_2,2023-09-11T19:05:51.637Z,,0,,,4923.123000190739,completion,,,,,false,,,,86001.2000002861,86000.80000019073,81061.082,81077.2000002861,81077.677,86003.95,8,400,,,
trial,html.Screen,4_3_0,2023-09-11T19:05:55.404Z,,0,1,,3764.6499999046355,response,ISIC_0061092.JPG,5,ISIC_0030291.JPG,ISIC_0030291.JPG,false,0,keypress(z),500,89768.59999990463,89768.59999990463,85987.431,86001.40000009537,86003.95,89794.638,8,400,4,,ISIC_0061092.JPG
break,html.Screen,4_3_1,2023-09-11T19:05:55.405Z,,0,,,NaN,,,,,,false,,,,89769.09999990463,89768.90000009537,,89768.7000002861,,89794.638,8,400,,,
break_continue,html.Screen,4_3_2,2023-09-11T19:05:55.405Z,,0,,,NaN,,,,,,false,,,,89769.2000002861,89769.2000002861,,89769.09999990463,,89794.638,8,400,,,
sequence,flow.Sequence,4_3,2023-09-11T19:05:55.405Z,,0,,,3765.250000286105,completion,,,,,false,,,,89769.2000002861,89769.2000002861,85987.431,86001.40000009537,86003.95,89794.638,8,400,,,
trial,html.Screen,4_4_0,2023-09-11T19:06:01.296Z,,0,1,,5863.861999999994,response,ISIC_4116224.JPG,4,ISIC_0054280.JPG,ISIC_4116224.JPG,false,1,keypress(m),500,95658.7000002861,95658.5,89777.952,89769.30000019073,89794.638,95672.889,8,400,5,,ISIC_0054280.JPG
break,html.Screen,4_4_1,2023-09-11T19:06:01.297Z,,0,,,NaN,,,,,,false,,,,95659.09999990463,95659,,95658.7000002861,,95672.889,8,400,,,
break_continue,html.Screen,4_4_2,2023-09-11T19:06:01.297Z,,0,,,NaN,,,,,,false,,,,95659.2000002861,95659.2000002861,,95659.09999990463,,95672.889,8,400,,,
sequence,flow.Sequence,4_4,2023-09-11T19:06:01.297Z,,0,,,5864.562000286096,completion,,,,,false,,,,95659.30000019073,95659.2000002861,89777.952,89769.30000019073,89794.638,95672.889,8,400,,,
trial,html.Screen,4_5_0,2023-09-11T19:06:05.770Z,,0,1,,4459.210999904637,response,ISIC_0027538.JPG,5,ISIC_2528656.JPG,ISIC_2528656.JPG,false,0,keypress(z),500,100132.2000002861,100132.09999990463,95656.166,95659.40000009537,95672.889,100148.081,8,400,6,,ISIC_0027538.JPG
break,html.Screen,4_5_1,2023-09-11T19:06:05.771Z,,0,,,NaN,,,,,,false,,,,100132.80000019073,100132.7000002861,,100132.40000009537,,100148.081,8,400,,,
break_continue,html.Screen,4_5_2,2023-09-11T19:06:05.771Z,,0,,,NaN,,,,,,false,,,,100133.09999990463,100133.09999990463,,100132.90000009537,,100148.081,8,400,,,
sequence,flow.Sequence,4_5,2023-09-11T19:06:05.771Z,,0,,,4460.210999904637,completion,,,,,false,,,,100133.2000002861,100133.09999990463,95656.166,95659.40000009537,95672.889,100148.081,8,400,,,
trial,html.Screen,4_6_0,2023-09-11T19:06:13.647Z,,0,1,,7861.119000286097,response,ISIC_5164416.JPG,4,ISIC_0031561.JPG,ISIC_0031561.JPG,false,0,keypress(z),500,108009.30000019073,108009.2000002861,100131.56,100133.30000019073,100148.081,108013.407,8,400,7,,ISIC_5164416.JPG
break,html.Screen,4_6_1,2023-09-11T19:06:13.648Z,,0,,,NaN,,,,,,false,,,,108009.59999990463,108009.59999990463,,108009.40000009537,,108013.407,8,400,,,
break_continue,html.Screen,4_6_2,2023-09-11T19:06:13.648Z,,0,,,NaN,,,,,,false,,,,108009.80000019073,108009.80000019073,,108009.7000002861,,108013.407,8,400,,,
sequence,flow.Sequence,4_6,2023-09-11T19:06:13.648Z,,0,,,7861.719000190729,completion,,,,,false,,,,108009.90000009537,108009.80000019073,100131.56,100133.30000019073,100148.081,108013.407,8,400,,,
trial,html.Screen,4_7_0,2023-09-11T19:06:18.482Z,,0,1,,4830.5929999999935,response,ISIC_0031422.JPG,5,ISIC_0031146.JPG,ISIC_0031422.JPG,false,1,keypress(m),500,112844,112844,107996.843,108009.90000009537,108013.407,112856.184,8,400,8,,ISIC_0031146.JPG
break,html.Screen,4_7_1,2023-09-11T19:06:18.482Z,,0,,,NaN,,,,,,false,,,,112844.59999990463,112844.40000009537,,112844.2000002861,,112856.184,8,400,,,
break_continue,html.Screen,4_7_2,2023-09-11T19:06:18.483Z,,0,,,NaN,,,,,,false,,,,112844.7000002861,112844.7000002861,,112844.59999990463,,112856.184,8,400,,,
sequence,flow.Sequence,4_7,2023-09-11T19:06:18.483Z,,0,,,4831.293000286096,completion,,,,,false,,,,112844.80000019073,112844.7000002861,107996.843,108009.90000009537,108013.407,112856.184,8,400,,,
trial,html.Screen,4_8_0,2023-09-11T19:06:23.205Z,,0,1,,4710.5160002861085,response,ISIC_0046422.JPG,5,ISIC_0028114.JPG,ISIC_0046422.JPG,false,1,keypress(m),500,117566.90000009537,117566.7000002861,112839.489,112844.90000009537,112856.184,117582.045,8,400,9,,ISIC_0028114.JPG
break,html.Screen,4_8_1,2023-09-11T19:06:23.205Z,,0,,,NaN,,,,,,false,,,,117567.40000009537,117567.2000002861,,117567,,117582.045,8,400,,,
break_continue,html.Screen,4_8_2,2023-09-11T19:06:23.206Z,,0,,,NaN,,,,,,false,,,,117567.7000002861,117567.7000002861,,117567.59999990463,,117582.045,8,400,,,
sequence,flow.Sequence,4_8,2023-09-11T19:06:23.206Z,,0,,,4711.5160002861085,completion,,,,,false,,,,117567.7000002861,117567.7000002861,112839.489,112844.80000019073,112856.184,117582.045,8,400,,,
trial,html.Screen,4_9_0,2023-09-11T19:06:28.887Z,,0,1,,5667.255000190737,response,ISIC_0014903.JPG,6,ISIC_0059303.JPG,ISIC_0059303.JPG,false,0,keypress(z),500,123249.5,123249.30000019073,117565.46,117567.90000009537,117582.045,123259.773,8,400,10,,ISIC_0014903.JPG
break,html.Screen,4_9_1,2023-09-11T19:06:28.888Z,,0,,,NaN,,,,,,false,,,,123250.2000002861,123250,,123249.7000002861,,123259.773,8,400,,,
break_continue,html.Screen,4_9_2,2023-09-11T19:06:28.888Z,,0,,,NaN,,,,,,false,,,,123250.59999990463,123250.5,,123250.30000019073,,123259.773,8,400,,,
sequence,flow.Sequence,4_9,2023-09-11T19:06:28.889Z,,0,,,5668.455000000002,completion,,,,,false,,,,123250.59999990463,123250.5,117565.46,117567.80000019073,117582.045,123259.773,8,400,,,
trial,html.Screen,4_10_0,2023-09-11T19:06:33.275Z,,0,1,,4377.226999999999,response,ISIC_6515546.JPG,5,ISIC_2887355.JPG,ISIC_6515546.JPG,false,1,keypress(m),500,127637.09999990463,127637,123243.138,123250.80000019073,123259.773,127651.631,8,400,11,,ISIC_2887355.JPG
break,html.Screen,4_10_1,2023-09-11T19:06:33.275Z,,0,,,NaN,,,,,,false,,,,127637.59999990463,127637.5,,127637.2000002861,,127651.631,8,400,,,
break_continue,html.Screen,4_10_2,2023-09-11T19:06:33.276Z,,0,,,NaN,,,,,,false,,,,127637.80000019073,127637.7000002861,,127637.59999990463,,127651.631,8,400,,,
sequence,flow.Sequence,4_10,2023-09-11T19:06:33.276Z,,0,,,4377.927000286101,completion,,,,,false,,,,127637.80000019073,127637.7000002861,123243.138,123250.80000019073,123259.773,127651.631,8,400,,,
trial,html.Screen,4_11_0,2023-09-11T19:06:40.414Z,,0,1,,7124.468999904639,response,ISIC_0027076.JPG,5,ISIC_0024805.JPG,ISIC_0027076.JPG,false,1,keypress(m),500,134776.2000002861,134776.09999990463,127634.924,127637.90000009537,127651.631,134782.132,8,400,12,,ISIC_0024805.JPG
break,html.Screen,4_11_1,2023-09-11T19:06:40.415Z,,0,,,NaN,,,,,,false,,,,134776.7000002861,134776.59999990463,,134776.30000019073,,134782.132,8,400,,,
break_continue,html.Screen,4_11_2,2023-09-11T19:06:40.415Z,,0,,,NaN,,,,,,false,,,,134776.90000009537,134776.80000019073,,134776.80000019073,,134782.132,8,400,,,
sequence,flow.Sequence,4_11,2023-09-11T19:06:40.415Z,,0,,,7125.169000190741,completion,,,,,false,,,,134777,134776.80000019073,127634.924,127637.90000009537,127651.631,134782.132,8,400,,,
trial,html.Screen,4_12_0,2023-09-11T19:06:45.893Z,,0,1,,5473.06800028609,response,ISIC_0010242.JPG,5,ISIC_5307086.JPG,ISIC_0010242.JPG,false,1,keypress(m),500,140255.30000019073,140255.2000002861,134765.584,134777.09999990463,134782.132,140259.485,8,400,13,,ISIC_5307086.JPG
break,html.Screen,4_12_1,2023-09-11T19:06:45.894Z,,0,,,NaN,,,,,,false,,,,140255.90000009537,140255.7000002861,,140255.40000009537,,140259.485,8,400,,,
break_continue,html.Screen,4_12_2,2023-09-11T19:06:45.894Z,,0,,,NaN,,,,,,false,,,,140256.2000002861,140256.09999990463,,140255.90000009537,,140259.485,8,400,,,
sequence,flow.Sequence,4_12,2023-09-11T19:06:45.894Z,,0,,,5473.96799990462,completion,,,,,false,,,,140256.30000019073,140256.09999990463,134765.584,134777.09999990463,134782.132,140259.485,8,400,,,
trial,html.Screen,4_13_0,2023-09-11T19:06:51.470Z,,0,1,,5572.515000000014,response,ISIC_0030291.JPG,5,ISIC_0046225.JPG,ISIC_0030291.JPG,false,1,keypress(m),500,145832.09999990463,145832,140243.007,140256.30000019073,140259.485,145837.036,8,400,14,,ISIC_0046225.JPG
break,html.Screen,4_13_1,2023-09-11T19:06:51.470Z,,0,,,NaN,,,,,,false,,,,145832.59999990463,145832.5,,145832.30000019073,,145837.036,8,400,,,
break_continue,html.Screen,4_13_2,2023-09-11T19:06:51.471Z,,0,,,NaN,,,,,,false,,,,145832.80000019073,145832.7000002861,,145832.7000002861,,145837.036,8,400,,,
sequence,flow.Sequence,4_13,2023-09-11T19:06:51.471Z,,0,,,5573.215000286116,completion,,,,,false,,,,145832.90000009537,145832.7000002861,140243.007,140256.30000019073,140259.485,145837.036,8,400,,,
trial,html.Screen,4_14_0,2023-09-11T19:06:56.595Z,,0,1,,5119.764000190742,response,ISIC_2954564.JPG,5,ISIC_0806303.JPG,ISIC_2954564.JPG,false,1,keypress(m),500,150956.90000009537,150956.80000019073,145820.396,145832.90000009537,145837.036,150963.66,8,400,15,,ISIC_0806303.JPG
break,html.Screen,4_14_1,2023-09-11T19:06:56.595Z,,0,,,NaN,,,,,,false,,,,150957.40000009537,150957.30000019073,,150957,,150963.66,8,400,,,
break_continue,html.Screen,4_14_2,2023-09-11T19:06:56.595Z,,0,,,NaN,,,,,,false,,,,150957.59999990463,150957.59999990463,,150957.5,,150963.66,8,400,,,
sequence,flow.Sequence,4_14,2023-09-11T19:06:56.596Z,,0,,,5120.56399990464,completion,,,,,false,,,,150957.7000002861,150957.59999990463,145820.396,145832.90000009537,145837.036,150963.66,8,400,,,
trial,html.Screen,4_15_0,2023-09-11T19:07:00.534Z,,0,1,,3931.3399999999965,response,ISIC_1388297.JPG,5,ISIC_0007084.JPG,ISIC_0007084.JPG,false,0,keypress(z),500,154895.2000002861,154895,150947.01,150957.80000019073,150963.66,154904.731,8,400,16,,ISIC_1388297.JPG
break,html.Screen,4_15_1,2023-09-11T19:07:00.535Z,,0,,,NaN,,,,,,false,,,,154896,154895.7000002861,,154895.40000009537,,154904.731,8,400,,,
break_continue,html.Screen,4_15_2,2023-09-11T19:07:00.535Z,,0,,,NaN,,,,,,false,,,,154896.30000019073,154896.2000002861,,154896.09999990463,,154904.731,8,400,,,
sequence,flow.Sequence,4_15,2023-09-11T19:07:00.535Z,,0,,,3932.540000286099,completion,,,,,false,,,,154896.5,154896.2000002861,150947.01,150957.80000019073,150963.66,154904.731,8,400,,,
trial,html.Screen,4_16_0,2023-09-11T19:07:06.889Z,,0,1,,6345.569000190735,response,ISIC_5903193.JPG,6,ISIC_0033730.JPG,ISIC_5903193.JPG,false,1,keypress(m),500,161250.5,161250.30000019073,154888.107,154896.59999990463,154904.731,161267.15,8,400,17,,ISIC_0033730.JPG
break,html.Screen,4_16_1,2023-09-11T19:07:06.890Z,,0,,,NaN,,,,,,false,,,,161250.90000009537,161250.80000019073,,161250.59999990463,,161267.15,8,400,,,
break_continue,html.Screen,4_16_2,2023-09-11T19:07:06.890Z,,0,,,NaN,,,,,,false,,,,161251.2000002861,161251.2000002861,,161251.09999990463,,161267.15,8,400,,,
sequence,flow.Sequence,4_16,2023-09-11T19:07:06.890Z,,0,,,6346.4690002861025,completion,,,,,false,,,,161251.30000019073,161251.2000002861,154888.107,154896.5,154904.731,161267.15,8,400,,,
trial,html.Screen,4_17_0,2023-09-11T19:07:10.700Z,,0,1,,3793.2500000953733,response,ISIC_0008630.JPG,5,ISIC_1695424.JPG,ISIC_0008630.JPG,false,1,keypress(m),500,165060.59999990463,165060.40000009537,161250.332,161251.30000019073,161267.15,165074.527,8,400,18,,ISIC_1695424.JPG
break,html.Screen,4_17_1,2023-09-11T19:07:10.700Z,,0,,,NaN,,,,,,false,,,,165061,165061,,165060.7000002861,,165074.527,8,400,,,
break_continue,html.Screen,4_17_2,2023-09-11T19:07:10.700Z,,0,,,NaN,,,,,,false,,,,165061.2000002861,165061.09999990463,,165061.09999990463,,165074.527,8,400,,,
sequence,flow.Sequence,4_17,2023-09-11T19:07:10.700Z,,0,,,3793.9499999046384,completion,,,,,false,,,,165061.30000019073,165061.09999990463,161250.332,161251.30000019073,161267.15,165074.527,8,400,,,
trial,html.Screen,4_18_0,2023-09-11T19:07:15.166Z,,0,1,,4451.972999999998,response,ISIC_9588065.JPG,4,ISIC_0032685.JPG,ISIC_9588065.JPG,false,1,keypress(m),500,169526.7000002861,169526.5,165057.82,165061.40000009537,165074.527,169533.143,8,400,19,,ISIC_0032685.JPG
break,html.Screen,4_18_1,2023-09-11T19:07:15.166Z,,0,,,NaN,,,,,,false,,,,169527.30000019073,169527.2000002861,,169526.90000009537,,169533.143,8,400,,,
break_continue,html.Screen,4_18_2,2023-09-11T19:07:15.167Z,,0,,,NaN,,,,,,false,,,,169527.59999990463,169527.5,,169527.40000009537,,169533.143,8,400,,,
sequence,flow.Sequence,4_18,2023-09-11T19:07:15.167Z,,0,,,4452.972999999998,completion,,,,,false,,,,169527.59999990463,169527.5,165057.82,165061.40000009537,165074.527,169533.143,8,400,,,
trial,html.Screen,4_19_0,2023-09-11T19:07:20.304Z,,0,1,,5131.856999999989,response,ISIC_0069175.JPG,6,ISIC_1696516.JPG,ISIC_1696516.JPG,false,0,keypress(z),500,174665.09999990463,174665,169516.452,169527.59999990463,169533.143,174676.571,8,400,20,,ISIC_0069175.JPG
break,html.Screen,4_19_1,2023-09-11T19:07:20.304Z,,0,,,NaN,,,,,,false,,,,174665.5,174665.40000009537,,174665.2000002861,,174676.571,8,400,,,
break_continue,html.Screen,4_19_2,2023-09-11T19:07:20.305Z,,0,,,NaN,,,,,,false,,,,174665.7000002861,174665.59999990463,,174665.5,,174676.571,8,400,,,
sequence,flow.Sequence,4_19,2023-09-11T19:07:20.305Z,,0,,,5132.456999904622,completion,,,,,false,,,,174665.7000002861,174665.59999990463,169516.452,169527.59999990463,169533.143,174676.571,8,400,,,
trial,html.Screen,4_20_0,2023-09-11T19:07:24.278Z,,0,1,,3962.5289999046363,response,ISIC_9259989.JPG,5,ISIC_0061630.JPG,ISIC_9259989.JPG,false,1,keypress(m),500,178639.2000002861,178639.09999990463,174659.761,174665.7000002861,174676.571,178650.876,8,400,21,,ISIC_0061630.JPG
break,html.Screen,4_20_1,2023-09-11T19:07:24.279Z,,0,,,NaN,,,,,,false,,,,178639.80000019073,178639.59999990463,,178639.40000009537,,178650.876,8,400,,,
break_continue,html.Screen,4_20_2,2023-09-11T19:07:24.279Z,,0,,,NaN,,,,,,false,,,,178640,178640,,178639.80000019073,,178650.876,8,400,,,
sequence,flow.Sequence,4_20,2023-09-11T19:07:24.279Z,,0,,,3963.4290000000037,completion,,,,,false,,,,178640.2000002861,178640,174659.761,174665.7000002861,174676.571,178650.876,8,400,,,
trial,html.Screen,4_21_0,2023-09-11T19:07:29.536Z,,0,1,,5245.824000286113,response,ISIC_9302863.JPG,6,ISIC_0874261.JPG,ISIC_0874261.JPG,false,0,keypress(z),500,183897,183896.7000002861,178634.286,178640.2000002861,178650.876,183911.088,8,400,22,,ISIC_9302863.JPG
break,html.Screen,4_21_1,2023-09-11T19:07:29.537Z,,0,,,NaN,,,,,,false,,,,183897.59999990463,183897.40000009537,,183897.09999990463,,183911.088,8,400,,,
break_continue,html.Screen,4_21_2,2023-09-11T19:07:29.537Z,,0,,,NaN,,,,,,false,,,,183897.90000009537,183897.80000019073,,183897.80000019073,,183911.088,8,400,,,
sequence,flow.Sequence,4_21,2023-09-11T19:07:29.537Z,,0,,,5246.924000190746,completion,,,,,false,,,,183898,183897.80000019073,178634.286,178640.2000002861,178650.876,183911.088,8,400,,,
trial,html.Screen,4_22_0,2023-09-11T19:07:33.586Z,,0,1,,4035.412000000011,response,ISIC_8764464.JPG,6,ISIC_0000660.JPG,ISIC_0000660.JPG,false,0,keypress(z),500,187946.59999990463,187946.5,183894.384,183898,183911.088,187969.1,8,400,23,,ISIC_8764464.JPG
break,html.Screen,4_22_1,2023-09-11T19:07:33.586Z,,0,,,NaN,,,,,,false,,,,187947.09999990463,187946.90000009537,,187946.80000019073,,187969.1,8,400,,,
break_continue,html.Screen,4_22_2,2023-09-11T19:07:33.586Z,,0,,,NaN,,,,,,false,,,,187947.30000019073,187947.30000019073,,187947.09999990463,,187969.1,8,400,,,
sequence,flow.Sequence,4_22,2023-09-11T19:07:33.586Z,,0,,,4036.212000190746,completion,,,,,false,,,,187947.40000009537,187947.30000019073,183894.384,183898,183911.088,187969.1,8,400,,,
trial,html.Screen,4_23_0,2023-09-11T19:07:38.167Z,,0,1,,4559.300000095362,response,ISIC_0028903.JPG,5,ISIC_0055776.JPG,ISIC_0028903.JPG,false,1,keypress(m),500,192528.5,192528.40000009537,187952.3,187947.40000009537,187969.1,192544.572,8,400,24,,ISIC_0055776.JPG
break,html.Screen,4_23_1,2023-09-11T19:07:38.168Z,,0,,,NaN,,,,,,false,,,,192529,192528.80000019073,,192528.59999990463,,192544.572,8,400,,,
break_continue,html.Screen,4_23_2,2023-09-11T19:07:38.168Z,,0,,,NaN,,,,,,false,,,,192529.2000002861,192529.2000002861,,192529.09999990463,,192544.572,8,400,,,
sequence,flow.Sequence,4_23,2023-09-11T19:07:38.168Z,,0,,,4560.1000002860965,completion,,,,,false,,,,192529.30000019073,192529.2000002861,187952.3,187947.40000009537,187969.1,192544.572,8,400,,,
trial,html.Screen,4_24_0,2023-09-11T19:07:43.050Z,,0,1,,4866.027999904647,response,ISIC_8440070.JPG,4,ISIC_8899350.JPG,ISIC_8440070.JPG,false,1,keypress(m),500,197411.09999990463,197410.59999990463,192528.039,192529.30000019073,192544.572,197437.564,8,400,25,,ISIC_8899350.JPG
break,html.Screen,4_24_1,2023-09-11T19:07:43.053Z,,0,,,NaN,,,,,,false,,,,197413.7000002861,197413,,197411.90000009537,,197437.564,8,400,,,
break_continue,html.Screen,4_24_2,2023-09-11T19:07:43.054Z,,0,,,NaN,,,,,,false,,,,197414.90000009537,197414.7000002861,,197414.2000002861,,197437.564,8,400,,,
sequence,flow.Sequence,4_24,2023-09-11T19:07:43.054Z,,0,,,4870.128000286117,completion,,,,,false,,,,197415.30000019073,197414.7000002861,192528.039,192529.30000019073,192544.572,197437.564,8,400,,,
trial,html.Screen,4_25_0,2023-09-11T19:07:46.697Z,,0,1,,3620.236000190722,response,ISIC_2772066.JPG,6,ISIC_9161898.JPG,ISIC_9161898.JPG,false,0,keypress(z),500,201058,201057.80000019073,197420.885,197415.5,197437.564,201077.843,8,400,26,,ISIC_2772066.JPG
break,html.Screen,4_25_1,2023-09-11T19:07:46.697Z,,0,,,NaN,,,,,,false,,,,201058.40000009537,201058.30000019073,,201058.09999990463,,201077.843,8,400,,,
break_continue,html.Screen,4_25_2,2023-09-11T19:07:46.698Z,,0,,,NaN,,,,,,false,,,,201058.59999990463,201058.5,,201058.5,,201077.843,8,400,,,
sequence,flow.Sequence,4_25,2023-09-11T19:07:46.698Z,,0,,,3620.935999999987,completion,,,,,false,,,,201058.7000002861,201058.5,197420.885,197415.5,197437.564,201077.843,8,400,,,
trial,html.Screen,4_26_0,2023-09-11T19:07:51.424Z,,0,1,,4706.6570000000065,response,ISIC_0012883.JPG,5,ISIC_0069204.JPG,ISIC_0012883.JPG,false,1,keypress(m),500,205784.59999990463,205784.5,201061.167,201058.80000019073,201077.843,205786.975,8,400,27,,ISIC_0069204.JPG
break,html.Screen,4_26_1,2023-09-11T19:07:51.424Z,,0,,,NaN,,,,,,false,,,,205785,205784.80000019073,,205784.59999990463,,205786.975,8,400,,,
break_continue,html.Screen,4_26_2,2023-09-11T19:07:51.424Z,,0,,,NaN,,,,,,false,,,,205785.2000002861,205785.09999990463,,205785.09999990463,,205786.975,8,400,,,
sequence,flow.Sequence,4_26,2023-09-11T19:07:51.424Z,,0,,,4707.256999904639,completion,,,,,false,,,,205785.2000002861,205785.09999990463,201061.167,201058.7000002861,201077.843,205786.975,8,400,,,
trial,html.Screen,4_27_0,2023-09-11T19:07:56.007Z,,0,1,,4580.7250002860965,response,ISIC_0033801.JPG,4,ISIC_0064344.JPG,ISIC_0064344.JPG,false,0,keypress(z),500,210368,210367.7000002861,205770.427,205785.30000019073,205786.975,210379.324,8,400,28,,ISIC_0033801.JPG
break,html.Screen,4_27_1,2023-09-11T19:07:56.008Z,,0,,,NaN,,,,,,false,,,,210369.09999990463,210368.80000019073,,210368.30000019073,,210379.324,8,400,,,
break_continue,html.Screen,4_27_2,2023-09-11T19:07:56.009Z,,0,,,NaN,,,,,,false,,,,210369.7000002861,210369.5,,210369.30000019073,,210379.324,8,400,,,
sequence,flow.Sequence,4_27,2023-09-11T19:07:56.009Z,,0,,,4582.524999999994,completion,,,,,false,,,,210369.90000009537,210369.5,205770.427,205785.30000019073,205786.975,210379.324,8,400,,,
trial,html.Screen,4_28_0,2023-09-11T19:08:00.396Z,,0,1,,4376.976000190742,response,ISIC_0034209.JPG,6,ISIC_0058828.JPG,ISIC_0058828.JPG,false,0,keypress(z),500,214756.40000009537,214756.30000019073,210362.692,210370,210379.324,214771.331,8,400,29,,ISIC_0034209.JPG
break,html.Screen,4_28_1,2023-09-11T19:08:00.397Z,,0,,,NaN,,,,,,false,,,,214757.09999990463,214756.80000019073,,214756.5,,214771.331,8,400,,,
break_continue,html.Screen,4_28_2,2023-09-11T19:08:00.397Z,,0,,,NaN,,,,,,false,,,,214757.40000009537,214757.2000002861,,214757.09999990463,,214771.331,8,400,,,
sequence,flow.Sequence,4_28,2023-09-11T19:08:00.397Z,,0,,,4377.876000286109,completion,,,,,false,,,,214757.40000009537,214757.2000002861,210362.692,210370,210379.324,214771.331,8,400,,,
trial,html.Screen,4_29_0,2023-09-11T19:08:05.278Z,,0,1,,4866.869000286097,response,ISIC_0012151.JPG,5,ISIC_1225511.JPG,ISIC_1225511.JPG,false,0,keypress(z),500,219638.40000009537,219638.2000002861,214754.582,214757.5,214771.331,219647.335,8,400,30,,ISIC_0012151.JPG
break,html.Screen,4_29_1,2023-09-11T19:08:05.279Z,,0,,,NaN,,,,,,false,,,,219639.09999990463,219638.90000009537,,219638.59999990463,,219647.335,8,400,,,
break_continue,html.Screen,4_29_2,2023-09-11T19:08:05.279Z,,0,,,NaN,,,,,,false,,,,219639.40000009537,219639.40000009537,,219639.2000002861,,219647.335,8,400,,,
sequence,flow.Sequence,4_29,2023-09-11T19:08:05.280Z,,0,,,4868.069000095362,completion,,,,,false,,,,219639.5,219639.40000009537,214754.582,214757.5,214771.331,219647.335,8,400,,,
trial,html.Screen,4_30_0,2023-09-11T19:08:11.208Z,,0,1,,5919.965000190743,response,ISIC_0009950.JPG,5,ISIC_0057032.JPG,ISIC_0009950.JPG,false,1,keypress(m),500,225567.59999990463,225567.30000019073,219630.708,219639.59999990463,219647.335,225575.563,8,400,31,,ISIC_0057032.JPG
break,html.Screen,4_30_1,2023-09-11T19:08:11.209Z,,0,,,NaN,,,,,,false,,,,225568.90000009537,225568.59999990463,,225567.90000009537,,225575.563,8,400,,,
break_continue,html.Screen,4_30_2,2023-09-11T19:08:11.210Z,,0,,,NaN,,,,,,false,,,,225569.7000002861,225569.5,,225569.2000002861,,225575.563,8,400,,,
sequence,flow.Sequence,4_30,2023-09-11T19:08:11.210Z,,0,,,5922.165000000008,completion,,,,,false,,,,225570,225569.5,219630.708,219639.59999990463,219647.335,225575.563,8,400,,,
trial,html.Screen,4_31_0,2023-09-11T19:08:16.627Z,,0,1,,5411.337000095373,response,ISIC_2481044.JPG,4,ISIC_0014264.JPG,ISIC_0014264.JPG,false,0,keypress(z),500,230987,230986.90000009537,225558.913,225570.2000002861,225575.563,231002.791,8,400,32,,ISIC_2481044.JPG
break,html.Screen,4_31_1,2023-09-11T19:08:16.628Z,,0,,,NaN,,,,,,false,,,,230987.40000009537,230987.30000019073,,230987.2000002861,,231002.791,8,400,,,
break_continue,html.Screen,4_31_2,2023-09-11T19:08:16.628Z,,0,,,NaN,,,,,,false,,,,230987.59999990463,230987.59999990463,,230987.5,,231002.791,8,400,,,
sequence,flow.Sequence,4_31,2023-09-11T19:08:16.628Z,,0,,,5412.036999904638,completion,,,,,false,,,,230987.7000002861,230987.59999990463,225558.913,225570.2000002861,225575.563,231002.791,8,400,,,
trial,html.Screen,4_32_0,2023-09-11T19:08:23.798Z,,0,1,,7155.10900009537,response,ISIC_2412888.JPG,5,ISIC_3952694.JPG,ISIC_3952694.JPG,false,0,keypress(z),500,238157.90000009537,238157.90000009537,230986.037,230987.7000002861,231002.791,238183.397,8,400,33,,ISIC_2412888.JPG
break,html.Screen,4_32_1,2023-09-11T19:08:23.799Z,,0,,,NaN,,,,,,false,,,,238158.59999990463,238158.40000009537,,238158.09999990463,,238183.397,8,400,,,
break_continue,html.Screen,4_32_2,2023-09-11T19:08:23.799Z,,0,,,NaN,,,,,,false,,,,238158.90000009537,238158.80000019073,,238158.59999990463,,238183.397,8,400,,,
sequence,flow.Sequence,4_32,2023-09-11T19:08:23.799Z,,0,,,7156.009000190737,completion,,,,,false,,,,238159,238158.80000019073,230986.037,230987.7000002861,231002.791,238183.397,8,400,,,
trial,html.Screen,4_33_0,2023-09-11T19:08:30.936Z,,0,1,,7112.103000000003,response,ISIC_0054651.JPG,5,ISIC_0067097.JPG,ISIC_0067097.JPG,false,0,keypress(z),500,245295.59999990463,245295.5,238166.772,238159,238183.397,245313.923,8,400,34,,ISIC_0054651.JPG
break,html.Screen,4_33_1,2023-09-11T19:08:30.936Z,,0,,,NaN,,,,,,false,,,,245296,245295.90000009537,,245295.7000002861,,245313.923,8,400,,,
break_continue,html.Screen,4_33_2,2023-09-11T19:08:30.936Z,,0,,,NaN,,,,,,false,,,,245296.2000002861,245296.2000002861,,245296,,245313.923,8,400,,,
sequence,flow.Sequence,4_33,2023-09-11T19:08:30.936Z,,0,,,7112.803000286105,completion,,,,,false,,,,245296.2000002861,245296.2000002861,238166.772,238159,238183.397,245313.923,8,400,,,
trial,html.Screen,4_34_0,2023-09-11T19:08:36.956Z,,0,1,,6001.57699999999,response,ISIC_9261199.JPG,5,ISIC_0527170.JPG,ISIC_9261199.JPG,false,1,keypress(m),500,251315.7000002861,251315.5,245297.261,245296.30000019073,245313.923,251325.726,8,400,35,,ISIC_0527170.JPG
break,html.Screen,4_34_1,2023-09-11T19:08:36.956Z,,0,,,NaN,,,,,,false,,,,251316.30000019073,251316.09999990463,,251315.90000009537,,251325.726,8,400,,,
break_continue,html.Screen,4_34_2,2023-09-11T19:08:36.957Z,,0,,,NaN,,,,,,false,,,,251316.59999990463,251316.5,,251316.40000009537,,251325.726,8,400,,,
sequence,flow.Sequence,4_34,2023-09-11T19:08:36.957Z,,0,,,6002.57699999999,completion,,,,,false,,,,251316.7000002861,251316.5,245297.261,245296.30000019073,245313.923,251325.726,8,400,,,
trial,html.Screen,4_35_0,2023-09-11T19:08:43.429Z,,0,1,,6463.174000095372,response,ISIC_7184722.JPG,5,ISIC_0032098.JPG,ISIC_7184722.JPG,false,1,keypress(m),500,257789,257788.90000009537,251309.191,251316.7000002861,251325.726,257821.575,8,400,36,,ISIC_0032098.JPG
break,html.Screen,4_35_1,2023-09-11T19:08:43.430Z,,0,,,NaN,,,,,,false,,,,257789.5,257789.40000009537,,257789.2000002861,,257821.575,8,400,,,
break_continue,html.Screen,4_35_2,2023-09-11T19:08:43.430Z,,0,,,NaN,,,,,,false,,,,257789.7000002861,257789.59999990463,,257789.59999990463,,257821.575,8,400,,,
sequence,flow.Sequence,4_35,2023-09-11T19:08:43.430Z,,0,,,6463.8739999046375,completion,,,,,false,,,,257789.80000019073,257789.59999990463,251309.191,251316.7000002861,251325.726,257821.575,8,400,,,
trial,html.Screen,4_36_0,2023-09-11T19:08:48.023Z,,0,1,,4561.024999904621,response,ISIC_0028086.JPG,5,ISIC_4752144.JPG,ISIC_4752144.JPG,false,0,keypress(z),500,262382.7000002861,262382.59999990463,257804.892,257789.80000019073,257821.575,262414.042,8,400,37,,ISIC_0028086.JPG
break,html.Screen,4_36_1,2023-09-11T19:08:48.023Z,,0,,,NaN,,,,,,false,,,,262383.09999990463,262383,,262382.80000019073,,262414.042,8,400,,,
break_continue,html.Screen,4_36_2,2023-09-11T19:08:48.023Z,,0,,,NaN,,,,,,false,,,,262383.40000009537,262383.30000019073,,262383.2000002861,,262414.042,8,400,,,
sequence,flow.Sequence,4_36,2023-09-11T19:08:48.024Z,,0,,,4561.725000190723,completion,,,,,false,,,,262383.59999990463,262383.30000019073,257804.892,257789.80000019073,257821.575,262414.042,8,400,,,
trial,html.Screen,4_37_0,2023-09-11T19:08:52.825Z,,0,1,,4770.358000095352,response,ISIC_0029478.JPG,4,ISIC_6570611.JPG,ISIC_6570611.JPG,false,0,keypress(z),500,267184.5,267184.40000009537,262397.197,262383.59999990463,262414.042,267189.973,8,400,38,,ISIC_0029478.JPG
break,html.Screen,4_37_1,2023-09-11T19:08:52.825Z,,0,,,NaN,,,,,,false,,,,267185.30000019073,267185.09999990463,,267184.80000019073,,267189.973,8,400,,,
break_continue,html.Screen,4_37_2,2023-09-11T19:08:52.826Z,,0,,,NaN,,,,,,false,,,,267185.7000002861,267185.5,,267185.40000009537,,267189.973,8,400,,,
sequence,flow.Sequence,4_37,2023-09-11T19:08:52.826Z,,0,,,4771.457999999984,completion,,,,,false,,,,267185.90000009537,267185.5,262397.197,262383.59999990463,262414.042,267189.973,8,400,,,
trial,html.Screen,4_38_0,2023-09-11T19:08:57.677Z,,0,1,,4846.327000190737,response,ISIC_0528044.JPG,5,ISIC_0005639.JPG,ISIC_0005639.JPG,false,0,keypress(z),500,272036.5,272036.30000019073,267173.24,267186,267189.973,272066.006,8,400,39,,ISIC_0528044.JPG
break,html.Screen,4_38_1,2023-09-11T19:08:57.677Z,,0,,,NaN,,,,,,false,,,,272036.90000009537,272036.80000019073,,272036.59999990463,,272066.006,8,400,,,
break_continue,html.Screen,4_38_2,2023-09-11T19:08:57.677Z,,0,,,NaN,,,,,,false,,,,272037.09999990463,272037,,272036.90000009537,,272066.006,8,400,,,
sequence,flow.Sequence,4_38,2023-09-11T19:08:57.677Z,,0,,,4847.027000000002,completion,,,,,false,,,,272037.09999990463,272037,267173.24,267185.90000009537,267189.973,272066.006,8,400,,,
trial,html.Screen,4_39_0,2023-09-11T19:09:01.888Z,,0,1,,4180.994000000006,response,ISIC_3170155.JPG,6,ISIC_7927525.JPG,ISIC_3170155.JPG,false,1,keypress(m),500,276247.09999990463,276247,272049.499,272037.2000002861,272066.006,276274.282,8,400,40,,ISIC_7927525.JPG
break,html.Screen,4_39_1,2023-09-11T19:09:01.889Z,,0,,,NaN,,,,,,false,,,,276247.7000002861,276247.59999990463,,276247.2000002861,,276274.282,8,400,,,
break_continue,html.Screen,4_39_2,2023-09-11T19:09:01.889Z,,0,,,NaN,,,,,,false,,,,276247.90000009537,276247.90000009537,,276247.7000002861,,276274.282,8,400,,,
sequence,flow.Sequence,4_39,2023-09-11T19:09:01.889Z,,0,,,4181.8940000953735,completion,,,,,false,,,,276248,276247.90000009537,272049.499,272037.2000002861,272066.006,276274.282,8,400,,,
trial,html.Screen,4_40_0,2023-09-11T19:09:09.556Z,,0,1,,7639.817999904626,response,ISIC_0027171.JPG,5,ISIC_0032747.JPG,ISIC_0032747.JPG,false,0,keypress(z),500,283914.30000019073,283914.09999990463,276257.516,276248.09999990463,276274.282,283922.409,8,400,41,,ISIC_0027171.JPG
break,html.Screen,4_40_1,2023-09-11T19:09:09.556Z,,0,,,NaN,,,,,,false,,,,283915.09999990463,283914.90000009537,,283914.5,,283922.409,8,400,,,
break_continue,html.Screen,4_40_2,2023-09-11T19:09:09.557Z,,0,,,NaN,,,,,,false,,,,283915.5,283915.40000009537,,283915.30000019073,,283922.409,8,400,,,
sequence,flow.Sequence,4_40,2023-09-11T19:09:09.557Z,,0,,,7641.118000095361,completion,,,,,false,,,,283915.59999990463,283915.40000009537,276257.516,276248.09999990463,276274.282,283922.409,8,400,,,
trial,html.Screen,4_41_0,2023-09-11T19:09:15.862Z,,0,1,,6298.39100019075,response,ISIC_6002694.JPG,5,ISIC_0438136.JPG,ISIC_0438136.JPG,false,0,keypress(z),500,290220.90000009537,290220.80000019073,283905.816,283915.80000019073,283922.409,290251.412,8,400,42,,ISIC_6002694.JPG
break,html.Screen,4_41_1,2023-09-11T19:09:15.863Z,,0,,,NaN,,,,,,false,,,,290221.40000009537,290221.30000019073,,290221.09999990463,,290251.412,8,400,,,
break_continue,html.Screen,4_41_2,2023-09-11T19:09:15.863Z,,0,,,NaN,,,,,,false,,,,290221.7000002861,290221.59999990463,,290221.5,,290251.412,8,400,,,
sequence,flow.Sequence,4_41,2023-09-11T19:09:15.863Z,,0,,,6299.1909999046475,completion,,,,,false,,,,290221.80000019073,290221.59999990463,283905.816,283915.80000019073,283922.409,290251.412,8,400,,,
trial,html.Screen,4_42_0,2023-09-11T19:09:21.386Z,,0,1,,5492.587999999989,response,ISIC_0770920.JPG,4,ISIC_4372519.JPG,ISIC_4372519.JPG,false,0,keypress(z),500,295744.40000009537,295744,290234.77,290221.90000009537,290251.412,295762.097,8,400,43,,ISIC_0770920.JPG
break,html.Screen,4_42_1,2023-09-11T19:09:21.388Z,,0,,,NaN,,,,,,false,,,,295747.09999990463,295746.2000002861,,295744.90000009537,,295762.097,8,400,,,
break_continue,html.Screen,4_42_2,2023-09-11T19:09:21.390Z,,0,,,NaN,,,,,,false,,,,295749,295748.40000009537,,295747.90000009537,,295762.097,8,400,,,
sequence,flow.Sequence,4_42,2023-09-11T19:09:21.391Z,,0,,,5496.988000095356,completion,,,,,false,,,,295749.30000019073,295748.40000009537,290234.77,290221.90000009537,290251.412,295762.097,8,400,,,
trial,html.Screen,4_43_0,2023-09-11T19:09:24.898Z,,0,1,,3494.3030000953586,response,ISIC_0028317.JPG,6,ISIC_0026889.JPG,ISIC_0026889.JPG,false,0,keypress(z),500,299256.80000019073,299256.40000009537,295745.482,295749.7000002861,295762.097,299285.935,8,400,44,,ISIC_0028317.JPG
break,html.Screen,4_43_1,2023-09-11T19:09:24.900Z,,0,,,NaN,,,,,,false,,,,299258.40000009537,299258,,299257.2000002861,,299285.935,8,400,,,
break_continue,html.Screen,4_43_2,2023-09-11T19:09:24.901Z,,0,,,NaN,,,,,,false,,,,299259.7000002861,299258.90000009537,,299258.59999990463,,299285.935,8,400,,,
sequence,flow.Sequence,4_43,2023-09-11T19:09:24.902Z,,0,,,3496.8030000953586,completion,,,,,false,,,,299260.2000002861,299258.90000009537,295745.482,295749.59999990463,295762.097,299285.935,8,400,,,
trial,html.Screen,4_44_0,2023-09-11T19:09:28.840Z,,0,1,,3912.4650000953698,response,ISIC_0033273.JPG,5,ISIC_0024449.JPG,ISIC_0033273.JPG,false,1,keypress(m),500,303198.40000009537,303198.40000009537,299268.998,299260.5,299285.935,303209.943,8,400,45,,ISIC_0024449.JPG
break,html.Screen,4_44_1,2023-09-11T19:09:28.840Z,,0,,,NaN,,,,,,false,,,,303198.90000009537,303198.7000002861,,303198.59999990463,,303209.943,8,400,,,
break_continue,html.Screen,4_44_2,2023-09-11T19:09:28.840Z,,0,,,NaN,,,,,,false,,,,303199.09999990463,303199,,303198.90000009537,,303209.943,8,400,,,
sequence,flow.Sequence,4_44,2023-09-11T19:09:28.840Z,,0,,,3913.0650000000023,completion,,,,,false,,,,303199.2000002861,303199,299268.998,299260.5,299285.935,303209.943,8,400,,,
trial,html.Screen,4_45_0,2023-09-11T19:09:32.062Z,,0,1,,3210.656999904604,response,ISIC_0027936.JPG,5,ISIC_0046416.JPG,ISIC_0027936.JPG,false,1,keypress(m),500,306420.7000002861,306420.59999990463,303193.209,303199.2000002861,303209.943,306432.896,8,400,46,,ISIC_0046416.JPG
break,html.Screen,4_45_1,2023-09-11T19:09:32.062Z,,0,,,NaN,,,,,,false,,,,306421.2000002861,306421,,306420.80000019073,,306432.896,8,400,,,
break_continue,html.Screen,4_45_2,2023-09-11T19:09:32.063Z,,0,,,NaN,,,,,,false,,,,306421.40000009537,306421.40000009537,,306421.30000019073,,306432.896,8,400,,,
sequence,flow.Sequence,4_45,2023-09-11T19:09:32.063Z,,0,,,3211.457000095339,completion,,,,,false,,,,306421.5,306421.40000009537,303193.209,303199.2000002861,303209.943,306432.896,8,400,,,
trial,html.Screen,4_46_0,2023-09-11T19:09:36.321Z,,0,1,,4246.5040000953595,response,ISIC_0025757.JPG,5,ISIC_5223096.JPG,ISIC_5223096.JPG,false,0,keypress(z),500,310679.59999990463,310679.40000009537,306416.277,306421.5,306432.896,310691.181,8,400,47,,ISIC_0025757.JPG
break,html.Screen,4_46_1,2023-09-11T19:09:36.321Z,,0,,,NaN,,,,,,false,,,,310680.09999990463,310680,,310679.7000002861,,310691.181,8,400,,,
break_continue,html.Screen,4_46_2,2023-09-11T19:09:36.322Z,,0,,,NaN,,,,,,false,,,,310680.30000019073,310680.2000002861,,310680.09999990463,,310691.181,8,400,,,
sequence,flow.Sequence,4_46,2023-09-11T19:09:36.322Z,,0,,,4247.304000286094,completion,,,,,false,,,,310680.30000019073,310680.2000002861,306416.277,306421.5,306432.896,310691.181,8,400,,,
trial,html.Screen,4_47_0,2023-09-11T19:09:42.307Z,,0,1,,5974.51900028612,response,ISIC_0031221.JPG,5,ISIC_0443835.JPG,ISIC_0443835.JPG,false,0,keypress(z),500,316666,316665.7000002861,310674.444,310680.40000009537,310691.181,316669.505,8,400,48,,ISIC_0031221.JPG
break,html.Screen,4_47_1,2023-09-11T19:09:42.308Z,,0,,,NaN,,,,,,false,,,,316666.80000019073,316666.5,,316666.09999990463,,316669.505,8,400,,,
break_continue,html.Screen,4_47_2,2023-09-11T19:09:42.308Z,,0,,,NaN,,,,,,false,,,,316667.2000002861,316667.09999990463,,316666.90000009537,,316669.505,8,400,,,
sequence,flow.Sequence,4_47,2023-09-11T19:09:42.309Z,,0,,,5975.91899990465,completion,,,,,false,,,,316667.30000019073,316667.09999990463,310674.444,310680.40000009537,310691.181,316669.505,8,400,,,
trial,html.Screen,4_48_0,2023-09-11T19:09:48.726Z,,0,1,,6415.29500019073,response,ISIC_9944671.JPG,6,ISIC_0032019.JPG,ISIC_9944671.JPG,false,1,keypress(m),500,323084.80000019073,323084.80000019073,316652.782,316667.5,316669.505,323115.353,8,400,49,,ISIC_0032019.JPG
break,html.Screen,4_48_1,2023-09-11T19:09:48.727Z,,0,,,NaN,,,,,,false,,,,323085.30000019073,323085.09999990463,,323084.90000009537,,323115.353,8,400,,,
break_continue,html.Screen,4_48_2,2023-09-11T19:09:48.727Z,,0,,,NaN,,,,,,false,,,,323085.5,323085.40000009537,,323085.40000009537,,323115.353,8,400,,,
sequence,flow.Sequence,4_48,2023-09-11T19:09:48.727Z,,0,,,6415.895000095363,completion,,,,,false,,,,323085.59999990463,323085.40000009537,316652.782,316667.40000009537,316669.505,323115.353,8,400,,,
trial,html.Screen,4_49_0,2023-09-11T19:09:53.936Z,,0,1,,5178.8470002860995,response,ISIC_0014598.JPG,5,ISIC_5509212.JPG,ISIC_5509212.JPG,false,0,keypress(z),500,328294.40000009537,328294.2000002861,323098.66,323085.59999990463,323115.353,328308.919,8,400,50,,ISIC_0014598.JPG
break,html.Screen,4_49_1,2023-09-11T19:10:03.938Z,,0,,,10002.745999999985,timeout,,,,,false,,,,338296.2000002861,338294.979,328292.199,328294.80000019073,328308.919,338311.665,8,400,,,
break_continue,html.Screen,4_49_2,2023-09-11T19:10:06.751Z,,0,,,2791.335000000021,response,,,,,false,continue,keypress(Space),,341109.40000009537,341103,338294.979,338296.30000019073,338311.665,341133.763,8,400,,,
sequence,flow.Sequence,4_49,2023-09-11T19:10:06.751Z,,0,,,17987.646999999997,completion,,,,,false,,,,341109.5,341103,323098.66,323085.59999990463,323115.353,341133.763,8,400,,,
trial,html.Screen,4_50_0,2023-09-11T19:10:09.718Z,,0,2,,2942.237000000023,response,ISIC_9134453.JPG,4,ISIC_0067206.JPG,ISIC_9134453.JPG,false,1,keypress(m),500,344076.2000002861,344076,341117.006,341109.59999990463,341133.763,344106.219,8,400,1,,ISIC_0067206.JPG
break,html.Screen,4_50_1,2023-09-11T19:10:09.718Z,,0,,,NaN,,,,,,false,,,,344076.80000019073,344076.59999990463,,344076.30000019073,,344106.219,8,400,,,
break_continue,html.Screen,4_50_2,2023-09-11T19:10:09.719Z,,0,,,NaN,,,,,,false,,,,344077.09999990463,344077,,344076.90000009537,,344106.219,8,400,,,
sequence,flow.Sequence,4_50,2023-09-11T19:10:09.719Z,,0,,,2943.237000000023,completion,,,,,false,,,,344077.2000002861,344077,341117.006,341109.59999990463,341133.763,344106.219,8,400,,,
trial,html.Screen,4_51_0,2023-09-11T19:10:13.801Z,,0,2,,4052.581000190752,response,ISIC_0002578.JPG,7,ISIC_5793600.JPG,ISIC_5793600.JPG,false,0,keypress(z),500,348159,348158.80000019073,344089.561,344077.30000019073,344106.219,348180.898,8,400,2,,ISIC_0002578.JPG
break,html.Screen,4_51_1,2023-09-11T19:10:13.801Z,,0,,,NaN,,,,,,false,,,,348159.40000009537,348159.30000019073,,348159,,348180.898,8,400,,,
break_continue,html.Screen,4_51_2,2023-09-11T19:10:13.801Z,,0,,,NaN,,,,,,false,,,,348159.59999990463,348159.59999990463,,348159.5,,348180.898,8,400,,,
sequence,flow.Sequence,4_51,2023-09-11T19:10:13.801Z,,0,,,4053.38099990465,completion,,,,,false,,,,348159.7000002861,348159.59999990463,344089.561,344077.30000019073,344106.219,348180.898,8,400,,,
trial,html.Screen,4_52_0,2023-09-11T19:10:18.178Z,,0,2,,4355.402000190748,response,ISIC_0012883.JPG,5,ISIC_0062382.JPG,ISIC_0012883.JPG,false,1,keypress(m),500,352536.7000002861,352536.30000019073,348164.177,348159.7000002861,348180.898,352539.417,8,400,3,,ISIC_0062382.JPG
break,html.Screen,4_52_1,2023-09-11T19:10:18.180Z,,0,,,NaN,,,,,,false,,,,352538.30000019073,352537.90000009537,,352537.09999990463,,352539.417,8,400,,,
break_continue,html.Screen,4_52_2,2023-09-11T19:10:18.181Z,,0,,,NaN,,,,,,false,,,,352539,352538.80000019073,,352538.5,,352539.417,8,400,,,
sequence,flow.Sequence,4_52,2023-09-11T19:10:18.181Z,,0,,,4357.902000190748,completion,,,,,false,,,,352539.40000009537,352538.80000019073,348164.177,348159.7000002861,348180.898,352539.417,8,400,,,
trial,html.Screen,4_53_0,2023-09-11T19:10:22.319Z,,0,2,,4137.483000095352,response,ISIC_0000310.JPG,5,ISIC_3432650.JPG,ISIC_3432650.JPG,false,0,keypress(z),500,356677.09999990463,356676.90000009537,352522.735,352539.90000009537,352539.417,356697.345,8,400,4,,ISIC_0000310.JPG
break,html.Screen,4_53_1,2023-09-11T19:10:22.319Z,,0,,,NaN,,,,,,false,,,,356677.59999990463,356677.40000009537,,356677.2000002861,,356697.345,8,400,,,
break_continue,html.Screen,4_53_2,2023-09-11T19:10:22.319Z,,0,,,NaN,,,,,,false,,,,356677.80000019073,356677.7000002861,,356677.59999990463,,356697.345,8,400,,,
sequence,flow.Sequence,4_53,2023-09-11T19:10:22.320Z,,0,,,4138.2830002860865,completion,,,,,false,,,,356677.80000019073,356677.7000002861,352522.735,352539.59999990463,352539.417,356697.345,8,400,,,
trial,html.Screen,4_54_0,2023-09-11T19:10:27.346Z,,0,2,,5006.955000190763,response,ISIC_6570611.JPG,5,ISIC_3495113.JPG,ISIC_6570611.JPG,false,1,keypress(m),500,361704.40000009537,361704.30000019073,356680.737,356677.90000009537,356697.345,361707.098,8,400,5,,ISIC_3495113.JPG
break,html.Screen,4_54_1,2023-09-11T19:10:27.347Z,,0,,,NaN,,,,,,false,,,,361704.90000009537,361704.7000002861,,361704.5,,361707.098,8,400,,,
break_continue,html.Screen,4_54_2,2023-09-11T19:10:27.347Z,,0,,,NaN,,,,,,false,,,,361705.09999990463,361705.09999990463,,361704.90000009537,,361707.098,8,400,,,
sequence,flow.Sequence,4_54,2023-09-11T19:10:27.347Z,,0,,,5007.7549999046605,completion,,,,,false,,,,361705.2000002861,361705.09999990463,356680.737,356677.90000009537,356697.345,361707.098,8,400,,,
trial,html.Screen,4_55_0,2023-09-11T19:10:32.248Z,,0,2,,4898.402000000002,response,ISIC_3909443.JPG,5,ISIC_0010981.JPG,ISIC_3909443.JPG,false,1,keypress(m),500,366606,366605.5,361690.522,361705.2000002861,361707.098,366633.401,8,400,6,,ISIC_0010981.JPG
break,html.Screen,4_55_1,2023-09-11T19:10:32.249Z,,0,,,NaN,,,,,,false,,,,366607.5,366607.09999990463,,366606.40000009537,,366633.401,8,400,,,
break_continue,html.Screen,4_55_2,2023-09-11T19:10:32.250Z,,0,,,NaN,,,,,,false,,,,366608.30000019073,366608.09999990463,,366607.80000019073,,366633.401,8,400,,,
sequence,flow.Sequence,4_55,2023-09-11T19:10:32.250Z,,0,,,4901.001999904634,completion,,,,,false,,,,366608.7000002861,366608.09999990463,361690.522,361705.2000002861,361707.098,366633.401,8,400,,,
trial,html.Screen,4_56_0,2023-09-11T19:10:37.185Z,,0,2,,4909.79900028609,response,ISIC_6570611.JPG,6,ISIC_9104843.JPG,ISIC_6570611.JPG,false,1,keypress(m),500,371543.30000019073,371543.2000002861,366616.815,366608.90000009537,366633.401,371559.626,8,400,7,,ISIC_9104843.JPG
break,html.Screen,4_56_1,2023-09-11T19:10:37.186Z,,0,,,NaN,,,,,,false,,,,371543.90000009537,371543.80000019073,,371543.5,,371559.626,8,400,,,
break_continue,html.Screen,4_56_2,2023-09-11T19:10:37.186Z,,0,,,NaN,,,,,,false,,,,371544.30000019073,371544.30000019073,,371544,,371559.626,8,400,,,
sequence,flow.Sequence,4_56,2023-09-11T19:10:37.186Z,,0,,,4910.899000190722,completion,,,,,false,,,,371544.5,371544.30000019073,366616.815,366608.80000019073,366633.401,371559.626,8,400,,,
trial,html.Screen,4_57_0,2023-09-11T19:10:43.923Z,,0,2,,6721.774000095378,response,ISIC_0032509.JPG,4,ISIC_9562442.JPG,ISIC_9562442.JPG,false,0,keypress(z),500,378281.5,378281.40000009537,371542.919,371544.5,371559.626,378306.101,8,400,8,,ISIC_0032509.JPG
break,html.Screen,4_57_1,2023-09-11T19:10:43.924Z,,0,,,NaN,,,,,,false,,,,378282,378281.90000009537,,378281.59999990463,,378306.101,8,400,,,
break_continue,html.Screen,4_57_2,2023-09-11T19:10:43.924Z,,0,,,NaN,,,,,,false,,,,378282.40000009537,378282.30000019073,,378282.09999990463,,378306.101,8,400,,,
sequence,flow.Sequence,4_57,2023-09-11T19:10:43.924Z,,0,,,6722.674000190746,completion,,,,,false,,,,378282.5,378282.30000019073,371542.919,371544.5,371559.626,378306.101,8,400,,,
trial,html.Screen,4_58_0,2023-09-11T19:10:49.257Z,,0,2,,5308.799000095343,response,ISIC_0025996.JPG,5,ISIC_0024688.JPG,ISIC_0024688.JPG,false,0,keypress(z),500,383615,383614.90000009537,378289.408,378282.59999990463,378306.101,383616.434,8,400,9,,ISIC_0025996.JPG
break,html.Screen,4_58_1,2023-09-11T19:10:49.257Z,,0,,,NaN,,,,,,false,,,,383615.59999990463,383615.5,,383615.2000002861,,383616.434,8,400,,,
break_continue,html.Screen,4_58_2,2023-09-11T19:10:49.258Z,,0,,,NaN,,,,,,false,,,,383615.90000009537,383615.80000019073,,383615.7000002861,,383616.434,8,400,,,
sequence,flow.Sequence,4_58,2023-09-11T19:10:49.258Z,,0,,,5309.699000190711,completion,,,,,false,,,,383616.09999990463,383615.80000019073,378289.408,378282.59999990463,378306.101,383616.434,8,400,,,
trial,html.Screen,4_59_0,2023-09-11T19:10:55.020Z,,0,2,,5761.565999999992,response,ISIC_1885174.JPG,5,ISIC_0024607.JPG,ISIC_0024607.JPG,false,0,keypress(z),500,389378.09999990463,389378,383599.901,383616.09999990463,383616.434,389394.318,8,400,10,,ISIC_1885174.JPG
break,html.Screen,4_59_1,2023-09-11T19:10:55.020Z,,0,,,NaN,,,,,,false,,,,389378.5,389378.40000009537,,389378.2000002861,,389394.318,8,400,,,
break_continue,html.Screen,4_59_2,2023-09-11T19:10:55.020Z,,0,,,NaN,,,,,,false,,,,389378.7000002861,389378.59999990463,,389378.5,,389394.318,8,400,,,
sequence,flow.Sequence,4_59,2023-09-11T19:10:55.020Z,,0,,,5762.165999904624,completion,,,,,false,,,,389378.7000002861,389378.59999990463,383599.901,383616.09999990463,383616.434,389394.318,8,400,,,
trial,html.Screen,4_60_0,2023-09-11T19:11:01.729Z,,0,2,,6690.281999904604,response,ISIC_7124160.JPG,4,ISIC_7080584.JPG,ISIC_7080584.JPG,false,0,keypress(z),500,396084.90000009537,396084.59999990463,389377.734,389378.80000019073,389394.318,396107.386,8,400,11,,ISIC_7124160.JPG
break,html.Screen,4_60_1,2023-09-11T19:11:01.730Z,,0,,,NaN,,,,,,false,,,,396086.5,396086,,396085.40000009537,,396107.386,8,400,,,
break_continue,html.Screen,4_60_2,2023-09-11T19:11:01.731Z,,0,,,NaN,,,,,,false,,,,396087.2000002861,396087,,396086.7000002861,,396107.386,8,400,,,
sequence,flow.Sequence,4_60,2023-09-11T19:11:01.731Z,,0,,,6692.681999999972,completion,,,,,false,,,,396087.59999990463,396087,389377.734,389378.80000019073,389394.318,396107.386,8,400,,,
trial,html.Screen,4_61_0,2023-09-11T19:11:06.567Z,,0,2,,4816.014000095369,response,ISIC_0032629.JPG,5,ISIC_0061643.JPG,ISIC_0032629.JPG,false,1,keypress(m),500,400923.40000009537,400923.40000009537,396090.736,396087.90000009537,396107.386,400950.172,8,400,12,,ISIC_0061643.JPG
break,html.Screen,4_61_1,2023-09-11T19:11:06.567Z,,0,,,NaN,,,,,,false,,,,400923.90000009537,400923.80000019073,,400923.59999990463,,400950.172,8,400,,,
break_continue,html.Screen,4_61_2,2023-09-11T19:11:06.568Z,,0,,,NaN,,,,,,false,,,,400924,400924,,400923.90000009537,,400950.172,8,400,,,
sequence,flow.Sequence,4_61,2023-09-11T19:11:06.568Z,,0,,,4816.614000000001,completion,,,,,false,,,,400924.09999990463,400924,396090.736,396087.7000002861,396107.386,400950.172,8,400,,,
trial,html.Screen,4_62_0,2023-09-11T19:11:10.721Z,,0,2,,4127.028000286082,response,ISIC_7629589.JPG,5,ISIC_0007749.JPG,ISIC_0007749.JPG,false,0,keypress(z),500,405077.40000009537,405077.2000002861,400933.612,400924.09999990463,400950.172,405091.572,8,400,13,,ISIC_7629589.JPG
break,html.Screen,4_62_1,2023-09-11T19:11:10.722Z,,0,,,NaN,,,,,,false,,,,405078.40000009537,405078.09999990463,,405077.59999990463,,405091.572,8,400,,,
break_continue,html.Screen,4_62_2,2023-09-11T19:11:10.722Z,,0,,,NaN,,,,,,false,,,,405078.80000019073,405078.7000002861,,405078.5,,405091.572,8,400,,,
sequence,flow.Sequence,4_62,2023-09-11T19:11:10.723Z,,0,,,4128.528000286082,completion,,,,,false,,,,405079.09999990463,405078.7000002861,400933.612,400924.09999990463,400950.172,405091.572,8,400,,,
trial,html.Screen,4_63_0,2023-09-11T19:11:15.222Z,,0,2,,4486.428000000014,response,ISIC_0056316.JPG,4,ISIC_6606767.JPG,ISIC_6606767.JPG,false,0,keypress(z),500,409578.2000002861,409578,405074.914,405079.30000019073,405091.572,409583.615,8,400,14,,ISIC_0056316.JPG
break,html.Screen,4_63_1,2023-09-11T19:11:15.223Z,,0,,,NaN,,,,,,false,,,,409579.09999990463,409578.90000009537,,409578.40000009537,,409583.615,8,400,,,
break_continue,html.Screen,4_63_2,2023-09-11T19:11:15.223Z,,0,,,NaN,,,,,,false,,,,409579.40000009537,409579.40000009537,,409579.2000002861,,409583.615,8,400,,,
sequence,flow.Sequence,4_63,2023-09-11T19:11:15.223Z,,0,,,4487.828000095382,completion,,,,,false,,,,409579.59999990463,409579.40000009537,405074.914,405079.2000002861,405091.572,409583.615,8,400,,,
trial,html.Screen,4_64_0,2023-09-11T19:11:20.872Z,,0,2,,5644.984999904642,response,ISIC_0029716.JPG,5,ISIC_5482805.JPG,ISIC_5482805.JPG,false,0,keypress(z),500,415228.80000019073,415228.59999990463,409567.071,409579.59999990463,409583.615,415244.697,8,400,15,,ISIC_0029716.JPG
break,html.Screen,4_64_1,2023-09-11T19:11:20.873Z,,0,,,NaN,,,,,,false,,,,415229.5,415229.2000002861,,415229,,415244.697,8,400,,,
break_continue,html.Screen,4_64_2,2023-09-11T19:11:20.874Z,,0,,,NaN,,,,,,false,,,,415230,415229.90000009537,,415229.7000002861,,415244.697,8,400,,,
sequence,flow.Sequence,4_64,2023-09-11T19:11:20.874Z,,0,,,5646.285000095377,completion,,,,,false,,,,415230.09999990463,415229.90000009537,409567.071,409579.59999990463,409583.615,415244.697,8,400,,,
trial,html.Screen,4_65_0,2023-09-11T19:11:27.404Z,,0,2,,6515.503000286117,response,ISIC_8436666.JPG,5,ISIC_0059626.JPG,ISIC_8436666.JPG,false,1,keypress(m),500,421760.40000009537,421760.2000002861,415228.057,415230.2000002861,415244.697,421773.982,8,400,16,,ISIC_0059626.JPG
break,html.Screen,4_65_1,2023-09-11T19:11:27.404Z,,0,,,NaN,,,,,,false,,,,421760.90000009537,421760.80000019073,,421760.5,,421773.982,8,400,,,
break_continue,html.Screen,4_65_2,2023-09-11T19:11:27.405Z,,0,,,NaN,,,,,,false,,,,421761.2000002861,421761,,421761,,421773.982,8,400,,,
sequence,flow.Sequence,4_65,2023-09-11T19:11:27.405Z,,0,,,6516.303000000014,completion,,,,,false,,,,421761.30000019073,421761,415228.057,415230.2000002861,415244.697,421773.982,8,400,,,
trial,html.Screen,4_66_0,2023-09-11T19:11:31.647Z,,0,2,,4229.517999999982,response,ISIC_0005291.JPG,5,ISIC_0817140.JPG,ISIC_0005291.JPG,false,1,keypress(m),500,426003.59999990463,426003.5,421757.318,421761.40000009537,421773.982,426015.61,8,400,17,,ISIC_0817140.JPG
break,html.Screen,4_66_1,2023-09-11T19:11:31.648Z,,0,,,NaN,,,,,,false,,,,426004,426003.90000009537,,426003.7000002861,,426015.61,8,400,,,
break_continue,html.Screen,4_66_2,2023-09-11T19:11:31.648Z,,0,,,NaN,,,,,,false,,,,426004.2000002861,426004.09999990463,,426004.09999990463,,426015.61,8,400,,,
sequence,flow.Sequence,4_66,2023-09-11T19:11:31.648Z,,0,,,4230.117999904614,completion,,,,,false,,,,426004.30000019073,426004.09999990463,421757.318,421761.40000009537,421773.982,426015.61,8,400,,,
trial,html.Screen,4_67_0,2023-09-11T19:11:36.721Z,,0,2,,5061.390000000014,response,ISIC_0033044.JPG,5,ISIC_0033986.JPG,ISIC_0033044.JPG,false,1,keypress(m),500,431077.09999990463,431077,425998.97,426004.30000019073,426015.61,431092.11,8,400,18,,ISIC_0033986.JPG
break,html.Screen,4_67_1,2023-09-11T19:11:36.721Z,,0,,,NaN,,,,,,false,,,,431077.5,431077.40000009537,,431077.2000002861,,431092.11,8,400,,,
break_continue,html.Screen,4_67_2,2023-09-11T19:11:36.721Z,,0,,,NaN,,,,,,false,,,,431077.7000002861,431077.59999990463,,431077.59999990463,,431092.11,8,400,,,
sequence,flow.Sequence,4_67,2023-09-11T19:11:36.721Z,,0,,,5061.9899999046465,completion,,,,,false,,,,431077.80000019073,431077.59999990463,425998.97,426004.30000019073,426015.61,431092.11,8,400,,,
trial,html.Screen,4_68_0,2023-09-11T19:11:44.487Z,,0,2,,7751.4899999046465,response,ISIC_0060716.JPG,5,ISIC_9122215.JPG,ISIC_0060716.JPG,false,1,keypress(m),500,438843.7000002861,438843.59999990463,431075.551,431077.80000019073,431092.11,438857.316,8,400,19,,ISIC_9122215.JPG
break,html.Screen,4_68_1,2023-09-11T19:11:44.488Z,,0,,,NaN,,,,,,false,,,,438844.09999990463,438844,,438843.90000009537,,438857.316,8,400,,,
break_continue,html.Screen,4_68_2,2023-09-11T19:11:44.488Z,,0,,,NaN,,,,,,false,,,,438844.30000019073,438844.30000019073,,438844.2000002861,,438857.316,8,400,,,
sequence,flow.Sequence,4_68,2023-09-11T19:11:44.488Z,,0,,,7752.190000190749,completion,,,,,false,,,,438844.40000009537,438844.30000019073,431075.551,431077.80000019073,431092.11,438857.316,8,400,,,
trial,html.Screen,4_69_0,2023-09-11T19:11:49.609Z,,0,2,,5107.884000286111,response,ISIC_0016043.JPG,5,ISIC_0059421.JPG,ISIC_0016043.JPG,false,1,keypress(m),500,443965.30000019073,443965.2000002861,438840.634,438844.40000009537,438857.316,443983.841,8,400,20,,ISIC_0059421.JPG
break,html.Screen,4_69_1,2023-09-11T19:11:49.609Z,,0,,,NaN,,,,,,false,,,,443965.7000002861,443965.59999990463,,443965.30000019073,,443983.841,8,400,,,
break_continue,html.Screen,4_69_2,2023-09-11T19:11:49.609Z,,0,,,NaN,,,,,,false,,,,443965.80000019073,443965.80000019073,,443965.7000002861,,443983.841,8,400,,,
sequence,flow.Sequence,4_69,2023-09-11T19:11:49.609Z,,0,,,5108.484000190743,completion,,,,,false,,,,443965.90000009537,443965.80000019073,438840.634,438844.40000009537,438857.316,443983.841,8,400,,,
trial,html.Screen,4_70_0,2023-09-11T19:11:53.312Z,,0,2,,3684.158999999985,response,ISIC_3779093.JPG,4,ISIC_0055293.JPG,ISIC_3779093.JPG,false,1,keypress(m),500,447668.2000002861,447668,443967.195,443965.90000009537,443983.841,447691.102,8,400,21,,ISIC_0055293.JPG
break,html.Screen,4_70_1,2023-09-11T19:11:53.312Z,,0,,,NaN,,,,,,false,,,,447668.59999990463,447668.5,,447668.30000019073,,447691.102,8,400,,,
break_continue,html.Screen,4_70_2,2023-09-11T19:11:53.312Z,,0,,,NaN,,,,,,false,,,,447668.80000019073,447668.80000019073,,447668.7000002861,,447691.102,8,400,,,
sequence,flow.Sequence,4_70,2023-09-11T19:11:53.312Z,,0,,,3684.95900019072,completion,,,,,false,,,,447668.80000019073,447668.80000019073,443967.195,443965.90000009537,443983.841,447691.102,8,400,,,
trial,html.Screen,4_71_0,2023-09-11T19:11:57.656Z,,0,2,,4321.497999904619,response,ISIC_5666345.JPG,6,ISIC_8458843.JPG,ISIC_5666345.JPG,false,1,keypress(m),500,452012.80000019073,452012.59999990463,447674.478,447669,447691.102,452016.179,8,400,22,,ISIC_8458843.JPG
break,html.Screen,4_71_1,2023-09-11T19:11:57.657Z,,0,,,NaN,,,,,,false,,,,452013.40000009537,452013.2000002861,,452013,,452016.179,8,400,,,
break_continue,html.Screen,4_71_2,2023-09-11T19:11:57.657Z,,0,,,NaN,,,,,,false,,,,452013.7000002861,452013.59999990463,,452013.5,,452016.179,8,400,,,
sequence,flow.Sequence,4_71,2023-09-11T19:11:57.657Z,,0,,,4322.497999904619,completion,,,,,false,,,,452013.80000019073,452013.59999990463,447674.478,447668.90000009537,447691.102,452016.179,8,400,,,
trial,html.Screen,4_72_0,2023-09-11T19:12:03.123Z,,0,2,,5461.721000095364,response,ISIC_0644590.JPG,6,ISIC_5658900.JPG,ISIC_5658900.JPG,false,0,keypress(z),500,457478.09999990463,457477.90000009537,451999.677,452014,452016.179,457493.528,8,400,23,,ISIC_0644590.JPG
break,html.Screen,4_72_1,2023-09-11T19:12:03.123Z,,0,,,NaN,,,,,,false,,,,457478.80000019073,457478.59999990463,,457478.30000019073,,457493.528,8,400,,,
break_continue,html.Screen,4_72_2,2023-09-11T19:12:03.124Z,,0,,,NaN,,,,,,false,,,,457479.09999990463,457479.09999990463,,457478.90000009537,,457493.528,8,400,,,
sequence,flow.Sequence,4_72,2023-09-11T19:12:03.124Z,,0,,,5462.920999904629,completion,,,,,false,,,,457479.2000002861,457479.09999990463,451999.677,452013.90000009537,452016.179,457493.528,8,400,,,
trial,html.Screen,4_73_0,2023-09-11T19:12:09.801Z,,0,2,,6662.672000286111,response,ISIC_3198731.JPG,5,ISIC_2321671.JPG,ISIC_3198731.JPG,false,1,keypress(m),500,464156.30000019073,464156.2000002861,457476.996,457479.30000019073,457493.528,464173.182,8,400,24,,ISIC_2321671.JPG
break,html.Screen,4_73_1,2023-09-11T19:12:09.802Z,,0,,,NaN,,,,,,false,,,,464157,464156.90000009537,,464156.5,,464173.182,8,400,,,
break_continue,html.Screen,4_73_2,2023-09-11T19:12:09.802Z,,0,,,NaN,,,,,,false,,,,464157.2000002861,464157.2000002861,,464157.09999990463,,464173.182,8,400,,,
sequence,flow.Sequence,4_73,2023-09-11T19:12:09.802Z,,0,,,6663.672000286111,completion,,,,,false,,,,464157.40000009537,464157.2000002861,457476.996,457479.30000019073,457493.528,464173.182,8,400,,,
trial,html.Screen,4_74_0,2023-09-11T19:12:15.358Z,,0,2,,5540.118000190763,response,ISIC_3161477.JPG,5,ISIC_0024675.JPG,ISIC_3161477.JPG,false,1,keypress(m),500,469713.40000009537,469713.30000019073,464156.584,464157.40000009537,464173.182,469734.39,8,400,25,,ISIC_0024675.JPG
break,html.Screen,4_74_1,2023-09-11T19:12:15.358Z,,0,,,NaN,,,,,,false,,,,469713.80000019073,469713.59999990463,,469713.40000009537,,469734.39,8,400,,,
break_continue,html.Screen,4_74_2,2023-09-11T19:12:15.359Z,,0,,,NaN,,,,,,false,,,,469713.90000009537,469713.90000009537,,469713.80000019073,,469734.39,8,400,,,
sequence,flow.Sequence,4_74,2023-09-11T19:12:15.359Z,,0,,,5540.718000095396,completion,,,,,false,,,,469714,469713.90000009537,464156.584,464157.40000009537,464173.182,469734.39,8,400,,,
trial,html.Screen,4_75_0,2023-09-11T19:12:20.337Z,,0,2,,4957.810000286088,response,ISIC_3941147.JPG,5,ISIC_0000314.JPG,ISIC_3941147.JPG,false,1,keypress(m),500,474692.40000009537,474692.2000002861,469717.332,469714.09999990463,469734.39,474693.669,8,400,26,,ISIC_0000314.JPG
break,html.Screen,4_75_1,2023-09-11T19:12:20.338Z,,0,,,NaN,,,,,,false,,,,474693.59999990463,474693.30000019073,,474692.7000002861,,474693.669,8,400,,,
break_continue,html.Screen,4_75_2,2023-09-11T19:12:20.339Z,,0,,,NaN,,,,,,false,,,,474694.59999990463,474694.30000019073,,474693.59999990463,,474693.669,8,400,,,
sequence,flow.Sequence,4_75,2023-09-11T19:12:20.340Z,,0,,,4959.910000190721,completion,,,,,false,,,,474694.90000009537,474694.30000019073,469717.332,469714.09999990463,469734.39,474693.669,8,400,,,
trial,html.Screen,4_76_0,2023-09-11T19:12:25.110Z,,0,2,,4771.531000286108,response,ISIC_5547318.JPG,4,ISIC_5022895.JPG,ISIC_5022895.JPG,false,0,keypress(z),500,479465.30000019073,479465.2000002861,474677.056,474695.2000002861,474693.669,479469.635,8,400,27,,ISIC_5547318.JPG
break,html.Screen,4_76_1,2023-09-11T19:12:25.111Z,,0,,,NaN,,,,,,false,,,,479466.09999990463,479465.80000019073,,479465.5,,479469.635,8,400,,,
break_continue,html.Screen,4_76_2,2023-09-11T19:12:25.111Z,,0,,,NaN,,,,,,false,,,,479466.40000009537,479466.40000009537,,479466.2000002861,,479469.635,8,400,,,
sequence,flow.Sequence,4_76,2023-09-11T19:12:25.111Z,,0,,,4772.731000095373,completion,,,,,false,,,,479466.5,479466.40000009537,474677.056,474695.09999990463,474693.669,479469.635,8,400,,,
trial,html.Screen,4_77_0,2023-09-11T19:12:30.346Z,,0,2,,5231.165000190726,response,ISIC_0000459.JPG,4,ISIC_3655327.JPG,ISIC_0000459.JPG,false,1,keypress(m),500,484700.90000009537,484700.80000019073,479453.02,479466.59999990463,479469.635,484713.14,8,400,28,,ISIC_3655327.JPG
break,html.Screen,4_77_1,2023-09-11T19:12:30.346Z,,0,,,NaN,,,,,,false,,,,484701.7000002861,484701.5,,484701,,484713.14,8,400,,,
break_continue,html.Screen,4_77_2,2023-09-11T19:12:30.347Z,,0,,,NaN,,,,,,false,,,,484701.90000009537,484701.90000009537,,484701.7000002861,,484713.14,8,400,,,
sequence,flow.Sequence,4_77,2023-09-11T19:12:30.347Z,,0,,,5232.265000095358,completion,,,,,false,,,,484702.09999990463,484701.90000009537,479453.02,479466.59999990463,479469.635,484713.14,8,400,,,
trial,html.Screen,4_78_0,2023-09-11T19:12:36.333Z,,0,2,,5975.060000286088,response,ISIC_6985114.JPG,5,ISIC_7543736.JPG,ISIC_6985114.JPG,false,1,keypress(m),500,490688.30000019073,490688.2000002861,484696.464,484702.30000019073,484713.14,490708.112,8,400,29,,ISIC_7543736.JPG
break,html.Screen,4_78_1,2023-09-11T19:12:36.334Z,,0,,,NaN,,,,,,false,,,,490689,490688.7000002861,,490688.5,,490708.112,8,400,,,
break_continue,html.Screen,4_78_2,2023-09-11T19:12:36.334Z,,0,,,NaN,,,,,,false,,,,490689.30000019073,490689.30000019073,,490689.09999990463,,490708.112,8,400,,,
sequence,flow.Sequence,4_78,2023-09-11T19:12:36.334Z,,0,,,5976.160000190721,completion,,,,,false,,,,490689.5,490689.30000019073,484696.464,484702.30000019073,484713.14,490708.112,8,400,,,
trial,html.Screen,4_79_0,2023-09-11T19:12:40.561Z,,0,2,,4207.788000095345,response,ISIC_2232883.JPG,5,ISIC_0012049.JPG,ISIC_2232883.JPG,false,1,keypress(m),500,494916.09999990463,494915.90000009537,490691.443,490689.5,490708.112,494933.028,8,400,30,,ISIC_0012049.JPG
break,html.Screen,4_79_1,2023-09-11T19:12:40.561Z,,0,,,NaN,,,,,,false,,,,494916.80000019073,494916.59999990463,,494916.2000002861,,494933.028,8,400,,,
break_continue,html.Screen,4_79_2,2023-09-11T19:12:40.562Z,,0,,,NaN,,,,,,false,,,,494917.09999990463,494917,,494916.80000019073,,494933.028,8,400,,,
sequence,flow.Sequence,4_79,2023-09-11T19:12:40.562Z,,0,,,4208.887999999977,completion,,,,,false,,,,494917.09999990463,494917,490691.443,490689.5,490708.112,494933.028,8,400,,,
trial,html.Screen,4_80_0,2023-09-11T19:12:46.820Z,,0,2,,6241.571999904641,response,ISIC_9667297.JPG,5,ISIC_0032383.JPG,ISIC_9667297.JPG,false,1,keypress(m),500,501175,501174.59999990463,494916.303,494917.09999990463,494933.028,501178.599,8,400,31,,ISIC_0032383.JPG
break,html.Screen,4_80_1,2023-09-11T19:12:46.821Z,,0,,,NaN,,,,,,false,,,,501176.30000019073,501175.90000009537,,501175.2000002861,,501178.599,8,400,,,
break_continue,html.Screen,4_80_2,2023-09-11T19:12:46.822Z,,0,,,NaN,,,,,,false,,,,501177,501176.80000019073,,501176.5,,501178.599,8,400,,,
sequence,flow.Sequence,4_80,2023-09-11T19:12:46.822Z,,0,,,6243.772000190744,completion,,,,,false,,,,501177.30000019073,501176.80000019073,494916.303,494917.09999990463,494933.028,501178.599,8,400,,,
trial,html.Screen,4_81_0,2023-09-11T19:12:50.443Z,,0,2,,3619.9010000000126,response,ISIC_8409024.JPG,5,ISIC_0034052.JPG,ISIC_8409024.JPG,false,1,keypress(m),500,504798.7000002861,504798.5,501161.885,501177.5,501178.599,504818.959,8,400,32,,ISIC_0034052.JPG
break,html.Screen,4_81_1,2023-09-11T19:12:50.444Z,,0,,,NaN,,,,,,false,,,,504799,504798.90000009537,,504798.7000002861,,504818.959,8,400,,,
break_continue,html.Screen,4_81_2,2023-09-11T19:12:50.444Z,,0,,,NaN,,,,,,false,,,,504799.2000002861,504799.2000002861,,504799.2000002861,,504818.959,8,400,,,
sequence,flow.Sequence,4_81,2023-09-11T19:12:50.444Z,,0,,,3620.601000286115,completion,,,,,false,,,,504799.30000019073,504799.2000002861,501161.885,501177.5,501178.599,504818.959,8,400,,,
trial,html.Screen,4_82_0,2023-09-11T19:12:54.675Z,,0,2,,4211.5410000000265,response,ISIC_0072004.JPG,5,ISIC_4796100.JPG,ISIC_4796100.JPG,false,0,keypress(z),500,509030.5,509030.5,504802.236,504799.40000009537,504818.959,509043.914,8,400,33,,ISIC_0072004.JPG
break,html.Screen,4_82_1,2023-09-11T19:12:54.676Z,,0,,,NaN,,,,,,false,,,,509031,509030.90000009537,,509030.59999990463,,509043.914,8,400,,,
break_continue,html.Screen,4_82_2,2023-09-11T19:12:54.676Z,,0,,,NaN,,,,,,false,,,,509031.30000019073,509031.09999990463,,509031.09999990463,,509043.914,8,400,,,
sequence,flow.Sequence,4_82,2023-09-11T19:12:54.676Z,,0,,,4212.140999904659,completion,,,,,false,,,,509031.30000019073,509031.09999990463,504802.236,504799.40000009537,504818.959,509043.914,8,400,,,
trial,html.Screen,4_83_0,2023-09-11T19:13:00.389Z,,0,2,,5700.685999904643,response,ISIC_2642742.JPG,6,ISIC_9879723.JPG,ISIC_9879723.JPG,false,0,keypress(z),500,514744.80000019073,514744.59999990463,509027.208,509031.40000009537,509043.914,514771.659,8,400,34,,ISIC_2642742.JPG
break,html.Screen,4_83_1,2023-09-11T19:13:00.390Z,,0,,,NaN,,,,,,false,,,,514745.2000002861,514745.09999990463,,514744.80000019073,,514771.659,8,400,,,
break_continue,html.Screen,4_83_2,2023-09-11T19:13:00.390Z,,0,,,NaN,,,,,,false,,,,514745.40000009537,514745.30000019073,,514745.30000019073,,514771.659,8,400,,,
sequence,flow.Sequence,4_83,2023-09-11T19:13:00.390Z,,0,,,5701.386000190745,completion,,,,,false,,,,514745.5,514745.30000019073,509027.208,509031.40000009537,509043.914,514771.659,8,400,,,
trial,html.Screen,4_84_0,2023-09-11T19:13:06.413Z,,0,2,,5995.741000095382,response,ISIC_6916924.JPG,6,ISIC_2461360.JPG,ISIC_6916924.JPG,false,1,keypress(m),500,520767.59999990463,520767.40000009537,514754.918,514745.59999990463,514771.659,520783.361,8,400,35,,ISIC_2461360.JPG
break,html.Screen,4_84_1,2023-09-11T19:13:06.414Z,,0,,,NaN,,,,,,false,,,,520768.09999990463,520767.90000009537,,520767.7000002861,,520783.361,8,400,,,
break_continue,html.Screen,4_84_2,2023-09-11T19:13:06.414Z,,0,,,NaN,,,,,,false,,,,520768.30000019073,520768.2000002861,,520768.09999990463,,520783.361,8,400,,,
sequence,flow.Sequence,4_84,2023-09-11T19:13:06.414Z,,0,,,5996.541000286117,completion,,,,,false,,,,520768.30000019073,520768.2000002861,514754.918,514745.5,514771.659,520783.361,8,400,,,
trial,html.Screen,4_85_0,2023-09-11T19:13:11.891Z,,0,2,,5461.738999904657,response,ISIC_0059411.JPG,4,ISIC_1023354.JPG,ISIC_1023354.JPG,false,0,keypress(z),500,526245.3000001907,526245.0999999046,520766.658,520768.40000009537,520783.361,526260.801,8,400,36,,ISIC_0059411.JPG
break,html.Screen,4_85_1,2023-09-11T19:13:11.892Z,,0,,,NaN,,,,,,false,,,,526246.3000001907,526246,,526245.5999999046,,526260.801,8,400,,,
break_continue,html.Screen,4_85_2,2023-09-11T19:13:11.893Z,,0,,,NaN,,,,,,false,,,,526246.8000001907,526246.7000002861,,526246.5,,526260.801,8,400,,,
sequence,flow.Sequence,4_85,2023-09-11T19:13:11.893Z,,0,,,5463.339000286127,completion,,,,,false,,,,526247,526246.7000002861,520766.658,520768.40000009537,520783.361,526260.801,8,400,,,
trial,html.Screen,4_86_0,2023-09-11T19:13:19.734Z,,0,2,,7827.298999904655,response,ISIC_3260571.JPG,5,ISIC_0064964.JPG,ISIC_0064964.JPG,false,0,keypress(z),500,534088.2000002861,534088.0999999046,526244.004,526247.0999999046,526260.801,534092.6,8,400,37,,ISIC_3260571.JPG
break,html.Screen,4_86_1,2023-09-11T19:13:19.735Z,,0,,,NaN,,,,,,false,,,,534088.7000002861,534088.5999999046,,534088.3000001907,,534092.6,8,400,,,
break_continue,html.Screen,4_86_2,2023-09-11T19:13:19.735Z,,0,,,NaN,,,,,,false,,,,534089,534088.8000001907,,534088.8000001907,,534092.6,8,400,,,
sequence,flow.Sequence,4_86,2023-09-11T19:13:19.735Z,,0,,,7827.999000190757,completion,,,,,false,,,,534089,534088.8000001907,526244.004,526247.0999999046,526260.801,534092.6,8,400,,,
trial,html.Screen,4_87_0,2023-09-11T19:13:25.673Z,,0,2,,5934.200000190758,response,ISIC_5797404.JPG,6,ISIC_4967639.JPG,ISIC_5797404.JPG,false,1,keypress(m),500,540027,540026.8000001907,534076,534089,534092.6,540037.494,8,400,38,,ISIC_4967639.JPG
break,html.Screen,4_87_1,2023-09-11T19:13:25.673Z,,0,,,NaN,,,,,,false,,,,540027.7000002861,540027.4000000954,,540027.0999999046,,540037.494,8,400,,,
break_continue,html.Screen,4_87_2,2023-09-11T19:13:25.674Z,,0,,,NaN,,,,,,false,,,,540028.0999999046,540027.9000000954,,540027.8000001907,,540037.494,8,400,,,
sequence,flow.Sequence,4_87,2023-09-11T19:13:25.674Z,,0,,,5935.300000095391,completion,,,,,false,,,,540028.2000002861,540027.9000000954,534076,534089,534092.6,540037.494,8,400,,,
trial,html.Screen,4_88_0,2023-09-11T19:13:33.020Z,,0,2,,7336.506000000052,response,ISIC_0058851.JPG,5,ISIC_0033530.JPG,ISIC_0058851.JPG,false,1,keypress(m),500,547374.2000002861,547374,540020.899,540028.3000001907,540037.494,547385.104,8,400,39,,ISIC_0033530.JPG
break,html.Screen,4_88_1,2023-09-11T19:13:33.021Z,,0,,,NaN,,,,,,false,,,,547374.7000002861,547374.5,,547374.2000002861,,547385.104,8,400,,,
break_continue,html.Screen,4_88_2,2023-09-11T19:13:33.021Z,,0,,,NaN,,,,,,false,,,,547375,547374.9000000954,,547374.8000001907,,547385.104,8,400,,,
sequence,flow.Sequence,4_88,2023-09-11T19:13:33.021Z,,0,,,7337.40600009542,completion,,,,,false,,,,547375,547374.9000000954,540020.899,540028.3000001907,540037.494,547385.104,8,400,,,
trial,html.Screen,4_89_0,2023-09-11T19:13:38.750Z,,0,2,,5718.89599999995,response,ISIC_0011114.JPG,5,ISIC_0046693.JPG,ISIC_0046693.JPG,false,0,keypress(z),500,553104.3000001907,553104,547368.568,547375.0999999046,547385.104,553112.939,8,400,40,,ISIC_0011114.JPG
break,html.Screen,4_89_1,2023-09-11T19:13:38.751Z,,0,,,NaN,,,,,,false,,,,553105.3000001907,553105.0999999046,,553104.5,,553112.939,8,400,,,
break_continue,html.Screen,4_89_2,2023-09-11T19:13:38.752Z,,0,,,NaN,,,,,,false,,,,553105.8000001907,553105.7000002861,,553105.5,,553112.939,8,400,,,
sequence,flow.Sequence,4_89,2023-09-11T19:13:38.752Z,,0,,,5720.596000286052,completion,,,,,false,,,,553106.0999999046,553105.7000002861,547368.568,547375,547385.104,553112.939,8,400,,,
trial,html.Screen,4_90_0,2023-09-11T19:13:44.114Z,,0,2,,5354.6609999046195,response,ISIC_4811165.JPG,5,ISIC_0065796.JPG,ISIC_4811165.JPG,false,1,keypress(m),500,558467.8000001907,558467.5999999046,553096.418,553106.2000002861,553112.939,558473.342,8,400,41,,ISIC_0065796.JPG
break,html.Screen,4_90_1,2023-09-11T19:13:44.114Z,,0,,,NaN,,,,,,false,,,,558468.4000000954,558468.2000002861,,558467.9000000954,,558473.342,8,400,,,
break_continue,html.Screen,4_90_2,2023-09-11T19:13:44.115Z,,0,,,NaN,,,,,,false,,,,558468.8000001907,558468.7000002861,,558468.5999999046,,558473.342,8,400,,,
sequence,flow.Sequence,4_90,2023-09-11T19:13:44.115Z,,0,,,5355.761000286089,completion,,,,,false,,,,558468.8000001907,558468.7000002861,553096.418,553106.2000002861,553112.939,558473.342,8,400,,,
trial,html.Screen,4_91_0,2023-09-11T19:13:48.250Z,,0,2,,4130.458000190789,response,ISIC_0010131.JPG,5,ISIC_0053611.JPG,ISIC_0053611.JPG,false,0,keypress(z),500,562603.9000000954,562603.8000001907,558456.765,558468.8000001907,558473.342,562614.711,8,400,42,,ISIC_0010131.JPG
break,html.Screen,4_91_1,2023-09-11T19:13:48.250Z,,0,,,NaN,,,,,,false,,,,562604.5999999046,562604.4000000954,,562604.0999999046,,562614.711,8,400,,,
break_continue,html.Screen,4_91_2,2023-09-11T19:13:48.251Z,,0,,,NaN,,,,,,false,,,,562604.9000000954,562604.8000001907,,562604.7000002861,,562614.711,8,400,,,
sequence,flow.Sequence,4_91,2023-09-11T19:13:48.251Z,,0,,,4131.458000190789,completion,,,,,false,,,,562605,562604.8000001907,558456.765,558468.8000001907,558473.342,562614.711,8,400,,,
trial,html.Screen,4_92_0,2023-09-11T19:13:52.397Z,,0,2,,4136.589000190725,response,ISIC_0033121.JPG,6,ISIC_0013778.JPG,ISIC_0013778.JPG,false,0,keypress(z),500,566751.4000000954,566751.3000001907,562598.072,562605,562614.711,566772.907,8,400,43,,ISIC_0033121.JPG
break,html.Screen,4_92_1,2023-09-11T19:13:52.398Z,,0,,,NaN,,,,,,false,,,,566751.8000001907,566751.8000001907,,566751.5,,566772.907,8,400,,,
break_continue,html.Screen,4_92_2,2023-09-11T19:13:52.398Z,,0,,,NaN,,,,,,false,,,,566752,566752,,566751.9000000954,,566772.907,8,400,,,
sequence,flow.Sequence,4_92,2023-09-11T19:13:52.398Z,,0,,,4137.28899999999,completion,,,,,false,,,,566752.2000002861,566752,562598.072,562605,562614.711,566772.907,8,400,,,
trial,html.Screen,4_93_0,2023-09-11T19:13:57.007Z,,0,2,,4588.393000190728,response,ISIC_0011137.JPG,5,ISIC_7693611.JPG,ISIC_7693611.JPG,false,0,keypress(z),500,571361.5,571361.3000001907,566756.117,566752.2000002861,566772.907,571365.088,8,400,44,,ISIC_0011137.JPG
break,html.Screen,4_93_1,2023-09-11T19:13:57.008Z,,0,,,NaN,,,,,,false,,,,571362.0999999046,571361.9000000954,,571361.5999999046,,571365.088,8,400,,,
break_continue,html.Screen,4_93_2,2023-09-11T19:13:57.008Z,,0,,,NaN,,,,,,false,,,,571362.5,571362.4000000954,,571362.2000002861,,571365.088,8,400,,,
sequence,flow.Sequence,4_93,2023-09-11T19:13:57.008Z,,0,,,4589.493000095361,completion,,,,,false,,,,571362.5999999046,571362.4000000954,566756.117,566752.2000002861,566772.907,571365.088,8,400,,,
trial,html.Screen,4_94_0,2023-09-11T19:14:02.218Z,,0,2,,5206.6120002861135,response,ISIC_2740756.JPG,5,ISIC_0059412.JPG,ISIC_2740756.JPG,false,1,keypress(m),500,576571.9000000954,576571.7000002861,571348.408,571362.5999999046,571365.088,576575.205,8,400,45,,ISIC_0059412.JPG
break,html.Screen,4_94_1,2023-09-11T19:14:02.219Z,,0,,,NaN,,,,,,false,,,,576572.4000000954,576572.2000002861,,576572,,576575.205,8,400,,,
break_continue,html.Screen,4_94_2,2023-09-11T19:14:02.219Z,,0,,,NaN,,,,,,false,,,,576572.7000002861,576572.5,,576572.4000000954,,576575.205,8,400,,,
sequence,flow.Sequence,4_94,2023-09-11T19:14:02.219Z,,0,,,5207.412000000011,completion,,,,,false,,,,576572.7000002861,576572.5,571348.408,571362.5999999046,571365.088,576575.205,8,400,,,
trial,html.Screen,4_95_0,2023-09-11T19:14:06.244Z,,0,2,,4022.1950000954093,response,ISIC_0032424.JPG,6,ISIC_0025520.JPG,ISIC_0032424.JPG,false,1,keypress(m),500,580597.5999999046,580597.4000000954,576558.756,576572.8000001907,576575.205,580599.756,8,400,46,,ISIC_0025520.JPG
break,html.Screen,4_95_1,2023-09-11T19:14:06.245Z,,0,,,NaN,,,,,,false,,,,580598.4000000954,580598.3000001907,,580597.8000001907,,580599.756,8,400,,,
break_continue,html.Screen,4_95_2,2023-09-11T19:14:06.245Z,,0,,,NaN,,,,,,false,,,,580598.7000002861,580598.7000002861,,580598.5999999046,,580599.756,8,400,,,
sequence,flow.Sequence,4_95,2023-09-11T19:14:06.245Z,,0,,,4023.495000286144,completion,,,,,false,,,,580598.9000000954,580598.7000002861,576558.756,576572.8000001907,576575.205,580599.756,8,400,,,
trial,html.Screen,4_96_0,2023-09-11T19:14:11.623Z,,0,2,,5376.544000190683,response,ISIC_0024650.JPG,4,ISIC_7460560.JPG,ISIC_7460560.JPG,false,0,keypress(z),500,585976.5,585976.3000001907,580583.023,580599,580599.756,586010.322,8,400,47,,ISIC_0024650.JPG
break,html.Screen,4_96_1,2023-09-11T19:14:11.623Z,,0,,,NaN,,,,,,false,,,,585977.3000001907,585976.9000000954,,585976.5999999046,,586010.322,8,400,,,
break_continue,html.Screen,4_96_2,2023-09-11T19:14:11.624Z,,0,,,NaN,,,,,,false,,,,585977.5999999046,585977.5,,585977.3000001907,,586010.322,8,400,,,
sequence,flow.Sequence,4_96,2023-09-11T19:14:11.624Z,,0,,,5377.743999999948,completion,,,,,false,,,,585977.7000002861,585977.5,580583.023,580599,580599.756,586010.322,8,400,,,
trial,html.Screen,4_97_0,2023-09-11T19:14:17.241Z,,0,2,,5584.578000095324,response,ISIC_3436033.JPG,5,ISIC_3926397.JPG,ISIC_3436033.JPG,false,1,keypress(m),500,591595.0999999046,591594.9000000954,585993.58,585977.8000001907,586010.322,591604.575,8,400,48,,ISIC_3926397.JPG
break,html.Screen,4_97_1,2023-09-11T19:14:17.242Z,,0,,,NaN,,,,,,false,,,,591595.5999999046,591595.5,,591595.2000002861,,591604.575,8,400,,,
break_continue,html.Screen,4_97_2,2023-09-11T19:14:17.242Z,,0,,,NaN,,,,,,false,,,,591595.8000001907,591595.7000002861,,591595.5999999046,,591604.575,8,400,,,
sequence,flow.Sequence,4_97,2023-09-11T19:14:17.242Z,,0,,,5585.3780002860585,completion,,,,,false,,,,591595.8000001907,591595.7000002861,585993.58,585977.8000001907,586010.322,591604.575,8,400,,,
trial,html.Screen,4_98_0,2023-09-11T19:14:22.300Z,,0,2,,5049.524999904679,response,ISIC_0060222.JPG,5,ISIC_0053742.JPG,ISIC_0060222.JPG,false,1,keypress(m),500,596654.0999999046,596654.0999999046,591587.761,591595.9000000954,591604.575,596664.347,8,400,49,,ISIC_0053742.JPG
break,html.Screen,4_98_1,2023-09-11T19:14:22.301Z,,0,,,NaN,,,,,,false,,,,596654.8000001907,596654.5999999046,,596654.3000001907,,596664.347,8,400,,,
break_continue,html.Screen,4_98_2,2023-09-11T19:14:22.301Z,,0,,,NaN,,,,,,false,,,,596655,596654.9000000954,,596654.8000001907,,596664.347,8,400,,,
sequence,flow.Sequence,4_98,2023-09-11T19:14:22.301Z,,0,,,5050.325000095414,completion,,,,,false,,,,596655,596654.9000000954,591587.761,591595.8000001907,591604.575,596664.347,8,400,,,
trial,html.Screen,4_99_0,2023-09-11T19:14:28.080Z,,0,2,,5769.453000190784,response,ISIC_2916754.JPG,4,ISIC_0001578.JPG,ISIC_0001578.JPG,false,0,keypress(z),500,602434,602433.8000001907,596647.743,596655.0999999046,596664.347,602442.347,8,400,50,,ISIC_2916754.JPG
break,html.Screen,4_99_1,2023-09-11T19:14:38.075Z,,0,,,10002.828000000096,timeout,,,,,false,,,,612429.0999999046,612428.427,602425.65,602434.0999999046,602442.347,612445.175,8,400,,,
break_continue,html.Screen,4_99_2,2023-09-11T19:14:40.365Z,,0,,,2254.1250001906883,response,,,,,false,continue,keypress(Space),,614719,614699.3000001907,612428.427,612429.2000002861,612445.175,614716.117,8,400,,,
sequence,flow.Sequence,4_99,2023-09-11T19:14:40.365Z,,0,,,18034.953000190784,completion,,,,,false,,,,614719.2000002861,614699.3000001907,596647.743,596655.0999999046,596664.347,614716.117,8,400,,,
trial,html.Screen,4_100_0,2023-09-11T19:14:45.344Z,,0,3,,4981.583000286133,response,ISIC_6220625.JPG,6,ISIC_0065351.JPG,ISIC_6220625.JPG,false,1,keypress(m),500,619697.9000000954,619697.7000002861,614699.422,614719.3000001907,614716.117,619725.966,8,400,1,,ISIC_0065351.JPG
break,html.Screen,4_100_1,2023-09-11T19:14:45.345Z,,0,,,NaN,,,,,,false,,,,619698.7000002861,619698.5,,619698.0999999046,,619725.966,8,400,,,
break_continue,html.Screen,4_100_2,2023-09-11T19:14:45.345Z,,0,,,NaN,,,,,,false,,,,619699,619698.9000000954,,619698.8000001907,,619725.966,8,400,,,
sequence,flow.Sequence,4_100,2023-09-11T19:14:45.345Z,,0,,,4982.783000095398,completion,,,,,false,,,,619699.0999999046,619698.9000000954,614699.422,614719.3000001907,614716.117,619725.966,8,400,,,
trial,html.Screen,4_101_0,2023-09-11T19:14:49.100Z,,0,3,,3727.533999999985,response,ISIC_6637542.JPG,5,ISIC_0030360.JPG,ISIC_0030360.JPG,false,0,keypress(z),500,623453.7000002861,623453.5,619709.214,619699.0999999046,619725.966,623466.469,8,400,2,,ISIC_6637542.JPG
break,html.Screen,4_101_1,2023-09-11T19:14:49.101Z,,0,,,NaN,,,,,,false,,,,623454.5,623454.2000002861,,623453.8000001907,,623466.469,8,400,,,
break_continue,html.Screen,4_101_2,2023-09-11T19:14:49.101Z,,0,,,NaN,,,,,,false,,,,623454.8000001907,623454.7000002861,,623454.5999999046,,623466.469,8,400,,,
sequence,flow.Sequence,4_101,2023-09-11T19:14:49.101Z,,0,,,3728.7340002860874,completion,,,,,false,,,,623454.9000000954,623454.7000002861,619709.214,619699.0999999046,619725.966,623466.469,8,400,,,
trial,html.Screen,4_102_0,2023-09-11T19:14:53.975Z,,0,3,,4861.831000190694,response,ISIC_6718969.JPG,5,ISIC_9045601.JPG,ISIC_9045601.JPG,false,0,keypress(z),500,628328.4000000954,628328.3000001907,623449.88,623455,623466.469,628342.677,8,400,3,,ISIC_6718969.JPG
break,html.Screen,4_102_1,2023-09-11T19:14:53.975Z,,0,,,NaN,,,,,,false,,,,628328.9000000954,628328.8000001907,,628328.5999999046,,628342.677,8,400,,,
break_continue,html.Screen,4_102_2,2023-09-11T19:14:53.975Z,,0,,,NaN,,,,,,false,,,,628329.0999999046,628329.0999999046,,628329,,628342.677,8,400,,,
sequence,flow.Sequence,4_102,2023-09-11T19:14:53.975Z,,0,,,4862.630999904592,completion,,,,,false,,,,628329.0999999046,628329.0999999046,623449.88,623455,623466.469,628342.677,8,400,,,
trial,html.Screen,4_103_0,2023-09-11T19:14:58.081Z,,0,3,,4091.7230000953423,response,ISIC_2482061.JPG,5,ISIC_0064247.JPG,ISIC_2482061.JPG,false,1,keypress(m),500,632434.5,632434.4000000954,628325.962,628329.2000002861,628342.677,632450.641,8,400,4,,ISIC_0064247.JPG
break,html.Screen,4_103_1,2023-09-11T19:14:58.081Z,,0,,,NaN,,,,,,false,,,,632434.9000000954,632434.8000001907,,632434.5,,632450.641,8,400,,,
break_continue,html.Screen,4_103_2,2023-09-11T19:14:58.081Z,,0,,,NaN,,,,,,false,,,,632435.0999999046,632435,,632434.9000000954,,632450.641,8,400,,,
sequence,flow.Sequence,4_103,2023-09-11T19:14:58.081Z,,0,,,4092.322999999975,completion,,,,,false,,,,632435.0999999046,632435,628325.962,628329.2000002861,628342.677,632450.641,8,400,,,
trial,html.Screen,4_104_0,2023-09-11T19:15:02.309Z,,0,3,,4210.259000095422,response,ISIC_4756979.JPG,5,ISIC_0029651.JPG,ISIC_4756979.JPG,false,1,keypress(m),500,636661,636660.9000000954,632434.008,632435.0999999046,632450.641,636675.686,8,400,5,,ISIC_0029651.JPG
break,html.Screen,4_104_1,2023-09-11T19:15:02.310Z,,0,,,NaN,,,,,,false,,,,636662.0999999046,636661.8000001907,,636661.2000002861,,636675.686,8,400,,,
break_continue,html.Screen,4_104_2,2023-09-11T19:15:02.311Z,,0,,,NaN,,,,,,false,,,,636662.5,636662.4000000954,,636662.2000002861,,636675.686,8,400,,,
sequence,flow.Sequence,4_104,2023-09-11T19:15:02.311Z,,0,,,4211.759000095422,completion,,,,,false,,,,636663,636662.4000000954,632434.008,632435.0999999046,632450.641,636675.686,8,400,,,
trial,html.Screen,4_105_0,2023-09-11T19:15:06.090Z,,0,3,,3765.7140000953805,response,ISIC_0280912.JPG,4,ISIC_6448312.JPG,ISIC_6448312.JPG,false,0,keypress(z),500,640441.7000002861,640441.4000000954,636658.939,636663.0999999046,636675.686,640449.631,8,400,6,,ISIC_0280912.JPG
break,html.Screen,4_105_1,2023-09-11T19:15:06.090Z,,0,,,NaN,,,,,,false,,,,640442.4000000954,640442.0999999046,,640441.8000001907,,640449.631,8,400,,,
break_continue,html.Screen,4_105_2,2023-09-11T19:15:06.091Z,,0,,,NaN,,,,,,false,,,,640442.5999999046,640442.5999999046,,640442.5,,640449.631,8,400,,,
sequence,flow.Sequence,4_105,2023-09-11T19:15:06.091Z,,0,,,3766.9139999046456,completion,,,,,false,,,,640442.7000002861,640442.5999999046,636658.939,636663.0999999046,636675.686,640449.631,8,400,,,
trial,html.Screen,4_106_0,2023-09-11T19:15:10.621Z,,0,3,,4523.46899990458,response,ISIC_1197584.JPG,4,ISIC_6464772.JPG,ISIC_6464772.JPG,false,0,keypress(z),500,644973.2000002861,644973.0999999046,640432.857,640442.8000001907,640449.631,644975.034,8,400,7,,ISIC_1197584.JPG
break,html.Screen,4_106_1,2023-09-11T19:15:10.622Z,,0,,,NaN,,,,,,false,,,,644973.7000002861,644973.5999999046,,644973.3000001907,,644975.034,8,400,,,
break_continue,html.Screen,4_106_2,2023-09-11T19:15:10.622Z,,0,,,NaN,,,,,,false,,,,644974.0999999046,644974,,644973.9000000954,,644975.034,8,400,,,
sequence,flow.Sequence,4_106,2023-09-11T19:15:10.622Z,,0,,,4524.368999999948,completion,,,,,false,,,,644974.2000002861,644974,640432.857,640442.8000001907,640449.631,644975.034,8,400,,,
trial,html.Screen,4_107_0,2023-09-11T19:15:15.871Z,,0,3,,5248.166000286117,response,ISIC_8794567.JPG,5,ISIC_8147189.JPG,ISIC_8147189.JPG,false,0,keypress(z),500,650223.4000000954,650223.2000002861,644958.426,644974.3000001907,644975.034,650251.902,8,400,8,,ISIC_8794567.JPG
break,html.Screen,4_107_1,2023-09-11T19:15:15.872Z,,0,,,NaN,,,,,,false,,,,650223.9000000954,650223.7000002861,,650223.5999999046,,650251.902,8,400,,,
break_continue,html.Screen,4_107_2,2023-09-11T19:15:15.872Z,,0,,,NaN,,,,,,false,,,,650224.0999999046,650224.0999999046,,650224,,650251.902,8,400,,,
sequence,flow.Sequence,4_107,2023-09-11T19:15:15.872Z,,0,,,5249.0659999046475,completion,,,,,false,,,,650224.0999999046,650224.0999999046,644958.426,644974.2000002861,644975.034,650251.902,8,400,,,
trial,html.Screen,4_108_0,2023-09-11T19:15:19.714Z,,0,3,,3813.7980002861004,response,ISIC_1831600.JPG,5,ISIC_5191344.JPG,ISIC_1831600.JPG,false,1,keypress(m),500,654065.8000001907,654065.7000002861,650235.251,650224.2000002861,650251.902,654092.869,8,400,9,,ISIC_5191344.JPG
break,html.Screen,4_108_1,2023-09-11T19:15:19.714Z,,0,,,NaN,,,,,,false,,,,654066.2000002861,654066.0999999046,,654065.9000000954,,654092.869,8,400,,,
break_continue,html.Screen,4_108_2,2023-09-11T19:15:19.714Z,,0,,,NaN,,,,,,false,,,,654066.4000000954,654066.3000001907,,654066.2000002861,,654092.869,8,400,,,
sequence,flow.Sequence,4_108,2023-09-11T19:15:19.714Z,,0,,,3814.398000190733,completion,,,,,false,,,,654066.5,654066.3000001907,650235.251,650224.2000002861,650251.902,654092.869,8,400,,,
trial,html.Screen,4_109_0,2023-09-11T19:15:24.324Z,,0,3,,4582.631000000052,response,ISIC_7466678.JPG,5,ISIC_4332885.JPG,ISIC_4332885.JPG,false,0,keypress(z),500,658675.5999999046,658675.5,654076.15,654066.5,654092.869,658701.772,8,400,10,,ISIC_7466678.JPG
break,html.Screen,4_109_1,2023-09-11T19:15:24.324Z,,0,,,NaN,,,,,,false,,,,658676,658675.9000000954,,658675.7000002861,,658701.772,8,400,,,
break_continue,html.Screen,4_109_2,2023-09-11T19:15:24.325Z,,0,,,NaN,,,,,,false,,,,658676.5,658676.4000000954,,658676.0999999046,,658701.772,8,400,,,
sequence,flow.Sequence,4_109,2023-09-11T19:15:24.325Z,,0,,,4583.53100009542,completion,,,,,false,,,,658676.5999999046,658676.4000000954,654076.15,654066.5,654092.869,658701.772,8,400,,,
trial,html.Screen,4_110_0,2023-09-11T19:15:28.167Z,,0,3,,3817.228000000003,response,ISIC_0031553.JPG,5,ISIC_6132976.JPG,ISIC_6132976.JPG,false,0,keypress(z),500,662519.2000002861,662519,658685.201,658676.5999999046,658701.772,662542.519,8,400,11,,ISIC_0031553.JPG
break,html.Screen,4_110_1,2023-09-11T19:15:28.168Z,,0,,,NaN,,,,,,false,,,,662519.7000002861,662519.5,,662519.3000001907,,662542.519,8,400,,,
break_continue,html.Screen,4_110_2,2023-09-11T19:15:28.168Z,,0,,,NaN,,,,,,false,,,,662520.0999999046,662519.9000000954,,662519.8000001907,,662542.519,8,400,,,
sequence,flow.Sequence,4_110,2023-09-11T19:15:28.168Z,,0,,,3818.12800009537,completion,,,,,false,,,,662520.2000002861,662519.9000000954,658685.201,658676.5999999046,658701.772,662542.519,8,400,,,
trial,html.Screen,4_111_0,2023-09-11T19:15:32.906Z,,0,3,,4715.381000095396,response,ISIC_8199467.JPG,5,ISIC_0030119.JPG,ISIC_8199467.JPG,false,1,keypress(m),500,667258.2000002861,667257.9000000954,662525.871,662520.2000002861,662542.519,667268.389,8,400,12,,ISIC_0030119.JPG
break,html.Screen,4_111_1,2023-09-11T19:15:32.908Z,,0,,,NaN,,,,,,false,,,,667259.8000001907,667259.5,,667258.4000000954,,667268.389,8,400,,,
break_continue,html.Screen,4_111_2,2023-09-11T19:15:32.909Z,,0,,,NaN,,,,,,false,,,,667260.5,667260.3000001907,,667260.0999999046,,667268.389,8,400,,,
sequence,flow.Sequence,4_111,2023-09-11T19:15:32.909Z,,0,,,4717.781000190764,completion,,,,,false,,,,667260.8000001907,667260.3000001907,662525.871,662520.2000002861,662542.519,667268.389,8,400,,,
trial,html.Screen,4_112_0,2023-09-11T19:15:37.522Z,,0,3,,4605.210999904666,response,ISIC_0059093.JPG,5,ISIC_0057089.JPG,ISIC_0057089.JPG,false,0,keypress(z),500,671873.8000001907,671873.5999999046,667251.711,667260.9000000954,667268.389,671894.03,8,400,13,,ISIC_0059093.JPG
break,html.Screen,4_112_1,2023-09-11T19:15:37.523Z,,0,,,NaN,,,,,,false,,,,671874.5,671874.2000002861,,671873.9000000954,,671894.03,8,400,,,
break_continue,html.Screen,4_112_2,2023-09-11T19:15:37.523Z,,0,,,NaN,,,,,,false,,,,671874.8000001907,671874.7000002861,,671874.5999999046,,671894.03,8,400,,,
sequence,flow.Sequence,4_112,2023-09-11T19:15:37.523Z,,0,,,4606.311000286136,completion,,,,,false,,,,671874.9000000954,671874.7000002861,667251.711,667260.9000000954,667268.389,671894.03,8,400,,,
trial,html.Screen,4_113_0,2023-09-11T19:15:42.954Z,,0,3,,5411.8700000953395,response,ISIC_6626544.JPG,5,ISIC_2798803.JPG,ISIC_6626544.JPG,false,1,keypress(m),500,677306.0999999046,677305.9000000954,671877.512,671875,671894.03,677321.322,8,400,14,,ISIC_2798803.JPG
break,html.Screen,4_113_1,2023-09-11T19:15:42.955Z,,0,,,NaN,,,,,,false,,,,677306.5,677306.4000000954,,677306.2000002861,,677321.322,8,400,,,
break_continue,html.Screen,4_113_2,2023-09-11T19:15:42.955Z,,0,,,NaN,,,,,,false,,,,677306.5999999046,677306.5999999046,,677306.5999999046,,677321.322,8,400,,,
sequence,flow.Sequence,4_113,2023-09-11T19:15:42.955Z,,0,,,5412.569999904605,completion,,,,,false,,,,677306.7000002861,677306.5999999046,671877.512,671874.9000000954,671894.03,677321.322,8,400,,,
trial,html.Screen,4_114_0,2023-09-11T19:15:46.749Z,,0,3,,3779.3780002860585,response,ISIC_0061751.JPG,5,ISIC_0054377.JPG,ISIC_0054377.JPG,false,0,keypress(z),500,681100.8000001907,681100.7000002861,677304.749,677306.8000001907,677321.322,681111.979,8,400,15,,ISIC_0061751.JPG
break,html.Screen,4_114_1,2023-09-11T19:15:46.749Z,,0,,,NaN,,,,,,false,,,,681101.4000000954,681101.0999999046,,681100.9000000954,,681111.979,8,400,,,
break_continue,html.Screen,4_114_2,2023-09-11T19:15:46.750Z,,0,,,NaN,,,,,,false,,,,681101.5999999046,681101.5,,681101.4000000954,,681111.979,8,400,,,
sequence,flow.Sequence,4_114,2023-09-11T19:15:46.750Z,,0,,,3780.1779999999562,completion,,,,,false,,,,681101.5999999046,681101.5,677304.749,677306.8000001907,677321.322,681111.979,8,400,,,
trial,html.Screen,4_115_0,2023-09-11T19:15:54.580Z,,0,3,,7819.52099999995,response,ISIC_0069193.JPG,5,ISIC_0031598.JPG,ISIC_0031598.JPG,false,0,keypress(z),500,688931.7000002861,688931.5,681095.309,681101.8000001907,681111.979,688943.949,8,400,16,,ISIC_0069193.JPG
break,html.Screen,4_115_1,2023-09-11T19:15:54.581Z,,0,,,NaN,,,,,,false,,,,688932.8000001907,688932.4000000954,,688931.9000000954,,688943.949,8,400,,,
break_continue,html.Screen,4_115_2,2023-09-11T19:15:54.581Z,,0,,,NaN,,,,,,false,,,,688933.3000001907,688933.0999999046,,688933,,688943.949,8,400,,,
sequence,flow.Sequence,4_115,2023-09-11T19:15:54.582Z,,0,,,7821.120999904582,completion,,,,,false,,,,688933.7000002861,688933.0999999046,681095.309,681101.7000002861,681111.979,688943.949,8,400,,,
trial,html.Screen,4_116_0,2023-09-11T19:15:59.768Z,,0,3,,5175.75100028608,response,ISIC_7114660.JPG,5,ISIC_1595103.JPG,ISIC_1595103.JPG,false,0,keypress(z),500,694120,694119.7000002861,688927.438,688933.9000000954,688943.949,694154.118,8,400,17,,ISIC_7114660.JPG
break,html.Screen,4_116_1,2023-09-11T19:15:59.769Z,,0,,,NaN,,,,,,false,,,,694121.4000000954,694120.9000000954,,694120.3000001907,,694154.118,8,400,,,
break_continue,html.Screen,4_116_2,2023-09-11T19:15:59.770Z,,0,,,NaN,,,,,,false,,,,694122.2000002861,694122.0999999046,,694121.8000001907,,694154.118,8,400,,,
sequence,flow.Sequence,4_116,2023-09-11T19:15:59.771Z,,0,,,5178.15099990461,completion,,,,,false,,,,694122.4000000954,694122.0999999046,688927.438,688933.8000001907,688943.949,694154.118,8,400,,,
trial,html.Screen,4_117_0,2023-09-11T19:16:05.876Z,,0,3,,6072.481999904616,response,ISIC_9227392.JPG,5,ISIC_1978947.JPG,ISIC_9227392.JPG,false,1,keypress(m),500,700226.5999999046,700226.5999999046,694137.347,694122.7000002861,694154.118,700232.534,8,400,18,,ISIC_1978947.JPG
break,html.Screen,4_117_1,2023-09-11T19:16:05.876Z,,0,,,NaN,,,,,,false,,,,700227.2000002861,700227.0999999046,,700226.8000001907,,700232.534,8,400,,,
break_continue,html.Screen,4_117_2,2023-09-11T19:16:05.877Z,,0,,,NaN,,,,,,false,,,,700227.4000000954,700227.3000001907,,700227.2000002861,,700232.534,8,400,,,
sequence,flow.Sequence,4_117,2023-09-11T19:16:05.877Z,,0,,,6073.182000190718,completion,,,,,false,,,,700227.4000000954,700227.3000001907,694137.347,694122.7000002861,694154.118,700232.534,8,400,,,
trial,html.Screen,4_118_0,2023-09-11T19:16:10.092Z,,0,3,,4209.866000095382,response,ISIC_0029017.JPG,5,ISIC_0031746.JPG,ISIC_0031746.JPG,false,0,keypress(z),500,704442.5999999046,704442.4000000954,700215.845,700227.5,700232.534,704457.47,8,400,19,,ISIC_0029017.JPG
break,html.Screen,4_118_1,2023-09-11T19:16:10.092Z,,0,,,NaN,,,,,,false,,,,704443.0999999046,704442.9000000954,,704442.7000002861,,704457.47,8,400,,,
break_continue,html.Screen,4_118_2,2023-09-11T19:16:10.093Z,,0,,,NaN,,,,,,false,,,,704443.4000000954,704443.3000001907,,704443.2000002861,,704457.47,8,400,,,
sequence,flow.Sequence,4_118,2023-09-11T19:16:10.093Z,,0,,,4210.76600019075,completion,,,,,false,,,,704443.5,704443.3000001907,700215.845,700227.5,700232.534,704457.47,8,400,,,
trial,html.Screen,4_119_0,2023-09-11T19:16:14.446Z,,0,3,,4339.530000000028,response,ISIC_0027305.JPG,5,ISIC_2680588.JPG,ISIC_2680588.JPG,false,0,keypress(z),500,708797.2000002861,708797,704440.858,704443.5999999046,704457.47,708799.245,8,400,20,,ISIC_0027305.JPG
break,html.Screen,4_119_1,2023-09-11T19:16:14.447Z,,0,,,NaN,,,,,,false,,,,708797.8000001907,708797.5999999046,,708797.2000002861,,708799.245,8,400,,,
break_continue,html.Screen,4_119_2,2023-09-11T19:16:14.447Z,,0,,,NaN,,,,,,false,,,,708798.0999999046,708798.0999999046,,708797.9000000954,,708799.245,8,400,,,
sequence,flow.Sequence,4_119,2023-09-11T19:16:14.447Z,,0,,,4340.6299999046605,completion,,,,,false,,,,708798.2000002861,708798.0999999046,704440.858,704443.5,704457.47,708799.245,8,400,,,
trial,html.Screen,4_120_0,2023-09-11T19:16:20.980Z,,0,3,,6531.455000286107,response,ISIC_0065351.JPG,5,ISIC_4764568.JPG,ISIC_4764568.JPG,false,0,keypress(z),500,715330.8000001907,715330.7000002861,708782.619,708798.3000001907,708799.245,715345.355,8,400,21,,ISIC_0065351.JPG
break,html.Screen,4_120_1,2023-09-11T19:16:20.980Z,,0,,,NaN,,,,,,false,,,,715331.3000001907,715331.2000002861,,715330.9000000954,,715345.355,8,400,,,
break_continue,html.Screen,4_120_2,2023-09-11T19:16:20.981Z,,0,,,NaN,,,,,,false,,,,715331.5,715331.4000000954,,715331.3000001907,,715345.355,8,400,,,
sequence,flow.Sequence,4_120,2023-09-11T19:16:20.981Z,,0,,,6532.155000095372,completion,,,,,false,,,,715331.5999999046,715331.4000000954,708782.619,708798.3000001907,708799.245,715345.355,8,400,,,
trial,html.Screen,4_121_0,2023-09-11T19:16:25.992Z,,0,3,,4997.845000286121,response,ISIC_0067597.JPG,5,ISIC_0024261.JPG,ISIC_0024261.JPG,false,0,keypress(z),500,720343.3000001907,720343.2000002861,715328.736,715331.5999999046,715345.355,720355.15,8,400,22,,ISIC_0067597.JPG
break,html.Screen,4_121_1,2023-09-11T19:16:25.993Z,,0,,,NaN,,,,,,false,,,,720343.7000002861,720343.5999999046,,720343.4000000954,,720355.15,8,400,,,
break_continue,html.Screen,4_121_2,2023-09-11T19:16:25.993Z,,0,,,NaN,,,,,,false,,,,720343.9000000954,720343.8000001907,,720343.7000002861,,720355.15,8,400,,,
sequence,flow.Sequence,4_121,2023-09-11T19:16:25.993Z,,0,,,4998.4450001907535,completion,,,,,false,,,,720344,720343.8000001907,715328.736,715331.5999999046,715345.355,720355.15,8,400,,,
trial,html.Screen,4_122_0,2023-09-11T19:16:30.717Z,,0,3,,4712.550000286079,response,ISIC_6162545.JPG,5,ISIC_9232153.JPG,ISIC_9232153.JPG,false,0,keypress(z),500,725067.9000000954,725067.7000002861,720338.456,720344,720355.15,725097.784,8,400,23,,ISIC_6162545.JPG
break,html.Screen,4_122_1,2023-09-11T19:16:30.717Z,,0,,,NaN,,,,,,false,,,,725068.3000001907,725068.2000002861,,725068,,725097.784,8,400,,,
break_continue,html.Screen,4_122_2,2023-09-11T19:16:30.718Z,,0,,,NaN,,,,,,false,,,,725068.5,725068.4000000954,,725068.3000001907,,725097.784,8,400,,,
sequence,flow.Sequence,4_122,2023-09-11T19:16:30.718Z,,0,,,4713.250000095344,completion,,,,,false,,,,725068.5999999046,725068.4000000954,720338.456,720344,720355.15,725097.784,8,400,,,
trial,html.Screen,4_123_0,2023-09-11T19:16:35.135Z,,0,3,,4387.51600019075,response,ISIC_6829008.JPG,6,ISIC_0033883.JPG,ISIC_0033883.JPG,false,0,keypress(z),500,729485.4000000954,729485.3000001907,725081.05,725068.5999999046,725097.784,729506.202,8,400,24,,ISIC_6829008.JPG
break,html.Screen,4_123_1,2023-09-11T19:16:35.135Z,,0,,,NaN,,,,,,false,,,,729485.8000001907,729485.7000002861,,729485.5,,729506.202,8,400,,,
break_continue,html.Screen,4_123_2,2023-09-11T19:16:35.135Z,,0,,,NaN,,,,,,false,,,,729485.9000000954,729485.9000000954,,729485.9000000954,,729506.202,8,400,,,
sequence,flow.Sequence,4_123,2023-09-11T19:16:35.135Z,,0,,,4388.116000095382,completion,,,,,false,,,,729486,729485.9000000954,725081.05,725068.5999999046,725097.784,729506.202,8,400,,,
trial,html.Screen,4_124_0,2023-09-11T19:16:39.777Z,,0,3,,4621.797999999952,response,ISIC_0010782.JPG,5,ISIC_0024574.JPG,ISIC_0024574.JPG,false,0,keypress(z),500,734128.2000002861,734128,729489.495,729486,729506.202,734148.543,8,400,25,,ISIC_0010782.JPG
break,html.Screen,4_124_1,2023-09-11T19:16:39.778Z,,0,,,NaN,,,,,,false,,,,734128.5999999046,734128.5,,734128.2000002861,,734148.543,8,400,,,
break_continue,html.Screen,4_124_2,2023-09-11T19:16:39.778Z,,0,,,NaN,,,,,,false,,,,734128.8000001907,734128.7000002861,,734128.5999999046,,734148.543,8,400,,,
sequence,flow.Sequence,4_124,2023-09-11T19:16:39.778Z,,0,,,4622.498000286054,completion,,,,,false,,,,734128.9000000954,734128.7000002861,729489.495,729486,729506.202,734148.543,8,400,,,
trial,html.Screen,4_125_0,2023-09-11T19:16:45.556Z,,0,3,,5757.757000190788,response,ISIC_0839675.JPG,6,ISIC_0033856.JPG,ISIC_0839675.JPG,false,1,keypress(m),500,739906.4000000954,739906.3000001907,734131.881,734128.9000000954,734148.543,739909.747,8,400,26,,ISIC_0033856.JPG
break,html.Screen,4_125_1,2023-09-11T19:16:45.556Z,,0,,,NaN,,,,,,false,,,,739906.9000000954,739906.8000001907,,739906.5,,739909.747,8,400,,,
break_continue,html.Screen,4_125_2,2023-09-11T19:16:45.556Z,,0,,,NaN,,,,,,false,,,,739907.0999999046,739907,,739907,,739909.747,8,400,,,
sequence,flow.Sequence,4_125,2023-09-11T19:16:45.556Z,,0,,,5758.457000000053,completion,,,,,false,,,,739907.2000002861,739907,734131.881,734128.9000000954,734148.543,739909.747,8,400,,,
