sender,sender_type,sender_id,timestamp,meta,,blockNo,condition,duration,ended_on,img_left,img_reveal,img_right,loser,practice,response,response_action,selection_duration,time_commit,time_end,time_render,time_run,time_show,time_switch,total_blocks,total_trials,trialNo,url,winner
informed_consent,html.Screen,0,2023-09-12T00:35:33.708Z,"{""labjs_version"":""20.2.4"",""labjs_build"":{""flavor"":""development"",""commit"":""f5b4a49f956347addd546a832a3327688c2c0fef""},""location"":""https://labjs.felixhenninger.com/api/labjs_preview/index.html"",""userAgent"":""Mozilla/5.0 (Windows NT 10.0; Win64; x64) AppleWebKit/537.36 (KHTML, like Gecko) Chrome/116.0.0.0 Safari/537.36"",""platform"":""Win32"",""language"":""en-AU"",""locale"":""en-US"",""timeZone"":""America/Chicago"",""timezoneOffset"":300,""screen_width"":1680,""screen_height"":1050,""scroll_width"":1296,""scroll_height"":688,""window_innerWidth"":1296,""window_innerHeight"":736,""devicePixelRatio"":1}",,,,65043.7129997139,response,,,,,,consent,click button,,65620.7999997139,65619.7999997139,559.443,571.3999996185303,576.087,65636.069,,,,{},
Welcome,html.Screen,1,2023-09-12T00:35:34.314Z,,,,symmetry,589.5309999046294,response,,,,,,continue,click button,,66226.19999980927,66225.59999990463,65619.365,65621.09999990463,65636.069,66237.212,,,,,
trial,html.Screen,2_0_0,2023-09-12T00:35:45.815Z,,0,0,,11522.407000000007,timeout,ISIC_6997061.JPG,,ISIC_0069348.JPG,,true,,,500,77727.09999990463,77726.7999997139,66220.49,66226.39999961853,66237.212,77759.619,1,6,1,,
sequence,flow.Sequence,2_0,2023-09-12T00:35:45.815Z,,0,,,11489.587999713898,completion,,,,,true,,,,77727.2999997139,77726.7999997139,66220.49,66226.39999961853,66237.212,77759.619,1,6,,,
trial,html.Screen,2_1_0,2023-09-12T00:35:50.651Z,,0,0,,4802.880999999994,response,ISIC_0009529.JPG,,ISIC_0057368.JPG,ISIC_0057368.JPG,true,0,keypress(z),500,82562.69999980927,82562.5,77742.958,77727.39999961853,77759.619,82568.973,1,6,2,,ISIC_0009529.JPG
sequence,flow.Sequence,2_1,2023-09-12T00:35:50.651Z,,0,,,4802.880999999994,completion,,,,,true,,,,82562.7999997139,82562.5,77742.958,77727.39999961853,77759.619,82568.973,1,6,,,
trial,html.Screen,2_2_0,2023-09-12T00:35:55.294Z,,0,0,,4636.226999809267,response,ISIC_0064954.JPG,,ISIC_9758671.JPG,ISIC_9758671.JPG,true,0,keypress(z),500,87205.5,87205.19999980927,82552.469,82562.89999961853,82568.973,87211.371,1,6,3,,ISIC_0064954.JPG
sequence,flow.Sequence,2_2,2023-09-12T00:35:55.294Z,,0,,,4636.226999809267,completion,,,,,true,,,,87205.89999961853,87205.19999980927,82552.469,82562.7999997139,82568.973,87211.371,1,6,,,
trial,html.Screen,2_3_0,2023-09-12T00:35:58.576Z,,0,0,,3276.028999618531,response,ISIC_0005785.JPG,,ISIC_0000080.JPG,ISIC_0005785.JPG,true,1,keypress(m),500,90487.59999990463,90487.39999961853,87194.769,87206.19999980927,87211.371,90501.07,1,6,4,,ISIC_0000080.JPG
sequence,flow.Sequence,2_3,2023-09-12T00:35:58.576Z,,0,,,3276.028999618531,completion,,,,,true,,,,90487.7999997139,90487.39999961853,87194.769,87206.09999990463,87211.371,90501.07,1,6,,,
trial,html.Screen,2_4_0,2023-09-12T00:36:02.785Z,,0,0,,4195.429999999993,response,ISIC_5390060.JPG,,ISIC_7944028.JPG,ISIC_7944028.JPG,true,0,keypress(z),500,94696.59999990463,94696.5,90484.584,90487.7999997139,90501.07,94709.488,1,6,5,,ISIC_5390060.JPG
sequence,flow.Sequence,2_4,2023-09-12T00:36:02.785Z,,0,,,4195.429999999993,completion,,,,,true,,,,94696.7999997139,94696.5,90484.584,90487.7999997139,90501.07,94709.488,1,6,,,
trial,html.Screen,2_5_0,2023-09-12T00:36:06.565Z,,0,0,,3767.4119996185327,response,ISIC_0794216.JPG,,ISIC_0010188.JPG,ISIC_0010188.JPG,true,0,keypress(z),500,98477,98476.89999961853,94692.763,94696.89999961853,94709.488,98483.317,1,6,6,,ISIC_0794216.JPG
sequence,flow.Sequence,2_5,2023-09-12T00:36:06.565Z,,0,,,3767.4119996185327,completion,,,,,true,,,,98477.09999990463,98476.89999961853,94692.763,94696.7999997139,94709.488,98483.317,1,6,,,
loop,flow.Loop,2,2023-09-12T00:36:06.565Z,,,,,32239.68799961853,completion,,,,,true,,,,98477.2999997139,98476.89999961853,66220.49,66226.39999961853,66237.212,98483.317,1,6,,,
exp_instructions,html.Screen,3,2023-09-12T00:36:18.005Z,,,,,11432.982999713902,response,,,,,,continue,keypress(Space),,109916.7999997139,109916.2999997139,98466.737,98477.2999997139,98483.317,109922.196,,,,,
trial,html.Screen,4_0_0,2023-09-12T00:36:22.617Z,,0,1,,4606.903999904636,response,ISIC_2894223.JPG,4,ISIC_0033125.JPG,ISIC_0033125.JPG,false,0,keypress(z),500,114529.39999961853,114529.09999990463,109905.537,109917,109922.196,114547.863,8,400,1,,ISIC_2894223.JPG
break,html.Screen,4_0_1,2023-09-12T00:36:22.619Z,,0,,,NaN,,,,,,false,,,,114531.2999997139,114530.69999980927,,114529.7999997139,,114547.863,8,400,,,
break_continue,html.Screen,4_0_2,2023-09-12T00:36:22.621Z,,0,,,NaN,,,,,,false,,,,114532.5,114532.2999997139,,114531.7999997139,,114547.863,8,400,,,
sequence,flow.Sequence,4_0,2023-09-12T00:36:22.621Z,,0,,,4610.103999713901,completion,,,,,false,,,,114532.89999961853,114532.2999997139,109905.537,109916.89999961853,109922.196,114547.863,8,400,,,
trial,html.Screen,4_1_0,2023-09-12T00:36:28.128Z,,0,1,,5492.236999904635,response,ISIC_0011798.JPG,6,ISIC_0032558.JPG,ISIC_0011798.JPG,false,1,keypress(m),500,120040.2999997139,120040.09999990463,114514.591,114533.09999990463,114547.863,120041.921,8,400,2,,ISIC_0032558.JPG
break,html.Screen,4_1_1,2023-09-12T00:36:28.129Z,,0,,,NaN,,,,,,false,,,,120040.69999980927,120040.59999990463,,120040.2999997139,,120041.921,8,400,,,
break_continue,html.Screen,4_1_2,2023-09-12T00:36:28.129Z,,0,,,NaN,,,,,,false,,,,120040.7999997139,120040.7999997139,,120040.69999980927,,120041.921,8,400,,,
sequence,flow.Sequence,4_1,2023-09-12T00:36:28.129Z,,0,,,5492.9369997139,completion,,,,,false,,,,120040.89999961853,120040.7999997139,114514.591,114533,114547.863,120041.921,8,400,,,
trial,html.Screen,4_2_0,2023-09-12T00:36:33.218Z,,0,1,,5087.878999713896,response,ISIC_0067697.JPG,5,ISIC_0068966.JPG,ISIC_0067697.JPG,false,1,keypress(m),500,125130,125129.7999997139,120025.215,120041,120041.921,125135.177,8,400,3,,ISIC_0068966.JPG
break,html.Screen,4_2_1,2023-09-12T00:36:33.218Z,,0,,,NaN,,,,,,false,,,,125130.39999961853,125130.2999997139,,125130.09999990463,,125135.177,8,400,,,
break_continue,html.Screen,4_2_2,2023-09-12T00:36:33.219Z,,0,,,NaN,,,,,,false,,,,125130.59999990463,125130.59999990463,,125130.39999961853,,125135.177,8,400,,,
sequence,flow.Sequence,4_2,2023-09-12T00:36:33.219Z,,0,,,5088.6789999046305,completion,,,,,false,,,,125130.69999980927,125130.59999990463,120025.215,120041,120041.921,125135.177,8,400,,,
trial,html.Screen,4_3_0,2023-09-12T00:36:37.605Z,,0,1,,4381.622999713902,response,ISIC_0031501.JPG,5,ISIC_7586566.JPG,ISIC_7586566.JPG,false,0,keypress(z),500,129517.09999990463,129516.7999997139,125118.548,125130.69999980927,125135.177,129527.121,8,400,4,,ISIC_0031501.JPG
break,html.Screen,4_3_1,2023-09-12T00:36:37.607Z,,0,,,NaN,,,,,,false,,,,129519.19999980927,129518.59999990463,,129517.59999990463,,129527.121,8,400,,,
break_continue,html.Screen,4_3_2,2023-09-12T00:36:37.608Z,,0,,,NaN,,,,,,false,,,,129520,129519.7999997139,,129519.39999961853,,129527.121,8,400,,,
sequence,flow.Sequence,4_3,2023-09-12T00:36:37.609Z,,0,,,4384.622999713902,completion,,,,,false,,,,129520.39999961853,129519.7999997139,125118.548,125130.69999980927,125135.177,129527.121,8,400,,,
trial,html.Screen,4_4_0,2023-09-12T00:36:42.112Z,,0,1,,4496.778999618531,response,ISIC_1632313.JPG,5,ISIC_0340453.JPG,ISIC_1632313.JPG,false,1,keypress(m),500,134024,134023.89999961853,129510.564,129520.69999980927,129527.121,134035.785,8,400,5,,ISIC_0340453.JPG
break,html.Screen,4_4_1,2023-09-12T00:36:42.113Z,,0,,,NaN,,,,,,false,,,,134024.59999990463,134024.39999961853,,134024.09999990463,,134035.785,8,400,,,
break_continue,html.Screen,4_4_2,2023-09-12T00:36:42.113Z,,0,,,NaN,,,,,,false,,,,134024.89999961853,134024.7999997139,,134024.69999980927,,134035.785,8,400,,,
sequence,flow.Sequence,4_4,2023-09-12T00:36:42.113Z,,0,,,4497.6789997138985,completion,,,,,false,,,,134025,134024.7999997139,129510.564,129520.69999980927,129527.121,134035.785,8,400,,,
trial,html.Screen,4_5_0,2023-09-12T00:36:46.903Z,,0,1,,4779.314999904629,response,ISIC_0010299.JPG,5,ISIC_0014559.JPG,ISIC_0014559.JPG,false,0,keypress(z),500,138815.2999997139,138815.09999990463,134019.153,134025.09999990463,134035.785,138828.456,8,400,6,,ISIC_0010299.JPG
break,html.Screen,4_5_1,2023-09-12T00:36:46.904Z,,0,,,NaN,,,,,,false,,,,138816.19999980927,138815.89999961853,,138815.5,,138828.456,8,400,,,
break_continue,html.Screen,4_5_2,2023-09-12T00:36:46.904Z,,0,,,NaN,,,,,,false,,,,138816.39999961853,138816.39999961853,,138816.2999997139,,138828.456,8,400,,,
sequence,flow.Sequence,4_5,2023-09-12T00:36:46.905Z,,0,,,4780.614999618527,completion,,,,,false,,,,138816.5,138816.39999961853,134019.153,134025.09999990463,134035.785,138828.456,8,400,,,
trial,html.Screen,4_6_0,2023-09-12T00:36:51.994Z,,0,1,,5077.143999904627,response,ISIC_1920685.JPG,5,ISIC_7418723.JPG,ISIC_7418723.JPG,false,0,keypress(z),500,143905.7999997139,143905.59999990463,138811.83,138816.5,138828.456,143938.386,8,400,7,,ISIC_1920685.JPG
break,html.Screen,4_6_1,2023-09-12T00:36:51.995Z,,0,,,NaN,,,,,,false,,,,143906.5,143906.2999997139,,143906.09999990463,,143938.386,8,400,,,
break_continue,html.Screen,4_6_2,2023-09-12T00:36:51.995Z,,0,,,NaN,,,,,,false,,,,143906.69999980927,143906.69999980927,,143906.5,,143938.386,8,400,,,
sequence,flow.Sequence,4_6,2023-09-12T00:36:51.995Z,,0,,,5078.24399980926,completion,,,,,false,,,,143906.7999997139,143906.69999980927,138811.83,138816.5,138828.456,143938.386,8,400,,,
trial,html.Screen,4_7_0,2023-09-12T00:36:56.972Z,,0,1,,4945.513999618532,response,ISIC_4606646.JPG,4,ISIC_0011458.JPG,ISIC_0011458.JPG,false,0,keypress(z),500,148883.89999961853,148883.89999961853,143921.7,143906.89999961853,143938.386,148898.05,8,400,8,,ISIC_4606646.JPG
break,html.Screen,4_7_1,2023-09-12T00:36:56.973Z,,0,,,NaN,,,,,,false,,,,148884.5,148884.39999961853,,148884.09999990463,,148898.05,8,400,,,
break_continue,html.Screen,4_7_2,2023-09-12T00:36:56.973Z,,0,,,NaN,,,,,,false,,,,148884.89999961853,148884.7999997139,,148884.59999990463,,148898.05,8,400,,,
sequence,flow.Sequence,4_7,2023-09-12T00:36:56.973Z,,0,,,4946.413999713899,completion,,,,,false,,,,148885,148884.7999997139,143921.7,143906.89999961853,143938.386,148898.05,8,400,,,
trial,html.Screen,4_8_0,2023-09-12T00:37:01.217Z,,0,1,,4230.149999809277,response,ISIC_0014975.JPG,6,ISIC_0026483.JPG,ISIC_0014975.JPG,false,1,keypress(m),500,153128.2999997139,153128.19999980927,148881.464,148885.09999990463,148898.05,153139.756,8,400,9,,ISIC_0026483.JPG
break,html.Screen,4_8_1,2023-09-12T00:37:01.217Z,,0,,,NaN,,,,,,false,,,,153128.7999997139,153128.59999990463,,153128.39999961853,,153139.756,8,400,,,
break_continue,html.Screen,4_8_2,2023-09-12T00:37:01.217Z,,0,,,NaN,,,,,,false,,,,153129,153128.89999961853,,153128.7999997139,,153139.756,8,400,,,
sequence,flow.Sequence,4_8,2023-09-12T00:37:01.217Z,,0,,,4230.849999618542,completion,,,,,false,,,,153129.09999990463,153128.89999961853,148881.464,148885,148898.05,153139.756,8,400,,,
trial,html.Screen,4_9_0,2023-09-12T00:37:06.146Z,,0,1,,4918.043999713904,response,ISIC_0010023.JPG,5,ISIC_2394181.JPG,ISIC_2394181.JPG,false,0,keypress(z),500,158057.89999961853,158057.7999997139,153122.971,153129.09999990463,153139.756,158065.993,8,400,10,,ISIC_0010023.JPG
break,html.Screen,4_9_1,2023-09-12T00:37:06.147Z,,0,,,NaN,,,,,,false,,,,158058.5,158058.2999997139,,158058,,158065.993,8,400,,,
break_continue,html.Screen,4_9_2,2023-09-12T00:37:06.147Z,,0,,,NaN,,,,,,false,,,,158058.7999997139,158058.69999980927,,158058.59999990463,,158065.993,8,400,,,
sequence,flow.Sequence,4_9,2023-09-12T00:37:06.147Z,,0,,,4918.943999809271,completion,,,,,false,,,,158058.89999961853,158058.69999980927,153122.971,153129.09999990463,153139.756,158065.993,8,400,,,
trial,html.Screen,4_10_0,2023-09-12T00:37:12.409Z,,0,1,,6255.007000000012,response,ISIC_0065775.JPG,4,ISIC_0025219.JPG,ISIC_0065775.JPG,false,1,keypress(m),500,164321.09999990463,164321,158049.243,158058.89999961853,158065.993,164328.071,8,400,11,,ISIC_0025219.JPG
break,html.Screen,4_10_1,2023-09-12T00:37:12.410Z,,0,,,NaN,,,,,,false,,,,164321.7999997139,164321.59999990463,,164321.19999980927,,164328.071,8,400,,,
break_continue,html.Screen,4_10_2,2023-09-12T00:37:12.410Z,,0,,,NaN,,,,,,false,,,,164322,164322,,164321.89999961853,,164328.071,8,400,,,
sequence,flow.Sequence,4_10,2023-09-12T00:37:12.410Z,,0,,,6256.007000000012,completion,,,,,false,,,,164322.09999990463,164322,158049.243,158058.89999961853,158065.993,164328.071,8,400,,,
trial,html.Screen,4_11_0,2023-09-12T00:37:18.654Z,,0,1,,6237.228999713901,response,ISIC_2506200.JPG,5,ISIC_0024796.JPG,ISIC_0024796.JPG,false,0,keypress(z),500,170565.7999997139,170565.2999997139,164311.48,164322.2999997139,164328.071,170573.617,8,400,12,,ISIC_2506200.JPG
break,html.Screen,4_11_1,2023-09-12T00:37:18.656Z,,0,,,NaN,,,,,,false,,,,170567.5,170567.09999990463,,170566.19999980927,,170573.617,8,400,,,
break_continue,html.Screen,4_11_2,2023-09-12T00:37:18.657Z,,0,,,NaN,,,,,,false,,,,170568.2999997139,170568.19999980927,,170567.69999980927,,170573.617,8,400,,,
sequence,flow.Sequence,4_11,2023-09-12T00:37:18.657Z,,0,,,6240.128999809269,completion,,,,,false,,,,170568.69999980927,170568.19999980927,164311.48,164322.19999980927,164328.071,170573.617,8,400,,,
trial,html.Screen,4_12_0,2023-09-12T00:37:24.827Z,,0,1,,6165.282999618532,response,ISIC_6714082.JPG,5,ISIC_0027600.JPG,ISIC_6714082.JPG,false,1,keypress(m),500,176739,176738.89999961853,170556.967,170569,170573.617,176752.321,8,400,13,,ISIC_0027600.JPG
break,html.Screen,4_12_1,2023-09-12T00:37:24.828Z,,0,,,NaN,,,,,,false,,,,176739.59999990463,176739.2999997139,,176739.09999990463,,176752.321,8,400,,,
break_continue,html.Screen,4_12_2,2023-09-12T00:37:24.828Z,,0,,,NaN,,,,,,false,,,,176739.89999961853,176739.69999980927,,176739.69999980927,,176752.321,8,400,,,
sequence,flow.Sequence,4_12,2023-09-12T00:37:24.828Z,,0,,,6166.082999809267,completion,,,,,false,,,,176740,176739.69999980927,170556.967,170569,170573.617,176752.321,8,400,,,
trial,html.Screen,4_13_0,2023-09-12T00:37:30.190Z,,0,1,,5349.578999618534,response,ISIC_2904474.JPG,5,ISIC_0059976.JPG,ISIC_0059976.JPG,false,0,keypress(z),500,182101.89999961853,182101.89999961853,176735.598,176740,176752.321,182112.733,8,400,14,,ISIC_2904474.JPG
break,html.Screen,4_13_1,2023-09-12T00:37:30.191Z,,0,,,NaN,,,,,,false,,,,182102.5,182102.2999997139,,182102.09999990463,,182112.733,8,400,,,
break_continue,html.Screen,4_13_2,2023-09-12T00:37:30.191Z,,0,,,NaN,,,,,,false,,,,182102.7999997139,182102.69999980927,,182102.59999990463,,182112.733,8,400,,,
sequence,flow.Sequence,4_13,2023-09-12T00:37:30.191Z,,0,,,5350.378999809269,completion,,,,,false,,,,182102.89999961853,182102.69999980927,176735.598,176740,176752.321,182112.733,8,400,,,
trial,html.Screen,4_14_0,2023-09-12T00:37:35.539Z,,0,1,,5338.266999999993,response,ISIC_9417004.JPG,5,ISIC_0060508.JPG,ISIC_9417004.JPG,false,1,keypress(m),500,187451.09999990463,187451,182096.095,182103,182112.733,187456.487,8,400,15,,ISIC_0060508.JPG
break,html.Screen,4_14_1,2023-09-12T00:37:35.540Z,,0,,,NaN,,,,,,false,,,,187451.69999980927,187451.5,,187451.19999980927,,187456.487,8,400,,,
break_continue,html.Screen,4_14_2,2023-09-12T00:37:35.540Z,,0,,,NaN,,,,,,false,,,,187452.09999990463,187452,,187451.7999997139,,187456.487,8,400,,,
sequence,flow.Sequence,4_14,2023-09-12T00:37:35.540Z,,0,,,5339.266999999993,completion,,,,,false,,,,187452.09999990463,187452,182096.095,182103,182112.733,187456.487,8,400,,,
trial,html.Screen,4_15_0,2023-09-12T00:37:41.877Z,,0,1,,6332.412999618537,response,ISIC_0013707.JPG,5,ISIC_0025327.JPG,ISIC_0013707.JPG,false,1,keypress(m),500,193788.89999961853,193788.89999961853,187439.725,187452.19999980927,187456.487,193802.091,8,400,16,,ISIC_0025327.JPG
break,html.Screen,4_15_1,2023-09-12T00:37:41.878Z,,0,,,NaN,,,,,,false,,,,193789.39999961853,193789.2999997139,,193789.09999990463,,193802.091,8,400,,,
break_continue,html.Screen,4_15_2,2023-09-12T00:37:41.878Z,,0,,,NaN,,,,,,false,,,,193789.69999980927,193789.59999990463,,193789.5,,193802.091,8,400,,,
sequence,flow.Sequence,4_15,2023-09-12T00:37:41.878Z,,0,,,6333.112999904639,completion,,,,,false,,,,193789.69999980927,193789.59999990463,187439.725,187452.09999990463,187456.487,193802.091,8,400,,,
trial,html.Screen,4_16_0,2023-09-12T00:37:47.015Z,,0,1,,5124.8089996185445,response,ISIC_0028291.JPG,5,ISIC_0066739.JPG,ISIC_0028291.JPG,false,1,keypress(m),500,198927,198926.89999961853,193785.44,193789.7999997139,193802.091,198928.767,8,400,17,,ISIC_0066739.JPG
break,html.Screen,4_16_1,2023-09-12T00:37:47.016Z,,0,,,NaN,,,,,,false,,,,198927.39999961853,198927.2999997139,,198927,,198928.767,8,400,,,
break_continue,html.Screen,4_16_2,2023-09-12T00:37:47.016Z,,0,,,NaN,,,,,,false,,,,198927.59999990463,198927.59999990463,,198927.39999961853,,198928.767,8,400,,,
sequence,flow.Sequence,4_16,2023-09-12T00:37:47.016Z,,0,,,5125.508999904647,completion,,,,,false,,,,198927.69999980927,198927.59999990463,193785.44,193789.69999980927,193802.091,198928.767,8,400,,,
trial,html.Screen,4_17_0,2023-09-12T00:37:53.434Z,,0,1,,6416.532999713905,response,ISIC_0057286.JPG,5,ISIC_0062575.JPG,ISIC_0062575.JPG,false,0,keypress(z),500,205345.69999980927,205345.2999997139,198912.101,198927.7999997139,198928.767,205358.181,8,400,18,,ISIC_0057286.JPG
break,html.Screen,4_17_1,2023-09-12T00:37:53.436Z,,0,,,NaN,,,,,,false,,,,205347.19999980927,205346.89999961853,,205346.09999990463,,205358.181,8,400,,,
break_continue,html.Screen,4_17_2,2023-09-12T00:37:53.436Z,,0,,,NaN,,,,,,false,,,,205347.7999997139,205347.69999980927,,205347.39999961853,,205358.181,8,400,,,
sequence,flow.Sequence,4_17,2023-09-12T00:37:53.437Z,,0,,,6418.932999809273,completion,,,,,false,,,,205348,205347.69999980927,198912.101,198927.69999980927,198928.767,205358.181,8,400,,,
trial,html.Screen,4_18_0,2023-09-12T00:37:58.895Z,,0,1,,5447.918999904621,response,ISIC_0011198.JPG,4,ISIC_0027552.JPG,ISIC_0027552.JPG,false,0,keypress(z),500,210806.09999990463,210806.09999990463,205341.328,205348.19999980927,205358.181,210818.646,8,400,19,,ISIC_0011198.JPG
break,html.Screen,4_18_1,2023-09-12T00:37:58.895Z,,0,,,NaN,,,,,,false,,,,210806.59999990463,210806.5,,210806.2999997139,,210818.646,8,400,,,
break_continue,html.Screen,4_18_2,2023-09-12T00:37:58.895Z,,0,,,NaN,,,,,,false,,,,210806.69999980927,210806.69999980927,,210806.59999990463,,210818.646,8,400,,,
sequence,flow.Sequence,4_18,2023-09-12T00:37:58.895Z,,0,,,5448.518999809254,completion,,,,,false,,,,210806.7999997139,210806.69999980927,205341.328,205348.19999980927,205358.181,210818.646,8,400,,,
trial,html.Screen,4_19_0,2023-09-12T00:38:04.262Z,,0,1,,5354.353999999992,response,ISIC_9518180.JPG,5,ISIC_5835765.JPG,ISIC_5835765.JPG,false,0,keypress(z),500,216173.19999980927,216173,210801.93,210806.89999961853,210818.646,216178.988,8,400,20,,ISIC_9518180.JPG
break,html.Screen,4_19_1,2023-09-12T00:38:04.263Z,,0,,,NaN,,,,,,false,,,,216174.09999990463,216173.7999997139,,216173.39999961853,,216178.988,8,400,,,
break_continue,html.Screen,4_19_2,2023-09-12T00:38:04.263Z,,0,,,NaN,,,,,,false,,,,216174.2999997139,216174.2999997139,,216174.09999990463,,216178.988,8,400,,,
sequence,flow.Sequence,4_19,2023-09-12T00:38:04.263Z,,0,,,5355.65399971389,completion,,,,,false,,,,216174.39999961853,216174.2999997139,210801.93,210806.89999961853,210818.646,216178.988,8,400,,,
trial,html.Screen,4_20_0,2023-09-12T00:38:10.729Z,,0,1,,6461.411999618518,response,ISIC_0065774.JPG,5,ISIC_4097868.JPG,ISIC_0065774.JPG,false,1,keypress(m),500,222640.69999980927,222640.39999961853,216162.434,216174.59999990463,216178.988,222641.584,8,400,21,,ISIC_4097868.JPG
break,html.Screen,4_20_1,2023-09-12T00:38:10.730Z,,0,,,NaN,,,,,,false,,,,222641.59999990463,222641.2999997139,,222640.7999997139,,222641.584,8,400,,,
break_continue,html.Screen,4_20_2,2023-09-12T00:38:10.731Z,,0,,,NaN,,,,,,false,,,,222642.39999961853,222642.39999961853,,222642,,222641.584,8,400,,,
sequence,flow.Sequence,4_20,2023-09-12T00:38:10.731Z,,0,,,6463.411999618518,completion,,,,,false,,,,222642.69999980927,222642.39999961853,216162.434,216174.59999990463,216178.988,222641.584,8,400,,,
trial,html.Screen,4_21_0,2023-09-12T00:38:15.744Z,,0,1,,5013.215999713895,response,ISIC_0046323.JPG,5,ISIC_0056603.JPG,ISIC_0056603.JPG,false,0,keypress(z),500,227654.89999961853,227654.7999997139,222625.059,222642.7999997139,222641.584,227668.196,8,400,22,,ISIC_0046323.JPG
break,html.Screen,4_21_1,2023-09-12T00:38:15.744Z,,0,,,NaN,,,,,,false,,,,227655.59999990463,227655.2999997139,,227655.09999990463,,227668.196,8,400,,,
break_continue,html.Screen,4_21_2,2023-09-12T00:38:15.745Z,,0,,,NaN,,,,,,false,,,,227655.89999961853,227655.89999961853,,227655.7999997139,,227668.196,8,400,,,
sequence,flow.Sequence,4_21,2023-09-12T00:38:15.745Z,,0,,,5014.315999618528,completion,,,,,false,,,,227656,227655.89999961853,222625.059,222642.7999997139,222641.584,227668.196,8,400,,,
trial,html.Screen,4_22_0,2023-09-12T00:38:20.994Z,,0,1,,5237.103999713901,response,ISIC_0054287.JPG,5,ISIC_0025597.JPG,ISIC_0054287.JPG,false,1,keypress(m),500,232905.59999990463,232905.2999997139,227651.323,227656.09999990463,227668.196,232911.591,8,400,23,,ISIC_0025597.JPG
break,html.Screen,4_22_1,2023-09-12T00:38:20.996Z,,0,,,NaN,,,,,,false,,,,232907.09999990463,232906.7999997139,,232905.89999961853,,232911.591,8,400,,,
break_continue,html.Screen,4_22_2,2023-09-12T00:38:20.997Z,,0,,,NaN,,,,,,false,,,,232907.89999961853,232907.59999990463,,232907.2999997139,,232911.591,8,400,,,
sequence,flow.Sequence,4_22,2023-09-12T00:38:20.997Z,,0,,,5239.403999904636,completion,,,,,false,,,,232908.19999980927,232907.59999990463,227651.323,227656.09999990463,227668.196,232911.591,8,400,,,
trial,html.Screen,4_23_0,2023-09-12T00:38:27.048Z,,0,1,,6047.3089996185445,response,ISIC_0025217.JPG,6,ISIC_0014766.JPG,ISIC_0014766.JPG,false,0,keypress(z),500,238959,238958.89999961853,232894.956,232908.39999961853,232911.591,238973.524,8,400,24,,ISIC_0025217.JPG
break,html.Screen,4_23_1,2023-09-12T00:38:27.048Z,,0,,,NaN,,,,,,false,,,,238959.69999980927,238959.5,,238959.19999980927,,238973.524,8,400,,,
break_continue,html.Screen,4_23_2,2023-09-12T00:38:27.049Z,,0,,,NaN,,,,,,false,,,,238960.09999990463,238960,,238959.7999997139,,238973.524,8,400,,,
sequence,flow.Sequence,4_23,2023-09-12T00:38:27.049Z,,0,,,6048.409000000014,completion,,,,,false,,,,238960.19999980927,238960,232894.956,232908.2999997139,232911.591,238973.524,8,400,,,
trial,html.Screen,4_24_0,2023-09-12T00:38:32.416Z,,0,1,,5353.975999999995,response,ISIC_0029050.JPG,5,ISIC_0028467.JPG,ISIC_0029050.JPG,false,1,keypress(m),500,244327.7999997139,244327.5,238956.742,238960.2999997139,238973.524,244333.795,8,400,25,,ISIC_0028467.JPG
break,html.Screen,4_24_1,2023-09-12T00:38:32.418Z,,0,,,NaN,,,,,,false,,,,244329.09999990463,244328.59999990463,,244328,,244333.795,8,400,,,
break_continue,html.Screen,4_24_2,2023-09-12T00:38:32.418Z,,0,,,NaN,,,,,,false,,,,244329.59999990463,244329.39999961853,,244329.19999980927,,244333.795,8,400,,,
sequence,flow.Sequence,4_24,2023-09-12T00:38:32.418Z,,0,,,5355.875999618525,completion,,,,,false,,,,244329.7999997139,244329.39999961853,238956.742,238960.19999980927,238973.524,244333.795,8,400,,,
trial,html.Screen,4_25_0,2023-09-12T00:38:37.749Z,,0,1,,5326.404999809252,response,ISIC_0068152.JPG,5,ISIC_6444989.JPG,ISIC_0068152.JPG,false,1,keypress(m),500,249660.2999997139,249660.19999980927,244317.163,244330,244333.795,249660.809,8,400,26,,ISIC_6444989.JPG
break,html.Screen,4_25_1,2023-09-12T00:38:37.749Z,,0,,,NaN,,,,,,false,,,,249660.69999980927,249660.59999990463,,249660.39999961853,,249660.809,8,400,,,
break_continue,html.Screen,4_25_2,2023-09-12T00:38:37.750Z,,0,,,NaN,,,,,,false,,,,249660.89999961853,249660.7999997139,,249660.69999980927,,249660.809,8,400,,,
sequence,flow.Sequence,4_25,2023-09-12T00:38:37.750Z,,0,,,5327.004999713885,completion,,,,,false,,,,249661.09999990463,249660.7999997139,244317.163,244330,244333.795,249660.809,8,400,,,
trial,html.Screen,4_26_0,2023-09-12T00:38:42.233Z,,0,1,,4482.890999809257,response,ISIC_0013365.JPG,5,ISIC_9303594.JPG,ISIC_0013365.JPG,false,1,keypress(m),500,254143.89999961853,254143.69999980927,249644.156,249661.09999990463,249660.809,254152.913,8,400,27,,ISIC_9303594.JPG
break,html.Screen,4_26_1,2023-09-12T00:38:42.233Z,,0,,,NaN,,,,,,false,,,,254144.2999997139,254144.19999980927,,254144,,254152.913,8,400,,,
break_continue,html.Screen,4_26_2,2023-09-12T00:38:42.233Z,,0,,,NaN,,,,,,false,,,,254144.5,254144.39999961853,,254144.2999997139,,254152.913,8,400,,,
sequence,flow.Sequence,4_26,2023-09-12T00:38:42.233Z,,0,,,4483.590999618522,completion,,,,,false,,,,254144.5,254144.39999961853,249644.156,249661.09999990463,249660.809,254152.913,8,400,,,
trial,html.Screen,4_27_0,2023-09-12T00:38:48.330Z,,0,1,,6088.48699961853,response,ISIC_0024512.JPG,4,ISIC_0430356.JPG,ISIC_0024512.JPG,false,1,keypress(m),500,260241.69999980927,260241.39999961853,254136.22,254144.59999990463,254152.913,260248.181,8,400,28,,ISIC_0430356.JPG
break,html.Screen,4_27_1,2023-09-12T00:38:48.332Z,,0,,,NaN,,,,,,false,,,,260243.59999990463,260243,,260242.19999980927,,260248.181,8,400,,,
break_continue,html.Screen,4_27_2,2023-09-12T00:38:48.333Z,,0,,,NaN,,,,,,false,,,,260244.39999961853,260244.19999980927,,260243.7999997139,,260248.181,8,400,,,
sequence,flow.Sequence,4_27,2023-09-12T00:38:48.333Z,,0,,,6091.286999809265,completion,,,,,false,,,,260244.69999980927,260244.19999980927,254136.22,254144.59999990463,254152.913,260248.181,8,400,,,
trial,html.Screen,4_28_0,2023-09-12T00:38:54.000Z,,0,1,,5662.918999904621,response,ISIC_0028626.JPG,5,ISIC_5778927.JPG,ISIC_0028626.JPG,false,1,keypress(m),500,265911.19999980927,265911.09999990463,260231.494,260244.89999961853,260248.181,265925.787,8,400,29,,ISIC_5778927.JPG
break,html.Screen,4_28_1,2023-09-12T00:38:54.001Z,,0,,,NaN,,,,,,false,,,,265911.69999980927,265911.59999990463,,265911.2999997139,,265925.787,8,400,,,
break_continue,html.Screen,4_28_2,2023-09-12T00:38:54.001Z,,0,,,NaN,,,,,,false,,,,265911.89999961853,265911.89999961853,,265911.7999997139,,265925.787,8,400,,,
sequence,flow.Sequence,4_28,2023-09-12T00:38:54.001Z,,0,,,5663.718999618519,completion,,,,,false,,,,265912.09999990463,265911.89999961853,260231.494,260244.89999961853,260248.181,265925.787,8,400,,,
trial,html.Screen,4_29_0,2023-09-12T00:38:59.833Z,,0,1,,5818.212999999989,response,ISIC_0061343.JPG,6,ISIC_9989485.JPG,ISIC_9989485.JPG,false,0,keypress(z),500,271744.19999980927,271744,265909.088,265912.09999990463,265925.787,271753.806,8,400,30,,ISIC_0061343.JPG
break,html.Screen,4_29_1,2023-09-12T00:38:59.834Z,,0,,,NaN,,,,,,false,,,,271744.7999997139,271744.59999990463,,271744.39999961853,,271753.806,8,400,,,
break_continue,html.Screen,4_29_2,2023-09-12T00:38:59.834Z,,0,,,NaN,,,,,,false,,,,271745,271744.89999961853,,271744.7999997139,,271753.806,8,400,,,
sequence,flow.Sequence,4_29,2023-09-12T00:38:59.834Z,,0,,,5819.112999618519,completion,,,,,false,,,,271745.19999980927,271744.89999961853,265909.088,265912.09999990463,265925.787,271753.806,8,400,,,
trial,html.Screen,4_30_0,2023-09-12T00:39:04.364Z,,0,1,,4521.194000000018,response,ISIC_2532039.JPG,5,ISIC_0009911.JPG,ISIC_0009911.JPG,false,0,keypress(z),500,276275.19999980927,276275,271737.239,271745.19999980927,271753.806,276279.329,8,400,31,,ISIC_2532039.JPG
break,html.Screen,4_30_1,2023-09-12T00:39:04.365Z,,0,,,NaN,,,,,,false,,,,276275.89999961853,276275.59999990463,,276275.2999997139,,276279.329,8,400,,,
break_continue,html.Screen,4_30_2,2023-09-12T00:39:04.365Z,,0,,,NaN,,,,,,false,,,,276276.09999990463,276276.09999990463,,276276,,276279.329,8,400,,,
sequence,flow.Sequence,4_30,2023-09-12T00:39:04.365Z,,0,,,4522.29399990465,completion,,,,,false,,,,276276.19999980927,276276.09999990463,271737.239,271745.19999980927,271753.806,276279.329,8,400,,,
trial,html.Screen,4_31_0,2023-09-12T00:39:09.584Z,,0,1,,5215.370999809238,response,ISIC_0030512.JPG,4,ISIC_0009880.JPG,ISIC_0009880.JPG,false,0,keypress(z),500,281494.89999961853,281494.69999980927,276262.615,276276.2999997139,276279.329,281506.099,8,400,32,,ISIC_0030512.JPG
break,html.Screen,4_31_1,2023-09-12T00:39:09.585Z,,0,,,NaN,,,,,,false,,,,281495.69999980927,281495.5,,281495,,281506.099,8,400,,,
break_continue,html.Screen,4_31_2,2023-09-12T00:39:09.585Z,,0,,,NaN,,,,,,false,,,,281496,281495.89999961853,,281495.7999997139,,281506.099,8,400,,,
sequence,flow.Sequence,4_31,2023-09-12T00:39:09.585Z,,0,,,5216.570999618503,completion,,,,,false,,,,281496.19999980927,281495.89999961853,276262.615,276276.2999997139,276279.329,281506.099,8,400,,,
trial,html.Screen,4_32_0,2023-09-12T00:39:14.616Z,,0,1,,5020.600999809278,response,ISIC_2470795.JPG,5,ISIC_0033704.JPG,ISIC_0033704.JPG,false,0,keypress(z),500,286526.7999997139,286526.69999980927,281489.572,281496.19999980927,281506.099,286532.56,8,400,33,,ISIC_2470795.JPG
break,html.Screen,4_32_1,2023-09-12T00:39:14.616Z,,0,,,NaN,,,,,,false,,,,286527.19999980927,286527.09999990463,,286526.89999961853,,286532.56,8,400,,,
break_continue,html.Screen,4_32_2,2023-09-12T00:39:14.616Z,,0,,,NaN,,,,,,false,,,,286527.5,286527.39999961853,,286527.2999997139,,286532.56,8,400,,,
sequence,flow.Sequence,4_32,2023-09-12T00:39:14.616Z,,0,,,5021.300999618543,completion,,,,,false,,,,286527.5,286527.39999961853,281489.572,281496.19999980927,281506.099,286532.56,8,400,,,
trial,html.Screen,4_33_0,2023-09-12T00:39:19.693Z,,0,1,,5070.940000000002,response,ISIC_5048124.JPG,4,ISIC_0027832.JPG,ISIC_0027832.JPG,false,0,keypress(z),500,291603.59999990463,291603.5,286515.969,286527.59999990463,286532.56,291609.203,8,400,34,,ISIC_5048124.JPG
break,html.Screen,4_33_1,2023-09-12T00:39:19.693Z,,0,,,NaN,,,,,,false,,,,291604.09999990463,291603.89999961853,,291603.69999980927,,291609.203,8,400,,,
break_continue,html.Screen,4_33_2,2023-09-12T00:39:19.693Z,,0,,,NaN,,,,,,false,,,,291604.19999980927,291604.09999990463,,291604.09999990463,,291609.203,8,400,,,
sequence,flow.Sequence,4_33,2023-09-12T00:39:19.693Z,,0,,,5071.539999904635,completion,,,,,false,,,,291604.2999997139,291604.09999990463,286515.969,286527.59999990463,286532.56,291609.203,8,400,,,
trial,html.Screen,4_34_0,2023-09-12T00:39:24.190Z,,0,1,,4492.196999618551,response,ISIC_0067008.JPG,5,ISIC_6548734.JPG,ISIC_6548734.JPG,false,0,keypress(z),500,296101.5,296101.39999961853,291592.51,291604.39999961853,291609.203,296117.902,8,400,35,,ISIC_0067008.JPG
break,html.Screen,4_34_1,2023-09-12T00:39:24.191Z,,0,,,NaN,,,,,,false,,,,296102.39999961853,296102.19999980927,,296101.7999997139,,296117.902,8,400,,,
break_continue,html.Screen,4_34_2,2023-09-12T00:39:24.192Z,,0,,,NaN,,,,,,false,,,,296102.7999997139,296102.69999980927,,296102.5,,296117.902,8,400,,,
sequence,flow.Sequence,4_34,2023-09-12T00:39:24.192Z,,0,,,4493.496999809286,completion,,,,,false,,,,296102.7999997139,296102.69999980927,291592.51,291604.2999997139,291609.203,296117.902,8,400,,,
trial,html.Screen,4_35_0,2023-09-12T00:39:30.178Z,,0,1,,5970.897999713896,response,ISIC_4734950.JPG,5,ISIC_4272317.JPG,ISIC_4272317.JPG,false,0,keypress(z),500,302089.19999980927,302088.7999997139,296101.27,296102.89999961853,296117.902,302096.268,8,400,36,,ISIC_4734950.JPG
break,html.Screen,4_35_1,2023-09-12T00:39:30.180Z,,0,,,NaN,,,,,,false,,,,302090.69999980927,302090.2999997139,,302089.69999980927,,302096.268,8,400,,,
break_continue,html.Screen,4_35_2,2023-09-12T00:39:30.180Z,,0,,,NaN,,,,,,false,,,,302091.5,302091.2999997139,,302091,,302096.268,8,400,,,
sequence,flow.Sequence,4_35,2023-09-12T00:39:30.181Z,,0,,,5973.397999713896,completion,,,,,false,,,,302091.7999997139,302091.2999997139,296101.27,296102.7999997139,296117.902,302096.268,8,400,,,
trial,html.Screen,4_36_0,2023-09-12T00:39:35.341Z,,0,1,,5155.831999904651,response,ISIC_0061067.JPG,6,ISIC_0031369.JPG,ISIC_0031369.JPG,false,0,keypress(z),500,307252.2999997139,307252.09999990463,302079.777,302092.09999990463,302096.268,307256.212,8,400,37,,ISIC_0061067.JPG
break,html.Screen,4_36_1,2023-09-12T00:39:35.342Z,,0,,,NaN,,,,,,false,,,,307253.19999980927,307252.89999961853,,307252.2999997139,,307256.212,8,400,,,
break_continue,html.Screen,4_36_2,2023-09-12T00:39:35.343Z,,0,,,NaN,,,,,,false,,,,307253.59999990463,307253.59999990463,,307253.2999997139,,307256.212,8,400,,,
sequence,flow.Sequence,4_36,2023-09-12T00:39:35.343Z,,0,,,5157.331999904651,completion,,,,,false,,,,307253.7999997139,307253.59999990463,302079.777,302092,302096.268,307256.212,8,400,,,
trial,html.Screen,4_37_0,2023-09-12T00:39:40.279Z,,0,1,,4933.687999618531,response,ISIC_7090336.JPG,5,ISIC_0065206.JPG,ISIC_0065206.JPG,false,0,keypress(z),500,312190.09999990463,312189.89999961853,307239.576,307253.89999961853,307256.212,312199.192,8,400,38,,ISIC_7090336.JPG
break,html.Screen,4_37_1,2023-09-12T00:39:40.280Z,,0,,,NaN,,,,,,false,,,,312191,312190.69999980927,,312190.2999997139,,312199.192,8,400,,,
break_continue,html.Screen,4_37_2,2023-09-12T00:39:40.280Z,,0,,,NaN,,,,,,false,,,,312191.39999961853,312191.2999997139,,312191.09999990463,,312199.192,8,400,,,
sequence,flow.Sequence,4_37,2023-09-12T00:39:40.281Z,,0,,,4935.087999713898,completion,,,,,false,,,,312191.59999990463,312191.2999997139,307239.576,307253.7999997139,307256.212,312199.192,8,400,,,
trial,html.Screen,4_38_0,2023-09-12T00:39:45.707Z,,0,1,,5418.808000000019,response,ISIC_0069944.JPG,5,ISIC_0046449.JPG,ISIC_0046449.JPG,false,0,keypress(z),500,317618.19999980927,317618,312182.528,312191.7999997139,312199.192,317626.513,8,400,39,,ISIC_0069944.JPG
break,html.Screen,4_38_1,2023-09-12T00:39:45.708Z,,0,,,NaN,,,,,,false,,,,317618.5,317618.5,,317618.2999997139,,317626.513,8,400,,,
break_continue,html.Screen,4_38_2,2023-09-12T00:39:45.708Z,,0,,,NaN,,,,,,false,,,,317618.69999980927,317618.69999980927,,317618.59999990463,,317626.513,8,400,,,
sequence,flow.Sequence,4_38,2023-09-12T00:39:45.708Z,,0,,,5419.507999809284,completion,,,,,false,,,,317618.7999997139,317618.69999980927,312182.528,312191.69999980927,312199.192,317626.513,8,400,,,
trial,html.Screen,4_39_0,2023-09-12T00:39:50.453Z,,0,1,,4737.2869997139205,response,ISIC_5272837.JPG,6,ISIC_8636706.JPG,ISIC_5272837.JPG,false,1,keypress(m),500,322363.89999961853,322363.7999997139,317609.808,317618.89999961853,317626.513,322369.061,8,400,40,,ISIC_8636706.JPG
break,html.Screen,4_39_1,2023-09-12T00:39:50.453Z,,0,,,NaN,,,,,,false,,,,322364.59999990463,322364.39999961853,,322364,,322369.061,8,400,,,
break_continue,html.Screen,4_39_2,2023-09-12T00:39:50.454Z,,0,,,NaN,,,,,,false,,,,322365,322364.89999961853,,322364.69999980927,,322369.061,8,400,,,
sequence,flow.Sequence,4_39,2023-09-12T00:39:50.454Z,,0,,,4738.386999618553,completion,,,,,false,,,,322365.19999980927,322364.89999961853,317609.808,317618.7999997139,317626.513,322369.061,8,400,,,
trial,html.Screen,4_40_0,2023-09-12T00:39:56.668Z,,0,1,,6209.738999713911,response,ISIC_2622189.JPG,9,ISIC_0010783.JPG,ISIC_0010783.JPG,false,0,keypress(z),500,328578.89999961853,328578.7999997139,322352.305,322365.19999980927,322369.061,328581.1,8,400,41,,ISIC_2622189.JPG
break,html.Screen,4_40_1,2023-09-12T00:39:56.669Z,,0,,,NaN,,,,,,false,,,,328579.2999997139,328579.2999997139,,328579,,328581.1,8,400,,,
break_continue,html.Screen,4_40_2,2023-09-12T00:39:56.669Z,,0,,,NaN,,,,,,false,,,,328579.5,328579.5,,328579.39999961853,,328581.1,8,400,,,
sequence,flow.Sequence,4_40,2023-09-12T00:39:56.669Z,,0,,,6210.439000000013,completion,,,,,false,,,,328579.59999990463,328579.5,322352.305,322365.19999980927,322369.061,328581.1,8,400,,,
trial,html.Screen,4_41_0,2023-09-12T00:40:01.438Z,,0,1,,4767.900000000023,response,ISIC_9155028.JPG,6,ISIC_2535541.JPG,ISIC_2535541.JPG,false,0,keypress(z),500,333349.09999990463,333349,328564.554,328579.69999980927,328581.1,333357.042,8,400,42,,ISIC_9155028.JPG
break,html.Screen,4_41_1,2023-09-12T00:40:01.439Z,,0,,,NaN,,,,,,false,,,,333349.5,333349.5,,333349.19999980927,,333357.042,8,400,,,
break_continue,html.Screen,4_41_2,2023-09-12T00:40:01.439Z,,0,,,NaN,,,,,,false,,,,333349.69999980927,333349.69999980927,,333349.59999990463,,333357.042,8,400,,,
sequence,flow.Sequence,4_41,2023-09-12T00:40:01.439Z,,0,,,4768.599999809288,completion,,,,,false,,,,333349.89999961853,333349.69999980927,328564.554,328579.69999980927,328581.1,333357.042,8,400,,,
trial,html.Screen,4_42_0,2023-09-12T00:40:06.648Z,,0,1,,5201.657999809249,response,ISIC_9668514.JPG,5,ISIC_3343475.JPG,ISIC_3343475.JPG,false,0,keypress(z),500,338558.89999961853,338558.69999980927,333340.432,333349.89999961853,333357.042,338583.901,8,400,43,,ISIC_9668514.JPG
break,html.Screen,4_42_1,2023-09-12T00:40:06.649Z,,0,,,NaN,,,,,,false,,,,338559.59999990463,338559.39999961853,,338559.09999990463,,338583.901,8,400,,,
break_continue,html.Screen,4_42_2,2023-09-12T00:40:06.649Z,,0,,,NaN,,,,,,false,,,,338559.89999961853,338559.89999961853,,338559.7999997139,,338583.901,8,400,,,
sequence,flow.Sequence,4_42,2023-09-12T00:40:06.649Z,,0,,,5202.857999618514,completion,,,,,false,,,,338560.09999990463,338559.89999961853,333340.432,333349.89999961853,333357.042,338583.901,8,400,,,
trial,html.Screen,4_43_0,2023-09-12T00:40:11.551Z,,0,1,,4877.69899990462,response,ISIC_2642873.JPG,5,ISIC_8398000.JPG,ISIC_8398000.JPG,false,0,keypress(z),500,343461.7999997139,343461.59999990463,338567.252,338560.09999990463,338583.901,343476.904,8,400,44,,ISIC_2642873.JPG
break,html.Screen,4_43_1,2023-09-12T00:40:11.552Z,,0,,,NaN,,,,,,false,,,,343463,343462.69999980927,,343462.09999990463,,343476.904,8,400,,,
break_continue,html.Screen,4_43_2,2023-09-12T00:40:11.553Z,,0,,,NaN,,,,,,false,,,,343463.5,343463.2999997139,,343463.09999990463,,343476.904,8,400,,,
sequence,flow.Sequence,4_43,2023-09-12T00:40:11.553Z,,0,,,4879.398999713885,completion,,,,,false,,,,343463.69999980927,343463.2999997139,338567.252,338560.09999990463,338583.901,343476.904,8,400,,,
trial,html.Screen,4_44_0,2023-09-12T00:40:16.695Z,,0,1,,5128.295999809285,response,ISIC_0068217.JPG,4,ISIC_5983500.JPG,ISIC_5983500.JPG,false,0,keypress(z),500,348605.39999961853,348605.19999980927,343460.037,343463.7999997139,343476.904,348636.817,8,400,45,,ISIC_0068217.JPG
break,html.Screen,4_44_1,2023-09-12T00:40:16.695Z,,0,,,NaN,,,,,,false,,,,348605.7999997139,348605.69999980927,,348605.59999990463,,348636.817,8,400,,,
break_continue,html.Screen,4_44_2,2023-09-12T00:40:16.695Z,,0,,,NaN,,,,,,false,,,,348606,348606,,348605.89999961853,,348636.817,8,400,,,
sequence,flow.Sequence,4_44,2023-09-12T00:40:16.695Z,,0,,,5129.09600000002,completion,,,,,false,,,,348606.09999990463,348606,343460.037,343463.69999980927,343476.904,348636.817,8,400,,,
trial,html.Screen,4_45_0,2023-09-12T00:40:22.266Z,,0,1,,5539.482999713917,response,ISIC_0070351.JPG,5,ISIC_9294799.JPG,ISIC_9294799.JPG,false,0,keypress(z),500,354176.2999997139,354176.2999997139,348620.071,348606.09999990463,348636.817,354180.889,8,400,46,,ISIC_0070351.JPG
break,html.Screen,4_45_1,2023-09-12T00:40:22.266Z,,0,,,NaN,,,,,,false,,,,354176.69999980927,354176.69999980927,,354176.5,,354180.889,8,400,,,
break_continue,html.Screen,4_45_2,2023-09-12T00:40:22.266Z,,0,,,NaN,,,,,,false,,,,354176.89999961853,354176.89999961853,,354176.89999961853,,354180.889,8,400,,,
sequence,flow.Sequence,4_45,2023-09-12T00:40:22.266Z,,0,,,5540.082999618549,completion,,,,,false,,,,354177,354176.89999961853,348620.071,348606.09999990463,348636.817,354180.889,8,400,,,
trial,html.Screen,4_46_0,2023-09-12T00:40:27.248Z,,0,1,,4978.110999999975,response,ISIC_5308066.JPG,5,ISIC_0058730.JPG,ISIC_0058730.JPG,false,0,keypress(z),500,359159.09999990463,359159,354164.27,354177.09999990463,354180.889,359173.942,8,400,47,,ISIC_5308066.JPG
break,html.Screen,4_46_1,2023-09-12T00:40:27.249Z,,0,,,NaN,,,,,,false,,,,359159.5,359159.39999961853,,359159.19999980927,,359173.942,8,400,,,
break_continue,html.Screen,4_46_2,2023-09-12T00:40:27.249Z,,0,,,NaN,,,,,,false,,,,359159.59999990463,359159.59999990463,,359159.59999990463,,359173.942,8,400,,,
sequence,flow.Sequence,4_46,2023-09-12T00:40:27.249Z,,0,,,4978.710999904608,completion,,,,,false,,,,359159.7999997139,359159.59999990463,354164.27,354177.09999990463,354180.889,359173.942,8,400,,,
trial,html.Screen,4_47_0,2023-09-12T00:40:31.906Z,,0,1,,4642.558000000019,response,ISIC_3519679.JPG,6,ISIC_0030689.JPG,ISIC_0030689.JPG,false,0,keypress(z),500,363816.69999980927,363816.5,359157.338,359159.7999997139,359173.942,363833.021,8,400,48,,ISIC_3519679.JPG
break,html.Screen,4_47_1,2023-09-12T00:40:31.906Z,,0,,,NaN,,,,,,false,,,,363817.09999990463,363817,,363816.7999997139,,363833.021,8,400,,,
break_continue,html.Screen,4_47_2,2023-09-12T00:40:31.907Z,,0,,,NaN,,,,,,false,,,,363817.19999980927,363817.19999980927,,363817.19999980927,,363833.021,8,400,,,
sequence,flow.Sequence,4_47,2023-09-12T00:40:31.907Z,,0,,,4643.257999809284,completion,,,,,false,,,,363817.39999961853,363817.19999980927,359157.338,359159.7999997139,359173.942,363833.021,8,400,,,
trial,html.Screen,4_48_0,2023-09-12T00:40:37.595Z,,0,1,,5672.378999618522,response,ISIC_8584748.JPG,5,ISIC_8559515.JPG,ISIC_8584748.JPG,false,1,keypress(m),500,369505.5,369505.39999961853,363816.382,363817.39999961853,363833.021,369510.697,8,400,49,,ISIC_8559515.JPG
break,html.Screen,4_48_1,2023-09-12T00:40:37.595Z,,0,,,NaN,,,,,,false,,,,369505.89999961853,369505.7999997139,,369505.59999990463,,369510.697,8,400,,,
break_continue,html.Screen,4_48_2,2023-09-12T00:40:37.595Z,,0,,,NaN,,,,,,false,,,,369506,369506,,369505.89999961853,,369510.697,8,400,,,
sequence,flow.Sequence,4_48,2023-09-12T00:40:37.595Z,,0,,,5672.978999999992,completion,,,,,false,,,,369506.19999980927,369506,363816.382,363817.39999961853,363833.021,369510.697,8,400,,,
trial,html.Screen,4_49_0,2023-09-12T00:40:43.934Z,,0,1,,6333.602999713912,response,ISIC_0011972.JPG,5,ISIC_2470795.JPG,ISIC_2470795.JPG,false,0,keypress(z),500,375844.39999961853,375844.2999997139,369494.056,369506.19999980927,369510.697,375856.417,8,400,50,,ISIC_0011972.JPG
break,html.Screen,4_49_1,2023-09-12T00:40:53.933Z,,0,,,10002.888999999966,timeout,,,,,false,,,,385843.5,385842.605,375839.747,375844.59999990463,375856.417,385859.306,8,400,,,
break_continue,html.Screen,4_49_2,2023-09-12T00:40:57.726Z,,0,,,3756.7939999046503,response,,,,,false,continue,keypress(Space),,389636.2999997139,389616.09999990463,385842.605,385843.59999990463,385859.306,389666.71,8,400,,,
sequence,flow.Sequence,4_49,2023-09-12T00:40:57.726Z,,0,,,20105.402999904647,completion,,,,,false,,,,389636.5,389616.09999990463,369494.056,369506.19999980927,369510.697,389666.71,8,400,,,
trial,html.Screen,4_50_0,2023-09-12T00:41:01.088Z,,0,2,,3331.989999809244,response,ISIC_4695396.JPG,5,ISIC_0033479.JPG,ISIC_0033479.JPG,false,0,keypress(z),500,392998.7999997139,392998.69999980927,389650.112,389636.5,389666.71,393006.456,8,400,1,,ISIC_4695396.JPG
break,html.Screen,4_50_1,2023-09-12T00:41:01.089Z,,0,,,NaN,,,,,,false,,,,392999.2999997139,392999.09999990463,,392998.89999961853,,393006.456,8,400,,,
break_continue,html.Screen,4_50_2,2023-09-12T00:41:01.089Z,,0,,,NaN,,,,,,false,,,,392999.69999980927,392999.69999980927,,392999.5,,393006.456,8,400,,,
sequence,flow.Sequence,4_50,2023-09-12T00:41:01.089Z,,0,,,3332.989999809244,completion,,,,,false,,,,392999.7999997139,392999.69999980927,389650.112,389636.5,389666.71,393006.456,8,400,,,
trial,html.Screen,4_51_0,2023-09-12T00:41:05.929Z,,0,2,,4832.843999713892,response,ISIC_0032044.JPG,4,ISIC_6926118.JPG,ISIC_0032044.JPG,false,1,keypress(m),500,397839.39999961853,397839.2999997139,392989.747,392999.89999961853,393006.456,397849.212,8,400,2,,ISIC_6926118.JPG
break,html.Screen,4_51_1,2023-09-12T00:41:05.929Z,,0,,,NaN,,,,,,false,,,,397840,397839.89999961853,,397839.59999990463,,397849.212,8,400,,,
break_continue,html.Screen,4_51_2,2023-09-12T00:41:05.930Z,,0,,,NaN,,,,,,false,,,,397840.39999961853,397840.2999997139,,397840.19999980927,,397849.212,8,400,,,
sequence,flow.Sequence,4_51,2023-09-12T00:41:05.930Z,,0,,,4833.843999713892,completion,,,,,false,,,,397840.39999961853,397840.2999997139,392989.747,392999.7999997139,393006.456,397849.212,8,400,,,
trial,html.Screen,4_52_0,2023-09-12T00:41:10.123Z,,0,2,,4184.887999904633,response,ISIC_1620401.JPG,5,ISIC_0011193.JPG,ISIC_0011193.JPG,false,0,keypress(z),500,402034.09999990463,402034.09999990463,397832.508,397840.59999990463,397849.212,402040.702,8,400,3,,ISIC_1620401.JPG
break,html.Screen,4_52_1,2023-09-12T00:41:10.124Z,,0,,,NaN,,,,,,false,,,,402034.69999980927,402034.5,,402034.19999980927,,402040.702,8,400,,,
break_continue,html.Screen,4_52_2,2023-09-12T00:41:10.124Z,,0,,,NaN,,,,,,false,,,,402034.89999961853,402034.7999997139,,402034.7999997139,,402040.702,8,400,,,
sequence,flow.Sequence,4_52,2023-09-12T00:41:10.124Z,,0,,,4185.587999713898,completion,,,,,false,,,,402035.09999990463,402034.7999997139,397832.508,397840.59999990463,397849.212,402040.702,8,400,,,
trial,html.Screen,4_53_0,2023-09-12T00:41:14.610Z,,0,2,,4479.69799961854,response,ISIC_0010777.JPG,5,ISIC_0197873.JPG,ISIC_0010777.JPG,false,1,keypress(m),500,406520.59999990463,406520.39999961853,402024.074,402035.09999990463,402040.702,406532.767,8,400,4,,ISIC_0197873.JPG
break,html.Screen,4_53_1,2023-09-12T00:41:14.610Z,,0,,,NaN,,,,,,false,,,,406521,406520.89999961853,,406520.69999980927,,406532.767,8,400,,,
break_continue,html.Screen,4_53_2,2023-09-12T00:41:14.610Z,,0,,,NaN,,,,,,false,,,,406521.19999980927,406521.09999990463,,406521.09999990463,,406532.767,8,400,,,
sequence,flow.Sequence,4_53,2023-09-12T00:41:14.611Z,,0,,,4480.397999904642,completion,,,,,false,,,,406521.19999980927,406521.09999990463,402024.074,402035.09999990463,402040.702,406532.767,8,400,,,
trial,html.Screen,4_54_0,2023-09-12T00:41:18.795Z,,0,2,,4172.432999809273,response,ISIC_4055361.JPG,5,ISIC_0014229.JPG,ISIC_0014229.JPG,false,0,keypress(z),500,410705.19999980927,410705.19999980927,406516.118,406521.2999997139,406532.767,410707.548,8,400,5,,ISIC_4055361.JPG
break,html.Screen,4_54_1,2023-09-12T00:41:18.795Z,,0,,,NaN,,,,,,false,,,,410705.69999980927,410705.59999990463,,410705.2999997139,,410707.548,8,400,,,
break_continue,html.Screen,4_54_2,2023-09-12T00:41:18.795Z,,0,,,NaN,,,,,,false,,,,410705.89999961853,410705.7999997139,,410705.69999980927,,410707.548,8,400,,,
sequence,flow.Sequence,4_54,2023-09-12T00:41:18.795Z,,0,,,4173.032999713905,completion,,,,,false,,,,410706,410705.7999997139,406516.118,406521.2999997139,406532.767,410707.548,8,400,,,
trial,html.Screen,4_55_0,2023-09-12T00:41:24.788Z,,0,2,,5990.551999904623,response,ISIC_0068477.JPG,5,ISIC_6132976.JPG,ISIC_0068477.JPG,false,1,keypress(m),500,416698.2999997139,416698.09999990463,410690.837,410706,410707.548,416702.577,8,400,6,,ISIC_6132976.JPG
break,html.Screen,4_55_1,2023-09-12T00:41:24.788Z,,0,,,NaN,,,,,,false,,,,416698.7999997139,416698.69999980927,,416698.39999961853,,416702.577,8,400,,,
break_continue,html.Screen,4_55_2,2023-09-12T00:41:24.788Z,,0,,,NaN,,,,,,false,,,,416699,416699,,416698.89999961853,,416702.577,8,400,,,
sequence,flow.Sequence,4_55,2023-09-12T00:41:24.788Z,,0,,,5991.45199999999,completion,,,,,false,,,,416699.09999990463,416699,410690.837,410706,410707.548,416702.577,8,400,,,
trial,html.Screen,4_56_0,2023-09-12T00:41:29.834Z,,0,2,,5041.92300000001,response,ISIC_0054941.JPG,5,ISIC_6899527.JPG,ISIC_0054941.JPG,false,1,keypress(m),500,421744.59999990463,421744.5,416685.83,416699.09999990463,416702.577,421745.722,8,400,7,,ISIC_6899527.JPG
break,html.Screen,4_56_1,2023-09-12T00:41:29.835Z,,0,,,NaN,,,,,,false,,,,421745.39999961853,421745.09999990463,,421744.7999997139,,421745.722,8,400,,,
break_continue,html.Screen,4_56_2,2023-09-12T00:41:29.835Z,,0,,,NaN,,,,,,false,,,,421745.59999990463,421745.59999990463,,421745.39999961853,,421745.722,8,400,,,
sequence,flow.Sequence,4_56,2023-09-12T00:41:29.835Z,,0,,,5043.022999904642,completion,,,,,false,,,,421745.69999980927,421745.59999990463,416685.83,416699.09999990463,416702.577,421745.722,8,400,,,
trial,html.Screen,4_57_0,2023-09-12T00:41:34.013Z,,0,2,,4178.177999618521,response,ISIC_6036959.JPG,4,ISIC_3249704.JPG,ISIC_3249704.JPG,false,0,keypress(z),500,425924,425923.89999961853,421729.171,421745.7999997139,421745.722,425937.328,8,400,8,,ISIC_6036959.JPG
break,html.Screen,4_57_1,2023-09-12T00:41:34.014Z,,0,,,NaN,,,,,,false,,,,425924.39999961853,425924.39999961853,,425924.19999980927,,425937.328,8,400,,,
break_continue,html.Screen,4_57_2,2023-09-12T00:41:34.014Z,,0,,,NaN,,,,,,false,,,,425924.59999990463,425924.59999990463,,425924.5,,425937.328,8,400,,,
sequence,flow.Sequence,4_57,2023-09-12T00:41:34.014Z,,0,,,4178.877999904624,completion,,,,,false,,,,425924.69999980927,425924.59999990463,421729.171,421745.69999980927,421745.722,425937.328,8,400,,,
trial,html.Screen,4_58_0,2023-09-12T00:41:40.339Z,,0,2,,6312.571999618551,response,ISIC_0033800.JPG,5,ISIC_1501483.JPG,ISIC_0033800.JPG,false,1,keypress(m),500,432250.09999990463,432249.89999961853,425920.537,425924.89999961853,425937.328,432266.19,8,400,9,,ISIC_1501483.JPG
break,html.Screen,4_58_1,2023-09-12T00:41:40.340Z,,0,,,NaN,,,,,,false,,,,432250.59999990463,432250.39999961853,,432250.19999980927,,432266.19,8,400,,,
break_continue,html.Screen,4_58_2,2023-09-12T00:41:40.340Z,,0,,,NaN,,,,,,false,,,,432250.7999997139,432250.69999980927,,432250.69999980927,,432266.19,8,400,,,
sequence,flow.Sequence,4_58,2023-09-12T00:41:40.340Z,,0,,,6313.371999809286,completion,,,,,false,,,,432250.89999961853,432250.69999980927,425920.537,425924.7999997139,425937.328,432266.19,8,400,,,
trial,html.Screen,4_59_0,2023-09-12T00:41:45.542Z,,0,2,,5186.40999990463,response,ISIC_0014349.JPG,5,ISIC_9239093.JPG,ISIC_0014349.JPG,false,1,keypress(m),500,437452.69999980927,437452.59999990463,432249.498,432251,432266.19,437459.572,8,400,10,,ISIC_9239093.JPG
break,html.Screen,4_59_1,2023-09-12T00:41:45.542Z,,0,,,NaN,,,,,,false,,,,437453.09999990463,437453.09999990463,,437452.7999997139,,437459.572,8,400,,,
break_continue,html.Screen,4_59_2,2023-09-12T00:41:45.543Z,,0,,,NaN,,,,,,false,,,,437453.2999997139,437453.19999980927,,437453.19999980927,,437459.572,8,400,,,
sequence,flow.Sequence,4_59,2023-09-12T00:41:45.543Z,,0,,,5187.009999809263,completion,,,,,false,,,,437453.39999961853,437453.19999980927,432249.498,432250.89999961853,432266.19,437459.572,8,400,,,
trial,html.Screen,4_60_0,2023-09-12T00:41:49.743Z,,0,2,,4193.928000000014,response,ISIC_0951519.JPG,5,ISIC_0024585.JPG,ISIC_0024585.JPG,false,0,keypress(z),500,441653.59999990463,441653.5,437443.15,437453.5,437459.572,441667.846,8,400,11,,ISIC_0951519.JPG
break,html.Screen,4_60_1,2023-09-12T00:41:49.743Z,,0,,,NaN,,,,,,false,,,,441654,441653.89999961853,,441653.69999980927,,441667.846,8,400,,,
break_continue,html.Screen,4_60_2,2023-09-12T00:41:49.744Z,,0,,,NaN,,,,,,false,,,,441654.19999980927,441654.19999980927,,441654,,441667.846,8,400,,,
sequence,flow.Sequence,4_60,2023-09-12T00:41:49.744Z,,0,,,4194.62799980928,completion,,,,,false,,,,441654.2999997139,441654.19999980927,437443.15,437453.5,437459.572,441667.846,8,400,,,
trial,html.Screen,4_61_0,2023-09-12T00:41:54.452Z,,0,2,,4694.15399999998,response,ISIC_1514401.JPG,5,ISIC_0026690.JPG,ISIC_0026690.JPG,false,0,keypress(z),500,446362.09999990463,446362,441651.138,441654.39999961853,441667.846,446376.945,8,400,12,,ISIC_1514401.JPG
break,html.Screen,4_61_1,2023-09-12T00:41:54.452Z,,0,,,NaN,,,,,,false,,,,446362.7999997139,446362.59999990463,,446362.2999997139,,446376.945,8,400,,,
break_continue,html.Screen,4_61_2,2023-09-12T00:41:54.452Z,,0,,,NaN,,,,,,false,,,,446363.09999990463,446363,,446362.89999961853,,446376.945,8,400,,,
sequence,flow.Sequence,4_61,2023-09-12T00:41:54.453Z,,0,,,4695.15399999998,completion,,,,,false,,,,446363.19999980927,446363,441651.138,441654.39999961853,441667.846,446376.945,8,400,,,
trial,html.Screen,4_62_0,2023-09-12T00:41:59.126Z,,0,2,,4659.454999618523,response,ISIC_1974281.JPG,5,ISIC_0058594.JPG,ISIC_0058594.JPG,false,0,keypress(z),500,451036.59999990463,451036.39999961853,446360.448,446363.19999980927,446376.945,451052.728,8,400,13,,ISIC_1974281.JPG
break,html.Screen,4_62_1,2023-09-12T00:41:59.126Z,,0,,,NaN,,,,,,false,,,,451037,451036.89999961853,,451036.69999980927,,451052.728,8,400,,,
break_continue,html.Screen,4_62_2,2023-09-12T00:41:59.127Z,,0,,,NaN,,,,,,false,,,,451037.19999980927,451037.19999980927,,451037,,451052.728,8,400,,,
sequence,flow.Sequence,4_62,2023-09-12T00:41:59.127Z,,0,,,4660.254999809258,completion,,,,,false,,,,451037.2999997139,451037.19999980927,446360.448,446363.19999980927,446376.945,451052.728,8,400,,,
trial,html.Screen,4_63_0,2023-09-12T00:42:04.088Z,,0,2,,4946.071999713895,response,ISIC_0008774.JPG,6,ISIC_7059794.JPG,ISIC_7059794.JPG,false,0,keypress(z),500,455999,455998.7999997139,451036.043,451037.2999997139,451052.728,456012.453,8,400,14,,ISIC_0008774.JPG
break,html.Screen,4_63_1,2023-09-12T00:42:04.089Z,,0,,,NaN,,,,,,false,,,,455999.5,455999.39999961853,,455999,,456012.453,8,400,,,
break_continue,html.Screen,4_63_2,2023-09-12T00:42:04.089Z,,0,,,NaN,,,,,,false,,,,455999.7999997139,455999.7999997139,,455999.59999990463,,456012.453,8,400,,,
sequence,flow.Sequence,4_63,2023-09-12T00:42:04.089Z,,0,,,4947.071999713895,completion,,,,,false,,,,455999.89999961853,455999.7999997139,451036.043,451037.2999997139,451052.728,456012.453,8,400,,,
trial,html.Screen,4_64_0,2023-09-12T00:42:09.579Z,,0,2,,5476.946999618551,response,ISIC_7335659.JPG,4,ISIC_0072004.JPG,ISIC_0072004.JPG,false,0,keypress(z),500,461489.5,461489.39999961853,455995.855,456000,456012.453,461506.409,8,400,15,,ISIC_7335659.JPG
break,html.Screen,4_64_1,2023-09-12T00:42:09.580Z,,0,,,NaN,,,,,,false,,,,461490.19999980927,461489.7999997139,,461489.5,,461506.409,8,400,,,
break_continue,html.Screen,4_64_2,2023-09-12T00:42:09.580Z,,0,,,NaN,,,,,,false,,,,461490.59999990463,461490.5,,461490.2999997139,,461506.409,8,400,,,
sequence,flow.Sequence,4_64,2023-09-12T00:42:09.580Z,,0,,,5478.0470000000205,completion,,,,,false,,,,461490.59999990463,461490.5,455995.855,456000,456012.453,461506.409,8,400,,,
trial,html.Screen,4_65_0,2023-09-12T00:42:14.302Z,,0,2,,4705.6909999046475,response,ISIC_4314089.JPG,6,ISIC_0067893.JPG,ISIC_0067893.JPG,false,0,keypress(z),500,466212.09999990463,466212.09999990463,461489.711,461490.7999997139,461506.409,466215.555,8,400,16,,ISIC_4314089.JPG
break,html.Screen,4_65_1,2023-09-12T00:42:14.302Z,,0,,,NaN,,,,,,false,,,,466212.69999980927,466212.59999990463,,466212.19999980927,,466215.555,8,400,,,
break_continue,html.Screen,4_65_2,2023-09-12T00:42:14.302Z,,0,,,NaN,,,,,,false,,,,466212.89999961853,466212.7999997139,,466212.7999997139,,466215.555,8,400,,,
sequence,flow.Sequence,4_65,2023-09-12T00:42:14.302Z,,0,,,4706.390999713913,completion,,,,,false,,,,466213,466212.7999997139,461489.711,461490.69999980927,461506.409,466215.555,8,400,,,
trial,html.Screen,4_66_0,2023-09-12T00:42:19.160Z,,0,2,,4854.945000000007,response,ISIC_0064337.JPG,5,ISIC_0627979.JPG,ISIC_0064337.JPG,false,1,keypress(m),500,471070.7999997139,471070.5,466198.9,466213.09999990463,466215.555,471075.076,8,400,17,,ISIC_0627979.JPG
break,html.Screen,4_66_1,2023-09-12T00:42:19.163Z,,0,,,NaN,,,,,,false,,,,471073.09999990463,471072.59999990463,,471071.5,,471075.076,8,400,,,
break_continue,html.Screen,4_66_2,2023-09-12T00:42:19.164Z,,0,,,NaN,,,,,,false,,,,471074.69999980927,471074.09999990463,,471073.69999980927,,471075.076,8,400,,,
sequence,flow.Sequence,4_66,2023-09-12T00:42:19.165Z,,0,,,4858.54499990464,completion,,,,,false,,,,471075.89999961853,471074.09999990463,466198.9,466213,466215.555,471075.076,8,400,,,
trial,html.Screen,4_67_0,2023-09-12T00:42:24.208Z,,0,2,,5043.523999904632,response,ISIC_1048077.JPG,6,ISIC_1906141.JPG,ISIC_1906141.JPG,false,0,keypress(z),500,476118.59999990463,476118.59999990463,471058.386,471076.89999961853,471075.076,476134.891,8,400,18,,ISIC_1048077.JPG
break,html.Screen,4_67_1,2023-09-12T00:42:24.209Z,,0,,,NaN,,,,,,false,,,,476119.09999990463,476119,,476118.7999997139,,476134.891,8,400,,,
break_continue,html.Screen,4_67_2,2023-09-12T00:42:24.209Z,,0,,,NaN,,,,,,false,,,,476119.2999997139,476119.2999997139,,476119.19999980927,,476134.891,8,400,,,
sequence,flow.Sequence,4_67,2023-09-12T00:42:24.209Z,,0,,,5044.223999713897,completion,,,,,false,,,,476119.39999961853,476119.2999997139,471058.386,471076.59999990463,471075.076,476134.891,8,400,,,
trial,html.Screen,4_68_0,2023-09-12T00:42:28.887Z,,0,2,,4662.308999809262,response,ISIC_7967108.JPG,6,ISIC_0025357.JPG,ISIC_0025357.JPG,false,0,keypress(z),500,480797.2999997139,480797.19999980927,476118.167,476119.5,476134.891,480810.718,8,400,19,,ISIC_7967108.JPG
break,html.Screen,4_68_1,2023-09-12T00:42:28.887Z,,0,,,NaN,,,,,,false,,,,480797.89999961853,480797.69999980927,,480797.39999961853,,480810.718,8,400,,,
break_continue,html.Screen,4_68_2,2023-09-12T00:42:28.888Z,,0,,,NaN,,,,,,false,,,,480798.19999980927,480798.09999990463,,480797.89999961853,,480810.718,8,400,,,
sequence,flow.Sequence,4_68,2023-09-12T00:42:28.888Z,,0,,,4663.208999904629,completion,,,,,false,,,,480798.2999997139,480798.09999990463,476118.167,476119.5,476134.891,480810.718,8,400,,,
trial,html.Screen,4_69_0,2023-09-12T00:42:36.345Z,,0,2,,7444.381999904639,response,ISIC_0001745.JPG,6,ISIC_2214766.JPG,ISIC_2214766.JPG,false,0,keypress(z),500,488255.09999990463,488255.09999990463,480794.037,480798.2999997139,480810.718,488258.471,8,400,20,,ISIC_0001745.JPG
break,html.Screen,4_69_1,2023-09-12T00:42:36.345Z,,0,,,NaN,,,,,,false,,,,488255.59999990463,488255.5,,488255.2999997139,,488258.471,8,400,,,
break_continue,html.Screen,4_69_2,2023-09-12T00:42:36.345Z,,0,,,NaN,,,,,,false,,,,488255.89999961853,488255.7999997139,,488255.69999980927,,488258.471,8,400,,,
sequence,flow.Sequence,4_69,2023-09-12T00:42:36.345Z,,0,,,7445.081999713904,completion,,,,,false,,,,488255.89999961853,488255.7999997139,480794.037,480798.2999997139,480810.718,488258.471,8,400,,,
trial,html.Screen,4_70_0,2023-09-12T00:42:41.066Z,,0,2,,4718.428999618511,response,ISIC_0015291.JPG,4,ISIC_6809586.JPG,ISIC_6809586.JPG,false,0,keypress(z),500,492977,492976.89999961853,488241.893,488256,488258.471,492984.397,8,400,21,,ISIC_0015291.JPG
break,html.Screen,4_70_1,2023-09-12T00:42:41.067Z,,0,,,NaN,,,,,,false,,,,492977.39999961853,492977.39999961853,,492977.09999990463,,492984.397,8,400,,,
break_continue,html.Screen,4_70_2,2023-09-12T00:42:41.067Z,,0,,,NaN,,,,,,false,,,,492977.69999980927,492977.69999980927,,492977.5,,492984.397,8,400,,,
sequence,flow.Sequence,4_70,2023-09-12T00:42:41.067Z,,0,,,4719.228999809246,completion,,,,,false,,,,492977.7999997139,492977.69999980927,488241.893,488256,488258.471,492984.397,8,400,,,
trial,html.Screen,4_71_0,2023-09-12T00:42:45.252Z,,0,2,,4178.4029997139005,response,ISIC_0028626.JPG,4,ISIC_0014171.JPG,ISIC_0014171.JPG,false,0,keypress(z),500,497163,497162.7999997139,492967.771,492977.7999997139,492984.397,497175.901,8,400,22,,ISIC_0028626.JPG
break,html.Screen,4_71_1,2023-09-12T00:42:45.253Z,,0,,,NaN,,,,,,false,,,,497163.39999961853,497163.2999997139,,497163.09999990463,,497175.901,8,400,,,
break_continue,html.Screen,4_71_2,2023-09-12T00:42:45.253Z,,0,,,NaN,,,,,,false,,,,497163.5,497163.5,,497163.39999961853,,497175.901,8,400,,,
sequence,flow.Sequence,4_71,2023-09-12T00:42:45.253Z,,0,,,4179.103000000003,completion,,,,,false,,,,497163.59999990463,497163.5,492967.771,492977.7999997139,492984.397,497175.901,8,400,,,
trial,html.Screen,4_72_0,2023-09-12T00:42:50.199Z,,0,2,,4933.19899990462,response,ISIC_0056534.JPG,5,ISIC_0030610.JPG,ISIC_0030610.JPG,false,0,keypress(z),500,502109.2999997139,502109.09999990463,497159.142,497163.59999990463,497175.901,502118.88,8,400,23,,ISIC_0056534.JPG
break,html.Screen,4_72_1,2023-09-12T00:42:50.199Z,,0,,,NaN,,,,,,false,,,,502109.89999961853,502109.59999990463,,502109.2999997139,,502118.88,8,400,,,
break_continue,html.Screen,4_72_2,2023-09-12T00:42:50.200Z,,0,,,NaN,,,,,,false,,,,502110.09999990463,502110,,502109.89999961853,,502118.88,8,400,,,
sequence,flow.Sequence,4_72,2023-09-12T00:42:50.200Z,,0,,,4934.098999999987,completion,,,,,false,,,,502110.19999980927,502110,497159.142,497163.59999990463,497175.901,502118.88,8,400,,,
trial,html.Screen,4_73_0,2023-09-12T00:42:54.591Z,,0,2,,4382.019999618526,response,ISIC_0013032.JPG,4,ISIC_0005879.JPG,ISIC_0005879.JPG,false,0,keypress(z),500,506501.2999997139,506500.89999961853,502102.151,502110.2999997139,502118.88,506510.735,8,400,24,,ISIC_0013032.JPG
break,html.Screen,4_73_1,2023-09-12T00:42:54.593Z,,0,,,NaN,,,,,,false,,,,506502.7999997139,506502.2999997139,,506501.59999990463,,506510.735,8,400,,,
break_continue,html.Screen,4_73_2,2023-09-12T00:42:54.594Z,,0,,,NaN,,,,,,false,,,,506503.59999990463,506503.39999961853,,506503.09999990463,,506510.735,8,400,,,
sequence,flow.Sequence,4_73,2023-09-12T00:42:54.594Z,,0,,,4384.519999618526,completion,,,,,false,,,,506503.89999961853,506503.39999961853,502102.151,502110.19999980927,502118.88,506510.735,8,400,,,
trial,html.Screen,4_74_0,2023-09-12T00:42:59.716Z,,0,2,,5115.664999618544,response,ISIC_0011684.JPG,4,ISIC_7575815.JPG,ISIC_0011684.JPG,false,1,keypress(m),500,511626.39999961853,511626.39999961853,506494.056,506504.09999990463,506510.735,511637.362,8,400,25,,ISIC_7575815.JPG
break,html.Screen,4_74_1,2023-09-12T00:42:59.717Z,,0,,,NaN,,,,,,false,,,,511626.7999997139,511626.7999997139,,511626.59999990463,,511637.362,8,400,,,
break_continue,html.Screen,4_74_2,2023-09-12T00:42:59.717Z,,0,,,NaN,,,,,,false,,,,511627,511627,,511626.89999961853,,511637.362,8,400,,,
sequence,flow.Sequence,4_74,2023-09-12T00:42:59.717Z,,0,,,5116.265000000014,completion,,,,,false,,,,511627.09999990463,511627,506494.056,506504.09999990463,506510.735,511637.362,8,400,,,
trial,html.Screen,4_75_0,2023-09-12T00:43:04.397Z,,0,2,,4669.437999713875,response,ISIC_0064936.JPG,4,ISIC_0030193.JPG,ISIC_0064936.JPG,false,1,keypress(m),500,516307,516306.7999997139,511620.686,511627.09999990463,511637.362,516313.154,8,400,26,,ISIC_0030193.JPG
break,html.Screen,4_75_1,2023-09-12T00:43:04.397Z,,0,,,NaN,,,,,,false,,,,516307.2999997139,516307.19999980927,,516307.09999990463,,516313.154,8,400,,,
break_continue,html.Screen,4_75_2,2023-09-12T00:43:04.398Z,,0,,,NaN,,,,,,false,,,,516307.5,516307.5,,516307.39999961853,,516313.154,8,400,,,
sequence,flow.Sequence,4_75,2023-09-12T00:43:04.398Z,,0,,,4670.137999999977,completion,,,,,false,,,,516307.59999990463,516307.5,511620.686,511627.09999990463,511637.362,516313.154,8,400,,,
trial,html.Screen,4_76_0,2023-09-12T00:43:09.824Z,,0,2,,5420.445999904652,response,ISIC_0061870.JPG,5,ISIC_5850699.JPG,ISIC_0061870.JPG,false,1,keypress(m),500,521733.69999980927,521733.59999990463,516296.44,516307.69999980927,516313.154,521740.345,8,400,27,,ISIC_5850699.JPG
break,html.Screen,4_76_1,2023-09-12T00:43:09.824Z,,0,,,NaN,,,,,,false,,,,521734.2999997139,521734.19999980927,,521733.89999961853,,521740.345,8,400,,,
break_continue,html.Screen,4_76_2,2023-09-12T00:43:09.825Z,,0,,,NaN,,,,,,false,,,,521734.5,521734.39999961853,,521734.39999961853,,521740.345,8,400,,,
sequence,flow.Sequence,4_76,2023-09-12T00:43:09.825Z,,0,,,5421.24599961855,completion,,,,,false,,,,521734.59999990463,521734.39999961853,516296.44,516307.69999980927,516313.154,521740.345,8,400,,,
trial,html.Screen,4_77_0,2023-09-12T00:43:14.393Z,,0,2,,4562.155000000028,response,ISIC_3269018.JPG,6,ISIC_0030833.JPG,ISIC_0030833.JPG,false,0,keypress(z),500,526302.5999999046,526302.5,521723.572,521734.69999980927,521740.345,526332.552,8,400,28,,ISIC_3269018.JPG
break,html.Screen,4_77_1,2023-09-12T00:43:14.393Z,,0,,,NaN,,,,,,false,,,,526303,526302.8999996185,,526302.6999998093,,526332.552,8,400,,,
break_continue,html.Screen,4_77_2,2023-09-12T00:43:14.393Z,,0,,,NaN,,,,,,false,,,,526303.1999998093,526303.1999998093,,526303.0999999046,,526332.552,8,400,,,
sequence,flow.Sequence,4_77,2023-09-12T00:43:14.393Z,,0,,,4562.854999809293,completion,,,,,false,,,,526303.1999998093,526303.1999998093,521723.572,521734.69999980927,521740.345,526332.552,8,400,,,
trial,html.Screen,4_78_0,2023-09-12T00:43:18.811Z,,0,2,,4388.347999618505,response,ISIC_0064964.JPG,5,ISIC_1217314.JPG,ISIC_1217314.JPG,false,0,keypress(z),500,530721.0999999046,530720.8999996185,526315.874,526303.2999997139,526332.552,530724.451,8,400,29,,ISIC_0064964.JPG
break,html.Screen,4_78_1,2023-09-12T00:43:18.812Z,,0,,,NaN,,,,,,false,,,,530721.8999996185,530721.5999999046,,530721.1999998093,,530724.451,8,400,,,
break_continue,html.Screen,4_78_2,2023-09-12T00:43:18.812Z,,0,,,NaN,,,,,,false,,,,530722.1999998093,530722.0999999046,,530722,,530724.451,8,400,,,
sequence,flow.Sequence,4_78,2023-09-12T00:43:18.812Z,,0,,,4389.547999904607,completion,,,,,false,,,,530722.1999998093,530722.0999999046,526315.874,526303.2999997139,526332.552,530724.451,8,400,,,
trial,html.Screen,4_79_0,2023-09-12T00:43:24.365Z,,0,2,,5550.748999809264,response,ISIC_0073086.JPG,5,ISIC_0029453.JPG,ISIC_0029453.JPG,false,0,keypress(z),500,536275.3999996185,536275.1999998093,530707.764,530722.2999997139,530724.451,536301.961,8,400,30,,ISIC_0073086.JPG
break,html.Screen,4_79_1,2023-09-12T00:43:24.366Z,,0,,,NaN,,,,,,false,,,,536275.8999996185,536275.6999998093,,536275.5,,536301.961,8,400,,,
break_continue,html.Screen,4_79_2,2023-09-12T00:43:24.366Z,,0,,,NaN,,,,,,false,,,,536276.1999998093,536276.0999999046,,536276,,536301.961,8,400,,,
sequence,flow.Sequence,4_79,2023-09-12T00:43:24.366Z,,0,,,5551.648999904632,completion,,,,,false,,,,536276.1999998093,536276.0999999046,530707.764,530722.2999997139,530724.451,536301.961,8,400,,,
trial,html.Screen,4_80_0,2023-09-12T00:43:29.184Z,,0,2,,4791.238999809255,response,ISIC_5866419.JPG,5,ISIC_8398000.JPG,ISIC_8398000.JPG,false,0,keypress(z),500,541093.5,541093.1999998093,536285.337,536276.3999996185,536301.961,541111.518,8,400,31,,ISIC_5866419.JPG
break,html.Screen,4_80_1,2023-09-12T00:43:29.185Z,,0,,,NaN,,,,,,false,,,,541095.3999996185,541094.8999996185,,541093.8999996185,,541111.518,8,400,,,
break_continue,html.Screen,4_80_2,2023-09-12T00:43:29.186Z,,0,,,NaN,,,,,,false,,,,541095.8999996185,541095.8999996185,,541095.5999999046,,541111.518,8,400,,,
sequence,flow.Sequence,4_80,2023-09-12T00:43:29.186Z,,0,,,4793.93899961852,completion,,,,,false,,,,541096.2999997139,541095.8999996185,536285.337,536276.3999996185,536301.961,541111.518,8,400,,,
trial,html.Screen,4_81_0,2023-09-12T00:43:33.972Z,,0,2,,4770.181999809225,response,ISIC_2852805.JPG,5,ISIC_0072429.JPG,ISIC_0072429.JPG,false,0,keypress(z),500,545881.7999997139,545881.6999998093,541094.665,541096.3999996185,541111.518,545887.364,8,400,32,,ISIC_2852805.JPG
break,html.Screen,4_81_1,2023-09-12T00:43:33.973Z,,0,,,NaN,,,,,,false,,,,545882.5,545882.3999996185,,545882,,545887.364,8,400,,,
break_continue,html.Screen,4_81_2,2023-09-12T00:43:33.973Z,,0,,,NaN,,,,,,false,,,,545882.7999997139,545882.6999998093,,545882.5999999046,,545887.364,8,400,,,
sequence,flow.Sequence,4_81,2023-09-12T00:43:33.973Z,,0,,,4771.181999809225,completion,,,,,false,,,,545882.8999996185,545882.6999998093,541094.665,541096.3999996185,541111.518,545887.364,8,400,,,
trial,html.Screen,4_82_0,2023-09-12T00:43:39.407Z,,0,2,,5429.136000000057,response,ISIC_4906385.JPG,5,ISIC_2196127.JPG,ISIC_4906385.JPG,false,1,keypress(m),500,551316.5999999046,551316.5,545870.63,545883,545887.364,551331.194,8,400,33,,ISIC_2196127.JPG
break,html.Screen,4_82_1,2023-09-12T00:43:39.407Z,,0,,,NaN,,,,,,false,,,,551317.3999996185,551317.0999999046,,551316.7999997139,,551331.194,8,400,,,
break_continue,html.Screen,4_82_2,2023-09-12T00:43:39.408Z,,0,,,NaN,,,,,,false,,,,551317.7999997139,551317.6999998093,,551317.5999999046,,551331.194,8,400,,,
sequence,flow.Sequence,4_82,2023-09-12T00:43:39.408Z,,0,,,5430.335999809322,completion,,,,,false,,,,551318,551317.6999998093,545870.63,545882.8999996185,545887.364,551331.194,8,400,,,
trial,html.Screen,4_83_0,2023-09-12T00:43:45.106Z,,0,2,,5684.305999999982,response,ISIC_0011097.JPG,5,ISIC_0072865.JPG,ISIC_0072865.JPG,false,0,keypress(z),500,557015.5999999046,557015.5,551314.622,551318,551331.194,557025.6,8,400,34,,ISIC_0011097.JPG
break,html.Screen,4_83_1,2023-09-12T00:43:45.106Z,,0,,,NaN,,,,,,false,,,,557016.0999999046,557016,,557015.7999997139,,557025.6,8,400,,,
break_continue,html.Screen,4_83_2,2023-09-12T00:43:45.106Z,,0,,,NaN,,,,,,false,,,,557016.3999996185,557016.2999997139,,557016.1999998093,,557025.6,8,400,,,
sequence,flow.Sequence,4_83,2023-09-12T00:43:45.106Z,,0,,,5685.10599971388,completion,,,,,false,,,,557016.3999996185,557016.2999997139,551314.622,551318,551331.194,557025.6,8,400,,,
trial,html.Screen,4_84_0,2023-09-12T00:43:49.623Z,,0,2,,4507.400000000023,response,ISIC_7575957.JPG,5,ISIC_9978498.JPG,ISIC_9978498.JPG,false,0,keypress(z),500,561533.0999999046,561533,557009.004,557016.3999996185,557025.6,561534.388,8,400,35,,ISIC_7575957.JPG
break,html.Screen,4_84_1,2023-09-12T00:43:49.624Z,,0,,,NaN,,,,,,false,,,,561533.7999997139,561533.5,,561533.1999998093,,561534.388,8,400,,,
break_continue,html.Screen,4_84_2,2023-09-12T00:43:49.624Z,,0,,,NaN,,,,,,false,,,,561534.0999999046,561534.0999999046,,561533.7999997139,,561534.388,8,400,,,
sequence,flow.Sequence,4_84,2023-09-12T00:43:49.624Z,,0,,,4508.499999904656,completion,,,,,false,,,,561534.1999998093,561534.0999999046,557009.004,557016.3999996185,557025.6,561534.388,8,400,,,
trial,html.Screen,4_85_0,2023-09-12T00:43:53.549Z,,0,2,,3924.8119998092297,response,ISIC_9740245.JPG,6,ISIC_0899961.JPG,ISIC_0899961.JPG,false,0,keypress(z),500,565459.5,565459.1999998093,561517.711,561534.2999997139,561534.388,565475.446,8,400,36,,ISIC_9740245.JPG
break,html.Screen,4_85_1,2023-09-12T00:43:53.550Z,,0,,,NaN,,,,,,false,,,,565460.1999998093,565460,,565459.5,,565475.446,8,400,,,
break_continue,html.Screen,4_85_2,2023-09-12T00:43:53.551Z,,0,,,NaN,,,,,,false,,,,565460.5999999046,565460.5,,565460.3999996185,,565475.446,8,400,,,
sequence,flow.Sequence,4_85,2023-09-12T00:43:53.551Z,,0,,,3926.1119999999646,completion,,,,,false,,,,565460.6999998093,565460.5,561517.711,561534.2999997139,561534.388,565475.446,8,400,,,
trial,html.Screen,4_86_0,2023-09-12T00:43:58.176Z,,0,2,,4610.253999809269,response,ISIC_0060707.JPG,5,ISIC_2928274.JPG,ISIC_0060707.JPG,false,1,keypress(m),500,570085.8999996185,570085.6999998093,565458.701,565460.6999998093,565475.446,570101.08,8,400,37,,ISIC_2928274.JPG
break,html.Screen,4_86_1,2023-09-12T00:43:58.177Z,,0,,,NaN,,,,,,false,,,,570086.2999997139,570086.1999998093,,570086,,570101.08,8,400,,,
break_continue,html.Screen,4_86_2,2023-09-12T00:43:58.177Z,,0,,,NaN,,,,,,false,,,,570086.5,570086.5,,570086.3999996185,,570101.08,8,400,,,
sequence,flow.Sequence,4_86,2023-09-12T00:43:58.177Z,,0,,,4611.054000000004,completion,,,,,false,,,,570086.5,570086.5,565458.701,565460.6999998093,565475.446,570101.08,8,400,,,
trial,html.Screen,4_87_0,2023-09-12T00:44:04.546Z,,0,2,,6354.319999618572,response,ISIC_1777398.JPG,5,ISIC_3966064.JPG,ISIC_1777398.JPG,false,1,keypress(m),500,576455.5,576455.3999996185,570084.448,570086.5999999046,570101.08,576463.441,8,400,38,,ISIC_3966064.JPG
break,html.Screen,4_87_1,2023-09-12T00:44:04.546Z,,0,,,NaN,,,,,,false,,,,576456.0999999046,576455.8999996185,,576455.6999998093,,576463.441,8,400,,,
break_continue,html.Screen,4_87_2,2023-09-12T00:44:04.547Z,,0,,,NaN,,,,,,false,,,,576456.2999997139,576456.2999997139,,576456.1999998093,,576463.441,8,400,,,
sequence,flow.Sequence,4_87,2023-09-12T00:44:04.547Z,,0,,,6355.21999971394,completion,,,,,false,,,,576456.3999996185,576456.2999997139,570084.448,570086.5999999046,570101.08,576463.441,8,400,,,
trial,html.Screen,4_88_0,2023-09-12T00:44:09.925Z,,0,2,,5371.458999618539,response,ISIC_9974299.JPG,5,ISIC_8993666.JPG,ISIC_9974299.JPG,false,1,keypress(m),500,581835.0999999046,581834.8999996185,576446.924,576456.5,576463.441,581840.686,8,400,39,,ISIC_8993666.JPG
break,html.Screen,4_88_1,2023-09-12T00:44:09.926Z,,0,,,NaN,,,,,,false,,,,581835.5999999046,581835.3999996185,,581835.1999998093,,581840.686,8,400,,,
break_continue,html.Screen,4_88_2,2023-09-12T00:44:09.926Z,,0,,,NaN,,,,,,false,,,,581835.7999997139,581835.7999997139,,581835.5999999046,,581840.686,8,400,,,
sequence,flow.Sequence,4_88,2023-09-12T00:44:09.926Z,,0,,,5372.358999713906,completion,,,,,false,,,,581835.8999996185,581835.7999997139,576446.924,576456.5,576463.441,581840.686,8,400,,,
trial,html.Screen,4_89_0,2023-09-12T00:44:15.774Z,,0,2,,5842.613999713911,response,ISIC_5223280.JPG,5,ISIC_9012513.JPG,ISIC_5223280.JPG,false,1,keypress(m),500,587683.3999996185,587683.2999997139,581823.967,581836,581840.686,587685.289,8,400,40,,ISIC_9012513.JPG
break,html.Screen,4_89_1,2023-09-12T00:44:15.774Z,,0,,,NaN,,,,,,false,,,,587683.8999996185,587683.6999998093,,587683.5,,587685.289,8,400,,,
break_continue,html.Screen,4_89_2,2023-09-12T00:44:15.774Z,,0,,,NaN,,,,,,false,,,,587684,587683.8999996185,,587683.8999996185,,587685.289,8,400,,,
sequence,flow.Sequence,4_89,2023-09-12T00:44:15.774Z,,0,,,5843.213999618543,completion,,,,,false,,,,587684.0999999046,587683.8999996185,581823.967,581836,581840.686,587685.289,8,400,,,
trial,html.Screen,4_90_0,2023-09-12T00:44:20.742Z,,0,2,,4966.6109996185405,response,ISIC_3920274.JPG,4,ISIC_0014190.JPG,ISIC_0014190.JPG,false,0,keypress(z),500,592652.0999999046,592651.8999996185,587668.675,587684.0999999046,587685.289,592661.65,8,400,41,,ISIC_3920274.JPG
break,html.Screen,4_90_1,2023-09-12T00:44:20.743Z,,0,,,NaN,,,,,,false,,,,592652.8999996185,592652.5999999046,,592652.2999997139,,592661.65,8,400,,,
break_continue,html.Screen,4_90_2,2023-09-12T00:44:20.744Z,,0,,,NaN,,,,,,false,,,,592653.1999998093,592653.0999999046,,592652.8999996185,,592661.65,8,400,,,
sequence,flow.Sequence,4_90,2023-09-12T00:44:20.744Z,,0,,,4967.810999904643,completion,,,,,false,,,,592653.2999997139,592653.0999999046,587668.675,587684.0999999046,587685.289,592661.65,8,400,,,
trial,html.Screen,4_91_0,2023-09-12T00:44:26.319Z,,0,2,,5566.749999618507,response,ISIC_0031324.JPG,5,ISIC_0006744.JPG,ISIC_0031324.JPG,false,1,keypress(m),500,598228.5999999046,598228.3999996185,592645.036,592653.2999997139,592661.65,598239.168,8,400,42,,ISIC_0006744.JPG
break,html.Screen,4_91_1,2023-09-12T00:44:26.320Z,,0,,,NaN,,,,,,false,,,,598229.2999997139,598229.0999999046,,598228.7999997139,,598239.168,8,400,,,
break_continue,html.Screen,4_91_2,2023-09-12T00:44:26.320Z,,0,,,NaN,,,,,,false,,,,598229.5,598229.3999996185,,598229.2999997139,,598239.168,8,400,,,
sequence,flow.Sequence,4_91,2023-09-12T00:44:26.320Z,,0,,,5567.749999618507,completion,,,,,false,,,,598229.6999998093,598229.3999996185,592645.036,592653.2999997139,592661.65,598239.168,8,400,,,
trial,html.Screen,4_92_0,2023-09-12T00:44:32.946Z,,0,2,,6616.731999618583,response,ISIC_9579922.JPG,5,ISIC_0011691.JPG,ISIC_0011691.JPG,false,0,keypress(z),500,604855.8999996185,604855.8999996185,598222.444,598229.7999997139,598239.168,604868.758,8,400,43,,ISIC_9579922.JPG
break,html.Screen,4_92_1,2023-09-12T00:44:32.947Z,,0,,,NaN,,,,,,false,,,,604856.3999996185,604856.2999997139,,604856.0999999046,,604868.758,8,400,,,
break_continue,html.Screen,4_92_2,2023-09-12T00:44:32.947Z,,0,,,NaN,,,,,,false,,,,604856.5999999046,604856.5,,604856.3999996185,,604868.758,8,400,,,
sequence,flow.Sequence,4_92,2023-09-12T00:44:32.947Z,,0,,,6617.332000000053,completion,,,,,false,,,,604856.5999999046,604856.5,598222.444,598229.6999998093,598239.168,604868.758,8,400,,,
trial,html.Screen,4_93_0,2023-09-12T00:44:38.907Z,,0,2,,5947.6419996184995,response,ISIC_0033278.JPG,6,ISIC_3447311.JPG,ISIC_3447311.JPG,false,0,keypress(z),500,610817.0999999046,610816.3999996185,604852.119,604856.6999998093,604868.758,610830.38,8,400,44,,ISIC_0033278.JPG
break,html.Screen,4_93_1,2023-09-12T00:44:38.909Z,,0,,,NaN,,,,,,false,,,,610819,610818.3999996185,,610817.5999999046,,610830.38,8,400,,,
break_continue,html.Screen,4_93_2,2023-09-12T00:44:38.910Z,,0,,,NaN,,,,,,false,,,,610820.0999999046,610819.7999997139,,610819.2999997139,,610830.38,8,400,,,
sequence,flow.Sequence,4_93,2023-09-12T00:44:38.911Z,,0,,,5951.041999713867,completion,,,,,false,,,,610820.5,610819.7999997139,604852.119,604856.5999999046,604868.758,610830.38,8,400,,,
trial,html.Screen,4_94_0,2023-09-12T00:44:43.490Z,,0,2,,4569.619999999995,response,ISIC_3496800.JPG,5,ISIC_8241457.JPG,ISIC_8241457.JPG,false,0,keypress(z),500,615400.0999999046,615400,610813.728,610820.6999998093,610830.38,615406.085,8,400,45,,ISIC_3496800.JPG
break,html.Screen,4_94_1,2023-09-12T00:44:43.491Z,,0,,,NaN,,,,,,false,,,,615400.5,615400.3999996185,,615400.1999998093,,615406.085,8,400,,,
break_continue,html.Screen,4_94_2,2023-09-12T00:44:43.491Z,,0,,,NaN,,,,,,false,,,,615400.6999998093,615400.5999999046,,615400.5999999046,,615406.085,8,400,,,
sequence,flow.Sequence,4_94,2023-09-12T00:44:43.491Z,,0,,,4570.219999904628,completion,,,,,false,,,,615400.6999998093,615400.5999999046,610813.728,610820.6999998093,610830.38,615406.085,8,400,,,
trial,html.Screen,4_95_0,2023-09-12T00:44:49.307Z,,0,2,,5810.51499990467,response,ISIC_0030873.JPG,6,ISIC_0026963.JPG,ISIC_0030873.JPG,false,1,keypress(m),500,621216.7999997139,621216.5999999046,615389.256,615400.7999997139,615406.085,621233.997,8,400,46,,ISIC_0026963.JPG
break,html.Screen,4_95_1,2023-09-12T00:44:49.308Z,,0,,,NaN,,,,,,false,,,,621217.2999997139,621217.0999999046,,621216.8999996185,,621233.997,8,400,,,
break_continue,html.Screen,4_95_2,2023-09-12T00:44:49.308Z,,0,,,NaN,,,,,,false,,,,621217.3999996185,621217.3999996185,,621217.2999997139,,621233.997,8,400,,,
sequence,flow.Sequence,4_95,2023-09-12T00:44:49.308Z,,0,,,5811.3149996185675,completion,,,,,false,,,,621217.5,621217.3999996185,615389.256,615400.7999997139,615406.085,621233.997,8,400,,,
trial,html.Screen,4_96_0,2023-09-12T00:44:53.345Z,,0,2,,4020.9029996185564,response,ISIC_9986760.JPG,6,ISIC_0029716.JPG,ISIC_0029716.JPG,false,0,keypress(z),500,625255,625254.8999996185,621200.594,621217.6999998093,621233.997,625275.092,8,400,47,,ISIC_9986760.JPG
break,html.Screen,4_96_1,2023-09-12T00:44:53.346Z,,0,,,NaN,,,,,,false,,,,625255.5,625255.3999996185,,625255.1999998093,,625275.092,8,400,,,
break_continue,html.Screen,4_96_2,2023-09-12T00:44:53.346Z,,0,,,NaN,,,,,,false,,,,625255.5999999046,625255.5999999046,,625255.5,,625275.092,8,400,,,
sequence,flow.Sequence,4_96,2023-09-12T00:44:53.346Z,,0,,,4021.6029999046586,completion,,,,,false,,,,625255.6999998093,625255.5999999046,621200.594,621217.5999999046,621233.997,625275.092,8,400,,,
trial,html.Screen,4_97_0,2023-09-12T00:44:59.444Z,,0,2,,6077.707999713952,response,ISIC_0025138.JPG,5,ISIC_0068176.JPG,ISIC_0068176.JPG,false,0,keypress(z),500,631353,631352.7999997139,625258.469,625255.7999997139,625275.092,631370.319,8,400,48,,ISIC_0025138.JPG
break,html.Screen,4_97_1,2023-09-12T00:44:59.446Z,,0,,,NaN,,,,,,false,,,,631355.1999998093,631354.5,,631353.2999997139,,631370.319,8,400,,,
break_continue,html.Screen,4_97_2,2023-09-12T00:44:59.447Z,,0,,,NaN,,,,,,false,,,,631356.1999998093,631356.0999999046,,631355.3999996185,,631370.319,8,400,,,
sequence,flow.Sequence,4_97,2023-09-12T00:44:59.447Z,,0,,,6081.007999904687,completion,,,,,false,,,,631356.3999996185,631356.0999999046,625258.469,625255.7999997139,625275.092,631370.319,8,400,,,
trial,html.Screen,4_98_0,2023-09-12T00:45:06.905Z,,0,2,,7444.180999999982,response,ISIC_0060032.JPG,5,ISIC_0012151.JPG,ISIC_0060032.JPG,false,1,keypress(m),500,638814.5999999046,638814.5,631353.784,631356.5,631370.319,638818.146,8,400,49,,ISIC_0012151.JPG
break,html.Screen,4_98_1,2023-09-12T00:45:06.906Z,,0,,,NaN,,,,,,false,,,,638814.8999996185,638814.8999996185,,638814.6999998093,,638818.146,8,400,,,
break_continue,html.Screen,4_98_2,2023-09-12T00:45:06.906Z,,0,,,NaN,,,,,,false,,,,638815.0999999046,638815.0999999046,,638815,,638818.146,8,400,,,
sequence,flow.Sequence,4_98,2023-09-12T00:45:06.906Z,,0,,,7444.780999904615,completion,,,,,false,,,,638815.1999998093,638815.0999999046,631353.784,631356.5,631370.319,638818.146,8,400,,,
trial,html.Screen,4_99_0,2023-09-12T00:45:12.411Z,,0,2,,5502.553999809315,response,ISIC_5179503.JPG,5,ISIC_0070974.JPG,ISIC_0070974.JPG,false,0,keypress(z),500,644320.7999997139,644320.6999998093,638801.486,638815.1999998093,638818.146,644328.874,8,400,50,,ISIC_5179503.JPG
break,html.Screen,4_99_1,2023-09-12T00:45:22.407Z,,0,,,10002.88500000001,timeout,,,,,false,,,,654316,654315.079,644312.131,644320.8999996185,644328.874,654331.759,8,400,,,
break_continue,html.Screen,4_99_2,2023-09-12T00:45:23.579Z,,0,,,1142.540999713936,response,,,,,false,continue,keypress(Space),,655488.7999997139,655474.2999997139,654315.079,654316.0999999046,654331.759,655500.681,8,400,,,
sequence,flow.Sequence,4_99,2023-09-12T00:45:23.580Z,,0,,,16656.153999713948,completion,,,,,false,,,,655489,655474.2999997139,638801.486,638815.1999998093,638818.146,655500.681,8,400,,,
trial,html.Screen,4_100_0,2023-09-12T00:45:27.789Z,,0,3,,4197.618999713915,response,ISIC_0013136.JPG,5,ISIC_7951202.JPG,ISIC_7951202.JPG,false,0,keypress(z),500,659698.3999996185,659698.2999997139,655483.989,655489,655500.681,659708.785,8,400,1,,ISIC_0013136.JPG
break,html.Screen,4_100_1,2023-09-12T00:45:27.790Z,,0,,,NaN,,,,,,false,,,,659699,659698.7999997139,,659698.5999999046,,659708.785,8,400,,,
break_continue,html.Screen,4_100_2,2023-09-12T00:45:27.790Z,,0,,,NaN,,,,,,false,,,,659699.3999996185,659699.2999997139,,659699.1999998093,,659708.785,8,400,,,
sequence,flow.Sequence,4_100,2023-09-12T00:45:27.790Z,,0,,,4198.618999713915,completion,,,,,false,,,,659699.5,659699.2999997139,655483.989,655489,655500.681,659708.785,8,400,,,
trial,html.Screen,4_101_0,2023-09-12T00:45:31.956Z,,0,3,,4156.114999618498,response,ISIC_3635014.JPG,5,ISIC_4332846.JPG,ISIC_4332846.JPG,false,0,keypress(z),500,663864.8999996185,663864.8999996185,659692.084,659699.5,659708.785,663866.845,8,400,2,,ISIC_3635014.JPG
break,html.Screen,4_101_1,2023-09-12T00:45:31.956Z,,0,,,NaN,,,,,,false,,,,663865.2999997139,663865.1999998093,,663865,,663866.845,8,400,,,
break_continue,html.Screen,4_101_2,2023-09-12T00:45:31.956Z,,0,,,NaN,,,,,,false,,,,663865.5,663865.5,,663865.3999996185,,663866.845,8,400,,,
sequence,flow.Sequence,4_101,2023-09-12T00:45:31.956Z,,0,,,4156.714999999967,completion,,,,,false,,,,663865.5999999046,663865.5,659692.084,659699.5,659708.785,663866.845,8,400,,,
trial,html.Screen,4_102_0,2023-09-12T00:45:36.631Z,,0,3,,4673.155000000028,response,ISIC_0031324.JPG,5,ISIC_0058946.JPG,ISIC_0058946.JPG,false,0,keypress(z),500,668540.0999999046,668540,663850.342,663865.5999999046,663866.845,668542.641,8,400,3,,ISIC_0031324.JPG
break,html.Screen,4_102_1,2023-09-12T00:45:36.631Z,,0,,,NaN,,,,,,false,,,,668540.5999999046,668540.3999996185,,668540.1999998093,,668542.641,8,400,,,
break_continue,html.Screen,4_102_2,2023-09-12T00:45:36.631Z,,0,,,NaN,,,,,,false,,,,668540.7999997139,668540.7999997139,,668540.6999998093,,668542.641,8,400,,,
sequence,flow.Sequence,4_102,2023-09-12T00:45:36.632Z,,0,,,4673.954999713926,completion,,,,,false,,,,668540.7999997139,668540.7999997139,663850.342,663865.5999999046,663866.845,668542.641,8,400,,,
trial,html.Screen,4_103_0,2023-09-12T00:45:41.610Z,,0,3,,4976.658999713953,response,ISIC_9613570.JPG,4,ISIC_0046921.JPG,ISIC_0046921.JPG,false,0,keypress(z),500,673519.5999999046,673519.2999997139,668525.968,668540.8999996185,668542.641,673535.734,8,400,4,,ISIC_9613570.JPG
break,html.Screen,4_103_1,2023-09-12T00:45:41.611Z,,0,,,NaN,,,,,,false,,,,673520.6999998093,673520.3999996185,,673519.7999997139,,673535.734,8,400,,,
break_continue,html.Screen,4_103_2,2023-09-12T00:45:41.612Z,,0,,,NaN,,,,,,false,,,,673521.2999997139,673521.0999999046,,673520.8999996185,,673535.734,8,400,,,
sequence,flow.Sequence,4_103,2023-09-12T00:45:41.612Z,,0,,,4978.4589999046875,completion,,,,,false,,,,673521.5,673521.0999999046,668525.968,668540.8999996185,668542.641,673535.734,8,400,,,
trial,html.Screen,4_104_0,2023-09-12T00:45:46.289Z,,0,3,,4662.065999713843,response,ISIC_0064606.JPG,5,ISIC_0062914.JPG,ISIC_0062914.JPG,false,0,keypress(z),500,678197.8999996185,678197.7999997139,673518.942,673521.6999998093,673535.734,678211.617,8,400,5,,ISIC_0064606.JPG
break,html.Screen,4_104_1,2023-09-12T00:45:46.289Z,,0,,,NaN,,,,,,false,,,,678198.3999996185,678198.2999997139,,678198.0999999046,,678211.617,8,400,,,
break_continue,html.Screen,4_104_2,2023-09-12T00:45:46.289Z,,0,,,NaN,,,,,,false,,,,678198.7999997139,678198.6999998093,,678198.5999999046,,678211.617,8,400,,,
sequence,flow.Sequence,4_104,2023-09-12T00:45:46.290Z,,0,,,4662.96599980921,completion,,,,,false,,,,678198.8999996185,678198.6999998093,673518.942,673521.6999998093,673535.734,678211.617,8,400,,,
trial,html.Screen,4_105_0,2023-09-12T00:45:50.693Z,,0,3,,4390.482999904663,response,ISIC_0000725.JPG,4,ISIC_5789052.JPG,ISIC_0000725.JPG,false,1,keypress(m),500,682602.2999997139,682602.0999999046,678194.926,678199,678211.617,682603.34,8,400,6,,ISIC_5789052.JPG
break,html.Screen,4_105_1,2023-09-12T00:45:50.693Z,,0,,,NaN,,,,,,false,,,,682602.7999997139,682602.5999999046,,682602.3999996185,,682603.34,8,400,,,
break_continue,html.Screen,4_105_2,2023-09-12T00:45:50.694Z,,0,,,NaN,,,,,,false,,,,682603,682602.8999996185,,682602.7999997139,,682603.34,8,400,,,
sequence,flow.Sequence,4_105,2023-09-12T00:45:50.694Z,,0,,,4391.282999618561,completion,,,,,false,,,,682603,682602.8999996185,678194.926,678198.8999996185,678211.617,682603.34,8,400,,,
trial,html.Screen,4_106_0,2023-09-12T00:45:56.519Z,,0,3,,5824.660000000033,response,ISIC_5108076.JPG,5,ISIC_5650816.JPG,ISIC_5650816.JPG,false,0,keypress(z),500,688428.0999999046,688428,682586.632,682603.0999999046,682603.34,688431.325,8,400,7,,ISIC_5108076.JPG
break,html.Screen,4_106_1,2023-09-12T00:45:56.520Z,,0,,,NaN,,,,,,false,,,,688428.5999999046,688428.3999996185,,688428.1999998093,,688431.325,8,400,,,
break_continue,html.Screen,4_106_2,2023-09-12T00:45:56.520Z,,0,,,NaN,,,,,,false,,,,688428.8999996185,688428.8999996185,,688428.7999997139,,688431.325,8,400,,,
sequence,flow.Sequence,4_106,2023-09-12T00:45:56.520Z,,0,,,5825.559999618563,completion,,,,,false,,,,688429.0999999046,688428.8999996185,682586.632,682603.0999999046,682603.34,688431.325,8,400,,,
trial,html.Screen,4_107_0,2023-09-12T00:46:00.921Z,,0,3,,4398.675000000047,response,ISIC_7755096.JPG,6,ISIC_4252887.JPG,ISIC_7755096.JPG,false,1,keypress(m),500,692830.1999998093,692830,688414.825,688429.0999999046,688431.325,692840.015,8,400,8,,ISIC_4252887.JPG
break,html.Screen,4_107_1,2023-09-12T00:46:00.921Z,,0,,,NaN,,,,,,false,,,,692830.5,692830.5,,692830.1999998093,,692840.015,8,400,,,
break_continue,html.Screen,4_107_2,2023-09-12T00:46:00.922Z,,0,,,NaN,,,,,,false,,,,692830.6999998093,692830.6999998093,,692830.5999999046,,692840.015,8,400,,,
sequence,flow.Sequence,4_107,2023-09-12T00:46:00.922Z,,0,,,4399.374999809312,completion,,,,,false,,,,692830.7999997139,692830.6999998093,688414.825,688429.0999999046,688431.325,692840.015,8,400,,,
trial,html.Screen,4_108_0,2023-09-12T00:46:06.209Z,,0,3,,5277.984999999986,response,ISIC_9323095.JPG,5,ISIC_0011458.JPG,ISIC_0011458.JPG,false,0,keypress(z),500,698118.1999998093,698118,692823.23,692830.7999997139,692840.015,698133.536,8,400,9,,ISIC_9323095.JPG
break,html.Screen,4_108_1,2023-09-12T00:46:06.210Z,,0,,,NaN,,,,,,false,,,,698118.5999999046,698118.5,,698118.2999997139,,698133.536,8,400,,,
break_continue,html.Screen,4_108_2,2023-09-12T00:46:06.210Z,,0,,,NaN,,,,,,false,,,,698118.6999998093,698118.6999998093,,698118.5999999046,,698133.536,8,400,,,
sequence,flow.Sequence,4_108,2023-09-12T00:46:06.210Z,,0,,,5278.684999809251,completion,,,,,false,,,,698118.7999997139,698118.6999998093,692823.23,692830.7999997139,692840.015,698133.536,8,400,,,
trial,html.Screen,4_109_0,2023-09-12T00:46:11.780Z,,0,3,,5554.964000000036,response,ISIC_0012068.JPG,6,ISIC_8791744.JPG,ISIC_0012068.JPG,false,1,keypress(m),500,703688.5999999046,703688.5,698117.045,698118.8999996185,698133.536,703694.418,8,400,10,,ISIC_8791744.JPG
break,html.Screen,4_109_1,2023-09-12T00:46:11.780Z,,0,,,NaN,,,,,,false,,,,703689,703688.8999996185,,703688.6999998093,,703694.418,8,400,,,
break_continue,html.Screen,4_109_2,2023-09-12T00:46:11.780Z,,0,,,NaN,,,,,,false,,,,703689.0999999046,703689.0999999046,,703689.0999999046,,703694.418,8,400,,,
sequence,flow.Sequence,4_109,2023-09-12T00:46:11.780Z,,0,,,5555.563999904669,completion,,,,,false,,,,703689.2999997139,703689.0999999046,698117.045,698118.7999997139,698133.536,703694.418,8,400,,,
trial,html.Screen,4_110_0,2023-09-12T00:46:17.207Z,,0,3,,5421.082000000053,response,ISIC_6692344.JPG,5,ISIC_9685928.JPG,ISIC_9685928.JPG,false,0,keypress(z),500,709115.5999999046,709115.5,703677.753,703689.2999997139,703694.418,709121.595,8,400,11,,ISIC_6692344.JPG
break,html.Screen,4_110_1,2023-09-12T00:46:17.207Z,,0,,,NaN,,,,,,false,,,,709116.3999996185,709116.1999998093,,709115.7999997139,,709121.595,8,400,,,
break_continue,html.Screen,4_110_2,2023-09-12T00:46:17.208Z,,0,,,NaN,,,,,,false,,,,709116.5999999046,709116.5,,709116.3999996185,,709121.595,8,400,,,
sequence,flow.Sequence,4_110,2023-09-12T00:46:17.208Z,,0,,,5422.082000000053,completion,,,,,false,,,,709116.5999999046,709116.5,703677.753,703689.2999997139,703694.418,709121.595,8,400,,,
trial,html.Screen,4_111_0,2023-09-12T00:46:22.254Z,,0,3,,5041.704999713926,response,ISIC_2153686.JPG,5,ISIC_3124612.JPG,ISIC_2153686.JPG,false,1,keypress(m),500,714163.3999996185,714163.2999997139,709104.974,709116.6999998093,709121.595,714164.768,8,400,12,,ISIC_3124612.JPG
break,html.Screen,4_111_1,2023-09-12T00:46:22.255Z,,0,,,NaN,,,,,,false,,,,714163.7999997139,714163.6999998093,,714163.3999996185,,714164.768,8,400,,,
break_continue,html.Screen,4_111_2,2023-09-12T00:46:22.255Z,,0,,,NaN,,,,,,false,,,,714164,714164,,714163.7999997139,,714164.768,8,400,,,
sequence,flow.Sequence,4_111,2023-09-12T00:46:22.255Z,,0,,,5042.405000000028,completion,,,,,false,,,,714164.0999999046,714164,709104.974,709116.6999998093,709121.595,714164.768,8,400,,,
trial,html.Screen,4_112_0,2023-09-12T00:46:27.233Z,,0,3,,4976.931999809225,response,ISIC_5555700.JPG,5,ISIC_6590303.JPG,ISIC_6590303.JPG,false,0,keypress(z),500,719142,719141.6999998093,714148.209,714164.2999997139,714164.768,719174.547,8,400,13,,ISIC_5555700.JPG
break,html.Screen,4_112_1,2023-09-12T00:46:27.234Z,,0,,,NaN,,,,,,false,,,,719143.0999999046,719142.7999997139,,719142.3999996185,,719174.547,8,400,,,
break_continue,html.Screen,4_112_2,2023-09-12T00:46:27.234Z,,0,,,NaN,,,,,,false,,,,719143.3999996185,719143.2999997139,,719143.1999998093,,719174.547,8,400,,,
sequence,flow.Sequence,4_112,2023-09-12T00:46:27.235Z,,0,,,4978.531999713858,completion,,,,,false,,,,719143.5999999046,719143.2999997139,714148.209,714164.2999997139,714164.768,719174.547,8,400,,,
trial,html.Screen,4_113_0,2023-09-12T00:46:31.877Z,,0,3,,4611.052999904612,response,ISIC_5441247.JPG,6,ISIC_3401777.JPG,ISIC_3401777.JPG,false,0,keypress(z),500,723785.7999997139,723785.5999999046,719157.806,719143.6999998093,719174.547,723800.219,8,400,14,,ISIC_5441247.JPG
break,html.Screen,4_113_1,2023-09-12T00:46:31.878Z,,0,,,NaN,,,,,,false,,,,723786.6999998093,723786.3999996185,,723786,,723800.219,8,400,,,
break_continue,html.Screen,4_113_2,2023-09-12T00:46:31.878Z,,0,,,NaN,,,,,,false,,,,723787,723786.8999996185,,723786.7999997139,,723800.219,8,400,,,
sequence,flow.Sequence,4_113,2023-09-12T00:46:31.878Z,,0,,,4612.35299961851,completion,,,,,false,,,,723787.0999999046,723786.8999996185,719157.806,719143.6999998093,719174.547,723800.219,8,400,,,
trial,html.Screen,4_114_0,2023-09-12T00:46:37.064Z,,0,3,,5172.580999713857,response,ISIC_0059501.JPG,5,ISIC_0420249.JPG,ISIC_0420249.JPG,false,0,keypress(z),500,728973,728972.7999997139,723783.478,723787.1999998093,723800.219,728976.928,8,400,15,,ISIC_0059501.JPG
break,html.Screen,4_114_1,2023-09-12T00:46:37.064Z,,0,,,NaN,,,,,,false,,,,728973.3999996185,728973.2999997139,,728973,,728976.928,8,400,,,
break_continue,html.Screen,4_114_2,2023-09-12T00:46:37.065Z,,0,,,NaN,,,,,,false,,,,728973.5,728973.5,,728973.3999996185,,728976.928,8,400,,,
sequence,flow.Sequence,4_114,2023-09-12T00:46:37.065Z,,0,,,5173.280999999959,completion,,,,,false,,,,728973.6999998093,728973.5,723783.478,723787.1999998093,723800.219,728976.928,8,400,,,
trial,html.Screen,4_115_0,2023-09-12T00:46:41.327Z,,0,3,,4259.471999618574,response,ISIC_4956965.JPG,5,ISIC_0025165.JPG,ISIC_0025165.JPG,false,0,keypress(z),500,733236.5,733236.3999996185,728960.313,728973.6999998093,728976.928,733251.892,8,400,16,,ISIC_4956965.JPG
break,html.Screen,4_115_1,2023-09-12T00:46:41.328Z,,0,,,NaN,,,,,,false,,,,733236.8999996185,733236.6999998093,,733236.5999999046,,733251.892,8,400,,,
break_continue,html.Screen,4_115_2,2023-09-12T00:46:41.328Z,,0,,,NaN,,,,,,false,,,,733237,733236.8999996185,,733236.8999996185,,733251.892,8,400,,,
sequence,flow.Sequence,4_115,2023-09-12T00:46:41.328Z,,0,,,4259.971999618574,completion,,,,,false,,,,733237.0999999046,733236.8999996185,728960.313,728973.6999998093,728976.928,733251.892,8,400,,,
trial,html.Screen,4_116_0,2023-09-12T00:46:46.706Z,,0,3,,5362.70799990464,response,ISIC_0033957.JPG,5,ISIC_0839675.JPG,ISIC_0033957.JPG,false,1,keypress(m),500,738614.6999998093,738614.5999999046,733235.216,733237.0999999046,733251.892,738629.127,8,400,17,,ISIC_0839675.JPG
break,html.Screen,4_116_1,2023-09-12T00:46:46.706Z,,0,,,NaN,,,,,,false,,,,738615.0999999046,738615,,738614.7999997139,,738629.127,8,400,,,
break_continue,html.Screen,4_116_2,2023-09-12T00:46:46.706Z,,0,,,NaN,,,,,,false,,,,738615.2999997139,738615.2999997139,,738615.1999998093,,738629.127,8,400,,,
sequence,flow.Sequence,4_116,2023-09-12T00:46:46.706Z,,0,,,5363.407999713905,completion,,,,,false,,,,738615.3999996185,738615.2999997139,733235.216,733237.0999999046,733251.892,738629.127,8,400,,,
trial,html.Screen,4_117_0,2023-09-12T00:46:53.127Z,,0,3,,6406.972999904654,response,ISIC_0150363.JPG,5,ISIC_0010866.JPG,ISIC_0010866.JPG,false,0,keypress(z),500,745036.1999998093,745036.0999999046,738612.424,738615.5,738629.127,745041.487,8,400,18,,ISIC_0150363.JPG
break,html.Screen,4_117_1,2023-09-12T00:46:53.128Z,,0,,,NaN,,,,,,false,,,,745036.6999998093,745036.5,,745036.2999997139,,745041.487,8,400,,,
break_continue,html.Screen,4_117_2,2023-09-12T00:46:53.128Z,,0,,,NaN,,,,,,false,,,,745036.7999997139,745036.7999997139,,745036.6999998093,,745041.487,8,400,,,
sequence,flow.Sequence,4_117,2023-09-12T00:46:53.128Z,,0,,,6407.672999713919,completion,,,,,false,,,,745036.8999996185,745036.7999997139,738612.424,738615.5,738629.127,745041.487,8,400,,,
trial,html.Screen,4_118_0,2023-09-12T00:46:57.499Z,,0,3,,4365.7129998093005,response,ISIC_0064633.JPG,5,ISIC_0552911.JPG,ISIC_0064633.JPG,false,1,keypress(m),500,749407.3999996185,749407.1999998093,745024.783,745036.8999996185,745041.487,749416.679,8,400,19,,ISIC_0552911.JPG
break,html.Screen,4_118_1,2023-09-12T00:46:57.499Z,,0,,,NaN,,,,,,false,,,,749407.6999998093,749407.6999998093,,749407.3999996185,,749416.679,8,400,,,
break_continue,html.Screen,4_118_2,2023-09-12T00:46:57.499Z,,0,,,NaN,,,,,,false,,,,749408,749407.8999996185,,749407.8999996185,,749416.679,8,400,,,
sequence,flow.Sequence,4_118,2023-09-12T00:46:57.499Z,,0,,,4366.412999618566,completion,,,,,false,,,,749408.0999999046,749407.8999996185,745024.783,745036.8999996185,745041.487,749416.679,8,400,,,
trial,html.Screen,4_119_0,2023-09-12T00:47:02.380Z,,0,3,,4872.420999904629,response,ISIC_0057978.JPG,4,ISIC_8690205.JPG,ISIC_0057978.JPG,false,1,keypress(m),500,754289.1999998093,754289.0999999046,749400.158,749408.1999998093,749416.679,754292.874,8,400,20,,ISIC_8690205.JPG
break,html.Screen,4_119_1,2023-09-12T00:47:02.381Z,,0,,,NaN,,,,,,false,,,,754290.1999998093,754289.8999996185,,754289.3999996185,,754292.874,8,400,,,
break_continue,html.Screen,4_119_2,2023-09-12T00:47:02.382Z,,0,,,NaN,,,,,,false,,,,754290.5999999046,754290.5,,754290.2999997139,,754292.874,8,400,,,
sequence,flow.Sequence,4_119,2023-09-12T00:47:02.382Z,,0,,,4873.820999999996,completion,,,,,false,,,,754290.6999998093,754290.5,749400.158,749408.1999998093,749416.679,754292.874,8,400,,,
trial,html.Screen,4_120_0,2023-09-12T00:47:07.696Z,,0,3,,5311.6260000000475,response,ISIC_0066854.JPG,5,ISIC_0064066.JPG,ISIC_0064066.JPG,false,0,keypress(z),500,759604.5999999046,759604.5,754276.302,754290.7999997139,754292.874,759619.954,8,400,21,,ISIC_0066854.JPG
break,html.Screen,4_120_1,2023-09-12T00:47:07.696Z,,0,,,NaN,,,,,,false,,,,759605,759604.8999996185,,759604.6999998093,,759619.954,8,400,,,
break_continue,html.Screen,4_120_2,2023-09-12T00:47:07.696Z,,0,,,NaN,,,,,,false,,,,759605.1999998093,759605.0999999046,,759605,,759619.954,8,400,,,
sequence,flow.Sequence,4_120,2023-09-12T00:47:07.696Z,,0,,,5312.22599990468,completion,,,,,false,,,,759605.1999998093,759605.0999999046,754276.302,754290.7999997139,754292.874,759619.954,8,400,,,
trial,html.Screen,4_121_0,2023-09-12T00:47:12.739Z,,0,3,,5028.145999904606,response,ISIC_0016127.JPG,5,ISIC_0032522.JPG,ISIC_0032522.JPG,false,0,keypress(z),500,764648.1999998093,764648.0999999046,759603.213,759605.2999997139,759619.954,764663.056,8,400,22,,ISIC_0016127.JPG
break,html.Screen,4_121_1,2023-09-12T00:47:12.740Z,,0,,,NaN,,,,,,false,,,,764648.6999998093,764648.5,,764648.2999997139,,764663.056,8,400,,,
break_continue,html.Screen,4_121_2,2023-09-12T00:47:12.740Z,,0,,,NaN,,,,,,false,,,,764649.0999999046,764649,,764648.7999997139,,764663.056,8,400,,,
sequence,flow.Sequence,4_121,2023-09-12T00:47:12.740Z,,0,,,5029.045999999973,completion,,,,,false,,,,764649.1999998093,764649,759603.213,759605.2999997139,759619.954,764663.056,8,400,,,
trial,html.Screen,4_122_0,2023-09-12T00:47:17.497Z,,0,3,,4742.444000000018,response,ISIC_0033121.JPG,4,ISIC_0033268.JPG,ISIC_0033268.JPG,false,0,keypress(z),500,769405.6999998093,769405.5,764646.294,764649.1999998093,764663.056,769422.26,8,400,23,,ISIC_0033121.JPG
break,html.Screen,4_122_1,2023-09-12T00:47:17.498Z,,0,,,NaN,,,,,,false,,,,769406.5999999046,769406.2999997139,,769405.8999996185,,769422.26,8,400,,,
break_continue,html.Screen,4_122_2,2023-09-12T00:47:17.498Z,,0,,,NaN,,,,,,false,,,,769406.8999996185,769406.7999997139,,769406.6999998093,,769422.26,8,400,,,
sequence,flow.Sequence,4_122,2023-09-12T00:47:17.498Z,,0,,,4743.743999713915,completion,,,,,false,,,,769407,769406.7999997139,764646.294,764649.1999998093,764663.056,769422.26,8,400,,,
trial,html.Screen,4_123_0,2023-09-12T00:47:22.095Z,,0,3,,4581.739999999991,response,ISIC_0064071.JPG,5,ISIC_7746898.JPG,ISIC_7746898.JPG,false,0,keypress(z),500,774004.0999999046,774004,769405.617,769407,769422.26,774014.707,8,400,24,,ISIC_0064071.JPG
break,html.Screen,4_123_1,2023-09-12T00:47:22.096Z,,0,,,NaN,,,,,,false,,,,774004.5999999046,774004.5,,774004.1999998093,,774014.707,8,400,,,
break_continue,html.Screen,4_123_2,2023-09-12T00:47:22.096Z,,0,,,NaN,,,,,,false,,,,774004.8999996185,774004.7999997139,,774004.6999998093,,774014.707,8,400,,,
sequence,flow.Sequence,4_123,2023-09-12T00:47:22.096Z,,0,,,4582.539999713888,completion,,,,,false,,,,774005,774004.7999997139,769405.617,769407,769422.26,774014.707,8,400,,,
trial,html.Screen,4_124_0,2023-09-12T00:47:27.042Z,,0,3,,4935.792999999947,response,ISIC_0063871.JPG,6,ISIC_0024529.JPG,ISIC_0063871.JPG,false,1,keypress(m),500,778950.5999999046,778950.5,773997.872,774005.0999999046,774014.707,778957.515,8,400,25,,ISIC_0024529.JPG
break,html.Screen,4_124_1,2023-09-12T00:47:27.042Z,,0,,,NaN,,,,,,false,,,,778951.0999999046,778950.8999996185,,778950.6999998093,,778957.515,8,400,,,
break_continue,html.Screen,4_124_2,2023-09-12T00:47:27.042Z,,0,,,NaN,,,,,,false,,,,778951.1999998093,778951.0999999046,,778951.0999999046,,778957.515,8,400,,,
sequence,flow.Sequence,4_124,2023-09-12T00:47:27.042Z,,0,,,4936.3929999045795,completion,,,,,false,,,,778951.1999998093,778951.0999999046,773997.872,774005.0999999046,774014.707,778957.515,8,400,,,
trial,html.Screen,4_125_0,2023-09-12T00:47:32.308Z,,0,3,,5258.884999618516,response,ISIC_0009868.JPG,5,ISIC_8363069.JPG,ISIC_0009868.JPG,false,1,keypress(m),500,784216.5,784216.3999996185,778940.978,778951.2999997139,778957.515,784217.762,8,400,26,,ISIC_8363069.JPG
break,html.Screen,4_125_1,2023-09-12T00:47:32.308Z,,0,,,NaN,,,,,,false,,,,784216.8999996185,784216.8999996185,,784216.5999999046,,784217.762,8,400,,,
break_continue,html.Screen,4_125_2,2023-09-12T00:47:32.308Z,,0,,,NaN,,,,,,false,,,,784217.1999998093,784217.0999999046,,784217,,784217.762,8,400,,,
