sender,sender_type,sender_id,timestamp,meta,,blockNo,condition,duration,ended_on,img_left,img_reveal,img_right,loser,practice,response,response_action,selection_duration,time_commit,time_end,time_render,time_run,time_show,time_switch,total_blocks,total_trials,trialNo,url,winner
informed_consent,html.Screen,0,2023-09-08T18:01:31.604Z,"{""labjs_version"":""20.2.4"",""labjs_build"":{""flavor"":""development"",""commit"":""f5b4a49f956347addd546a832a3327688c2c0fef""},""location"":""https://labjs.felixhenninger.com/api/labjs_preview/index.html"",""userAgent"":""Mozilla/5.0 (Windows NT 10.0; Win64; x64) AppleWebKit/537.36 (KHTML, like Gecko) Chrome/116.0.0.0 Safari/537.36"",""platform"":""Win32"",""language"":""en-US"",""locale"":""en-US"",""timeZone"":""America/Chicago"",""timezoneOffset"":300,""screen_width"":1280,""screen_height"":720,""scroll_width"":1280,""scroll_height"":613,""window_innerWidth"":1280,""window_innerHeight"":661,""devicePixelRatio"":1.5}",,,,987263.0440000119,response,,,,,,consent,click button,,988584.599999994,988568.8000000119,1289.021,1296.5,1305.756,988589.459,,,,{},
Welcome,html.Screen,1,2023-09-08T18:01:41.194Z,,,,irregular,9582.740999988047,response,,,,,,continue,click button,,998174,998172.1999999881,988555.839,988584.8000000119,988589.459,998181.11,,,,,
trial,html.Screen,2_0_0,2023-09-08T18:01:52.693Z,,0,0,,11524.018999999971,timeout,ISIC_0061792.JPG,,ISIC_4679428.JPG,,true,,,500,1009673.400000006,1009672.900000006,998164.757,998174.3000000119,998181.11,1009705.129,1,6,1,,
sequence,flow.Sequence,2_0,2023-09-08T18:01:52.694Z,,0,,,11491.790000005974,completion,,,,,true,,,,1009674.099999994,1009672.900000006,998164.757,998174.3000000119,998181.11,1009705.129,1,6,,,
trial,html.Screen,2_1_0,2023-09-08T18:01:59.481Z,,0,0,,6754.671000011964,response,ISIC_0776486.JPG,,ISIC_5199497.JPG,ISIC_5199497.JPG,true,0,keypress(z),500,1016460.6999999881,1016459.8000000119,1009688.475,1009674.3000000119,1009705.129,1016466.088,1,6,2,,ISIC_0776486.JPG
sequence,flow.Sequence,2_1,2023-09-08T18:01:59.481Z,,0,,,6754.671000011964,completion,,,,,true,,,,1016461.1999999881,1016459.8000000119,1009688.475,1009674.1999999881,1009705.129,1016466.088,1,6,,,
trial,html.Screen,2_2_0,2023-09-08T18:02:04.540Z,,0,0,,5053.812000005972,response,ISIC_2556187.JPG,,ISIC_8575776.JPG,ISIC_2556187.JPG,true,1,keypress(m),500,1021520.400000006,1021519.900000006,1016449.473,1016461.5,1016466.088,1021528.609,1,6,3,,ISIC_8575776.JPG
sequence,flow.Sequence,2_2,2023-09-08T18:02:04.541Z,,0,,,5053.812000005972,completion,,,,,true,,,,1021521,1021519.900000006,1016449.473,1016461.400000006,1016466.088,1021528.609,1,6,,,
trial,html.Screen,2_3_0,2023-09-08T18:02:08.017Z,,0,0,,3467.7910000059055,response,ISIC_9238366.JPG,,ISIC_8141769.JPG,ISIC_9238366.JPG,true,1,keypress(m),500,1024996.6999999881,1024996.400000006,1021511.959,1021521.3000000119,1021528.609,1025009.049,1,6,4,,ISIC_8141769.JPG
sequence,flow.Sequence,2_3,2023-09-08T18:02:08.017Z,,0,,,3467.7910000059055,completion,,,,,true,,,,1024996.900000006,1024996.400000006,1021511.959,1021521.3000000119,1021528.609,1025009.049,1,6,,,
trial,html.Screen,2_4_0,2023-09-08T18:02:11.915Z,,0,0,,3885.3510000059614,response,ISIC_8949026.JPG,,ISIC_9959593.JPG,ISIC_8949026.JPG,true,1,keypress(m),500,1028894.900000006,1028894.400000006,1024992.622,1024997.099999994,1025009.049,1028905.842,1,6,5,,ISIC_9959593.JPG
sequence,flow.Sequence,2_4,2023-09-08T18:02:11.915Z,,0,,,3885.3510000059614,completion,,,,,true,,,,1028895.400000006,1028894.400000006,1024992.622,1024997.099999994,1025009.049,1028905.842,1,6,,,
trial,html.Screen,2_5_0,2023-09-08T18:02:15.126Z,,0,0,,3200.0580000060145,response,ISIC_0010479.JPG,,ISIC_0460240.JPG,ISIC_0460240.JPG,true,0,keypress(z),500,1032106.1999999881,1032105.900000006,1028889.496,1028895.599999994,1028905.842,1032120.078,1,6,6,,ISIC_0010479.JPG
sequence,flow.Sequence,2_5,2023-09-08T18:02:15.126Z,,0,,,3200.0580000060145,completion,,,,,true,,,,1032106.400000006,1032105.900000006,1028889.496,1028895.5,1028905.842,1032120.078,1,6,,,
loop,flow.Loop,2,2023-09-08T18:02:15.127Z,,,,,33924.790000005974,completion,,,,,true,,,,1032106.599999994,1032105.900000006,998164.757,998174.1999999881,998181.11,1032120.078,1,6,,,
exp_instructions,html.Screen,3,2023-09-08T18:02:17.456Z,,,,,2315.1219999880996,response,,,,,,continue,keypress(Space),,1034436,1034435.1999999881,1032103.606,1032106.8000000119,1032120.078,1034451.354,,,,,
trial,html.Screen,4_0_0,2023-09-08T18:02:20.756Z,,0,1,,3284.6459999999497,response,ISIC_0054705.JPG,5,ISIC_0024496.JPG,ISIC_0024496.JPG,false,0,keypress(z),500,1037736.400000006,1037736,1034433.522,1034436.3000000119,1034451.354,1037748.681,8,400,1,,ISIC_0054705.JPG
break,html.Screen,4_0_1,2023-09-08T18:02:20.757Z,,0,,,NaN,,,,,,false,,,,1037737.599999994,1037737.1999999881,,1037736.599999994,,1037748.681,8,400,,,
break_continue,html.Screen,4_0_2,2023-09-08T18:02:20.758Z,,0,,,NaN,,,,,,false,,,,1037738.099999994,1037737.900000006,,1037737.8000000119,,1037748.681,8,400,,,
sequence,flow.Sequence,4_0,2023-09-08T18:02:20.758Z,,0,,,3286.54600000591,completion,,,,,false,,,,1037738.1999999881,1037737.900000006,1034433.522,1034436.3000000119,1034451.354,1037748.681,8,400,,,
trial,html.Screen,4_1_0,2023-09-08T18:02:24.202Z,,0,1,,3433.1190000119386,response,ISIC_0072418.JPG,5,ISIC_0025139.JPG,ISIC_0025139.JPG,false,0,keypress(z),500,1041182.099999994,1041181.8000000119,1037732.67,1037738.400000006,1037748.681,1041195.76,8,400,2,,ISIC_0072418.JPG
break,html.Screen,4_1_1,2023-09-08T18:02:24.203Z,,0,,,NaN,,,,,,false,,,,1041183.3000000119,1041183,,1041182.3000000119,,1041195.76,8,400,,,
break_continue,html.Screen,4_1_2,2023-09-08T18:02:24.203Z,,0,,,NaN,,,,,,false,,,,1041183.6999999881,1041183.599999994,,1041183.5,,1041195.76,8,400,,,
sequence,flow.Sequence,4_1,2023-09-08T18:02:24.204Z,,0,,,3434.9189999940572,completion,,,,,false,,,,1041183.8000000119,1041183.599999994,1037732.67,1037738.3000000119,1037748.681,1041195.76,8,400,,,
trial,html.Screen,4_2_0,2023-09-08T18:02:27.887Z,,0,1,,3670.7399999999907,response,ISIC_7766007.JPG,6,ISIC_0483289.JPG,ISIC_7766007.JPG,false,1,keypress(m),500,1044866.8000000119,1044866.5,1041179.167,1041184,1041195.76,1044876.062,8,400,3,,ISIC_0483289.JPG
break,html.Screen,4_2_1,2023-09-08T18:02:27.888Z,,0,,,NaN,,,,,,false,,,,1044868.3000000119,1044867.900000006,,1044867.099999994,,1044876.062,8,400,,,
break_continue,html.Screen,4_2_2,2023-09-08T18:02:27.888Z,,0,,,NaN,,,,,,false,,,,1044868.8000000119,1044868.599999994,,1044868.400000006,,1044876.062,8,400,,,
sequence,flow.Sequence,4_2,2023-09-08T18:02:27.889Z,,0,,,3672.83999999403,completion,,,,,false,,,,1044868.8000000119,1044868.599999994,1041179.167,1041183.900000006,1041195.76,1044876.062,8,400,,,
trial,html.Screen,4_3_0,2023-09-08T18:02:31.221Z,,0,1,,3324.838000005926,response,ISIC_0010242.JPG,5,ISIC_6937199.JPG,ISIC_6937199.JPG,false,0,keypress(z),500,1048201.3000000119,1048200.900000006,1044859.436,1044868.900000006,1044876.062,1048206.688,8,400,4,,ISIC_0010242.JPG
break,html.Screen,4_3_1,2023-09-08T18:02:31.223Z,,0,,,NaN,,,,,,false,,,,1048203.1999999881,1048202.900000006,,1048201.599999994,,1048206.688,8,400,,,
break_continue,html.Screen,4_3_2,2023-09-08T18:02:31.224Z,,0,,,NaN,,,,,,false,,,,1048203.900000006,1048203.6999999881,,1048203.5,,1048206.688,8,400,,,
sequence,flow.Sequence,4_3,2023-09-08T18:02:31.224Z,,0,,,3327.6379999880446,completion,,,,,false,,,,1048204,1048203.6999999881,1044859.436,1044868.900000006,1044876.062,1048206.688,8,400,,,
trial,html.Screen,4_4_0,2023-09-08T18:02:34.964Z,,0,1,,3737.3120000000345,response,ISIC_7787118.JPG,5,ISIC_0031671.JPG,ISIC_7787118.JPG,false,1,keypress(m),500,1051944.199999988,1051944,1048190.133,1048204.1999999881,1048206.688,1051953.749,8,400,5,,ISIC_0031671.JPG
break,html.Screen,4_4_1,2023-09-08T18:02:34.966Z,,0,,,NaN,,,,,,false,,,,1051946.099999994,1051945.900000006,,1051944.599999994,,1051953.749,8,400,,,
break_continue,html.Screen,4_4_2,2023-09-08T18:02:34.966Z,,0,,,NaN,,,,,,false,,,,1051946.5,1051946.400000006,,1051946.300000012,,1051953.749,8,400,,,
sequence,flow.Sequence,4_4,2023-09-08T18:02:34.966Z,,0,,,3739.712000005995,completion,,,,,false,,,,1051946.699999988,1051946.400000006,1048190.133,1048204.099999994,1048206.688,1051953.749,8,400,,,
trial,html.Screen,4_5_0,2023-09-08T18:02:39.054Z,,0,1,,4080.250999999931,response,ISIC_0884550.JPG,5,ISIC_6317162.JPG,ISIC_0884550.JPG,false,1,keypress(m),500,1056034.300000012,1056034,1051937.393,1051946.800000012,1051953.749,1056050.352,8,400,6,,ISIC_6317162.JPG
break,html.Screen,4_5_1,2023-09-08T18:02:39.056Z,,0,,,NaN,,,,,,false,,,,1056035.800000012,1056035.599999994,,1056034.5,,1056050.352,8,400,,,
break_continue,html.Screen,4_5_2,2023-09-08T18:02:39.056Z,,0,,,NaN,,,,,,false,,,,1056036.400000006,1056036.199999988,,1056036.099999994,,1056050.352,8,400,,,
sequence,flow.Sequence,4_5,2023-09-08T18:02:39.056Z,,0,,,4082.45099998801,completion,,,,,false,,,,1056036.5,1056036.199999988,1051937.393,1051946.699999988,1051953.749,1056050.352,8,400,,,
trial,html.Screen,4_6_0,2023-09-08T18:02:42.629Z,,0,1,,3558.347999988124,response,ISIC_0056740.JPG,5,ISIC_0064633.JPG,ISIC_0064633.JPG,false,0,keypress(z),500,1059609,1059608.699999988,1056033.799,1056036.599999994,1056050.352,1059613.96,8,400,7,,ISIC_0056740.JPG
break,html.Screen,4_6_1,2023-09-08T18:02:42.630Z,,0,,,NaN,,,,,,false,,,,1059610.199999988,1059610,,1059609.199999988,,1059613.96,8,400,,,
break_continue,html.Screen,4_6_2,2023-09-08T18:02:42.630Z,,0,,,NaN,,,,,,false,,,,1059610.599999994,1059610.400000006,,1059610.300000012,,1059613.96,8,400,,,
sequence,flow.Sequence,4_6,2023-09-08T18:02:42.630Z,,0,,,3560.048000006005,completion,,,,,false,,,,1059610.699999988,1059610.400000006,1056033.799,1056036.599999994,1056050.352,1059613.96,8,400,,,
trial,html.Screen,4_7_0,2023-09-08T18:02:46.249Z,,0,1,,3615.139999994077,response,ISIC_6916213.JPG,5,ISIC_0024840.JPG,ISIC_6916213.JPG,false,1,keypress(m),500,1063229.5,1063229.099999994,1059597.323,1059610.800000012,1059613.96,1063244.495,8,400,8,,ISIC_0024840.JPG
break,html.Screen,4_7_1,2023-09-08T18:02:46.251Z,,0,,,NaN,,,,,,false,,,,1063231.099999994,1063230.800000012,,1063229.800000012,,1063244.495,8,400,,,
break_continue,html.Screen,4_7_2,2023-09-08T18:02:46.251Z,,0,,,NaN,,,,,,false,,,,1063231.5,1063231.400000006,,1063231.199999988,,1063244.495,8,400,,,
sequence,flow.Sequence,4_7,2023-09-08T18:02:46.251Z,,0,,,3617.4400000059977,completion,,,,,false,,,,1063231.699999988,1063231.400000006,1059597.323,1059610.800000012,1059613.96,1063244.495,8,400,,,
trial,html.Screen,4_8_0,2023-09-08T18:02:49.440Z,,0,1,,3174.9050000058487,response,ISIC_0027872.JPG,5,ISIC_8353090.JPG,ISIC_8353090.JPG,false,0,keypress(z),500,1066419.900000006,1066419.400000006,1063227.689,1063231.800000012,1063244.495,1066425.069,8,400,9,,ISIC_0027872.JPG
break,html.Screen,4_8_1,2023-09-08T18:02:49.442Z,,0,,,NaN,,,,,,false,,,,1066422,1066421.599999994,,1066420.300000012,,1066425.069,8,400,,,
break_continue,html.Screen,4_8_2,2023-09-08T18:02:49.442Z,,0,,,NaN,,,,,,false,,,,1066422.699999988,1066422.599999994,,1066422.300000012,,1066425.069,8,400,,,
sequence,flow.Sequence,4_8,2023-09-08T18:02:49.443Z,,0,,,3178.104999993928,completion,,,,,false,,,,1066422.900000006,1066422.599999994,1063227.689,1063231.699999988,1063244.495,1066425.069,8,400,,,
trial,html.Screen,4_9_0,2023-09-08T18:02:52.408Z,,0,1,,2963.331000006059,response,ISIC_0000420.JPG,4,ISIC_0025489.JPG,ISIC_0025489.JPG,false,0,keypress(z),500,1069388.5,1069388.400000006,1066409.484,1066423.099999994,1066425.069,1069407.111,8,400,10,,ISIC_0000420.JPG
break,html.Screen,4_9_1,2023-09-08T18:02:52.409Z,,0,,,NaN,,,,,,false,,,,1069389.099999994,1069388.900000006,,1069388.599999994,,1069407.111,8,400,,,
break_continue,html.Screen,4_9_2,2023-09-08T18:02:52.409Z,,0,,,NaN,,,,,,false,,,,1069389.400000006,1069389.300000012,,1069389.199999988,,1069407.111,8,400,,,
sequence,flow.Sequence,4_9,2023-09-08T18:02:52.409Z,,0,,,2964.2310000120196,completion,,,,,false,,,,1069389.599999994,1069389.300000012,1066409.484,1066423.099999994,1066425.069,1069407.111,8,400,,,
trial,html.Screen,4_10_0,2023-09-08T18:02:55.388Z,,0,1,,2961.1890000118874,response,ISIC_0046664.JPG,6,ISIC_0033241.JPG,ISIC_0033241.JPG,false,0,keypress(z),500,1072368.699999988,1072368.300000012,1069372.673,1069389.599999994,1069407.111,1072387.342,8,400,11,,ISIC_0046664.JPG
break,html.Screen,4_10_1,2023-09-08T18:02:55.390Z,,0,,,NaN,,,,,,false,,,,1072370.300000012,1072370,,1072369.099999994,,1072387.342,8,400,,,
break_continue,html.Screen,4_10_2,2023-09-08T18:02:55.391Z,,0,,,NaN,,,,,,false,,,,1072370.900000006,1072370.699999988,,1072370.5,,1072387.342,8,400,,,
sequence,flow.Sequence,4_10,2023-09-08T18:02:55.391Z,,0,,,2963.5889999880455,completion,,,,,false,,,,1072371.199999988,1072370.699999988,1069372.673,1069389.599999994,1069407.111,1072387.342,8,400,,,
trial,html.Screen,4_11_0,2023-09-08T18:02:59.622Z,,0,1,,4214.257999994094,response,ISIC_0068299.JPG,4,ISIC_4701900.JPG,ISIC_0068299.JPG,false,1,keypress(m),500,1076601.900000006,1076601.599999994,1072353.593,1072371.300000012,1072387.342,1076616.963,8,400,12,,ISIC_4701900.JPG
break,html.Screen,4_11_1,2023-09-08T18:02:59.623Z,,0,,,NaN,,,,,,false,,,,1076603.099999994,1076602.800000012,,1076602.199999988,,1076616.963,8,400,,,
break_continue,html.Screen,4_11_2,2023-09-08T18:02:59.623Z,,0,,,NaN,,,,,,false,,,,1076603.400000006,1076603.300000012,,1076603.199999988,,1076616.963,8,400,,,
sequence,flow.Sequence,4_11,2023-09-08T18:02:59.623Z,,0,,,4215.958000011975,completion,,,,,false,,,,1076603.599999994,1076603.300000012,1072353.593,1072371.199999988,1072387.342,1076616.963,8,400,,,
trial,html.Screen,4_12_0,2023-09-08T18:03:02.634Z,,0,1,,2996.9370000059716,response,ISIC_8651765.JPG,5,ISIC_0028557.JPG,ISIC_8651765.JPG,false,1,keypress(m),500,1079614.199999988,1079613.900000006,1076600.181,1076603.699999988,1076616.963,1079631.169,8,400,13,,ISIC_0028557.JPG
break,html.Screen,4_12_1,2023-09-08T18:03:02.635Z,,0,,,NaN,,,,,,false,,,,1079615.300000012,1079615,,1079614.400000006,,1079631.169,8,400,,,
break_continue,html.Screen,4_12_2,2023-09-08T18:03:02.635Z,,0,,,NaN,,,,,,false,,,,1079615.699999988,1079615.5,,1079615.400000006,,1079631.169,8,400,,,
sequence,flow.Sequence,4_12,2023-09-08T18:03:02.636Z,,0,,,2998.537000000011,completion,,,,,false,,,,1079615.800000012,1079615.5,1076600.181,1076603.699999988,1076616.963,1079631.169,8,400,,,
trial,html.Screen,4_13_0,2023-09-08T18:03:05.839Z,,0,1,,3187.5309999880847,response,ISIC_9819223.JPG,5,ISIC_0025523.JPG,ISIC_0025523.JPG,false,0,keypress(z),500,1082819.099999994,1082818.699999988,1079614.352,1079615.900000006,1079631.169,1082828.382,8,400,14,,ISIC_9819223.JPG
break,html.Screen,4_13_1,2023-09-08T18:03:05.840Z,,0,,,NaN,,,,,,false,,,,1082820.699999988,1082820.300000012,,1082819.400000006,,1082828.382,8,400,,,
break_continue,html.Screen,4_13_2,2023-09-08T18:03:05.841Z,,0,,,NaN,,,,,,false,,,,1082821.300000012,1082821.099999994,,1082820.900000006,,1082828.382,8,400,,,
sequence,flow.Sequence,4_13,2023-09-08T18:03:05.841Z,,0,,,3189.930999994045,completion,,,,,false,,,,1082821.400000006,1082821.099999994,1079614.352,1079615.800000012,1079631.169,1082828.382,8,400,,,
trial,html.Screen,4_14_0,2023-09-08T18:03:09.461Z,,0,1,,3612.2179999940563,response,ISIC_0024219.JPG,5,ISIC_0068427.JPG,ISIC_0024219.JPG,false,1,keypress(m),500,1086441,1086440.599999994,1082812.023,1082821.599999994,1082828.382,1086459.027,8,400,15,,ISIC_0068427.JPG
break,html.Screen,4_14_1,2023-09-08T18:03:09.462Z,,0,,,NaN,,,,,,false,,,,1086442.400000006,1086442.099999994,,1086441.199999988,,1086459.027,8,400,,,
break_continue,html.Screen,4_14_2,2023-09-08T18:03:09.463Z,,0,,,NaN,,,,,,false,,,,1086442.900000006,1086442.800000012,,1086442.599999994,,1086459.027,8,400,,,
sequence,flow.Sequence,4_14,2023-09-08T18:03:09.463Z,,0,,,3614.4180000119377,completion,,,,,false,,,,1086443.099999994,1086442.800000012,1082812.023,1082821.5,1082828.382,1086459.027,8,400,,,
trial,html.Screen,4_15_0,2023-09-08T18:03:13.534Z,,0,1,,4055.3730000059586,response,ISIC_1367610.JPG,5,ISIC_7475827.JPG,ISIC_1367610.JPG,false,1,keypress(m),500,1090514.699999988,1090514.400000006,1086425.848,1086443.199999988,1086459.027,1090522.347,8,400,16,,ISIC_7475827.JPG
break,html.Screen,4_15_1,2023-09-08T18:03:13.536Z,,0,,,NaN,,,,,,false,,,,1090516.300000012,1090516,,1090515,,1090522.347,8,400,,,
break_continue,html.Screen,4_15_2,2023-09-08T18:03:13.537Z,,0,,,NaN,,,,,,false,,,,1090516.800000012,1090516.699999988,,1090516.5,,1090522.347,8,400,,,
sequence,flow.Sequence,4_15,2023-09-08T18:03:13.537Z,,0,,,4057.672999988077,completion,,,,,false,,,,1090517,1090516.699999988,1086425.848,1086443.099999994,1086459.027,1090522.347,8,400,,,
trial,html.Screen,4_16_0,2023-09-08T18:03:16.797Z,,0,1,,3254.0530000058934,response,ISIC_1628539.JPG,5,ISIC_0026296.JPG,ISIC_0026296.JPG,false,0,keypress(z),500,1093776.900000006,1093776.400000006,1090505.951,1090517.099999994,1090522.347,1093785.923,8,400,17,,ISIC_1628539.JPG
break,html.Screen,4_16_1,2023-09-08T18:03:16.799Z,,0,,,NaN,,,,,,false,,,,1093778.900000006,1093778.400000006,,1093777.400000006,,1093785.923,8,400,,,
break_continue,html.Screen,4_16_2,2023-09-08T18:03:16.799Z,,0,,,NaN,,,,,,false,,,,1093779.5,1093779.300000012,,1093779.099999994,,1093785.923,8,400,,,
sequence,flow.Sequence,4_16,2023-09-08T18:03:16.799Z,,0,,,3256.953000011854,completion,,,,,false,,,,1093779.699999988,1093779.300000012,1090505.951,1090517.099999994,1090522.347,1093785.923,8,400,,,
trial,html.Screen,4_17_0,2023-09-08T18:03:20.006Z,,0,1,,3199.8770000119694,response,ISIC_7508320.JPG,4,ISIC_3979826.JPG,ISIC_7508320.JPG,false,1,keypress(m),500,1096986.300000012,1096985.800000012,1093769.517,1093779.900000006,1093785.923,1096999.941,8,400,18,,ISIC_3979826.JPG
break,html.Screen,4_17_1,2023-09-08T18:03:20.008Z,,0,,,NaN,,,,,,false,,,,1096988.400000006,1096987.900000006,,1096986.800000012,,1096999.941,8,400,,,
break_continue,html.Screen,4_17_2,2023-09-08T18:03:20.009Z,,0,,,NaN,,,,,,false,,,,1096989.199999988,1096989,,1096988.599999994,,1096999.941,8,400,,,
sequence,flow.Sequence,4_17,2023-09-08T18:03:20.009Z,,0,,,3203.0770000000484,completion,,,,,false,,,,1096989.400000006,1096989,1093769.517,1093779.800000012,1093785.923,1096999.941,8,400,,,
trial,html.Screen,4_18_0,2023-09-08T18:03:23.454Z,,0,1,,3433.9590000058524,response,ISIC_7097665.JPG,4,ISIC_1472777.JPG,ISIC_7097665.JPG,false,1,keypress(m),500,1100434.199999988,1100433.900000006,1096983.606,1096989.599999994,1096999.941,1100463.92,8,400,19,,ISIC_1472777.JPG
break,html.Screen,4_18_1,2023-09-08T18:03:23.455Z,,0,,,NaN,,,,,,false,,,,1100435,1100434.900000006,,1100434.400000006,,1100463.92,8,400,,,
break_continue,html.Screen,4_18_2,2023-09-08T18:03:23.455Z,,0,,,NaN,,,,,,false,,,,1100435.400000006,1100435.300000012,,1100435.199999988,,1100463.92,8,400,,,
sequence,flow.Sequence,4_18,2023-09-08T18:03:23.455Z,,0,,,3435.359000011813,completion,,,,,false,,,,1100435.5,1100435.300000012,1096983.606,1096989.5,1096999.941,1100463.92,8,400,,,
trial,html.Screen,4_19_0,2023-09-08T18:03:27.350Z,,0,1,,3865.679999994114,response,ISIC_0030072.JPG,5,ISIC_6561111.JPG,ISIC_0030072.JPG,false,1,keypress(m),500,1104330,1104329.599999994,1100447.153,1100435.599999994,1100463.92,1104343.999,8,400,20,,ISIC_6561111.JPG
break,html.Screen,4_19_1,2023-09-08T18:03:27.351Z,,0,,,NaN,,,,,,false,,,,1104331.599999994,1104331.199999988,,1104330.400000006,,1104343.999,8,400,,,
break_continue,html.Screen,4_19_2,2023-09-08T18:03:27.352Z,,0,,,NaN,,,,,,false,,,,1104332.199999988,1104332,,1104331.800000012,,1104343.999,8,400,,,
sequence,flow.Sequence,4_19,2023-09-08T18:03:27.352Z,,0,,,3868.0800000000745,completion,,,,,false,,,,1104332.300000012,1104332,1100447.153,1100435.599999994,1100463.92,1104343.999,8,400,,,
trial,html.Screen,4_20_0,2023-09-08T18:03:31.198Z,,0,1,,3834.20099998801,response,ISIC_0178370.JPG,5,ISIC_0028103.JPG,ISIC_0178370.JPG,false,1,keypress(m),500,1108178.5,1108178.199999988,1104327.442,1104332.5,1104343.999,1108190.931,8,400,21,,ISIC_0028103.JPG
break,html.Screen,4_20_1,2023-09-08T18:03:31.200Z,,0,,,NaN,,,,,,false,,,,1108180,1108179.599999994,,1108178.800000012,,1108190.931,8,400,,,
break_continue,html.Screen,4_20_2,2023-09-08T18:03:31.200Z,,0,,,NaN,,,,,,false,,,,1108180.699999988,1108180.5,,1108180.300000012,,1108190.931,8,400,,,
sequence,flow.Sequence,4_20,2023-09-08T18:03:31.201Z,,0,,,3836.500999999931,completion,,,,,false,,,,1108180.900000006,1108180.5,1104327.442,1104332.400000006,1104343.999,1108190.931,8,400,,,
trial,html.Screen,4_21_0,2023-09-08T18:03:34.779Z,,0,1,,3567.5689999999013,response,ISIC_7145788.JPG,4,ISIC_9842269.JPG,ISIC_7145788.JPG,false,1,keypress(m),500,1111759,1111758.5,1108174.026,1108181,1108190.931,1111771.114,8,400,22,,ISIC_9842269.JPG
break,html.Screen,4_21_1,2023-09-08T18:03:34.781Z,,0,,,NaN,,,,,,false,,,,1111760.900000006,1111760.400000006,,1111759.300000012,,1111771.114,8,400,,,
break_continue,html.Screen,4_21_2,2023-09-08T18:03:34.781Z,,0,,,NaN,,,,,,false,,,,1111761.5,1111761.400000006,,1111761.199999988,,1111771.114,8,400,,,
sequence,flow.Sequence,4_21,2023-09-08T18:03:34.782Z,,0,,,3570.4690000058617,completion,,,,,false,,,,1111761.699999988,1111761.400000006,1108174.026,1108181,1108190.931,1111771.114,8,400,,,
trial,html.Screen,4_22_0,2023-09-08T18:03:40.306Z,,0,1,,5515.0859999880195,response,ISIC_0061558.JPG,5,ISIC_0025653.JPG,ISIC_0025653.JPG,false,0,keypress(z),500,1117286.599999994,1117286.199999988,1111754.574,1111761.900000006,1111771.114,1117299.917,8,400,23,,ISIC_0061558.JPG
break,html.Screen,4_22_1,2023-09-08T18:03:40.308Z,,0,,,NaN,,,,,,false,,,,1117288.5,1117288.199999988,,1117287,,1117299.917,8,400,,,
break_continue,html.Screen,4_22_2,2023-09-08T18:03:40.309Z,,0,,,NaN,,,,,,false,,,,1117289.099999994,1117289,,1117288.699999988,,1117299.917,8,400,,,
sequence,flow.Sequence,4_22,2023-09-08T18:03:40.309Z,,0,,,5517.88599999994,completion,,,,,false,,,,1117289.300000012,1117289,1111754.574,1111761.900000006,1111771.114,1117299.917,8,400,,,
trial,html.Screen,4_23_0,2023-09-08T18:03:43.632Z,,0,1,,3311.5830000001006,response,ISIC_0028394.JPG,5,ISIC_0001102.JPG,ISIC_0028394.JPG,false,1,keypress(m),500,1120611.900000006,1120611.5,1117283.564,1117289.400000006,1117299.917,1120631.849,8,400,24,,ISIC_0001102.JPG
break,html.Screen,4_23_1,2023-09-08T18:03:43.633Z,,0,,,NaN,,,,,,false,,,,1120613.400000006,1120613.199999988,,1120612.199999988,,1120631.849,8,400,,,
break_continue,html.Screen,4_23_2,2023-09-08T18:03:43.634Z,,0,,,NaN,,,,,,false,,,,1120614,1120613.800000012,,1120613.699999988,,1120631.849,8,400,,,
sequence,flow.Sequence,4_23,2023-09-08T18:03:43.634Z,,0,,,3313.8830000120215,completion,,,,,false,,,,1120614.199999988,1120613.800000012,1117283.564,1117289.400000006,1117299.917,1120631.849,8,400,,,
trial,html.Screen,4_24_0,2023-09-08T18:03:47.942Z,,0,1,,4289.35099998815,response,ISIC_8882374.JPG,4,ISIC_9556334.JPG,ISIC_8882374.JPG,false,1,keypress(m),500,1124921.800000012,1124921.199999988,1120597.264,1120614.5,1120631.849,1124927.017,8,400,25,,ISIC_9556334.JPG
break,html.Screen,4_24_1,2023-09-08T18:03:47.944Z,,0,,,NaN,,,,,,false,,,,1124923.800000012,1124923.400000006,,1124922.199999988,,1124927.017,8,400,,,
break_continue,html.Screen,4_24_2,2023-09-08T18:03:47.944Z,,0,,,NaN,,,,,,false,,,,1124924.400000006,1124924.300000012,,1124924.099999994,,1124927.017,8,400,,,
sequence,flow.Sequence,4_24,2023-09-08T18:03:47.944Z,,0,,,4292.451000011992,completion,,,,,false,,,,1124924.599999994,1124924.300000012,1120597.264,1120614.400000006,1120631.849,1124927.017,8,400,,,
trial,html.Screen,4_25_0,2023-09-08T18:03:51.814Z,,0,1,,3866.383000005968,response,ISIC_0010718.JPG,4,ISIC_1396767.JPG,ISIC_0010718.JPG,false,1,keypress(m),500,1128793.800000012,1128793.400000006,1124910.536,1124924.900000006,1124927.017,1128807.208,8,400,26,,ISIC_1396767.JPG
break,html.Screen,4_25_1,2023-09-08T18:03:51.815Z,,0,,,NaN,,,,,,false,,,,1128795.300000012,1128795,,1128794.099999994,,1128807.208,8,400,,,
break_continue,html.Screen,4_25_2,2023-09-08T18:03:51.816Z,,0,,,NaN,,,,,,false,,,,1128795.800000012,1128795.699999988,,1128795.5,,1128807.208,8,400,,,
sequence,flow.Sequence,4_25,2023-09-08T18:03:51.816Z,,0,,,3868.6829999880865,completion,,,,,false,,,,1128795.900000006,1128795.699999988,1124910.536,1124924.800000012,1124927.017,1128807.208,8,400,,,
trial,html.Screen,4_26_0,2023-09-08T18:03:54.954Z,,0,1,,3127.19200000586,response,ISIC_1869829.JPG,5,ISIC_0059349.JPG,ISIC_1869829.JPG,false,1,keypress(m),500,1131934.599999994,1131934.400000006,1128790.64,1128796,1128807.208,1131937.907,8,400,27,,ISIC_0059349.JPG
break,html.Screen,4_26_1,2023-09-08T18:03:54.956Z,,0,,,NaN,,,,,,false,,,,1131935.800000012,1131935.699999988,,1131934.900000006,,1131937.907,8,400,,,
break_continue,html.Screen,4_26_2,2023-09-08T18:03:54.956Z,,0,,,NaN,,,,,,false,,,,1131936.300000012,1131936.099999994,,1131935.900000006,,1131937.907,8,400,,,
sequence,flow.Sequence,4_26,2023-09-08T18:03:54.956Z,,0,,,3128.891999993939,completion,,,,,false,,,,1131936.300000012,1131936.099999994,1128790.64,1128796,1128807.208,1131937.907,8,400,,,
trial,html.Screen,4_27_0,2023-09-08T18:03:58.383Z,,0,1,,3424.6929999941494,response,ISIC_8152423.JPG,5,ISIC_0006327.JPG,ISIC_0006327.JPG,false,0,keypress(z),500,1135363,1135362.599999994,1131921.167,1131936.5,1131937.907,1135368.45,8,400,28,,ISIC_8152423.JPG
break,html.Screen,4_27_1,2023-09-08T18:03:58.385Z,,0,,,NaN,,,,,,false,,,,1135365.199999988,1135364.699999988,,1135363.5,,1135368.45,8,400,,,
break_continue,html.Screen,4_27_2,2023-09-08T18:03:58.386Z,,0,,,NaN,,,,,,false,,,,1135366.099999994,1135365.900000006,,1135365.5,,1135368.45,8,400,,,
sequence,flow.Sequence,4_27,2023-09-08T18:03:58.386Z,,0,,,3427.9930000060704,completion,,,,,false,,,,1135366.599999994,1135365.900000006,1131921.167,1131936.400000006,1131937.907,1135368.45,8,400,,,
trial,html.Screen,4_28_0,2023-09-08T18:04:03.415Z,,0,1,,5026.3500000119675,response,ISIC_8617084.JPG,5,ISIC_4938791.JPG,ISIC_4938791.JPG,false,0,keypress(z),500,1140395.099999994,1140394.800000012,1135351.94,1135366.699999988,1135368.45,1140397.683,8,400,29,,ISIC_8617084.JPG
break,html.Screen,4_28_1,2023-09-08T18:04:03.416Z,,0,,,NaN,,,,,,false,,,,1140396.400000006,1140396,,1140395.300000012,,1140397.683,8,400,,,
break_continue,html.Screen,4_28_2,2023-09-08T18:04:03.417Z,,0,,,NaN,,,,,,false,,,,1140396.900000006,1140396.699999988,,1140396.599999994,,1140397.683,8,400,,,
sequence,flow.Sequence,4_28,2023-09-08T18:04:03.417Z,,0,,,5028.249999988126,completion,,,,,false,,,,1140397,1140396.699999988,1135351.94,1135366.699999988,1135368.45,1140397.683,8,400,,,
trial,html.Screen,4_29_0,2023-09-08T18:04:07.294Z,,0,1,,3875.817000000039,response,ISIC_0029021.JPG,5,ISIC_6793983.JPG,ISIC_6793983.JPG,false,0,keypress(z),500,1144273.800000012,1144273.5,1140381.194,1140397.199999988,1140397.683,1144277.768,8,400,30,,ISIC_0029021.JPG
break,html.Screen,4_29_1,2023-09-08T18:04:07.295Z,,0,,,NaN,,,,,,false,,,,1144275.099999994,1144274.800000012,,1144274,,1144277.768,8,400,,,
break_continue,html.Screen,4_29_2,2023-09-08T18:04:07.295Z,,0,,,NaN,,,,,,false,,,,1144275.599999994,1144275.400000006,,1144275.199999988,,1144277.768,8,400,,,
sequence,flow.Sequence,4_29,2023-09-08T18:04:07.296Z,,0,,,3877.7170000059996,completion,,,,,false,,,,1144275.699999988,1144275.400000006,1140381.194,1140397.099999994,1140397.683,1144277.768,8,400,,,
trial,html.Screen,4_30_0,2023-09-08T18:04:12.471Z,,0,1,,5173.232000000076,response,ISIC_0059769.JPG,5,ISIC_0000358.JPG,ISIC_0000358.JPG,false,0,keypress(z),500,1149451.400000006,1149451,1144261.841,1144275.800000012,1144277.768,1149456.846,8,400,31,,ISIC_0059769.JPG
break,html.Screen,4_30_1,2023-09-08T18:04:12.472Z,,0,,,NaN,,,,,,false,,,,1149452.599999994,1149452.400000006,,1149451.599999994,,1149456.846,8,400,,,
break_continue,html.Screen,4_30_2,2023-09-08T18:04:12.473Z,,0,,,NaN,,,,,,false,,,,1149453.099999994,1149452.900000006,,1149452.699999988,,1149456.846,8,400,,,
sequence,flow.Sequence,4_30,2023-09-08T18:04:12.473Z,,0,,,5175.132000006037,completion,,,,,false,,,,1149453.099999994,1149452.900000006,1144261.841,1144275.800000012,1144277.768,1149456.846,8,400,,,
trial,html.Screen,4_31_0,2023-09-08T18:04:15.900Z,,0,1,,3422.954000012018,response,ISIC_0032001.JPG,5,ISIC_0070581.JPG,ISIC_0032001.JPG,false,1,keypress(m),500,1152880.199999988,1152879.800000012,1149440.426,1149453.300000012,1149456.846,1152887.391,8,400,32,,ISIC_0070581.JPG
break,html.Screen,4_31_1,2023-09-08T18:04:15.902Z,,0,,,NaN,,,,,,false,,,,1152882.300000012,1152881.900000006,,1152880.900000006,,1152887.391,8,400,,,
break_continue,html.Screen,4_31_2,2023-09-08T18:04:15.903Z,,0,,,NaN,,,,,,false,,,,1152883,1152882.800000012,,1152882.599999994,,1152887.391,8,400,,,
sequence,flow.Sequence,4_31,2023-09-08T18:04:15.903Z,,0,,,3425.954000012018,completion,,,,,false,,,,1152883.199999988,1152882.800000012,1149440.426,1149453.300000012,1149456.846,1152887.391,8,400,,,
trial,html.Screen,4_32_0,2023-09-08T18:04:19.595Z,,0,1,,3687.4090000118595,response,ISIC_0063151.JPG,5,ISIC_0009993.JPG,ISIC_0063151.JPG,false,1,keypress(m),500,1156575,1156574.800000012,1152870.88,1152883.300000012,1152887.391,1156584.529,8,400,33,,ISIC_0009993.JPG
break,html.Screen,4_32_1,2023-09-08T18:04:19.596Z,,0,,,NaN,,,,,,false,,,,1156576.300000012,1156575.900000006,,1156575.199999988,,1156584.529,8,400,,,
break_continue,html.Screen,4_32_2,2023-09-08T18:04:19.596Z,,0,,,NaN,,,,,,false,,,,1156576.699999988,1156576.5,,1156576.400000006,,1156584.529,8,400,,,
sequence,flow.Sequence,4_32,2023-09-08T18:04:19.597Z,,0,,,3689.1089999999385,completion,,,,,false,,,,1156576.800000012,1156576.5,1152870.88,1152883.300000012,1152887.391,1156584.529,8,400,,,
trial,html.Screen,4_33_0,2023-09-08T18:04:23.123Z,,0,1,,3518.5709999939427,response,ISIC_0012425.JPG,4,ISIC_3430447.JPG,ISIC_0012425.JPG,false,1,keypress(m),500,1160103.599999994,1160103.099999994,1156567.735,1156576.900000006,1156584.529,1160114.847,8,400,34,,ISIC_3430447.JPG
break,html.Screen,4_33_1,2023-09-08T18:04:23.126Z,,0,,,NaN,,,,,,false,,,,1160105.699999988,1160105.199999988,,1160104.099999994,,1160114.847,8,400,,,
break_continue,html.Screen,4_33_2,2023-09-08T18:04:23.126Z,,0,,,NaN,,,,,,false,,,,1160106.5,1160106.300000012,,1160105.900000006,,1160114.847,8,400,,,
sequence,flow.Sequence,4_33,2023-09-08T18:04:23.127Z,,0,,,3521.771000011824,completion,,,,,false,,,,1160106.699999988,1160106.300000012,1156567.735,1156576.900000006,1156584.529,1160114.847,8,400,,,
trial,html.Screen,4_34_0,2023-09-08T18:04:26.747Z,,0,1,,3611.953000011854,response,ISIC_0033027.JPG,6,ISIC_0009958.JPG,ISIC_0009958.JPG,false,0,keypress(z),500,1163727.199999988,1163726.800000012,1160098.459,1160106.900000006,1160114.847,1163745.501,8,400,35,,ISIC_0033027.JPG
break,html.Screen,4_34_1,2023-09-08T18:04:26.749Z,,0,,,NaN,,,,,,false,,,,1163729.599999994,1163729.099999994,,1163727.900000006,,1163745.501,8,400,,,
break_continue,html.Screen,4_34_2,2023-09-08T18:04:26.750Z,,0,,,NaN,,,,,,false,,,,1163730.199999988,1163730,,1163729.800000012,,1163745.501,8,400,,,
sequence,flow.Sequence,4_34,2023-09-08T18:04:26.750Z,,0,,,3615.152999999933,completion,,,,,false,,,,1163730.599999994,1163730,1160098.459,1160106.800000012,1160114.847,1163745.501,8,400,,,
trial,html.Screen,4_35_0,2023-09-08T18:04:30.025Z,,0,1,,3259.3990000060294,response,ISIC_0029318.JPG,5,ISIC_0033498.JPG,ISIC_0029318.JPG,false,1,keypress(m),500,1167005.300000012,1167004.900000006,1163728.525,1163730.800000012,1163745.501,1167009.101,8,400,36,,ISIC_0033498.JPG
break,html.Screen,4_35_1,2023-09-08T18:04:30.027Z,,0,,,NaN,,,,,,false,,,,1167006.900000006,1167006.599999994,,1167005.599999994,,1167009.101,8,400,,,
break_continue,html.Screen,4_35_2,2023-09-08T18:04:30.027Z,,0,,,NaN,,,,,,false,,,,1167007.199999988,1167007.199999988,,1167007,,1167009.101,8,400,,,
sequence,flow.Sequence,4_35,2023-09-08T18:04:30.027Z,,0,,,3261.698999988148,completion,,,,,false,,,,1167007.400000006,1167007.199999988,1163728.525,1163730.699999988,1163745.501,1167009.101,8,400,,,
trial,html.Screen,4_36_0,2023-09-08T18:04:35.519Z,,0,1,,5489.598999988055,response,ISIC_2598575.JPG,5,ISIC_0030760.JPG,ISIC_0030760.JPG,false,0,keypress(z),500,1172499,1172498.699999988,1166992.659,1167007.599999994,1167009.101,1172504.591,8,400,37,,ISIC_2598575.JPG
break,html.Screen,4_36_1,2023-09-08T18:04:35.521Z,,0,,,NaN,,,,,,false,,,,1172500.699999988,1172500.300000012,,1172499.300000012,,1172504.591,8,400,,,
break_continue,html.Screen,4_36_2,2023-09-08T18:04:35.521Z,,0,,,NaN,,,,,,false,,,,1172501.300000012,1172501.099999994,,1172500.900000006,,1172504.591,8,400,,,
sequence,flow.Sequence,4_36,2023-09-08T18:04:35.521Z,,0,,,5491.998999994015,completion,,,,,false,,,,1172501.599999994,1172501.099999994,1166992.659,1167007.5,1167009.101,1172504.591,8,400,,,
trial,html.Screen,4_37_0,2023-09-08T18:04:39.910Z,,0,1,,4385.008999994025,response,ISIC_0010777.JPG,5,ISIC_4013189.JPG,ISIC_0010777.JPG,false,1,keypress(m),500,1176889.900000006,1176889.599999994,1172488.222,1172501.800000012,1172504.591,1176917.792,8,400,38,,ISIC_4013189.JPG
break,html.Screen,4_37_1,2023-09-08T18:04:39.911Z,,0,,,NaN,,,,,,false,,,,1176890.900000006,1176890.5,,1176890.099999994,,1176917.792,8,400,,,
break_continue,html.Screen,4_37_2,2023-09-08T18:04:39.911Z,,0,,,NaN,,,,,,false,,,,1176891.5,1176891.300000012,,1176891.099999994,,1176917.792,8,400,,,
sequence,flow.Sequence,4_37,2023-09-08T18:04:39.912Z,,0,,,4386.709000011906,completion,,,,,false,,,,1176891.699999988,1176891.300000012,1172488.222,1172501.699999988,1172504.591,1176917.792,8,400,,,
trial,html.Screen,4_38_0,2023-09-08T18:04:43.179Z,,0,1,,3241.4079999881797,response,ISIC_6215631.JPG,5,ISIC_8135400.JPG,ISIC_8135400.JPG,false,0,keypress(z),500,1180159.599999994,1180159.199999988,1176901.147,1176891.800000012,1176917.792,1180164.99,8,400,39,,ISIC_6215631.JPG
break,html.Screen,4_38_1,2023-09-08T18:04:43.181Z,,0,,,NaN,,,,,,false,,,,1180161.300000012,1180160.900000006,,1180160,,1180164.99,8,400,,,
break_continue,html.Screen,4_38_2,2023-09-08T18:04:43.182Z,,0,,,NaN,,,,,,false,,,,1180162,1180161.800000012,,1180161.599999994,,1180164.99,8,400,,,
sequence,flow.Sequence,4_38,2023-09-08T18:04:43.182Z,,0,,,3244.0080000120215,completion,,,,,false,,,,1180162.199999988,1180161.800000012,1176901.147,1176891.800000012,1176917.792,1180164.99,8,400,,,
trial,html.Screen,4_39_0,2023-09-08T18:04:46.294Z,,0,1,,3108.8100000119302,response,ISIC_0054312.JPG,6,ISIC_0024263.JPG,ISIC_0024263.JPG,false,0,keypress(z),500,1183274.199999988,1183273.800000012,1180148.139,1180162.300000012,1180164.99,1183279.09,8,400,40,,ISIC_0054312.JPG
break,html.Screen,4_39_1,2023-09-08T18:04:46.296Z,,0,,,NaN,,,,,,false,,,,1183275.699999988,1183275.400000006,,1183274.5,,1183279.09,8,400,,,
break_continue,html.Screen,4_39_2,2023-09-08T18:04:46.296Z,,0,,,NaN,,,,,,false,,,,1183276.300000012,1183276.099999994,,1183276,,1183279.09,8,400,,,
sequence,flow.Sequence,4_39,2023-09-08T18:04:46.296Z,,0,,,3111.109999994049,completion,,,,,false,,,,1183276.5,1183276.099999994,1180148.139,1180162.300000012,1180164.99,1183279.09,8,400,,,
trial,html.Screen,4_40_0,2023-09-08T18:04:50.691Z,,0,1,,4391.210000011837,response,ISIC_5910975.JPG,5,ISIC_0693902.JPG,ISIC_0693902.JPG,false,0,keypress(z),500,1187670.599999994,1187670.300000012,1183262.451,1183276.599999994,1183279.09,1187675.473,8,400,41,,ISIC_5910975.JPG
break,html.Screen,4_40_1,2023-09-08T18:04:50.692Z,,0,,,NaN,,,,,,false,,,,1187672.199999988,1187672,,1187671.099999994,,1187675.473,8,400,,,
break_continue,html.Screen,4_40_2,2023-09-08T18:04:50.693Z,,0,,,NaN,,,,,,false,,,,1187672.699999988,1187672.599999994,,1187672.400000006,,1187675.473,8,400,,,
sequence,flow.Sequence,4_40,2023-09-08T18:04:50.693Z,,0,,,4393.509999993956,completion,,,,,false,,,,1187672.900000006,1187672.599999994,1183262.451,1183276.599999994,1183279.09,1187675.473,8,400,,,
trial,html.Screen,4_41_0,2023-09-08T18:04:54.360Z,,0,1,,3664.1269999940414,response,ISIC_9626777.JPG,6,ISIC_5416978.JPG,ISIC_5416978.JPG,false,0,keypress(z),500,1191340,1191339.599999994,1187659.06,1187673.099999994,1187675.473,1191356.513,8,400,42,,ISIC_9626777.JPG
break,html.Screen,4_41_1,2023-09-08T18:04:54.362Z,,0,,,NaN,,,,,,false,,,,1191341.599999994,1191341.300000012,,1191340.300000012,,1191356.513,8,400,,,
break_continue,html.Screen,4_41_2,2023-09-08T18:04:54.362Z,,0,,,NaN,,,,,,false,,,,1191342.099999994,1191342,,1191341.900000006,,1191356.513,8,400,,,
sequence,flow.Sequence,4_41,2023-09-08T18:04:54.362Z,,0,,,3666.527000000002,completion,,,,,false,,,,1191342.400000006,1191342,1187659.06,1187673.099999994,1187675.473,1191356.513,8,400,,,
trial,html.Screen,4_42_0,2023-09-08T18:04:58.830Z,,0,1,,4453.086999994004,response,ISIC_0025759.JPG,6,ISIC_8995044.JPG,ISIC_8995044.JPG,false,0,keypress(z),500,1195809.900000006,1195809.599999994,1191339.547,1191342.400000006,1191356.513,1195818.846,8,400,43,,ISIC_0025759.JPG
break,html.Screen,4_42_1,2023-09-08T18:04:58.831Z,,0,,,NaN,,,,,,false,,,,1195811.400000006,1195811.099999994,,1195810.099999994,,1195818.846,8,400,,,
break_continue,html.Screen,4_42_2,2023-09-08T18:04:58.832Z,,0,,,NaN,,,,,,false,,,,1195811.800000012,1195811.800000012,,1195811.5,,1195818.846,8,400,,,
sequence,flow.Sequence,4_42,2023-09-08T18:04:58.832Z,,0,,,4455.2870000118855,completion,,,,,false,,,,1195811.900000006,1195811.800000012,1191339.547,1191342.400000006,1191356.513,1195818.846,8,400,,,
trial,html.Screen,4_43_0,2023-09-08T18:05:02.630Z,,0,1,,3791.0540000060573,response,ISIC_0059892.JPG,4,ISIC_4272317.JPG,ISIC_4272317.JPG,false,0,keypress(z),500,1199610.300000012,1199609.900000006,1195802.143,1195812,1195818.846,1199615.668,8,400,44,,ISIC_0059892.JPG
break,html.Screen,4_43_1,2023-09-08T18:05:02.632Z,,0,,,NaN,,,,,,false,,,,1199611.699999988,1199611.5,,1199610.5,,1199615.668,8,400,,,
break_continue,html.Screen,4_43_2,2023-09-08T18:05:02.632Z,,0,,,NaN,,,,,,false,,,,1199612.300000012,1199612.099999994,,1199611.900000006,,1199615.668,8,400,,,
sequence,flow.Sequence,4_43,2023-09-08T18:05:02.632Z,,0,,,3793.2539999941364,completion,,,,,false,,,,1199612.300000012,1199612.099999994,1195802.143,1195812,1195818.846,1199615.668,8,400,,,
trial,html.Screen,4_44_0,2023-09-08T18:05:06.449Z,,0,1,,3812.6320000118576,response,ISIC_0069488.JPG,5,ISIC_8635889.JPG,ISIC_8635889.JPG,false,0,keypress(z),500,1203428.699999988,1203428.300000012,1199599.241,1199612.599999994,1199615.668,1203445.994,8,400,45,,ISIC_0069488.JPG
break,html.Screen,4_44_1,2023-09-08T18:05:06.451Z,,0,,,NaN,,,,,,false,,,,1203430.900000006,1203430.699999988,,1203429.099999994,,1203445.994,8,400,,,
break_continue,html.Screen,4_44_2,2023-09-08T18:05:06.451Z,,0,,,NaN,,,,,,false,,,,1203431.5,1203431.300000012,,1203431.099999994,,1203445.994,8,400,,,
sequence,flow.Sequence,4_44,2023-09-08T18:05:06.452Z,,0,,,3815.6320000118576,completion,,,,,false,,,,1203431.699999988,1203431.300000012,1199599.241,1199612.400000006,1199615.668,1203445.994,8,400,,,
trial,html.Screen,4_45_0,2023-09-08T18:05:10.315Z,,0,1,,3848.4060000060126,response,ISIC_0009985.JPG,5,ISIC_5706908.JPG,ISIC_5706908.JPG,false,0,keypress(z),500,1207295,1207294.400000006,1203429.614,1203432,1203445.994,1207309.514,8,400,46,,ISIC_0009985.JPG
break,html.Screen,4_45_1,2023-09-08T18:05:10.317Z,,0,,,NaN,,,,,,false,,,,1207297.5,1207297.199999988,,1207295.400000006,,1207309.514,8,400,,,
break_continue,html.Screen,4_45_2,2023-09-08T18:05:10.318Z,,0,,,NaN,,,,,,false,,,,1207298.300000012,1207298.099999994,,1207297.699999988,,1207309.514,8,400,,,
sequence,flow.Sequence,4_45,2023-09-08T18:05:10.318Z,,0,,,3852.1059999940917,completion,,,,,false,,,,1207298.5,1207298.099999994,1203429.614,1203431.900000006,1203445.994,1207309.514,8,400,,,
trial,html.Screen,4_46_0,2023-09-08T18:05:14.135Z,,0,1,,3805.6859999881126,response,ISIC_0009230.JPG,5,ISIC_7787118.JPG,ISIC_0009230.JPG,false,1,keypress(m),500,1211115.5,1211115.199999988,1207292.795,1207298.699999988,1207309.514,1211122.942,8,400,47,,ISIC_7787118.JPG
break,html.Screen,4_46_1,2023-09-08T18:05:14.137Z,,0,,,NaN,,,,,,false,,,,1211116.900000006,1211116.5,,1211115.800000012,,1211122.942,8,400,,,
break_continue,html.Screen,4_46_2,2023-09-08T18:05:14.137Z,,0,,,NaN,,,,,,false,,,,1211117.300000012,1211117.199999988,,1211117,,1211122.942,8,400,,,
sequence,flow.Sequence,4_46,2023-09-08T18:05:14.137Z,,0,,,3807.6859999881126,completion,,,,,false,,,,1211117.400000006,1211117.199999988,1207292.795,1207298.699999988,1207309.514,1211122.942,8,400,,,
trial,html.Screen,4_47_0,2023-09-08T18:05:18.335Z,,0,1,,4192.25799998804,response,ISIC_5039895.JPG,4,ISIC_0030391.JPG,ISIC_5039895.JPG,false,1,keypress(m),500,1215315.599999994,1215315.199999988,1211106.29,1211117.5,1211122.942,1215319.465,8,400,48,,ISIC_0030391.JPG
break,html.Screen,4_47_1,2023-09-08T18:05:18.337Z,,0,,,NaN,,,,,,false,,,,1215317.199999988,1215316.800000012,,1215315.900000006,,1215319.465,8,400,,,
break_continue,html.Screen,4_47_2,2023-09-08T18:05:18.338Z,,0,,,NaN,,,,,,false,,,,1215317.800000012,1215317.599999994,,1215317.400000006,,1215319.465,8,400,,,
sequence,flow.Sequence,4_47,2023-09-08T18:05:18.338Z,,0,,,4194.657999994,completion,,,,,false,,,,1215318,1215317.599999994,1211106.29,1211117.5,1211122.942,1215319.465,8,400,,,
trial,html.Screen,4_48_0,2023-09-08T18:05:22.229Z,,0,1,,3889.534999999916,response,ISIC_6637542.JPG,4,ISIC_5948805.JPG,ISIC_6637542.JPG,false,1,keypress(m),500,1219209.300000012,1219209,1215303.428,1215318.099999994,1215319.465,1219216.521,8,400,49,,ISIC_5948805.JPG
break,html.Screen,4_48_1,2023-09-08T18:05:22.230Z,,0,,,NaN,,,,,,false,,,,1219210.599999994,1219210.300000012,,1219209.599999994,,1219216.521,8,400,,,
break_continue,html.Screen,4_48_2,2023-09-08T18:05:22.231Z,,0,,,NaN,,,,,,false,,,,1219211.099999994,1219210.900000006,,1219210.699999988,,1219216.521,8,400,,,
sequence,flow.Sequence,4_48,2023-09-08T18:05:22.231Z,,0,,,3891.4350000058766,completion,,,,,false,,,,1219211.199999988,1219210.900000006,1215303.428,1215318.099999994,1215319.465,1219216.521,8,400,,,
trial,html.Screen,4_49_0,2023-09-08T18:05:28.815Z,,0,1,,6578.178999988129,response,ISIC_9210255.JPG,5,ISIC_0062869.JPG,ISIC_9210255.JPG,false,1,keypress(m),500,1225795.099999994,1225794.699999988,1219199.838,1219211.300000012,1219216.521,1225811.028,8,400,50,,ISIC_0062869.JPG
break,html.Screen,4_49_1,2023-09-08T18:05:38.807Z,,0,,,9991.941000000108,timeout,,,,,false,,,,1235787.5,1235786.313,1225794.448,1225795.400000006,1225811.028,1235802.969,8,400,,,
break_continue,html.Screen,4_49_2,2023-09-08T18:05:40.668Z,,0,,,1833.83100001188,response,,,,,false,continue,keypress(Space),,1237648,1237636.800000012,1235786.313,1235787.699999988,1235802.969,1237651.08,8,400,,,
sequence,flow.Sequence,4_49,2023-09-08T18:05:40.668Z,,0,,,18420.27900001197,completion,,,,,false,,,,1237648.300000012,1237636.800000012,1219199.838,1219211.300000012,1219216.521,1237651.08,8,400,,,
trial,html.Screen,4_50_0,2023-09-08T18:05:44.434Z,,0,2,,3762.9199999999255,response,ISIC_0033612.JPG,6,ISIC_0653633.JPG,ISIC_0653633.JPG,false,0,keypress(z),500,1241414.400000006,1241414,1237634.639,1237648.300000012,1237651.08,1241431.36,8,400,1,,ISIC_0033612.JPG
break,html.Screen,4_50_1,2023-09-08T18:05:44.436Z,,0,,,NaN,,,,,,false,,,,1241415.800000012,1241415.400000006,,1241414.599999994,,1241431.36,8,400,,,
break_continue,html.Screen,4_50_2,2023-09-08T18:05:44.436Z,,0,,,NaN,,,,,,false,,,,1241416.199999988,1241416,,1241415.900000006,,1241431.36,8,400,,,
sequence,flow.Sequence,4_50,2023-09-08T18:05:44.436Z,,0,,,3764.9199999999255,completion,,,,,false,,,,1241416.400000006,1241416,1237634.639,1237648.300000012,1237651.08,1241431.36,8,400,,,
trial,html.Screen,4_51_0,2023-09-08T18:05:47.607Z,,0,2,,3155.239999993937,response,ISIC_2993032.JPG,5,ISIC_0024589.JPG,ISIC_0024589.JPG,false,0,keypress(z),500,1244586.900000006,1244586.599999994,1241414.918,1241416.5,1241431.36,1244595.423,8,400,2,,ISIC_2993032.JPG
break,html.Screen,4_51_1,2023-09-08T18:05:47.608Z,,0,,,NaN,,,,,,false,,,,1244588.5,1244588.199999988,,1244587.199999988,,1244595.423,8,400,,,
break_continue,html.Screen,4_51_2,2023-09-08T18:05:47.609Z,,0,,,NaN,,,,,,false,,,,1244589.099999994,1244588.900000006,,1244588.800000012,,1244595.423,8,400,,,
sequence,flow.Sequence,4_51,2023-09-08T18:05:47.609Z,,0,,,3157.540000005858,completion,,,,,false,,,,1244589.300000012,1244588.900000006,1241414.918,1241416.5,1241431.36,1244595.423,8,400,,,
trial,html.Screen,4_52_0,2023-09-08T18:05:50.529Z,,0,2,,2913.477000006009,response,ISIC_2733056.JPG,5,ISIC_4187485.JPG,ISIC_2733056.JPG,false,1,keypress(m),500,1247509.400000006,1247508.900000006,1244579.022,1244589.5,1244595.423,1247526.508,8,400,3,,ISIC_4187485.JPG
break,html.Screen,4_52_1,2023-09-08T18:05:50.531Z,,0,,,NaN,,,,,,false,,,,1247511.5,1247510.900000006,,1247509.900000006,,1247526.508,8,400,,,
break_continue,html.Screen,4_52_2,2023-09-08T18:05:50.532Z,,0,,,NaN,,,,,,false,,,,1247512.199999988,1247512,,1247511.800000012,,1247526.508,8,400,,,
sequence,flow.Sequence,4_52,2023-09-08T18:05:50.532Z,,0,,,2916.5770000000484,completion,,,,,false,,,,1247512.599999994,1247512,1244579.022,1244589.5,1244595.423,1247526.508,8,400,,,
trial,html.Screen,4_53_0,2023-09-08T18:05:54.506Z,,0,2,,3959.1919999881648,response,ISIC_6487809.JPG,6,ISIC_6529819.JPG,ISIC_6529819.JPG,false,0,keypress(z),500,1251486,1251485.699999988,1247510.166,1247513,1247526.508,1251489.705,8,400,4,,ISIC_6487809.JPG
break,html.Screen,4_53_1,2023-09-08T18:05:54.507Z,,0,,,NaN,,,,,,false,,,,1251487.199999988,1251487,,1251486.199999988,,1251489.705,8,400,,,
break_continue,html.Screen,4_53_2,2023-09-08T18:05:54.507Z,,0,,,NaN,,,,,,false,,,,1251487.599999994,1251487.400000006,,1251487.300000012,,1251489.705,8,400,,,
sequence,flow.Sequence,4_53,2023-09-08T18:05:54.507Z,,0,,,3960.892000006046,completion,,,,,false,,,,1251487.699999988,1251487.400000006,1247510.166,1247512.800000012,1247526.508,1251489.705,8,400,,,
trial,html.Screen,4_54_0,2023-09-08T18:05:57.894Z,,0,2,,3384.5950000118464,response,ISIC_2519121.JPG,5,ISIC_8559778.JPG,ISIC_2519121.JPG,false,1,keypress(m),500,1254874.699999988,1254874.300000012,1251473.521,1251487.800000012,1251489.705,1254886.919,8,400,5,,ISIC_8559778.JPG
break,html.Screen,4_54_1,2023-09-08T18:05:57.896Z,,0,,,NaN,,,,,,false,,,,1254876.5,1254876,,1254875.099999994,,1254886.919,8,400,,,
break_continue,html.Screen,4_54_2,2023-09-08T18:05:57.897Z,,0,,,NaN,,,,,,false,,,,1254877.099999994,1254877,,1254876.699999988,,1254886.919,8,400,,,
sequence,flow.Sequence,4_54,2023-09-08T18:05:57.897Z,,0,,,3387.2949999999255,completion,,,,,false,,,,1254877.300000012,1254877,1251473.521,1251487.800000012,1251489.705,1254886.919,8,400,,,
trial,html.Screen,4_55_0,2023-09-08T18:06:02.205Z,,0,2,,4297.581000000006,response,ISIC_0032197.JPG,4,ISIC_4974868.JPG,ISIC_4974868.JPG,false,0,keypress(z),500,1259184.900000006,1259184.5,1254870.786,1254877.5,1254886.919,1259200.296,8,400,6,,ISIC_0032197.JPG
break,html.Screen,4_55_1,2023-09-08T18:06:02.206Z,,0,,,NaN,,,,,,false,,,,1259186.400000006,1259186.099999994,,1259185.199999988,,1259200.296,8,400,,,
break_continue,html.Screen,4_55_2,2023-09-08T18:06:02.207Z,,0,,,NaN,,,,,,false,,,,1259186.800000012,1259186.699999988,,1259186.599999994,,1259200.296,8,400,,,
sequence,flow.Sequence,4_55,2023-09-08T18:06:02.207Z,,0,,,4299.780999988085,completion,,,,,false,,,,1259186.900000006,1259186.699999988,1254870.786,1254877.5,1254886.919,1259200.296,8,400,,,
trial,html.Screen,4_56_0,2023-09-08T18:06:05.362Z,,0,2,,3141.7039999999106,response,ISIC_0067609.JPG,5,ISIC_7196249.JPG,ISIC_7196249.JPG,false,0,keypress(z),500,1262342.300000012,1262342,1259183.44,1259187.099999994,1259200.296,1262347.486,8,400,7,,ISIC_0067609.JPG
break,html.Screen,4_56_1,2023-09-08T18:06:05.364Z,,0,,,NaN,,,,,,false,,,,1262343.800000012,1262343.5,,1262342.599999994,,1262347.486,8,400,,,
break_continue,html.Screen,4_56_2,2023-09-08T18:06:05.364Z,,0,,,NaN,,,,,,false,,,,1262344.099999994,1262344,,1262343.800000012,,1262347.486,8,400,,,
sequence,flow.Sequence,4_56,2023-09-08T18:06:05.364Z,,0,,,3143.7039999999106,completion,,,,,false,,,,1262344.300000012,1262344,1259183.44,1259187.099999994,1259200.296,1262347.486,8,400,,,
trial,html.Screen,4_57_0,2023-09-08T18:06:08.280Z,,0,2,,2912.113999994006,response,ISIC_5309814.JPG,7,ISIC_4834687.JPG,ISIC_5309814.JPG,false,1,keypress(m),500,1265260.099999994,1265259.599999994,1262331.095,1262344.300000012,1262347.486,1265278.677,8,400,8,,ISIC_4834687.JPG
break,html.Screen,4_57_1,2023-09-08T18:06:08.282Z,,0,,,NaN,,,,,,false,,,,1265262.5,1265261.900000006,,1265260.699999988,,1265278.677,8,400,,,
break_continue,html.Screen,4_57_2,2023-09-08T18:06:08.283Z,,0,,,NaN,,,,,,false,,,,1265263.300000012,1265263,,1265262.800000012,,1265278.677,8,400,,,
sequence,flow.Sequence,4_57,2023-09-08T18:06:08.283Z,,0,,,2915.5139999999665,completion,,,,,false,,,,1265263.699999988,1265263,1262331.095,1262344.300000012,1262347.486,1265278.677,8,400,,,
trial,html.Screen,4_58_0,2023-09-08T18:06:11.765Z,,0,2,,3465.8230000000913,response,ISIC_7282415.JPG,5,ISIC_0061918.JPG,ISIC_7282415.JPG,false,1,keypress(m),500,1268744.800000012,1268744.5,1265245.532,1265263.900000006,1265278.677,1268758.968,8,400,9,,ISIC_0061918.JPG
break,html.Screen,4_58_1,2023-09-08T18:06:11.766Z,,0,,,NaN,,,,,,false,,,,1268746.400000006,1268746,,1268745.099999994,,1268758.968,8,400,,,
break_continue,html.Screen,4_58_2,2023-09-08T18:06:11.767Z,,0,,,NaN,,,,,,false,,,,1268746.900000006,1268746.699999988,,1268746.5,,1268758.968,8,400,,,
sequence,flow.Sequence,4_58,2023-09-08T18:06:11.767Z,,0,,,3468.0229999881703,completion,,,,,false,,,,1268747.199999988,1268746.699999988,1265245.532,1265263.900000006,1265278.677,1268758.968,8,400,,,
trial,html.Screen,4_59_0,2023-09-08T18:06:15.918Z,,0,2,,4138.932000005851,response,ISIC_0024427.JPG,5,ISIC_4960784.JPG,ISIC_4960784.JPG,false,0,keypress(z),500,1272898.199999988,1272897.900000006,1268742.365,1268747.300000012,1268758.968,1272905.455,8,400,10,,ISIC_0024427.JPG
break,html.Screen,4_59_1,2023-09-08T18:06:15.919Z,,0,,,NaN,,,,,,false,,,,1272899.5,1272899.099999994,,1272898.400000006,,1272905.455,8,400,,,
break_continue,html.Screen,4_59_2,2023-09-08T18:06:15.920Z,,0,,,NaN,,,,,,false,,,,1272899.900000006,1272899.800000012,,1272899.599999994,,1272905.455,8,400,,,
sequence,flow.Sequence,4_59,2023-09-08T18:06:15.920Z,,0,,,4140.832000011811,completion,,,,,false,,,,1272900.099999994,1272899.800000012,1268742.365,1268747.199999988,1268758.968,1272905.455,8,400,,,
trial,html.Screen,4_60_0,2023-09-08T18:06:18.909Z,,0,2,,2983.5449999999255,response,ISIC_0027537.JPG,6,ISIC_0060707.JPG,ISIC_0027537.JPG,false,1,keypress(m),500,1275889.199999988,1275889,1272889.438,1272900.400000006,1272905.455,1275903.009,8,400,11,,ISIC_0060707.JPG
break,html.Screen,4_60_1,2023-09-08T18:06:18.910Z,,0,,,NaN,,,,,,false,,,,1275890,1275889.699999988,,1275889.300000012,,1275903.009,8,400,,,
break_continue,html.Screen,4_60_2,2023-09-08T18:06:18.910Z,,0,,,NaN,,,,,,false,,,,1275890.199999988,1275890.099999994,,1275890,,1275903.009,8,400,,,
sequence,flow.Sequence,4_60,2023-09-08T18:06:18.910Z,,0,,,2984.644999993965,completion,,,,,false,,,,1275890.300000012,1275890.099999994,1272889.438,1272900.300000012,1272905.455,1275903.009,8,400,,,
trial,html.Screen,4_61_0,2023-09-08T18:06:23.249Z,,0,2,,4325.891000005882,response,ISIC_8319768.JPG,5,ISIC_7053271.JPG,ISIC_8319768.JPG,false,1,keypress(m),500,1280229.199999988,1280228.900000006,1275886.332,1275890.300000012,1275903.009,1280232.816,8,400,12,,ISIC_7053271.JPG
break,html.Screen,4_61_1,2023-09-08T18:06:23.251Z,,0,,,NaN,,,,,,false,,,,1280231.099999994,1280230.800000012,,1280229.699999988,,1280232.816,8,400,,,
break_continue,html.Screen,4_61_2,2023-09-08T18:06:23.251Z,,0,,,NaN,,,,,,false,,,,1280231.599999994,1280231.400000006,,1280231.199999988,,1280232.816,8,400,,,
sequence,flow.Sequence,4_61,2023-09-08T18:06:23.252Z,,0,,,4328.391000005882,completion,,,,,false,,,,1280231.800000012,1280231.400000006,1275886.332,1275890.300000012,1275903.009,1280232.816,8,400,,,
trial,html.Screen,4_62_0,2023-09-08T18:06:28.159Z,,0,2,,4906.2839999939315,response,ISIC_0692990.JPG,6,ISIC_3965087.JPG,ISIC_0692990.JPG,false,1,keypress(m),500,1285139.400000006,1285139.099999994,1280216.337,1280232,1280232.816,1285145.52,8,400,13,,ISIC_3965087.JPG
break,html.Screen,4_62_1,2023-09-08T18:06:28.161Z,,0,,,NaN,,,,,,false,,,,1285140.800000012,1285140.5,,1285139.699999988,,1285145.52,8,400,,,
break_continue,html.Screen,4_62_2,2023-09-08T18:06:28.161Z,,0,,,NaN,,,,,,false,,,,1285141.300000012,1285141.199999988,,1285141.099999994,,1285145.52,8,400,,,
sequence,flow.Sequence,4_62,2023-09-08T18:06:28.161Z,,0,,,4908.383999987971,completion,,,,,false,,,,1285141.5,1285141.199999988,1280216.337,1280232,1280232.816,1285145.52,8,400,,,
trial,html.Screen,4_63_0,2023-09-08T18:06:32.438Z,,0,2,,4272.17999998806,response,ISIC_0070679.JPG,6,ISIC_9822350.JPG,ISIC_0070679.JPG,false,1,keypress(m),500,1289418,1289417.699999988,1285129.207,1285141.699999988,1285145.52,1289425.671,8,400,14,,ISIC_9822350.JPG
break,html.Screen,4_63_1,2023-09-08T18:06:32.439Z,,0,,,NaN,,,,,,false,,,,1289419.199999988,1289418.900000006,,1289418.300000012,,1289425.671,8,400,,,
break_continue,html.Screen,4_63_2,2023-09-08T18:06:32.439Z,,0,,,NaN,,,,,,false,,,,1289419.699999988,1289419.5,,1289419.400000006,,1289425.671,8,400,,,
sequence,flow.Sequence,4_63,2023-09-08T18:06:32.440Z,,0,,,4273.979999999981,completion,,,,,false,,,,1289419.800000012,1289419.5,1285129.207,1285141.5,1285145.52,1289425.671,8,400,,,
trial,html.Screen,4_64_0,2023-09-08T18:06:38.155Z,,0,2,,5709.02899998799,response,ISIC_1619814.JPG,6,ISIC_0033644.JPG,ISIC_0033644.JPG,false,0,keypress(z),500,1295135,1295134.699999988,1289408.821,1289419.900000006,1289425.671,1295154.191,8,400,15,,ISIC_1619814.JPG
break,html.Screen,4_64_1,2023-09-08T18:06:38.156Z,,0,,,NaN,,,,,,false,,,,1295136.199999988,1295135.900000006,,1295135.300000012,,1295154.191,8,400,,,
break_continue,html.Screen,4_64_2,2023-09-08T18:06:38.157Z,,0,,,NaN,,,,,,false,,,,1295136.699999988,1295136.599999994,,1295136.400000006,,1295154.191,8,400,,,
sequence,flow.Sequence,4_64,2023-09-08T18:06:38.157Z,,0,,,5710.92899999395,completion,,,,,false,,,,1295136.900000006,1295136.599999994,1289408.821,1289419.900000006,1289425.671,1295154.191,8,400,,,
trial,html.Screen,4_65_0,2023-09-08T18:06:43.553Z,,0,2,,5378.609000011813,response,ISIC_2513481.JPG,5,ISIC_1888865.JPG,ISIC_1888865.JPG,false,0,keypress(z),500,1300533.099999994,1300532.800000012,1295137.262,1295137.099999994,1295154.191,1300549.577,8,400,16,,ISIC_2513481.JPG
break,html.Screen,4_65_1,2023-09-08T18:06:43.554Z,,0,,,NaN,,,,,,false,,,,1300534.199999988,1300534,,1300533.300000012,,1300549.577,8,400,,,
break_continue,html.Screen,4_65_2,2023-09-08T18:06:43.554Z,,0,,,NaN,,,,,,false,,,,1300534.699999988,1300534.599999994,,1300534.400000006,,1300549.577,8,400,,,
sequence,flow.Sequence,4_65,2023-09-08T18:06:43.555Z,,0,,,5380.4089999939315,completion,,,,,false,,,,1300534.800000012,1300534.599999994,1295137.262,1295137,1295154.191,1300549.577,8,400,,,
trial,html.Screen,4_66_0,2023-09-08T18:06:48.263Z,,0,2,,4692.7230000118725,response,ISIC_0024333.JPG,5,ISIC_0028019.JPG,ISIC_0028019.JPG,false,0,keypress(z),500,1305242.699999988,1305242.300000012,1300533.039,1300534.900000006,1300549.577,1305245.65,8,400,17,,ISIC_0024333.JPG
break,html.Screen,4_66_1,2023-09-08T18:06:48.265Z,,0,,,NaN,,,,,,false,,,,1305244.900000006,1305244.5,,1305243.300000012,,1305245.65,8,400,,,
break_continue,html.Screen,4_66_2,2023-09-08T18:06:48.265Z,,0,,,NaN,,,,,,false,,,,1305245.5,1305245.400000006,,1305245.099999994,,1305245.65,8,400,,,
sequence,flow.Sequence,4_66,2023-09-08T18:06:48.266Z,,0,,,4695.823000005912,completion,,,,,false,,,,1305246.099999994,1305245.400000006,1300533.039,1300534.900000006,1300549.577,1305245.65,8,400,,,
trial,html.Screen,4_67_0,2023-09-08T18:06:51.508Z,,0,2,,3242.350000000093,response,ISIC_9482039.JPG,5,ISIC_0033603.JPG,ISIC_9482039.JPG,false,1,keypress(m),500,1308488.5,1308488,1305229.146,1305246.400000006,1305245.65,1308492.97,8,400,18,,ISIC_0033603.JPG
break,html.Screen,4_67_1,2023-09-08T18:06:51.510Z,,0,,,NaN,,,,,,false,,,,1308490.599999994,1308490.300000012,,1308489,,1308492.97,8,400,,,
break_continue,html.Screen,4_67_2,2023-09-08T18:06:51.511Z,,0,,,NaN,,,,,,false,,,,1308491.5,1308491.300000012,,1308491.099999994,,1308492.97,8,400,,,
sequence,flow.Sequence,4_67,2023-09-08T18:06:51.512Z,,0,,,3245.650000012014,completion,,,,,false,,,,1308491.699999988,1308491.300000012,1305229.146,1305246.300000012,1305245.65,1308492.97,8,400,,,
trial,html.Screen,4_68_0,2023-09-08T18:06:57.115Z,,0,2,,5602.030000000028,response,ISIC_9008095.JPG,5,ISIC_2707664.JPG,ISIC_2707664.JPG,false,0,keypress(z),500,1314095.300000012,1314095,1308476.594,1308491.900000006,1308492.97,1314105.037,8,400,19,,ISIC_9008095.JPG
break,html.Screen,4_68_1,2023-09-08T18:06:57.116Z,,0,,,NaN,,,,,,false,,,,1314096.300000012,1314096,,1314095.5,,1314105.037,8,400,,,
break_continue,html.Screen,4_68_2,2023-09-08T18:06:57.116Z,,0,,,NaN,,,,,,false,,,,1314096.699999988,1314096.5,,1314096.400000006,,1314105.037,8,400,,,
sequence,flow.Sequence,4_68,2023-09-08T18:06:57.117Z,,0,,,5603.530000000028,completion,,,,,false,,,,1314096.699999988,1314096.5,1308476.594,1308491.800000012,1308492.97,1314105.037,8,400,,,
trial,html.Screen,4_69_0,2023-09-08T18:07:00.755Z,,0,2,,3630.5629999940284,response,ISIC_0057313.JPG,5,ISIC_0065260.JPG,ISIC_0057313.JPG,false,1,keypress(m),500,1317735.699999988,1317735.599999994,1314088.527,1314096.900000006,1314105.037,1317751.949,8,400,20,,ISIC_0065260.JPG
break,html.Screen,4_69_1,2023-09-08T18:07:00.756Z,,0,,,NaN,,,,,,false,,,,1317736.400000006,1317736.300000012,,1317735.800000012,,1317751.949,8,400,,,
break_continue,html.Screen,4_69_2,2023-09-08T18:07:00.757Z,,0,,,NaN,,,,,,false,,,,1317736.900000006,1317736.800000012,,1317736.5,,1317751.949,8,400,,,
sequence,flow.Sequence,4_69,2023-09-08T18:07:00.757Z,,0,,,3631.7630000119098,completion,,,,,false,,,,1317737.199999988,1317736.800000012,1314088.527,1314096.900000006,1314105.037,1317751.949,8,400,,,
trial,html.Screen,4_70_0,2023-09-08T18:07:05.305Z,,0,2,,4532.451000005938,response,ISIC_4128342.JPG,6,ISIC_0031891.JPG,ISIC_4128342.JPG,false,1,keypress(m),500,1322284.900000006,1322284.400000006,1317735.358,1317737.599999994,1317751.949,1322298.212,8,400,21,,ISIC_0031891.JPG
break,html.Screen,4_70_1,2023-09-08T18:07:05.307Z,,0,,,NaN,,,,,,false,,,,1322287,1322286.5,,1322285.400000006,,1322298.212,8,400,,,
break_continue,html.Screen,4_70_2,2023-09-08T18:07:05.307Z,,0,,,NaN,,,,,,false,,,,1322287.599999994,1322287.5,,1322287.199999988,,1322298.212,8,400,,,
sequence,flow.Sequence,4_70,2023-09-08T18:07:05.308Z,,0,,,4535.550999999978,completion,,,,,false,,,,1322287.800000012,1322287.5,1317735.358,1317737.599999994,1317751.949,1322298.212,8,400,,,
trial,html.Screen,4_71_0,2023-09-08T18:07:09.984Z,,0,2,,4666.088000011863,response,ISIC_0011793.JPG,5,ISIC_3019509.JPG,ISIC_0011793.JPG,false,1,keypress(m),500,1326964.599999994,1326964.300000012,1322281.783,1322288,1322298.212,1326977.972,8,400,22,,ISIC_3019509.JPG
break,html.Screen,4_71_1,2023-09-08T18:07:09.986Z,,0,,,NaN,,,,,,false,,,,1326965.900000006,1326965.599999994,,1326964.800000012,,1326977.972,8,400,,,
break_continue,html.Screen,4_71_2,2023-09-08T18:07:09.986Z,,0,,,NaN,,,,,,false,,,,1326966.199999988,1326966.199999988,,1326966.099999994,,1326977.972,8,400,,,
sequence,flow.Sequence,4_71,2023-09-08T18:07:09.986Z,,0,,,4667.987999988021,completion,,,,,false,,,,1326966.400000006,1326966.199999988,1322281.783,1322287.900000006,1322298.212,1326977.972,8,400,,,
trial,html.Screen,4_72_0,2023-09-08T18:07:15.036Z,,0,2,,5038.027999999933,response,ISIC_0067597.JPG,5,ISIC_5581931.JPG,ISIC_0067597.JPG,false,1,keypress(m),500,1332016.400000006,1332016,1326961.336,1326966.5,1326977.972,1332023.614,8,400,23,,ISIC_5581931.JPG
break,html.Screen,4_72_1,2023-09-08T18:07:15.038Z,,0,,,NaN,,,,,,false,,,,1332018.199999988,1332017.800000012,,1332016.800000012,,1332023.614,8,400,,,
break_continue,html.Screen,4_72_2,2023-09-08T18:07:15.038Z,,0,,,NaN,,,,,,false,,,,1332018.699999988,1332018.5,,1332018.300000012,,1332023.614,8,400,,,
sequence,flow.Sequence,4_72,2023-09-08T18:07:15.039Z,,0,,,5040.527999999933,completion,,,,,false,,,,1332018.900000006,1332018.5,1326961.336,1326966.5,1326977.972,1332023.614,8,400,,,
trial,html.Screen,4_73_0,2023-09-08T18:07:20.454Z,,0,2,,5410.5859999880195,response,ISIC_8730617.JPG,5,ISIC_4782878.JPG,ISIC_8730617.JPG,false,1,keypress(m),500,1337434.599999994,1337434.199999988,1332007.142,1332019,1332023.614,1337452.893,8,400,24,,ISIC_4782878.JPG
break,html.Screen,4_73_1,2023-09-08T18:07:20.456Z,,0,,,NaN,,,,,,false,,,,1337435.900000006,1337435.5,,1337434.800000012,,1337452.893,8,400,,,
break_continue,html.Screen,4_73_2,2023-09-08T18:07:20.456Z,,0,,,NaN,,,,,,false,,,,1337436.5,1337436.300000012,,1337436.099999994,,1337452.893,8,400,,,
sequence,flow.Sequence,4_73,2023-09-08T18:07:20.456Z,,0,,,5412.686000011861,completion,,,,,false,,,,1337436.699999988,1337436.300000012,1332007.142,1332019,1332023.614,1337452.893,8,400,,,
trial,html.Screen,4_74_0,2023-09-08T18:07:24.332Z,,0,2,,3858.8069999881554,response,ISIC_3573969.JPG,5,ISIC_0029570.JPG,ISIC_3573969.JPG,false,1,keypress(m),500,1341311.900000006,1341311.699999988,1337419.379,1337436.699999988,1337452.893,1341315.941,8,400,25,,ISIC_0029570.JPG
break,html.Screen,4_74_1,2023-09-08T18:07:24.333Z,,0,,,NaN,,,,,,false,,,,1341313.300000012,1341313,,1341312.300000012,,1341315.941,8,400,,,
break_continue,html.Screen,4_74_2,2023-09-08T18:07:24.333Z,,0,,,NaN,,,,,,false,,,,1341313.699999988,1341313.599999994,,1341313.400000006,,1341315.941,8,400,,,
sequence,flow.Sequence,4_74,2023-09-08T18:07:24.334Z,,0,,,3860.706999994116,completion,,,,,false,,,,1341313.800000012,1341313.599999994,1337419.379,1337436.699999988,1337452.893,1341315.941,8,400,,,
trial,html.Screen,4_75_0,2023-09-08T18:07:27.761Z,,0,2,,3424.758999987971,response,ISIC_0025231.JPG,5,ISIC_5308066.JPG,ISIC_5308066.JPG,false,0,keypress(z),500,1344740.900000006,1344740.699999988,1341299.547,1341313.900000006,1341315.941,1344746.433,8,400,26,,ISIC_0025231.JPG
break,html.Screen,4_75_1,2023-09-08T18:07:27.761Z,,0,,,NaN,,,,,,false,,,,1344741.599999994,1344741.400000006,,1344741.099999994,,1344746.433,8,400,,,
break_continue,html.Screen,4_75_2,2023-09-08T18:07:27.762Z,,0,,,NaN,,,,,,false,,,,1344741.800000012,1344741.800000012,,1344741.699999988,,1344746.433,8,400,,,
sequence,flow.Sequence,4_75,2023-09-08T18:07:27.762Z,,0,,,3425.859000011813,completion,,,,,false,,,,1344742,1344741.800000012,1341299.547,1341313.900000006,1341315.941,1344746.433,8,400,,,
trial,html.Screen,4_76_0,2023-09-08T18:07:31.366Z,,0,2,,3599.6669999940787,response,ISIC_5385528.JPG,6,ISIC_5565517.JPG,ISIC_5385528.JPG,false,1,keypress(m),500,1348346.5,1348346.099999994,1344729.799,1344742,1344746.433,1348360.166,8,400,27,,ISIC_5565517.JPG
break,html.Screen,4_76_1,2023-09-08T18:07:31.368Z,,0,,,NaN,,,,,,false,,,,1348348.099999994,1348347.699999988,,1348346.900000006,,1348360.166,8,400,,,
break_continue,html.Screen,4_76_2,2023-09-08T18:07:31.368Z,,0,,,NaN,,,,,,false,,,,1348348.699999988,1348348.5,,1348348.300000012,,1348360.166,8,400,,,
sequence,flow.Sequence,4_76,2023-09-08T18:07:31.369Z,,0,,,3602.067000000039,completion,,,,,false,,,,1348348.800000012,1348348.5,1344729.799,1344742,1344746.433,1348360.166,8,400,,,
trial,html.Screen,4_77_0,2023-09-08T18:07:34.860Z,,0,2,,3479.734000005992,response,ISIC_7672106.JPG,5,ISIC_0250064.JPG,ISIC_0250064.JPG,false,0,keypress(z),500,1351840,1351839.900000006,1348343.515,1348349.099999994,1348360.166,1351857.299,8,400,28,,ISIC_7672106.JPG
break,html.Screen,4_77_1,2023-09-08T18:07:34.861Z,,0,,,NaN,,,,,,false,,,,1351840.900000006,1351840.699999988,,1351840.199999988,,1351857.299,8,400,,,
break_continue,html.Screen,4_77_2,2023-09-08T18:07:34.861Z,,0,,,NaN,,,,,,false,,,,1351841.099999994,1351841.099999994,,1351841,,1351857.299,8,400,,,
sequence,flow.Sequence,4_77,2023-09-08T18:07:34.861Z,,0,,,3480.933999994071,completion,,,,,false,,,,1351841.199999988,1351841.099999994,1348343.515,1348349,1348360.166,1351857.299,8,400,,,
trial,html.Screen,4_78_0,2023-09-08T18:07:38.959Z,,0,2,,4082.101000005845,response,ISIC_0027021.JPG,5,ISIC_0033202.JPG,ISIC_0033202.JPG,false,0,keypress(z),500,1355939.599999994,1355939.400000006,1351824.111,1351841.199999988,1351857.299,1355953.926,8,400,29,,ISIC_0027021.JPG
break,html.Screen,4_78_1,2023-09-08T18:07:38.960Z,,0,,,NaN,,,,,,false,,,,1355940.400000006,1355940.199999988,,1355939.800000012,,1355953.926,8,400,,,
break_continue,html.Screen,4_78_2,2023-09-08T18:07:38.960Z,,0,,,NaN,,,,,,false,,,,1355940.699999988,1355940.699999988,,1355940.5,,1355953.926,8,400,,,
sequence,flow.Sequence,4_78,2023-09-08T18:07:38.961Z,,0,,,4083.4009999879636,completion,,,,,false,,,,1355940.900000006,1355940.699999988,1351824.111,1351841.199999988,1351857.299,1355953.926,8,400,,,
trial,html.Screen,4_79_0,2023-09-08T18:07:42.426Z,,0,2,,3451.673999994062,response,ISIC_5101111.JPG,5,ISIC_0029283.JPG,ISIC_5101111.JPG,false,1,keypress(m),500,1359405.800000012,1359405.599999994,1355937.331,1355940.900000006,1355953.926,1359417.816,8,400,30,,ISIC_0029283.JPG
break,html.Screen,4_79_1,2023-09-08T18:07:42.426Z,,0,,,NaN,,,,,,false,,,,1359406.599999994,1359406.5,,1359406,,1359417.816,8,400,,,
break_continue,html.Screen,4_79_2,2023-09-08T18:07:42.427Z,,0,,,NaN,,,,,,false,,,,1359406.900000006,1359406.800000012,,1359406.599999994,,1359417.816,8,400,,,
sequence,flow.Sequence,4_79,2023-09-08T18:07:42.427Z,,0,,,3452.8740000119433,completion,,,,,false,,,,1359406.900000006,1359406.800000012,1355937.331,1355940.900000006,1355953.926,1359417.816,8,400,,,
trial,html.Screen,4_80_0,2023-09-08T18:07:48.029Z,,0,2,,5590.7839999939315,response,ISIC_9048507.JPG,5,ISIC_0033268.JPG,ISIC_9048507.JPG,false,1,keypress(m),500,1365008.800000012,1365008.599999994,1359401.068,1359407,1359417.816,1365013.125,8,400,31,,ISIC_0033268.JPG
break,html.Screen,4_80_1,2023-09-08T18:07:48.029Z,,0,,,NaN,,,,,,false,,,,1365009.5,1365009.300000012,,1365008.900000006,,1365013.125,8,400,,,
break_continue,html.Screen,4_80_2,2023-09-08T18:07:48.030Z,,0,,,NaN,,,,,,false,,,,1365009.900000006,1365009.800000012,,1365009.599999994,,1365013.125,8,400,,,
sequence,flow.Sequence,4_80,2023-09-08T18:07:48.030Z,,0,,,5591.984000011813,completion,,,,,false,,,,1365009.900000006,1365009.800000012,1359401.068,1359406.900000006,1359417.816,1365013.125,8,400,,,
trial,html.Screen,4_81_0,2023-09-08T18:07:51.461Z,,0,2,,3428.175000011921,response,ISIC_1578253.JPG,5,ISIC_0032162.JPG,ISIC_0032162.JPG,false,0,keypress(z),500,1368441.5,1368441.300000012,1364996.581,1365010,1365013.125,1368443.646,8,400,32,,ISIC_1578253.JPG
break,html.Screen,4_81_1,2023-09-08T18:07:51.462Z,,0,,,NaN,,,,,,false,,,,1368442.5,1368442.300000012,,1368441.800000012,,1368443.646,8,400,,,
break_continue,html.Screen,4_81_2,2023-09-08T18:07:51.463Z,,0,,,NaN,,,,,,false,,,,1368442.900000006,1368442.800000012,,1368442.699999988,,1368443.646,8,400,,,
sequence,flow.Sequence,4_81,2023-09-08T18:07:51.463Z,,0,,,3429.675000011921,completion,,,,,false,,,,1368443,1368442.800000012,1364996.581,1365009.900000006,1365013.125,1368443.646,8,400,,,
trial,html.Screen,4_82_0,2023-09-08T18:07:55.292Z,,0,2,,3828.2540000060108,response,ISIC_0029672.JPG,6,ISIC_0011747.JPG,ISIC_0029672.JPG,false,1,keypress(m),500,1372272,1372271.900000006,1368427.064,1368443.199999988,1368443.646,1372273.832,8,400,33,,ISIC_0011747.JPG
break,html.Screen,4_82_1,2023-09-08T18:07:55.292Z,,0,,,NaN,,,,,,false,,,,1372272.699999988,1372272.599999994,,1372272.199999988,,1372273.832,8,400,,,
break_continue,html.Screen,4_82_2,2023-09-08T18:07:55.293Z,,0,,,NaN,,,,,,false,,,,1372272.900000006,1372272.800000012,,1372272.800000012,,1372273.832,8,400,,,
sequence,flow.Sequence,4_82,2023-09-08T18:07:55.293Z,,0,,,3829.154000011971,completion,,,,,false,,,,1372273,1372272.800000012,1368427.064,1368443.199999988,1368443.646,1372273.832,8,400,,,
trial,html.Screen,4_83_0,2023-09-08T18:07:58.564Z,,0,2,,3269.8679999881424,response,ISIC_0072865.JPG,5,ISIC_2034687.JPG,ISIC_0072865.JPG,false,1,keypress(m),500,1375543.900000006,1375543.699999988,1372257.268,1372273.099999994,1372273.832,1375554.5,8,400,34,,ISIC_2034687.JPG
break,html.Screen,4_83_1,2023-09-08T18:07:58.565Z,,0,,,NaN,,,,,,false,,,,1375544.900000006,1375544.699999988,,1375544.099999994,,1375554.5,8,400,,,
break_continue,html.Screen,4_83_2,2023-09-08T18:07:58.565Z,,0,,,NaN,,,,,,false,,,,1375545.199999988,1375545.099999994,,1375544.900000006,,1375554.5,8,400,,,
sequence,flow.Sequence,4_83,2023-09-08T18:07:58.565Z,,0,,,3271.267999994103,completion,,,,,false,,,,1375545.400000006,1375545.099999994,1372257.268,1372273.099999994,1372273.832,1375554.5,8,400,,,
trial,html.Screen,4_84_0,2023-09-08T18:08:01.817Z,,0,2,,3242.800000011921,response,ISIC_0033472.JPG,6,ISIC_8649055.JPG,ISIC_8649055.JPG,false,0,keypress(z),500,1378797.599999994,1378797.300000012,1375537.802,1375545.5,1375554.5,1378801.791,8,400,35,,ISIC_0033472.JPG
break,html.Screen,4_84_1,2023-09-08T18:08:01.818Z,,0,,,NaN,,,,,,false,,,,1378798.199999988,1378798.099999994,,1378797.800000012,,1378801.791,8,400,,,
break_continue,html.Screen,4_84_2,2023-09-08T18:08:01.818Z,,0,,,NaN,,,,,,false,,,,1378798.599999994,1378798.599999994,,1378798.400000006,,1378801.791,8,400,,,
sequence,flow.Sequence,4_84,2023-09-08T18:08:01.818Z,,0,,,3244.0999999940395,completion,,,,,false,,,,1378798.699999988,1378798.599999994,1375537.802,1375545.5,1375554.5,1378801.791,8,400,,,
trial,html.Screen,4_85_0,2023-09-08T18:08:04.829Z,,0,2,,3007.5090000119526,response,ISIC_7764987.JPG,5,ISIC_0001104.JPG,ISIC_7764987.JPG,false,1,keypress(m),500,1381809.5,1381809.300000012,1378785.17,1378798.800000012,1378801.791,1381815.997,8,400,36,,ISIC_0001104.JPG
break,html.Screen,4_85_1,2023-09-08T18:08:04.830Z,,0,,,NaN,,,,,,false,,,,1381810.400000006,1381810.099999994,,1381809.699999988,,1381815.997,8,400,,,
break_continue,html.Screen,4_85_2,2023-09-08T18:08:04.830Z,,0,,,NaN,,,,,,false,,,,1381810.5,1381810.5,,1381810.400000006,,1381815.997,8,400,,,
sequence,flow.Sequence,4_85,2023-09-08T18:08:04.830Z,,0,,,3008.7090000000317,completion,,,,,false,,,,1381810.699999988,1381810.5,1378785.17,1378798.800000012,1378801.791,1381815.997,8,400,,,
trial,html.Screen,4_86_0,2023-09-08T18:08:08.496Z,,0,2,,3660.4030000059865,response,ISIC_0591011.JPG,5,ISIC_7670149.JPG,ISIC_0591011.JPG,false,1,keypress(m),500,1385476.699999988,1385476.400000006,1381799.365,1381810.699999988,1381815.997,1385496.342,8,400,37,,ISIC_7670149.JPG
break,html.Screen,4_86_1,2023-09-08T18:08:08.497Z,,0,,,NaN,,,,,,false,,,,1385477.300000012,1385477.099999994,,1385476.900000006,,1385496.342,8,400,,,
break_continue,html.Screen,4_86_2,2023-09-08T18:08:08.497Z,,0,,,NaN,,,,,,false,,,,1385477.699999988,1385477.599999994,,1385477.400000006,,1385496.342,8,400,,,
sequence,flow.Sequence,4_86,2023-09-08T18:08:08.498Z,,0,,,3661.6029999940656,completion,,,,,false,,,,1385477.800000012,1385477.599999994,1381799.365,1381810.699999988,1381815.997,1385496.342,8,400,,,
trial,html.Screen,4_87_0,2023-09-08T18:08:13.273Z,,0,2,,4756.958000011975,response,ISIC_7831274.JPG,5,ISIC_0065200.JPG,ISIC_7831274.JPG,false,1,keypress(m),500,1390253.5,1390253.300000012,1385479.65,1385477.900000006,1385496.342,1390259.042,8,400,38,,ISIC_0065200.JPG
break,html.Screen,4_87_1,2023-09-08T18:08:13.274Z,,0,,,NaN,,,,,,false,,,,1390254.099999994,1390253.900000006,,1390253.599999994,,1390259.042,8,400,,,
break_continue,html.Screen,4_87_2,2023-09-08T18:08:13.274Z,,0,,,NaN,,,,,,false,,,,1390254.300000012,1390254.199999988,,1390254.099999994,,1390259.042,8,400,,,
sequence,flow.Sequence,4_87,2023-09-08T18:08:13.274Z,,0,,,4757.857999988133,completion,,,,,false,,,,1390254.400000006,1390254.199999988,1385479.65,1385477.900000006,1385496.342,1390259.042,8,400,,,
trial,html.Screen,4_88_0,2023-09-08T18:08:17.405Z,,0,2,,4126.05799999414,response,ISIC_0029478.JPG,5,ISIC_2740756.JPG,ISIC_0029478.JPG,false,1,keypress(m),500,1394385.300000012,1394385.099999994,1390242.42,1390254.5,1390259.042,1394388.988,8,400,39,,ISIC_2740756.JPG
break,html.Screen,4_88_1,2023-09-08T18:08:17.406Z,,0,,,NaN,,,,,,false,,,,1394386.199999988,1394386,,1394385.5,,1394388.988,8,400,,,
break_continue,html.Screen,4_88_2,2023-09-08T18:08:17.406Z,,0,,,NaN,,,,,,false,,,,1394386.300000012,1394386.300000012,,1394386.199999988,,1394388.988,8,400,,,
sequence,flow.Sequence,4_88,2023-09-08T18:08:17.406Z,,0,,,4127.2580000120215,completion,,,,,false,,,,1394386.5,1394386.300000012,1390242.42,1390254.5,1390259.042,1394388.988,8,400,,,
trial,html.Screen,4_89_0,2023-09-08T18:08:20.737Z,,0,2,,3328.111999994144,response,ISIC_0026300.JPG,5,ISIC_6592334.JPG,ISIC_6592334.JPG,false,0,keypress(z),500,1397717.300000012,1397717.099999994,1394372.385,1394386.5,1394388.988,1397719.59,8,400,40,,ISIC_0026300.JPG
break,html.Screen,4_89_1,2023-09-08T18:08:20.738Z,,0,,,NaN,,,,,,false,,,,1397717.800000012,1397717.699999988,,1397717.300000012,,1397719.59,8,400,,,
break_continue,html.Screen,4_89_2,2023-09-08T18:08:20.738Z,,0,,,NaN,,,,,,false,,,,1397718.099999994,1397717.900000006,,1397717.800000012,,1397719.59,8,400,,,
sequence,flow.Sequence,4_89,2023-09-08T18:08:20.738Z,,0,,,3328.9120000060648,completion,,,,,false,,,,1397718.099999994,1397717.900000006,1394372.385,1394386.5,1394388.988,1397719.59,8,400,,,
trial,html.Screen,4_90_0,2023-09-08T18:08:27.224Z,,0,2,,6484.109999987995,response,ISIC_0071536.JPG,5,ISIC_6293107.JPG,ISIC_6293107.JPG,false,0,keypress(z),500,1404204,1404203.699999988,1397702.967,1397718.199999988,1397719.59,1404214.283,8,400,41,,ISIC_0071536.JPG
break,html.Screen,4_90_1,2023-09-08T18:08:27.225Z,,0,,,NaN,,,,,,false,,,,1404204.699999988,1404204.699999988,,1404204.099999994,,1404214.283,8,400,,,
break_continue,html.Screen,4_90_2,2023-09-08T18:08:27.225Z,,0,,,NaN,,,,,,false,,,,1404205,1404205,,1404204.800000012,,1404214.283,8,400,,,
sequence,flow.Sequence,4_90,2023-09-08T18:08:27.225Z,,0,,,6485.409999999916,completion,,,,,false,,,,1404205.099999994,1404205,1397702.967,1397718.199999988,1397719.59,1404214.283,8,400,,,
trial,html.Screen,4_91_0,2023-09-08T18:08:32.579Z,,0,2,,5345.017000011867,response,ISIC_0753112.JPG,6,ISIC_8362891.JPG,ISIC_0753112.JPG,false,1,keypress(m),500,1409559.5,1409559.300000012,1404197.745,1404205.099999994,1404214.283,1409576.565,8,400,42,,ISIC_8362891.JPG
break,html.Screen,4_91_1,2023-09-08T18:08:32.580Z,,0,,,NaN,,,,,,false,,,,1409560.099999994,1409560,,1409559.699999988,,1409576.565,8,400,,,
break_continue,html.Screen,4_91_2,2023-09-08T18:08:32.580Z,,0,,,NaN,,,,,,false,,,,1409560.400000006,1409560.300000012,,1409560.199999988,,1409576.565,8,400,,,
sequence,flow.Sequence,4_91,2023-09-08T18:08:32.580Z,,0,,,5346.017000011867,completion,,,,,false,,,,1409560.5,1409560.300000012,1404197.745,1404205.099999994,1404214.283,1409576.565,8,400,,,
trial,html.Screen,4_92_0,2023-09-08T18:08:35.767Z,,0,2,,3170.134999988135,response,ISIC_0010925.JPG,5,ISIC_4525317.JPG,ISIC_4525317.JPG,false,0,keypress(z),500,1412746.900000006,1412746.699999988,1409559.884,1409560.599999994,1409576.565,1412757.242,8,400,43,,ISIC_0010925.JPG
break,html.Screen,4_92_1,2023-09-08T18:08:35.768Z,,0,,,NaN,,,,,,false,,,,1412747.800000012,1412747.599999994,,1412747,,1412757.242,8,400,,,
break_continue,html.Screen,4_92_2,2023-09-08T18:08:35.768Z,,0,,,NaN,,,,,,false,,,,1412748,1412747.900000006,,1412747.900000006,,1412757.242,8,400,,,
sequence,flow.Sequence,4_92,2023-09-08T18:08:35.768Z,,0,,,3171.3350000060163,completion,,,,,false,,,,1412748.199999988,1412747.900000006,1409559.884,1409560.599999994,1409576.565,1412757.242,8,400,,,
trial,html.Screen,4_93_0,2023-09-08T18:08:39.086Z,,0,2,,3308.658000005875,response,ISIC_9626777.JPG,5,ISIC_3086579.JPG,ISIC_3086579.JPG,false,0,keypress(z),500,1416066,1416065.900000006,1412740.725,1412748.300000012,1412757.242,1416071.183,8,400,44,,ISIC_9626777.JPG
break,html.Screen,4_93_1,2023-09-08T18:08:39.086Z,,0,,,NaN,,,,,,false,,,,1416066.699999988,1416066.5,,1416066.199999988,,1416071.183,8,400,,,
break_continue,html.Screen,4_93_2,2023-09-08T18:08:39.087Z,,0,,,NaN,,,,,,false,,,,1416066.900000006,1416066.800000012,,1416066.699999988,,1416071.183,8,400,,,
sequence,flow.Sequence,4_93,2023-09-08T18:08:39.087Z,,0,,,3309.5580000118352,completion,,,,,false,,,,1416067,1416066.800000012,1412740.725,1412748.300000012,1412757.242,1416071.183,8,400,,,
trial,html.Screen,4_94_0,2023-09-08T18:08:43.762Z,,0,2,,4671.016999988118,response,ISIC_0072335.JPG,6,ISIC_0069475.JPG,ISIC_0072335.JPG,false,1,keypress(m),500,1420742.400000006,1420742.199999988,1416054.584,1416067.099999994,1416071.183,1420750.772,8,400,45,,ISIC_0069475.JPG
break,html.Screen,4_94_1,2023-09-08T18:08:43.763Z,,0,,,NaN,,,,,,false,,,,1420742.900000006,1420742.699999988,,1420742.400000006,,1420750.772,8,400,,,
break_continue,html.Screen,4_94_2,2023-09-08T18:08:43.763Z,,0,,,NaN,,,,,,false,,,,1420743.099999994,1420743.099999994,,1420743,,1420750.772,8,400,,,
sequence,flow.Sequence,4_94,2023-09-08T18:08:43.763Z,,0,,,4671.916999994079,completion,,,,,false,,,,1420743.199999988,1420743.099999994,1416054.584,1416067.099999994,1416071.183,1420750.772,8,400,,,
trial,html.Screen,4_95_0,2023-09-08T18:08:49.613Z,,0,2,,5841.727999999886,response,ISIC_0064941.JPG,5,ISIC_0033886.JPG,ISIC_0064941.JPG,false,1,keypress(m),500,1426592.699999988,1426592.5,1420734.185,1420743.199999988,1420750.772,1426595.875,8,400,46,,ISIC_0033886.JPG
break,html.Screen,4_95_1,2023-09-08T18:08:49.613Z,,0,,,NaN,,,,,,false,,,,1426593.5,1426593.300000012,,1426592.900000006,,1426595.875,8,400,,,
break_continue,html.Screen,4_95_2,2023-09-08T18:08:49.614Z,,0,,,NaN,,,,,,false,,,,1426594.199999988,1426593.599999994,,1426593.599999994,,1426595.875,8,400,,,
sequence,flow.Sequence,4_95,2023-09-08T18:08:49.614Z,,0,,,5842.827999993926,completion,,,,,false,,,,1426594.400000006,1426593.599999994,1420734.185,1420743.199999988,1420750.772,1426595.875,8,400,,,
trial,html.Screen,4_96_0,2023-09-08T18:08:52.596Z,,0,2,,2979.5250000059605,response,ISIC_9322551.JPG,6,ISIC_0071559.JPG,ISIC_9322551.JPG,false,1,keypress(m),500,1429575.699999988,1429575.400000006,1426579.236,1426594.5,1426595.875,1429594.707,8,400,47,,ISIC_0071559.JPG
break,html.Screen,4_96_1,2023-09-08T18:08:52.596Z,,0,,,NaN,,,,,,false,,,,1429576.599999994,1429576.300000012,,1429575.900000006,,1429594.707,8,400,,,
break_continue,html.Screen,4_96_2,2023-09-08T18:08:52.597Z,,0,,,NaN,,,,,,false,,,,1429577.099999994,1429577,,1429576.800000012,,1429594.707,8,400,,,
sequence,flow.Sequence,4_96,2023-09-08T18:08:52.597Z,,0,,,2981.125,completion,,,,,false,,,,1429577.199999988,1429577,1426579.236,1426594.400000006,1426595.875,1429594.707,8,400,,,
trial,html.Screen,4_97_0,2023-09-08T18:08:56.511Z,,0,2,,3896.2930000000633,response,ISIC_0060817.JPG,6,ISIC_4448959.JPG,ISIC_4448959.JPG,false,0,keypress(z),500,1433491.300000012,1433491,1429560.105,1429577.300000012,1429594.707,1433506.967,8,400,48,,ISIC_0060817.JPG
break,html.Screen,4_97_1,2023-09-08T18:08:56.512Z,,0,,,NaN,,,,,,false,,,,1433491.900000006,1433491.699999988,,1433491.5,,1433506.967,8,400,,,
break_continue,html.Screen,4_97_2,2023-09-08T18:08:56.512Z,,0,,,NaN,,,,,,false,,,,1433492.099999994,1433492.099999994,,1433492,,1433506.967,8,400,,,
sequence,flow.Sequence,4_97,2023-09-08T18:08:56.512Z,,0,,,3897.392999994103,completion,,,,,false,,,,1433492.300000012,1433492.099999994,1429560.105,1429577.199999988,1429594.707,1433506.967,8,400,,,
trial,html.Screen,4_98_0,2023-09-08T18:08:59.491Z,,0,2,,2963.833000011975,response,ISIC_0010262.JPG,4,ISIC_0031744.JPG,ISIC_0010262.JPG,false,1,keypress(m),500,1436471,1436470.800000012,1433490.221,1433492.300000012,1433506.967,1436487.802,8,400,49,,ISIC_0031744.JPG
break,html.Screen,4_98_1,2023-09-08T18:08:59.492Z,,0,,,NaN,,,,,,false,,,,1436471.699999988,1436471.599999994,,1436471.300000012,,1436487.802,8,400,,,
break_continue,html.Screen,4_98_2,2023-09-08T18:08:59.492Z,,0,,,NaN,,,,,,false,,,,1436472.099999994,1436472,,1436471.800000012,,1436487.802,8,400,,,
sequence,flow.Sequence,4_98,2023-09-08T18:08:59.492Z,,0,,,2965.033000000054,completion,,,,,false,,,,1436472.300000012,1436472,1433490.221,1433492.300000012,1433506.967,1436487.802,8,400,,,
trial,html.Screen,4_99_0,2023-09-08T18:09:03.933Z,,0,2,,4424.797999994131,response,ISIC_0588855.JPG,6,ISIC_0011422.JPG,ISIC_0588855.JPG,false,1,keypress(m),500,1440912.900000006,1440912.599999994,1436471.192,1436472.400000006,1436487.802,1440917.679,8,400,50,,ISIC_0011422.JPG
break,html.Screen,4_99_1,2023-09-08T18:09:13.915Z,,0,,,9991.821999999927,timeout,,,,,false,,,,1450895,1450893.164,1440901.139,1440913.099999994,1440917.679,1450909.501,8,400,,,
break_continue,html.Screen,4_99_2,2023-09-08T18:09:14.673Z,,0,,,724.698999988148,response,,,,,false,continue,keypress(Space),,1451653.599999994,1451634.199999988,1450893.164,1450895.300000012,1450909.501,1451658.635,8,400,,,
sequence,flow.Sequence,4_99,2023-09-08T18:09:14.674Z,,0,,,15146.39799998817,completion,,,,,false,,,,1451653.699999988,1451634.199999988,1436471.192,1436472.300000012,1436487.802,1451658.635,8,400,,,
trial,html.Screen,4_100_0,2023-09-08T18:09:17.942Z,,0,3,,3263.3649999999907,response,ISIC_8481979.JPG,5,ISIC_4699989.JPG,ISIC_8481979.JPG,false,1,keypress(m),500,1454922.400000006,1454922,1451642.314,1451653.800000012,1451658.635,1454939.395,8,400,1,,ISIC_4699989.JPG
break,html.Screen,4_100_1,2023-09-08T18:09:17.944Z,,0,,,NaN,,,,,,false,,,,1454924.300000012,1454923.900000006,,1454922.599999994,,1454939.395,8,400,,,
break_continue,html.Screen,4_100_2,2023-09-08T18:09:17.945Z,,0,,,NaN,,,,,,false,,,,1454924.800000012,1454924.699999988,,1454924.5,,1454939.395,8,400,,,
sequence,flow.Sequence,4_100,2023-09-08T18:09:17.945Z,,0,,,3266.0649999880698,completion,,,,,false,,,,1454925,1454924.699999988,1451642.314,1451653.800000012,1451658.635,1454939.395,8,400,,,
trial,html.Screen,4_101_0,2023-09-08T18:09:21.989Z,,0,3,,4029.3049999880604,response,ISIC_0097500.JPG,5,ISIC_0065121.JPG,ISIC_0097500.JPG,false,1,keypress(m),500,1458969.099999994,1458968.699999988,1454922.892,1454925.199999988,1454939.395,1458985.957,8,400,2,,ISIC_0065121.JPG
break,html.Screen,4_101_1,2023-09-08T18:09:21.991Z,,0,,,NaN,,,,,,false,,,,1458971.300000012,1458970.800000012,,1458969.599999994,,1458985.957,8,400,,,
break_continue,html.Screen,4_101_2,2023-09-08T18:09:21.992Z,,0,,,NaN,,,,,,false,,,,1458972,1458971.800000012,,1458971.5,,1458985.957,8,400,,,
sequence,flow.Sequence,4_101,2023-09-08T18:09:21.992Z,,0,,,4032.4050000119023,completion,,,,,false,,,,1458972.300000012,1458971.800000012,1454922.892,1454925.099999994,1454939.395,1458985.957,8,400,,,
trial,html.Screen,4_102_0,2023-09-08T18:09:26.988Z,,0,3,,4981.543000000063,response,ISIC_6427157.JPG,6,ISIC_2808323.JPG,ISIC_6427157.JPG,false,1,keypress(m),500,1463968,1463967.5,1458969.565,1458972.400000006,1458985.957,1463981.905,8,400,3,,ISIC_2808323.JPG
break,html.Screen,4_102_1,2023-09-08T18:09:26.990Z,,0,,,NaN,,,,,,false,,,,1463970.199999988,1463969.800000012,,1463968.400000006,,1463981.905,8,400,,,
break_continue,html.Screen,4_102_2,2023-09-08T18:09:26.991Z,,0,,,NaN,,,,,,false,,,,1463970.900000006,1463970.699999988,,1463970.5,,1463981.905,8,400,,,
sequence,flow.Sequence,4_102,2023-09-08T18:09:26.991Z,,0,,,4984.742999988142,completion,,,,,false,,,,1463971.599999994,1463970.699999988,1458969.565,1458972.400000006,1458985.957,1463981.905,8,400,,,
trial,html.Screen,4_103_0,2023-09-08T18:09:30.227Z,,0,3,,3224.895000011893,response,ISIC_3236964.JPG,4,ISIC_0011086.JPG,ISIC_3236964.JPG,false,1,keypress(m),500,1467207.099999994,1467206.800000012,1463965.52,1463971.699999988,1463981.905,1467212.56,8,400,4,,ISIC_0011086.JPG
break,html.Screen,4_103_1,2023-09-08T18:09:30.228Z,,0,,,NaN,,,,,,false,,,,1467208.400000006,1467208.099999994,,1467207.300000012,,1467212.56,8,400,,,
break_continue,html.Screen,4_103_2,2023-09-08T18:09:30.229Z,,0,,,NaN,,,,,,false,,,,1467208.800000012,1467208.699999988,,1467208.5,,1467212.56,8,400,,,
sequence,flow.Sequence,4_103,2023-09-08T18:09:30.229Z,,0,,,3226.794999988051,completion,,,,,false,,,,1467209,1467208.699999988,1463965.52,1463971.599999994,1463981.905,1467212.56,8,400,,,
trial,html.Screen,4_104_0,2023-09-08T18:09:33.224Z,,0,3,,2991.0399999939837,response,ISIC_0029905.JPG,4,ISIC_2957732.JPG,ISIC_2957732.JPG,false,0,keypress(z),500,1470204,1470203.599999994,1467196.207,1467209,1467212.56,1470210.073,8,400,5,,ISIC_0029905.JPG
break,html.Screen,4_104_1,2023-09-08T18:09:33.225Z,,0,,,NaN,,,,,,false,,,,1470205.300000012,1470204.900000006,,1470204.199999988,,1470210.073,8,400,,,
break_continue,html.Screen,4_104_2,2023-09-08T18:09:33.226Z,,0,,,NaN,,,,,,false,,,,1470205.900000006,1470205.699999988,,1470205.5,,1470210.073,8,400,,,
sequence,flow.Sequence,4_104,2023-09-08T18:09:33.226Z,,0,,,2993.139999988023,completion,,,,,false,,,,1470206,1470205.699999988,1467196.207,1467209,1467212.56,1470210.073,8,400,,,
trial,html.Screen,4_105_0,2023-09-08T18:09:37.298Z,,0,3,,4067.327000005869,response,ISIC_3222447.JPG,5,ISIC_7912104.JPG,ISIC_3222447.JPG,false,1,keypress(m),500,1474277.699999988,1474277.400000006,1470193.746,1470206.199999988,1470210.073,1474290.059,8,400,6,,ISIC_7912104.JPG
break,html.Screen,4_105_1,2023-09-08T18:09:37.299Z,,0,,,NaN,,,,,,false,,,,1474279.300000012,1474278.800000012,,1474278,,1474290.059,8,400,,,
break_continue,html.Screen,4_105_2,2023-09-08T18:09:37.300Z,,0,,,NaN,,,,,,false,,,,1474279.699999988,1474279.699999988,,1474279.5,,1474290.059,8,400,,,
sequence,flow.Sequence,4_105,2023-09-08T18:09:37.300Z,,0,,,4069.626999987988,completion,,,,,false,,,,1474279.900000006,1474279.699999988,1470193.746,1470206.099999994,1470210.073,1474290.059,8,400,,,
trial,html.Screen,4_106_0,2023-09-08T18:09:42.263Z,,0,3,,4952.540999994148,response,ISIC_0064557.JPG,4,ISIC_0058926.JPG,ISIC_0064557.JPG,false,1,keypress(m),500,1479243,1479242.599999994,1474273.585,1474280,1474290.059,1479252.806,8,400,7,,ISIC_0058926.JPG
break,html.Screen,4_106_1,2023-09-08T18:09:42.265Z,,0,,,NaN,,,,,,false,,,,1479244.900000006,1479244.5,,1479243.400000006,,1479252.806,8,400,,,
break_continue,html.Screen,4_106_2,2023-09-08T18:09:42.265Z,,0,,,NaN,,,,,,false,,,,1479245.5,1479245.400000006,,1479245.199999988,,1479252.806,8,400,,,
sequence,flow.Sequence,4_106,2023-09-08T18:09:42.266Z,,0,,,4955.3410000060685,completion,,,,,false,,,,1479245.900000006,1479245.400000006,1474273.585,1474280,1474290.059,1479252.806,8,400,,,
trial,html.Screen,4_107_0,2023-09-08T18:09:45.407Z,,0,3,,3133.793999993941,response,ISIC_0060832.JPG,5,ISIC_1020968.JPG,ISIC_1020968.JPG,false,0,keypress(z),500,1482387,1482386.599999994,1479236.366,1479246,1479252.806,1482400.08,8,400,8,,ISIC_0060832.JPG
break,html.Screen,4_107_1,2023-09-08T18:09:45.409Z,,0,,,NaN,,,,,,false,,,,1482389.099999994,1482388.599999994,,1482387.5,,1482400.08,8,400,,,
break_continue,html.Screen,4_107_2,2023-09-08T18:09:45.409Z,,0,,,NaN,,,,,,false,,,,1482389.599999994,1482389.400000006,,1482389.300000012,,1482400.08,8,400,,,
sequence,flow.Sequence,4_107,2023-09-08T18:09:45.410Z,,0,,,3136.5940000058617,completion,,,,,false,,,,1482389.800000012,1482389.400000006,1479236.366,1479245.900000006,1479252.806,1482400.08,8,400,,,
trial,html.Screen,4_108_0,2023-09-08T18:09:48.892Z,,0,3,,3471.519999993965,response,ISIC_0006116.JPG,5,ISIC_0257447.JPG,ISIC_0006116.JPG,false,1,keypress(m),500,1485871.800000012,1485871.599999994,1482383.732,1482389.900000006,1482400.08,1485880.553,8,400,9,,ISIC_0257447.JPG
break,html.Screen,4_108_1,2023-09-08T18:09:48.893Z,,0,,,NaN,,,,,,false,,,,1485872.900000006,1485872.599999994,,1485872.099999994,,1485880.553,8,400,,,
break_continue,html.Screen,4_108_2,2023-09-08T18:09:48.893Z,,0,,,NaN,,,,,,false,,,,1485873.199999988,1485873.199999988,,1485873,,1485880.553,8,400,,,
sequence,flow.Sequence,4_108,2023-09-08T18:09:48.893Z,,0,,,3473.1199999880046,completion,,,,,false,,,,1485873.300000012,1485873.199999988,1482383.732,1482389.900000006,1482400.08,1485880.553,8,400,,,
trial,html.Screen,4_109_0,2023-09-08T18:09:54.256Z,,0,3,,5355.347000005888,response,ISIC_0032626.JPG,5,ISIC_1945381.JPG,ISIC_1945381.JPG,false,0,keypress(z),500,1491236.199999988,1491235.900000006,1485864.191,1485873.400000006,1485880.553,1491242.8,8,400,10,,ISIC_0032626.JPG
break,html.Screen,4_109_1,2023-09-08T18:09:54.257Z,,0,,,NaN,,,,,,false,,,,1491237.5,1491237.199999988,,1491236.400000006,,1491242.8,8,400,,,
break_continue,html.Screen,4_109_2,2023-09-08T18:09:54.258Z,,0,,,NaN,,,,,,false,,,,1491238,1491237.900000006,,1491237.699999988,,1491242.8,8,400,,,
sequence,flow.Sequence,4_109,2023-09-08T18:09:54.258Z,,0,,,5357.347000005888,completion,,,,,false,,,,1491238.099999994,1491237.900000006,1485864.191,1485873.400000006,1485880.553,1491242.8,8,400,,,
trial,html.Screen,4_110_0,2023-09-08T18:10:00.360Z,,0,3,,6096.8999999880325,response,ISIC_7462953.JPG,5,ISIC_0010385.JPG,ISIC_7462953.JPG,false,1,keypress(m),500,1497340,1497339.699999988,1491226.393,1491238.300000012,1491242.8,1497354.9,8,400,11,,ISIC_0010385.JPG
break,html.Screen,4_110_1,2023-09-08T18:10:00.361Z,,0,,,NaN,,,,,,false,,,,1497341.099999994,1497340.800000012,,1497340.199999988,,1497354.9,8,400,,,
break_continue,html.Screen,4_110_2,2023-09-08T18:10:00.361Z,,0,,,NaN,,,,,,false,,,,1497341.599999994,1497341.400000006,,1497341.300000012,,1497354.9,8,400,,,
sequence,flow.Sequence,4_110,2023-09-08T18:10:00.361Z,,0,,,6098.600000005914,completion,,,,,false,,,,1497341.699999988,1497341.400000006,1491226.393,1491238.199999988,1491242.8,1497354.9,8,400,,,
trial,html.Screen,4_111_0,2023-09-08T18:10:05.197Z,,0,3,,4821.600000000093,response,ISIC_6688417.JPG,6,ISIC_9876004.JPG,ISIC_6688417.JPG,false,1,keypress(m),500,1502176.900000006,1502176.5,1497338.027,1497341.800000012,1497354.9,1502183.806,8,400,12,,ISIC_9876004.JPG
break,html.Screen,4_111_1,2023-09-08T18:10:05.198Z,,0,,,NaN,,,,,,false,,,,1502178.300000012,1502177.900000006,,1502177.099999994,,1502183.806,8,400,,,
break_continue,html.Screen,4_111_2,2023-09-08T18:10:05.199Z,,0,,,NaN,,,,,,false,,,,1502178.699999988,1502178.699999988,,1502178.400000006,,1502183.806,8,400,,,
sequence,flow.Sequence,4_111,2023-09-08T18:10:05.199Z,,0,,,4823.799999988172,completion,,,,,false,,,,1502178.900000006,1502178.699999988,1497338.027,1497341.699999988,1497354.9,1502183.806,8,400,,,
trial,html.Screen,4_112_0,2023-09-08T18:10:09.301Z,,0,3,,4097.293999993941,response,ISIC_0028878.JPG,5,ISIC_5762714.JPG,ISIC_0028878.JPG,false,1,keypress(m),500,1506281.5,1506281.099999994,1502167.355,1502179,1502183.806,1506297.221,8,400,13,,ISIC_5762714.JPG
break,html.Screen,4_112_1,2023-09-08T18:10:09.303Z,,0,,,NaN,,,,,,false,,,,1506283,1506282.599999994,,1506281.800000012,,1506297.221,8,400,,,
break_continue,html.Screen,4_112_2,2023-09-08T18:10:09.303Z,,0,,,NaN,,,,,,false,,,,1506283.400000006,1506283.300000012,,1506283.199999988,,1506297.221,8,400,,,
sequence,flow.Sequence,4_112,2023-09-08T18:10:09.303Z,,0,,,4099.494000011822,completion,,,,,false,,,,1506283.599999994,1506283.300000012,1502167.355,1502179,1502183.806,1506297.221,8,400,,,
trial,html.Screen,4_113_0,2023-09-08T18:10:15.586Z,,0,3,,6268.679000006057,response,ISIC_0016043.JPG,7,ISIC_0064821.JPG,ISIC_0016043.JPG,false,1,keypress(m),500,1512566.199999988,1512565.900000006,1506280.677,1506283.699999988,1506297.221,1512575.33,8,400,14,,ISIC_0064821.JPG
break,html.Screen,4_113_1,2023-09-08T18:10:15.587Z,,0,,,NaN,,,,,,false,,,,1512567.699999988,1512567.300000012,,1512566.599999994,,1512575.33,8,400,,,
break_continue,html.Screen,4_113_2,2023-09-08T18:10:15.588Z,,0,,,NaN,,,,,,false,,,,1512568.099999994,1512568,,1512567.800000012,,1512575.33,8,400,,,
sequence,flow.Sequence,4_113,2023-09-08T18:10:15.588Z,,0,,,6270.779000000097,completion,,,,,false,,,,1512568.300000012,1512568,1506280.677,1506283.599999994,1506297.221,1512575.33,8,400,,,
trial,html.Screen,4_114_0,2023-09-08T18:10:18.847Z,,0,3,,3251.1699999999255,response,ISIC_0065013.JPG,11,ISIC_5785408.JPG,ISIC_5785408.JPG,false,0,keypress(z),500,1515826.800000012,1515826.5,1512558.679,1512568.400000006,1512575.33,1515839.735,8,400,15,,ISIC_0065013.JPG
break,html.Screen,4_114_1,2023-09-08T18:10:18.848Z,,0,,,NaN,,,,,,false,,,,1515828,1515827.800000012,,1515827,,1515839.735,8,400,,,
break_continue,html.Screen,4_114_2,2023-09-08T18:10:18.848Z,,0,,,NaN,,,,,,false,,,,1515828.400000006,1515828.199999988,,1515828.099999994,,1515839.735,8,400,,,
sequence,flow.Sequence,4_114,2023-09-08T18:10:18.848Z,,0,,,3252.8699999880046,completion,,,,,false,,,,1515828.5,1515828.199999988,1512558.679,1512568.300000012,1512575.33,1515839.735,8,400,,,
trial,html.Screen,4_115_0,2023-09-08T18:10:22.108Z,,0,3,,3248.364999993937,response,ISIC_0028878.JPG,12,ISIC_2826618.JPG,ISIC_2826618.JPG,false,0,keypress(z),500,1519088.5,1519088.099999994,1515822.998,1515828.599999994,1515839.735,1519103.718,8,400,16,,ISIC_0028878.JPG
break,html.Screen,4_115_1,2023-09-08T18:10:22.110Z,,0,,,NaN,,,,,,false,,,,1519089.800000012,1519089.599999994,,1519088.900000006,,1519103.718,8,400,,,
break_continue,html.Screen,4_115_2,2023-09-08T18:10:22.110Z,,0,,,NaN,,,,,,false,,,,1519090.199999988,1519090.099999994,,1519090,,1519103.718,8,400,,,
sequence,flow.Sequence,4_115,2023-09-08T18:10:22.110Z,,0,,,3250.364999993937,completion,,,,,false,,,,1519090.300000012,1519090.099999994,1515822.998,1515828.599999994,1515839.735,1519103.718,8,400,,,
trial,html.Screen,4_116_0,2023-09-08T18:10:25.909Z,,0,3,,3785.582000011811,response,ISIC_0072382.JPG,7,ISIC_0057753.JPG,ISIC_0057753.JPG,false,0,keypress(z),500,1522889.5,1522889.300000012,1519087.295,1519090.400000006,1519103.718,1522900.137,8,400,17,,ISIC_0072382.JPG
break,html.Screen,4_116_1,2023-09-08T18:10:25.911Z,,0,,,NaN,,,,,,false,,,,1522890.699999988,1522890.400000006,,1522889.800000012,,1522900.137,8,400,,,
break_continue,html.Screen,4_116_2,2023-09-08T18:10:25.911Z,,0,,,NaN,,,,,,false,,,,1522891.099999994,1522891,,1522890.900000006,,1522900.137,8,400,,,
sequence,flow.Sequence,4_116,2023-09-08T18:10:25.911Z,,0,,,3787.28199999989,completion,,,,,false,,,,1522891.199999988,1522891,1519087.295,1519090.400000006,1519103.718,1522900.137,8,400,,,
trial,html.Screen,4_117_0,2023-09-08T18:10:28.837Z,,0,3,,2916.5629999879748,response,ISIC_6517082.JPG,5,ISIC_2847555.JPG,ISIC_2847555.JPG,false,0,keypress(z),500,1525816.900000006,1525816.699999988,1522884.181,1522891.300000012,1522900.137,1525847.912,8,400,18,,ISIC_6517082.JPG
break,html.Screen,4_117_1,2023-09-08T18:10:28.838Z,,0,,,NaN,,,,,,false,,,,1525817.800000012,1525817.599999994,,1525817.099999994,,1525847.912,8,400,,,
break_continue,html.Screen,4_117_2,2023-09-08T18:10:28.838Z,,0,,,NaN,,,,,,false,,,,1525818.199999988,1525818,,1525817.900000006,,1525847.912,8,400,,,
sequence,flow.Sequence,4_117,2023-09-08T18:10:28.838Z,,0,,,2917.8629999998957,completion,,,,,false,,,,1525818.300000012,1525818,1522884.181,1522891.300000012,1522900.137,1525847.912,8,400,,,
trial,html.Screen,4_118_0,2023-09-08T18:10:32.017Z,,0,3,,3148.8880000119098,response,ISIC_0011196.JPG,11,ISIC_0033981.JPG,ISIC_0011196.JPG,false,1,keypress(m),500,1528997.099999994,1528996.800000012,1525831.773,1525818.300000012,1525847.912,1529028.897,8,400,19,,ISIC_0033981.JPG
break,html.Screen,4_118_1,2023-09-08T18:10:32.018Z,,0,,,NaN,,,,,,false,,,,1528998,1528997.800000012,,1528997.300000012,,1529028.897,8,400,,,
break_continue,html.Screen,4_118_2,2023-09-08T18:10:32.018Z,,0,,,NaN,,,,,,false,,,,1528998.400000006,1528998.300000012,,1528998.199999988,,1529028.897,8,400,,,
sequence,flow.Sequence,4_118,2023-09-08T18:10:32.018Z,,0,,,3150.3880000119098,completion,,,,,false,,,,1528998.599999994,1528998.300000012,1525831.773,1525818.300000012,1525847.912,1529028.897,8,400,,,
trial,html.Screen,4_119_0,2023-09-08T18:10:34.984Z,,0,3,,2934.503000005847,response,ISIC_0010207.JPG,9,ISIC_3564136.JPG,ISIC_3564136.JPG,false,0,keypress(z),500,1531963.900000006,1531963.400000006,1529012.489,1528998.699999988,1529028.897,1531976.125,8,400,20,,ISIC_0010207.JPG
break,html.Screen,4_119_1,2023-09-08T18:10:34.985Z,,0,,,NaN,,,,,,false,,,,1531965.599999994,1531965.300000012,,1531964.199999988,,1531976.125,8,400,,,
break_continue,html.Screen,4_119_2,2023-09-08T18:10:34.986Z,,0,,,NaN,,,,,,false,,,,1531966.099999994,1531966,,1531965.800000012,,1531976.125,8,400,,,
sequence,flow.Sequence,4_119,2023-09-08T18:10:34.986Z,,0,,,2937.1029999998864,completion,,,,,false,,,,1531966.300000012,1531966,1529012.489,1528998.599999994,1529028.897,1531976.125,8,400,,,
trial,html.Screen,4_120_0,2023-09-08T18:10:38.600Z,,0,3,,3603.2750000059605,response,ISIC_6377622.JPG,6,ISIC_0010527.JPG,ISIC_6377622.JPG,false,1,keypress(m),500,1535579.699999988,1535579.400000006,1531959.475,1531966.5,1531976.125,1535589.722,8,400,21,,ISIC_0010527.JPG
break,html.Screen,4_120_1,2023-09-08T18:10:38.601Z,,0,,,NaN,,,,,,false,,,,1535581,1535580.800000012,,1535580,,1535589.722,8,400,,,
break_continue,html.Screen,4_120_2,2023-09-08T18:10:38.601Z,,0,,,NaN,,,,,,false,,,,1535581.400000006,1535581.199999988,,1535581.099999994,,1535589.722,8,400,,,
sequence,flow.Sequence,4_120,2023-09-08T18:10:38.601Z,,0,,,3605.074999988079,completion,,,,,false,,,,1535581.5,1535581.199999988,1531959.475,1531966.400000006,1531976.125,1535589.722,8,400,,,
trial,html.Screen,4_121_0,2023-09-08T18:10:42.254Z,,0,3,,3643.977999988012,response,ISIC_0031914.JPG,6,ISIC_0979974.JPG,ISIC_0031914.JPG,false,1,keypress(m),500,1539234,1539233.699999988,1535573.73,1535581.599999994,1535589.722,1539236.76,8,400,22,,ISIC_0979974.JPG
break,html.Screen,4_121_1,2023-09-08T18:10:42.256Z,,0,,,NaN,,,,,,false,,,,1539235.900000006,1539235.400000006,,1539234.5,,1539236.76,8,400,,,
break_continue,html.Screen,4_121_2,2023-09-08T18:10:42.256Z,,0,,,NaN,,,,,,false,,,,1539236.300000012,1539236.199999988,,1539236,,1539236.76,8,400,,,
sequence,flow.Sequence,4_121,2023-09-08T18:10:42.256Z,,0,,,3646.477999988012,completion,,,,,false,,,,1539236.5,1539236.199999988,1535573.73,1535581.599999994,1535589.722,1539236.76,8,400,,,
trial,html.Screen,4_122_0,2023-09-08T18:10:46.086Z,,0,3,,3828.640000005951,response,ISIC_3365692.JPG,8,ISIC_0032717.JPG,ISIC_3365692.JPG,false,1,keypress(m),500,1543065.599999994,1543065.400000006,1539220.78,1539236.599999994,1539236.76,1543089.226,8,400,23,,ISIC_0032717.JPG
break,html.Screen,4_122_1,2023-09-08T18:10:46.087Z,,0,,,NaN,,,,,,false,,,,1543066.800000012,1543066.599999994,,1543065.900000006,,1543089.226,8,400,,,
break_continue,html.Screen,4_122_2,2023-09-08T18:10:46.087Z,,0,,,NaN,,,,,,false,,,,1543067.199999988,1543067.099999994,,1543067,,1543089.226,8,400,,,
sequence,flow.Sequence,4_122,2023-09-08T18:10:46.087Z,,0,,,3830.33999999403,completion,,,,,false,,,,1543067.300000012,1543067.099999994,1539220.78,1539236.5,1539236.76,1543089.226,8,400,,,
trial,html.Screen,4_123_0,2023-09-08T18:10:49.169Z,,0,3,,3060.1740000059363,response,ISIC_7501061.JPG,8,ISIC_7059794.JPG,ISIC_7059794.JPG,false,0,keypress(z),500,1546149.599999994,1546149.400000006,1543050.963,1543067.5,1543089.226,1546164.374,8,400,24,,ISIC_7501061.JPG
break,html.Screen,4_123_1,2023-09-08T18:10:49.171Z,,0,,,NaN,,,,,,false,,,,1546150.800000012,1546150.599999994,,1546149.800000012,,1546164.374,8,400,,,
break_continue,html.Screen,4_123_2,2023-09-08T18:10:49.171Z,,0,,,NaN,,,,,,false,,,,1546151.099999994,1546151.099999994,,1546150.900000006,,1546164.374,8,400,,,
sequence,flow.Sequence,4_123,2023-09-08T18:10:49.171Z,,0,,,3061.8739999940153,completion,,,,,false,,,,1546151.300000012,1546151.099999994,1543050.963,1543067.5,1543089.226,1546164.374,8,400,,,
trial,html.Screen,4_124_0,2023-09-08T18:10:52.159Z,,0,3,,2974.2259999939706,response,ISIC_8838753.JPG,6,ISIC_0011779.JPG,ISIC_0011779.JPG,false,0,keypress(z),500,1549139,1549138.599999994,1546148.204,1546151.300000012,1546164.374,1549162.182,8,400,25,,ISIC_8838753.JPG
break,html.Screen,4_124_1,2023-09-08T18:10:52.160Z,,0,,,NaN,,,,,,false,,,,1549140.199999988,1549139.800000012,,1549139.300000012,,1549162.182,8,400,,,
break_continue,html.Screen,4_124_2,2023-09-08T18:10:52.161Z,,0,,,NaN,,,,,,false,,,,1549140.699999988,1549140.5,,1549140.300000012,,1549162.182,8,400,,,
sequence,flow.Sequence,4_124,2023-09-08T18:10:52.161Z,,0,,,2976.125999999931,completion,,,,,false,,,,1549141,1549140.5,1546148.204,1546151.300000012,1546164.374,1549162.182,8,400,,,
