sender,sender_type,sender_id,timestamp,meta,,blockNo,condition,duration,ended_on,img_left,img_reveal,img_right,loser,practice,response,response_action,selection_duration,time_commit,time_end,time_render,time_run,time_show,time_switch,total_blocks,total_trials,trialNo,url,winner
informed_consent,html.Screen,0,2023-08-21T17:38:33.572Z,"{""labjs_version"":""20.2.4"",""labjs_build"":{""flavor"":""development"",""commit"":""f5b4a49f956347addd546a832a3327688c2c0fef""},""location"":""https://labjs.felixhenninger.com/api/labjs_preview/index.html"",""userAgent"":""Mozilla/5.0 (Windows NT 10.0; Win64; x64) AppleWebKit/537.36 (KHTML, like Gecko) Chrome/115.0.0.0 Safari/537.36 Edg/115.0.1901.203"",""platform"":""Win32"",""language"":""en"",""locale"":""en-US"",""timeZone"":""America/Chicago"",""timezoneOffset"":300,""screen_width"":2560,""screen_height"":1440,""scroll_width"":854,""scroll_height"":969,""window_innerWidth"":854,""window_innerHeight"":1017,""devicePixelRatio"":1}",,,,1682.2559999999999,response,,,,,,consent,click button,,2274.699999988079,2273.5,574.552,582.1000000238419,591.244,2277.902,,,,{},
Welcome,html.Screen,1,2023-08-21T17:38:42.944Z,,,,regular,9367.598,response,,,,,,continue,click button,,11646.199999988079,11645.5,2261.347,2274.899999976158,2277.902,11662.813,,,,,
trial,html.Screen,2_0_0,2023-08-21T17:38:52.510Z,,0,0,,9549.787000023842,response,ISIC_0061792.JPG,,ISIC_4679428.JPG,ISIC_0061792.JPG,true,1,keypress(m),500,21212.899999976158,21212.600000023842,11646.145,11646.300000011921,11662.813,21232.737,1,6,1,,ISIC_4679428.JPG
sequence,flow.Sequence,2_0,2023-08-21T17:38:52.511Z,,0,,,9549.787000023842,completion,,,,,true,,,,21213.30000001192,21212.600000023842,11646.145,11646.300000011921,11662.813,21232.737,1,6,,,
trial,html.Screen,2_1_0,2023-08-21T17:38:58.541Z,,0,0,,6009.262999999999,response,ISIC_0776486.JPG,,ISIC_5199497.JPG,ISIC_0776486.JPG,true,1,keypress(m),500,27242.30000001192,27242,21198.309,21213.5,21232.737,27259.914,1,6,2,,ISIC_5199497.JPG
sequence,flow.Sequence,2_1,2023-08-21T17:38:58.541Z,,0,,,6009.262999999999,completion,,,,,true,,,,27242.80000001192,27242,21198.309,21213.399999976158,21232.737,27259.914,1,6,,,
trial,html.Screen,2_2_0,2023-08-21T17:39:01.801Z,,0,0,,3242.186000023841,response,ISIC_2556187.JPG,,ISIC_8575776.JPG,ISIC_2556187.JPG,true,1,keypress(m),500,30502.80000001192,30502.100000023842,27243.274,27243.19999998808,27259.914,30516.352,1,6,3,,ISIC_8575776.JPG
sequence,flow.Sequence,2_2,2023-08-21T17:39:01.802Z,,0,,,3242.186000023841,completion,,,,,true,,,,30503.5,30502.100000023842,27243.274,27243,27259.914,30516.352,1,6,,,
trial,html.Screen,2_3_0,2023-08-21T17:39:07.416Z,,0,0,,5601.248000023843,response,ISIC_8141769.JPG,,ISIC_9238366.JPG,ISIC_8141769.JPG,true,1,keypress(m),500,36118.30000001192,36117.60000002384,30499.604,30504,30516.352,36127.223,1,6,4,,ISIC_9238366.JPG
sequence,flow.Sequence,2_3,2023-08-21T17:39:07.417Z,,0,,,5601.248000023843,completion,,,,,true,,,,36119.10000002384,36117.60000002384,30499.604,30503.80000001192,30516.352,36127.223,1,6,,,
trial,html.Screen,2_4_0,2023-08-21T17:39:12.255Z,,0,0,,4829.377000023844,response,ISIC_8949026.JPG,,ISIC_9959593.JPG,ISIC_9959593.JPG,true,0,keypress(z),500,40957.10000002384,40956.60000002384,36110.559,36119.69999998808,36127.223,40969.915,1,6,5,,ISIC_8949026.JPG
sequence,flow.Sequence,2_4,2023-08-21T17:39:12.256Z,,0,,,4829.377000023844,completion,,,,,true,,,,40957.80000001192,40956.60000002384,36110.559,36119.5,36127.223,40969.915,1,6,,,
trial,html.Screen,2_5_0,2023-08-21T17:39:17.422Z,,0,0,,5153.685000023841,response,ISIC_0010479.JPG,,ISIC_0460240.JPG,ISIC_0010479.JPG,true,1,keypress(m),500,46123.69999998808,46123.60000002384,40953.352,40958.30000001192,40969.915,46129.917,1,6,6,,ISIC_0460240.JPG
sequence,flow.Sequence,2_5,2023-08-21T17:39:17.422Z,,0,,,5153.685000023841,completion,,,,,true,,,,46123.89999997616,46123.60000002384,40953.352,40958.10000002384,40969.915,46129.917,1,6,,,
loop,flow.Loop,2,2023-08-21T17:39:17.422Z,,,,,34460.78700002384,completion,,,,,true,,,,46124,46123.60000002384,11646.145,11646.199999988079,11662.813,46129.917,1,6,,,
exp_instructions,html.Screen,3,2023-08-21T17:39:22.457Z,,,,,5027.282999988078,response,,,,,,continue,keypress(Space),,51158.30000001192,51157.19999998808,46113.428,46124,46129.917,51173.055,,,,,
trial,html.Screen,4_0_0,2023-08-21T17:39:31.095Z,,0,1,,8622.844999976158,response,ISIC_0026231.JPG,,ISIC_2379024.JPG,ISIC_0026231.JPG,false,1,keypress(m),500,59796.39999997616,59795.89999997616,51156.507,51158.80000001192,51173.055,59806.437,8,400,1,,ISIC_2379024.JPG
break,html.Screen,4_0_1,2023-08-21T17:39:31.097Z,,0,,,NaN,,,,,,false,,,,59798.60000002384,59797.80000001192,,59796.80000001192,,59806.437,8,400,,,
break_continue,html.Screen,4_0_2,2023-08-21T17:39:31.098Z,,0,,,NaN,,,,,,false,,,,59799.69999998808,59799.39999997616,,59798.80000001192,,59806.437,8,400,,,
sequence,flow.Sequence,4_0,2023-08-21T17:39:31.098Z,,0,,,8626.344999976158,completion,,,,,false,,,,59799.89999997616,59799.39999997616,51156.507,51158.80000001192,51173.055,59806.437,8,400,,,
trial,html.Screen,4_1_0,2023-08-21T17:39:39.135Z,,0,1,,8029.663000023844,response,ISIC_0014857.JPG,,ISIC_3207651.JPG,ISIC_3207651.JPG,false,0,keypress(z),500,67836.60000002384,67836.10000002384,59789.897,59800.10000002384,59806.437,67856.273,8,400,2,,ISIC_0014857.JPG
break,html.Screen,4_1_1,2023-08-21T17:39:39.137Z,,0,,,NaN,,,,,,false,,,,67838.30000001192,67837.80000001192,,67837,,67856.273,8,400,,,
break_continue,html.Screen,4_1_2,2023-08-21T17:39:39.137Z,,0,,,NaN,,,,,,false,,,,67839.19999998808,67838.89999997616,,67838.5,,67856.273,8,400,,,
sequence,flow.Sequence,4_1,2023-08-21T17:39:39.138Z,,0,,,8032.46299997616,completion,,,,,false,,,,67839.5,67838.89999997616,59789.897,59800,59806.437,67856.273,8,400,,,
trial,html.Screen,4_2_0,2023-08-21T17:39:43.637Z,,0,1,,4482.02700001192,response,ISIC_6526489.JPG,,ISIC_9312264.JPG,ISIC_9312264.JPG,false,0,keypress(z),500,72338.39999997616,72338.30000001192,67822.191,67839.89999997616,67856.273,72347.618,8,400,3,,ISIC_6526489.JPG
break,html.Screen,4_2_1,2023-08-21T17:39:43.637Z,,0,,,NaN,,,,,,false,,,,72339.19999998808,72338.89999997616,,72338.5,,72347.618,8,400,,,
break_continue,html.Screen,4_2_2,2023-08-21T17:39:43.638Z,,0,,,NaN,,,,,,false,,,,72339.5,72339.39999997616,,72339.19999998808,,72347.618,8,400,,,
sequence,flow.Sequence,4_2,2023-08-21T17:39:43.638Z,,0,,,4483.126999976157,completion,,,,,false,,,,72339.60000002384,72339.39999997616,67822.191,67839.69999998808,67856.273,72347.618,8,400,,,
trial,html.Screen,4_3_0,2023-08-21T17:39:52.519Z,,0,1,,8872.48200002384,response,ISIC_0011256.JPG,,ISIC_1975042.JPG,ISIC_1975042.JPG,false,0,keypress(z),500,81220.39999997616,81220.10000002384,72330.885,72339.69999998808,72347.618,81231.688,8,400,4,,ISIC_0011256.JPG
break,html.Screen,4_3_1,2023-08-21T17:39:52.520Z,,0,,,NaN,,,,,,false,,,,81222.10000002384,81221.60000002384,,81220.89999997616,,81231.688,8,400,,,
break_continue,html.Screen,4_3_2,2023-08-21T17:39:52.521Z,,0,,,NaN,,,,,,false,,,,81223.10000002384,81222.89999997616,,81222.39999997616,,81231.688,8,400,,,
sequence,flow.Sequence,4_3,2023-08-21T17:39:52.522Z,,0,,,8875.281999976156,completion,,,,,false,,,,81223.39999997616,81222.89999997616,72330.885,72339.69999998808,72347.618,81231.688,8,400,,,
trial,html.Screen,4_4_0,2023-08-21T17:39:56.324Z,,0,1,,3793.6120000119263,response,ISIC_4640293.JPG,,ISIC_7776719.JPG,ISIC_4640293.JPG,false,1,keypress(m),500,85025.5,85025.30000001192,81215.015,81223.80000001192,81231.688,85038.998,8,400,5,,ISIC_7776719.JPG
break,html.Screen,4_4_1,2023-08-21T17:39:56.325Z,,0,,,NaN,,,,,,false,,,,85026.39999997616,85026,,85025.60000002384,,85038.998,8,400,,,
break_continue,html.Screen,4_4_2,2023-08-21T17:39:56.325Z,,0,,,NaN,,,,,,false,,,,85026.69999998808,85026.60000002384,,85026.39999997616,,85038.998,8,400,,,
sequence,flow.Sequence,4_4,2023-08-21T17:39:56.325Z,,0,,,3794.912000023847,completion,,,,,false,,,,85026.80000001192,85026.60000002384,81215.015,81223.69999998808,81231.688,85038.998,8,400,,,
trial,html.Screen,4_5_0,2023-08-21T17:40:00.102Z,,0,1,,3764.4019999761513,response,ISIC_0010023.JPG,,ISIC_0030194.JPG,ISIC_0010023.JPG,false,1,keypress(m),500,88803.5,88803.39999997616,85022.373,85027,85038.998,88813.028,8,400,6,,ISIC_0030194.JPG
break,html.Screen,4_5_1,2023-08-21T17:40:00.103Z,,0,,,NaN,,,,,,false,,,,88804.5,88804.10000002384,,88803.69999998808,,88813.028,8,400,,,
break_continue,html.Screen,4_5_2,2023-08-21T17:40:00.103Z,,0,,,NaN,,,,,,false,,,,88804.80000001192,88804.69999998808,,88804.5,,88813.028,8,400,,,
sequence,flow.Sequence,4_5,2023-08-21T17:40:00.103Z,,0,,,3765.701999988072,completion,,,,,false,,,,88804.89999997616,88804.69999998808,85022.373,85026.89999997616,85038.998,88813.028,8,400,,,
trial,html.Screen,4_6_0,2023-08-21T17:40:03.774Z,,0,1,,3661.6719999880734,response,ISIC_6004197.JPG,,ISIC_0032718.JPG,ISIC_0032718.JPG,false,0,keypress(z),500,92475.10000002384,92474.69999998808,88796.336,88805,88813.028,92486.782,8,400,7,,ISIC_6004197.JPG
break,html.Screen,4_6_1,2023-08-21T17:40:03.775Z,,0,,,NaN,,,,,,false,,,,92476.69999998808,92476.19999998808,,92475.39999997616,,92486.782,8,400,,,
break_continue,html.Screen,4_6_2,2023-08-21T17:40:03.776Z,,0,,,NaN,,,,,,false,,,,92477.60000002384,92477.30000001192,,92476.89999997616,,92486.782,8,400,,,
sequence,flow.Sequence,4_6,2023-08-21T17:40:03.776Z,,0,,,3664.272000011915,completion,,,,,false,,,,92477.89999997616,92477.30000001192,88796.336,88804.89999997616,88813.028,92486.782,8,400,,,
trial,html.Screen,4_7_0,2023-08-21T17:40:08.323Z,,0,1,,4537.617999976152,response,ISIC_0054941.JPG,,ISIC_1513720.JPG,ISIC_0054941.JPG,false,1,keypress(m),500,97024.5,97024.39999997616,92470.125,92478.19999998808,92486.782,97028.847,8,400,8,,ISIC_1513720.JPG
break,html.Screen,4_7_1,2023-08-21T17:40:08.323Z,,0,,,NaN,,,,,,false,,,,97025,97024.80000001192,,97024.60000002384,,97028.847,8,400,,,
break_continue,html.Screen,4_7_2,2023-08-21T17:40:08.324Z,,0,,,NaN,,,,,,false,,,,97025.19999998808,97025.19999998808,,97025.10000002384,,97028.847,8,400,,,
sequence,flow.Sequence,4_7,2023-08-21T17:40:08.324Z,,0,,,4538.417999988073,completion,,,,,false,,,,97025.19999998808,97025.19999998808,92470.125,92478.10000002384,92486.782,97028.847,8,400,,,
trial,html.Screen,4_8_0,2023-08-21T17:40:11.128Z,,0,1,,2799.7530000238476,response,ISIC_3652884.JPG,,ISIC_0033981.JPG,ISIC_0033981.JPG,false,0,keypress(z),500,99829.10000002384,99828.60000002384,97012.161,97025.30000001192,97028.847,99834.33,8,400,9,,ISIC_3652884.JPG
break,html.Screen,4_8_1,2023-08-21T17:40:11.129Z,,0,,,NaN,,,,,,false,,,,99830.89999997616,99830.39999997616,,99829.5,,99834.33,8,400,,,
break_continue,html.Screen,4_8_2,2023-08-21T17:40:11.130Z,,0,,,NaN,,,,,,false,,,,99831.80000001192,99831.60000002384,,99831.10000002384,,99834.33,8,400,,,
sequence,flow.Sequence,4_8,2023-08-21T17:40:11.131Z,,0,,,2802.7530000238476,completion,,,,,false,,,,99832.10000002384,99831.60000002384,97012.161,97025.30000001192,97028.847,99834.33,8,400,,,
trial,html.Screen,4_9_0,2023-08-21T17:40:13.878Z,,0,1,,2744.470000011919,response,ISIC_7875088.JPG,,ISIC_7961365.JPG,ISIC_7875088.JPG,false,1,keypress(m),500,102579.19999998808,102578.80000001192,99817.654,99832.39999997616,99834.33,102589.648,8,400,10,,ISIC_7961365.JPG
break,html.Screen,4_9_1,2023-08-21T17:40:13.880Z,,0,,,NaN,,,,,,false,,,,102581.10000002384,102580.60000002384,,102579.89999997616,,102589.648,8,400,,,
break_continue,html.Screen,4_9_2,2023-08-21T17:40:13.880Z,,0,,,NaN,,,,,,false,,,,102582,102581.69999998808,,102581.39999997616,,102589.648,8,400,,,
sequence,flow.Sequence,4_9,2023-08-21T17:40:13.881Z,,0,,,2747.3699999880773,completion,,,,,false,,,,102582.39999997616,102581.69999998808,99817.654,99832.39999997616,99834.33,102589.648,8,400,,,
trial,html.Screen,4_10_0,2023-08-21T17:40:18.990Z,,0,1,,5101.15200001192,response,ISIC_5207050.JPG,,ISIC_0011763.JPG,ISIC_0011763.JPG,false,0,keypress(z),500,107691.19999998808,107690.80000001192,102573.125,102582.69999998808,102589.648,107699.735,8,400,11,,ISIC_5207050.JPG
break,html.Screen,4_10_1,2023-08-21T17:40:18.991Z,,0,,,NaN,,,,,,false,,,,107693,107692.5,,107691.69999998808,,107699.735,8,400,,,
break_continue,html.Screen,4_10_2,2023-08-21T17:40:18.992Z,,0,,,NaN,,,,,,false,,,,107693.80000001192,107693.60000002384,,107693.19999998808,,107699.735,8,400,,,
sequence,flow.Sequence,4_10,2023-08-21T17:40:18.993Z,,0,,,5103.952000023841,completion,,,,,false,,,,107694.19999998808,107693.60000002384,102573.125,102582.60000002384,102589.648,107699.735,8,400,,,
trial,html.Screen,4_11_0,2023-08-21T17:40:25.078Z,,0,1,,6078.9649999880785,response,ISIC_0071208.JPG,,ISIC_2663597.JPG,ISIC_0071208.JPG,false,1,keypress(m),500,113779,113778.69999998808,107683.068,107694.60000002384,107699.735,113794.945,8,400,12,,ISIC_2663597.JPG
break,html.Screen,4_11_1,2023-08-21T17:40:25.079Z,,0,,,NaN,,,,,,false,,,,113780.69999998808,113780.30000001192,,113779.5,,113794.945,8,400,,,
break_continue,html.Screen,4_11_2,2023-08-21T17:40:25.080Z,,0,,,NaN,,,,,,false,,,,113781.69999998808,113781.39999997616,,113781,,113794.945,8,400,,,
sequence,flow.Sequence,4_11,2023-08-21T17:40:25.081Z,,0,,,6081.664999976158,completion,,,,,false,,,,113782,113781.39999997616,107683.068,107694.39999997616,107699.735,113794.945,8,400,,,
trial,html.Screen,4_12_0,2023-08-21T17:40:28.941Z,,0,1,,3847.554999999993,response,ISIC_6017985.JPG,,ISIC_1023339.JPG,ISIC_1023339.JPG,false,0,keypress(z),500,117642.80000001192,117642.5,113778.226,113782.30000001192,113794.945,117652.286,8,400,13,,ISIC_6017985.JPG
break,html.Screen,4_12_1,2023-08-21T17:40:28.943Z,,0,,,NaN,,,,,,false,,,,117644.5,117644,,117643.30000001192,,117652.286,8,400,,,
break_continue,html.Screen,4_12_2,2023-08-21T17:40:28.944Z,,0,,,NaN,,,,,,false,,,,117645.39999997616,117645.19999998808,,117644.80000001192,,117652.286,8,400,,,
sequence,flow.Sequence,4_12,2023-08-21T17:40:28.944Z,,0,,,3850.254999988072,completion,,,,,false,,,,117645.69999998808,117645.19999998808,113778.226,113782.19999998808,113794.945,117652.286,8,400,,,
trial,html.Screen,4_13_0,2023-08-21T17:40:31.745Z,,0,1,,2793.514000011928,response,ISIC_0065121.JPG,,ISIC_0027265.JPG,ISIC_0065121.JPG,false,1,keypress(m),500,120446.19999998808,120445.80000001192,117635.893,117647.5,117652.286,120457.89,8,400,14,,ISIC_0027265.JPG
break,html.Screen,4_13_1,2023-08-21T17:40:31.746Z,,0,,,NaN,,,,,,false,,,,120447.89999997616,120447.39999997616,,120446.69999998808,,120457.89,8,400,,,
break_continue,html.Screen,4_13_2,2023-08-21T17:40:31.747Z,,0,,,NaN,,,,,,false,,,,120448.89999997616,120448.5,,120448.19999998808,,120457.89,8,400,,,
sequence,flow.Sequence,4_13,2023-08-21T17:40:31.748Z,,0,,,2796.214000000007,completion,,,,,false,,,,120449.19999998808,120448.5,117635.893,117647.5,117652.286,120457.89,8,400,,,
trial,html.Screen,4_14_0,2023-08-21T17:40:35.438Z,,0,1,,3681.6100000000006,response,ISIC_0058909.JPG,,ISIC_0064298.JPG,ISIC_0058909.JPG,false,1,keypress(m),500,124139.80000001192,124139.5,120441.277,120449.5,120457.89,124148.422,8,400,15,,ISIC_0064298.JPG
break,html.Screen,4_14_1,2023-08-21T17:40:35.440Z,,0,,,NaN,,,,,,false,,,,124141.60000002384,124141.10000002384,,124140.30000001192,,124148.422,8,400,,,
break_continue,html.Screen,4_14_2,2023-08-21T17:40:35.441Z,,0,,,NaN,,,,,,false,,,,124142.39999997616,124142.19999998808,,124141.80000001192,,124148.422,8,400,,,
sequence,flow.Sequence,4_14,2023-08-21T17:40:35.441Z,,0,,,3684.3099999880797,completion,,,,,false,,,,124142.80000001192,124142.19999998808,120441.277,120449.39999997616,120457.89,124148.422,8,400,,,
trial,html.Screen,4_15_0,2023-08-21T17:40:38.792Z,,0,1,,3345.277999988073,response,ISIC_1814941.JPG,,ISIC_2833213.JPG,ISIC_1814941.JPG,false,1,keypress(m),500,127493.80000001192,127493.69999998808,124131.824,124143,124148.422,127504.982,8,400,16,,ISIC_2833213.JPG
break,html.Screen,4_15_1,2023-08-21T17:40:38.793Z,,0,,,NaN,,,,,,false,,,,127494.39999997616,127494.19999998808,,127494,,127504.982,8,400,,,
break_continue,html.Screen,4_15_2,2023-08-21T17:40:38.793Z,,0,,,NaN,,,,,,false,,,,127494.80000001192,127494.69999998808,,127494.60000002384,,127504.982,8,400,,,
sequence,flow.Sequence,4_15,2023-08-21T17:40:38.793Z,,0,,,3346.277999988073,completion,,,,,false,,,,127494.80000001192,127494.69999998808,124131.824,124143,124148.422,127504.982,8,400,,,
trial,html.Screen,4_16_0,2023-08-21T17:40:42.455Z,,0,1,,3650.8180000119173,response,ISIC_2704046.JPG,,ISIC_0026531.JPG,ISIC_0026531.JPG,false,0,keypress(z),500,131156.30000001192,131155.80000001192,127488.394,127494.89999997616,127504.982,131162.058,8,400,17,,ISIC_2704046.JPG
break,html.Screen,4_16_1,2023-08-21T17:40:42.457Z,,0,,,NaN,,,,,,false,,,,131158,131157.60000002384,,131156.80000001192,,131162.058,8,400,,,
break_continue,html.Screen,4_16_2,2023-08-21T17:40:42.457Z,,0,,,NaN,,,,,,false,,,,131158.89999997616,131158.69999998808,,131158.30000001192,,131162.058,8,400,,,
sequence,flow.Sequence,4_16,2023-08-21T17:40:42.458Z,,0,,,3653.7179999880755,completion,,,,,false,,,,131159.30000001192,131158.69999998808,127488.394,127494.89999997616,127504.982,131162.058,8,400,,,
trial,html.Screen,4_17_0,2023-08-21T17:40:46.024Z,,0,1,,3562.841999976168,response,ISIC_2513933.JPG,,ISIC_5223096.JPG,ISIC_2513933.JPG,false,1,keypress(m),500,134725.30000001192,134724.89999997616,131145.331,131159.60000002384,131162.058,134735.65,8,400,18,,ISIC_5223096.JPG
break,html.Screen,4_17_1,2023-08-21T17:40:46.025Z,,0,,,NaN,,,,,,false,,,,134726.89999997616,134726.5,,134725.60000002384,,134735.65,8,400,,,
break_continue,html.Screen,4_17_2,2023-08-21T17:40:46.026Z,,0,,,NaN,,,,,,false,,,,134727.80000001192,134727.5,,134727.10000002384,,134735.65,8,400,,,
sequence,flow.Sequence,4_17,2023-08-21T17:40:46.027Z,,0,,,3565.44200000001,completion,,,,,false,,,,134728.10000002384,134727.5,131145.331,131159.60000002384,131162.058,134735.65,8,400,,,
trial,html.Screen,4_18_0,2023-08-21T17:40:50.888Z,,0,1,,4853.850000000006,response,ISIC_0000413.JPG,,ISIC_0064907.JPG,ISIC_0064907.JPG,false,0,keypress(z),500,139590,139589.5,134719.041,134728.39999997616,134735.65,139612.206,8,400,19,,ISIC_0000413.JPG
break,html.Screen,4_18_1,2023-08-21T17:40:50.890Z,,0,,,NaN,,,,,,false,,,,139591.60000002384,139591.10000002384,,139590.39999997616,,139612.206,8,400,,,
break_continue,html.Screen,4_18_2,2023-08-21T17:40:50.891Z,,0,,,NaN,,,,,,false,,,,139592.39999997616,139592.10000002384,,139591.69999998808,,139612.206,8,400,,,
sequence,flow.Sequence,4_18,2023-08-21T17:40:50.891Z,,0,,,4856.450000023848,completion,,,,,false,,,,139592.80000001192,139592.10000002384,134719.041,134728.39999997616,134735.65,139612.206,8,400,,,
trial,html.Screen,4_19_0,2023-08-21T17:40:54.829Z,,0,1,,3917.6939999761526,response,ISIC_9684318.JPG,,ISIC_0004955.JPG,ISIC_9684318.JPG,false,1,keypress(m),500,143530.30000001192,143529.89999997616,139595.114,139593.10000002384,139612.206,143535.981,8,400,20,,ISIC_0004955.JPG
break,html.Screen,4_19_1,2023-08-21T17:40:54.831Z,,0,,,NaN,,,,,,false,,,,143531.89999997616,143531.5,,143530.69999998808,,143535.981,8,400,,,
break_continue,html.Screen,4_19_2,2023-08-21T17:40:54.832Z,,0,,,NaN,,,,,,false,,,,143532.89999997616,143532.69999998808,,143532.19999998808,,143535.981,8,400,,,
sequence,flow.Sequence,4_19,2023-08-21T17:40:54.832Z,,0,,,3920.4939999880735,completion,,,,,false,,,,143533.30000001192,143532.69999998808,139595.114,139592.89999997616,139612.206,143535.981,8,400,,,
trial,html.Screen,4_20_0,2023-08-21T17:41:01.359Z,,0,1,,6523.319000011921,response,ISIC_0064557.JPG,,ISIC_0062367.JPG,ISIC_0064557.JPG,false,1,keypress(m),500,150059.69999998808,150059.30000001192,143519.396,143533.60000002384,143535.981,150065.395,8,400,21,,ISIC_0062367.JPG
break,html.Screen,4_20_1,2023-08-21T17:41:01.360Z,,0,,,NaN,,,,,,false,,,,150061.69999998808,150061.10000002384,,150060.19999998808,,150065.395,8,400,,,
break_continue,html.Screen,4_20_2,2023-08-21T17:41:01.361Z,,0,,,NaN,,,,,,false,,,,150062.60000002384,150062.30000001192,,150061.89999997616,,150065.395,8,400,,,
sequence,flow.Sequence,4_20,2023-08-21T17:41:01.362Z,,0,,,6526.319000011921,completion,,,,,false,,,,150062.89999997616,150062.30000001192,143519.396,143533.5,143535.981,150065.395,8,400,,,
trial,html.Screen,4_21_0,2023-08-21T17:41:04.305Z,,0,1,,2941.2050000238523,response,ISIC_0034094.JPG,,ISIC_7582818.JPG,ISIC_0034094.JPG,false,1,keypress(m),500,153006.60000002384,153006.60000002384,150048.966,150063.30000001192,150065.395,153021.135,8,400,22,,ISIC_7582818.JPG
break,html.Screen,4_21_1,2023-08-21T17:41:04.306Z,,0,,,NaN,,,,,,false,,,,153007.10000002384,153007,,153006.69999998808,,153021.135,8,400,,,
break_continue,html.Screen,4_21_2,2023-08-21T17:41:04.306Z,,0,,,NaN,,,,,,false,,,,153007.30000001192,153007.19999998808,,153007.19999998808,,153021.135,8,400,,,
sequence,flow.Sequence,4_21,2023-08-21T17:41:04.306Z,,0,,,2941.8049999880895,completion,,,,,false,,,,153007.39999997616,153007.19999998808,150048.966,150063.19999998808,150065.395,153021.135,8,400,,,
trial,html.Screen,4_22_0,2023-08-21T17:41:08.031Z,,0,1,,3710.5649999880698,response,ISIC_5607702.JPG,,ISIC_0061829.JPG,ISIC_0061829.JPG,false,0,keypress(z),500,156731.80000001192,156731.69999998808,153004.46,153007.39999997616,153021.135,156745.16,8,400,23,,ISIC_5607702.JPG
break,html.Screen,4_22_1,2023-08-21T17:41:08.031Z,,0,,,NaN,,,,,,false,,,,156732.39999997616,156732.19999998808,,156731.89999997616,,156745.16,8,400,,,
break_continue,html.Screen,4_22_2,2023-08-21T17:41:08.032Z,,0,,,NaN,,,,,,false,,,,156732.80000001192,156732.69999998808,,156732.5,,156745.16,8,400,,,
sequence,flow.Sequence,4_22,2023-08-21T17:41:08.032Z,,0,,,3711.5649999880698,completion,,,,,false,,,,156732.89999997616,156732.69999998808,153004.46,153007.39999997616,153021.135,156745.16,8,400,,,
trial,html.Screen,4_23_0,2023-08-21T17:41:11.576Z,,0,1,,3532.1400000119174,response,ISIC_0032420.JPG,,ISIC_5926550.JPG,ISIC_0032420.JPG,false,1,keypress(m),500,160277.60000002384,160277.30000001192,156728.495,156732.89999997616,156745.16,160285.297,8,400,24,,ISIC_5926550.JPG
break,html.Screen,4_23_1,2023-08-21T17:41:11.578Z,,0,,,NaN,,,,,,false,,,,160279.30000001192,160278.80000001192,,160278.10000002384,,160285.297,8,400,,,
break_continue,html.Screen,4_23_2,2023-08-21T17:41:11.579Z,,0,,,NaN,,,,,,false,,,,160280.19999998808,160279.89999997616,,160279.5,,160285.297,8,400,,,
sequence,flow.Sequence,4_23,2023-08-21T17:41:11.579Z,,0,,,3534.7399999761546,completion,,,,,false,,,,160280.39999997616,160279.89999997616,156728.495,156732.89999997616,156745.16,160285.297,8,400,,,
trial,html.Screen,4_24_0,2023-08-21T17:41:17.413Z,,0,1,,5828.8030000238505,response,ISIC_1154109.JPG,,ISIC_0000313.JPG,ISIC_1154109.JPG,false,1,keypress(m),500,166114.5,166114.10000002384,160268.702,160280.80000001192,160285.297,166130.124,8,400,25,,ISIC_0000313.JPG
break,html.Screen,4_24_1,2023-08-21T17:41:17.415Z,,0,,,NaN,,,,,,false,,,,166116.10000002384,166115.60000002384,,166114.89999997616,,166130.124,8,400,,,
break_continue,html.Screen,4_24_2,2023-08-21T17:41:17.416Z,,0,,,NaN,,,,,,false,,,,166117,166116.69999998808,,166116.39999997616,,166130.124,8,400,,,
sequence,flow.Sequence,4_24,2023-08-21T17:41:17.416Z,,0,,,5831.402999988088,completion,,,,,false,,,,166117.30000001192,166116.69999998808,160268.702,160280.69999998808,160285.297,166130.124,8,400,,,
trial,html.Screen,4_25_0,2023-08-21T17:41:20.487Z,,0,1,,3057.7759999761474,response,ISIC_4653503.JPG,,ISIC_9106966.JPG,ISIC_4653503.JPG,false,1,keypress(m),500,169188.30000001192,169187.89999997616,166113.504,166117.69999998808,166130.124,169202.673,8,400,26,,ISIC_9106966.JPG
break,html.Screen,4_25_1,2023-08-21T17:41:20.489Z,,0,,,NaN,,,,,,false,,,,169190,169189.5,,169188.69999998808,,169202.673,8,400,,,
break_continue,html.Screen,4_25_2,2023-08-21T17:41:20.490Z,,0,,,NaN,,,,,,false,,,,169191.60000002384,169191.19999998808,,169190.39999997616,,169202.673,8,400,,,
sequence,flow.Sequence,4_25,2023-08-21T17:41:20.491Z,,0,,,3061.0759999880684,completion,,,,,false,,,,169192.19999998808,169191.19999998808,166113.504,166117.60000002384,166130.124,169202.673,8,400,,,
trial,html.Screen,4_26_0,2023-08-21T17:41:23.543Z,,0,1,,3041.5269999880693,response,ISIC_0011369.JPG,,ISIC_5679004.JPG,ISIC_0011369.JPG,false,1,keypress(m),500,172244.69999998808,172244.19999998808,169186.035,169192.69999998808,169202.673,172258.544,8,400,27,,ISIC_5679004.JPG
break,html.Screen,4_26_1,2023-08-21T17:41:23.545Z,,0,,,NaN,,,,,,false,,,,172246.39999997616,172246,,172245.19999998808,,172258.544,8,400,,,
break_continue,html.Screen,4_26_2,2023-08-21T17:41:23.546Z,,0,,,NaN,,,,,,false,,,,172247.30000001192,172247.10000002384,,172246.60000002384,,172258.544,8,400,,,
sequence,flow.Sequence,4_26,2023-08-21T17:41:23.546Z,,0,,,3044.427000023832,completion,,,,,false,,,,172247.69999998808,172247.10000002384,169186.035,169192.5,169202.673,172258.544,8,400,,,
trial,html.Screen,4_27_0,2023-08-21T17:41:26.443Z,,0,1,,2885.0560000238474,response,ISIC_0034162.JPG,,ISIC_6003500.JPG,ISIC_0034162.JPG,false,1,keypress(m),500,175144,175143.60000002384,172242.037,172247.89999997616,172258.544,175147.596,8,400,28,,ISIC_6003500.JPG
break,html.Screen,4_27_1,2023-08-21T17:41:26.444Z,,0,,,NaN,,,,,,false,,,,175145.60000002384,175145.10000002384,,175144.39999997616,,175147.596,8,400,,,
break_continue,html.Screen,4_27_2,2023-08-21T17:41:26.445Z,,0,,,NaN,,,,,,false,,,,175146.5,175146.19999998808,,175145.80000001192,,175147.596,8,400,,,
sequence,flow.Sequence,4_27,2023-08-21T17:41:26.446Z,,0,,,2887.6559999880847,completion,,,,,false,,,,175146.80000001192,175146.19999998808,172242.037,172247.89999997616,172258.544,175147.596,8,400,,,
trial,html.Screen,4_28_0,2023-08-21T17:41:29.531Z,,0,1,,3084.3039999761677,response,ISIC_0028616.JPG,,ISIC_0887792.JPG,ISIC_0028616.JPG,false,1,keypress(m),500,178232.39999997616,178231.89999997616,175130.94,175147.10000002384,175147.596,178236.947,8,400,29,,ISIC_0887792.JPG
break,html.Screen,4_28_1,2023-08-21T17:41:29.533Z,,0,,,NaN,,,,,,false,,,,178234.10000002384,178233.60000002384,,178232.89999997616,,178236.947,8,400,,,
break_continue,html.Screen,4_28_2,2023-08-21T17:41:29.534Z,,0,,,NaN,,,,,,false,,,,178234.89999997616,178234.69999998808,,178234.30000001192,,178236.947,8,400,,,
sequence,flow.Sequence,4_28,2023-08-21T17:41:29.534Z,,0,,,3087.1039999880886,completion,,,,,false,,,,178235.30000001192,178234.69999998808,175130.94,175147,175147.596,178236.947,8,400,,,
trial,html.Screen,4_29_0,2023-08-21T17:41:35.598Z,,0,1,,6062.053000000014,response,ISIC_6293107.JPG,,ISIC_0026692.JPG,ISIC_0026692.JPG,false,0,keypress(z),500,184299.5,184299,178220.27,178235.60000002384,178236.947,184315.386,8,400,30,,ISIC_6293107.JPG
break,html.Screen,4_29_1,2023-08-21T17:41:35.601Z,,0,,,NaN,,,,,,false,,,,184302.10000002384,184301.19999998808,,184300.19999998808,,184315.386,8,400,,,
break_continue,html.Screen,4_29_2,2023-08-21T17:41:35.602Z,,0,,,NaN,,,,,,false,,,,184303.39999997616,184303.10000002384,,184302.5,,184315.386,8,400,,,
sequence,flow.Sequence,4_29,2023-08-21T17:41:35.603Z,,0,,,6066.153000023856,completion,,,,,false,,,,184303.80000001192,184303.10000002384,178220.27,178235.5,178236.947,184315.386,8,400,,,
trial,html.Screen,4_30_0,2023-08-21T17:41:38.530Z,,0,1,,2915.0139999761595,response,ISIC_0068015.JPG,,ISIC_2687641.JPG,ISIC_0068015.JPG,false,1,keypress(m),500,187230.80000001192,187230.39999997616,184298.766,184304.10000002384,184315.386,187237.809,8,400,31,,ISIC_2687641.JPG
break,html.Screen,4_30_1,2023-08-21T17:41:38.531Z,,0,,,NaN,,,,,,false,,,,187232.60000002384,187232.10000002384,,187231.19999998808,,187237.809,8,400,,,
break_continue,html.Screen,4_30_2,2023-08-21T17:41:38.532Z,,0,,,NaN,,,,,,false,,,,187233.60000002384,187233.39999997616,,187232.89999997616,,187237.809,8,400,,,
sequence,flow.Sequence,4_30,2023-08-21T17:41:38.535Z,,0,,,2918.0139999761595,completion,,,,,false,,,,187236.19999998808,187233.39999997616,184298.766,184304,184315.386,187237.809,8,400,,,
trial,html.Screen,4_31_0,2023-08-21T17:41:41.906Z,,0,1,,3368.6909999999916,response,ISIC_7967397.JPG,,ISIC_2337786.JPG,ISIC_7967397.JPG,false,1,keypress(m),500,190606.80000001192,190606.5,187220.989,187236.5,187237.809,190610.982,8,400,32,,ISIC_2337786.JPG
break,html.Screen,4_31_1,2023-08-21T17:41:41.907Z,,0,,,NaN,,,,,,false,,,,190608.5,190608.10000002384,,190607.30000001192,,190610.982,8,400,,,
break_continue,html.Screen,4_31_2,2023-08-21T17:41:41.908Z,,0,,,NaN,,,,,,false,,,,190609.39999997616,190609.19999998808,,190608.80000001192,,190610.982,8,400,,,
sequence,flow.Sequence,4_31,2023-08-21T17:41:41.909Z,,0,,,3371.3909999880707,completion,,,,,false,,,,190609.80000001192,190609.19999998808,187220.989,187236.39999997616,187237.809,190610.982,8,400,,,
trial,html.Screen,4_32_0,2023-08-21T17:41:44.742Z,,0,1,,2831.818000011932,response,ISIC_2930792.JPG,,ISIC_0527350.JPG,ISIC_2930792.JPG,false,1,keypress(m),500,193443.19999998808,193442.80000001192,190594.396,190610.10000002384,190610.982,193449.8,8,400,33,,ISIC_0527350.JPG
break,html.Screen,4_32_1,2023-08-21T17:41:44.744Z,,0,,,NaN,,,,,,false,,,,193444.80000001192,193444.39999997616,,193443.69999998808,,193449.8,8,400,,,
break_continue,html.Screen,4_32_2,2023-08-21T17:41:44.745Z,,0,,,NaN,,,,,,false,,,,193445.69999998808,193445.5,,193445.10000002384,,193449.8,8,400,,,
sequence,flow.Sequence,4_32,2023-08-21T17:41:44.745Z,,0,,,2834.518000000011,completion,,,,,false,,,,193446.10000002384,193445.5,190594.396,190609.89999997616,190610.982,193449.8,8,400,,,
trial,html.Screen,4_33_0,2023-08-21T17:41:47.830Z,,0,1,,3080.8000000238535,response,ISIC_5415749.JPG,,ISIC_2054180.JPG,ISIC_5415749.JPG,false,1,keypress(m),500,196531,196530.60000002384,193433.199,193446.39999997616,193449.8,196539.115,8,400,34,,ISIC_2054180.JPG
break,html.Screen,4_33_1,2023-08-21T17:41:47.832Z,,0,,,NaN,,,,,,false,,,,196533.19999998808,196532.5,,196531.5,,196539.115,8,400,,,
break_continue,html.Screen,4_33_2,2023-08-21T17:41:47.833Z,,0,,,NaN,,,,,,false,,,,196534.19999998808,196534,,196533.60000002384,,196539.115,8,400,,,
sequence,flow.Sequence,4_33,2023-08-21T17:41:47.833Z,,0,,,3084.2000000000116,completion,,,,,false,,,,196534.5,196534,193433.199,193446.30000001192,193449.8,196539.115,8,400,,,
trial,html.Screen,4_34_0,2023-08-21T17:41:55.920Z,,0,1,,8081.485000023851,response,ISIC_0624779.JPG,,ISIC_0000186.JPG,ISIC_0624779.JPG,false,1,keypress(m),500,204621,204620.60000002384,196522.662,196534.89999997616,196539.115,204638.324,8,400,35,,ISIC_0000186.JPG
break,html.Screen,4_34_1,2023-08-21T17:41:55.922Z,,0,,,NaN,,,,,,false,,,,204622.69999998808,204622.19999998808,,204621.39999997616,,204638.324,8,400,,,
break_continue,html.Screen,4_34_2,2023-08-21T17:41:55.923Z,,0,,,NaN,,,,,,false,,,,204623.80000001192,204623.60000002384,,204623.10000002384,,204638.324,8,400,,,
sequence,flow.Sequence,4_34,2023-08-21T17:41:55.923Z,,0,,,8084.485000023851,completion,,,,,false,,,,204624.30000001192,204623.60000002384,196522.662,196534.80000001192,196539.115,204638.324,8,400,,,
trial,html.Screen,4_35_0,2023-08-21T17:41:59.266Z,,0,1,,3327.875999988086,response,ISIC_4707475.JPG,,ISIC_0026497.JPG,ISIC_0026497.JPG,false,0,keypress(z),500,207966.60000002384,207966.19999998808,204621.645,204624.5,204638.324,207978.122,8,400,36,,ISIC_4707475.JPG
break,html.Screen,4_35_1,2023-08-21T17:41:59.267Z,,0,,,NaN,,,,,,false,,,,207968.30000001192,207967.80000001192,,207967,,207978.122,8,400,,,
break_continue,html.Screen,4_35_2,2023-08-21T17:41:59.268Z,,0,,,NaN,,,,,,false,,,,207969.10000002384,207968.89999997616,,207968.5,,207978.122,8,400,,,
sequence,flow.Sequence,4_35,2023-08-21T17:41:59.269Z,,0,,,3330.575999976165,completion,,,,,false,,,,207969.5,207968.89999997616,204621.645,204624.39999997616,204638.324,207978.122,8,400,,,
trial,html.Screen,4_36_0,2023-08-21T17:42:04.860Z,,0,1,,5582.178000011918,response,ISIC_0031293.JPG,,ISIC_8813283.JPG,ISIC_8813283.JPG,false,0,keypress(z),500,213560.5,213560.30000001192,207961.427,207969.80000001192,207978.122,213572.407,8,400,37,,ISIC_0031293.JPG
break,html.Screen,4_36_1,2023-08-21T17:42:04.860Z,,0,,,NaN,,,,,,false,,,,213561.10000002384,213560.89999997616,,213560.60000002384,,213572.407,8,400,,,
break_continue,html.Screen,4_36_2,2023-08-21T17:42:04.861Z,,0,,,NaN,,,,,,false,,,,213561.5,213561.39999997616,,213561.30000001192,,213572.407,8,400,,,
sequence,flow.Sequence,4_36,2023-08-21T17:42:04.861Z,,0,,,5583.277999976155,completion,,,,,false,,,,213561.69999998808,213561.39999997616,207961.427,207969.69999998808,207978.122,213572.407,8,400,,,
trial,html.Screen,4_37_0,2023-08-21T17:42:10.154Z,,0,1,,5282.292999988073,response,ISIC_0028082.JPG,,ISIC_2222091.JPG,ISIC_0028082.JPG,false,1,keypress(m),500,218855.19999998808,218854.69999998808,213555.688,213561.80000001192,213572.407,218865.968,8,400,38,,ISIC_2222091.JPG
break,html.Screen,4_37_1,2023-08-21T17:42:10.156Z,,0,,,NaN,,,,,,false,,,,218856.89999997616,218856.30000001192,,218855.60000002384,,218865.968,8,400,,,
break_continue,html.Screen,4_37_2,2023-08-21T17:42:10.157Z,,0,,,NaN,,,,,,false,,,,218857.80000001192,218857.39999997616,,218857.10000002384,,218865.968,8,400,,,
sequence,flow.Sequence,4_37,2023-08-21T17:42:10.157Z,,0,,,5284.992999976152,completion,,,,,false,,,,218858.10000002384,218857.39999997616,213555.688,213561.69999998808,213572.407,218865.968,8,400,,,
trial,html.Screen,4_38_0,2023-08-21T17:42:13.803Z,,0,1,,3637.4319999761647,response,ISIC_0031711.JPG,,ISIC_0010938.JPG,ISIC_0010938.JPG,false,0,keypress(z),500,222503.5,222503.39999997616,218849.308,218858.39999997616,218865.968,222506.323,8,400,39,,ISIC_0031711.JPG
break,html.Screen,4_38_1,2023-08-21T17:42:13.803Z,,0,,,NaN,,,,,,false,,,,222504,222503.80000001192,,222503.5,,222506.323,8,400,,,
break_continue,html.Screen,4_38_2,2023-08-21T17:42:13.803Z,,0,,,NaN,,,,,,false,,,,222504.30000001192,222504.30000001192,,222504.19999998808,,222506.323,8,400,,,
sequence,flow.Sequence,4_38,2023-08-21T17:42:13.804Z,,0,,,3638.3320000119274,completion,,,,,false,,,,222504.39999997616,222504.30000001192,218849.308,218858.30000001192,218865.968,222506.323,8,400,,,
trial,html.Screen,4_39_0,2023-08-21T17:42:17.388Z,,0,1,,3582.176999999996,response,ISIC_7853136.JPG,,ISIC_7824688.JPG,ISIC_7824688.JPG,false,0,keypress(z),500,226088.89999997616,226088.5,222489.787,222504.39999997616,222506.323,226096.719,8,400,40,,ISIC_7853136.JPG
break,html.Screen,4_39_1,2023-08-21T17:42:17.390Z,,0,,,NaN,,,,,,false,,,,226090.69999998808,226090.10000002384,,226089.5,,226096.719,8,400,,,
break_continue,html.Screen,4_39_2,2023-08-21T17:42:17.391Z,,0,,,NaN,,,,,,false,,,,226091.39999997616,226091.19999998808,,226090.89999997616,,226096.719,8,400,,,
sequence,flow.Sequence,4_39,2023-08-21T17:42:17.391Z,,0,,,3584.876999988075,completion,,,,,false,,,,226091.89999997616,226091.19999998808,222489.787,222504.39999997616,222506.323,226096.719,8,400,,,
trial,html.Screen,4_40_0,2023-08-21T17:42:20.323Z,,0,1,,2927.1809999761463,response,ISIC_0024292.JPG,,ISIC_8609756.JPG,ISIC_0024292.JPG,false,1,keypress(m),500,229024.30000001192,229023.89999997616,226080.018,226092.10000002384,226096.719,229035.774,8,400,41,,ISIC_8609756.JPG
break,html.Screen,4_40_1,2023-08-21T17:42:20.325Z,,0,,,NaN,,,,,,false,,,,229025.5,229025.19999998808,,229024.5,,229035.774,8,400,,,
break_continue,html.Screen,4_40_2,2023-08-21T17:42:20.325Z,,0,,,NaN,,,,,,false,,,,229026.30000001192,229026,,229025.80000001192,,229035.774,8,400,,,
sequence,flow.Sequence,4_40,2023-08-21T17:42:20.326Z,,0,,,2929.280999999988,completion,,,,,false,,,,229026.5,229026,226080.018,226092,226096.719,229035.774,8,400,,,
trial,html.Screen,4_41_0,2023-08-21T17:42:25.414Z,,0,1,,5078.725999999995,response,ISIC_3884221.JPG,,ISIC_0060696.JPG,ISIC_0060696.JPG,false,0,keypress(z),500,234114.89999997616,234114.5,229019.186,229026.80000001192,229035.774,234129.003,8,400,42,,ISIC_3884221.JPG
break,html.Screen,4_41_1,2023-08-21T17:42:25.416Z,,0,,,NaN,,,,,,false,,,,234116.5,234116.10000002384,,234115.39999997616,,234129.003,8,400,,,
break_continue,html.Screen,4_41_2,2023-08-21T17:42:25.417Z,,0,,,NaN,,,,,,false,,,,234117.5,234117.19999998808,,234116.80000001192,,234129.003,8,400,,,
sequence,flow.Sequence,4_41,2023-08-21T17:42:25.417Z,,0,,,5081.425999988074,completion,,,,,false,,,,234117.80000001192,234117.19999998808,229019.186,229026.69999998808,229035.774,234129.003,8,400,,,
trial,html.Screen,4_42_0,2023-08-21T17:42:28.644Z,,0,1,,3215.896999976161,response,ISIC_0030704.JPG,,ISIC_0061566.JPG,ISIC_0061566.JPG,false,0,keypress(z),500,237345.30000001192,237344.89999997616,234112.358,234118.10000002384,234129.003,237351.804,8,400,43,,ISIC_0030704.JPG
break,html.Screen,4_42_1,2023-08-21T17:42:28.646Z,,0,,,NaN,,,,,,false,,,,237347,237346.5,,237345.80000001192,,237351.804,8,400,,,
break_continue,html.Screen,4_42_2,2023-08-21T17:42:28.647Z,,0,,,NaN,,,,,,false,,,,237347.89999997616,237347.60000002384,,237347.19999998808,,237351.804,8,400,,,
sequence,flow.Sequence,4_42,2023-08-21T17:42:28.647Z,,0,,,3218.597000023845,completion,,,,,false,,,,237348.19999998808,237347.60000002384,234112.358,234118,234129.003,237351.804,8,400,,,
trial,html.Screen,4_43_0,2023-08-21T17:42:33.446Z,,0,1,,4795.296000023838,response,ISIC_6446753.JPG,,ISIC_0032750.JPG,ISIC_6446753.JPG,false,1,keypress(m),500,242147.39999997616,242147.10000002384,237335.162,237348.5,237351.804,242161.365,8,400,44,,ISIC_0032750.JPG
break,html.Screen,4_43_1,2023-08-21T17:42:33.448Z,,0,,,NaN,,,,,,false,,,,242148.39999997616,242148.10000002384,,242147.60000002384,,242161.365,8,400,,,
break_continue,html.Screen,4_43_2,2023-08-21T17:42:33.448Z,,0,,,NaN,,,,,,false,,,,242148.89999997616,242148.89999997616,,242148.60000002384,,242161.365,8,400,,,
sequence,flow.Sequence,4_43,2023-08-21T17:42:33.448Z,,0,,,4797.095999976154,completion,,,,,false,,,,242149.19999998808,242148.89999997616,237335.162,237348.39999997616,237351.804,242161.365,8,400,,,
trial,html.Screen,4_44_0,2023-08-21T17:42:37.317Z,,0,1,,3856.6350000000093,response,ISIC_5547318.JPG,,ISIC_0064247.JPG,ISIC_0064247.JPG,false,0,keypress(z),500,246018.30000001192,246018,242144.693,242149.39999997616,242161.365,246035.442,8,400,45,,ISIC_5547318.JPG
break,html.Screen,4_44_1,2023-08-21T17:42:37.319Z,,0,,,NaN,,,,,,false,,,,246020.10000002384,246019.5,,246018.80000001192,,246035.442,8,400,,,
break_continue,html.Screen,4_44_2,2023-08-21T17:42:37.320Z,,0,,,NaN,,,,,,false,,,,246021.10000002384,246020.80000001192,,246020.39999997616,,246035.442,8,400,,,
sequence,flow.Sequence,4_44,2023-08-21T17:42:37.321Z,,0,,,3859.4350000119302,completion,,,,,false,,,,246021.60000002384,246020.80000001192,242144.693,242149.39999997616,242161.365,246035.442,8,400,,,
trial,html.Screen,4_45_0,2023-08-21T17:42:41.051Z,,0,1,,3715.757999988069,response,ISIC_0016050.JPG,,ISIC_0025343.JPG,ISIC_0025343.JPG,false,0,keypress(z),500,249751.60000002384,249751.19999998808,246018.819,246022,246035.442,249759.404,8,400,46,,ISIC_0016050.JPG
break,html.Screen,4_45_1,2023-08-21T17:42:41.052Z,,0,,,NaN,,,,,,false,,,,249753.30000001192,249752.80000001192,,249752.10000002384,,249759.404,8,400,,,
break_continue,html.Screen,4_45_2,2023-08-21T17:42:41.053Z,,0,,,NaN,,,,,,false,,,,249754.19999998808,249754,,249753.60000002384,,249759.404,8,400,,,
sequence,flow.Sequence,4_45,2023-08-21T17:42:41.054Z,,0,,,3718.55799999999,completion,,,,,false,,,,249754.5,249754,246018.819,246021.89999997616,246035.442,249759.404,8,400,,,
trial,html.Screen,4_46_0,2023-08-21T17:42:44.076Z,,0,1,,3017.2959999880695,response,ISIC_0029982.JPG,,ISIC_2031626.JPG,ISIC_2031626.JPG,false,0,keypress(z),500,252777,252776.69999998808,249742.835,249754.80000001192,249759.404,252782.006,8,400,47,,ISIC_0029982.JPG
break,html.Screen,4_46_1,2023-08-21T17:42:44.078Z,,0,,,NaN,,,,,,false,,,,252778.69999998808,252778.39999997616,,252777.5,,252782.006,8,400,,,
break_continue,html.Screen,4_46_2,2023-08-21T17:42:44.079Z,,0,,,NaN,,,,,,false,,,,252779.60000002384,252779.30000001192,,252779,,252782.006,8,400,,,
sequence,flow.Sequence,4_46,2023-08-21T17:42:44.079Z,,0,,,3019.8960000119114,completion,,,,,false,,,,252780,252779.30000001192,249742.835,249754.69999998808,249759.404,252782.006,8,400,,,
trial,html.Screen,4_47_0,2023-08-21T17:42:48.098Z,,0,1,,4016.393999976164,response,ISIC_4957216.JPG,,ISIC_8082988.JPG,ISIC_4957216.JPG,false,1,keypress(m),500,256798.60000002384,256798.39999997616,252765.282,252780.30000001192,252782.006,256806.336,8,400,48,,ISIC_8082988.JPG
break,html.Screen,4_47_1,2023-08-21T17:42:48.098Z,,0,,,NaN,,,,,,false,,,,256799.10000002384,256799,,256798.69999998808,,256806.336,8,400,,,
break_continue,html.Screen,4_47_2,2023-08-21T17:42:48.098Z,,0,,,NaN,,,,,,false,,,,256799.30000001192,256799.30000001192,,256799.19999998808,,256806.336,8,400,,,
sequence,flow.Sequence,4_47,2023-08-21T17:42:48.099Z,,0,,,4017.294000011927,completion,,,,,false,,,,256799.39999997616,256799.30000001192,252765.282,252780.19999998808,252782.006,256806.336,8,400,,,
trial,html.Screen,4_48_0,2023-08-21T17:42:54.771Z,,0,1,,6664.563999976148,response,ISIC_0058501.JPG,,ISIC_0025996.JPG,ISIC_0058501.JPG,false,1,keypress(m),500,263471.3000000119,263470.89999997616,256789.635,256799.5,256806.336,263486.127,8,400,49,,ISIC_0025996.JPG
break,html.Screen,4_48_1,2023-08-21T17:42:54.772Z,,0,,,NaN,,,,,,false,,,,263473,263472.39999997616,,263471.60000002384,,263486.127,8,400,,,
break_continue,html.Screen,4_48_2,2023-08-21T17:42:54.773Z,,0,,,NaN,,,,,,false,,,,263474,263473.6999999881,,263473.39999997616,,263486.127,8,400,,,
sequence,flow.Sequence,4_48,2023-08-21T17:42:54.774Z,,0,,,6667.363999988069,completion,,,,,false,,,,263474.3000000119,263473.6999999881,256789.635,256799.5,256806.336,263486.127,8,400,,,
trial,html.Screen,4_49_0,2023-08-21T17:43:01.418Z,,0,1,,6632.373000000021,response,ISIC_5644242.JPG,,ISIC_4529092.JPG,ISIC_4529092.JPG,false,0,keypress(z),500,270118.60000002384,270118.5,263469.568,263474.60000002384,263486.127,270132.565,8,400,50,,ISIC_5644242.JPG
break,html.Screen,4_49_1,2023-08-21T17:43:06.409Z,,0,,,4993.004000000015,timeout,,,,,false,,,,275109.60000002384,275108.683,270115.779,270118.6999999881,270132.565,275125.569,8,400,,,
break_continue,html.Screen,4_49_2,2023-08-21T17:43:07.398Z,,0,,,957.6309999880614,response,,,,,false,continue,keypress(Space),,276098.10000002384,276083.1999999881,275108.683,275109.8000000119,275125.569,276110.916,8,400,,,
sequence,flow.Sequence,4_49,2023-08-21T17:43:07.398Z,,0,,,12597.0729999881,completion,,,,,false,,,,276098.3000000119,276083.1999999881,263469.568,263474.39999997616,263486.127,276110.916,8,400,,,
trial,html.Screen,4_50_0,2023-08-21T17:43:10.304Z,,0,2,,2893.5839999999735,response,ISIC_5931552.JPG,,ISIC_1305537.JPG,ISIC_5931552.JPG,false,1,keypress(m),500,279004.89999997616,279004.5,276094.007,276098.39999997616,276110.916,279016.293,8,400,1,,ISIC_1305537.JPG
break,html.Screen,4_50_1,2023-08-21T17:43:10.306Z,,0,,,NaN,,,,,,false,,,,279006.5,279006.10000002384,,279005.3000000119,,279016.293,8,400,,,
break_continue,html.Screen,4_50_2,2023-08-21T17:43:10.307Z,,0,,,NaN,,,,,,false,,,,279007.39999997616,279007.10000002384,,279006.8000000119,,279016.293,8,400,,,
sequence,flow.Sequence,4_50,2023-08-21T17:43:10.307Z,,0,,,2896.1840000238153,completion,,,,,false,,,,279007.6999999881,279007.10000002384,276094.007,276098.39999997616,276110.916,279016.293,8,400,,,
trial,html.Screen,4_51_0,2023-08-21T17:43:13.482Z,,0,2,,3166.106999976153,response,ISIC_3481133.JPG,,ISIC_5230371.JPG,ISIC_3481133.JPG,false,1,keypress(m),500,282182.8000000119,282182.39999997616,278999.722,279008,279016.293,282189.048,8,400,2,,ISIC_5230371.JPG
break,html.Screen,4_51_1,2023-08-21T17:43:13.484Z,,0,,,NaN,,,,,,false,,,,282184.5,282184,,282183.1999999881,,282189.048,8,400,,,
break_continue,html.Screen,4_51_2,2023-08-21T17:43:13.485Z,,0,,,NaN,,,,,,false,,,,282185.3000000119,282185.10000002384,,282184.6999999881,,282189.048,8,400,,,
sequence,flow.Sequence,4_51,2023-08-21T17:43:13.485Z,,0,,,3168.8070000238367,completion,,,,,false,,,,282185.6999999881,282185.10000002384,278999.722,279008,279016.293,282189.048,8,400,,,
trial,html.Screen,4_52_0,2023-08-21T17:43:18.736Z,,0,2,,5247.052000023832,response,ISIC_0072564.JPG,,ISIC_0011500.JPG,ISIC_0011500.JPG,false,0,keypress(z),500,287436.39999997616,287436.10000002384,282172.564,282186,282189.048,287449.397,8,400,3,,ISIC_0072564.JPG
break,html.Screen,4_52_1,2023-08-21T17:43:18.737Z,,0,,,NaN,,,,,,false,,,,287438.10000002384,287437.60000002384,,287436.89999997616,,287449.397,8,400,,,
break_continue,html.Screen,4_52_2,2023-08-21T17:43:18.739Z,,0,,,NaN,,,,,,false,,,,287439.1999999881,287438.89999997616,,287438.3000000119,,287449.397,8,400,,,
sequence,flow.Sequence,4_52,2023-08-21T17:43:18.739Z,,0,,,5249.851999976148,completion,,,,,false,,,,287439.5,287438.89999997616,282172.564,282185.8000000119,282189.048,287449.397,8,400,,,
trial,html.Screen,4_53_0,2023-08-21T17:43:22.649Z,,0,2,,3900.302999988082,response,ISIC_0070210.JPG,,ISIC_2514994.JPG,ISIC_0070210.JPG,false,1,keypress(m),500,291349.89999997616,291349.6999999881,287432.603,287439.89999997616,287449.397,291357.061,8,400,4,,ISIC_2514994.JPG
break,html.Screen,4_53_1,2023-08-21T17:43:22.650Z,,0,,,NaN,,,,,,false,,,,291350.39999997616,291350.1999999881,,291349.89999997616,,291357.061,8,400,,,
break_continue,html.Screen,4_53_2,2023-08-21T17:43:22.650Z,,0,,,NaN,,,,,,false,,,,291350.8000000119,291350.6999999881,,291350.60000002384,,291357.061,8,400,,,
sequence,flow.Sequence,4_53,2023-08-21T17:43:22.650Z,,0,,,3901.302999988082,completion,,,,,false,,,,291350.89999997616,291350.6999999881,287432.603,287439.8000000119,287449.397,291357.061,8,400,,,
trial,html.Screen,4_54_0,2023-08-21T17:43:25.476Z,,0,2,,2818.939000000013,response,ISIC_0257447.JPG,,ISIC_8773478.JPG,ISIC_0257447.JPG,false,1,keypress(m),500,294176.3000000119,294176,291340.21,291350.89999997616,291357.061,294179.153,8,400,5,,ISIC_8773478.JPG
break,html.Screen,4_54_1,2023-08-21T17:43:25.477Z,,0,,,NaN,,,,,,false,,,,294178.10000002384,294177.60000002384,,294176.89999997616,,294179.153,8,400,,,
break_continue,html.Screen,4_54_2,2023-08-21T17:43:25.478Z,,0,,,NaN,,,,,,false,,,,294178.89999997616,294178.8000000119,,294178.39999997616,,294179.153,8,400,,,
sequence,flow.Sequence,4_54,2023-08-21T17:43:25.479Z,,0,,,2821.739000011934,completion,,,,,false,,,,294179.39999997616,294178.8000000119,291340.21,291350.89999997616,291357.061,294179.153,8,400,,,
trial,html.Screen,4_55_0,2023-08-21T17:43:29.213Z,,0,2,,3733.546999988088,response,ISIC_0028976.JPG,,ISIC_4874581.JPG,ISIC_0028976.JPG,false,1,keypress(m),500,297913.1999999881,297912.6999999881,294162.517,294179.8000000119,294179.153,297919.782,8,400,6,,ISIC_4874581.JPG
break,html.Screen,4_55_1,2023-08-21T17:43:29.214Z,,0,,,NaN,,,,,,false,,,,297914.89999997616,297914.3000000119,,297913.5,,297919.782,8,400,,,
break_continue,html.Screen,4_55_2,2023-08-21T17:43:29.215Z,,0,,,NaN,,,,,,false,,,,297915.6999999881,297915.5,,297915.10000002384,,297919.782,8,400,,,
sequence,flow.Sequence,4_55,2023-08-21T17:43:29.215Z,,0,,,3736.347000000009,completion,,,,,false,,,,297916.10000002384,297915.5,294162.517,294179.6999999881,294179.153,297919.782,8,400,,,
trial,html.Screen,4_56_0,2023-08-21T17:43:32.486Z,,0,2,,3266.8180000238353,response,ISIC_0026544.JPG,,ISIC_9727132.JPG,ISIC_0026544.JPG,false,1,keypress(m),500,301187,301186.60000002384,297903.179,297916.39999997616,297919.782,301192.841,8,400,7,,ISIC_9727132.JPG
break,html.Screen,4_56_1,2023-08-21T17:43:32.488Z,,0,,,NaN,,,,,,false,,,,301188.60000002384,301188.10000002384,,301187.3000000119,,301192.841,8,400,,,
break_continue,html.Screen,4_56_2,2023-08-21T17:43:32.489Z,,0,,,NaN,,,,,,false,,,,301189.39999997616,301189.10000002384,,301188.8000000119,,301192.841,8,400,,,
sequence,flow.Sequence,4_56,2023-08-21T17:43:32.489Z,,0,,,3269.3180000238353,completion,,,,,false,,,,301189.6999999881,301189.10000002384,297903.179,297916.1999999881,297919.782,301192.841,8,400,,,
trial,html.Screen,4_57_0,2023-08-21T17:43:35.499Z,,0,2,,3005.858999988064,response,ISIC_8109460.JPG,,ISIC_7423852.JPG,ISIC_7423852.JPG,false,0,keypress(z),500,304199.1999999881,304198.6999999881,301176.207,301190.10000002384,301192.841,304215.467,8,400,8,,ISIC_8109460.JPG
break,html.Screen,4_57_1,2023-08-21T17:43:35.500Z,,0,,,NaN,,,,,,false,,,,304200.8000000119,304200.3000000119,,304199.60000002384,,304215.467,8,400,,,
break_continue,html.Screen,4_57_2,2023-08-21T17:43:35.501Z,,0,,,NaN,,,,,,false,,,,304201.6999999881,304201.39999997616,,304201.10000002384,,304215.467,8,400,,,
sequence,flow.Sequence,4_57,2023-08-21T17:43:35.501Z,,0,,,3008.5589999761432,completion,,,,,false,,,,304202,304201.39999997616,301176.207,301190,301192.841,304215.467,8,400,,,
trial,html.Screen,4_58_0,2023-08-21T17:43:38.322Z,,0,2,,2807.232999988075,response,ISIC_0029740.JPG,,ISIC_0033501.JPG,ISIC_0029740.JPG,false,1,keypress(m),500,307023.10000002384,307022.6999999881,304198.834,304202.3000000119,304215.467,307037.477,8,400,9,,ISIC_0033501.JPG
break,html.Screen,4_58_1,2023-08-21T17:43:38.324Z,,0,,,NaN,,,,,,false,,,,307024.6999999881,307024.3000000119,,307023.60000002384,,307037.477,8,400,,,
break_continue,html.Screen,4_58_2,2023-08-21T17:43:38.325Z,,0,,,NaN,,,,,,false,,,,307025.60000002384,307025.39999997616,,307025,,307037.477,8,400,,,
sequence,flow.Sequence,4_58,2023-08-21T17:43:38.325Z,,0,,,2809.932999976154,completion,,,,,false,,,,307025.89999997616,307025.39999997616,304198.834,304202.3000000119,304215.467,307037.477,8,400,,,
trial,html.Screen,4_59_0,2023-08-21T17:43:41.834Z,,0,2,,3497.0229999999865,response,ISIC_0011988.JPG,,ISIC_4529092.JPG,ISIC_0011988.JPG,false,1,keypress(m),500,310534.89999997616,310534.5,307020.771,307026.3000000119,307037.477,310544.222,8,400,10,,ISIC_4529092.JPG
break,html.Screen,4_59_1,2023-08-21T17:43:41.836Z,,0,,,NaN,,,,,,false,,,,310536.60000002384,310536.10000002384,,310535.3000000119,,310544.222,8,400,,,
break_continue,html.Screen,4_59_2,2023-08-21T17:43:41.837Z,,0,,,NaN,,,,,,false,,,,310537.5,310537.3000000119,,310536.89999997616,,310544.222,8,400,,,
sequence,flow.Sequence,4_59,2023-08-21T17:43:41.837Z,,0,,,3499.8230000119074,completion,,,,,false,,,,310537.89999997616,310537.3000000119,307020.771,307026.10000002384,307037.477,310544.222,8,400,,,
trial,html.Screen,4_60_0,2023-08-21T17:43:44.593Z,,0,2,,2748.97799998807,response,ISIC_0054559.JPG,,ISIC_1039970.JPG,ISIC_0054559.JPG,false,1,keypress(m),500,313293.3000000119,313293.1999999881,310527.729,310538.10000002384,310544.222,313299.573,8,400,11,,ISIC_1039970.JPG
break,html.Screen,4_60_1,2023-08-21T17:43:44.593Z,,0,,,NaN,,,,,,false,,,,313294,313293.8000000119,,313293.39999997616,,313299.573,8,400,,,
break_continue,html.Screen,4_60_2,2023-08-21T17:43:44.594Z,,0,,,NaN,,,,,,false,,,,313294.39999997616,313294.3000000119,,313294.1999999881,,313299.573,8,400,,,
sequence,flow.Sequence,4_60,2023-08-21T17:43:44.594Z,,0,,,2750.078000011912,completion,,,,,false,,,,313294.60000002384,313294.3000000119,310527.729,310538,310544.222,313299.573,8,400,,,
trial,html.Screen,4_61_0,2023-08-21T17:43:50.125Z,,0,2,,5525.527000023867,response,ISIC_0067953.JPG,,ISIC_1330008.JPG,ISIC_0067953.JPG,false,1,keypress(m),500,318825.60000002384,318825.10000002384,313282.913,313294.60000002384,313299.573,318860.49,8,400,12,,ISIC_1330008.JPG
break,html.Screen,4_61_1,2023-08-21T17:43:50.127Z,,0,,,NaN,,,,,,false,,,,318827.3000000119,318826.8000000119,,318826,,318860.49,8,400,,,
break_continue,html.Screen,4_61_2,2023-08-21T17:43:50.128Z,,0,,,NaN,,,,,,false,,,,318828.1999999881,318827.89999997616,,318827.5,,318860.49,8,400,,,
sequence,flow.Sequence,4_61,2023-08-21T17:43:50.128Z,,0,,,5528.326999976183,completion,,,,,false,,,,318828.60000002384,318827.89999997616,313282.913,313294.60000002384,313299.573,318860.49,8,400,,,
trial,html.Screen,4_62_0,2023-08-21T17:43:53.245Z,,0,2,,3085.110000023851,response,ISIC_2029418.JPG,,ISIC_0647224.JPG,ISIC_0647224.JPG,false,0,keypress(z),500,321945.6999999881,321945.60000002384,318843.733,318828.8000000119,318860.49,321949.743,8,400,13,,ISIC_2029418.JPG
break,html.Screen,4_62_1,2023-08-21T17:43:53.246Z,,0,,,NaN,,,,,,false,,,,321946.3000000119,321946.10000002384,,321945.8000000119,,321949.743,8,400,,,
break_continue,html.Screen,4_62_2,2023-08-21T17:43:53.246Z,,0,,,NaN,,,,,,false,,,,321946.6999999881,321946.5,,321946.5,,321949.743,8,400,,,
sequence,flow.Sequence,4_62,2023-08-21T17:43:53.246Z,,0,,,3086.0100000000093,completion,,,,,false,,,,321946.6999999881,321946.5,318843.733,318828.8000000119,318860.49,321949.743,8,400,,,
trial,html.Screen,4_63_0,2023-08-21T17:43:56.474Z,,0,2,,3224.357000023825,response,ISIC_4074537.JPG,,ISIC_0059041.JPG,ISIC_0059041.JPG,false,0,keypress(z),500,325174.5,325174.10000002384,321933.137,321946.8000000119,321949.743,325189.377,8,400,14,,ISIC_4074537.JPG
break,html.Screen,4_63_1,2023-08-21T17:43:56.476Z,,0,,,NaN,,,,,,false,,,,325176.10000002384,325175.6999999881,,325174.89999997616,,325189.377,8,400,,,
break_continue,html.Screen,4_63_2,2023-08-21T17:43:56.477Z,,0,,,NaN,,,,,,false,,,,325177,325176.6999999881,,325176.39999997616,,325189.377,8,400,,,
sequence,flow.Sequence,4_63,2023-08-21T17:43:56.477Z,,0,,,3226.9569999880623,completion,,,,,false,,,,325177.3000000119,325176.6999999881,321933.137,321946.8000000119,321949.743,325189.377,8,400,,,
trial,html.Screen,4_64_0,2023-08-21T17:43:59.517Z,,0,2,,3027.4230000119423,response,ISIC_5388485.JPG,,ISIC_6192289.JPG,ISIC_5388485.JPG,false,1,keypress(m),500,328216.89999997616,328216.8000000119,325172.823,325177.60000002384,325189.377,328228.837,8,400,15,,ISIC_6192289.JPG
break,html.Screen,4_64_1,2023-08-21T17:43:59.517Z,,0,,,NaN,,,,,,false,,,,328217.39999997616,328217.1999999881,,328217,,328228.837,8,400,,,
break_continue,html.Screen,4_64_2,2023-08-21T17:43:59.517Z,,0,,,NaN,,,,,,false,,,,328217.6999999881,328217.6999999881,,328217.5,,328228.837,8,400,,,
sequence,flow.Sequence,4_64,2023-08-21T17:43:59.518Z,,0,,,3028.3229999881005,completion,,,,,false,,,,328217.8000000119,328217.6999999881,325172.823,325177.60000002384,325189.377,328228.837,8,400,,,
trial,html.Screen,4_65_0,2023-08-21T17:44:05.061Z,,0,2,,5532.763000023842,response,ISIC_3433060.JPG,,ISIC_0031752.JPG,ISIC_0031752.JPG,false,0,keypress(z),500,333761.8000000119,333761.60000002384,328212.134,328217.89999997616,328228.837,333772.918,8,400,16,,ISIC_3433060.JPG
break,html.Screen,4_65_1,2023-08-21T17:44:05.062Z,,0,,,NaN,,,,,,false,,,,333762.60000002384,333762.3000000119,,333761.89999997616,,333772.918,8,400,,,
break_continue,html.Screen,4_65_2,2023-08-21T17:44:05.063Z,,0,,,NaN,,,,,,false,,,,333762.89999997616,333762.89999997616,,333762.6999999881,,333772.918,8,400,,,
sequence,flow.Sequence,4_65,2023-08-21T17:44:05.063Z,,0,,,5534.062999976159,completion,,,,,false,,,,333763,333762.89999997616,328212.134,328217.89999997616,328228.837,333772.918,8,400,,,
trial,html.Screen,4_66_0,2023-08-21T17:44:08.343Z,,0,2,,3270.1820000238367,response,ISIC_6625102.JPG,,ISIC_2739449.JPG,ISIC_2739449.JPG,false,0,keypress(z),500,337043.39999997616,337043.10000002384,333756.117,333763.10000002384,333772.918,337063.096,8,400,17,,ISIC_6625102.JPG
break,html.Screen,4_66_1,2023-08-21T17:44:08.345Z,,0,,,NaN,,,,,,false,,,,337045,337044.6999999881,,337043.89999997616,,337063.096,8,400,,,
break_continue,html.Screen,4_66_2,2023-08-21T17:44:08.346Z,,0,,,NaN,,,,,,false,,,,337046.10000002384,337045.6999999881,,337045.3000000119,,337063.096,8,400,,,
sequence,flow.Sequence,4_66,2023-08-21T17:44:08.346Z,,0,,,3272.781999988074,completion,,,,,false,,,,337046.39999997616,337045.6999999881,333756.117,333763.10000002384,333772.918,337063.096,8,400,,,
trial,html.Screen,4_67_0,2023-08-21T17:44:15.455Z,,0,2,,7092.303999976139,response,ISIC_1023339.JPG,,ISIC_4966865.JPG,ISIC_1023339.JPG,false,1,keypress(m),500,344155.6999999881,344155.39999997616,337029.219,337046.60000002384,337063.096,344159.728,8,400,18,,ISIC_4966865.JPG
break,html.Screen,4_67_1,2023-08-21T17:44:15.457Z,,0,,,NaN,,,,,,false,,,,344157.39999997616,344156.89999997616,,344156.1999999881,,344159.728,8,400,,,
break_continue,html.Screen,4_67_2,2023-08-21T17:44:15.458Z,,0,,,NaN,,,,,,false,,,,344158.3000000119,344158.10000002384,,344157.60000002384,,344159.728,8,400,,,
sequence,flow.Sequence,4_67,2023-08-21T17:44:15.458Z,,0,,,7095.004000023822,completion,,,,,false,,,,344158.60000002384,344158.10000002384,337029.219,337046.60000002384,337063.096,344159.728,8,400,,,
trial,html.Screen,4_68_0,2023-08-21T17:44:22.263Z,,0,2,,6803.271999999997,response,ISIC_0026770.JPG,,ISIC_0024427.JPG,ISIC_0026770.JPG,false,1,keypress(m),500,350963.3000000119,350963,344143.129,344158.89999997616,344159.728,350972.913,8,400,19,,ISIC_0024427.JPG
break,html.Screen,4_68_1,2023-08-21T17:44:22.265Z,,0,,,NaN,,,,,,false,,,,350965.10000002384,350964.60000002384,,350963.8000000119,,350972.913,8,400,,,
break_continue,html.Screen,4_68_2,2023-08-21T17:44:22.266Z,,0,,,NaN,,,,,,false,,,,350965.89999997616,350965.6999999881,,350965.3000000119,,350972.913,8,400,,,
sequence,flow.Sequence,4_68,2023-08-21T17:44:22.266Z,,0,,,6805.971999988076,completion,,,,,false,,,,350966.3000000119,350965.6999999881,344143.129,344158.8000000119,344159.728,350972.913,8,400,,,
trial,html.Screen,4_69_0,2023-08-21T17:44:26.595Z,,0,2,,4322.486999976158,response,ISIC_0031999.JPG,,ISIC_0024853.JPG,ISIC_0024853.JPG,false,0,keypress(z),500,355295.6999999881,355295.39999997616,350956.31,350966.5,350972.913,355315.111,8,400,20,,ISIC_0031999.JPG
break,html.Screen,4_69_1,2023-08-21T17:44:26.597Z,,0,,,NaN,,,,,,false,,,,355297.3000000119,355296.89999997616,,355296.1999999881,,355315.111,8,400,,,
break_continue,html.Screen,4_69_2,2023-08-21T17:44:26.598Z,,0,,,NaN,,,,,,false,,,,355298.1999999881,355298,,355297.60000002384,,355315.111,8,400,,,
sequence,flow.Sequence,4_69,2023-08-21T17:44:26.598Z,,0,,,4325.0869999999995,completion,,,,,false,,,,355298.60000002384,355298,350956.31,350966.5,350972.913,355315.111,8,400,,,
trial,html.Screen,4_70_0,2023-08-21T17:44:29.380Z,,0,2,,2765.288999976183,response,ISIC_0009975.JPG,,ISIC_1200689.JPG,ISIC_0009975.JPG,false,1,keypress(m),500,358080.6999999881,358080.39999997616,355281.362,355298.89999997616,355315.111,358086.744,8,400,21,,ISIC_1200689.JPG
break,html.Screen,4_70_1,2023-08-21T17:44:29.382Z,,0,,,NaN,,,,,,false,,,,358082,358081.60000002384,,358081,,358086.744,8,400,,,
break_continue,html.Screen,4_70_2,2023-08-21T17:44:29.382Z,,0,,,NaN,,,,,,false,,,,358082.6999999881,358082.39999997616,,358082.1999999881,,358086.744,8,400,,,
sequence,flow.Sequence,4_70,2023-08-21T17:44:29.383Z,,0,,,2767.288999976183,completion,,,,,false,,,,358082.8000000119,358082.39999997616,355281.362,355298.8000000119,355315.111,358086.744,8,400,,,
trial,html.Screen,4_71_0,2023-08-21T17:44:36.855Z,,0,2,,7468.356000023836,response,ISIC_0028239.JPG,,ISIC_6323420.JPG,ISIC_6323420.JPG,false,0,keypress(z),500,365555.1999999881,365555.10000002384,358069.993,358083.10000002384,358086.744,365567.975,8,400,22,,ISIC_0028239.JPG
break,html.Screen,4_71_1,2023-08-21T17:44:36.855Z,,0,,,NaN,,,,,,false,,,,365555.6999999881,365555.60000002384,,365555.1999999881,,365567.975,8,400,,,
break_continue,html.Screen,4_71_2,2023-08-21T17:44:36.855Z,,0,,,NaN,,,,,,false,,,,365555.8000000119,365555.8000000119,,365555.6999999881,,365567.975,8,400,,,
sequence,flow.Sequence,4_71,2023-08-21T17:44:36.856Z,,0,,,7469.056000011915,completion,,,,,false,,,,365555.89999997616,365555.8000000119,358069.993,358083.10000002384,358086.744,365567.975,8,400,,,
trial,html.Screen,4_72_0,2023-08-21T17:44:40.087Z,,0,2,,3218.5250000000233,response,ISIC_0070588.JPG,,ISIC_0063151.JPG,ISIC_0070588.JPG,false,1,keypress(m),500,368786.89999997616,368786.5,365551.226,365556,365567.975,368790.95,8,400,23,,ISIC_0063151.JPG
break,html.Screen,4_72_1,2023-08-21T17:44:40.088Z,,0,,,NaN,,,,,,false,,,,368788.39999997616,368788,,368787.3000000119,,368790.95,8,400,,,
break_continue,html.Screen,4_72_2,2023-08-21T17:44:40.089Z,,0,,,NaN,,,,,,false,,,,368789.1999999881,368789,,368788.60000002384,,368790.95,8,400,,,
sequence,flow.Sequence,4_72,2023-08-21T17:44:40.089Z,,0,,,3221.0250000000233,completion,,,,,false,,,,368789.5,368789,365551.226,365556,365567.975,368790.95,8,400,,,
trial,html.Screen,4_73_0,2023-08-21T17:44:43.529Z,,0,2,,3438.2499999880674,response,ISIC_8630818.JPG,,ISIC_1745182.JPG,ISIC_8630818.JPG,false,1,keypress(m),500,372229.5,372229.1999999881,368774.476,368789.60000002384,368790.95,372247.771,8,400,24,,ISIC_1745182.JPG
break,html.Screen,4_73_1,2023-08-21T17:44:43.531Z,,0,,,NaN,,,,,,false,,,,372231.10000002384,372230.6999999881,,372229.89999997616,,372247.771,8,400,,,
break_continue,html.Screen,4_73_2,2023-08-21T17:44:43.532Z,,0,,,NaN,,,,,,false,,,,372232,372231.60000002384,,372231.3000000119,,372247.771,8,400,,,
sequence,flow.Sequence,4_73,2023-08-21T17:44:43.532Z,,0,,,3440.65000002383,completion,,,,,false,,,,372232.39999997616,372231.60000002384,368774.476,368789.60000002384,368790.95,372247.771,8,400,,,
trial,html.Screen,4_74_0,2023-08-21T17:44:47.124Z,,0,2,,3576.529000011913,response,ISIC_0011099.JPG,,ISIC_0067226.JPG,ISIC_0011099.JPG,false,1,keypress(m),500,375824.6999999881,375824.3000000119,372230.92,372232.60000002384,372247.771,375838.059,8,400,25,,ISIC_0067226.JPG
break,html.Screen,4_74_1,2023-08-21T17:44:47.126Z,,0,,,NaN,,,,,,false,,,,375826.39999997616,375825.8000000119,,375825.10000002384,,375838.059,8,400,,,
break_continue,html.Screen,4_74_2,2023-08-21T17:44:47.127Z,,0,,,NaN,,,,,,false,,,,375827.1999999881,375827,,375826.5,,375838.059,8,400,,,
sequence,flow.Sequence,4_74,2023-08-21T17:44:47.127Z,,0,,,3579.228999999992,completion,,,,,false,,,,375827.60000002384,375827,372230.92,372232.60000002384,372247.771,375838.059,8,400,,,
trial,html.Screen,4_75_0,2023-08-21T17:44:54.556Z,,0,2,,7417.741000011913,response,ISIC_0072157.JPG,,ISIC_0068176.JPG,ISIC_0068176.JPG,false,0,keypress(z),500,383256,383255.8000000119,375821.416,375827.8000000119,375838.059,383269.075,8,400,26,,ISIC_0072157.JPG
break,html.Screen,4_75_1,2023-08-21T17:44:54.557Z,,0,,,NaN,,,,,,false,,,,383257.3000000119,383256.89999997616,,383256.3000000119,,383269.075,8,400,,,
break_continue,html.Screen,4_75_2,2023-08-21T17:44:54.558Z,,0,,,NaN,,,,,,false,,,,383258,383257.8000000119,,383257.5,,383269.075,8,400,,,
sequence,flow.Sequence,4_75,2023-08-21T17:44:54.558Z,,0,,,7419.741000011913,completion,,,,,false,,,,383258.3000000119,383257.8000000119,375821.416,375827.8000000119,375838.059,383269.075,8,400,,,
trial,html.Screen,4_76_0,2023-08-21T17:44:58.841Z,,0,2,,4271.924999999988,response,ISIC_0000029.JPG,,ISIC_1788979.JPG,ISIC_0000029.JPG,false,1,keypress(m),500,387541.5,387541,383252.508,383258.5,383269.075,387562.376,8,400,27,,ISIC_1788979.JPG
break,html.Screen,4_76_1,2023-08-21T17:44:58.843Z,,0,,,NaN,,,,,,false,,,,387543.60000002384,387543.10000002384,,387542.3000000119,,387562.376,8,400,,,
break_continue,html.Screen,4_76_2,2023-08-21T17:44:58.844Z,,0,,,NaN,,,,,,false,,,,387544.5,387544.3000000119,,387543.89999997616,,387562.376,8,400,,,
sequence,flow.Sequence,4_76,2023-08-21T17:44:58.845Z,,0,,,4275.225000011909,completion,,,,,false,,,,387545,387544.3000000119,383252.508,383258.39999997616,383269.075,387562.376,8,400,,,
trial,html.Screen,4_77_0,2023-08-21T17:45:02.026Z,,0,2,,3163.023999976169,response,ISIC_6569060.JPG,,ISIC_0011128.JPG,ISIC_0011128.JPG,false,0,keypress(z),500,390725.89999997616,390725.39999997616,387527.534,387545.1999999881,387562.376,390733.533,8,400,28,,ISIC_6569060.JPG
break,html.Screen,4_77_1,2023-08-21T17:45:02.028Z,,0,,,NaN,,,,,,false,,,,390728.3000000119,390727.6999999881,,390726.60000002384,,390733.533,8,400,,,
break_continue,html.Screen,4_77_2,2023-08-21T17:45:02.029Z,,0,,,NaN,,,,,,false,,,,390729,390728.89999997616,,390728.6999999881,,390733.533,8,400,,,
sequence,flow.Sequence,4_77,2023-08-21T17:45:02.029Z,,0,,,3166.523999976169,completion,,,,,false,,,,390729.10000002384,390728.89999997616,387527.534,387545.1999999881,387562.376,390733.533,8,400,,,
trial,html.Screen,4_78_0,2023-08-21T17:45:04.787Z,,0,2,,2753.267000011925,response,ISIC_5821293.JPG,,ISIC_0065351.JPG,ISIC_5821293.JPG,false,1,keypress(m),500,393487.10000002384,393486.8000000119,390717.206,390729.1999999881,390733.533,393505.93,8,400,29,,ISIC_0065351.JPG
break,html.Screen,4_78_1,2023-08-21T17:45:04.789Z,,0,,,NaN,,,,,,false,,,,393488.8000000119,393488.39999997616,,393487.60000002384,,393505.93,8,400,,,
break_continue,html.Screen,4_78_2,2023-08-21T17:45:04.789Z,,0,,,NaN,,,,,,false,,,,393489.6999999881,393489.39999997616,,393489.10000002384,,393505.93,8,400,,,
sequence,flow.Sequence,4_78,2023-08-21T17:45:04.790Z,,0,,,2755.8669999761623,completion,,,,,false,,,,393490.10000002384,393489.39999997616,390717.206,390729.1999999881,390733.533,393505.93,8,400,,,
trial,html.Screen,4_79_0,2023-08-21T17:45:08.124Z,,0,2,,3318.570000000007,response,ISIC_1850388.JPG,,ISIC_6784593.JPG,ISIC_6784593.JPG,false,0,keypress(z),500,396824.60000002384,396824.5,393472.407,393490.3000000119,393505.93,396828.741,8,400,30,,ISIC_1850388.JPG
break,html.Screen,4_79_1,2023-08-21T17:45:08.125Z,,0,,,NaN,,,,,,false,,,,396825,396824.89999997616,,396824.6999999881,,396828.741,8,400,,,
break_continue,html.Screen,4_79_2,2023-08-21T17:45:08.125Z,,0,,,NaN,,,,,,false,,,,396825.1999999881,396825.1999999881,,396825.10000002384,,396828.741,8,400,,,
sequence,flow.Sequence,4_79,2023-08-21T17:45:08.126Z,,0,,,3319.269999988086,completion,,,,,false,,,,396825.89999997616,396825.1999999881,393472.407,393490.3000000119,393505.93,396828.741,8,400,,,
trial,html.Screen,4_80_0,2023-08-21T17:45:12.997Z,,0,2,,4868.059000011941,response,ISIC_0013427.JPG,,ISIC_0013740.JPG,ISIC_0013740.JPG,false,0,keypress(z),500,401697,401696.8000000119,396812.241,396826,396828.741,401721.731,8,400,31,,ISIC_0013427.JPG
break,html.Screen,4_80_1,2023-08-21T17:45:12.998Z,,0,,,NaN,,,,,,false,,,,401697.8000000119,401697.5,,401697.1999999881,,401721.731,8,400,,,
break_continue,html.Screen,4_80_2,2023-08-21T17:45:12.998Z,,0,,,NaN,,,,,,false,,,,401698.10000002384,401698.10000002384,,401697.89999997616,,401721.731,8,400,,,
sequence,flow.Sequence,4_80,2023-08-21T17:45:12.998Z,,0,,,4869.359000023862,completion,,,,,false,,,,401698.1999999881,401698.10000002384,396812.241,396826,396828.741,401721.731,8,400,,,
trial,html.Screen,4_81_0,2023-08-21T17:45:16.181Z,,0,2,,3159.46899998805,response,ISIC_0069595.JPG,,ISIC_3249783.JPG,ISIC_0069595.JPG,false,1,keypress(m),500,404881.3000000119,404881.1999999881,401705.055,401698.3000000119,401721.731,404894.395,8,400,32,,ISIC_3249783.JPG
break,html.Screen,4_81_1,2023-08-21T17:45:16.182Z,,0,,,NaN,,,,,,false,,,,404881.89999997616,404881.6999999881,,404881.5,,404894.395,8,400,,,
break_continue,html.Screen,4_81_2,2023-08-21T17:45:16.182Z,,0,,,NaN,,,,,,false,,,,404882.10000002384,404882.10000002384,,404882,,404894.395,8,400,,,
sequence,flow.Sequence,4_81,2023-08-21T17:45:16.182Z,,0,,,3160.369000023813,completion,,,,,false,,,,404882.1999999881,404882.10000002384,401705.055,401698.3000000119,401721.731,404894.395,8,400,,,
trial,html.Screen,4_82_0,2023-08-21T17:45:22.574Z,,0,2,,6379.5049999761395,response,ISIC_0070731.JPG,,ISIC_0030754.JPG,ISIC_0030754.JPG,false,0,keypress(z),500,411274.3000000119,411273.89999997616,404877.766,404882.3000000119,404894.395,411290.251,8,400,33,,ISIC_0070731.JPG
break,html.Screen,4_82_1,2023-08-21T17:45:22.576Z,,0,,,NaN,,,,,,false,,,,411275.89999997616,411275.39999997616,,411274.6999999881,,411290.251,8,400,,,
break_continue,html.Screen,4_82_2,2023-08-21T17:45:22.577Z,,0,,,NaN,,,,,,false,,,,411276.8000000119,411276.60000002384,,411276.10000002384,,411290.251,8,400,,,
sequence,flow.Sequence,4_82,2023-08-21T17:45:22.577Z,,0,,,6382.205000023823,completion,,,,,false,,,,411277.1999999881,411276.60000002384,404877.766,404882.3000000119,404894.395,411290.251,8,400,,,
trial,html.Screen,4_83_0,2023-08-21T17:45:29.396Z,,0,2,,6806.049000011932,response,ISIC_0543351.JPG,,ISIC_0031324.JPG,ISIC_0031324.JPG,false,0,keypress(z),500,418096.6999999881,418096.3000000119,411273.638,411277.39999997616,411290.251,418103.566,8,400,34,,ISIC_0543351.JPG
break,html.Screen,4_83_1,2023-08-21T17:45:29.398Z,,0,,,NaN,,,,,,false,,,,418098.5,418098,,418097.10000002384,,418103.566,8,400,,,
break_continue,html.Screen,4_83_2,2023-08-21T17:45:29.399Z,,0,,,NaN,,,,,,false,,,,418099.39999997616,418099.10000002384,,418098.6999999881,,418103.566,8,400,,,
sequence,flow.Sequence,4_83,2023-08-21T17:45:29.399Z,,0,,,6808.849000023853,completion,,,,,false,,,,418099.6999999881,418099.10000002384,411273.638,411277.3000000119,411290.251,418103.566,8,400,,,
trial,html.Screen,4_84_0,2023-08-21T17:45:32.215Z,,0,2,,2811.7340000119293,response,ISIC_0962787.JPG,,ISIC_0073115.JPG,ISIC_0073115.JPG,false,0,keypress(z),500,420915.6999999881,420915.3000000119,418086.914,418100,418103.566,420925.783,8,400,35,,ISIC_0962787.JPG
break,html.Screen,4_84_1,2023-08-21T17:45:32.217Z,,0,,,NaN,,,,,,false,,,,420917.3000000119,420916.89999997616,,420916.10000002384,,420925.783,8,400,,,
break_continue,html.Screen,4_84_2,2023-08-21T17:45:32.218Z,,0,,,NaN,,,,,,false,,,,420918.1999999881,420917.89999997616,,420917.60000002384,,420925.783,8,400,,,
sequence,flow.Sequence,4_84,2023-08-21T17:45:32.218Z,,0,,,2814.3339999761665,completion,,,,,false,,,,420918.60000002384,420917.89999997616,418086.914,418100,418103.566,420925.783,8,400,,,
trial,html.Screen,4_85_0,2023-08-21T17:45:35.473Z,,0,2,,3247.1169999761623,response,ISIC_0055287.JPG,,ISIC_0000043.JPG,ISIC_0000043.JPG,false,0,keypress(z),500,424173.39999997616,424172.89999997616,420909.062,420918.8000000119,420925.783,424182.013,8,400,36,,ISIC_0055287.JPG
break,html.Screen,4_85_1,2023-08-21T17:45:35.475Z,,0,,,NaN,,,,,,false,,,,424175,424174.60000002384,,424173.6999999881,,424182.013,8,400,,,
break_continue,html.Screen,4_85_2,2023-08-21T17:45:35.476Z,,0,,,NaN,,,,,,false,,,,424175.89999997616,424175.60000002384,,424175.1999999881,,424182.013,8,400,,,
sequence,flow.Sequence,4_85,2023-08-21T17:45:35.476Z,,0,,,3249.817000023846,completion,,,,,false,,,,424176.1999999881,424175.60000002384,420909.062,420918.6999999881,420925.783,424182.013,8,400,,,
trial,html.Screen,4_86_0,2023-08-21T17:45:39.483Z,,0,2,,4000.886999976181,response,ISIC_9646599.JPG,,ISIC_7299025.JPG,ISIC_7299025.JPG,false,0,keypress(z),500,428183.1999999881,428182.89999997616,424165.413,424176.5,424182.013,428189.84,8,400,37,,ISIC_9646599.JPG
break,html.Screen,4_86_1,2023-08-21T17:45:39.484Z,,0,,,NaN,,,,,,false,,,,428183.89999997616,428183.60000002384,,428183.3000000119,,428189.84,8,400,,,
break_continue,html.Screen,4_86_2,2023-08-21T17:45:39.484Z,,0,,,NaN,,,,,,false,,,,428184.3000000119,428184.10000002384,,428184,,428189.84,8,400,,,
sequence,flow.Sequence,4_86,2023-08-21T17:45:39.484Z,,0,,,4002.0870000238647,completion,,,,,false,,,,428184.3000000119,428184.10000002384,424165.413,424176.39999997616,424182.013,428189.84,8,400,,,
trial,html.Screen,4_87_0,2023-08-21T17:45:43.155Z,,0,2,,3664.4600000118953,response,ISIC_1740912.JPG,,ISIC_2987613.JPG,ISIC_2987613.JPG,false,0,keypress(z),500,431854.89999997616,431854.3000000119,428173.273,428184.39999997616,428189.84,431863.668,8,400,38,,ISIC_1740912.JPG
break,html.Screen,4_87_1,2023-08-21T17:45:43.156Z,,0,,,NaN,,,,,,false,,,,431856.60000002384,431856.10000002384,,431855.3000000119,,431863.668,8,400,,,
break_continue,html.Screen,4_87_2,2023-08-21T17:45:43.157Z,,0,,,NaN,,,,,,false,,,,431857.5,431857.1999999881,,431856.89999997616,,431863.668,8,400,,,
sequence,flow.Sequence,4_87,2023-08-21T17:45:43.158Z,,0,,,3667.3599999880535,completion,,,,,false,,,,431857.8000000119,431857.1999999881,428173.273,428184.39999997616,428189.84,431863.668,8,400,,,
trial,html.Screen,4_88_0,2023-08-21T17:45:50.187Z,,0,2,,7023.031999988074,response,ISIC_0033265.JPG,,ISIC_8759726.JPG,ISIC_8759726.JPG,false,0,keypress(z),500,438887.10000002384,438886.6999999881,431846.948,431858.10000002384,431863.668,438893.927,8,400,39,,ISIC_0033265.JPG
break,html.Screen,4_88_1,2023-08-21T17:45:50.189Z,,0,,,NaN,,,,,,false,,,,438888.6999999881,438888.3000000119,,438887.5,,438893.927,8,400,,,
break_continue,html.Screen,4_88_2,2023-08-21T17:45:50.189Z,,0,,,NaN,,,,,,false,,,,438889.60000002384,438889.3000000119,,438889,,438893.927,8,400,,,
sequence,flow.Sequence,4_88,2023-08-21T17:45:50.190Z,,0,,,7025.632000011916,completion,,,,,false,,,,438890,438889.3000000119,431846.948,431858,431863.668,438893.927,8,400,,,
trial,html.Screen,4_89_0,2023-08-21T17:45:53.519Z,,0,2,,3325.272999988054,response,ISIC_0071768.JPG,,ISIC_0059892.JPG,ISIC_0071768.JPG,false,1,keypress(m),500,442219.5,442219.1999999881,438877.307,438890.1999999881,438893.927,442233.737,8,400,40,,ISIC_0059892.JPG
break,html.Screen,4_89_1,2023-08-21T17:45:53.521Z,,0,,,NaN,,,,,,false,,,,442221.39999997616,442220.6999999881,,442220,,442233.737,8,400,,,
break_continue,html.Screen,4_89_2,2023-08-21T17:45:53.522Z,,0,,,NaN,,,,,,false,,,,442222.39999997616,442222.10000002384,,442221.60000002384,,442233.737,8,400,,,
sequence,flow.Sequence,4_89,2023-08-21T17:45:53.522Z,,0,,,3328.1730000238167,completion,,,,,false,,,,442222.8000000119,442222.10000002384,438877.307,438890.1999999881,438893.927,442233.737,8,400,,,
trial,html.Screen,4_90_0,2023-08-21T17:45:58.517Z,,0,2,,4983.462999988056,response,ISIC_5206218.JPG,,ISIC_8535451.JPG,ISIC_8535451.JPG,false,0,keypress(z),500,447217.5,447217.1999999881,442217.359,442223,442233.737,447243.656,8,400,41,,ISIC_5206218.JPG
break,html.Screen,4_90_1,2023-08-21T17:45:58.519Z,,0,,,NaN,,,,,,false,,,,447219.10000002384,447218.6999999881,,447217.89999997616,,447243.656,8,400,,,
break_continue,html.Screen,4_90_2,2023-08-21T17:45:58.520Z,,0,,,NaN,,,,,,false,,,,447220.10000002384,447219.6999999881,,447219.3000000119,,447243.656,8,400,,,
sequence,flow.Sequence,4_90,2023-08-21T17:45:58.520Z,,0,,,4985.962999988056,completion,,,,,false,,,,447220.3000000119,447219.6999999881,442217.359,442223,442233.737,447243.656,8,400,,,
trial,html.Screen,4_91_0,2023-08-21T17:46:01.605Z,,0,2,,3060.8439999999828,response,ISIC_5714411.JPG,,ISIC_2011408.JPG,ISIC_5714411.JPG,false,1,keypress(m),500,450305,450304.5,447226.855,447220.60000002384,447243.656,450316.228,8,400,42,,ISIC_2011408.JPG
break,html.Screen,4_91_1,2023-08-21T17:46:01.607Z,,0,,,NaN,,,,,,false,,,,450306.8000000119,450306.1999999881,,450305.39999997616,,450316.228,8,400,,,
break_continue,html.Screen,4_91_2,2023-08-21T17:46:01.607Z,,0,,,NaN,,,,,,false,,,,450307.6999999881,450307.39999997616,,450307,,450316.228,8,400,,,
sequence,flow.Sequence,4_91,2023-08-21T17:46:01.608Z,,0,,,3063.743999976141,completion,,,,,false,,,,450308,450307.39999997616,447226.855,447220.60000002384,447243.656,450316.228,8,400,,,
trial,html.Screen,4_92_0,2023-08-21T17:46:04.538Z,,0,2,,2921.771999999997,response,ISIC_0070852.JPG,,ISIC_8705622.JPG,ISIC_0070852.JPG,false,1,keypress(m),500,453238.3000000119,453238,450299.624,450308.3000000119,450316.228,453255.373,8,400,43,,ISIC_8705622.JPG
break,html.Screen,4_92_1,2023-08-21T17:46:04.540Z,,0,,,NaN,,,,,,false,,,,453240,453239.60000002384,,453238.8000000119,,453255.373,8,400,,,
break_continue,html.Screen,4_92_2,2023-08-21T17:46:04.541Z,,0,,,NaN,,,,,,false,,,,453240.89999997616,453240.60000002384,,453240.3000000119,,453255.373,8,400,,,
sequence,flow.Sequence,4_92,2023-08-21T17:46:04.541Z,,0,,,2924.372000023839,completion,,,,,false,,,,453241.1999999881,453240.60000002384,450299.624,450308.1999999881,450316.228,453255.373,8,400,,,
trial,html.Screen,4_93_0,2023-08-21T17:46:08.039Z,,0,2,,3482.8269999880577,response,ISIC_3677945.JPG,,ISIC_0071875.JPG,ISIC_0071875.JPG,false,0,keypress(z),500,456738.6999999881,456738.1999999881,453238.73,453241.5,453255.373,456745.434,8,400,44,,ISIC_3677945.JPG
break,html.Screen,4_93_1,2023-08-21T17:46:08.040Z,,0,,,NaN,,,,,,false,,,,456740.3000000119,456739.89999997616,,456739.10000002384,,456745.434,8,400,,,
break_continue,html.Screen,4_93_2,2023-08-21T17:46:08.041Z,,0,,,NaN,,,,,,false,,,,456741.1999999881,456740.89999997616,,456740.5,,456745.434,8,400,,,
sequence,flow.Sequence,4_93,2023-08-21T17:46:08.041Z,,0,,,3485.5269999761367,completion,,,,,false,,,,456741.5,456740.89999997616,453238.73,453241.39999997616,453255.373,456745.434,8,400,,,
trial,html.Screen,4_94_0,2023-08-21T17:46:11.888Z,,0,2,,3842.1660000238335,response,ISIC_8779142.JPG,,ISIC_9094080.JPG,ISIC_9094080.JPG,false,0,keypress(z),500,460588,460587.60000002384,456728.796,456741.8000000119,456745.434,460602.825,8,400,45,,ISIC_8779142.JPG
break,html.Screen,4_94_1,2023-08-21T17:46:11.889Z,,0,,,NaN,,,,,,false,,,,460589.39999997616,460588.89999997616,,460588.1999999881,,460602.825,8,400,,,
break_continue,html.Screen,4_94_2,2023-08-21T17:46:11.890Z,,0,,,NaN,,,,,,false,,,,460590,460589.8000000119,,460589.5,,460602.825,8,400,,,
sequence,flow.Sequence,4_94,2023-08-21T17:46:11.890Z,,0,,,3844.3660000119125,completion,,,,,false,,,,460590.3000000119,460589.8000000119,456728.796,456741.6999999881,456745.434,460602.825,8,400,,,
trial,html.Screen,4_95_0,2023-08-21T17:46:16.899Z,,0,2,,4996.174999999988,response,ISIC_2720426.JPG,,ISIC_8310944.JPG,ISIC_2720426.JPG,false,1,keypress(m),500,465599,465599,460586.356,460590.60000002384,460602.825,465612.56,8,400,46,,ISIC_8310944.JPG
break,html.Screen,4_95_1,2023-08-21T17:46:16.899Z,,0,,,NaN,,,,,,false,,,,465599.60000002384,465599.39999997616,,465599.1999999881,,465612.56,8,400,,,
break_continue,html.Screen,4_95_2,2023-08-21T17:46:16.900Z,,0,,,NaN,,,,,,false,,,,465599.6999999881,465599.60000002384,,465599.60000002384,,465612.56,8,400,,,
sequence,flow.Sequence,4_95,2023-08-21T17:46:16.900Z,,0,,,4996.77500002383,completion,,,,,false,,,,465599.8000000119,465599.60000002384,460586.356,460590.5,460602.825,465612.56,8,400,,,
trial,html.Screen,4_96_0,2023-08-21T17:46:20.724Z,,0,2,,3811.4400000000023,response,ISIC_8161933.JPG,,ISIC_0071931.JPG,ISIC_0071931.JPG,false,0,keypress(z),500,469424.39999997616,469424,465595.851,465599.8000000119,465612.56,469436.752,8,400,47,,ISIC_8161933.JPG
break,html.Screen,4_96_1,2023-08-21T17:46:20.726Z,,0,,,NaN,,,,,,false,,,,469426.10000002384,469425.60000002384,,469424.8000000119,,469436.752,8,400,,,
break_continue,html.Screen,4_96_2,2023-08-21T17:46:20.727Z,,0,,,NaN,,,,,,false,,,,469426.89999997616,469426.6999999881,,469426.3000000119,,469436.752,8,400,,,
sequence,flow.Sequence,4_96,2023-08-21T17:46:20.727Z,,0,,,3814.1399999880814,completion,,,,,false,,,,469427.3000000119,469426.6999999881,465595.851,465599.8000000119,465612.56,469436.752,8,400,,,
trial,html.Screen,4_97_0,2023-08-21T17:46:26.855Z,,0,2,,6118.14799997618,response,ISIC_0030392.JPG,,ISIC_3386753.JPG,ISIC_3386753.JPG,false,0,keypress(z),500,475555.39999997616,475554.89999997616,469420.093,469427.60000002384,469436.752,475565.344,8,400,48,,ISIC_0030392.JPG
break,html.Screen,4_97_1,2023-08-21T17:46:26.857Z,,0,,,NaN,,,,,,false,,,,475557.3000000119,475556.5,,475555.6999999881,,475565.344,8,400,,,
break_continue,html.Screen,4_97_2,2023-08-21T17:46:26.858Z,,0,,,NaN,,,,,,false,,,,475558.10000002384,475557.89999997616,,475557.39999997616,,475565.344,8,400,,,
sequence,flow.Sequence,4_97,2023-08-21T17:46:26.858Z,,0,,,6121.14799997618,completion,,,,,false,,,,475558.39999997616,475557.89999997616,469420.093,469427.5,469436.752,475565.344,8,400,,,
trial,html.Screen,4_98_0,2023-08-21T17:46:30.310Z,,0,2,,3444.256000023859,response,ISIC_0010364.JPG,,ISIC_0055079.JPG,ISIC_0055079.JPG,false,0,keypress(z),500,479010,479009.60000002384,475548.733,475558.6999999881,475565.344,479022.152,8,400,49,,ISIC_0010364.JPG
break,html.Screen,4_98_1,2023-08-21T17:46:30.311Z,,0,,,NaN,,,,,,false,,,,479011.60000002384,479011.1999999881,,479010.5,,479022.152,8,400,,,
break_continue,html.Screen,4_98_2,2023-08-21T17:46:30.313Z,,0,,,NaN,,,,,,false,,,,479012.6999999881,479012.39999997616,,479011.89999997616,,479022.152,8,400,,,
sequence,flow.Sequence,4_98,2023-08-21T17:46:30.313Z,,0,,,3447.0559999761754,completion,,,,,false,,,,479013.10000002384,479012.39999997616,475548.733,475558.6999999881,475565.344,479022.152,8,400,,,
trial,html.Screen,4_99_0,2023-08-21T17:46:34.672Z,,0,2,,4350.047999988077,response,ISIC_0027170.JPG,,ISIC_0009006.JPG,ISIC_0027170.JPG,false,1,keypress(m),500,483372.39999997616,483372.1999999881,479005.445,479013.3000000119,479022.152,483380.624,8,400,50,,ISIC_0009006.JPG
break,html.Screen,4_99_1,2023-08-21T17:46:39.658Z,,0,,,4993.0079999999725,timeout,,,,,false,,,,488358.10000002384,488356.937,483364.021,483372.60000002384,483380.624,488373.632,8,400,,,
break_continue,html.Screen,4_99_2,2023-08-21T17:48:48.266Z,,0,,,128563.0679999881,response,,,,,false,continue,keypress(Space),,616965.8000000119,616936.6999999881,488356.937,488358.39999997616,488373.632,616973.723,8,400,,,
sequence,flow.Sequence,4_99,2023-08-21T17:48:48.266Z,,0,,,137914.54799998808,completion,,,,,false,,,,616965.8999999762,616936.6999999881,479005.445,479013.3000000119,479022.152,616973.723,8,400,,,
trial,html.Screen,4_100_0,2023-08-21T17:48:52.179Z,,0,3,,3904.577000011923,response,ISIC_9412963.JPG,,ISIC_0032637.JPG,ISIC_0032637.JPG,false,0,keypress(z),500,620878.6000000238,620878.3000000119,616955.945,616965.8999999762,616973.723,620881.375,8,400,1,,ISIC_9412963.JPG
break,html.Screen,4_100_1,2023-08-21T17:48:52.181Z,,0,,,NaN,,,,,,false,,,,620880.3999999762,620879.8000000119,,620879.1000000238,,620881.375,8,400,,,
break_continue,html.Screen,4_100_2,2023-08-21T17:48:52.181Z,,0,,,NaN,,,,,,false,,,,620881.3000000119,620881.1000000238,,620880.6999999881,,620881.375,8,400,,,
sequence,flow.Sequence,4_100,2023-08-21T17:48:52.182Z,,0,,,3907.3770000238437,completion,,,,,false,,,,620881.8000000119,620881.1000000238,616955.945,616965.8999999762,616973.723,620881.375,8,400,,,
trial,html.Screen,4_101_0,2023-08-21T17:48:55.475Z,,0,3,,3292.725000023842,response,ISIC_0226072.JPG,,ISIC_3826001.JPG,ISIC_3826001.JPG,false,0,keypress(z),500,624174.5,624174.1000000238,620864.769,620882.1000000238,620881.375,624187.811,8,400,2,,ISIC_0226072.JPG
break,html.Screen,4_101_1,2023-08-21T17:48:55.476Z,,0,,,NaN,,,,,,false,,,,624176.1999999881,624175.6999999881,,624174.8999999762,,624187.811,8,400,,,
break_continue,html.Screen,4_101_2,2023-08-21T17:48:55.477Z,,0,,,NaN,,,,,,false,,,,624177,624176.6999999881,,624176.3000000119,,624187.811,8,400,,,
sequence,flow.Sequence,4_101,2023-08-21T17:48:55.478Z,,0,,,3295.324999988079,completion,,,,,false,,,,624177.3000000119,624176.6999999881,620864.769,620882,620881.375,624187.811,8,400,,,
trial,html.Screen,4_102_0,2023-08-21T17:48:59.545Z,,0,3,,4056.689000000013,response,ISIC_6644659.JPG,,ISIC_8429798.JPG,ISIC_8429798.JPG,false,0,keypress(z),500,628244.8999999762,628244.5,624171.015,624177.6999999881,624187.811,628262.374,8,400,3,,ISIC_6644659.JPG
break,html.Screen,4_102_1,2023-08-21T17:48:59.547Z,,0,,,NaN,,,,,,false,,,,628246.5,628246.1000000238,,628245.3000000119,,628262.374,8,400,,,
break_continue,html.Screen,4_102_2,2023-08-21T17:48:59.548Z,,0,,,NaN,,,,,,false,,,,628247.3999999762,628247.1999999881,,628246.8000000119,,628262.374,8,400,,,
sequence,flow.Sequence,4_102,2023-08-21T17:48:59.548Z,,0,,,4059.388999988092,completion,,,,,false,,,,628247.8000000119,628247.1999999881,624171.015,624177.6000000238,624187.811,628262.374,8,400,,,
trial,html.Screen,4_103_0,2023-08-21T17:49:04.746Z,,0,3,,5183.025999976206,response,ISIC_0002613.JPG,,ISIC_2559074.JPG,ISIC_2559074.JPG,false,0,keypress(z),500,633445.8000000119,633445.3999999762,628245.785,628248,628262.374,633455.852,8,400,4,,ISIC_0002613.JPG
break,html.Screen,4_103_1,2023-08-21T17:49:04.748Z,,0,,,NaN,,,,,,false,,,,633447.6999999881,633447.1000000238,,633446.1999999881,,633455.852,8,400,,,
break_continue,html.Screen,4_103_2,2023-08-21T17:49:04.749Z,,0,,,NaN,,,,,,false,,,,633448.6000000238,633448.3999999762,,633448,,633455.852,8,400,,,
sequence,flow.Sequence,4_103,2023-08-21T17:49:04.749Z,,0,,,5186.025999976206,completion,,,,,false,,,,633449.1000000238,633448.3999999762,628245.785,628247.8999999762,628262.374,633455.852,8,400,,,
trial,html.Screen,4_104_0,2023-08-21T17:49:07.579Z,,0,3,,2822.6480000000447,response,ISIC_9087221.JPG,,ISIC_0026770.JPG,ISIC_0026770.JPG,false,0,keypress(z),500,636279,636278.5,633439.119,633449.3000000119,633455.852,636294.789,8,400,5,,ISIC_9087221.JPG
break,html.Screen,4_104_1,2023-08-21T17:49:07.581Z,,0,,,NaN,,,,,,false,,,,636280.6000000238,636280,,636279.3999999762,,636294.789,8,400,,,
break_continue,html.Screen,4_104_2,2023-08-21T17:49:07.582Z,,0,,,NaN,,,,,,false,,,,636281.3999999762,636281.1000000238,,636280.6999999881,,636294.789,8,400,,,
sequence,flow.Sequence,4_104,2023-08-21T17:49:07.582Z,,0,,,2825.2480000238866,completion,,,,,false,,,,636281.8000000119,636281.1000000238,633439.119,633449.1999999881,633455.852,636294.789,8,400,,,
trial,html.Screen,4_105_0,2023-08-21T17:49:11.334Z,,0,3,,3738.311000023852,response,ISIC_2750230.JPG,,ISIC_0026470.JPG,ISIC_2750230.JPG,false,1,keypress(m),500,640033.5,640033.1000000238,636278.028,636282,636294.789,640053.06,8,400,6,,ISIC_0026470.JPG
break,html.Screen,4_105_1,2023-08-21T17:49:11.335Z,,0,,,NaN,,,,,,false,,,,640035.1000000238,640034.6999999881,,640033.8999999762,,640053.06,8,400,,,
break_continue,html.Screen,4_105_2,2023-08-21T17:49:11.336Z,,0,,,NaN,,,,,,false,,,,640036,640035.6999999881,,640035.3999999762,,640053.06,8,400,,,
sequence,flow.Sequence,4_105,2023-08-21T17:49:11.337Z,,0,,,3740.9109999880893,completion,,,,,false,,,,640036.3999999762,640035.6999999881,636278.028,636281.8999999762,636294.789,640053.06,8,400,,,
trial,html.Screen,4_106_0,2023-08-21T17:49:14.845Z,,0,3,,3491.8399999761023,response,ISIC_0024317.JPG,,ISIC_7899041.JPG,ISIC_7899041.JPG,false,0,keypress(z),500,643545.1000000238,643544.8999999762,640018.685,640036.6000000238,640053.06,643559.009,8,400,7,,ISIC_0024317.JPG
break,html.Screen,4_106_1,2023-08-21T17:49:14.846Z,,0,,,NaN,,,,,,false,,,,643545.8000000119,643545.6999999881,,643545.3000000119,,643559.009,8,400,,,
break_continue,html.Screen,4_106_2,2023-08-21T17:49:14.847Z,,0,,,NaN,,,,,,false,,,,643547.3000000119,643547.1999999881,,643547.1000000238,,643559.009,8,400,,,
sequence,flow.Sequence,4_106,2023-08-21T17:49:14.848Z,,0,,,3494.139999988023,completion,,,,,false,,,,643547.5,643547.1999999881,640018.685,640036.6000000238,640053.06,643559.009,8,400,,,
trial,html.Screen,4_107_0,2023-08-21T17:49:18.104Z,,0,3,,3244.791000011959,response,ISIC_4107717.JPG,,ISIC_0976232.JPG,ISIC_0976232.JPG,false,0,keypress(z),500,646804.1999999881,646803.8000000119,643542.178,643547.5,643559.009,646815.117,8,400,8,,ISIC_4107717.JPG
break,html.Screen,4_107_1,2023-08-21T17:49:18.106Z,,0,,,NaN,,,,,,false,,,,646805.8000000119,646805.3000000119,,646804.6999999881,,646815.117,8,400,,,
break_continue,html.Screen,4_107_2,2023-08-21T17:49:18.107Z,,0,,,NaN,,,,,,false,,,,646806.6999999881,646806.3999999762,,646806.1000000238,,646815.117,8,400,,,
sequence,flow.Sequence,4_107,2023-08-21T17:49:18.107Z,,0,,,3247.3909999761963,completion,,,,,false,,,,646807.1999999881,646806.3999999762,643542.178,643547.5,643559.009,646815.117,8,400,,,
trial,html.Screen,4_108_0,2023-08-21T17:49:20.761Z,,0,3,,2645.6830000119517,response,ISIC_0054021.JPG,,ISIC_7022381.JPG,ISIC_0054021.JPG,false,1,keypress(m),500,649461,649460.8000000119,646798.618,646807.5,646815.117,649470.379,8,400,9,,ISIC_7022381.JPG
break,html.Screen,4_108_1,2023-08-21T17:49:20.762Z,,0,,,NaN,,,,,,false,,,,649461.5,649461.3999999762,,649461.1000000238,,649470.379,8,400,,,
break_continue,html.Screen,4_108_2,2023-08-21T17:49:20.762Z,,0,,,NaN,,,,,,false,,,,649461.8999999762,649461.8999999762,,649461.6000000238,,649470.379,8,400,,,
sequence,flow.Sequence,4_108,2023-08-21T17:49:20.762Z,,0,,,2646.782999976189,completion,,,,,false,,,,649462,649461.8999999762,646798.618,646807.3999999762,646815.117,649470.379,8,400,,,
trial,html.Screen,4_109_0,2023-08-21T17:49:24.124Z,,0,3,,3353.520999976201,response,ISIC_1601784.JPG,,ISIC_0064141.JPG,ISIC_0064141.JPG,false,0,keypress(z),500,652824.1999999881,652823.8999999762,649453.7,649462.1000000238,649470.379,652844.614,8,400,10,,ISIC_1601784.JPG
break,html.Screen,4_109_1,2023-08-21T17:49:24.126Z,,0,,,NaN,,,,,,false,,,,652826,652825.5,,652824.8000000119,,652844.614,8,400,,,
break_continue,html.Screen,4_109_2,2023-08-21T17:49:24.127Z,,0,,,NaN,,,,,,false,,,,652826.8999999762,652826.6000000238,,652826.1999999881,,652844.614,8,400,,,
sequence,flow.Sequence,4_109,2023-08-21T17:49:24.127Z,,0,,,3356.2210000238847,completion,,,,,false,,,,652827.1999999881,652826.6000000238,649453.7,649462,649470.379,652844.614,8,400,,,
trial,html.Screen,4_110_0,2023-08-21T17:49:27.179Z,,0,3,,3034.085999988136,response,ISIC_0024459.JPG,,ISIC_0010308.JPG,ISIC_0010308.JPG,false,0,keypress(z),500,655879.1000000238,655878.6999999881,652810.217,652827.3999999762,652844.614,655882.808,8,400,11,,ISIC_0024459.JPG
break,html.Screen,4_110_1,2023-08-21T17:49:27.181Z,,0,,,NaN,,,,,,false,,,,655880.6999999881,655880.1999999881,,655879.5,,655882.808,8,400,,,
break_continue,html.Screen,4_110_2,2023-08-21T17:49:27.182Z,,0,,,NaN,,,,,,false,,,,655881.8000000119,655881.5,,655881,,655882.808,8,400,,,
sequence,flow.Sequence,4_110,2023-08-21T17:49:27.182Z,,0,,,3036.886000000057,completion,,,,,false,,,,655882.1000000238,655881.5,652810.217,652827.3999999762,652844.614,655882.808,8,400,,,
trial,html.Screen,4_111_0,2023-08-21T17:49:30.549Z,,0,3,,3366.0919999761973,response,ISIC_4236274.JPG,,ISIC_6334958.JPG,ISIC_4236274.JPG,false,1,keypress(m),500,659249.1999999881,659248.8999999762,655866.22,655882.3999999762,655882.808,659256.023,8,400,12,,ISIC_6334958.JPG
break,html.Screen,4_111_1,2023-08-21T17:49:30.551Z,,0,,,NaN,,,,,,false,,,,659250.3999999762,659250,,659249.5,,659256.023,8,400,,,
break_continue,html.Screen,4_111_2,2023-08-21T17:49:30.551Z,,0,,,NaN,,,,,,false,,,,659251,659250.8000000119,,659250.6000000238,,659256.023,8,400,,,
sequence,flow.Sequence,4_111,2023-08-21T17:49:30.551Z,,0,,,3367.99200001196,completion,,,,,false,,,,659251.3000000119,659250.8000000119,655866.22,655882.3000000119,655882.808,659256.023,8,400,,,
trial,html.Screen,4_112_0,2023-08-21T17:49:33.877Z,,0,3,,3320.777000011876,response,ISIC_0014931.JPG,,ISIC_1874480.JPG,ISIC_0014931.JPG,false,1,keypress(m),500,662577.1999999881,662576.8000000119,659239.379,659251.5,659256.023,662597.253,8,400,13,,ISIC_1874480.JPG
break,html.Screen,4_112_1,2023-08-21T17:49:33.879Z,,0,,,NaN,,,,,,false,,,,662578.8999999762,662578.3999999762,,662577.6999999881,,662597.253,8,400,,,
break_continue,html.Screen,4_112_2,2023-08-21T17:49:33.880Z,,0,,,NaN,,,,,,false,,,,662579.6999999881,662579.3999999762,,662579.1000000238,,662597.253,8,400,,,
sequence,flow.Sequence,4_112,2023-08-21T17:49:33.880Z,,0,,,3323.3769999761134,completion,,,,,false,,,,662580.1000000238,662579.3999999762,659239.379,659251.3999999762,659256.023,662597.253,8,400,,,
trial,html.Screen,4_113_0,2023-08-21T17:49:38.838Z,,0,3,,4939.746999999974,response,ISIC_2758999.JPG,,ISIC_5434055.JPG,ISIC_2758999.JPG,false,1,keypress(m),500,667537.3999999762,667537,662562.386,662580.3000000119,662597.253,667555.648,8,400,14,,ISIC_5434055.JPG
break,html.Screen,4_113_1,2023-08-21T17:49:38.839Z,,0,,,NaN,,,,,,false,,,,667539.1000000238,667538.6000000238,,667537.8000000119,,667555.648,8,400,,,
break_continue,html.Screen,4_113_2,2023-08-21T17:49:38.840Z,,0,,,NaN,,,,,,false,,,,667540,667539.6999999881,,667539.3000000119,,667555.648,8,400,,,
sequence,flow.Sequence,4_113,2023-08-21T17:49:38.841Z,,0,,,4942.446999988053,completion,,,,,false,,,,667540.3999999762,667539.6999999881,662562.386,662580.1999999881,662597.253,667555.648,8,400,,,
trial,html.Screen,4_114_0,2023-08-21T17:49:41.622Z,,0,3,,2765.652000011876,response,ISIC_2075372.JPG,,ISIC_0053810.JPG,ISIC_0053810.JPG,false,0,keypress(z),500,670321.8000000119,670321.3000000119,667538.829,667540.6999999881,667555.648,670327.493,8,400,15,,ISIC_2075372.JPG
break,html.Screen,4_114_1,2023-08-21T17:49:41.624Z,,0,,,NaN,,,,,,false,,,,670323.3000000119,670322.8000000119,,670322.1000000238,,670327.493,8,400,,,
break_continue,html.Screen,4_114_2,2023-08-21T17:49:41.624Z,,0,,,NaN,,,,,,false,,,,670324.1999999881,670323.8999999762,,670323.6000000238,,670327.493,8,400,,,
sequence,flow.Sequence,4_114,2023-08-21T17:49:41.625Z,,0,,,2768.2519999761134,completion,,,,,false,,,,670324.5,670323.8999999762,667538.829,667540.6000000238,667555.648,670327.493,8,400,,,
trial,html.Screen,4_115_0,2023-08-21T17:49:45.052Z,,0,3,,3423.7069999880623,response,ISIC_0069620.JPG,,ISIC_5324623.JPG,ISIC_0069620.JPG,false,1,keypress(m),500,673751.6000000238,673751.1999999881,670310.807,670324.8000000119,670327.493,673767.548,8,400,16,,ISIC_5324623.JPG
break,html.Screen,4_115_1,2023-08-21T17:49:45.053Z,,0,,,NaN,,,,,,false,,,,673753.1999999881,673752.6999999881,,673752,,673767.548,8,400,,,
break_continue,html.Screen,4_115_2,2023-08-21T17:49:45.054Z,,0,,,NaN,,,,,,false,,,,673754,673753.6999999881,,673753.3999999762,,673767.548,8,400,,,
sequence,flow.Sequence,4_115,2023-08-21T17:49:45.055Z,,0,,,3426.2069999880623,completion,,,,,false,,,,673754.3999999762,673753.6999999881,670310.807,670324.6999999881,670327.493,673767.548,8,400,,,
trial,html.Screen,4_116_0,2023-08-21T17:49:48.889Z,,0,3,,3821.4520000000484,response,ISIC_0061509.JPG,,ISIC_0031935.JPG,ISIC_0061509.JPG,false,1,keypress(m),500,677589.1999999881,677589,673750.982,673754.6000000238,673767.548,677591.635,8,400,17,,ISIC_0031935.JPG
break,html.Screen,4_116_1,2023-08-21T17:49:48.890Z,,0,,,NaN,,,,,,false,,,,677589.6999999881,677589.5,,677589.3000000119,,677591.635,8,400,,,
break_continue,html.Screen,4_116_2,2023-08-21T17:49:48.890Z,,0,,,NaN,,,,,,false,,,,677590.1000000238,677590,,677589.8000000119,,677591.635,8,400,,,
sequence,flow.Sequence,4_116,2023-08-21T17:49:48.890Z,,0,,,3822.4520000000484,completion,,,,,false,,,,677590.1999999881,677590,673750.982,673754.6000000238,673767.548,677591.635,8,400,,,
trial,html.Screen,4_117_0,2023-08-21T17:49:53.931Z,,0,3,,5038.764999976149,response,ISIC_0063496.JPG,,ISIC_0010346.JPG,ISIC_0010346.JPG,false,0,keypress(z),500,682630.6000000238,682630.3999999762,677574.886,677590.1999999881,677591.635,682651.483,8,400,18,,ISIC_0063496.JPG
break,html.Screen,4_117_1,2023-08-21T17:49:53.931Z,,0,,,NaN,,,,,,false,,,,682631.3000000119,682631,,682630.6999999881,,682651.483,8,400,,,
break_continue,html.Screen,4_117_2,2023-08-21T17:49:53.932Z,,0,,,NaN,,,,,,false,,,,682631.6999999881,682631.6000000238,,682631.3999999762,,682651.483,8,400,,,
sequence,flow.Sequence,4_117,2023-08-21T17:49:53.932Z,,0,,,5039.9650000238325,completion,,,,,false,,,,682631.8000000119,682631.6000000238,677574.886,677590.1999999881,677591.635,682651.483,8,400,,,
trial,html.Screen,4_118_0,2023-08-21T17:49:57.902Z,,0,3,,3949.7169999880716,response,ISIC_0057083.JPG,,ISIC_0033086.JPG,ISIC_0057083.JPG,false,1,keypress(m),500,686601.6999999881,686601.1999999881,682634.769,682631.8999999762,682651.483,686609.143,8,400,19,,ISIC_0033086.JPG
break,html.Screen,4_118_1,2023-08-21T17:49:57.904Z,,0,,,NaN,,,,,,false,,,,686603.3999999762,686602.8000000119,,686602,,686609.143,8,400,,,
break_continue,html.Screen,4_118_2,2023-08-21T17:49:57.904Z,,0,,,NaN,,,,,,false,,,,686604.3000000119,686603.8999999762,,686603.6000000238,,686609.143,8,400,,,
sequence,flow.Sequence,4_118,2023-08-21T17:49:57.905Z,,0,,,3952.4169999761507,completion,,,,,false,,,,686604.6000000238,686603.8999999762,682634.769,682631.8000000119,682651.483,686609.143,8,400,,,
trial,html.Screen,4_119_0,2023-08-21T17:50:02.647Z,,0,3,,4737.157000011881,response,ISIC_0032603.JPG,,ISIC_2854303.JPG,ISIC_2854303.JPG,false,0,keypress(z),500,691346.6000000238,691346.3000000119,686592.644,686604.8000000119,686609.143,691351.83,8,400,20,,ISIC_0032603.JPG
break,html.Screen,4_119_1,2023-08-21T17:50:02.648Z,,0,,,NaN,,,,,,false,,,,691348.1999999881,691347.8000000119,,691347.1000000238,,691351.83,8,400,,,
break_continue,html.Screen,4_119_2,2023-08-21T17:50:02.649Z,,0,,,NaN,,,,,,false,,,,691349.1000000238,691348.8000000119,,691348.3999999762,,691351.83,8,400,,,
sequence,flow.Sequence,4_119,2023-08-21T17:50:02.650Z,,0,,,4739.657000011881,completion,,,,,false,,,,691349.3999999762,691348.8000000119,686592.644,686604.8000000119,686609.143,691351.83,8,400,,,
trial,html.Screen,4_120_0,2023-08-21T17:50:05.568Z,,0,3,,2915.5699999762,response,ISIC_0063234.JPG,,ISIC_0024380.JPG,ISIC_0063234.JPG,false,1,keypress(m),500,694267.8000000119,694267.3999999762,691335.138,691349.6000000238,691351.83,694274.141,8,400,21,,ISIC_0024380.JPG
break,html.Screen,4_120_1,2023-08-21T17:50:05.570Z,,0,,,NaN,,,,,,false,,,,694269.3999999762,694269,,694268.1999999881,,694274.141,8,400,,,
break_continue,html.Screen,4_120_2,2023-08-21T17:50:05.570Z,,0,,,NaN,,,,,,false,,,,694270.3000000119,694269.8999999762,,694269.6000000238,,694274.141,8,400,,,
sequence,flow.Sequence,4_120,2023-08-21T17:50:05.571Z,,0,,,2918.0699999762,completion,,,,,false,,,,694270.5,694269.8999999762,691335.138,691349.6000000238,691351.83,694274.141,8,400,,,
trial,html.Screen,4_121_0,2023-08-21T17:50:08.795Z,,0,3,,3219.859000000055,response,ISIC_9802008.JPG,,ISIC_0070032.JPG,ISIC_0070032.JPG,false,0,keypress(z),500,697494.3999999762,697494,694257.582,694270.8000000119,694274.141,697514.368,8,400,22,,ISIC_9802008.JPG
break,html.Screen,4_121_1,2023-08-21T17:50:08.796Z,,0,,,NaN,,,,,,false,,,,697496,697495.5,,697494.8000000119,,697514.368,8,400,,,
break_continue,html.Screen,4_121_2,2023-08-21T17:50:08.797Z,,0,,,NaN,,,,,,false,,,,697496.8999999762,697496.5,,697496.1999999881,,697514.368,8,400,,,
sequence,flow.Sequence,4_121,2023-08-21T17:50:08.797Z,,0,,,3222.359000000055,completion,,,,,false,,,,697497.1999999881,697496.5,694257.582,694270.6999999881,694274.141,697514.368,8,400,,,
trial,html.Screen,4_122_0,2023-08-21T17:50:15.691Z,,0,3,,6875.732000023825,response,ISIC_0064247.JPG,,ISIC_6988514.JPG,ISIC_0064247.JPG,false,1,keypress(m),500,704390.3999999762,704390.1000000238,697480.427,697497.3999999762,697514.368,704393.874,8,400,23,,ISIC_6988514.JPG
break,html.Screen,4_122_1,2023-08-21T17:50:15.693Z,,0,,,NaN,,,,,,false,,,,704392.3999999762,704392,,704391.1000000238,,704393.874,8,400,,,
break_continue,html.Screen,4_122_2,2023-08-21T17:50:15.694Z,,0,,,NaN,,,,,,false,,,,704393.3999999762,704393.1000000238,,704392.8000000119,,704393.874,8,400,,,
sequence,flow.Sequence,4_122,2023-08-21T17:50:15.694Z,,0,,,6878.732000023825,completion,,,,,false,,,,704393.8000000119,704393.1000000238,697480.427,697497.3999999762,697514.368,704393.874,8,400,,,
trial,html.Screen,4_123_0,2023-08-21T17:50:18.368Z,,0,3,,2673.9260000119684,response,ISIC_0439726.JPG,,ISIC_0060397.JPG,ISIC_0060397.JPG,false,0,keypress(z),500,707067.8999999762,707067.8000000119,704377.161,704394.1999999881,704393.874,707082.345,8,400,24,,ISIC_0439726.JPG
break,html.Screen,4_123_1,2023-08-21T17:50:18.369Z,,0,,,NaN,,,,,,false,,,,707068.3999999762,707068.3000000119,,707068,,707082.345,8,400,,,
break_continue,html.Screen,4_123_2,2023-08-21T17:50:18.369Z,,0,,,NaN,,,,,,false,,,,707068.6000000238,707068.5,,707068.5,,707082.345,8,400,,,
sequence,flow.Sequence,4_123,2023-08-21T17:50:18.369Z,,0,,,2674.6260000000475,completion,,,,,false,,,,707068.6999999881,707068.5,704377.161,704394.1000000238,704393.874,707082.345,8,400,,,
trial,html.Screen,4_124_0,2023-08-21T17:50:22.310Z,,0,3,,3927.155000000028,response,ISIC_0057009.JPG,,ISIC_5415749.JPG,ISIC_5415749.JPG,false,0,keypress(z),500,711009.6000000238,711009.5,707065.753,707068.6999999881,707082.345,711023.423,8,400,25,,ISIC_0057009.JPG
break,html.Screen,4_124_1,2023-08-21T17:50:22.311Z,,0,,,NaN,,,,,,false,,,,711010.3000000119,711010,,711009.8000000119,,711023.423,8,400,,,
break_continue,html.Screen,4_124_2,2023-08-21T17:50:22.311Z,,0,,,NaN,,,,,,false,,,,711010.5,711010.5,,711010.3000000119,,711023.423,8,400,,,
sequence,flow.Sequence,4_124,2023-08-21T17:50:22.311Z,,0,,,3928.155000000028,completion,,,,,false,,,,711010.6000000238,711010.5,707065.753,707068.6999999881,707082.345,711023.423,8,400,,,
trial,html.Screen,4_125_0,2023-08-21T17:50:25.433Z,,0,3,,3109.4769999762066,response,ISIC_0025238.JPG,,ISIC_0060508.JPG,ISIC_0025238.JPG,false,1,keypress(m),500,714133.1999999881,714132.8999999762,711006.616,711010.6000000238,711023.423,714146.261,8,400,26,,ISIC_0060508.JPG
break,html.Screen,4_125_1,2023-08-21T17:50:25.435Z,,0,,,NaN,,,,,,false,,,,714134.8000000119,714134.3999999762,,714133.6000000238,,714146.261,8,400,,,
break_continue,html.Screen,4_125_2,2023-08-21T17:50:25.436Z,,0,,,NaN,,,,,,false,,,,714135.6999999881,714135.3000000119,,714135,,714146.261,8,400,,,
