sender,sender_type,sender_id,timestamp,meta,,blockNo,condition,duration,ended_on,img_left,img_reveal,img_right,loser,practice,response,response_action,selection_duration,time_commit,time_end,time_render,time_run,time_show,time_switch,total_blocks,total_trials,trialNo,url,winner
informed_consent,html.Screen,0,2023-09-08T19:47:58.522Z,"{""labjs_version"":""20.2.4"",""labjs_build"":{""flavor"":""development"",""commit"":""f5b4a49f956347addd546a832a3327688c2c0fef""},""location"":""https://labjs.felixhenninger.com/api/labjs_preview/index.html"",""userAgent"":""Mozilla/5.0 (Windows NT 10.0; Win64; x64) AppleWebKit/537.36 (KHTML, like Gecko) Chrome/116.0.0.0 Safari/537.36"",""platform"":""Win32"",""language"":""en-AU"",""locale"":""en-US"",""timeZone"":""America/Chicago"",""timezoneOffset"":300,""screen_width"":1680,""screen_height"":1050,""scroll_width"":1296,""scroll_height"":688,""window_innerWidth"":1296,""window_innerHeight"":736,""devicePixelRatio"":1}",,,,957.3360000476837,response,,,,,,consent,click button,,1357.9000000953674,1357.2000000476837,49.218,453.7000000476837,399.864,1318.362,,,,{},
Welcome,html.Screen,1,2023-09-08T19:48:55.702Z,,,,asymmetry,57218.638,response,,,,,,continue,click button,,58537.60000014305,58537,1301.705,1358.1000001430511,1318.362,58512.939,,,,,
trial,html.Screen,2_0_0,2023-09-08T19:49:07.211Z,,0,0,,11522.614000000001,timeout,ISIC_6997061.JPG,,ISIC_0069348.JPG,,true,,,500,70046.79999995232,70046.70000004768,58496.364,58537.700000047684,58512.939,70035.553,1,6,1,,
sequence,flow.Sequence,2_0,2023-09-08T19:49:07.212Z,,0,,,11533.761000047685,completion,,,,,true,,,,70047,70046.70000004768,58496.364,58537.700000047684,58512.939,70035.553,1,6,,,
trial,html.Screen,2_1_0,2023-09-08T19:49:15.629Z,,0,0,,8428.746999952316,response,ISIC_0057368.JPG,,ISIC_0009529.JPG,ISIC_0057368.JPG,true,1,keypress(m),500,78464.60000014305,78464.29999995232,70018.682,70047.10000014305,70035.553,78435.127,1,6,2,,ISIC_0009529.JPG
sequence,flow.Sequence,2_1,2023-09-08T19:49:15.630Z,,0,,,8428.746999952316,completion,,,,,true,,,,78465.40000009537,78464.29999995232,70018.682,70047.10000014305,70035.553,78435.127,1,6,,,
trial,html.Screen,2_2_0,2023-09-08T19:49:22.657Z,,0,0,,7057.273000095374,response,ISIC_0064954.JPG,,ISIC_9758671.JPG,ISIC_0064954.JPG,true,1,keypress(m),500,85492.60000014305,85492.40000009537,78418.44,78465.70000004768,78435.127,85465.377,1,6,3,,ISIC_9758671.JPG
sequence,flow.Sequence,2_2,2023-09-08T19:49:22.657Z,,0,,,7057.273000095374,completion,,,,,true,,,,85492.70000004768,85492.40000009537,78418.44,78465.60000014305,78435.127,85465.377,1,6,,,
trial,html.Screen,2_3_0,2023-09-08T19:49:25.251Z,,0,0,,2621.3230000476906,response,ISIC_0005785.JPG,,ISIC_0000080.JPG,ISIC_0000080.JPG,true,0,keypress(z),500,88086.90000009537,88086.70000004768,85448.732,85492.79999995232,85465.377,88053.79,1,6,4,,ISIC_0005785.JPG
sequence,flow.Sequence,2_3,2023-09-08T19:49:25.252Z,,0,,,2621.3230000476906,completion,,,,,true,,,,88087,88086.70000004768,85448.732,85492.79999995232,85465.377,88053.79,1,6,,,
trial,html.Screen,2_4_0,2023-09-08T19:49:28.693Z,,0,0,,3474.7100000000064,response,ISIC_5390060.JPG,,ISIC_7944028.JPG,ISIC_5390060.JPG,true,1,keypress(m),500,91528.60000014305,91528.5,88037.133,88087.20000004768,88053.79,91493.782,1,6,5,,ISIC_7944028.JPG
sequence,flow.Sequence,2_4,2023-09-08T19:49:28.693Z,,0,,,3474.7100000000064,completion,,,,,true,,,,91528.79999995232,91528.5,88037.133,88087.10000014305,88053.79,91493.782,1,6,,,
trial,html.Screen,2_5_0,2023-09-08T19:49:32.807Z,,0,0,,4148.2179999999935,response,ISIC_0794216.JPG,,ISIC_0010188.JPG,ISIC_0794216.JPG,true,1,keypress(m),500,95642,95642,91477.225,91528.79999995232,91493.782,95601.813,1,6,6,,ISIC_0010188.JPG
sequence,flow.Sequence,2_5,2023-09-08T19:49:32.807Z,,0,,,4148.2179999999935,completion,,,,,true,,,,95642.29999995232,95642,91477.225,91528.79999995232,91493.782,95601.813,1,6,,,
loop,flow.Loop,2,2023-09-08T19:49:32.807Z,,,,,37129.061,completion,,,,,true,,,,95642.40000009537,95642,58496.364,58537.700000047684,58512.939,95601.813,1,6,,,
exp_instructions,html.Screen,3,2023-09-08T19:49:43.097Z,,,,,10329.387000047689,response,,,,,,continue,keypress(Space),,105931.60000014305,105931.20000004768,95585.299,95642.40000009537,95601.813,105905.201,,,,,
trial,html.Screen,4_0_0,2023-09-08T19:49:47.083Z,,0,1,,4012.499000047683,response,ISIC_0543351.JPG,6,ISIC_0010532.JPG,ISIC_0010532.JPG,false,0,keypress(z),500,109917.79999995232,109917.70000004768,105888.472,105931.70000004768,105905.201,109879.55,8,400,1,,ISIC_0543351.JPG
break,html.Screen,4_0_1,2023-09-08T19:49:47.083Z,,0,,,NaN,,,,,,false,,,,109918.29999995232,109918.20000004768,,109917.90000009537,,109879.55,8,400,,,
break_continue,html.Screen,4_0_2,2023-09-08T19:49:47.083Z,,0,,,NaN,,,,,,false,,,,109918.5,109918.40000009537,,109918.40000009537,,109879.55,8,400,,,
sequence,flow.Sequence,4_0,2023-09-08T19:49:47.083Z,,0,,,4013.1990000953665,completion,,,,,false,,,,109918.60000014305,109918.40000009537,105888.472,105931.70000004768,105905.201,109879.55,8,400,,,
trial,html.Screen,4_1_0,2023-09-08T19:49:52.077Z,,0,1,,5032.650000047681,response,ISIC_0070948.JPG,5,ISIC_3123377.JPG,ISIC_0070948.JPG,false,1,keypress(m),500,114912.40000009537,114912.20000004768,109862.918,109918.60000014305,109879.55,114872.648,8,400,2,,ISIC_3123377.JPG
break,html.Screen,4_1_1,2023-09-08T19:49:52.078Z,,0,,,NaN,,,,,,false,,,,114912.70000004768,114912.60000014305,,114912.40000009537,,114872.648,8,400,,,
break_continue,html.Screen,4_1_2,2023-09-08T19:49:52.078Z,,0,,,NaN,,,,,,false,,,,114912.79999995232,114912.79999995232,,114912.70000004768,,114872.648,8,400,,,
sequence,flow.Sequence,4_1,2023-09-08T19:49:52.078Z,,0,,,5033.249999952313,completion,,,,,false,,,,114912.90000009537,114912.79999995232,109862.918,109918.60000014305,109879.55,114872.648,8,400,,,
trial,html.Screen,4_2_0,2023-09-08T19:49:58.608Z,,0,1,,6569.851999999999,response,ISIC_0011086.JPG,5,ISIC_0010808.JPG,ISIC_0010808.JPG,false,0,keypress(z),500,121442.60000014305,121442.5,114856.146,114912.90000009537,114872.648,121402.097,8,400,3,,ISIC_0011086.JPG
break,html.Screen,4_2_1,2023-09-08T19:49:58.608Z,,0,,,NaN,,,,,,false,,,,121443,121442.79999995232,,121442.70000004768,,121402.097,8,400,,,
break_continue,html.Screen,4_2_2,2023-09-08T19:49:58.608Z,,0,,,NaN,,,,,,false,,,,121443.10000014305,121443.10000014305,,121443,,121402.097,8,400,,,
sequence,flow.Sequence,4_2,2023-09-08T19:49:58.608Z,,0,,,6570.45200014305,completion,,,,,false,,,,121443.20000004768,121443.10000014305,114856.146,114912.90000009537,114872.648,121402.097,8,400,,,
trial,html.Screen,4_3_0,2023-09-08T19:50:03.685Z,,0,1,,5118.202999952322,response,ISIC_8603734.JPG,5,ISIC_0753112.JPG,ISIC_8603734.JPG,false,1,keypress(m),500,126520.40000009537,126520.29999995232,121385.416,121443.20000004768,121402.097,126478.583,8,400,4,,ISIC_0753112.JPG
break,html.Screen,4_3_1,2023-09-08T19:50:03.686Z,,0,,,NaN,,,,,,false,,,,126521,126520.90000009537,,126520.60000014305,,126478.583,8,400,,,
break_continue,html.Screen,4_3_2,2023-09-08T19:50:03.686Z,,0,,,NaN,,,,,,false,,,,126521.40000009537,126521.29999995232,,126521.20000004768,,126478.583,8,400,,,
sequence,flow.Sequence,4_3,2023-09-08T19:50:03.686Z,,0,,,5119.202999952322,completion,,,,,false,,,,126521.60000014305,126521.29999995232,121385.416,121443.20000004768,121402.097,126478.583,8,400,,,
trial,html.Screen,4_4_0,2023-09-08T19:50:08.218Z,,0,1,,4574.117000047685,response,ISIC_4926448.JPG,4,ISIC_1216201.JPG,ISIC_4926448.JPG,false,1,keypress(m),500,131052.79999995232,131052.70000004768,126462.004,126521.60000014305,126478.583,131020.71,8,400,5,,ISIC_1216201.JPG
break,html.Screen,4_4_1,2023-09-08T19:50:08.218Z,,0,,,NaN,,,,,,false,,,,131053.10000014305,131053.10000014305,,131052.79999995232,,131020.71,8,400,,,
break_continue,html.Screen,4_4_2,2023-09-08T19:50:08.218Z,,0,,,NaN,,,,,,false,,,,131053.29999995232,131053.20000004768,,131053.20000004768,,131020.71,8,400,,,
sequence,flow.Sequence,4_4,2023-09-08T19:50:08.218Z,,0,,,4574.617000047685,completion,,,,,false,,,,131053.29999995232,131053.20000004768,126462.004,126521.60000014305,126478.583,131020.71,8,400,,,
trial,html.Screen,4_5_0,2023-09-08T19:50:15.373Z,,0,1,,7186.690000095361,response,ISIC_3521671.JPG,4,ISIC_7278885.JPG,ISIC_3521671.JPG,false,1,keypress(m),500,138207.70000004768,138207.40000009537,131004.251,131053.5,131020.71,138168.013,8,400,6,,ISIC_7278885.JPG
break,html.Screen,4_5_1,2023-09-08T19:50:15.374Z,,0,,,NaN,,,,,,false,,,,138208.79999995232,138208.60000014305,,138208.10000014305,,138168.013,8,400,,,
break_continue,html.Screen,4_5_2,2023-09-08T19:50:15.374Z,,0,,,NaN,,,,,,false,,,,138209.29999995232,138209.20000004768,,138209,,138168.013,8,400,,,
sequence,flow.Sequence,4_5,2023-09-08T19:50:15.374Z,,0,,,7188.490000047677,completion,,,,,false,,,,138209.5,138209.20000004768,131004.251,131053.40000009537,131020.71,138168.013,8,400,,,
trial,html.Screen,4_6_0,2023-09-08T19:50:22.162Z,,0,1,,6828.28699995231,response,ISIC_0067338.JPG,5,ISIC_4851652.JPG,ISIC_4851652.JPG,false,0,keypress(z),500,144996.79999995232,144996.29999995232,138151.315,138209.60000014305,138168.013,144964.534,8,400,7,,ISIC_0067338.JPG
break,html.Screen,4_6_1,2023-09-08T19:50:22.163Z,,0,,,NaN,,,,,,false,,,,144997.79999995232,144997.5,,144997.10000014305,,144964.534,8,400,,,
break_continue,html.Screen,4_6_2,2023-09-08T19:50:22.163Z,,0,,,NaN,,,,,,false,,,,144998.29999995232,144998.20000004768,,144998,,144964.534,8,400,,,
sequence,flow.Sequence,4_6,2023-09-08T19:50:22.163Z,,0,,,6830.187000047677,completion,,,,,false,,,,144998.5,144998.20000004768,138151.315,138209.60000014305,138168.013,144964.534,8,400,,,
trial,html.Screen,4_7_0,2023-09-08T19:50:29.274Z,,0,1,,7144.566000143037,response,ISIC_0064821.JPG,6,ISIC_0002026.JPG,ISIC_0002026.JPG,false,0,keypress(z),500,152109.5,152109.10000014305,144947.853,144998.70000004768,144964.534,152078.539,8,400,8,,ISIC_0064821.JPG
break,html.Screen,4_7_1,2023-09-08T19:50:29.275Z,,0,,,NaN,,,,,,false,,,,152110.60000014305,152110.29999995232,,152109.79999995232,,152078.539,8,400,,,
break_continue,html.Screen,4_7_2,2023-09-08T19:50:29.276Z,,0,,,NaN,,,,,,false,,,,152111,152110.90000009537,,152110.70000004768,,152078.539,8,400,,,
sequence,flow.Sequence,4_7,2023-09-08T19:50:29.276Z,,0,,,7146.366000095353,completion,,,,,false,,,,152111.10000014305,152110.90000009537,144947.853,144998.60000014305,144964.534,152078.539,8,400,,,
trial,html.Screen,4_8_0,2023-09-08T19:50:35.726Z,,0,1,,6482.861000095378,response,ISIC_0067830.JPG,5,ISIC_1293403.JPG,ISIC_1293403.JPG,false,0,keypress(z),500,158561.5,158561.40000009537,152061.783,152111.29999995232,152078.539,158524.236,8,400,9,,ISIC_0067830.JPG
break,html.Screen,4_8_1,2023-09-08T19:50:35.727Z,,0,,,NaN,,,,,,false,,,,158561.90000009537,158561.79999995232,,158561.70000004768,,158524.236,8,400,,,
break_continue,html.Screen,4_8_2,2023-09-08T19:50:35.727Z,,0,,,NaN,,,,,,false,,,,158562,158562,,158562,,158524.236,8,400,,,
sequence,flow.Sequence,4_8,2023-09-08T19:50:35.727Z,,0,,,6483.46100000001,completion,,,,,false,,,,158562.20000004768,158562,152061.783,152111.29999995232,152078.539,158524.236,8,400,,,
trial,html.Screen,4_9_0,2023-09-08T19:50:41.639Z,,0,1,,5949.563999952312,response,ISIC_0010879.JPG,4,ISIC_0732375.JPG,ISIC_0732375.JPG,false,0,keypress(z),500,164473.90000009537,164473.79999995232,158507.658,158562.20000004768,158524.236,164435.734,8,400,10,,ISIC_0010879.JPG
break,html.Screen,4_9_1,2023-09-08T19:50:41.640Z,,0,,,NaN,,,,,,false,,,,164474.70000004768,164474.40000009537,,164474.20000004768,,164435.734,8,400,,,
break_continue,html.Screen,4_9_2,2023-09-08T19:50:41.640Z,,0,,,NaN,,,,,,false,,,,164475,164474.90000009537,,164474.79999995232,,164435.734,8,400,,,
sequence,flow.Sequence,4_9,2023-09-08T19:50:41.640Z,,0,,,5950.664000095363,completion,,,,,false,,,,164475.10000014305,164474.90000009537,158507.658,158562.20000004768,158524.236,164435.734,8,400,,,
trial,html.Screen,4_10_0,2023-09-08T19:50:47.754Z,,0,1,,6153.266000000003,response,ISIC_0894785.JPG,5,ISIC_4644299.JPG,ISIC_0894785.JPG,false,1,keypress(m),500,170589.10000014305,170589,164419.332,164475.20000004768,164435.734,170547.654,8,400,11,,ISIC_4644299.JPG
break,html.Screen,4_10_1,2023-09-08T19:50:47.755Z,,0,,,NaN,,,,,,false,,,,170589.40000009537,170589.40000009537,,170589.20000004768,,170547.654,8,400,,,
break_continue,html.Screen,4_10_2,2023-09-08T19:50:47.755Z,,0,,,NaN,,,,,,false,,,,170589.60000014305,170589.60000014305,,170589.5,,170547.654,8,400,,,
sequence,flow.Sequence,4_10,2023-09-08T19:50:47.755Z,,0,,,6153.866000143054,completion,,,,,false,,,,170589.79999995232,170589.60000014305,164419.332,164475.20000004768,164435.734,170547.654,8,400,,,
trial,html.Screen,4_11_0,2023-09-08T19:50:54.829Z,,0,1,,7115.645999952307,response,ISIC_1194944.JPG,6,ISIC_7284399.JPG,ISIC_7284399.JPG,false,0,keypress(z),500,177663.40000009537,177663.29999995232,170531.112,170589.79999995232,170547.654,177628.205,8,400,12,,ISIC_1194944.JPG
break,html.Screen,4_11_1,2023-09-08T19:50:54.829Z,,0,,,NaN,,,,,,false,,,,177663.79999995232,177663.70000004768,,177663.5,,177628.205,8,400,,,
break_continue,html.Screen,4_11_2,2023-09-08T19:50:54.829Z,,0,,,NaN,,,,,,false,,,,177664.29999995232,177664.20000004768,,177664.10000014305,,177628.205,8,400,,,
sequence,flow.Sequence,4_11,2023-09-08T19:50:54.830Z,,0,,,7116.546000047674,completion,,,,,false,,,,177664.40000009537,177664.20000004768,170531.112,170589.79999995232,170547.654,177628.205,8,400,,,
trial,html.Screen,4_12_0,2023-09-08T19:51:01.041Z,,0,1,,6247.19500009538,response,ISIC_0822238.JPG,5,ISIC_3493866.JPG,ISIC_3493866.JPG,false,0,keypress(z),500,183875.60000014305,183875.40000009537,177611.572,177664.5,177628.205,183840.225,8,400,13,,ISIC_0822238.JPG
break,html.Screen,4_12_1,2023-09-08T19:51:01.041Z,,0,,,NaN,,,,,,false,,,,183876.29999995232,183876.10000014305,,183875.79999995232,,183840.225,8,400,,,
break_continue,html.Screen,4_12_2,2023-09-08T19:51:01.042Z,,0,,,NaN,,,,,,false,,,,183876.70000004768,183876.5,,183876.40000009537,,183840.225,8,400,,,
sequence,flow.Sequence,4_12,2023-09-08T19:51:01.042Z,,0,,,6248.295000000013,completion,,,,,false,,,,183876.79999995232,183876.5,177611.572,177664.40000009537,177628.205,183840.225,8,400,,,
trial,html.Screen,4_13_0,2023-09-08T19:51:06.906Z,,0,1,,5900.0749999523105,response,ISIC_9989936.JPG,5,ISIC_0029575.JPG,ISIC_9989936.JPG,false,1,keypress(m),500,189740.40000009537,189740.29999995232,183823.501,183877,183840.225,189701.585,8,400,14,,ISIC_0029575.JPG
break,html.Screen,4_13_1,2023-09-08T19:51:06.906Z,,0,,,NaN,,,,,,false,,,,189740.70000004768,189740.60000014305,,189740.40000009537,,189701.585,8,400,,,
break_continue,html.Screen,4_13_2,2023-09-08T19:51:06.906Z,,0,,,NaN,,,,,,false,,,,189740.90000009537,189740.79999995232,,189740.79999995232,,189701.585,8,400,,,
sequence,flow.Sequence,4_13,2023-09-08T19:51:06.906Z,,0,,,5900.5749999523105,completion,,,,,false,,,,189741,189740.79999995232,183823.501,183877,183840.225,189701.585,8,400,,,
trial,html.Screen,4_14_0,2023-09-08T19:51:13.115Z,,0,1,,6248.115000047692,response,ISIC_0053469.JPG,6,ISIC_0033585.JPG,ISIC_0033585.JPG,false,0,keypress(z),500,195949.90000009537,195949.70000004768,189684.859,189741,189701.585,195913.796,8,400,15,,ISIC_0053469.JPG
break,html.Screen,4_14_1,2023-09-08T19:51:13.116Z,,0,,,NaN,,,,,,false,,,,195950.60000014305,195950.40000009537,,195950.20000004768,,195913.796,8,400,,,
break_continue,html.Screen,4_14_2,2023-09-08T19:51:13.116Z,,0,,,NaN,,,,,,false,,,,195950.79999995232,195950.79999995232,,195950.70000004768,,195913.796,8,400,,,
sequence,flow.Sequence,4_14,2023-09-08T19:51:13.116Z,,0,,,6249.214999952324,completion,,,,,false,,,,195951,195950.79999995232,189684.859,189741,189701.585,195913.796,8,400,,,
trial,html.Screen,4_15_0,2023-09-08T19:51:18.654Z,,0,1,,5574.904000047682,response,ISIC_0031915.JPG,4,ISIC_0011696.JPG,ISIC_0031915.JPG,false,1,keypress(m),500,201489,201488.70000004768,195896.991,195951.10000014305,195913.796,201458.049,8,400,16,,ISIC_0011696.JPG
break,html.Screen,4_15_1,2023-09-08T19:51:18.655Z,,0,,,NaN,,,,,,false,,,,201489.5,201489.5,,201489.10000014305,,201458.049,8,400,,,
break_continue,html.Screen,4_15_2,2023-09-08T19:51:18.655Z,,0,,,NaN,,,,,,false,,,,201489.90000009537,201489.79999995232,,201489.70000004768,,201458.049,8,400,,,
sequence,flow.Sequence,4_15,2023-09-08T19:51:18.655Z,,0,,,5576.003999952314,completion,,,,,false,,,,201490,201489.79999995232,195896.991,195951.10000014305,195913.796,201458.049,8,400,,,
trial,html.Screen,4_16_0,2023-09-08T19:51:24.929Z,,0,1,,6305.551000143052,response,ISIC_5298608.JPG,5,ISIC_3295750.JPG,ISIC_3295750.JPG,false,0,keypress(z),500,207763.90000009537,207763.60000014305,201441.15,201490.10000014305,201458.049,207736.851,8,400,17,,ISIC_5298608.JPG
break,html.Screen,4_16_1,2023-09-08T19:51:24.931Z,,0,,,NaN,,,,,,false,,,,207765.40000009537,207764.90000009537,,207764.29999995232,,207736.851,8,400,,,
break_continue,html.Screen,4_16_2,2023-09-08T19:51:24.931Z,,0,,,NaN,,,,,,false,,,,207766,207765.79999995232,,207765.70000004768,,207736.851,8,400,,,
sequence,flow.Sequence,4_16,2023-09-08T19:51:24.932Z,,0,,,6307.750999952317,completion,,,,,false,,,,207766.79999995232,207765.79999995232,201441.15,201490.10000014305,201458.049,207736.851,8,400,,,
trial,html.Screen,4_17_0,2023-09-08T19:51:30.359Z,,0,1,,5456.448999952321,response,ISIC_8837443.JPG,6,ISIC_0031146.JPG,ISIC_8837443.JPG,false,1,keypress(m),500,213193.5,213193.29999995232,207720.024,207767.10000014305,207736.851,213163.912,8,400,18,,ISIC_0031146.JPG
break,html.Screen,4_17_1,2023-09-08T19:51:30.359Z,,0,,,NaN,,,,,,false,,,,213194.10000014305,213193.90000009537,,213193.70000004768,,213163.912,8,400,,,
break_continue,html.Screen,4_17_2,2023-09-08T19:51:30.360Z,,0,,,NaN,,,,,,false,,,,213194.40000009537,213194.29999995232,,213194.20000004768,,213163.912,8,400,,,
sequence,flow.Sequence,4_17,2023-09-08T19:51:30.360Z,,0,,,5457.448999952321,completion,,,,,false,,,,213194.5,213194.29999995232,207720.024,207767,207736.851,213163.912,8,400,,,
trial,html.Screen,4_18_0,2023-09-08T19:51:37.208Z,,0,1,,6879.2880000476725,response,ISIC_4814912.JPG,6,ISIC_0029859.JPG,ISIC_4814912.JPG,false,1,keypress(m),500,220043.29999995232,220043.20000004768,213147.225,213194.5,213163.912,220010.678,8,400,19,,ISIC_0029859.JPG
break,html.Screen,4_18_1,2023-09-08T19:51:37.209Z,,0,,,NaN,,,,,,false,,,,220043.70000004768,220043.60000014305,,220043.5,,220010.678,8,400,,,
break_continue,html.Screen,4_18_2,2023-09-08T19:51:37.209Z,,0,,,NaN,,,,,,false,,,,220044.20000004768,220044.10000014305,,220043.90000009537,,220010.678,8,400,,,
sequence,flow.Sequence,4_18,2023-09-08T19:51:37.209Z,,0,,,6880.18800014304,completion,,,,,false,,,,220044.29999995232,220044.10000014305,213147.225,213194.5,213163.912,220010.678,8,400,,,
trial,html.Screen,4_19_0,2023-09-08T19:51:45.154Z,,0,1,,7977.821999999986,response,ISIC_4264600.JPG,5,ISIC_3060248.JPG,ISIC_4264600.JPG,false,1,keypress(m),500,227988.79999995232,227988.5,219993.988,220044.29999995232,220010.678,227959.459,8,400,20,,ISIC_3060248.JPG
break,html.Screen,4_19_1,2023-09-08T19:51:45.155Z,,0,,,NaN,,,,,,false,,,,227989.40000009537,227989.29999995232,,227989,,227959.459,8,400,,,
break_continue,html.Screen,4_19_2,2023-09-08T19:51:45.155Z,,0,,,NaN,,,,,,false,,,,227989.79999995232,227989.70000004768,,227989.60000014305,,227959.459,8,400,,,
sequence,flow.Sequence,4_19,2023-09-08T19:51:45.155Z,,0,,,7979.022000047669,completion,,,,,false,,,,227989.90000009537,227989.70000004768,219993.988,220044.29999995232,220010.678,227959.459,8,400,,,
trial,html.Screen,4_20_0,2023-09-08T19:51:51.846Z,,0,1,,6721.241000047681,response,ISIC_0572205.JPG,5,ISIC_0031891.JPG,ISIC_0572205.JPG,false,1,keypress(m),500,234680.79999995232,234680.70000004768,227942.722,227990.10000014305,227959.459,234655.766,8,400,21,,ISIC_0031891.JPG
break,html.Screen,4_20_1,2023-09-08T19:51:51.847Z,,0,,,NaN,,,,,,false,,,,234681.29999995232,234681.20000004768,,234680.90000009537,,234655.766,8,400,,,
break_continue,html.Screen,4_20_2,2023-09-08T19:51:51.847Z,,0,,,NaN,,,,,,false,,,,234681.5,234681.40000009537,,234681.29999995232,,234655.766,8,400,,,
sequence,flow.Sequence,4_20,2023-09-08T19:51:51.847Z,,0,,,6721.941000095365,completion,,,,,false,,,,234681.70000004768,234681.40000009537,227942.722,227990,227959.459,234655.766,8,400,,,
trial,html.Screen,4_21_0,2023-09-08T19:51:58.937Z,,0,1,,7115.9340000476805,response,ISIC_8389650.JPG,6,ISIC_6588982.JPG,ISIC_6588982.JPG,false,0,keypress(z),500,241771.90000009537,241771.70000004768,234639.084,234681.70000004768,234655.766,241736.211,8,400,22,,ISIC_8389650.JPG
break,html.Screen,4_21_1,2023-09-08T19:51:58.938Z,,0,,,NaN,,,,,,false,,,,241772.5,241772.40000009537,,241772.10000014305,,241736.211,8,400,,,
break_continue,html.Screen,4_21_2,2023-09-08T19:51:58.938Z,,0,,,NaN,,,,,,false,,,,241772.90000009537,241772.79999995232,,241772.79999995232,,241736.211,8,400,,,
sequence,flow.Sequence,4_21,2023-09-08T19:51:58.938Z,,0,,,7117.033999952313,completion,,,,,false,,,,241773.10000014305,241772.79999995232,234639.084,234681.70000004768,234655.766,241736.211,8,400,,,
trial,html.Screen,4_22_0,2023-09-08T19:52:06.300Z,,0,1,,7397.9890000476735,response,ISIC_0001119.JPG,5,ISIC_1264725.JPG,ISIC_1264725.JPG,false,0,keypress(z),500,249134.40000009537,249134.20000004768,241719.655,241773.20000004768,241736.211,249100.522,8,400,23,,ISIC_0001119.JPG
break,html.Screen,4_22_1,2023-09-08T19:52:06.300Z,,0,,,NaN,,,,,,false,,,,249134.70000004768,249134.60000014305,,249134.5,,249100.522,8,400,,,
break_continue,html.Screen,4_22_2,2023-09-08T19:52:06.300Z,,0,,,NaN,,,,,,false,,,,249134.79999995232,249134.79999995232,,249134.70000004768,,249100.522,8,400,,,
sequence,flow.Sequence,4_22,2023-09-08T19:52:06.300Z,,0,,,7398.588999952306,completion,,,,,false,,,,249134.90000009537,249134.79999995232,241719.655,241773.20000004768,241736.211,249100.522,8,400,,,
trial,html.Screen,4_23_0,2023-09-08T19:52:11.229Z,,0,1,,4963.277999952319,response,ISIC_7047780.JPG,4,ISIC_0054248.JPG,ISIC_7047780.JPG,false,1,keypress(m),500,254064,254063.79999995232,249084.007,249134.90000009537,249100.522,254026.876,8,400,24,,ISIC_0054248.JPG
break,html.Screen,4_23_1,2023-09-08T19:52:11.230Z,,0,,,NaN,,,,,,false,,,,254065.10000014305,254064.70000004768,,254064.29999995232,,254026.876,8,400,,,
break_continue,html.Screen,4_23_2,2023-09-08T19:52:11.231Z,,0,,,NaN,,,,,,false,,,,254065.79999995232,254065.5,,254065.40000009537,,254026.876,8,400,,,
sequence,flow.Sequence,4_23,2023-09-08T19:52:11.231Z,,0,,,4964.978000000003,completion,,,,,false,,,,254066.10000014305,254065.5,249084.007,249134.90000009537,249100.522,254026.876,8,400,,,
trial,html.Screen,4_24_0,2023-09-08T19:52:18.008Z,,0,1,,6815.524000095378,response,ISIC_0458561.JPG,6,ISIC_0024631.JPG,ISIC_0024631.JPG,false,0,keypress(z),500,260842.5,260842.40000009537,254010.326,254066.40000009537,254026.876,260806.65,8,400,25,,ISIC_0458561.JPG
break,html.Screen,4_24_1,2023-09-08T19:52:18.008Z,,0,,,NaN,,,,,,false,,,,260842.90000009537,260842.70000004768,,260842.60000014305,,260806.65,8,400,,,
break_continue,html.Screen,4_24_2,2023-09-08T19:52:18.008Z,,0,,,NaN,,,,,,false,,,,260843.10000014305,260843,,260842.90000009537,,260806.65,8,400,,,
sequence,flow.Sequence,4_24,2023-09-08T19:52:18.009Z,,0,,,6816.124000000011,completion,,,,,false,,,,260843.20000004768,260843,254010.326,254066.29999995232,254026.876,260806.65,8,400,,,
trial,html.Screen,4_25_0,2023-09-08T19:52:24.973Z,,0,1,,7000.950000143057,response,ISIC_6642608.JPG,5,ISIC_0025061.JPG,ISIC_6642608.JPG,false,1,keypress(m),500,267807.7000000477,267807.60000014305,260790.065,260843.29999995232,260806.65,267787.068,8,400,26,,ISIC_0025061.JPG
break,html.Screen,4_25_1,2023-09-08T19:52:24.973Z,,0,,,NaN,,,,,,false,,,,267808,267808,,267807.7999999523,,267787.068,8,400,,,
break_continue,html.Screen,4_25_2,2023-09-08T19:52:24.974Z,,0,,,NaN,,,,,,false,,,,267808.2000000477,267808.10000014305,,267808.10000014305,,267787.068,8,400,,,
sequence,flow.Sequence,4_25,2023-09-08T19:52:24.974Z,,0,,,7001.450000143057,completion,,,,,false,,,,267808.2999999523,267808.10000014305,260790.065,260843.29999995232,260806.65,267787.068,8,400,,,
trial,html.Screen,4_26_0,2023-09-08T19:52:29.681Z,,0,1,,4728.632000047655,response,ISIC_0033533.JPG,4,ISIC_0011086.JPG,ISIC_0033533.JPG,false,1,keypress(m),500,272515.7999999523,272515.7000000477,267770.22,267808.2999999523,267787.068,272479.365,8,400,27,,ISIC_0011086.JPG
break,html.Screen,4_26_1,2023-09-08T19:52:29.681Z,,0,,,NaN,,,,,,false,,,,272516.10000014305,272516,,272515.90000009537,,272479.365,8,400,,,
break_continue,html.Screen,4_26_2,2023-09-08T19:52:29.682Z,,0,,,NaN,,,,,,false,,,,272516.2999999523,272516.2000000477,,272516.2000000477,,272479.365,8,400,,,
sequence,flow.Sequence,4_26,2023-09-08T19:52:29.682Z,,0,,,4729.132000047655,completion,,,,,false,,,,272516.2999999523,272516.2000000477,267770.22,267808.2999999523,267787.068,272479.365,8,400,,,
trial,html.Screen,4_27_0,2023-09-08T19:52:36.484Z,,0,1,,6839.335000047693,response,ISIC_0026910.JPG,5,ISIC_1686556.JPG,ISIC_1686556.JPG,false,0,keypress(z),500,279318.90000009537,279318.7000000477,272462.851,272516.40000009537,272479.365,279275.983,8,400,28,,ISIC_0026910.JPG
break,html.Screen,4_27_1,2023-09-08T19:52:36.485Z,,0,,,NaN,,,,,,false,,,,279319.90000009537,279319.7000000477,,279319.2999999523,,279275.983,8,400,,,
break_continue,html.Screen,4_27_2,2023-09-08T19:52:36.486Z,,0,,,NaN,,,,,,false,,,,279320.5,279320.2999999523,,279320.10000014305,,279275.983,8,400,,,
sequence,flow.Sequence,4_27,2023-09-08T19:52:36.486Z,,0,,,6840.934999952326,completion,,,,,false,,,,279320.7999999523,279320.2999999523,272462.851,272516.2999999523,272479.365,279275.983,8,400,,,
trial,html.Screen,4_28_0,2023-09-08T19:52:41.998Z,,0,1,,5556.816999952309,response,ISIC_0000161.JPG,6,ISIC_5623973.JPG,ISIC_5623973.JPG,false,0,keypress(z),500,284832.90000009537,284832.7999999523,279259.393,279321,279275.983,284803.358,8,400,29,,ISIC_0000161.JPG
break,html.Screen,4_28_1,2023-09-08T19:52:41.999Z,,0,,,NaN,,,,,,false,,,,284833.2999999523,284833.2000000477,,284833,,284803.358,8,400,,,
break_continue,html.Screen,4_28_2,2023-09-08T19:52:41.999Z,,0,,,NaN,,,,,,false,,,,284833.40000009537,284833.40000009537,,284833.2999999523,,284803.358,8,400,,,
sequence,flow.Sequence,4_28,2023-09-08T19:52:41.999Z,,0,,,5557.41700009536,completion,,,,,false,,,,284833.5,284833.40000009537,279259.393,279320.90000009537,279275.983,284803.358,8,400,,,
trial,html.Screen,4_29_0,2023-09-08T19:52:48.881Z,,0,1,,6912.342000047676,response,ISIC_9745038.JPG,5,ISIC_0000292.JPG,ISIC_9745038.JPG,false,1,keypress(m),500,291715.90000009537,291715.7000000477,284786.673,284833.60000014305,284803.358,291683.352,8,400,30,,ISIC_0000292.JPG
break,html.Screen,4_29_1,2023-09-08T19:52:48.882Z,,0,,,NaN,,,,,,false,,,,291716.40000009537,291716.2000000477,,291716,,291683.352,8,400,,,
break_continue,html.Screen,4_29_2,2023-09-08T19:52:48.882Z,,0,,,NaN,,,,,,false,,,,291716.60000014305,291716.5,,291716.40000009537,,291683.352,8,400,,,
sequence,flow.Sequence,4_29,2023-09-08T19:52:48.882Z,,0,,,6913.141999999993,completion,,,,,false,,,,291716.7000000477,291716.5,284786.673,284833.60000014305,284803.358,291683.352,8,400,,,
trial,html.Screen,4_30_0,2023-09-08T19:52:53.860Z,,0,1,,5010.947999952303,response,ISIC_4116224.JPG,5,ISIC_6919856.JPG,ISIC_6919856.JPG,false,0,keypress(z),500,296694.5,296694.2999999523,291666.77,291716.90000009537,291683.352,296659.764,8,400,31,,ISIC_4116224.JPG
break,html.Screen,4_30_1,2023-09-08T19:52:53.860Z,,0,,,NaN,,,,,,false,,,,296694.7999999523,296694.7000000477,,296694.60000014305,,296659.764,8,400,,,
break_continue,html.Screen,4_30_2,2023-09-08T19:52:53.860Z,,0,,,NaN,,,,,,false,,,,296695,296694.90000009537,,296694.90000009537,,296659.764,8,400,,,
sequence,flow.Sequence,4_30,2023-09-08T19:52:53.861Z,,0,,,5011.548000095354,completion,,,,,false,,,,296695,296694.90000009537,291666.77,291716.90000009537,291683.352,296659.764,8,400,,,
trial,html.Screen,4_31_0,2023-09-08T19:53:01.286Z,,0,1,,7460.535999952292,response,ISIC_0000411.JPG,4,ISIC_3923443.JPG,ISIC_3923443.JPG,false,0,keypress(z),500,304120.40000009537,304120.2999999523,296643.028,296695.10000014305,296659.764,304090.911,8,400,32,,ISIC_0000411.JPG
break,html.Screen,4_31_1,2023-09-08T19:53:01.286Z,,0,,,NaN,,,,,,false,,,,304120.90000009537,304120.7999999523,,304120.60000014305,,304090.911,8,400,,,
break_continue,html.Screen,4_31_2,2023-09-08T19:53:01.287Z,,0,,,NaN,,,,,,false,,,,304121.10000014305,304121,,304121,,304090.911,8,400,,,
sequence,flow.Sequence,4_31,2023-09-08T19:53:01.287Z,,0,,,7461.235999999975,completion,,,,,false,,,,304121.2999999523,304121,296643.028,296695,296659.764,304090.911,8,400,,,
trial,html.Screen,4_32_0,2023-09-08T19:53:06.248Z,,0,1,,4991.388999952294,response,ISIC_9112747.JPG,5,ISIC_0011933.JPG,ISIC_9112747.JPG,false,1,keypress(m),500,309082.5,309082.2999999523,304074.298,304121.2999999523,304090.911,309050.536,8,400,33,,ISIC_0011933.JPG
break,html.Screen,4_32_1,2023-09-08T19:53:06.248Z,,0,,,NaN,,,,,,false,,,,309082.7999999523,309082.7000000477,,309082.60000014305,,309050.536,8,400,,,
break_continue,html.Screen,4_32_2,2023-09-08T19:53:06.248Z,,0,,,NaN,,,,,,false,,,,309082.90000009537,309082.90000009537,,309082.7999999523,,309050.536,8,400,,,
sequence,flow.Sequence,4_32,2023-09-08T19:53:06.249Z,,0,,,4991.989000095346,completion,,,,,false,,,,309083,309082.90000009537,304074.298,304121.2999999523,304090.911,309050.536,8,400,,,
trial,html.Screen,4_33_0,2023-09-08T19:53:12.781Z,,0,1,,6564.463999999978,response,ISIC_7147898.JPG,5,ISIC_3520591.JPG,ISIC_3520591.JPG,false,0,keypress(z),500,315615.40000009537,315615,309033.89,309083,309050.536,315579.961,8,400,34,,ISIC_7147898.JPG
break,html.Screen,4_33_1,2023-09-08T19:53:12.782Z,,0,,,NaN,,,,,,false,,,,315616.7000000477,315616.40000009537,,315615.7999999523,,315579.961,8,400,,,
break_continue,html.Screen,4_33_2,2023-09-08T19:53:12.783Z,,0,,,NaN,,,,,,false,,,,315617.7999999523,315617.60000014305,,315617.2999999523,,315579.961,8,400,,,
sequence,flow.Sequence,4_33,2023-09-08T19:53:12.784Z,,0,,,6567.064000143029,completion,,,,,false,,,,315618.10000014305,315617.60000014305,309033.89,309083,309050.536,315579.961,8,400,,,
trial,html.Screen,4_34_0,2023-09-08T19:53:18.707Z,,0,1,,5961.439000095357,response,ISIC_4509525.JPG,5,ISIC_0009955.JPG,ISIC_4509525.JPG,false,1,keypress(m),500,321541.5,321541.40000009537,315563.362,315618.40000009537,315579.961,321508.066,8,400,35,,ISIC_0009955.JPG
break,html.Screen,4_34_1,2023-09-08T19:53:18.707Z,,0,,,NaN,,,,,,false,,,,321541.7999999523,321541.7000000477,,321541.7000000477,,321508.066,8,400,,,
break_continue,html.Screen,4_34_2,2023-09-08T19:53:18.707Z,,0,,,NaN,,,,,,false,,,,321542,321541.90000009537,,321541.90000009537,,321508.066,8,400,,,
sequence,flow.Sequence,4_34,2023-09-08T19:53:18.708Z,,0,,,5961.939000095357,completion,,,,,false,,,,321542.10000014305,321541.90000009537,315563.362,315618.2000000477,315579.961,321508.066,8,400,,,
trial,html.Screen,4_35_0,2023-09-08T19:53:24.585Z,,0,1,,5911.233999952325,response,ISIC_0013736.JPG,5,ISIC_7889838.JPG,ISIC_0013736.JPG,false,1,keypress(m),500,327419.5,327419.2999999523,321491.48,321542.10000014305,321508.066,327386.193,8,400,36,,ISIC_7889838.JPG
break,html.Screen,4_35_1,2023-09-08T19:53:24.585Z,,0,,,NaN,,,,,,false,,,,327419.7999999523,327419.7000000477,,327419.60000014305,,327386.193,8,400,,,
break_continue,html.Screen,4_35_2,2023-09-08T19:53:24.585Z,,0,,,NaN,,,,,,false,,,,327419.90000009537,327419.7999999523,,327419.7999999523,,327386.193,8,400,,,
sequence,flow.Sequence,4_35,2023-09-08T19:53:24.586Z,,0,,,5911.733999952325,completion,,,,,false,,,,327419.90000009537,327419.7999999523,321491.48,321542.10000014305,321508.066,327386.193,8,400,,,
trial,html.Screen,4_36_0,2023-09-08T19:53:30.572Z,,0,1,,6020.106999952288,response,ISIC_0071132.JPG,4,ISIC_0064738.JPG,ISIC_0071132.JPG,false,1,keypress(m),500,333406.5,333406.2999999523,327369.606,327420.10000014305,327386.193,333364.486,8,400,37,,ISIC_0064738.JPG
break,html.Screen,4_36_1,2023-09-08T19:53:30.573Z,,0,,,NaN,,,,,,false,,,,333407.10000014305,333407,,333406.7999999523,,333364.486,8,400,,,
break_continue,html.Screen,4_36_2,2023-09-08T19:53:30.573Z,,0,,,NaN,,,,,,false,,,,333407.2999999523,333407.2999999523,,333407.2000000477,,333364.486,8,400,,,
sequence,flow.Sequence,4_36,2023-09-08T19:53:30.573Z,,0,,,6021.106999952288,completion,,,,,false,,,,333407.40000009537,333407.2999999523,327369.606,327420,327386.193,333364.486,8,400,,,
trial,html.Screen,4_37_0,2023-09-08T19:53:38.191Z,,0,1,,7660.514000000025,response,ISIC_1074939.JPG,5,ISIC_0029078.JPG,ISIC_1074939.JPG,false,1,keypress(m),500,341025.2999999523,341025,333347.792,333407.5,333364.486,340996.067,8,400,38,,ISIC_0029078.JPG
break,html.Screen,4_37_1,2023-09-08T19:53:38.192Z,,0,,,NaN,,,,,,false,,,,341026.2999999523,341025.90000009537,,341025.5,,340996.067,8,400,,,
break_continue,html.Screen,4_37_2,2023-09-08T19:53:38.192Z,,0,,,NaN,,,,,,false,,,,341026.7000000477,341026.60000014305,,341026.40000009537,,340996.067,8,400,,,
sequence,flow.Sequence,4_37,2023-09-08T19:53:38.192Z,,0,,,7662.114000143076,completion,,,,,false,,,,341026.7999999523,341026.60000014305,333347.792,333407.40000009537,333364.486,340996.067,8,400,,,
trial,html.Screen,4_38_0,2023-09-08T19:53:44.931Z,,0,1,,6769.633000047703,response,ISIC_0058625.JPG,5,ISIC_7811951.JPG,ISIC_0058625.JPG,false,1,keypress(m),500,347765.7999999523,347765.7000000477,340979.472,341027,340996.067,347725.814,8,400,39,,ISIC_7811951.JPG
break,html.Screen,4_38_1,2023-09-08T19:53:44.931Z,,0,,,NaN,,,,,,false,,,,347766.10000014305,347766,,347765.90000009537,,347725.814,8,400,,,
break_continue,html.Screen,4_38_2,2023-09-08T19:53:44.931Z,,0,,,NaN,,,,,,false,,,,347766.2999999523,347766.2000000477,,347766.2000000477,,347725.814,8,400,,,
sequence,flow.Sequence,4_38,2023-09-08T19:53:44.931Z,,0,,,6770.133000047703,completion,,,,,false,,,,347766.2999999523,347766.2000000477,340979.472,341027,340996.067,347725.814,8,400,,,
trial,html.Screen,4_39_0,2023-09-08T19:53:51.274Z,,0,1,,6382.586000095354,response,ISIC_8068693.JPG,5,ISIC_6455702.JPG,ISIC_6455702.JPG,false,0,keypress(z),500,354108.40000009537,354108.40000009537,347709.128,347766.40000009537,347725.814,354071.489,8,400,40,,ISIC_8068693.JPG
break,html.Screen,4_39_1,2023-09-08T19:53:51.274Z,,0,,,NaN,,,,,,false,,,,354108.7999999523,354108.7000000477,,354108.60000014305,,354071.489,8,400,,,
break_continue,html.Screen,4_39_2,2023-09-08T19:53:51.274Z,,0,,,NaN,,,,,,false,,,,354109.10000014305,354108.90000009537,,354108.90000009537,,354071.489,8,400,,,
sequence,flow.Sequence,4_39,2023-09-08T19:53:51.274Z,,0,,,6383.086000095354,completion,,,,,false,,,,354109.2000000477,354108.90000009537,347709.128,347766.40000009537,347725.814,354071.489,8,400,,,
trial,html.Screen,4_40_0,2023-09-08T19:53:57.020Z,,0,1,,5783.711000047682,response,ISIC_8647900.JPG,4,ISIC_2822622.JPG,ISIC_8647900.JPG,false,1,keypress(m),500,359855.2000000477,359855.2000000477,354054.738,354109.2000000477,354071.489,359815.967,8,400,41,,ISIC_2822622.JPG
break,html.Screen,4_40_1,2023-09-08T19:53:57.021Z,,0,,,NaN,,,,,,false,,,,359856.10000014305,359855.5,,359855.2999999523,,359815.967,8,400,,,
break_continue,html.Screen,4_40_2,2023-09-08T19:53:57.021Z,,0,,,NaN,,,,,,false,,,,359856.40000009537,359856.2999999523,,359856.2000000477,,359815.967,8,400,,,
sequence,flow.Sequence,4_40,2023-09-08T19:53:57.022Z,,0,,,5784.810999952315,completion,,,,,false,,,,359856.40000009537,359856.2999999523,354054.738,354109.2000000477,354071.489,359815.967,8,400,,,
trial,html.Screen,4_41_0,2023-09-08T19:54:02.130Z,,0,1,,5148.332999952312,response,ISIC_0046664.JPG,6,ISIC_2133938.JPG,ISIC_2133938.JPG,false,0,keypress(z),500,364964.2999999523,364964.2999999523,359799.319,359856.40000009537,359815.967,364925.963,8,400,42,,ISIC_0046664.JPG
break,html.Screen,4_41_1,2023-09-08T19:54:02.130Z,,0,,,NaN,,,,,,false,,,,364964.7000000477,364964.7000000477,,364964.40000009537,,364925.963,8,400,,,
break_continue,html.Screen,4_41_2,2023-09-08T19:54:02.130Z,,0,,,NaN,,,,,,false,,,,364964.90000009537,364964.7999999523,,364964.7999999523,,364925.963,8,400,,,
sequence,flow.Sequence,4_41,2023-09-08T19:54:02.130Z,,0,,,5148.832999952312,completion,,,,,false,,,,364965,364964.7999999523,359799.319,359856.40000009537,359815.967,364925.963,8,400,,,
trial,html.Screen,4_42_0,2023-09-08T19:54:11.476Z,,0,1,,9384.737000047695,response,ISIC_3123711.JPG,6,ISIC_1637536.JPG,ISIC_3123711.JPG,false,1,keypress(m),500,374310.90000009537,374310.7000000477,364909.255,364965,364925.963,374277.475,8,400,43,,ISIC_1637536.JPG
break,html.Screen,4_42_1,2023-09-08T19:54:11.476Z,,0,,,NaN,,,,,,false,,,,374311.2000000477,374311,,374311,,374277.475,8,400,,,
break_continue,html.Screen,4_42_2,2023-09-08T19:54:11.477Z,,0,,,NaN,,,,,,false,,,,374311.40000009537,374311.2999999523,,374311.2999999523,,374277.475,8,400,,,
sequence,flow.Sequence,4_42,2023-09-08T19:54:11.477Z,,0,,,9385.336999952327,completion,,,,,false,,,,374311.40000009537,374311.2999999523,364909.255,364965,364925.963,374277.475,8,400,,,
trial,html.Screen,4_43_0,2023-09-08T19:54:18.903Z,,0,1,,7460.225000047707,response,ISIC_4325452.JPG,5,ISIC_1040340.JPG,ISIC_4325452.JPG,false,1,keypress(m),500,381737.90000009537,381737.7000000477,374260.779,374311.5,374277.475,381708.719,8,400,44,,ISIC_1040340.JPG
break,html.Screen,4_43_1,2023-09-08T19:54:18.903Z,,0,,,NaN,,,,,,false,,,,381738.2999999523,381738.10000014305,,381738,,381708.719,8,400,,,
break_continue,html.Screen,4_43_2,2023-09-08T19:54:18.904Z,,0,,,NaN,,,,,,false,,,,381738.5,381738.40000009537,,381738.40000009537,,381708.719,8,400,,,
sequence,flow.Sequence,4_43,2023-09-08T19:54:18.904Z,,0,,,7460.925000095391,completion,,,,,false,,,,381738.5,381738.40000009537,374260.779,374311.5,374277.475,381708.719,8,400,,,
trial,html.Screen,4_44_0,2023-09-08T19:54:22.569Z,,0,1,,3694.981000047701,response,ISIC_0057286.JPG,5,ISIC_4292879.JPG,ISIC_4292879.JPG,false,0,keypress(z),500,385403.90000009537,385403.7000000477,381691.966,381738.5,381708.719,385365.7,8,400,45,,ISIC_0057286.JPG
break,html.Screen,4_44_1,2023-09-08T19:54:22.569Z,,0,,,NaN,,,,,,false,,,,385404.2999999523,385404.2000000477,,385404,,385365.7,8,400,,,
break_continue,html.Screen,4_44_2,2023-09-08T19:54:22.570Z,,0,,,NaN,,,,,,false,,,,385404.5,385404.40000009537,,385404.40000009537,,385365.7,8,400,,,
sequence,flow.Sequence,4_44,2023-09-08T19:54:22.570Z,,0,,,3695.6810000953847,completion,,,,,false,,,,385404.60000014305,385404.40000009537,381691.966,381738.5,381708.719,385365.7,8,400,,,
trial,html.Screen,4_45_0,2023-09-08T19:54:30.171Z,,0,1,,7639.500000047672,response,ISIC_0032750.JPG,5,ISIC_3106058.JPG,ISIC_3106058.JPG,false,0,keypress(z),500,393005.40000009537,393005.2000000477,385349.026,385404.60000014305,385365.7,392963.816,8,400,46,,ISIC_0032750.JPG
break,html.Screen,4_45_1,2023-09-08T19:54:30.171Z,,0,,,NaN,,,,,,false,,,,393005.90000009537,393005.90000009537,,393005.60000014305,,392963.816,8,400,,,
break_continue,html.Screen,4_45_2,2023-09-08T19:54:30.171Z,,0,,,NaN,,,,,,false,,,,393006.2000000477,393006.10000014305,,393006,,392963.816,8,400,,,
sequence,flow.Sequence,4_45,2023-09-08T19:54:30.171Z,,0,,,7640.4000001430395,completion,,,,,false,,,,393006.2000000477,393006.10000014305,385349.026,385404.60000014305,385365.7,392963.816,8,400,,,
trial,html.Screen,4_46_0,2023-09-08T19:54:35.996Z,,0,1,,5866.983999952325,response,ISIC_0033419.JPG,5,ISIC_0031941.JPG,ISIC_0033419.JPG,false,1,keypress(m),500,398830.90000009537,398830.7999999523,392947.097,393006.2000000477,392963.816,398791.881,8,400,47,,ISIC_0031941.JPG
break,html.Screen,4_46_1,2023-09-08T19:54:35.996Z,,0,,,NaN,,,,,,false,,,,398831.40000009537,398831.2999999523,,398831,,398791.881,8,400,,,
break_continue,html.Screen,4_46_2,2023-09-08T19:54:35.997Z,,0,,,NaN,,,,,,false,,,,398831.5,398831.40000009537,,398831.40000009537,,398791.881,8,400,,,
sequence,flow.Sequence,4_46,2023-09-08T19:54:35.997Z,,0,,,5867.584000095376,completion,,,,,false,,,,398831.60000014305,398831.40000009537,392947.097,393006.2000000477,392963.816,398791.881,8,400,,,
trial,html.Screen,4_47_0,2023-09-08T19:54:43.472Z,,0,1,,7514.418999952322,response,ISIC_0029898.JPG,5,ISIC_7906421.JPG,ISIC_0029898.JPG,false,1,keypress(m),500,406306.40000009537,406306.2999999523,398775.203,398831.7999999523,398791.881,406273.034,8,400,48,,ISIC_7906421.JPG
break,html.Screen,4_47_1,2023-09-08T19:54:43.473Z,,0,,,NaN,,,,,,false,,,,406306.7999999523,406306.7000000477,,406306.5,,406273.034,8,400,,,
break_continue,html.Screen,4_47_2,2023-09-08T19:54:43.473Z,,0,,,NaN,,,,,,false,,,,406306.90000009537,406306.90000009537,,406306.90000009537,,406273.034,8,400,,,
sequence,flow.Sequence,4_47,2023-09-08T19:54:43.473Z,,0,,,7515.0190000953735,completion,,,,,false,,,,406307,406306.90000009537,398775.203,398831.7999999523,398791.881,406273.034,8,400,,,
trial,html.Screen,4_48_0,2023-09-08T19:54:50.025Z,,0,1,,6585.666000047699,response,ISIC_0065521.JPG,6,ISIC_0065889.JPG,ISIC_0065889.JPG,false,0,keypress(z),500,412858.7999999523,412858.7000000477,406256.388,406307.10000014305,406273.034,412819.103,8,400,49,,ISIC_0065521.JPG
break,html.Screen,4_48_1,2023-09-08T19:54:50.026Z,,0,,,NaN,,,,,,false,,,,412860,412859.7999999523,,412858.90000009537,,412819.103,8,400,,,
break_continue,html.Screen,4_48_2,2023-09-08T19:54:50.026Z,,0,,,NaN,,,,,,false,,,,412860.40000009537,412860.2000000477,,412860.2000000477,,412819.103,8,400,,,
sequence,flow.Sequence,4_48,2023-09-08T19:54:50.026Z,,0,,,6587.166000047699,completion,,,,,false,,,,412860.5,412860.2000000477,406256.388,406307,406273.034,412819.103,8,400,,,
trial,html.Screen,4_49_0,2023-09-08T19:54:55.620Z,,0,1,,5635.097000047681,response,ISIC_0009924.JPG,5,ISIC_0056364.JPG,ISIC_0056364.JPG,false,0,keypress(z),500,418454.40000009537,418454.2000000477,412802.599,412860.60000014305,412819.103,418413.451,8,400,50,,ISIC_0009924.JPG
break,html.Screen,4_49_1,2023-09-08T19:55:05.612Z,,0,,,10003.027000000002,timeout,,,,,false,,,,428445.7000000477,428399.588,418396.718,418454.7000000477,418413.451,428416.478,8,400,,,
break_continue,html.Screen,4_49_2,2023-09-08T19:55:07.623Z,,0,,,2033.4220000953646,response,,,,,false,continue,keypress(Space),,430456.60000014305,430449.90000009537,428399.588,428446,428416.478,430436.832,8,400,,,
sequence,flow.Sequence,4_49,2023-09-08T19:55:07.623Z,,0,,,17630.797000095365,completion,,,,,false,,,,430456.7000000477,430449.90000009537,412802.599,412860.60000014305,412819.103,430436.832,8,400,,,
trial,html.Screen,4_50_0,2023-09-08T19:55:12.041Z,,0,2,,4437.868000047689,response,ISIC_4130478.JPG,5,ISIC_0010089.JPG,ISIC_0010089.JPG,false,0,keypress(z),500,434874.90000009537,434874.7000000477,430420.154,430456.90000009537,430436.832,434845.394,8,400,1,,ISIC_4130478.JPG
break,html.Screen,4_50_1,2023-09-08T19:55:12.041Z,,0,,,NaN,,,,,,false,,,,434875.2999999523,434875.2000000477,,434875,,434845.394,8,400,,,
break_continue,html.Screen,4_50_2,2023-09-08T19:55:12.041Z,,0,,,NaN,,,,,,false,,,,434875.5,434875.40000009537,,434875.40000009537,,434845.394,8,400,,,
sequence,flow.Sequence,4_50,2023-09-08T19:55:12.042Z,,0,,,4438.568000095373,completion,,,,,false,,,,434875.5,434875.40000009537,430420.154,430456.7999999523,430436.832,434845.394,8,400,,,
trial,html.Screen,4_51_0,2023-09-08T19:55:16.811Z,,0,2,,4799.006000095396,response,ISIC_0055293.JPG,6,ISIC_0062077.JPG,ISIC_0062077.JPG,false,0,keypress(z),500,439644.60000014305,439644.40000009537,434828.739,434875.7000000477,434845.394,439604.549,8,400,2,,ISIC_0055293.JPG
break,html.Screen,4_51_1,2023-09-08T19:55:16.811Z,,0,,,NaN,,,,,,false,,,,439645.10000014305,439644.90000009537,,439644.7000000477,,439604.549,8,400,,,
break_continue,html.Screen,4_51_2,2023-09-08T19:55:16.811Z,,0,,,NaN,,,,,,false,,,,439645.2999999523,439645.2000000477,,439645.2000000477,,439604.549,8,400,,,
sequence,flow.Sequence,4_51,2023-09-08T19:55:16.811Z,,0,,,4799.806000047713,completion,,,,,false,,,,439645.40000009537,439645.2000000477,434828.739,434875.7000000477,434845.394,439604.549,8,400,,,
trial,html.Screen,4_52_0,2023-09-08T19:55:20.413Z,,0,2,,3641.951000000001,response,ISIC_0054350.JPG,5,ISIC_5221917.JPG,ISIC_5221917.JPG,false,0,keypress(z),500,443246.7000000477,443246.5,439587.912,439645.60000014305,439604.549,443211.584,8,400,3,,ISIC_0054350.JPG
break,html.Screen,4_52_1,2023-09-08T19:55:20.413Z,,0,,,NaN,,,,,,false,,,,443247,443247,,443246.7999999523,,443211.584,8,400,,,
break_continue,html.Screen,4_52_2,2023-09-08T19:55:20.413Z,,0,,,NaN,,,,,,false,,,,443247.2999999523,443247.2000000477,,443247.2000000477,,443211.584,8,400,,,
sequence,flow.Sequence,4_52,2023-09-08T19:55:20.413Z,,0,,,3642.6510000476846,completion,,,,,false,,,,443247.5,443247.2000000477,439587.912,439645.5,439604.549,443211.584,8,400,,,
trial,html.Screen,4_53_0,2023-09-08T19:55:25.136Z,,0,2,,4758.61600004771,response,ISIC_0024656.JPG,4,ISIC_0028022.JPG,ISIC_0024656.JPG,false,1,keypress(m),500,447970.2999999523,447970.2000000477,443195.062,443247.60000014305,443211.584,447937.632,8,400,4,,ISIC_0028022.JPG
break,html.Screen,4_53_1,2023-09-08T19:55:25.137Z,,0,,,NaN,,,,,,false,,,,447970.90000009537,447970.7000000477,,447970.5,,447937.632,8,400,,,
break_continue,html.Screen,4_53_2,2023-09-08T19:55:25.137Z,,0,,,NaN,,,,,,false,,,,447971.10000014305,447971,,447971,,447937.632,8,400,,,
sequence,flow.Sequence,4_53,2023-09-08T19:55:25.137Z,,0,,,4759.4160000000265,completion,,,,,false,,,,447971.2000000477,447971,443195.062,443247.60000014305,443211.584,447937.632,8,400,,,
trial,html.Screen,4_54_0,2023-09-08T19:55:30.979Z,,0,2,,5874.968000143068,response,ISIC_0009993.JPG,4,ISIC_8586909.JPG,ISIC_8586909.JPG,false,0,keypress(z),500,453812.7000000477,453812.60000014305,447920.875,447971.2999999523,447937.632,453782.253,8,400,5,,ISIC_0009993.JPG
break,html.Screen,4_54_1,2023-09-08T19:55:30.979Z,,0,,,NaN,,,,,,false,,,,453813.2000000477,453813.10000014305,,453813,,453782.253,8,400,,,
break_continue,html.Screen,4_54_2,2023-09-08T19:55:30.980Z,,0,,,NaN,,,,,,false,,,,453813.60000014305,453813.5,,453813.40000009537,,453782.253,8,400,,,
sequence,flow.Sequence,4_54,2023-09-08T19:55:30.980Z,,0,,,5875.868000000017,completion,,,,,false,,,,453813.7000000477,453813.5,447920.875,447971.2000000477,447937.632,453782.253,8,400,,,
trial,html.Screen,4_55_0,2023-09-08T19:55:35.621Z,,0,2,,4673.04699995229,response,ISIC_2799447.JPG,4,ISIC_0025683.JPG,ISIC_2799447.JPG,false,1,keypress(m),500,458455.5,458455.2999999523,453765.471,453813.90000009537,453782.253,458424.577,8,400,6,,ISIC_0025683.JPG
break,html.Screen,4_55_1,2023-09-08T19:55:35.622Z,,0,,,NaN,,,,,,false,,,,458455.7999999523,458455.7000000477,,458455.60000014305,,458424.577,8,400,,,
break_continue,html.Screen,4_55_2,2023-09-08T19:55:35.622Z,,0,,,NaN,,,,,,false,,,,458455.90000009537,458455.7999999523,,458455.7999999523,,458424.577,8,400,,,
sequence,flow.Sequence,4_55,2023-09-08T19:55:35.622Z,,0,,,4673.54699995229,completion,,,,,false,,,,458456,458455.7999999523,453765.471,453813.7000000477,453782.253,458424.577,8,400,,,
trial,html.Screen,4_56_0,2023-09-08T19:55:39.544Z,,0,2,,3953.023000143061,response,ISIC_1975042.JPG,5,ISIC_5287679.JPG,ISIC_5287679.JPG,false,0,keypress(z),500,462377.7999999523,462377.60000014305,458407.938,458456,458424.577,462349.032,8,400,7,,ISIC_1975042.JPG
break,html.Screen,4_56_1,2023-09-08T19:55:39.544Z,,0,,,NaN,,,,,,false,,,,462378.40000009537,462378.2000000477,,462378,,462349.032,8,400,,,
break_continue,html.Screen,4_56_2,2023-09-08T19:55:39.545Z,,0,,,NaN,,,,,,false,,,,462378.7999999523,462378.7000000477,,462378.60000014305,,462349.032,8,400,,,
sequence,flow.Sequence,4_56,2023-09-08T19:55:39.545Z,,0,,,3954.1230000476935,completion,,,,,false,,,,462379,462378.7000000477,458407.938,458456,458424.577,462349.032,8,400,,,
trial,html.Screen,4_57_0,2023-09-08T19:55:46.586Z,,0,2,,7071.068000143045,response,ISIC_9337870.JPG,5,ISIC_0029339.JPG,ISIC_9337870.JPG,false,1,keypress(m),500,469420.2000000477,469420.10000014305,462332.168,462379.10000014305,462349.032,469379.217,8,400,8,,ISIC_0029339.JPG
break,html.Screen,4_57_1,2023-09-08T19:55:46.587Z,,0,,,NaN,,,,,,false,,,,469420.5,469420.40000009537,,469420.40000009537,,469379.217,8,400,,,
break_continue,html.Screen,4_57_2,2023-09-08T19:55:46.587Z,,0,,,NaN,,,,,,false,,,,469420.7000000477,469420.60000014305,,469420.60000014305,,469379.217,8,400,,,
sequence,flow.Sequence,4_57,2023-09-08T19:55:46.587Z,,0,,,7071.568000143045,completion,,,,,false,,,,469420.7000000477,469420.60000014305,462332.168,462379.10000014305,462349.032,469379.217,8,400,,,
trial,html.Screen,4_58_0,2023-09-08T19:55:51.372Z,,0,2,,4826.782999999996,response,ISIC_3077674.JPG,5,ISIC_0009971.JPG,ISIC_0009971.JPG,false,0,keypress(z),500,474206.40000009537,474206,469362.524,469420.7999999523,469379.217,474171.865,8,400,9,,ISIC_3077674.JPG
break,html.Screen,4_58_1,2023-09-08T19:55:51.374Z,,0,,,NaN,,,,,,false,,,,474207.90000009537,474207.60000014305,,474207,,474171.865,8,400,,,
break_continue,html.Screen,4_58_2,2023-09-08T19:55:51.374Z,,0,,,NaN,,,,,,false,,,,474208.40000009537,474208.2000000477,,474208.10000014305,,474171.865,8,400,,,
sequence,flow.Sequence,4_58,2023-09-08T19:55:51.375Z,,0,,,4828.9830000476795,completion,,,,,false,,,,474208.60000014305,474208.2000000477,469362.524,469420.7999999523,469379.217,474171.865,8,400,,,
trial,html.Screen,4_59_0,2023-09-08T19:55:57.059Z,,0,2,,5721.2350001430605,response,ISIC_0013997.JPG,5,ISIC_0066101.JPG,ISIC_0013997.JPG,false,1,keypress(m),500,479893.40000009537,479893.10000014305,474155.238,474208.90000009537,474171.865,479866.31,8,400,10,,ISIC_0066101.JPG
break,html.Screen,4_59_1,2023-09-08T19:55:57.060Z,,0,,,NaN,,,,,,false,,,,479894.40000009537,479894.2000000477,,479893.60000014305,,479866.31,8,400,,,
break_continue,html.Screen,4_59_2,2023-09-08T19:55:57.061Z,,0,,,NaN,,,,,,false,,,,479895.10000014305,479894.7999999523,,479894.60000014305,,479866.31,8,400,,,
sequence,flow.Sequence,4_59,2023-09-08T19:55:57.062Z,,0,,,5722.934999952326,completion,,,,,false,,,,479895.60000014305,479894.7999999523,474155.238,474208.7999999523,474171.865,479866.31,8,400,,,
trial,html.Screen,4_60_0,2023-09-08T19:56:03.384Z,,0,2,,6351.890000047686,response,ISIC_0504730.JPG,5,ISIC_0059976.JPG,ISIC_0059976.JPG,false,0,keypress(z),500,486218.2999999523,486218.2000000477,479849.568,479896.10000014305,479866.31,486178.622,8,400,11,,ISIC_0504730.JPG
break,html.Screen,4_60_1,2023-09-08T19:56:03.385Z,,0,,,NaN,,,,,,false,,,,486218.60000014305,486218.5,,486218.40000009537,,486178.622,8,400,,,
break_continue,html.Screen,4_60_2,2023-09-08T19:56:03.385Z,,0,,,NaN,,,,,,false,,,,486218.7000000477,486218.7000000477,,486218.60000014305,,486178.622,8,400,,,
sequence,flow.Sequence,4_60,2023-09-08T19:56:03.385Z,,0,,,6352.390000047686,completion,,,,,false,,,,486218.7999999523,486218.7000000477,479849.568,479895.90000009537,479866.31,486178.622,8,400,,,
trial,html.Screen,4_61_0,2023-09-08T19:56:08.010Z,,0,2,,4665.2780000953935,response,ISIC_5721110.JPG,6,ISIC_0032774.JPG,ISIC_5721110.JPG,false,1,keypress(m),500,490844.10000014305,490843.90000009537,486162.018,486218.90000009537,486178.622,490804.279,8,400,12,,ISIC_0032774.JPG
break,html.Screen,4_61_1,2023-09-08T19:56:08.011Z,,0,,,NaN,,,,,,false,,,,490844.5,490844.40000009537,,490844.2000000477,,490804.279,8,400,,,
break_continue,html.Screen,4_61_2,2023-09-08T19:56:08.011Z,,0,,,NaN,,,,,,false,,,,490844.7000000477,490844.60000014305,,490844.60000014305,,490804.279,8,400,,,
sequence,flow.Sequence,4_61,2023-09-08T19:56:08.011Z,,0,,,4665.978000143077,completion,,,,,false,,,,490844.7000000477,490844.60000014305,486162.018,486218.90000009537,486178.622,490804.279,8,400,,,
trial,html.Screen,4_62_0,2023-09-08T19:56:13.132Z,,0,2,,5161.921000047703,response,ISIC_5935362.JPG,5,ISIC_1067390.JPG,ISIC_1067390.JPG,false,0,keypress(z),500,495966.2999999523,495966.2000000477,490787.87,490844.7999999523,490804.279,495930.821,8,400,13,,ISIC_5935362.JPG
break,html.Screen,4_62_1,2023-09-08T19:56:13.133Z,,0,,,NaN,,,,,,false,,,,495966.60000014305,495966.60000014305,,495966.40000009537,,495930.821,8,400,,,
break_continue,html.Screen,4_62_2,2023-09-08T19:56:13.133Z,,0,,,NaN,,,,,,false,,,,495966.7999999523,495966.7999999523,,495966.7000000477,,495930.821,8,400,,,
sequence,flow.Sequence,4_62,2023-09-08T19:56:13.133Z,,0,,,5162.520999952336,completion,,,,,false,,,,495966.90000009537,495966.7999999523,490787.87,490844.7999999523,490804.279,495930.821,8,400,,,
trial,html.Screen,4_63_0,2023-09-08T19:56:18.862Z,,0,2,,5765.179000000004,response,ISIC_0010995.JPG,6,ISIC_0054982.JPG,ISIC_0010995.JPG,false,1,keypress(m),500,501696,501696,495914.161,495966.90000009537,495930.821,501658.706,8,400,14,,ISIC_0054982.JPG
break,html.Screen,4_63_1,2023-09-08T19:56:18.862Z,,0,,,NaN,,,,,,false,,,,501696.2999999523,501696.2000000477,,501696.10000014305,,501658.706,8,400,,,
break_continue,html.Screen,4_63_2,2023-09-08T19:56:18.863Z,,0,,,NaN,,,,,,false,,,,501696.5,501696.5,,501696.40000009537,,501658.706,8,400,,,
sequence,flow.Sequence,4_63,2023-09-08T19:56:18.863Z,,0,,,5765.679000000004,completion,,,,,false,,,,501696.60000014305,501696.5,495914.161,495966.90000009537,495930.821,501658.706,8,400,,,
trial,html.Screen,4_64_0,2023-09-08T19:56:24.867Z,,0,2,,6041.694000095362,response,ISIC_0844312.JPG,5,ISIC_0033157.JPG,ISIC_0844312.JPG,false,1,keypress(m),500,507700.90000009537,507700.40000009537,501642.009,501696.7000000477,501658.706,507670.405,8,400,15,,ISIC_0033157.JPG
break,html.Screen,4_64_1,2023-09-08T19:56:24.868Z,,0,,,NaN,,,,,,false,,,,507702.10000014305,507701.7999999523,,507701.2999999523,,507670.405,8,400,,,
break_continue,html.Screen,4_64_2,2023-09-08T19:56:24.869Z,,0,,,NaN,,,,,,false,,,,507702.7999999523,507702.5,,507702.2999999523,,507670.405,8,400,,,
sequence,flow.Sequence,4_64,2023-09-08T19:56:24.869Z,,0,,,6043.793999999994,completion,,,,,false,,,,507703.10000014305,507702.5,501642.009,501696.60000014305,501658.706,507670.405,8,400,,,
trial,html.Screen,4_65_0,2023-09-08T19:56:31.537Z,,0,2,,6700.4950000953395,response,ISIC_0268187.JPG,6,ISIC_5359416.JPG,ISIC_0268187.JPG,false,1,keypress(m),500,514371.2999999523,514370.90000009537,507653.691,507703.2999999523,507670.405,514333.328,8,400,16,,ISIC_5359416.JPG
break,html.Screen,4_65_1,2023-09-08T19:56:31.538Z,,0,,,NaN,,,,,,false,,,,514372.10000014305,514371.90000009537,,514371.5,,514333.328,8,400,,,
break_continue,html.Screen,4_65_2,2023-09-08T19:56:31.538Z,,0,,,NaN,,,,,,false,,,,514372.40000009537,514372.2999999523,,514372.2000000477,,514333.328,8,400,,,
sequence,flow.Sequence,4_65,2023-09-08T19:56:31.539Z,,0,,,6701.894999952288,completion,,,,,false,,,,514372.60000014305,514372.2999999523,507653.691,507703.2000000477,507670.405,514333.328,8,400,,,
trial,html.Screen,4_66_0,2023-09-08T19:56:36.251Z,,0,2,,4751.372000047704,response,ISIC_0070435.JPG,5,ISIC_3623368.JPG,ISIC_3623368.JPG,false,0,keypress(z),500,519084.7999999523,519084.7000000477,514316.771,514372.7000000477,514333.328,519042.508,8,400,17,,ISIC_0070435.JPG
break,html.Screen,4_66_1,2023-09-08T19:56:36.251Z,,0,,,NaN,,,,,,false,,,,519085.2000000477,519085.10000014305,,519085,,519042.508,8,400,,,
break_continue,html.Screen,4_66_2,2023-09-08T19:56:36.252Z,,0,,,NaN,,,,,,false,,,,519085.60000014305,519085.5,,519085.40000009537,,519042.508,8,400,,,
sequence,flow.Sequence,4_66,2023-09-08T19:56:36.252Z,,0,,,4752.1720000000205,completion,,,,,false,,,,519085.7000000477,519085.5,514316.771,514372.7000000477,514333.328,519042.508,8,400,,,
trial,html.Screen,4_67_0,2023-09-08T19:56:45.812Z,,0,2,,9602.592000143079,response,ISIC_3401777.JPG,6,ISIC_3809998.JPG,ISIC_3401777.JPG,false,1,keypress(m),500,528645.2999999523,528645.100000143,519025.828,519085.90000009537,519042.508,528611.168,8,400,18,,ISIC_3809998.JPG
break,html.Screen,4_67_1,2023-09-08T19:56:45.812Z,,0,,,NaN,,,,,,false,,,,528645.7999999523,528645.7000000477,,528645.5,,528611.168,8,400,,,
break_continue,html.Screen,4_67_2,2023-09-08T19:56:45.813Z,,0,,,NaN,,,,,,false,,,,528646.7000000477,528646.4000000954,,528646.2000000477,,528611.168,8,400,,,
sequence,flow.Sequence,4_67,2023-09-08T19:56:45.813Z,,0,,,9603.892000095395,completion,,,,,false,,,,528647.2000000477,528646.4000000954,519025.828,519085.90000009537,519042.508,528611.168,8,400,,,
trial,html.Screen,4_68_0,2023-09-08T19:56:49.784Z,,0,2,,4006.032000047737,response,ISIC_7566505.JPG,5,ISIC_0071111.JPG,ISIC_7566505.JPG,false,1,keypress(m),500,532617.4000000954,532617.2000000477,528594.437,528647.4000000954,528611.168,532585.585,8,400,19,,ISIC_0071111.JPG
break,html.Screen,4_68_1,2023-09-08T19:56:49.784Z,,0,,,NaN,,,,,,false,,,,532617.600000143,532617.600000143,,532617.5,,532585.585,8,400,,,
break_continue,html.Screen,4_68_2,2023-09-08T19:56:49.784Z,,0,,,NaN,,,,,,false,,,,532617.7999999523,532617.7000000477,,532617.7000000477,,532585.585,8,400,,,
sequence,flow.Sequence,4_68,2023-09-08T19:56:49.784Z,,0,,,4006.532000047737,completion,,,,,false,,,,532617.9000000954,532617.7000000477,528594.437,528647.2999999523,528611.168,532585.585,8,400,,,
trial,html.Screen,4_69_0,2023-09-08T19:56:55.450Z,,0,2,,5697.815000095405,response,ISIC_3436033.JPG,4,ISIC_7378303.JPG,ISIC_7378303.JPG,false,0,keypress(z),500,538283.600000143,538283.4000000954,532568.982,532617.9000000954,532585.585,538246.703,8,400,20,,ISIC_3436033.JPG
break,html.Screen,4_69_1,2023-09-08T19:56:55.451Z,,0,,,NaN,,,,,,false,,,,538284.2999999523,538284,,538283.7000000477,,538246.703,8,400,,,
break_continue,html.Screen,4_69_2,2023-09-08T19:56:55.451Z,,0,,,NaN,,,,,,false,,,,538284.7000000477,538284.7000000477,,538284.5,,538246.703,8,400,,,
sequence,flow.Sequence,4_69,2023-09-08T19:56:55.451Z,,0,,,5699.115000047721,completion,,,,,false,,,,538284.9000000954,538284.7000000477,532568.982,532617.9000000954,532585.585,538246.703,8,400,,,
trial,html.Screen,4_70_0,2023-09-08T19:56:58.947Z,,0,2,,3533.596999952337,response,ISIC_0060660.JPG,5,ISIC_0028175.JPG,ISIC_0060660.JPG,false,1,keypress(m),500,541780.5,541780.2999999523,538230.005,538285,538246.703,541753.354,8,400,21,,ISIC_0028175.JPG
break,html.Screen,4_70_1,2023-09-08T19:56:58.947Z,,0,,,NaN,,,,,,false,,,,541780.9000000954,541780.7000000477,,541780.600000143,,541753.354,8,400,,,
break_continue,html.Screen,4_70_2,2023-09-08T19:56:58.947Z,,0,,,NaN,,,,,,false,,,,541781,541780.9000000954,,541780.9000000954,,541753.354,8,400,,,
sequence,flow.Sequence,4_70,2023-09-08T19:56:58.947Z,,0,,,3534.197000095388,completion,,,,,false,,,,541781.100000143,541780.9000000954,538230.005,538285,538246.703,541753.354,8,400,,,
trial,html.Screen,4_71_0,2023-09-08T19:57:06.859Z,,0,2,,7939.64599999995,response,ISIC_0010550.JPG,5,ISIC_2046891.JPG,ISIC_2046891.JPG,false,0,keypress(z),500,549693.100000143,549693,541720.082,541781.2000000477,541753.354,549652.079,8,400,22,,ISIC_0010550.JPG
break,html.Screen,4_71_1,2023-09-08T19:57:06.861Z,,0,,,NaN,,,,,,false,,,,549694.2000000477,549694.100000143,,549694,,549652.079,8,400,,,
break_continue,html.Screen,4_71_2,2023-09-08T19:57:06.861Z,,0,,,NaN,,,,,,false,,,,549694.5,549694.4000000954,,549694.4000000954,,549652.079,8,400,,,
sequence,flow.Sequence,4_71,2023-09-08T19:57:06.861Z,,0,,,7941.046000095317,completion,,,,,false,,,,549694.600000143,549694.4000000954,541720.082,541781.2000000477,541753.354,549652.079,8,400,,,
trial,html.Screen,4_72_0,2023-09-08T19:57:13.167Z,,0,2,,6347.82100009534,response,ISIC_0064761.JPG,5,ISIC_5490257.JPG,ISIC_5490257.JPG,false,0,keypress(z),500,556000.2000000477,555999.9000000954,549635.395,549694.600000143,549652.079,555964.441,8,400,23,,ISIC_0064761.JPG
break,html.Screen,4_72_1,2023-09-08T19:57:13.168Z,,0,,,NaN,,,,,,false,,,,556001.2999999523,556001,,556000.600000143,,555964.441,8,400,,,
break_continue,html.Screen,4_72_2,2023-09-08T19:57:13.168Z,,0,,,NaN,,,,,,false,,,,556001.7999999523,556001.7000000477,,556001.4000000954,,555964.441,8,400,,,
sequence,flow.Sequence,4_72,2023-09-08T19:57:13.168Z,,0,,,6349.621000047657,completion,,,,,false,,,,556002.100000143,556001.7000000477,549635.395,549694.600000143,549652.079,555964.441,8,400,,,
trial,html.Screen,4_73_0,2023-09-08T19:57:19.331Z,,0,2,,6199.6590001430595,response,ISIC_5382189.JPG,5,ISIC_0060351.JPG,ISIC_5382189.JPG,false,1,keypress(m),500,562164.2000000477,562164.100000143,555947.635,556002.4000000954,555964.441,562126.396,8,400,24,,ISIC_0060351.JPG
break,html.Screen,4_73_1,2023-09-08T19:57:19.331Z,,0,,,NaN,,,,,,false,,,,562164.5,562164.4000000954,,562164.2999999523,,562126.396,8,400,,,
break_continue,html.Screen,4_73_2,2023-09-08T19:57:19.331Z,,0,,,NaN,,,,,,false,,,,562164.7000000477,562164.600000143,,562164.600000143,,562126.396,8,400,,,
sequence,flow.Sequence,4_73,2023-09-08T19:57:19.331Z,,0,,,6200.1590001430595,completion,,,,,false,,,,562164.7000000477,562164.600000143,555947.635,556002.2999999523,555964.441,562126.396,8,400,,,
trial,html.Screen,4_74_0,2023-09-08T19:57:23.965Z,,0,2,,4671.504000095418,response,ISIC_0000814.JPG,6,ISIC_0062463.JPG,ISIC_0000814.JPG,false,1,keypress(m),500,566798.2000000477,566797.9000000954,562109.743,562164.7999999523,562126.396,566768.78,8,400,25,,ISIC_0062463.JPG
break,html.Screen,4_74_1,2023-09-08T19:57:23.966Z,,0,,,NaN,,,,,,false,,,,566799.2999999523,566799.100000143,,566798.600000143,,566768.78,8,400,,,
break_continue,html.Screen,4_74_2,2023-09-08T19:57:23.966Z,,0,,,NaN,,,,,,false,,,,566799.9000000954,566799.7000000477,,566799.5,,566768.78,8,400,,,
sequence,flow.Sequence,4_74,2023-09-08T19:57:23.967Z,,0,,,4673.304000047734,completion,,,,,false,,,,566800.2000000477,566799.7000000477,562109.743,562164.7999999523,562126.396,566768.78,8,400,,,
trial,html.Screen,4_75_0,2023-09-08T19:57:29.409Z,,0,2,,5473.6200000953395,response,ISIC_4529363.JPG,4,ISIC_9895436.JPG,ISIC_9895436.JPG,false,0,keypress(z),500,572242.5,572242.4000000954,566752.049,566800.4000000954,566768.78,572212.741,8,400,26,,ISIC_4529363.JPG
break,html.Screen,4_75_1,2023-09-08T19:57:29.409Z,,0,,,NaN,,,,,,false,,,,572242.9000000954,572242.9000000954,,572242.600000143,,572212.741,8,400,,,
break_continue,html.Screen,4_75_2,2023-09-08T19:57:29.409Z,,0,,,NaN,,,,,,false,,,,572243,572243,,572242.9000000954,,572212.741,8,400,,,
sequence,flow.Sequence,4_75,2023-09-08T19:57:29.409Z,,0,,,5474.219999999972,completion,,,,,false,,,,572243.100000143,572243,566752.049,566800.4000000954,566768.78,572212.741,8,400,,,
trial,html.Screen,4_76_0,2023-09-08T19:57:37.498Z,,0,2,,8118.258999999962,response,ISIC_0071118.JPG,6,ISIC_9870885.JPG,ISIC_9870885.JPG,false,0,keypress(z),500,580331.2000000477,580331,572196.013,572243.2000000477,572212.741,580295.067,8,400,27,,ISIC_0071118.JPG
break,html.Screen,4_76_1,2023-09-08T19:57:37.499Z,,0,,,NaN,,,,,,false,,,,580332.2000000477,580332,,580331.600000143,,580295.067,8,400,,,
break_continue,html.Screen,4_76_2,2023-09-08T19:57:37.499Z,,0,,,NaN,,,,,,false,,,,580332.7000000477,580332.600000143,,580332.4000000954,,580295.067,8,400,,,
sequence,flow.Sequence,4_76,2023-09-08T19:57:37.499Z,,0,,,8119.859000143013,completion,,,,,false,,,,580333,580332.600000143,572196.013,572243.2000000477,572212.741,580295.067,8,400,,,
trial,html.Screen,4_77_0,2023-09-08T19:57:42.798Z,,0,2,,5336.033000143012,response,ISIC_5226353.JPG,5,ISIC_0027238.JPG,ISIC_5226353.JPG,false,1,keypress(m),500,585631.100000143,585631.100000143,580278.504,580333.100000143,580295.067,585588.682,8,400,28,,ISIC_0027238.JPG
break,html.Screen,4_77_1,2023-09-08T19:57:42.798Z,,0,,,NaN,,,,,,false,,,,585631.4000000954,585631.4000000954,,585631.2000000477,,585588.682,8,400,,,
break_continue,html.Screen,4_77_2,2023-09-08T19:57:42.798Z,,0,,,NaN,,,,,,false,,,,585631.7000000477,585631.600000143,,585631.5,,585588.682,8,400,,,
sequence,flow.Sequence,4_77,2023-09-08T19:57:42.798Z,,0,,,5336.533000143012,completion,,,,,false,,,,585631.7000000477,585631.600000143,580278.504,580333.100000143,580295.067,585588.682,8,400,,,
trial,html.Screen,4_78_0,2023-09-08T19:57:49.431Z,,0,2,,6676.1179999522865,response,ISIC_0027091.JPG,4,ISIC_8942967.JPG,ISIC_0027091.JPG,false,1,keypress(m),500,592264.9000000954,592264.7999999523,585572.242,585631.7000000477,585588.682,592234.955,8,400,29,,ISIC_8942967.JPG
break,html.Screen,4_78_1,2023-09-08T19:57:49.432Z,,0,,,NaN,,,,,,false,,,,592265.4000000954,592265.2999999523,,592265,,592234.955,8,400,,,
break_continue,html.Screen,4_78_2,2023-09-08T19:57:49.432Z,,0,,,NaN,,,,,,false,,,,592265.5,592265.5,,592265.4000000954,,592234.955,8,400,,,
sequence,flow.Sequence,4_78,2023-09-08T19:57:49.432Z,,0,,,6676.81799999997,completion,,,,,false,,,,592265.7999999523,592265.5,585572.242,585631.7000000477,585588.682,592234.955,8,400,,,
trial,html.Screen,4_79_0,2023-09-08T19:57:55.762Z,,0,2,,6359.945000095409,response,ISIC_0061343.JPG,5,ISIC_3432650.JPG,ISIC_3432650.JPG,false,0,keypress(z),500,598595,598594.9000000954,592218.24,592265.7999999523,592234.955,598564.014,8,400,30,,ISIC_0061343.JPG
break,html.Screen,4_79_1,2023-09-08T19:57:55.762Z,,0,,,NaN,,,,,,false,,,,598595.600000143,598595.5,,598595.2000000477,,598564.014,8,400,,,
break_continue,html.Screen,4_79_2,2023-09-08T19:57:55.763Z,,0,,,NaN,,,,,,false,,,,598596.100000143,598595.9000000954,,598595.7999999523,,598564.014,8,400,,,
sequence,flow.Sequence,4_79,2023-09-08T19:57:55.763Z,,0,,,6360.945000095409,completion,,,,,false,,,,598596.2000000477,598595.9000000954,592218.24,592265.7999999523,592234.955,598564.014,8,400,,,
trial,html.Screen,4_80_0,2023-09-08T19:58:01.130Z,,0,2,,5399.28599995235,response,ISIC_0033392.JPG,6,ISIC_5736979.JPG,ISIC_0033392.JPG,false,1,keypress(m),500,603963.5,603963.2999999523,598547.385,598596.2999999523,598564.014,603924.489,8,400,31,,ISIC_5736979.JPG
break,html.Screen,4_80_1,2023-09-08T19:58:01.131Z,,0,,,NaN,,,,,,false,,,,603964,603963.7999999523,,603963.600000143,,603924.489,8,400,,,
break_continue,html.Screen,4_80_2,2023-09-08T19:58:01.131Z,,0,,,NaN,,,,,,false,,,,603964.5,603964.4000000954,,603964.2000000477,,603924.489,8,400,,,
sequence,flow.Sequence,4_80,2023-09-08T19:58:01.131Z,,0,,,5400.386000095401,completion,,,,,false,,,,603964.600000143,603964.4000000954,598547.385,598596.2999999523,598564.014,603924.489,8,400,,,
trial,html.Screen,4_81_0,2023-09-08T19:58:06.577Z,,0,2,,5486.011000000057,response,ISIC_4445729.JPG,5,ISIC_0006181.JPG,ISIC_0006181.JPG,false,0,keypress(z),500,609410.7000000477,609410.5,603907.692,603964.7999999523,603924.489,609368.314,8,400,32,,ISIC_4445729.JPG
break,html.Screen,4_81_1,2023-09-08T19:58:06.578Z,,0,,,NaN,,,,,,false,,,,609411,609410.9000000954,,609410.7999999523,,609368.314,8,400,,,
break_continue,html.Screen,4_81_2,2023-09-08T19:58:06.578Z,,0,,,NaN,,,,,,false,,,,609411.2000000477,609411.100000143,,609411.100000143,,609368.314,8,400,,,
sequence,flow.Sequence,4_81,2023-09-08T19:58:06.578Z,,0,,,5486.611000143108,completion,,,,,false,,,,609411.2999999523,609411.100000143,603907.692,603964.7000000477,603924.489,609368.314,8,400,,,
trial,html.Screen,4_82_0,2023-09-08T19:58:11.689Z,,0,2,,5153.386000047671,response,ISIC_9260499.JPG,5,ISIC_6620377.JPG,ISIC_9260499.JPG,false,1,keypress(m),500,614522.100000143,614521.7000000477,609351.742,609411.2999999523,609368.314,614495.002,8,400,33,,ISIC_6620377.JPG
break,html.Screen,4_82_1,2023-09-08T19:58:11.690Z,,0,,,NaN,,,,,,false,,,,614523.600000143,614523,,614522.4000000954,,614495.002,8,400,,,
break_continue,html.Screen,4_82_2,2023-09-08T19:58:11.691Z,,0,,,NaN,,,,,,false,,,,614524.4000000954,614524.2000000477,,614524,,614495.002,8,400,,,
sequence,flow.Sequence,4_82,2023-09-08T19:58:11.691Z,,0,,,5155.886000047671,completion,,,,,false,,,,614524.7999999523,614524.2000000477,609351.742,609411.2999999523,609368.314,614495.002,8,400,,,
trial,html.Screen,4_83_0,2023-09-08T19:58:16.676Z,,0,2,,5014.498000000021,response,ISIC_0753491.JPG,5,ISIC_0030106.JPG,ISIC_0753491.JPG,false,1,keypress(m),500,619509.600000143,619509.5,614478.324,614524.9000000954,614495.002,619471.273,8,400,34,,ISIC_0030106.JPG
break,html.Screen,4_83_1,2023-09-08T19:58:16.676Z,,0,,,NaN,,,,,,false,,,,619509.7999999523,619509.7000000477,,619509.7000000477,,619471.273,8,400,,,
break_continue,html.Screen,4_83_2,2023-09-08T19:58:16.677Z,,0,,,NaN,,,,,,false,,,,619510,619510,,619509.9000000954,,619471.273,8,400,,,
sequence,flow.Sequence,4_83,2023-09-08T19:58:16.677Z,,0,,,5014.998000000021,completion,,,,,false,,,,619510.100000143,619510,614478.324,614524.9000000954,614495.002,619471.273,8,400,,,
trial,html.Screen,4_84_0,2023-09-08T19:58:21.052Z,,0,2,,4414.327000143006,response,ISIC_1693572.JPG,5,ISIC_1509635.JPG,ISIC_1509635.JPG,false,0,keypress(z),500,623885.7000000477,623885.600000143,619454.575,619510.100000143,619471.273,623846.504,8,400,35,,ISIC_1693572.JPG
break,html.Screen,4_84_1,2023-09-08T19:58:21.053Z,,0,,,NaN,,,,,,false,,,,623886,623885.9000000954,,623885.7999999523,,623846.504,8,400,,,
break_continue,html.Screen,4_84_2,2023-09-08T19:58:21.053Z,,0,,,NaN,,,,,,false,,,,623886.2000000477,623886.100000143,,623886.100000143,,623846.504,8,400,,,
sequence,flow.Sequence,4_84,2023-09-08T19:58:21.053Z,,0,,,4414.827000143006,completion,,,,,false,,,,623886.2999999523,623886.100000143,619454.575,619510.100000143,619471.273,623846.504,8,400,,,
trial,html.Screen,4_85_0,2023-09-08T19:58:28.817Z,,0,2,,7803.196000047727,response,ISIC_0029825.JPG,5,ISIC_3445468.JPG,ISIC_0029825.JPG,false,1,keypress(m),500,631650,631649.7000000477,623829.896,623886.2999999523,623846.504,631611.583,8,400,36,,ISIC_3445468.JPG
break,html.Screen,4_85_1,2023-09-08T19:58:28.818Z,,0,,,NaN,,,,,,false,,,,631651.100000143,631650.9000000954,,631650.4000000954,,631611.583,8,400,,,
break_continue,html.Screen,4_85_2,2023-09-08T19:58:28.818Z,,0,,,NaN,,,,,,false,,,,631651.7000000477,631651.5,,631651.2999999523,,631611.583,8,400,,,
sequence,flow.Sequence,4_85,2023-09-08T19:58:28.818Z,,0,,,7804.996000000043,completion,,,,,false,,,,631652,631651.5,623829.896,623886.2999999523,623846.504,631611.583,8,400,,,
trial,html.Screen,4_86_0,2023-09-08T19:58:35.256Z,,0,2,,6477.317000095383,response,ISIC_6323420.JPG,6,ISIC_0011904.JPG,ISIC_0011904.JPG,false,0,keypress(z),500,638089.100000143,638088.9000000954,631594.958,631652.2000000477,631611.583,638057.421,8,400,37,,ISIC_6323420.JPG
break,html.Screen,4_86_1,2023-09-08T19:58:35.256Z,,0,,,NaN,,,,,,false,,,,638089.5,638089.4000000954,,638089.2999999523,,638057.421,8,400,,,
break_continue,html.Screen,4_86_2,2023-09-08T19:58:35.256Z,,0,,,NaN,,,,,,false,,,,638089.7999999523,638089.7000000477,,638089.600000143,,638057.421,8,400,,,
sequence,flow.Sequence,4_86,2023-09-08T19:58:35.256Z,,0,,,6478.1170000477,completion,,,,,false,,,,638089.9000000954,638089.7000000477,631594.958,631652.100000143,631611.583,638057.421,8,400,,,
trial,html.Screen,4_87_0,2023-09-08T19:58:41.450Z,,0,2,,6226.279000047711,response,ISIC_0013341.JPG,5,ISIC_0058315.JPG,ISIC_0058315.JPG,false,0,keypress(z),500,644283.7999999523,644283.7000000477,638040.781,638090,638057.421,644252.868,8,400,38,,ISIC_0013341.JPG
break,html.Screen,4_87_1,2023-09-08T19:58:41.451Z,,0,,,NaN,,,,,,false,,,,644284.2000000477,644284.2000000477,,644284,,644252.868,8,400,,,
break_continue,html.Screen,4_87_2,2023-09-08T19:58:41.451Z,,0,,,NaN,,,,,,false,,,,644284.5,644284.4000000954,,644284.2999999523,,644252.868,8,400,,,
sequence,flow.Sequence,4_87,2023-09-08T19:58:41.451Z,,0,,,6226.979000095394,completion,,,,,false,,,,644284.5,644284.4000000954,638040.781,638090,638057.421,644252.868,8,400,,,
trial,html.Screen,4_88_0,2023-09-08T19:58:47.374Z,,0,2,,5954.131999999983,response,ISIC_0001137.JPG,5,ISIC_9509757.JPG,ISIC_9509757.JPG,false,0,keypress(z),500,650207.2000000477,650207,644236.157,644284.600000143,644252.868,650164.321,8,400,39,,ISIC_0001137.JPG
break,html.Screen,4_88_1,2023-09-08T19:58:47.374Z,,0,,,NaN,,,,,,false,,,,650207.600000143,650207.4000000954,,650207.2999999523,,650164.321,8,400,,,
break_continue,html.Screen,4_88_2,2023-09-08T19:58:47.374Z,,0,,,NaN,,,,,,false,,,,650207.7000000477,650207.7000000477,,650207.600000143,,650164.321,8,400,,,
sequence,flow.Sequence,4_88,2023-09-08T19:58:47.374Z,,0,,,5954.832000047667,completion,,,,,false,,,,650207.7999999523,650207.7000000477,644236.157,644284.600000143,644252.868,650164.321,8,400,,,
trial,html.Screen,4_89_0,2023-09-08T19:58:54.881Z,,0,2,,7549.279000143055,response,ISIC_9073150.JPG,4,ISIC_5611010.JPG,ISIC_9073150.JPG,false,1,keypress(m),500,657714,657713.600000143,650147.798,650207.7999999523,650164.321,657679.015,8,400,40,,ISIC_5611010.JPG
break,html.Screen,4_89_1,2023-09-08T19:58:54.882Z,,0,,,NaN,,,,,,false,,,,657715.100000143,657714.7000000477,,657714.2999999523,,657679.015,8,400,,,
break_continue,html.Screen,4_89_2,2023-09-08T19:58:54.883Z,,0,,,NaN,,,,,,false,,,,657715.9000000954,657715.600000143,,657715.4000000954,,657679.015,8,400,,,
sequence,flow.Sequence,4_89,2023-09-08T19:58:54.883Z,,0,,,7551.279000143055,completion,,,,,false,,,,657716.600000143,657715.600000143,650147.798,650207.7999999523,650164.321,657679.015,8,400,,,
trial,html.Screen,4_90_0,2023-09-08T19:58:58.790Z,,0,2,,3944.585000143037,response,ISIC_0029914.JPG,4,ISIC_0016131.JPG,ISIC_0016131.JPG,false,0,keypress(z),500,661623.7000000477,661623.600000143,657662.34,657717.100000143,657679.015,661586.576,8,400,41,,ISIC_0029914.JPG
break,html.Screen,4_90_1,2023-09-08T19:58:58.791Z,,0,,,NaN,,,,,,false,,,,661624.2000000477,661624,,661623.7999999523,,661586.576,8,400,,,
break_continue,html.Screen,4_90_2,2023-09-08T19:58:58.791Z,,0,,,NaN,,,,,,false,,,,661624.5,661624.2999999523,,661624.2999999523,,661586.576,8,400,,,
sequence,flow.Sequence,4_90,2023-09-08T19:58:58.791Z,,0,,,3945.2849999523023,completion,,,,,false,,,,661624.5,661624.2999999523,657662.34,657717,657679.015,661586.576,8,400,,,
trial,html.Screen,4_91_0,2023-09-08T19:59:03.497Z,,0,2,,4743.124000047683,response,ISIC_0034233.JPG,4,ISIC_0011698.JPG,ISIC_0034233.JPG,false,1,keypress(m),500,666329.9000000954,666329.7000000477,661570,661624.600000143,661586.576,666295.936,8,400,42,,ISIC_0011698.JPG
break,html.Screen,4_91_1,2023-09-08T19:59:03.497Z,,0,,,NaN,,,,,,false,,,,666330.600000143,666330.2999999523,,666330,,666295.936,8,400,,,
break_continue,html.Screen,4_91_2,2023-09-08T19:59:03.498Z,,0,,,NaN,,,,,,false,,,,666330.9000000954,666330.9000000954,,666330.7000000477,,666295.936,8,400,,,
sequence,flow.Sequence,4_91,2023-09-08T19:59:03.498Z,,0,,,4744.3240000953665,completion,,,,,false,,,,666331.100000143,666330.9000000954,661570,661624.600000143,661586.576,666295.936,8,400,,,
trial,html.Screen,4_92_0,2023-09-08T19:59:07.378Z,,0,2,,3914.8639999523293,response,ISIC_0026595.JPG,6,ISIC_5737704.JPG,ISIC_5737704.JPG,false,0,keypress(z),500,670211,670210.7999999523,666279.073,666331.2000000477,666295.936,670169.915,8,400,43,,ISIC_0026595.JPG
break,html.Screen,4_92_1,2023-09-08T19:59:07.378Z,,0,,,NaN,,,,,,false,,,,670211.4000000954,670211.2999999523,,670211.100000143,,670169.915,8,400,,,
break_continue,html.Screen,4_92_2,2023-09-08T19:59:07.378Z,,0,,,NaN,,,,,,false,,,,670211.7000000477,670211.600000143,,670211.5,,670169.915,8,400,,,
sequence,flow.Sequence,4_92,2023-09-08T19:59:07.378Z,,0,,,3915.664000143064,completion,,,,,false,,,,670211.7999999523,670211.600000143,666279.073,666331.2000000477,666295.936,670169.915,8,400,,,
trial,html.Screen,4_93_0,2023-09-08T19:59:15.636Z,,0,2,,8298.98500009533,response,ISIC_9639931.JPG,5,ISIC_7260977.JPG,ISIC_9639931.JPG,false,1,keypress(m),500,678469.2000000477,678468.9000000954,670153.255,670211.9000000954,670169.915,678436.06,8,400,44,,ISIC_7260977.JPG
break,html.Screen,4_93_1,2023-09-08T19:59:15.636Z,,0,,,NaN,,,,,,false,,,,678469.600000143,678469.600000143,,678469.2999999523,,678436.06,8,400,,,
break_continue,html.Screen,4_93_2,2023-09-08T19:59:15.637Z,,0,,,NaN,,,,,,false,,,,678469.9000000954,678469.7999999523,,678469.7000000477,,678436.06,8,400,,,
sequence,flow.Sequence,4_93,2023-09-08T19:59:15.637Z,,0,,,8299.884999952279,completion,,,,,false,,,,678470,678469.7999999523,670153.255,670211.7999999523,670169.915,678436.06,8,400,,,
trial,html.Screen,4_94_0,2023-09-08T19:59:20.647Z,,0,2,,5044.23999995226,response,ISIC_0054906.JPG,5,ISIC_0214186.JPG,ISIC_0214186.JPG,false,0,keypress(z),500,683480.5,683480.2999999523,678419.458,678470.2000000477,678436.06,683446.027,8,400,45,,ISIC_0054906.JPG
break,html.Screen,4_94_1,2023-09-08T19:59:20.648Z,,0,,,NaN,,,,,,false,,,,683481.100000143,683480.9000000954,,683480.7000000477,,683446.027,8,400,,,
break_continue,html.Screen,4_94_2,2023-09-08T19:59:20.648Z,,0,,,NaN,,,,,,false,,,,683481.5,683481.2999999523,,683481.2000000477,,683446.027,8,400,,,
sequence,flow.Sequence,4_94,2023-09-08T19:59:20.648Z,,0,,,5045.23999995226,completion,,,,,false,,,,683481.600000143,683481.2999999523,678419.458,678470.100000143,678436.06,683446.027,8,400,,,
trial,html.Screen,4_95_0,2023-09-08T19:59:27.850Z,,0,2,,7237.073000143049,response,ISIC_0024537.JPG,5,ISIC_0024527.JPG,ISIC_0024527.JPG,false,0,keypress(z),500,690683.2999999523,690683.100000143,683429.042,683481.600000143,683446.027,690643.132,8,400,46,,ISIC_0024537.JPG
break,html.Screen,4_95_1,2023-09-08T19:59:27.850Z,,0,,,NaN,,,,,,false,,,,690683.7000000477,690683.600000143,,690683.5,,690643.132,8,400,,,
break_continue,html.Screen,4_95_2,2023-09-08T19:59:27.851Z,,0,,,NaN,,,,,,false,,,,690683.9000000954,690683.9000000954,,690683.9000000954,,690643.132,8,400,,,
sequence,flow.Sequence,4_95,2023-09-08T19:59:27.851Z,,0,,,7237.873000095366,completion,,,,,false,,,,690683.9000000954,690683.9000000954,683429.042,683481.600000143,683446.027,690643.132,8,400,,,
trial,html.Screen,4_96_0,2023-09-08T19:59:36.140Z,,0,2,,8330.5680000477,response,ISIC_6019374.JPG,5,ISIC_8650269.JPG,ISIC_8650269.JPG,false,0,keypress(z),500,698973.7999999523,698973.7000000477,690626.578,690684.100000143,690643.132,698942.66,8,400,47,,ISIC_6019374.JPG
break,html.Screen,4_96_1,2023-09-08T19:59:36.141Z,,0,,,NaN,,,,,,false,,,,698974.100000143,698974,,698973.9000000954,,698942.66,8,400,,,
break_continue,html.Screen,4_96_2,2023-09-08T19:59:36.141Z,,0,,,NaN,,,,,,false,,,,698974.2999999523,698974.2999999523,,698974.2000000477,,698942.66,8,400,,,
sequence,flow.Sequence,4_96,2023-09-08T19:59:36.141Z,,0,,,8331.167999952333,completion,,,,,false,,,,698974.5,698974.2999999523,690626.578,690684.100000143,690643.132,698942.66,8,400,,,
trial,html.Screen,4_97_0,2023-09-08T19:59:40.192Z,,0,2,,4082.740000095335,response,ISIC_0060832.JPG,5,ISIC_0504165.JPG,ISIC_0504165.JPG,false,0,keypress(z),500,703025.5,703025.4000000954,698925.859,698974.600000143,698942.66,702983.812,8,400,48,,ISIC_0060832.JPG
break,html.Screen,4_97_1,2023-09-08T19:59:40.193Z,,0,,,NaN,,,,,,false,,,,703026,703025.9000000954,,703025.7000000477,,702983.812,8,400,,,
break_continue,html.Screen,4_97_2,2023-09-08T19:59:40.193Z,,0,,,NaN,,,,,,false,,,,703026.2999999523,703026.2999999523,,703026.2000000477,,702983.812,8,400,,,
sequence,flow.Sequence,4_97,2023-09-08T19:59:40.193Z,,0,,,4083.6399999522837,completion,,,,,false,,,,703026.5,703026.2999999523,698925.859,698974.600000143,698942.66,702983.812,8,400,,,
trial,html.Screen,4_98_0,2023-09-08T19:59:45.882Z,,0,2,,5730.788000143017,response,ISIC_8990907.JPG,5,ISIC_3395488.JPG,ISIC_8990907.JPG,false,1,keypress(m),500,708714.7000000477,708714.600000143,702967.115,703026.5,702983.812,708678.274,8,400,49,,ISIC_3395488.JPG
break,html.Screen,4_98_1,2023-09-08T19:59:45.882Z,,0,,,NaN,,,,,,false,,,,708715,708714.9000000954,,708714.7000000477,,708678.274,8,400,,,
break_continue,html.Screen,4_98_2,2023-09-08T19:59:45.882Z,,0,,,NaN,,,,,,false,,,,708715.100000143,708715.100000143,,708715,,708678.274,8,400,,,
sequence,flow.Sequence,4_98,2023-09-08T19:59:45.882Z,,0,,,5731.288000143017,completion,,,,,false,,,,708715.2000000477,708715.100000143,702967.115,703026.5,702983.812,708678.274,8,400,,,
trial,html.Screen,4_99_0,2023-09-08T19:59:51.436Z,,0,2,,5590.826000143075,response,ISIC_0069620.JPG,6,ISIC_1081051.JPG,ISIC_1081051.JPG,false,0,keypress(z),500,714269.2000000477,714269.100000143,708661.608,708715.2999999523,708678.274,714239.06,8,400,50,,ISIC_0069620.JPG
break,html.Screen,4_99_1,2023-09-08T20:00:01.437Z,,0,,,10002.842999999993,timeout,,,,,false,,,,724270,724225.113,714222.343,714269.2999999523,714239.06,724241.903,8,400,,,
break_continue,html.Screen,4_99_2,2023-09-08T20:00:04.264Z,,0,,,2835.896999952267,response,,,,,false,continue,keypress(Space),,727097.100000143,727077.7999999523,724225.113,724270.2000000477,724241.903,727080.725,8,400,,,
sequence,flow.Sequence,4_99,2023-09-08T20:00:04.264Z,,0,,,18399.52599995234,completion,,,,,false,,,,727097.2000000477,727077.7999999523,708661.608,708715.2999999523,708678.274,727080.725,8,400,,,
trial,html.Screen,4_100_0,2023-09-08T20:00:15.783Z,,0,3,,11522.467999999993,timeout,ISIC_4770073.JPG,6,ISIC_4821309.JPG,,false,,,500,738616.2999999523,738616.2000000477,727063.995,727097.2000000477,727080.725,738603.193,8,400,1,,
break,html.Screen,4_100_1,2023-09-08T20:00:15.784Z,,0,,,NaN,,,,,,false,,,,738616.7000000477,738616.600000143,,738616.4000000954,,738603.193,8,400,,,
break_continue,html.Screen,4_100_2,2023-09-08T20:00:15.784Z,,0,,,NaN,,,,,,false,,,,738616.9000000954,738616.7999999523,,738616.7000000477,,738603.193,8,400,,,
sequence,flow.Sequence,4_100,2023-09-08T20:00:15.784Z,,0,,,11536.07499995234,completion,,,,,false,,,,738616.9000000954,738616.7999999523,727063.995,727097.2000000477,727080.725,738603.193,8,400,,,
trial,html.Screen,4_101_0,2023-09-08T20:00:23.162Z,,0,3,,7391.30700000003,response,ISIC_1452549.JPG,5,ISIC_2703002.JPG,ISIC_1452549.JPG,false,1,keypress(m),500,745994.7000000477,745994.5,738586.474,738616.9000000954,738603.193,745967.591,8,400,2,,ISIC_2703002.JPG
break,html.Screen,4_101_1,2023-09-08T20:00:23.162Z,,0,,,NaN,,,,,,false,,,,745995.100000143,745995,,745994.7999999523,,745967.591,8,400,,,
break_continue,html.Screen,4_101_2,2023-09-08T20:00:23.162Z,,0,,,NaN,,,,,,false,,,,745995.2999999523,745995.100000143,,745995.100000143,,745967.591,8,400,,,
sequence,flow.Sequence,4_101,2023-09-08T20:00:23.162Z,,0,,,7391.907000143081,completion,,,,,false,,,,745995.2999999523,745995.100000143,738586.474,738616.9000000954,738603.193,745967.591,8,400,,,
trial,html.Screen,4_102_0,2023-09-08T20:00:28.461Z,,0,3,,5326.208999952301,response,ISIC_0000531.JPG,5,ISIC_0059341.JPG,ISIC_0059341.JPG,false,0,keypress(z),500,751294.100000143,751293.7999999523,745950.843,745995.5,745967.591,751261.155,8,400,3,,ISIC_0000531.JPG
break,html.Screen,4_102_1,2023-09-08T20:00:28.463Z,,0,,,NaN,,,,,,false,,,,751295.7999999523,751295,,751294.7000000477,,751261.155,8,400,,,
break_continue,html.Screen,4_102_2,2023-09-08T20:00:28.463Z,,0,,,NaN,,,,,,false,,,,751296.4000000954,751296.2000000477,,751296,,751261.155,8,400,,,
sequence,flow.Sequence,4_102,2023-09-08T20:00:28.464Z,,0,,,5328.609000047669,completion,,,,,false,,,,751296.7000000477,751296.2000000477,745950.843,745995.4000000954,745967.591,751261.155,8,400,,,
trial,html.Screen,4_103_0,2023-09-08T20:00:34.995Z,,0,3,,6566.844999999972,response,ISIC_7768567.JPG,6,ISIC_0011793.JPG,ISIC_7768567.JPG,false,1,keypress(m),500,757828.2000000477,757828,751244.461,751296.9000000954,751261.155,757790.572,8,400,4,,ISIC_0011793.JPG
break,html.Screen,4_103_1,2023-09-08T20:00:34.996Z,,0,,,NaN,,,,,,false,,,,757828.600000143,757828.4000000954,,757828.2999999523,,757790.572,8,400,,,
break_continue,html.Screen,4_103_2,2023-09-08T20:00:34.996Z,,0,,,NaN,,,,,,false,,,,757828.9000000954,757828.7999999523,,757828.7000000477,,757790.572,8,400,,,
sequence,flow.Sequence,4_103,2023-09-08T20:00:34.996Z,,0,,,6567.644999952288,completion,,,,,false,,,,757829.100000143,757828.7999999523,751244.461,751296.9000000954,751261.155,757790.572,8,400,,,
trial,html.Screen,4_104_0,2023-09-08T20:00:39.062Z,,0,3,,4104.2279999522725,response,ISIC_6550761.JPG,5,ISIC_0008431.JPG,ISIC_0008431.JPG,false,0,keypress(z),500,761895,761894.7999999523,757773.928,757829.2000000477,757790.572,761865.103,8,400,5,,ISIC_6550761.JPG
break,html.Screen,4_104_1,2023-09-08T20:00:39.062Z,,0,,,NaN,,,,,,false,,,,761895.5,761895.4000000954,,761895.2000000477,,761865.103,8,400,,,
break_continue,html.Screen,4_104_2,2023-09-08T20:00:39.063Z,,0,,,NaN,,,,,,false,,,,761895.7999999523,761895.7000000477,,761895.600000143,,761865.103,8,400,,,
sequence,flow.Sequence,4_104,2023-09-08T20:00:39.063Z,,0,,,4105.12800004764,completion,,,,,false,,,,761896,761895.7000000477,757773.928,757829.100000143,757790.572,761865.103,8,400,,,
trial,html.Screen,4_105_0,2023-09-08T20:00:45.466Z,,0,3,,6433.297000095365,response,ISIC_0055297.JPG,5,ISIC_0033512.JPG,ISIC_0033512.JPG,false,0,keypress(z),500,768298.5,768298.4000000954,761848.436,761896.100000143,761865.103,768260.983,8,400,6,,ISIC_0055297.JPG
break,html.Screen,4_105_1,2023-09-08T20:00:45.466Z,,0,,,NaN,,,,,,false,,,,768298.9000000954,768298.7999999523,,768298.600000143,,768260.983,8,400,,,
break_continue,html.Screen,4_105_2,2023-09-08T20:00:45.466Z,,0,,,NaN,,,,,,false,,,,768299.100000143,768299.100000143,,768299,,768260.983,8,400,,,
sequence,flow.Sequence,4_105,2023-09-08T20:00:45.466Z,,0,,,6433.997000143048,completion,,,,,false,,,,768299.2999999523,768299.100000143,761848.436,761896.100000143,761865.103,768260.983,8,400,,,
trial,html.Screen,4_106_0,2023-09-08T20:00:51.056Z,,0,3,,5627.617000143044,response,ISIC_8917755.JPG,6,ISIC_1225511.JPG,ISIC_1225511.JPG,false,0,keypress(z),500,773888.600000143,773888.600000143,768244.292,768299.2999999523,768260.983,773855.096,8,400,7,,ISIC_8917755.JPG
break,html.Screen,4_106_1,2023-09-08T20:00:51.056Z,,0,,,NaN,,,,,,false,,,,773889,773888.9000000954,,773888.7999999523,,773855.096,8,400,,,
break_continue,html.Screen,4_106_2,2023-09-08T20:00:51.057Z,,0,,,NaN,,,,,,false,,,,773889.7000000477,773889.7000000477,,773889.5,,773855.096,8,400,,,
sequence,flow.Sequence,4_106,2023-09-08T20:00:51.057Z,,0,,,5628.717000047676,completion,,,,,false,,,,773889.7999999523,773889.7000000477,768244.292,768299.2999999523,768260.983,773855.096,8,400,,,
trial,html.Screen,4_107_0,2023-09-08T20:00:57.033Z,,0,3,,6010.504000143032,response,ISIC_0546980.JPG,5,ISIC_0032121.JPG,ISIC_0546980.JPG,false,1,keypress(m),500,779865.7000000477,779865.600000143,773838.473,773889.9000000954,773855.096,779833.419,8,400,8,,ISIC_0032121.JPG
break,html.Screen,4_107_1,2023-09-08T20:00:57.033Z,,0,,,NaN,,,,,,false,,,,779866.100000143,779866,,779865.7999999523,,779833.419,8,400,,,
break_continue,html.Screen,4_107_2,2023-09-08T20:00:57.034Z,,0,,,NaN,,,,,,false,,,,779866.2999999523,779866.2000000477,,779866.2000000477,,779833.419,8,400,,,
sequence,flow.Sequence,4_107,2023-09-08T20:00:57.034Z,,0,,,6011.104000047664,completion,,,,,false,,,,779866.5,779866.2000000477,773838.473,773889.7999999523,773855.096,779833.419,8,400,,,
trial,html.Screen,4_108_0,2023-09-08T20:01:04.219Z,,0,3,,7217.880999952322,response,ISIC_0004482.JPG,5,ISIC_0027411.JPG,ISIC_0004482.JPG,false,1,keypress(m),500,787051.4000000954,787051.2999999523,779816.731,779866.5,779833.419,787014.023,8,400,9,,ISIC_0027411.JPG
break,html.Screen,4_108_1,2023-09-08T20:01:04.219Z,,0,,,NaN,,,,,,false,,,,787051.7000000477,787051.600000143,,787051.5,,787014.023,8,400,,,
break_continue,html.Screen,4_108_2,2023-09-08T20:01:04.219Z,,0,,,NaN,,,,,,false,,,,787051.9000000954,787051.7999999523,,787051.7999999523,,787014.023,8,400,,,
sequence,flow.Sequence,4_108,2023-09-08T20:01:04.219Z,,0,,,7218.380999952322,completion,,,,,false,,,,787052,787051.7999999523,779816.731,779866.5,779833.419,787014.023,8,400,,,
trial,html.Screen,4_109_0,2023-09-08T20:01:08.605Z,,0,3,,4423.776999952272,response,ISIC_5041679.JPG,6,ISIC_8562820.JPG,ISIC_5041679.JPG,false,1,keypress(m),500,791437.7999999523,791437.7999999523,786997.322,787052,787014.023,791405.883,8,400,10,,ISIC_8562820.JPG
break,html.Screen,4_109_1,2023-09-08T20:01:08.605Z,,0,,,NaN,,,,,,false,,,,791438.2000000477,791438.100000143,,791437.9000000954,,791405.883,8,400,,,
break_continue,html.Screen,4_109_2,2023-09-08T20:01:08.605Z,,0,,,NaN,,,,,,false,,,,791438.2999999523,791438.2999999523,,791438.2999999523,,791405.883,8,400,,,
sequence,flow.Sequence,4_109,2023-09-08T20:01:08.606Z,,0,,,4424.276999952272,completion,,,,,false,,,,791438.4000000954,791438.2999999523,786997.322,787052,787014.023,791405.883,8,400,,,
trial,html.Screen,4_110_0,2023-09-08T20:01:15.888Z,,0,3,,7314.817000047653,response,ISIC_0030428.JPG,4,ISIC_2197722.JPG,ISIC_2197722.JPG,false,0,keypress(z),500,798720.9000000954,798720.7000000477,791389.363,791438.5,791405.883,798686.699,8,400,11,,ISIC_0030428.JPG
break,html.Screen,4_110_1,2023-09-08T20:01:15.888Z,,0,,,NaN,,,,,,false,,,,798721.2999999523,798721.100000143,,798721,,798686.699,8,400,,,
break_continue,html.Screen,4_110_2,2023-09-08T20:01:15.889Z,,0,,,NaN,,,,,,false,,,,798721.5,798721.4000000954,,798721.4000000954,,798686.699,8,400,,,
sequence,flow.Sequence,4_110,2023-09-08T20:01:15.889Z,,0,,,7315.517000095337,completion,,,,,false,,,,798722.100000143,798721.4000000954,791389.363,791438.4000000954,791405.883,798686.699,8,400,,,
trial,html.Screen,4_111_0,2023-09-08T20:01:22.038Z,,0,3,,6183.701000095345,response,ISIC_2364150.JPG,5,ISIC_0032615.JPG,ISIC_0032615.JPG,false,0,keypress(z),500,804870.600000143,804870.4000000954,798669.996,798722.2000000477,798686.699,804831.989,8,400,12,,ISIC_2364150.JPG
break,html.Screen,4_111_1,2023-09-08T20:01:22.039Z,,0,,,NaN,,,,,,false,,,,804871.4000000954,804871.100000143,,804870.7999999523,,804831.989,8,400,,,
break_continue,html.Screen,4_111_2,2023-09-08T20:01:22.039Z,,0,,,NaN,,,,,,false,,,,804871.7999999523,804871.7999999523,,804871.5,,804831.989,8,400,,,
sequence,flow.Sequence,4_111,2023-09-08T20:01:22.039Z,,0,,,6185.100999952294,completion,,,,,false,,,,804872,804871.7999999523,798669.996,798722.100000143,798686.699,804831.989,8,400,,,
trial,html.Screen,4_112_0,2023-09-08T20:01:26.464Z,,0,3,,4465.111000143108,response,ISIC_2355374.JPG,5,ISIC_0027359.JPG,ISIC_2355374.JPG,false,1,keypress(m),500,809297.2000000477,809297.100000143,804815.477,804872.2000000477,804831.989,809257.252,8,400,13,,ISIC_0027359.JPG
break,html.Screen,4_112_1,2023-09-08T20:01:26.465Z,,0,,,NaN,,,,,,false,,,,809297.600000143,809297.5,,809297.2999999523,,809257.252,8,400,,,
break_continue,html.Screen,4_112_2,2023-09-08T20:01:26.465Z,,0,,,NaN,,,,,,false,,,,809297.7000000477,809297.7000000477,,809297.600000143,,809257.252,8,400,,,
sequence,flow.Sequence,4_112,2023-09-08T20:01:26.465Z,,0,,,4465.7110000477405,completion,,,,,false,,,,809297.7000000477,809297.7000000477,804815.477,804872.100000143,804831.989,809257.252,8,400,,,
trial,html.Screen,4_113_0,2023-09-08T20:01:32.884Z,,0,3,,6458.748000000021,response,ISIC_0073115.JPG,4,ISIC_0000957.JPG,ISIC_0000957.JPG,false,0,keypress(z),500,815716.4000000954,815716,809240.57,809297.7999999523,809257.252,815686.803,8,400,14,,ISIC_0073115.JPG
break,html.Screen,4_113_1,2023-09-08T20:01:32.885Z,,0,,,NaN,,,,,,false,,,,815717.7000000477,815717.2999999523,,815716.7999999523,,815686.803,8,400,,,
break_continue,html.Screen,4_113_2,2023-09-08T20:01:32.885Z,,0,,,NaN,,,,,,false,,,,815718.2999999523,815718.100000143,,815717.9000000954,,815686.803,8,400,,,
sequence,flow.Sequence,4_113,2023-09-08T20:01:32.886Z,,0,,,6460.848000143073,completion,,,,,false,,,,815718.600000143,815718.100000143,809240.57,809297.7999999523,809257.252,815686.803,8,400,,,
trial,html.Screen,4_114_0,2023-09-08T20:01:37.800Z,,0,3,,4946.097000095411,response,ISIC_0060749.JPG,6,ISIC_1369967.JPG,ISIC_0060749.JPG,false,1,keypress(m),500,820633.2999999523,820632.9000000954,815669.812,815718.7999999523,815686.803,820596.093,8,400,15,,ISIC_1369967.JPG
break,html.Screen,4_114_1,2023-09-08T20:01:37.802Z,,0,,,NaN,,,,,,false,,,,820634.7000000477,820634.2000000477,,820633.7999999523,,820596.093,8,400,,,
break_continue,html.Screen,4_114_2,2023-09-08T20:01:37.802Z,,0,,,NaN,,,,,,false,,,,820635.2999999523,820635.100000143,,820634.9000000954,,820596.093,8,400,,,
sequence,flow.Sequence,4_114,2023-09-08T20:01:37.803Z,,0,,,4948.297000143095,completion,,,,,false,,,,820636,820635.100000143,815669.812,815718.7000000477,815686.803,820596.093,8,400,,,
trial,html.Screen,4_115_0,2023-09-08T20:01:45.025Z,,0,3,,7261.307000095374,response,ISIC_0063551.JPG,6,ISIC_6688311.JPG,ISIC_6688311.JPG,false,0,keypress(z),500,827857.600000143,827857.4000000954,820579.51,820636.4000000954,820596.093,827826.81,8,400,16,,ISIC_0063551.JPG
break,html.Screen,4_115_1,2023-09-08T20:01:45.026Z,,0,,,NaN,,,,,,false,,,,827858.2999999523,827858.100000143,,827857.7999999523,,827826.81,8,400,,,
break_continue,html.Screen,4_115_2,2023-09-08T20:01:45.026Z,,0,,,NaN,,,,,,false,,,,827858.600000143,827858.5,,827858.5,,827826.81,8,400,,,
sequence,flow.Sequence,4_115,2023-09-08T20:01:45.026Z,,0,,,7262.4070000000065,completion,,,,,false,,,,827858.7999999523,827858.5,820579.51,820636.2999999523,820596.093,827826.81,8,400,,,
trial,html.Screen,4_116_0,2023-09-08T20:01:49.877Z,,0,3,,4882.98999995226,response,ISIC_0059248.JPG,4,ISIC_0030541.JPG,ISIC_0030541.JPG,false,0,keypress(z),500,832710.100000143,832709.7999999523,827810.193,827858.9000000954,827826.81,832669.539,8,400,17,,ISIC_0059248.JPG
break,html.Screen,4_116_1,2023-09-08T20:01:49.878Z,,0,,,NaN,,,,,,false,,,,832710.9000000954,832710.600000143,,832710.2999999523,,832669.539,8,400,,,
break_continue,html.Screen,4_116_2,2023-09-08T20:01:49.879Z,,0,,,NaN,,,,,,false,,,,832711.4000000954,832711.2000000477,,832711.100000143,,832669.539,8,400,,,
sequence,flow.Sequence,4_116,2023-09-08T20:01:49.879Z,,0,,,4884.390000047628,completion,,,,,false,,,,832711.600000143,832711.2000000477,827810.193,827858.9000000954,827826.81,832669.539,8,400,,,
trial,html.Screen,4_117_0,2023-09-08T20:01:56.513Z,,0,3,,6675.7609999523265,response,ISIC_0013839.JPG,5,ISIC_7454679.JPG,ISIC_0013839.JPG,false,1,keypress(m),500,839345.5,839345.2999999523,832652.963,832711.7000000477,832669.539,839315.92,8,400,18,,ISIC_7454679.JPG
break,html.Screen,4_117_1,2023-09-08T20:01:56.513Z,,0,,,NaN,,,,,,false,,,,839345.9000000954,839345.7999999523,,839345.600000143,,839315.92,8,400,,,
break_continue,html.Screen,4_117_2,2023-09-08T20:01:56.513Z,,0,,,NaN,,,,,,false,,,,839346.100000143,839346,,839346,,839315.92,8,400,,,
sequence,flow.Sequence,4_117,2023-09-08T20:01:56.513Z,,0,,,6676.46100000001,completion,,,,,false,,,,839346.100000143,839346,832652.963,832711.7000000477,832669.539,839315.92,8,400,,,
trial,html.Screen,4_118_0,2023-09-08T20:02:03.090Z,,0,3,,6607.079999999958,response,ISIC_0001745.JPG,5,ISIC_2299749.JPG,ISIC_0001745.JPG,false,1,keypress(m),500,845923.100000143,845923,839299.155,839346.2000000477,839315.92,845895.298,8,400,19,,ISIC_2299749.JPG
break,html.Screen,4_118_1,2023-09-08T20:02:03.091Z,,0,,,NaN,,,,,,false,,,,845923.4000000954,845923.4000000954,,845923.2999999523,,845895.298,8,400,,,
break_continue,html.Screen,4_118_2,2023-09-08T20:02:03.091Z,,0,,,NaN,,,,,,false,,,,845923.7000000477,845923.5,,845923.5,,845895.298,8,400,,,
sequence,flow.Sequence,4_118,2023-09-08T20:02:03.091Z,,0,,,6607.579999999958,completion,,,,,false,,,,845923.7000000477,845923.5,839299.155,839346.2000000477,839315.92,845895.298,8,400,,,
trial,html.Screen,4_119_0,2023-09-08T20:02:10.101Z,,0,3,,7038.202000000048,response,ISIC_0029502.JPG,5,ISIC_0069056.JPG,ISIC_0069056.JPG,false,0,keypress(z),500,852933.600000143,852933.5,845878.54,845923.7999999523,845895.298,852892.212,8,400,20,,ISIC_0029502.JPG
break,html.Screen,4_119_1,2023-09-08T20:02:10.101Z,,0,,,NaN,,,,,,false,,,,852934.2999999523,852934,,852933.7999999523,,852892.212,8,400,,,
break_continue,html.Screen,4_119_2,2023-09-08T20:02:10.102Z,,0,,,NaN,,,,,,false,,,,852934.600000143,852934.4000000954,,852934.4000000954,,852892.212,8,400,,,
sequence,flow.Sequence,4_119,2023-09-08T20:02:10.102Z,,0,,,7039.102000095416,completion,,,,,false,,,,852934.9000000954,852934.4000000954,845878.54,845923.7000000477,845895.298,852892.212,8,400,,,
trial,html.Screen,4_120_0,2023-09-08T20:02:15.343Z,,0,3,,5283.0879999522585,response,ISIC_0014255.JPG,5,ISIC_3992223.JPG,ISIC_3992223.JPG,false,0,keypress(z),500,858175.5,858175.2999999523,852875.519,852935,852892.212,858135.782,8,400,21,,ISIC_0014255.JPG
break,html.Screen,4_120_1,2023-09-08T20:02:15.343Z,,0,,,NaN,,,,,,false,,,,858175.7000000477,858175.7000000477,,858175.5,,858135.782,8,400,,,
break_continue,html.Screen,4_120_2,2023-09-08T20:02:15.343Z,,0,,,NaN,,,,,,false,,,,858176,858175.9000000954,,858175.7999999523,,858135.782,8,400,,,
sequence,flow.Sequence,4_120,2023-09-08T20:02:15.343Z,,0,,,5283.68800009531,completion,,,,,false,,,,858176,858175.9000000954,852875.519,852934.9000000954,852892.212,858135.782,8,400,,,
trial,html.Screen,4_121_0,2023-09-08T20:02:20.807Z,,0,3,,5503.7179999999935,response,ISIC_2798803.JPG,5,ISIC_0026889.JPG,ISIC_2798803.JPG,false,1,keypress(m),500,863639.5,863639.5,858119.196,858176.100000143,858135.782,863596.358,8,400,22,,ISIC_0026889.JPG
break,html.Screen,4_121_1,2023-09-08T20:02:20.807Z,,0,,,NaN,,,,,,false,,,,863639.9000000954,863639.7999999523,,863639.600000143,,863596.358,8,400,,,
break_continue,html.Screen,4_121_2,2023-09-08T20:02:20.807Z,,0,,,NaN,,,,,,false,,,,863640.100000143,863640.100000143,,863639.9000000954,,863596.358,8,400,,,
sequence,flow.Sequence,4_121,2023-09-08T20:02:20.807Z,,0,,,5504.318000143045,completion,,,,,false,,,,863640.2000000477,863640.100000143,858119.196,858176.100000143,858135.782,863596.358,8,400,,,
trial,html.Screen,4_122_0,2023-09-08T20:02:26.794Z,,0,3,,6030.04200009536,response,ISIC_0028666.JPG,4,ISIC_0034092.JPG,ISIC_0028666.JPG,false,1,keypress(m),500,869626.5,869626.4000000954,863579.63,863640.2000000477,863596.358,869591.48,8,400,23,,ISIC_0034092.JPG
break,html.Screen,4_122_1,2023-09-08T20:02:26.794Z,,0,,,NaN,,,,,,false,,,,869627.2000000477,869626.9000000954,,869626.7000000477,,869591.48,8,400,,,
break_continue,html.Screen,4_122_2,2023-09-08T20:02:26.795Z,,0,,,NaN,,,,,,false,,,,869627.4000000954,869627.2999999523,,869627.2999999523,,869591.48,8,400,,,
sequence,flow.Sequence,4_122,2023-09-08T20:02:26.795Z,,0,,,6030.941999952309,completion,,,,,false,,,,869627.600000143,869627.2999999523,863579.63,863640.2000000477,863596.358,869591.48,8,400,,,
trial,html.Screen,4_123_0,2023-09-08T20:02:35.043Z,,0,3,,8284.12000014307,response,ISIC_5443837.JPG,5,ISIC_0060760.JPG,ISIC_5443837.JPG,false,1,keypress(m),500,877875.9000000954,877875.600000143,869574.593,869627.600000143,869591.48,877840.736,8,400,24,,ISIC_0060760.JPG
break,html.Screen,4_123_1,2023-09-08T20:02:35.044Z,,0,,,NaN,,,,,,false,,,,877876.2999999523,877876.2000000477,,877876,,877840.736,8,400,,,
break_continue,html.Screen,4_123_2,2023-09-08T20:02:35.044Z,,0,,,NaN,,,,,,false,,,,877876.7000000477,877876.5,,877876.4000000954,,877840.736,8,400,,,
sequence,flow.Sequence,4_123,2023-09-08T20:02:35.044Z,,0,,,8285.020000000019,completion,,,,,false,,,,877876.7999999523,877876.5,869574.593,869627.600000143,869591.48,877840.736,8,400,,,
trial,html.Screen,4_124_0,2023-09-08T20:02:40.583Z,,0,3,,5574.46400004765,response,ISIC_4756979.JPG,5,ISIC_0028606.JPG,ISIC_4756979.JPG,false,1,keypress(m),500,883415.2999999523,883415.2000000477,877824.215,877876.9000000954,877840.736,883384.831,8,400,25,,ISIC_0028606.JPG
break,html.Screen,4_124_1,2023-09-08T20:02:40.583Z,,0,,,NaN,,,,,,false,,,,883415.7000000477,883415.5,,883415.4000000954,,883384.831,8,400,,,
break_continue,html.Screen,4_124_2,2023-09-08T20:02:40.583Z,,0,,,NaN,,,,,,false,,,,883415.9000000954,883415.7999999523,,883415.7000000477,,883384.831,8,400,,,
sequence,flow.Sequence,4_124,2023-09-08T20:02:40.583Z,,0,,,5575.063999952283,completion,,,,,false,,,,883415.9000000954,883415.7999999523,877824.215,877876.9000000954,877840.736,883384.831,8,400,,,
trial,html.Screen,4_125_0,2023-09-08T20:02:47.313Z,,0,3,,6760.769000143046,response,ISIC_7984080.JPG,5,ISIC_0029244.JPG,ISIC_0029244.JPG,false,0,keypress(z),500,890146,890145.600000143,883368.169,883415.9000000954,883384.831,890114.702,8,400,26,,ISIC_7984080.JPG
break,html.Screen,4_125_1,2023-09-08T20:02:47.314Z,,0,,,NaN,,,,,,false,,,,890146.7999999523,890146.600000143,,890146.2999999523,,890114.702,8,400,,,
break_continue,html.Screen,4_125_2,2023-09-08T20:02:47.315Z,,0,,,NaN,,,,,,false,,,,890147.100000143,890147,,890147,,890114.702,8,400,,,
sequence,flow.Sequence,4_125,2023-09-08T20:02:47.315Z,,0,,,6762.168999999994,completion,,,,,false,,,,890147.2000000477,890147,883368.169,883415.9000000954,883384.831,890114.702,8,400,,,
