sender,sender_type,sender_id,timestamp,meta,,blockNo,condition,duration,ended_on,img_left,img_reveal,img_right,loser,practice,response,response_action,selection_duration,time_commit,time_end,time_render,time_run,time_show,time_switch,total_blocks,total_trials,trialNo,url,winner
informed_consent,html.Screen,0,2023-09-12T00:35:42.803Z,"{""labjs_version"":""20.2.4"",""labjs_build"":{""flavor"":""development"",""commit"":""f5b4a49f956347addd546a832a3327688c2c0fef""},""location"":""https://labjs.felixhenninger.com/api/labjs_preview/index.html"",""userAgent"":""Mozilla/5.0 (Windows NT 10.0; Win64; x64) AppleWebKit/537.36 (KHTML, like Gecko) Chrome/116.0.0.0 Safari/537.36"",""platform"":""Win32"",""language"":""en-AU"",""locale"":""en-US"",""timeZone"":""America/Chicago"",""timezoneOffset"":300,""screen_width"":1680,""screen_height"":1050,""scroll_width"":1296,""scroll_height"":688,""window_innerWidth"":1296,""window_innerHeight"":736,""devicePixelRatio"":1}",,,,93291.929,response,,,,,,consent,click button,,93839.59999990463,93838.5,529.885,543,546.571,93861.583,,,,{},
Welcome,html.Screen,1,2023-09-12T00:35:43.040Z,,,,symmetry,214.71699971389899,response,,,,,,continue,click button,,94077,94076.2999997139,93844.814,93839.90000009537,93861.583,94078.611,,,,,
trial,html.Screen,2_0_0,2023-09-12T00:35:52.531Z,,0,0,,9488.888999999996,response,ISIC_6997061.JPG,,ISIC_0069348.JPG,ISIC_0069348.JPG,true,0,keypress(z),500,103567.59999990463,103567.5,94061.913,94077.09999990463,94078.611,103580.435,1,6,1,,ISIC_6997061.JPG
sequence,flow.Sequence,2_0,2023-09-12T00:35:52.531Z,,0,,,9488.888999999996,completion,,,,,true,,,,103567.69999980927,103567.5,94061.913,94077.09999990463,94078.611,103580.435,1,6,,,
trial,html.Screen,2_1_0,2023-09-12T00:35:56.106Z,,0,0,,3562.7649998092675,response,ISIC_0009529.JPG,,ISIC_0057368.JPG,ISIC_0057368.JPG,true,0,keypress(z),500,107143.40000009537,107143.19999980927,103563.829,103567.7999997139,103580.435,107154.026,1,6,2,,ISIC_0009529.JPG
sequence,flow.Sequence,2_1,2023-09-12T00:35:56.107Z,,0,,,3562.7649998092675,completion,,,,,true,,,,107143.59999990463,107143.19999980927,103563.829,103567.7999997139,103580.435,107154.026,1,6,,,
trial,html.Screen,2_2_0,2023-09-12T00:36:00.593Z,,0,0,,4475.474000000002,response,ISIC_0064954.JPG,,ISIC_9758671.JPG,ISIC_9758671.JPG,true,0,keypress(z),500,111629.69999980927,111629.5,107137.466,107143.7999997139,107154.026,111646.087,1,6,3,,ISIC_0064954.JPG
sequence,flow.Sequence,2_2,2023-09-12T00:36:00.593Z,,0,,,4475.474000000002,completion,,,,,true,,,,111630.09999990463,111629.5,107137.466,107143.69999980927,107154.026,111646.087,1,6,,,
trial,html.Screen,2_3_0,2023-09-12T00:36:04.710Z,,0,0,,4100.4130000000005,response,ISIC_0005785.JPG,,ISIC_0000080.JPG,ISIC_0005785.JPG,true,1,keypress(m),500,115746.69999980927,115746.5,111629.526,111630.2999997139,111646.087,115754.141,1,6,4,,ISIC_0000080.JPG
sequence,flow.Sequence,2_3,2023-09-12T00:36:04.710Z,,0,,,4100.4130000000005,completion,,,,,true,,,,115747.19999980927,115746.5,111629.526,111630.2999997139,111646.087,115754.141,1,6,,,
trial,html.Screen,2_4_0,2023-09-12T00:36:08.536Z,,0,0,,3818.9589999046293,response,ISIC_7944028.JPG,,ISIC_5390060.JPG,ISIC_5390060.JPG,true,0,keypress(z),500,119573.40000009537,119573.09999990463,115737.493,115747.5,115754.141,119578.229,1,6,5,,ISIC_7944028.JPG
sequence,flow.Sequence,2_4,2023-09-12T00:36:08.537Z,,0,,,3818.9589999046293,completion,,,,,true,,,,119573.5,119573.09999990463,115737.493,115747.5,115754.141,119578.229,1,6,,,
trial,html.Screen,2_5_0,2023-09-12T00:36:11.883Z,,0,0,,3341.4709998092585,response,ISIC_0010188.JPG,,ISIC_0794216.JPG,ISIC_0010188.JPG,true,1,keypress(m),500,122919.90000009537,122919.69999980927,119561.622,119573.69999980927,119578.229,122934.754,1,6,6,,ISIC_0794216.JPG
sequence,flow.Sequence,2_5,2023-09-12T00:36:11.883Z,,0,,,3341.4709998092585,completion,,,,,true,,,,122920.09999990463,122919.69999980927,119561.622,119573.69999980927,119578.229,122934.754,1,6,,,
loop,flow.Loop,2,2023-09-12T00:36:11.883Z,,,,,28841.08899980926,completion,,,,,true,,,,122920.09999990463,122919.69999980927,94061.913,94077.09999990463,94078.611,122934.754,1,6,,,
exp_instructions,html.Screen,3,2023-09-12T00:36:19.342Z,,,,,7443.245999999999,response,,,,,,continue,keypress(Space),,130378.69999980927,130378,122918.282,122920.19999980927,122934.754,130399.258,,,,,
trial,html.Screen,4_0_0,2023-09-12T00:36:25.233Z,,0,1,,5870.642000095366,response,ISIC_0046659.JPG,5,ISIC_0054350.JPG,ISIC_0054350.JPG,false,0,keypress(z),500,136270.09999990463,136269.90000009537,130382.6,130378.7999997139,130399.258,136277.446,8,400,1,,ISIC_0046659.JPG
break,html.Screen,4_0_1,2023-09-12T00:36:25.234Z,,0,,,NaN,,,,,,false,,,,136271.19999980927,136270.90000009537,,136270.2999997139,,136277.446,8,400,,,
break_continue,html.Screen,4_0_2,2023-09-12T00:36:25.235Z,,0,,,NaN,,,,,,false,,,,136271.59999990463,136271.5,,136271.2999997139,,136277.446,8,400,,,
sequence,flow.Sequence,4_0,2023-09-12T00:36:25.235Z,,0,,,5872.241999999998,completion,,,,,false,,,,136271.7999997139,136271.5,130382.6,130378.7999997139,130399.258,136277.446,8,400,,,
trial,html.Screen,4_1_0,2023-09-12T00:36:30.116Z,,0,1,,4875.653999904636,response,ISIC_7587513.JPG,4,ISIC_0024796.JPG,ISIC_7587513.JPG,false,1,keypress(m),500,141153.09999990463,141153.09999990463,136260.806,136271.90000009537,136277.446,141170.353,8,400,2,,ISIC_0024796.JPG
break,html.Screen,4_1_1,2023-09-12T00:36:30.117Z,,0,,,NaN,,,,,,false,,,,141153.59999990463,141153.5,,141153.19999980927,,141170.353,8,400,,,
break_continue,html.Screen,4_1_2,2023-09-12T00:36:30.117Z,,0,,,NaN,,,,,,false,,,,141154,141153.7999997139,,141153.7999997139,,141170.353,8,400,,,
sequence,flow.Sequence,4_1,2023-09-12T00:36:30.117Z,,0,,,4876.353999713901,completion,,,,,false,,,,141154,141153.7999997139,136260.806,136271.90000009537,136277.446,141170.353,8,400,,,
trial,html.Screen,4_2_0,2023-09-12T00:36:35.512Z,,0,1,,5378.846999809262,response,ISIC_0026426.JPG,4,ISIC_0055287.JPG,ISIC_0055287.JPG,false,0,keypress(z),500,146549.2999997139,146549.19999980927,141136.947,141154.09999990463,141170.353,146564.182,8,400,3,,ISIC_0026426.JPG
break,html.Screen,4_2_1,2023-09-12T00:36:35.513Z,,0,,,NaN,,,,,,false,,,,146549.7999997139,146549.69999980927,,146549.5,,146564.182,8,400,,,
break_continue,html.Screen,4_2_2,2023-09-12T00:36:35.513Z,,0,,,NaN,,,,,,false,,,,146549.90000009537,146549.90000009537,,146549.7999997139,,146564.182,8,400,,,
sequence,flow.Sequence,4_2,2023-09-12T00:36:35.513Z,,0,,,5379.547000095365,completion,,,,,false,,,,146550,146549.90000009537,141136.947,141154.09999990463,141170.353,146564.182,8,400,,,
trial,html.Screen,4_3_0,2023-09-12T00:36:39.866Z,,0,1,,4338.517999809264,response,ISIC_3021188.JPG,5,ISIC_8798059.JPG,ISIC_8798059.JPG,false,0,keypress(z),500,150902.90000009537,150902.69999980927,146547.481,146550.09999990463,146564.182,150905.856,8,400,4,,ISIC_3021188.JPG
break,html.Screen,4_3_1,2023-09-12T00:36:39.866Z,,0,,,NaN,,,,,,false,,,,150903.2999997139,150903.19999980927,,150902.90000009537,,150905.856,8,400,,,
break_continue,html.Screen,4_3_2,2023-09-12T00:36:39.866Z,,0,,,NaN,,,,,,false,,,,150903.5,150903.40000009537,,150903.2999997139,,150905.856,8,400,,,
sequence,flow.Sequence,4_3,2023-09-12T00:36:39.867Z,,0,,,4339.218000095367,completion,,,,,false,,,,150903.5,150903.40000009537,146547.481,146550.09999990463,146564.182,150905.856,8,400,,,
trial,html.Screen,4_4_0,2023-09-12T00:36:44.540Z,,0,1,,4670.743999904633,response,ISIC_0058125.JPG,5,ISIC_2721699.JPG,ISIC_0058125.JPG,false,1,keypress(m),500,155576.59999990463,155576.59999990463,150889.288,150903.59999990463,150905.856,155581.596,8,400,5,,ISIC_2721699.JPG
break,html.Screen,4_4_1,2023-09-12T00:36:44.540Z,,0,,,NaN,,,,,,false,,,,155577.2999997139,155577.09999990463,,155576.7999997139,,155581.596,8,400,,,
break_continue,html.Screen,4_4_2,2023-09-12T00:36:44.540Z,,0,,,NaN,,,,,,false,,,,155577.40000009537,155577.40000009537,,155577.2999997139,,155581.596,8,400,,,
sequence,flow.Sequence,4_4,2023-09-12T00:36:44.541Z,,0,,,4671.544000095368,completion,,,,,false,,,,155577.5,155577.40000009537,150889.288,150903.59999990463,150905.856,155581.596,8,400,,,
trial,html.Screen,4_5_0,2023-09-12T00:36:49.487Z,,0,1,,4942.103999809275,response,ISIC_0260290.JPG,4,ISIC_0025835.JPG,ISIC_0025835.JPG,false,0,keypress(z),500,160523.7999997139,160523.69999980927,155564.934,155577.59999990463,155581.596,160541.356,8,400,6,,ISIC_0260290.JPG
break,html.Screen,4_5_1,2023-09-12T00:36:49.487Z,,0,,,NaN,,,,,,false,,,,160524.5,160524.2999997139,,160524,,160541.356,8,400,,,
break_continue,html.Screen,4_5_2,2023-09-12T00:36:49.488Z,,0,,,NaN,,,,,,false,,,,160525,160524.90000009537,,160524.59999990463,,160541.356,8,400,,,
sequence,flow.Sequence,4_5,2023-09-12T00:36:49.488Z,,0,,,4943.304000095377,completion,,,,,false,,,,160525.09999990463,160524.90000009537,155564.934,155577.59999990463,155581.596,160541.356,8,400,,,
trial,html.Screen,4_6_0,2023-09-12T00:36:54.194Z,,0,1,,4688.943999713898,response,ISIC_8586909.JPG,6,ISIC_0054974.JPG,ISIC_0054974.JPG,false,0,keypress(z),500,165230.5,165230.2999997139,160508.105,160525.19999980927,160541.356,165233.726,8,400,7,,ISIC_8586909.JPG
break,html.Screen,4_6_1,2023-09-12T00:36:54.195Z,,0,,,NaN,,,,,,false,,,,165231,165230.90000009537,,165230.59999990463,,165233.726,8,400,,,
break_continue,html.Screen,4_6_2,2023-09-12T00:36:54.195Z,,0,,,NaN,,,,,,false,,,,165231.09999990463,165231.09999990463,,165231,,165233.726,8,400,,,
sequence,flow.Sequence,4_6,2023-09-12T00:36:54.195Z,,0,,,4689.743999904633,completion,,,,,false,,,,165231.19999980927,165231.09999990463,160508.105,160525.19999980927,160541.356,165233.726,8,400,,,
trial,html.Screen,4_7_0,2023-09-12T00:36:58.972Z,,0,1,,4774.274000000005,response,ISIC_0011693.JPG,5,ISIC_5518595.JPG,ISIC_0011693.JPG,false,1,keypress(m),500,170008.19999980927,170008,165217.169,165231.2999997139,165233.726,170009.688,8,400,8,,ISIC_5518595.JPG
break,html.Screen,4_7_1,2023-09-12T00:36:58.973Z,,0,,,NaN,,,,,,false,,,,170009.09999990463,170008.7999997139,,170008.40000009537,,170009.688,8,400,,,
break_continue,html.Screen,4_7_2,2023-09-12T00:36:58.973Z,,0,,,NaN,,,,,,false,,,,170009.40000009537,170009.40000009537,,170009.19999980927,,170009.688,8,400,,,
sequence,flow.Sequence,4_7,2023-09-12T00:36:58.974Z,,0,,,4775.674000095372,completion,,,,,false,,,,170009.59999990463,170009.40000009537,165217.169,165231.2999997139,165233.726,170009.688,8,400,,,
trial,html.Screen,4_8_0,2023-09-12T00:37:03.200Z,,0,1,,4225.911999904638,response,ISIC_9001948.JPG,5,ISIC_0918078.JPG,ISIC_9001948.JPG,false,1,keypress(m),500,174235.7999997139,174235.59999990463,169993.103,170009.69999980927,170009.688,174251.298,8,400,9,,ISIC_0918078.JPG
break,html.Screen,4_8_1,2023-09-12T00:37:03.200Z,,0,,,NaN,,,,,,false,,,,174236.19999980927,174236.09999990463,,174235.90000009537,,174251.298,8,400,,,
break_continue,html.Screen,4_8_2,2023-09-12T00:37:03.200Z,,0,,,NaN,,,,,,false,,,,174236.40000009537,174236.40000009537,,174236.2999997139,,174251.298,8,400,,,
sequence,flow.Sequence,4_8,2023-09-12T00:37:03.200Z,,0,,,4226.712000095373,completion,,,,,false,,,,174236.59999990463,174236.40000009537,169993.103,170009.69999980927,170009.688,174251.298,8,400,,,
trial,html.Screen,4_9_0,2023-09-12T00:37:08.946Z,,0,1,,5730.20199999999,response,ISIC_2930792.JPG,5,ISIC_5729818.JPG,ISIC_2930792.JPG,false,1,keypress(m),500,179981.59999990463,179981.5,174234.66,174236.59999990463,174251.298,180012.568,8,400,10,,ISIC_5729818.JPG
break,html.Screen,4_9_1,2023-09-12T00:37:08.946Z,,0,,,NaN,,,,,,false,,,,179982,179982,,179981.7999997139,,180012.568,8,400,,,
break_continue,html.Screen,4_9_2,2023-09-12T00:37:08.946Z,,0,,,NaN,,,,,,false,,,,179982.2999997139,179982.19999980927,,179982.09999990463,,180012.568,8,400,,,
sequence,flow.Sequence,4_9,2023-09-12T00:37:08.946Z,,0,,,5730.901999809255,completion,,,,,false,,,,179982.2999997139,179982.19999980927,174234.66,174236.59999990463,174251.298,180012.568,8,400,,,
trial,html.Screen,4_10_0,2023-09-12T00:37:15.092Z,,0,1,,6115.731999713898,response,ISIC_0054357.JPG,5,ISIC_0000546.JPG,ISIC_0054357.JPG,false,1,keypress(m),500,186128.59999990463,186128.2999997139,179995.895,179982.40000009537,180012.568,186141.151,8,400,11,,ISIC_0000546.JPG
break,html.Screen,4_10_1,2023-09-12T00:37:15.094Z,,0,,,NaN,,,,,,false,,,,186129.7999997139,186129.5,,186128.90000009537,,186141.151,8,400,,,
break_continue,html.Screen,4_10_2,2023-09-12T00:37:15.094Z,,0,,,NaN,,,,,,false,,,,186130.40000009537,186130.19999980927,,186129.90000009537,,186141.151,8,400,,,
sequence,flow.Sequence,4_10,2023-09-12T00:37:15.095Z,,0,,,6117.631999809266,completion,,,,,false,,,,186130.59999990463,186130.19999980927,179995.895,179982.40000009537,180012.568,186141.151,8,400,,,
trial,html.Screen,4_11_0,2023-09-12T00:37:21.867Z,,0,1,,6762.148999713885,response,ISIC_0031507.JPG,5,ISIC_6982386.JPG,ISIC_6982386.JPG,false,0,keypress(z),500,192903.5,192903.2999997139,186124.488,186130.7999997139,186141.151,192937.691,8,400,12,,ISIC_0031507.JPG
break,html.Screen,4_11_1,2023-09-12T00:37:21.869Z,,0,,,NaN,,,,,,false,,,,192904.7999997139,192904.40000009537,,192903.7999997139,,192937.691,8,400,,,
break_continue,html.Screen,4_11_2,2023-09-12T00:37:21.869Z,,0,,,NaN,,,,,,false,,,,192905.40000009537,192905.2999997139,,192905,,192937.691,8,400,,,
sequence,flow.Sequence,4_11,2023-09-12T00:37:21.870Z,,0,,,6764.148999713885,completion,,,,,false,,,,192905.69999980927,192905.2999997139,186124.488,186130.69999980927,186141.151,192937.691,8,400,,,
trial,html.Screen,4_12_0,2023-09-12T00:37:27.574Z,,0,1,,5671.709000095376,response,ISIC_0069633.JPG,5,ISIC_0031104.JPG,ISIC_0031104.JPG,false,0,keypress(z),500,198609.59999990463,198609.40000009537,192921.008,192905.90000009537,192937.691,198615.339,8,400,13,,ISIC_0069633.JPG
break,html.Screen,4_12_1,2023-09-12T00:37:27.574Z,,0,,,NaN,,,,,,false,,,,198610.09999990463,198610,,198609.69999980927,,198615.339,8,400,,,
break_continue,html.Screen,4_12_2,2023-09-12T00:37:27.574Z,,0,,,NaN,,,,,,false,,,,198610.19999980927,198610.19999980927,,198610.09999990463,,198615.339,8,400,,,
sequence,flow.Sequence,4_12,2023-09-12T00:37:27.574Z,,0,,,5672.5089998092735,completion,,,,,false,,,,198610.40000009537,198610.19999980927,192921.008,192905.90000009537,192937.691,198615.339,8,400,,,
trial,html.Screen,4_13_0,2023-09-12T00:37:32.889Z,,0,1,,5309.56100009536,response,ISIC_0027104.JPG,5,ISIC_0062914.JPG,ISIC_0062914.JPG,false,0,keypress(z),500,203925.09999990463,203924.90000009537,198598.79,198610.40000009537,198615.339,203925.717,8,400,14,,ISIC_0027104.JPG
break,html.Screen,4_13_1,2023-09-12T00:37:32.889Z,,0,,,NaN,,,,,,false,,,,203925.5,203925.40000009537,,203925.09999990463,,203925.717,8,400,,,
break_continue,html.Screen,4_13_2,2023-09-12T00:37:32.890Z,,0,,,NaN,,,,,,false,,,,203925.69999980927,203925.59999990463,,203925.59999990463,,203925.717,8,400,,,
sequence,flow.Sequence,4_13,2023-09-12T00:37:32.890Z,,0,,,5310.260999904625,completion,,,,,false,,,,203925.7999997139,203925.59999990463,198598.79,198610.40000009537,198615.339,203925.717,8,400,,,
trial,html.Screen,4_14_0,2023-09-12T00:37:38.398Z,,0,1,,5507.982999809261,response,ISIC_9978498.JPG,5,ISIC_0028520.JPG,ISIC_9978498.JPG,false,1,keypress(m),500,209433.7999997139,209433.69999980927,203909.103,203925.90000009537,203925.717,209436.431,8,400,15,,ISIC_0028520.JPG
break,html.Screen,4_14_1,2023-09-12T00:37:38.398Z,,0,,,NaN,,,,,,false,,,,209434.40000009537,209434.2999997139,,209433.90000009537,,209436.431,8,400,,,
break_continue,html.Screen,4_14_2,2023-09-12T00:37:38.399Z,,0,,,NaN,,,,,,false,,,,209434.69999980927,209434.59999990463,,209434.5,,209436.431,8,400,,,
sequence,flow.Sequence,4_14,2023-09-12T00:37:38.399Z,,0,,,5508.882999904628,completion,,,,,false,,,,209434.7999997139,209434.59999990463,203909.103,203925.90000009537,203925.717,209436.431,8,400,,,
trial,html.Screen,4_15_0,2023-09-12T00:37:44.113Z,,0,1,,5712.168999904621,response,ISIC_5335139.JPG,5,ISIC_0025458.JPG,ISIC_0025458.JPG,false,0,keypress(z),500,215148.69999980927,215148.59999990463,209419.733,209434.90000009537,209436.431,215164.307,8,400,16,,ISIC_5335139.JPG
break,html.Screen,4_15_1,2023-09-12T00:37:44.113Z,,0,,,NaN,,,,,,false,,,,215149,215149,,215148.69999980927,,215164.307,8,400,,,
break_continue,html.Screen,4_15_2,2023-09-12T00:37:44.113Z,,0,,,NaN,,,,,,false,,,,215149.19999980927,215149.19999980927,,215149.09999990463,,215164.307,8,400,,,
sequence,flow.Sequence,4_15,2023-09-12T00:37:44.113Z,,0,,,5712.768999809254,completion,,,,,false,,,,215149.2999997139,215149.19999980927,209419.733,209434.90000009537,209436.431,215164.307,8,400,,,
trial,html.Screen,4_16_0,2023-09-12T00:37:50.115Z,,0,1,,5986.792999904632,response,ISIC_0069260.JPG,4,ISIC_9067033.JPG,ISIC_0069260.JPG,false,1,keypress(m),500,221151.19999980927,221151.09999990463,215147.608,215149.40000009537,215164.307,221159.229,8,400,17,,ISIC_9067033.JPG
break,html.Screen,4_16_1,2023-09-12T00:37:50.116Z,,0,,,NaN,,,,,,false,,,,221151.69999980927,221151.5,,221151.2999997139,,221159.229,8,400,,,
break_continue,html.Screen,4_16_2,2023-09-12T00:37:50.116Z,,0,,,NaN,,,,,,false,,,,221151.90000009537,221151.7999997139,,221151.7999997139,,221159.229,8,400,,,
sequence,flow.Sequence,4_16,2023-09-12T00:37:50.116Z,,0,,,5987.492999713897,completion,,,,,false,,,,221152,221151.7999997139,215147.608,215149.2999997139,215164.307,221159.229,8,400,,,
trial,html.Screen,4_17_0,2023-09-12T00:37:56.118Z,,0,1,,5994.3709999046405,response,ISIC_0000118.JPG,6,ISIC_0032369.JPG,ISIC_0032369.JPG,false,0,keypress(z),500,227153.7999997139,227153.59999990463,221142.608,221152,221159.229,227171.091,8,400,18,,ISIC_0000118.JPG
break,html.Screen,4_17_1,2023-09-12T00:37:56.119Z,,0,,,NaN,,,,,,false,,,,227154.59999990463,227154.2999997139,,227153.90000009537,,227171.091,8,400,,,
break_continue,html.Screen,4_17_2,2023-09-12T00:37:56.119Z,,0,,,NaN,,,,,,false,,,,227155.09999990463,227155,,227154.7999997139,,227171.091,8,400,,,
sequence,flow.Sequence,4_17,2023-09-12T00:37:56.119Z,,0,,,5995.771000000008,completion,,,,,false,,,,227155.2999997139,227155,221142.608,221152,221159.229,227171.091,8,400,,,
trial,html.Screen,4_18_0,2023-09-12T00:38:01.241Z,,0,1,,5105.909000000014,response,ISIC_9303594.JPG,6,ISIC_9556334.JPG,ISIC_9556334.JPG,false,0,keypress(z),500,232277.19999980927,232277,227154.356,227155.40000009537,227171.091,232280.868,8,400,19,,ISIC_9303594.JPG
break,html.Screen,4_18_1,2023-09-12T00:38:01.242Z,,0,,,NaN,,,,,,false,,,,232277.7999997139,232277.59999990463,,232277.2999997139,,232280.868,8,400,,,
break_continue,html.Screen,4_18_2,2023-09-12T00:38:01.242Z,,0,,,NaN,,,,,,false,,,,232278,232277.90000009537,,232277.7999997139,,232280.868,8,400,,,
sequence,flow.Sequence,4_18,2023-09-12T00:38:01.242Z,,0,,,5106.809000095382,completion,,,,,false,,,,232278.09999990463,232277.90000009537,227154.356,227155.40000009537,227171.091,232280.868,8,400,,,
trial,html.Screen,4_19_0,2023-09-12T00:38:07.054Z,,0,1,,5808.731999904645,response,ISIC_0055024.JPG,5,ISIC_0060660.JPG,ISIC_0060660.JPG,false,0,keypress(z),500,238089.7999997139,238089.59999990463,232264.257,232278.19999980927,232280.868,238092.164,8,400,20,,ISIC_0055024.JPG
break,html.Screen,4_19_1,2023-09-12T00:38:07.054Z,,0,,,NaN,,,,,,false,,,,238090.2999997139,238090.09999990463,,238089.90000009537,,238092.164,8,400,,,
break_continue,html.Screen,4_19_2,2023-09-12T00:38:07.055Z,,0,,,NaN,,,,,,false,,,,238090.5,238090.40000009537,,238090.2999997139,,238092.164,8,400,,,
sequence,flow.Sequence,4_19,2023-09-12T00:38:07.055Z,,0,,,5809.53200009538,completion,,,,,false,,,,238090.59999990463,238090.40000009537,232264.257,232278.19999980927,232280.868,238092.164,8,400,,,
trial,html.Screen,4_20_0,2023-09-12T00:38:13.380Z,,0,1,,6323.736000095378,response,ISIC_5607452.JPG,6,ISIC_4796100.JPG,ISIC_4796100.JPG,false,0,keypress(z),500,244416,244415.90000009537,238075.591,238090.59999990463,238092.164,244421.212,8,400,21,,ISIC_5607452.JPG
break,html.Screen,4_20_1,2023-09-12T00:38:13.381Z,,0,,,NaN,,,,,,false,,,,244416.59999990463,244416.40000009537,,244416.09999990463,,244421.212,8,400,,,
break_continue,html.Screen,4_20_2,2023-09-12T00:38:13.381Z,,0,,,NaN,,,,,,false,,,,244416.90000009537,244416.90000009537,,244416.69999980927,,244421.212,8,400,,,
sequence,flow.Sequence,4_20,2023-09-12T00:38:13.381Z,,0,,,6324.736000095378,completion,,,,,false,,,,244416.90000009537,244416.90000009537,238075.591,238090.59999990463,238092.164,244421.212,8,400,,,
trial,html.Screen,4_21_0,2023-09-12T00:38:18.184Z,,0,1,,4798.188000095368,response,ISIC_5751956.JPG,4,ISIC_1410408.JPG,ISIC_1410408.JPG,false,0,keypress(z),500,249219.5,249219.40000009537,244404.598,244417.09999990463,244421.212,249230.557,8,400,22,,ISIC_5751956.JPG
break,html.Screen,4_21_1,2023-09-12T00:38:18.184Z,,0,,,NaN,,,,,,false,,,,249219.7999997139,249219.69999980927,,249219.5,,249230.557,8,400,,,
break_continue,html.Screen,4_21_2,2023-09-12T00:38:18.184Z,,0,,,NaN,,,,,,false,,,,249220,249220,,249219.90000009537,,249230.557,8,400,,,
sequence,flow.Sequence,4_21,2023-09-12T00:38:18.184Z,,0,,,4798.7880000000005,completion,,,,,false,,,,249220.09999990463,249220,244404.598,244417.09999990463,244421.212,249230.557,8,400,,,
trial,html.Screen,4_22_0,2023-09-12T00:38:23.791Z,,0,1,,5596.343000095367,response,ISIC_3994250.JPG,4,ISIC_0032925.JPG,ISIC_0032925.JPG,false,0,keypress(z),500,254827.09999990463,254826.90000009537,249213.916,249220.09999990463,249230.557,254841.446,8,400,23,,ISIC_3994250.JPG
break,html.Screen,4_22_1,2023-09-12T00:38:23.792Z,,0,,,NaN,,,,,,false,,,,254827.69999980927,254827.5,,254827.2999997139,,254841.446,8,400,,,
break_continue,html.Screen,4_22_2,2023-09-12T00:38:23.792Z,,0,,,NaN,,,,,,false,,,,254827.90000009537,254827.90000009537,,254827.69999980927,,254841.446,8,400,,,
sequence,flow.Sequence,4_22,2023-09-12T00:38:23.792Z,,0,,,5597.343000095367,completion,,,,,false,,,,254828,254827.90000009537,249213.916,249220.09999990463,249230.557,254841.446,8,400,,,
trial,html.Screen,4_23_0,2023-09-12T00:38:29.716Z,,0,1,,5910.353999713901,response,ISIC_0002639.JPG,4,ISIC_3945916.JPG,ISIC_0002639.JPG,false,1,keypress(m),500,260751.90000009537,260751.7999997139,254824.82,254828.09999990463,254841.446,260752.974,8,400,24,,ISIC_3945916.JPG
break,html.Screen,4_23_1,2023-09-12T00:38:29.717Z,,0,,,NaN,,,,,,false,,,,260752.59999990463,260752.2999997139,,260752,,260752.974,8,400,,,
break_continue,html.Screen,4_23_2,2023-09-12T00:38:29.717Z,,0,,,NaN,,,,,,false,,,,260752.90000009537,260752.7999997139,,260752.69999980927,,260752.974,8,400,,,
sequence,flow.Sequence,4_23,2023-09-12T00:38:29.717Z,,0,,,5911.353999713901,completion,,,,,false,,,,260753,260752.7999997139,254824.82,254828.09999990463,254841.446,260752.974,8,400,,,
trial,html.Screen,4_24_0,2023-09-12T00:38:35.146Z,,0,1,,5428.526000000013,response,ISIC_0032204.JPG,5,ISIC_0033524.JPG,ISIC_0033524.JPG,false,0,keypress(z),500,266181.59999990463,266181.5,260736.375,260753.09999990463,260752.974,266196.857,8,400,25,,ISIC_0032204.JPG
break,html.Screen,4_24_1,2023-09-12T00:38:35.146Z,,0,,,NaN,,,,,,false,,,,266182,266181.90000009537,,266181.69999980927,,266196.857,8,400,,,
break_continue,html.Screen,4_24_2,2023-09-12T00:38:35.146Z,,0,,,NaN,,,,,,false,,,,266182.19999980927,266182.09999990463,,266182,,266196.857,8,400,,,
sequence,flow.Sequence,4_24,2023-09-12T00:38:35.146Z,,0,,,5429.125999904645,completion,,,,,false,,,,266182.2999997139,266182.09999990463,260736.375,260753,260752.974,266196.857,8,400,,,
trial,html.Screen,4_25_0,2023-09-12T00:38:39.918Z,,0,1,,4757.142999999982,response,ISIC_8760203.JPG,6,ISIC_0025186.JPG,ISIC_8760203.JPG,false,1,keypress(m),500,270954.09999990463,270954,266180.361,266182.2999997139,266196.857,270956.139,8,400,26,,ISIC_0025186.JPG
break,html.Screen,4_25_1,2023-09-12T00:38:39.919Z,,0,,,NaN,,,,,,false,,,,270954.69999980927,270954.5,,270954.19999980927,,270956.139,8,400,,,
break_continue,html.Screen,4_25_2,2023-09-12T00:38:39.919Z,,0,,,NaN,,,,,,false,,,,270955.09999990463,270955,,270954.7999997139,,270956.139,8,400,,,
sequence,flow.Sequence,4_25,2023-09-12T00:38:39.919Z,,0,,,4758.142999999982,completion,,,,,false,,,,270955.09999990463,270955,266180.361,266182.2999997139,266196.857,270956.139,8,400,,,
trial,html.Screen,4_26_0,2023-09-12T00:38:44.945Z,,0,1,,5024.761000095343,response,ISIC_5098778.JPG,4,ISIC_3435596.JPG,ISIC_3435596.JPG,false,0,keypress(z),500,275981.2999997139,275980.90000009537,270939.54,270955.2999997139,270956.139,275999.377,8,400,27,,ISIC_5098778.JPG
break,html.Screen,4_26_1,2023-09-12T00:38:44.948Z,,0,,,NaN,,,,,,false,,,,275983.2999997139,275982.40000009537,,275981.69999980927,,275999.377,8,400,,,
break_continue,html.Screen,4_26_2,2023-09-12T00:38:44.949Z,,0,,,NaN,,,,,,false,,,,275984.2999997139,275984.09999990463,,275983.69999980927,,275999.377,8,400,,,
sequence,flow.Sequence,4_26,2023-09-12T00:38:44.949Z,,0,,,5027.960999904608,completion,,,,,false,,,,275984.7999997139,275984.09999990463,270939.54,270955.2999997139,270956.139,275999.377,8,400,,,
trial,html.Screen,4_27_0,2023-09-12T00:38:51.080Z,,0,1,,6115.523000095389,response,ISIC_4734950.JPG,6,ISIC_0025357.JPG,ISIC_0025357.JPG,false,0,keypress(z),500,282115,282114.90000009537,275982.704,275985,275999.377,282128.048,8,400,28,,ISIC_4734950.JPG
break,html.Screen,4_27_1,2023-09-12T00:38:51.080Z,,0,,,NaN,,,,,,false,,,,282115.5,282115.2999997139,,282115.09999990463,,282128.048,8,400,,,
break_continue,html.Screen,4_27_2,2023-09-12T00:38:51.080Z,,0,,,NaN,,,,,,false,,,,282115.59999990463,282115.5,,282115.5,,282128.048,8,400,,,
sequence,flow.Sequence,4_27,2023-09-12T00:38:51.080Z,,0,,,6116.123000000021,completion,,,,,false,,,,282115.59999990463,282115.5,275982.704,275985,275999.377,282128.048,8,400,,,
trial,html.Screen,4_28_0,2023-09-12T00:38:56.682Z,,0,1,,5589.051999904623,response,ISIC_0000423.JPG,5,ISIC_6976570.JPG,ISIC_6976570.JPG,false,0,keypress(z),500,287717.40000009537,287717.09999990463,282111.267,282115.69999980927,282128.048,287722.069,8,400,29,,ISIC_0000423.JPG
break,html.Screen,4_28_1,2023-09-12T00:38:56.683Z,,0,,,NaN,,,,,,false,,,,287718.59999990463,287718.40000009537,,287717.7999997139,,287722.069,8,400,,,
break_continue,html.Screen,4_28_2,2023-09-12T00:38:56.683Z,,0,,,NaN,,,,,,false,,,,287718.90000009537,287718.7999997139,,287718.69999980927,,287722.069,8,400,,,
sequence,flow.Sequence,4_28,2023-09-12T00:38:56.684Z,,0,,,5590.751999713888,completion,,,,,false,,,,287719.09999990463,287718.7999997139,282111.267,282115.59999990463,282128.048,287722.069,8,400,,,
trial,html.Screen,4_29_0,2023-09-12T00:39:02.157Z,,0,1,,5470.130999809247,response,ISIC_0053594.JPG,5,ISIC_0033304.JPG,ISIC_0053594.JPG,false,1,keypress(m),500,293192.40000009537,293192.19999980927,287705.457,287719.19999980927,287722.069,293199.444,8,400,30,,ISIC_0033304.JPG
break,html.Screen,4_29_1,2023-09-12T00:39:02.157Z,,0,,,NaN,,,,,,false,,,,293192.69999980927,293192.69999980927,,293192.40000009537,,293199.444,8,400,,,
break_continue,html.Screen,4_29_2,2023-09-12T00:39:02.157Z,,0,,,NaN,,,,,,false,,,,293192.90000009537,293192.90000009537,,293192.90000009537,,293199.444,8,400,,,
sequence,flow.Sequence,4_29,2023-09-12T00:39:02.158Z,,0,,,5470.83100009535,completion,,,,,false,,,,293193,293192.90000009537,287705.457,287719.19999980927,287722.069,293199.444,8,400,,,
trial,html.Screen,4_30_0,2023-09-12T00:39:06.575Z,,0,1,,4410.85599971388,response,ISIC_6348638.JPG,5,ISIC_9203812.JPG,ISIC_6348638.JPG,false,1,keypress(m),500,297610.40000009537,297610.2999997139,293182.834,293193.09999990463,293199.444,297641.391,8,400,31,,ISIC_9203812.JPG
break,html.Screen,4_30_1,2023-09-12T00:39:06.575Z,,0,,,NaN,,,,,,false,,,,297610.7999997139,297610.69999980927,,297610.5,,297641.391,8,400,,,
break_continue,html.Screen,4_30_2,2023-09-12T00:39:06.576Z,,0,,,NaN,,,,,,false,,,,297611,297611,,297610.90000009537,,297641.391,8,400,,,
sequence,flow.Sequence,4_30,2023-09-12T00:39:06.576Z,,0,,,4411.555999999982,completion,,,,,false,,,,297611.09999990463,297611,293182.834,293193.09999990463,293199.444,297641.391,8,400,,,
trial,html.Screen,4_31_0,2023-09-12T00:39:12.049Z,,0,1,,5443.108999999997,response,ISIC_0060934.JPG,6,ISIC_5238649.JPG,ISIC_5238649.JPG,false,0,keypress(z),500,303084.69999980927,303084.5,297624.711,297611.19999980927,297641.391,303101.996,8,400,32,,ISIC_0060934.JPG
break,html.Screen,4_31_1,2023-09-12T00:39:12.050Z,,0,,,NaN,,,,,,false,,,,303085.09999990463,303085,,303084.7999997139,,303101.996,8,400,,,
break_continue,html.Screen,4_31_2,2023-09-12T00:39:12.050Z,,0,,,NaN,,,,,,false,,,,303085.19999980927,303085.19999980927,,303085.19999980927,,303101.996,8,400,,,
sequence,flow.Sequence,4_31,2023-09-12T00:39:12.050Z,,0,,,5443.808999809262,completion,,,,,false,,,,303085.40000009537,303085.19999980927,297624.711,297611.19999980927,297641.391,303101.996,8,400,,,
trial,html.Screen,4_32_0,2023-09-12T00:39:16.820Z,,0,1,,4753.004000000015,response,ISIC_5611104.JPG,4,ISIC_1453671.JPG,ISIC_5611104.JPG,false,1,keypress(m),500,307855.09999990463,307855,303085.305,303085.40000009537,303101.996,307861.294,8,400,33,,ISIC_1453671.JPG
break,html.Screen,4_32_1,2023-09-12T00:39:16.820Z,,0,,,NaN,,,,,,false,,,,307855.5,307855.40000009537,,307855.19999980927,,307861.294,8,400,,,
break_continue,html.Screen,4_32_2,2023-09-12T00:39:16.820Z,,0,,,NaN,,,,,,false,,,,307855.7999997139,307855.69999980927,,307855.69999980927,,307861.294,8,400,,,
sequence,flow.Sequence,4_32,2023-09-12T00:39:16.820Z,,0,,,4753.7039998092805,completion,,,,,false,,,,307855.7999997139,307855.69999980927,303085.305,303085.40000009537,303101.996,307861.294,8,400,,,
trial,html.Screen,4_33_0,2023-09-12T00:39:21.749Z,,0,1,,4923.005999713903,response,ISIC_0055438.JPG,4,ISIC_0072826.JPG,ISIC_0072826.JPG,false,0,keypress(z),500,312784.40000009537,312784.2999997139,307844.725,307855.90000009537,307861.294,312787.587,8,400,34,,ISIC_0055438.JPG
break,html.Screen,4_33_1,2023-09-12T00:39:21.749Z,,0,,,NaN,,,,,,false,,,,312784.7999997139,312784.69999980927,,312784.5,,312787.587,8,400,,,
break_continue,html.Screen,4_33_2,2023-09-12T00:39:21.750Z,,0,,,NaN,,,,,,false,,,,312785,312785,,312784.90000009537,,312787.587,8,400,,,
sequence,flow.Sequence,4_33,2023-09-12T00:39:21.750Z,,0,,,4923.706000000006,completion,,,,,false,,,,312785.09999990463,312785,307844.725,307855.90000009537,307861.294,312787.587,8,400,,,
trial,html.Screen,4_34_0,2023-09-12T00:39:26.824Z,,0,1,,5071.813000095368,response,ISIC_0009100.JPG,5,ISIC_0030254.JPG,ISIC_0030254.JPG,false,0,keypress(z),500,317859.5,317859.40000009537,312770.947,312785.19999980927,312787.587,317880.771,8,400,35,,ISIC_0009100.JPG
break,html.Screen,4_34_1,2023-09-12T00:39:26.825Z,,0,,,NaN,,,,,,false,,,,317860,317859.90000009537,,317859.59999990463,,317880.771,8,400,,,
break_continue,html.Screen,4_34_2,2023-09-12T00:39:26.825Z,,0,,,NaN,,,,,,false,,,,317860.19999980927,317860.09999990463,,317860,,317880.771,8,400,,,
sequence,flow.Sequence,4_34,2023-09-12T00:39:26.825Z,,0,,,5072.512999904633,completion,,,,,false,,,,317860.19999980927,317860.09999990463,312770.947,312785.19999980927,312787.587,317880.771,8,400,,,
trial,html.Screen,4_35_0,2023-09-12T00:39:32.929Z,,0,1,,6083.328999904625,response,ISIC_0066411.JPG,6,ISIC_4653503.JPG,ISIC_4653503.JPG,false,0,keypress(z),500,323964.2999997139,323964.09999990463,317864.163,317860.2999997139,317880.771,323976.074,8,400,36,,ISIC_0066411.JPG
break,html.Screen,4_35_1,2023-09-12T00:39:32.929Z,,0,,,NaN,,,,,,false,,,,323964.69999980927,323964.69999980927,,323964.40000009537,,323976.074,8,400,,,
break_continue,html.Screen,4_35_2,2023-09-12T00:39:32.929Z,,0,,,NaN,,,,,,false,,,,323964.90000009537,323964.7999997139,,323964.7999997139,,323976.074,8,400,,,
sequence,flow.Sequence,4_35,2023-09-12T00:39:32.929Z,,0,,,6084.02899971389,completion,,,,,false,,,,323964.90000009537,323964.7999997139,317864.163,317860.2999997139,317880.771,323976.074,8,400,,,
trial,html.Screen,4_36_0,2023-09-12T00:39:37.606Z,,0,1,,4665.02599990461,response,ISIC_0000012.JPG,5,ISIC_0033692.JPG,ISIC_0033692.JPG,false,0,keypress(z),500,328641.19999980927,328641.09999990463,323959.307,323965,323976.074,328651.824,8,400,37,,ISIC_0000012.JPG
break,html.Screen,4_36_1,2023-09-12T00:39:37.606Z,,0,,,NaN,,,,,,false,,,,328641.59999990463,328641.5,,328641.2999997139,,328651.824,8,400,,,
break_continue,html.Screen,4_36_2,2023-09-12T00:39:37.606Z,,0,,,NaN,,,,,,false,,,,328641.7999997139,328641.7999997139,,328641.69999980927,,328651.824,8,400,,,
sequence,flow.Sequence,4_36,2023-09-12T00:39:37.606Z,,0,,,4665.725999713875,completion,,,,,false,,,,328641.7999997139,328641.7999997139,323959.307,323965,323976.074,328651.824,8,400,,,
trial,html.Screen,4_37_0,2023-09-12T00:39:43.448Z,,0,1,,5831.875999809243,response,ISIC_6661904.JPG,5,ISIC_3688362.JPG,ISIC_3688362.JPG,false,0,keypress(z),500,334483.90000009537,334483.69999980927,328635.031,328642,328651.824,334496.577,8,400,38,,ISIC_6661904.JPG
break,html.Screen,4_37_1,2023-09-12T00:39:43.449Z,,0,,,NaN,,,,,,false,,,,334484.2999997139,334484.2999997139,,334484,,334496.577,8,400,,,
break_continue,html.Screen,4_37_2,2023-09-12T00:39:43.449Z,,0,,,NaN,,,,,,false,,,,334484.59999990463,334484.5,,334484.40000009537,,334496.577,8,400,,,
sequence,flow.Sequence,4_37,2023-09-12T00:39:43.449Z,,0,,,5832.675999999978,completion,,,,,false,,,,334484.59999990463,334484.5,328635.031,328642,328651.824,334496.577,8,400,,,
trial,html.Screen,4_38_0,2023-09-12T00:39:48.059Z,,0,1,,4597.522999904642,response,ISIC_0030860.JPG,5,ISIC_0023162.JPG,ISIC_0023162.JPG,false,0,keypress(z),500,339094.09999990463,339094.09999990463,334479.865,334484.69999980927,334496.577,339105.408,8,400,39,,ISIC_0030860.JPG
break,html.Screen,4_38_1,2023-09-12T00:39:48.059Z,,0,,,NaN,,,,,,false,,,,339094.59999990463,339094.40000009537,,339094.19999980927,,339105.408,8,400,,,
break_continue,html.Screen,4_38_2,2023-09-12T00:39:48.059Z,,0,,,NaN,,,,,,false,,,,339094.7999997139,339094.69999980927,,339094.59999990463,,339105.408,8,400,,,
sequence,flow.Sequence,4_38,2023-09-12T00:39:48.059Z,,0,,,4598.122999809275,completion,,,,,false,,,,339094.7999997139,339094.69999980927,334479.865,334484.69999980927,334496.577,339105.408,8,400,,,
trial,html.Screen,4_39_0,2023-09-12T00:39:53.732Z,,0,1,,5662.092000000004,response,ISIC_0679494.JPG,4,ISIC_4280835.JPG,ISIC_4280835.JPG,false,0,keypress(z),500,344767.69999980927,344767.5,339088.795,339094.90000009537,339105.408,344783.189,8,400,40,,ISIC_0679494.JPG
break,html.Screen,4_39_1,2023-09-12T00:39:53.732Z,,0,,,NaN,,,,,,false,,,,344768.2999997139,344768.19999980927,,344767.7999997139,,344783.189,8,400,,,
break_continue,html.Screen,4_39_2,2023-09-12T00:39:53.733Z,,0,,,NaN,,,,,,false,,,,344768.5,344768.5,,344768.40000009537,,344783.189,8,400,,,
sequence,flow.Sequence,4_39,2023-09-12T00:39:53.733Z,,0,,,5663.092000000004,completion,,,,,false,,,,344768.69999980927,344768.5,339088.795,339094.90000009537,339105.408,344783.189,8,400,,,
trial,html.Screen,4_40_0,2023-09-12T00:39:58.903Z,,0,1,,5155.211000095354,response,ISIC_0000305.JPG,5,ISIC_0294687.JPG,ISIC_0000305.JPG,false,1,keypress(m),500,349938.69999980927,349938.40000009537,344766.583,344768.7999997139,344783.189,349943.265,8,400,41,,ISIC_0294687.JPG
break,html.Screen,4_40_1,2023-09-12T00:39:58.905Z,,0,,,NaN,,,,,,false,,,,349940.5,349940,,349939.19999980927,,349943.265,8,400,,,
break_continue,html.Screen,4_40_2,2023-09-12T00:39:58.905Z,,0,,,NaN,,,,,,false,,,,349941.2999997139,349941.09999990463,,349940.7999997139,,349943.265,8,400,,,
sequence,flow.Sequence,4_40,2023-09-12T00:39:58.906Z,,0,,,5157.9109999046195,completion,,,,,false,,,,349941.59999990463,349941.09999990463,344766.583,344768.7999997139,344783.189,349943.265,8,400,,,
trial,html.Screen,4_41_0,2023-09-12T00:40:03.931Z,,0,1,,5023.834999904619,response,ISIC_4323070.JPG,6,ISIC_7885531.JPG,ISIC_7885531.JPG,false,0,keypress(z),500,354967.2999997139,354967.09999990463,349926.677,349941.90000009537,349943.265,354969.743,8,400,42,,ISIC_4323070.JPG
break,html.Screen,4_41_1,2023-09-12T00:40:03.932Z,,0,,,NaN,,,,,,false,,,,354968.09999990463,354967.7999997139,,354967.5,,354969.743,8,400,,,
break_continue,html.Screen,4_41_2,2023-09-12T00:40:03.933Z,,0,,,NaN,,,,,,false,,,,354968.40000009537,354968.2999997139,,354968.09999990463,,354969.743,8,400,,,
sequence,flow.Sequence,4_41,2023-09-12T00:40:03.933Z,,0,,,5025.034999713884,completion,,,,,false,,,,354968.5,354968.2999997139,349926.677,349941.7999997139,349943.265,354969.743,8,400,,,
trial,html.Screen,4_42_0,2023-09-12T00:40:08.835Z,,0,1,,4901.157000095351,response,ISIC_2323082.JPG,5,ISIC_6258744.JPG,ISIC_6258744.JPG,false,0,keypress(z),500,359871,359870.90000009537,354953.135,354968.59999990463,354969.743,359895.882,8,400,43,,ISIC_2323082.JPG
break,html.Screen,4_42_1,2023-09-12T00:40:08.836Z,,0,,,NaN,,,,,,false,,,,359871.40000009537,359871.40000009537,,359871.09999990463,,359895.882,8,400,,,
break_continue,html.Screen,4_42_2,2023-09-12T00:40:08.836Z,,0,,,NaN,,,,,,false,,,,359871.69999980927,359871.59999990463,,359871.5,,359895.882,8,400,,,
sequence,flow.Sequence,4_42,2023-09-12T00:40:08.836Z,,0,,,4901.856999904616,completion,,,,,false,,,,359871.69999980927,359871.59999990463,354953.135,354968.59999990463,354969.743,359895.882,8,400,,,
trial,html.Screen,4_43_0,2023-09-12T00:40:13.799Z,,0,1,,4939.018000095384,response,ISIC_0058998.JPG,5,ISIC_5498651.JPG,ISIC_5498651.JPG,false,0,keypress(z),500,364835.09999990463,364834.90000009537,359879.172,359871.7999997139,359895.882,364855.532,8,400,44,,ISIC_0058998.JPG
break,html.Screen,4_43_1,2023-09-12T00:40:13.800Z,,0,,,NaN,,,,,,false,,,,364835.59999990463,364835.5,,364835.19999980927,,364855.532,8,400,,,
break_continue,html.Screen,4_43_2,2023-09-12T00:40:13.800Z,,0,,,NaN,,,,,,false,,,,364835.7999997139,364835.69999980927,,364835.69999980927,,364855.532,8,400,,,
sequence,flow.Sequence,4_43,2023-09-12T00:40:13.800Z,,0,,,4939.817999809282,completion,,,,,false,,,,364836,364835.69999980927,359879.172,359871.7999997139,359895.882,364855.532,8,400,,,
trial,html.Screen,4_44_0,2023-09-12T00:40:19.739Z,,0,1,,5918.868000095361,response,ISIC_6672654.JPG,5,ISIC_0027282.JPG,ISIC_0027282.JPG,false,0,keypress(z),500,370774.5,370774.40000009537,364838.877,364836,364855.532,370783.781,8,400,45,,ISIC_6672654.JPG
break,html.Screen,4_44_1,2023-09-12T00:40:19.739Z,,0,,,NaN,,,,,,false,,,,370774.90000009537,370774.7999997139,,370774.59999990463,,370783.781,8,400,,,
break_continue,html.Screen,4_44_2,2023-09-12T00:40:19.739Z,,0,,,NaN,,,,,,false,,,,370775.09999990463,370775,,370775,,370783.781,8,400,,,
sequence,flow.Sequence,4_44,2023-09-12T00:40:19.739Z,,0,,,5919.4679999999935,completion,,,,,false,,,,370775.09999990463,370775,364838.877,364836,364855.532,370783.781,8,400,,,
trial,html.Screen,4_45_0,2023-09-12T00:40:24.933Z,,0,1,,5184.61900009535,response,ISIC_3474681.JPG,5,ISIC_0033584.JPG,ISIC_0033584.JPG,false,0,keypress(z),500,375968.5,375968.40000009537,370767.145,370775.19999980927,370783.781,375977.149,8,400,46,,ISIC_3474681.JPG
break,html.Screen,4_45_1,2023-09-12T00:40:24.933Z,,0,,,NaN,,,,,,false,,,,375968.90000009537,375968.7999997139,,375968.59999990463,,375977.149,8,400,,,
break_continue,html.Screen,4_45_2,2023-09-12T00:40:24.933Z,,0,,,NaN,,,,,,false,,,,375969,375969,,375969,,375977.149,8,400,,,
sequence,flow.Sequence,4_45,2023-09-12T00:40:24.933Z,,0,,,5185.218999999983,completion,,,,,false,,,,375969.19999980927,375969,370767.145,370775.19999980927,370783.781,375977.149,8,400,,,
trial,html.Screen,4_46_0,2023-09-12T00:40:29.895Z,,0,1,,4954.050999809289,response,ISIC_8375123.JPG,5,ISIC_0028291.JPG,ISIC_0028291.JPG,false,0,keypress(z),500,380931.2999997139,380931.19999980927,375960.565,375969.19999980927,375977.149,380936.843,8,400,47,,ISIC_8375123.JPG
break,html.Screen,4_46_1,2023-09-12T00:40:29.896Z,,0,,,NaN,,,,,,false,,,,380932.09999990463,380931.69999980927,,380931.5,,380936.843,8,400,,,
break_continue,html.Screen,4_46_2,2023-09-12T00:40:29.896Z,,0,,,NaN,,,,,,false,,,,380932.40000009537,380932.19999980927,,380932.09999990463,,380936.843,8,400,,,
sequence,flow.Sequence,4_46,2023-09-12T00:40:29.897Z,,0,,,4955.050999809289,completion,,,,,false,,,,380932.40000009537,380932.19999980927,375960.565,375969.19999980927,375977.149,380936.843,8,400,,,
trial,html.Screen,4_47_0,2023-09-12T00:40:34.271Z,,0,1,,4369.6570000000065,response,ISIC_0063950.JPG,4,ISIC_0030751.JPG,ISIC_0063950.JPG,false,1,keypress(m),500,385306.69999980927,385306.5,380920.255,380932.40000009537,380936.843,385312.083,8,400,48,,ISIC_0030751.JPG
break,html.Screen,4_47_1,2023-09-12T00:40:34.271Z,,0,,,NaN,,,,,,false,,,,385307.19999980927,385307,,385306.7999997139,,385312.083,8,400,,,
break_continue,html.Screen,4_47_2,2023-09-12T00:40:34.272Z,,0,,,NaN,,,,,,false,,,,385307.40000009537,385307.2999997139,,385307.2999997139,,385312.083,8,400,,,
sequence,flow.Sequence,4_47,2023-09-12T00:40:34.272Z,,0,,,4370.456999713904,completion,,,,,false,,,,385307.40000009537,385307.2999997139,380920.255,380932.40000009537,380936.843,385312.083,8,400,,,
trial,html.Screen,4_48_0,2023-09-12T00:40:40.402Z,,0,1,,6125.116999809281,response,ISIC_8969855.JPG,5,ISIC_6918995.JPG,ISIC_6918995.JPG,false,0,keypress(z),500,391437.40000009537,391437.19999980927,385295.409,385307.59999990463,385312.083,391440.582,8,400,49,,ISIC_8969855.JPG
break,html.Screen,4_48_1,2023-09-12T00:40:40.402Z,,0,,,NaN,,,,,,false,,,,391438,391437.90000009537,,391437.5,,391440.582,8,400,,,
break_continue,html.Screen,4_48_2,2023-09-12T00:40:40.402Z,,0,,,NaN,,,,,,false,,,,391438.19999980927,391438.19999980927,,391438.09999990463,,391440.582,8,400,,,
sequence,flow.Sequence,4_48,2023-09-12T00:40:40.402Z,,0,,,6126.116999809281,completion,,,,,false,,,,391438.2999997139,391438.19999980927,385295.409,385307.5,385312.083,391440.582,8,400,,,
trial,html.Screen,4_49_0,2023-09-12T00:40:46.294Z,,0,1,,5888.818000095373,response,ISIC_0027067.JPG,4,ISIC_0011944.JPG,ISIC_0011944.JPG,false,0,keypress(z),500,397329.59999990463,397329.40000009537,391423.997,391438.2999997139,391440.582,397335.535,8,400,50,,ISIC_0027067.JPG
break,html.Screen,4_49_1,2023-09-12T00:40:56.287Z,,0,,,10002.751000000047,timeout,,,,,false,,,,407322.2999997139,407321.643,397318.78,397329.7999997139,397335.535,407338.286,8,400,,,
break_continue,html.Screen,4_49_2,2023-09-12T00:40:58.755Z,,0,,,2447.013999713876,response,,,,,false,continue,keypress(Space),,409790.59999990463,409785.2999997139,407321.643,407322.5,407338.286,409809.671,8,400,,,
sequence,flow.Sequence,4_49,2023-09-12T00:40:58.755Z,,0,,,18344.717999713903,completion,,,,,false,,,,409790.69999980927,409785.2999997139,391423.997,391438.2999997139,391440.582,409809.671,8,400,,,
trial,html.Screen,4_50_0,2023-09-12T00:41:03.589Z,,0,2,,4814.92899990466,response,ISIC_8495875.JPG,6,ISIC_0072604.JPG,ISIC_8495875.JPG,false,1,keypress(m),500,414624.7999997139,414624.59999990463,409792.984,409790.69999980927,409809.671,414635.782,8,400,1,,ISIC_0072604.JPG
break,html.Screen,4_50_1,2023-09-12T00:41:03.590Z,,0,,,NaN,,,,,,false,,,,414625.2999997139,414625.09999990463,,414624.90000009537,,414635.782,8,400,,,
break_continue,html.Screen,4_50_2,2023-09-12T00:41:03.590Z,,0,,,NaN,,,,,,false,,,,414625.40000009537,414625.2999997139,,414625.2999997139,,414635.782,8,400,,,
sequence,flow.Sequence,4_50,2023-09-12T00:41:03.590Z,,0,,,4815.628999713925,completion,,,,,false,,,,414625.5,414625.2999997139,409792.984,409790.69999980927,409809.671,414635.782,8,400,,,
trial,html.Screen,4_51_0,2023-09-12T00:41:08.039Z,,0,2,,4438.917999809259,response,ISIC_6687927.JPG,6,ISIC_0609067.JPG,ISIC_0609067.JPG,false,0,keypress(z),500,419075,419074.69999980927,414619.141,414625.59999990463,414635.782,419094.432,8,400,2,,ISIC_6687927.JPG
break,html.Screen,4_51_1,2023-09-12T00:41:08.041Z,,0,,,NaN,,,,,,false,,,,419076.59999990463,419076.09999990463,,419075.40000009537,,419094.432,8,400,,,
break_continue,html.Screen,4_51_2,2023-09-12T00:41:08.042Z,,0,,,NaN,,,,,,false,,,,419077.59999990463,419077.2999997139,,419076.90000009537,,419094.432,8,400,,,
sequence,flow.Sequence,4_51,2023-09-12T00:41:08.042Z,,0,,,4441.517999713891,completion,,,,,false,,,,419077.90000009537,419077.2999997139,414619.141,414625.59999990463,414635.782,419094.432,8,400,,,
trial,html.Screen,4_52_0,2023-09-12T00:41:12.175Z,,0,2,,4115.867999713926,response,ISIC_0817140.JPG,5,ISIC_1076474.JPG,ISIC_1076474.JPG,false,0,keypress(z),500,423210.40000009537,423210.2999997139,419061.095,419078.59999990463,419094.432,423219.134,8,400,3,,ISIC_0817140.JPG
break,html.Screen,4_52_1,2023-09-12T00:41:12.175Z,,0,,,NaN,,,,,,false,,,,423210.7999997139,423210.69999980927,,423210.40000009537,,423219.134,8,400,,,
break_continue,html.Screen,4_52_2,2023-09-12T00:41:12.175Z,,0,,,NaN,,,,,,false,,,,423210.90000009537,423210.90000009537,,423210.90000009537,,423219.134,8,400,,,
sequence,flow.Sequence,4_52,2023-09-12T00:41:12.176Z,,0,,,4116.468000095396,completion,,,,,false,,,,423211.19999980927,423210.90000009537,419061.095,419078.09999990463,419094.432,423219.134,8,400,,,
trial,html.Screen,4_53_0,2023-09-12T00:41:16.689Z,,0,2,,4505.766000095347,response,ISIC_0027276.JPG,4,ISIC_4201891.JPG,ISIC_4201891.JPG,false,0,keypress(z),500,427725,427724.90000009537,423202.526,423211.2999997139,423219.134,427727.854,8,400,4,,ISIC_0027276.JPG
break,html.Screen,4_53_1,2023-09-12T00:41:16.690Z,,0,,,NaN,,,,,,false,,,,427725.5,427725.40000009537,,427725.09999990463,,427727.854,8,400,,,
break_continue,html.Screen,4_53_2,2023-09-12T00:41:16.690Z,,0,,,NaN,,,,,,false,,,,427725.59999990463,427725.59999990463,,427725.5,,427727.854,8,400,,,
sequence,flow.Sequence,4_53,2023-09-12T00:41:16.690Z,,0,,,4506.4659999046125,completion,,,,,false,,,,427725.69999980927,427725.59999990463,423202.526,423211.19999980927,423219.134,427727.854,8,400,,,
trial,html.Screen,4_54_0,2023-09-12T00:41:21.732Z,,0,2,,5039.445999713906,response,ISIC_0682543.JPG,5,ISIC_5650816.JPG,ISIC_5650816.JPG,false,0,keypress(z),500,432767.40000009537,432767.2999997139,427711.286,427725.69999980927,427727.854,432771.028,8,400,5,,ISIC_0682543.JPG
break,html.Screen,4_54_1,2023-09-12T00:41:21.732Z,,0,,,NaN,,,,,,false,,,,432767.7999997139,432767.7999997139,,432767.5,,432771.028,8,400,,,
break_continue,html.Screen,4_54_2,2023-09-12T00:41:21.733Z,,0,,,NaN,,,,,,false,,,,432768,432768,,432767.90000009537,,432771.028,8,400,,,
sequence,flow.Sequence,4_54,2023-09-12T00:41:21.733Z,,0,,,5040.146000000008,completion,,,,,false,,,,432768.09999990463,432768,427711.286,427725.69999980927,427727.854,432771.028,8,400,,,
trial,html.Screen,4_55_0,2023-09-12T00:41:26.891Z,,0,2,,5155.071999904641,response,ISIC_9219356.JPG,6,ISIC_1251639.JPG,ISIC_1251639.JPG,false,0,keypress(z),500,437926.2999997139,437926.09999990463,432754.434,432768.19999980927,432771.028,437931.084,8,400,6,,ISIC_9219356.JPG
break,html.Screen,4_55_1,2023-09-12T00:41:26.891Z,,0,,,NaN,,,,,,false,,,,437927,437926.90000009537,,437926.5,,437931.084,8,400,,,
break_continue,html.Screen,4_55_2,2023-09-12T00:41:26.892Z,,0,,,NaN,,,,,,false,,,,437927.19999980927,437927.09999990463,,437927,,437931.084,8,400,,,
sequence,flow.Sequence,4_55,2023-09-12T00:41:26.892Z,,0,,,5156.071999904641,completion,,,,,false,,,,437927.2999997139,437927.09999990463,432754.434,432768.09999990463,432771.028,437931.084,8,400,,,
trial,html.Screen,4_56_0,2023-09-12T00:41:31.699Z,,0,2,,4803.015999904659,response,ISIC_9337570.JPG,5,ISIC_0053996.JPG,ISIC_0053996.JPG,false,0,keypress(z),500,442734.19999980927,442734.09999990463,437914.54,437927.40000009537,437931.084,442757.089,8,400,7,,ISIC_9337570.JPG
break,html.Screen,4_56_1,2023-09-12T00:41:31.699Z,,0,,,NaN,,,,,,false,,,,442734.69999980927,442734.59999990463,,442734.40000009537,,442757.089,8,400,,,
break_continue,html.Screen,4_56_2,2023-09-12T00:41:31.699Z,,0,,,NaN,,,,,,false,,,,442735,442734.90000009537,,442734.7999997139,,442757.089,8,400,,,
sequence,flow.Sequence,4_56,2023-09-12T00:41:31.700Z,,0,,,4803.816000095394,completion,,,,,false,,,,442735,442734.90000009537,437914.54,437927.2999997139,437931.084,442757.089,8,400,,,
trial,html.Screen,4_57_0,2023-09-12T00:41:37.816Z,,0,2,,6094.311000095389,response,ISIC_3952030.JPG,5,ISIC_1037315.JPG,ISIC_1037315.JPG,false,0,keypress(z),500,448851.5,448851.40000009537,442740.616,442735.19999980927,442757.089,448852.318,8,400,8,,ISIC_3952030.JPG
break,html.Screen,4_57_1,2023-09-12T00:41:37.817Z,,0,,,NaN,,,,,,false,,,,448852,448851.90000009537,,448851.59999990463,,448852.318,8,400,,,
break_continue,html.Screen,4_57_2,2023-09-12T00:41:37.817Z,,0,,,NaN,,,,,,false,,,,448852.19999980927,448852.19999980927,,448852.09999990463,,448852.318,8,400,,,
sequence,flow.Sequence,4_57,2023-09-12T00:41:37.817Z,,0,,,6095.110999809287,completion,,,,,false,,,,448852.40000009537,448852.19999980927,442740.616,442735.19999980927,442757.089,448852.318,8,400,,,
trial,html.Screen,4_58_0,2023-09-12T00:41:42.971Z,,0,2,,5153.881999809237,response,ISIC_5354827.JPG,5,ISIC_0009738.JPG,ISIC_5354827.JPG,false,1,keypress(m),500,454006.2999997139,454006.19999980927,448835.731,448852.59999990463,448852.318,454012.365,8,400,9,,ISIC_0009738.JPG
break,html.Screen,4_58_1,2023-09-12T00:41:42.971Z,,0,,,NaN,,,,,,false,,,,454006.90000009537,454006.69999980927,,454006.5,,454012.365,8,400,,,
break_continue,html.Screen,4_58_2,2023-09-12T00:41:42.972Z,,0,,,NaN,,,,,,false,,,,454007.09999990463,454007.09999990463,,454007,,454012.365,8,400,,,
sequence,flow.Sequence,4_58,2023-09-12T00:41:42.972Z,,0,,,5154.781999904604,completion,,,,,false,,,,454007.19999980927,454007.09999990463,448835.731,448852.59999990463,448852.318,454012.365,8,400,,,
trial,html.Screen,4_59_0,2023-09-12T00:41:47.534Z,,0,2,,4556.734999904642,response,ISIC_3028754.JPG,5,ISIC_0034141.JPG,ISIC_0034141.JPG,false,0,keypress(z),500,458569.40000009537,458569.09999990463,453995.768,454007.2999997139,454012.365,458571.309,8,400,10,,ISIC_3028754.JPG
break,html.Screen,4_59_1,2023-09-12T00:41:47.536Z,,0,,,NaN,,,,,,false,,,,458571.7999997139,458570.7999997139,,458569.90000009537,,458571.309,8,400,,,
break_continue,html.Screen,4_59_2,2023-09-12T00:41:47.538Z,,0,,,NaN,,,,,,false,,,,458573.5,458572.7999997139,,458572.09999990463,,458571.309,8,400,,,
sequence,flow.Sequence,4_59,2023-09-12T00:41:47.538Z,,0,,,4560.434999713907,completion,,,,,false,,,,458573.90000009537,458572.7999997139,453995.768,454007.19999980927,454012.365,458571.309,8,400,,,
trial,html.Screen,4_60_0,2023-09-12T00:41:52.312Z,,0,2,,4775.290999904624,response,ISIC_0061183.JPG,5,ISIC_0032844.JPG,ISIC_0032844.JPG,false,0,keypress(z),500,463346.7999997139,463346.59999990463,458554.548,458574.09999990463,458571.309,463363.866,8,400,11,,ISIC_0061183.JPG
break,html.Screen,4_60_1,2023-09-12T00:41:52.313Z,,0,,,NaN,,,,,,false,,,,463347.69999980927,463347.5,,463347,,463363.866,8,400,,,
break_continue,html.Screen,4_60_2,2023-09-12T00:41:52.314Z,,0,,,NaN,,,,,,false,,,,463348.09999990463,463348,,463347.90000009537,,463363.866,8,400,,,
sequence,flow.Sequence,4_60,2023-09-12T00:41:52.314Z,,0,,,4776.690999999992,completion,,,,,false,,,,463348.2999997139,463348,458554.548,458574.09999990463,458571.309,463363.866,8,400,,,
trial,html.Screen,4_61_0,2023-09-12T00:41:56.624Z,,0,2,,4294.733999904653,response,ISIC_9159730.JPG,5,ISIC_3495799.JPG,ISIC_3495799.JPG,false,0,keypress(z),500,467658.69999980927,467658.59999990463,463330.648,463348.2999997139,463363.866,467672.263,8,400,12,,ISIC_9159730.JPG
break,html.Screen,4_61_1,2023-09-12T00:41:56.625Z,,0,,,NaN,,,,,,false,,,,467659.40000009537,467659.09999990463,,467658.7999997139,,467672.263,8,400,,,
break_continue,html.Screen,4_61_2,2023-09-12T00:41:56.625Z,,0,,,NaN,,,,,,false,,,,467659.69999980927,467659.69999980927,,467659.59999990463,,467672.263,8,400,,,
sequence,flow.Sequence,4_61,2023-09-12T00:41:56.625Z,,0,,,4295.833999809285,completion,,,,,false,,,,467659.90000009537,467659.69999980927,463330.648,463348.2999997139,463363.866,467672.263,8,400,,,
trial,html.Screen,4_62_0,2023-09-12T00:42:01.731Z,,0,2,,5092.936999809288,response,ISIC_0033771.JPG,4,ISIC_0072943.JPG,ISIC_0033771.JPG,false,1,keypress(m),500,472765.40000009537,472765.19999980927,467655.578,467659.90000009537,467672.263,472782.229,8,400,13,,ISIC_0072943.JPG
break,html.Screen,4_62_1,2023-09-12T00:42:01.732Z,,0,,,NaN,,,,,,false,,,,472766.2999997139,472765.90000009537,,472765.40000009537,,472782.229,8,400,,,
break_continue,html.Screen,4_62_2,2023-09-12T00:42:01.732Z,,0,,,NaN,,,,,,false,,,,472766.59999990463,472766.5,,472766.40000009537,,472782.229,8,400,,,
sequence,flow.Sequence,4_62,2023-09-12T00:42:01.732Z,,0,,,5094.237000000023,completion,,,,,false,,,,472766.59999990463,472766.5,467655.578,467659.90000009537,467672.263,472782.229,8,400,,,
trial,html.Screen,4_63_0,2023-09-12T00:42:06.935Z,,0,2,,5186.771000000008,response,ISIC_0063445.JPG,6,ISIC_0070308.JPG,ISIC_0070308.JPG,false,0,keypress(z),500,477969.09999990463,477969,472765.71,472766.69999980927,472782.229,477975.844,8,400,14,,ISIC_0063445.JPG
break,html.Screen,4_63_1,2023-09-12T00:42:06.935Z,,0,,,NaN,,,,,,false,,,,477969.90000009537,477969.69999980927,,477969.40000009537,,477975.844,8,400,,,
break_continue,html.Screen,4_63_2,2023-09-12T00:42:06.936Z,,0,,,NaN,,,,,,false,,,,477970.2999997139,477970.19999980927,,477970,,477975.844,8,400,,,
sequence,flow.Sequence,4_63,2023-09-12T00:42:06.936Z,,0,,,5187.970999809273,completion,,,,,false,,,,477970.40000009537,477970.19999980927,472765.71,472766.69999980927,472782.229,477975.844,8,400,,,
trial,html.Screen,4_64_0,2023-09-12T00:42:12.109Z,,0,2,,5167.25599990465,response,ISIC_0813423.JPG,5,ISIC_2784965.JPG,ISIC_0813423.JPG,false,1,keypress(m),500,483143.19999980927,483143.09999990463,477959.074,477970.5,477975.844,483152.405,8,400,15,,ISIC_2784965.JPG
break,html.Screen,4_64_1,2023-09-12T00:42:12.109Z,,0,,,NaN,,,,,,false,,,,483143.5,483143.40000009537,,483143.19999980927,,483152.405,8,400,,,
break_continue,html.Screen,4_64_2,2023-09-12T00:42:12.109Z,,0,,,NaN,,,,,,false,,,,483143.69999980927,483143.69999980927,,483143.59999990463,,483152.405,8,400,,,
sequence,flow.Sequence,4_64,2023-09-12T00:42:12.109Z,,0,,,5167.855999809282,completion,,,,,false,,,,483143.7999997139,483143.69999980927,477959.074,477970.5,477975.844,483152.405,8,400,,,
trial,html.Screen,4_65_0,2023-09-12T00:42:16.899Z,,0,2,,4781.094999999972,response,ISIC_0026560.JPG,5,ISIC_8268025.JPG,ISIC_0026560.JPG,false,1,keypress(m),500,487933.7999997139,487933.5,483135.81,483143.7999997139,483152.405,487961.788,8,400,16,,ISIC_8268025.JPG
break,html.Screen,4_65_1,2023-09-12T00:42:16.900Z,,0,,,NaN,,,,,,false,,,,487935,487934.69999980927,,487934,,487961.788,8,400,,,
break_continue,html.Screen,4_65_2,2023-09-12T00:42:16.901Z,,0,,,NaN,,,,,,false,,,,487935.5,487935.40000009537,,487935.19999980927,,487961.788,8,400,,,
sequence,flow.Sequence,4_65,2023-09-12T00:42:16.901Z,,0,,,4782.9950000953395,completion,,,,,false,,,,487935.69999980927,487935.40000009537,483135.81,483143.7999997139,483152.405,487961.788,8,400,,,
trial,html.Screen,4_66_0,2023-09-12T00:42:21.287Z,,0,2,,4359.811999904632,response,ISIC_5656921.JPG,5,ISIC_0295323.JPG,ISIC_0295323.JPG,false,0,keypress(z),500,492321.69999980927,492321.59999990463,487945.09,487935.7999997139,487961.788,492336.99,8,400,17,,ISIC_5656921.JPG
break,html.Screen,4_66_1,2023-09-12T00:42:21.288Z,,0,,,NaN,,,,,,false,,,,492322.2999997139,492322.09999990463,,492321.7999997139,,492336.99,8,400,,,
break_continue,html.Screen,4_66_2,2023-09-12T00:42:21.288Z,,0,,,NaN,,,,,,false,,,,492322.69999980927,492322.59999990463,,492322.40000009537,,492336.99,8,400,,,
sequence,flow.Sequence,4_66,2023-09-12T00:42:21.288Z,,0,,,4360.811999904632,completion,,,,,false,,,,492322.69999980927,492322.59999990463,487945.09,487935.7999997139,487961.788,492336.99,8,400,,,
trial,html.Screen,4_67_0,2023-09-12T00:42:26.298Z,,0,2,,4995.109999904642,response,ISIC_8883212.JPG,5,ISIC_0069361.JPG,ISIC_0069361.JPG,false,0,keypress(z),500,497332.2999997139,497332.09999990463,492320.375,492322.7999997139,492336.99,497346.653,8,400,18,,ISIC_8883212.JPG
break,html.Screen,4_67_1,2023-09-12T00:42:26.298Z,,0,,,NaN,,,,,,false,,,,497333.09999990463,497332.90000009537,,497332.5,,497346.653,8,400,,,
break_continue,html.Screen,4_67_2,2023-09-12T00:42:26.299Z,,0,,,NaN,,,,,,false,,,,497333.40000009537,497333.2999997139,,497333.19999980927,,497346.653,8,400,,,
sequence,flow.Sequence,4_67,2023-09-12T00:42:26.299Z,,0,,,4996.309999713907,completion,,,,,false,,,,497333.5,497333.2999997139,492320.375,492322.69999980927,492336.99,497346.653,8,400,,,
trial,html.Screen,4_68_0,2023-09-12T00:42:31.597Z,,0,2,,5285.146999713907,response,ISIC_6069236.JPG,5,ISIC_9023152.JPG,ISIC_9023152.JPG,false,0,keypress(z),500,502632,502631.7999997139,497330.078,497333.69999980927,497346.653,502640.417,8,400,19,,ISIC_6069236.JPG
break,html.Screen,4_68_1,2023-09-12T00:42:31.598Z,,0,,,NaN,,,,,,false,,,,502632.59999990463,502632.2999997139,,502632.19999980927,,502640.417,8,400,,,
break_continue,html.Screen,4_68_2,2023-09-12T00:42:31.598Z,,0,,,NaN,,,,,,false,,,,502632.7999997139,502632.7999997139,,502632.59999990463,,502640.417,8,400,,,
sequence,flow.Sequence,4_68,2023-09-12T00:42:31.598Z,,0,,,5286.146999713907,completion,,,,,false,,,,502632.90000009537,502632.7999997139,497330.078,497333.69999980927,497346.653,502640.417,8,400,,,
trial,html.Screen,4_69_0,2023-09-12T00:42:38.832Z,,0,2,,7225.682999904617,response,ISIC_0205127.JPG,6,ISIC_0067395.JPG,ISIC_0205127.JPG,false,1,keypress(m),500,509866.40000009537,509866.09999990463,502623.758,502633,502640.417,509871.144,8,400,20,,ISIC_0067395.JPG
break,html.Screen,4_69_1,2023-09-12T00:42:38.833Z,,0,,,NaN,,,,,,false,,,,509868.09999990463,509867.59999990463,,509866.7999997139,,509871.144,8,400,,,
break_continue,html.Screen,4_69_2,2023-09-12T00:42:38.834Z,,0,,,NaN,,,,,,false,,,,509868.90000009537,509868.59999990463,,509868.2999997139,,509871.144,8,400,,,
sequence,flow.Sequence,4_69,2023-09-12T00:42:38.835Z,,0,,,7228.182999904617,completion,,,,,false,,,,509869.2999997139,509868.59999990463,502623.758,502633,502640.417,509871.144,8,400,,,
trial,html.Screen,4_70_0,2023-09-12T00:42:43.078Z,,0,2,,4241.155999713927,response,ISIC_1868816.JPG,5,ISIC_3292151.JPG,ISIC_1868816.JPG,false,1,keypress(m),500,514112.40000009537,514112.2999997139,509854.475,509869.59999990463,509871.144,514129.488,8,400,21,,ISIC_3292151.JPG
break,html.Screen,4_70_1,2023-09-12T00:42:43.078Z,,0,,,NaN,,,,,,false,,,,514112.90000009537,514112.69999980927,,514112.40000009537,,514129.488,8,400,,,
break_continue,html.Screen,4_70_2,2023-09-12T00:42:43.079Z,,0,,,NaN,,,,,,false,,,,514113.19999980927,514113,,514112.90000009537,,514129.488,8,400,,,
sequence,flow.Sequence,4_70,2023-09-12T00:42:43.079Z,,0,,,4241.856000000029,completion,,,,,false,,,,514113.19999980927,514113,509854.475,509869.40000009537,509871.144,514129.488,8,400,,,
trial,html.Screen,4_71_0,2023-09-12T00:42:47.311Z,,0,2,,4216.011999999988,response,ISIC_0172020.JPG,5,ISIC_8935085.JPG,ISIC_8935085.JPG,false,0,keypress(z),500,518345.59999990463,518345.5,514096.056,514113.2999997139,514129.488,518354.265,8,400,22,,ISIC_0172020.JPG
break,html.Screen,4_71_1,2023-09-12T00:42:47.312Z,,0,,,NaN,,,,,,false,,,,518346.40000009537,518346.09999990463,,518345.7999997139,,518354.265,8,400,,,
break_continue,html.Screen,4_71_2,2023-09-12T00:42:47.312Z,,0,,,NaN,,,,,,false,,,,518346.69999980927,518346.59999990463,,518346.40000009537,,518354.265,8,400,,,
sequence,flow.Sequence,4_71,2023-09-12T00:42:47.312Z,,0,,,4217.1119999046205,completion,,,,,false,,,,518346.69999980927,518346.59999990463,514096.056,514113.2999997139,514129.488,518354.265,8,400,,,
trial,html.Screen,4_72_0,2023-09-12T00:42:52.226Z,,0,2,,4905.534999713884,response,ISIC_0027187.JPG,5,ISIC_0026996.JPG,ISIC_0027187.JPG,false,1,keypress(m),500,523260,523259.7999997139,518337.669,518346.7999997139,518354.265,523263.804,8,400,23,,ISIC_0026996.JPG
break,html.Screen,4_72_1,2023-09-12T00:42:52.226Z,,0,,,NaN,,,,,,false,,,,523260.40000009537,523260.19999980927,,523260,,523263.804,8,400,,,
break_continue,html.Screen,4_72_2,2023-09-12T00:42:52.226Z,,0,,,NaN,,,,,,false,,,,523260.5,523260.5,,523260.40000009537,,523263.804,8,400,,,
sequence,flow.Sequence,4_72,2023-09-12T00:42:52.226Z,,0,,,4906.234999999986,completion,,,,,false,,,,523260.59999990463,523260.5,518337.669,518346.7999997139,518354.265,523263.804,8,400,,,
trial,html.Screen,4_73_0,2023-09-12T00:42:56.535Z,,0,2,,4305.795999904629,response,ISIC_0064534.JPG,5,ISIC_0071471.JPG,ISIC_0071471.JPG,false,0,keypress(z),500,527569.6999998093,527569.5999999046,523247.217,523260.69999980927,523263.804,527572.18,8,400,24,,ISIC_0064534.JPG
break,html.Screen,4_73_1,2023-09-12T00:42:56.536Z,,0,,,NaN,,,,,,false,,,,527570.1999998093,527570.0999999046,,527569.7999997139,,527572.18,8,400,,,
break_continue,html.Screen,4_73_2,2023-09-12T00:42:56.536Z,,0,,,NaN,,,,,,false,,,,527570.4000000954,527570.4000000954,,527570.2999997139,,527572.18,8,400,,,
sequence,flow.Sequence,4_73,2023-09-12T00:42:56.536Z,,0,,,4306.596000095364,completion,,,,,false,,,,527570.5,527570.4000000954,523247.217,523260.69999980927,523263.804,527572.18,8,400,,,
trial,html.Screen,4_74_0,2023-09-12T00:43:01.721Z,,0,2,,5183.1199997138465,response,ISIC_0055797.JPG,4,ISIC_0013427.JPG,ISIC_0055797.JPG,false,1,keypress(m),500,532755.4000000954,532755.2999997139,527555.586,527570.5,527572.18,532765.709,8,400,25,,ISIC_0013427.JPG
break,html.Screen,4_74_1,2023-09-12T00:43:01.722Z,,0,,,NaN,,,,,,false,,,,532755.9000000954,532755.7999997139,,532755.5,,532765.709,8,400,,,
break_continue,html.Screen,4_74_2,2023-09-12T00:43:01.722Z,,0,,,NaN,,,,,,false,,,,532756.1999998093,532756.1999998093,,532756.0999999046,,532765.709,8,400,,,
sequence,flow.Sequence,4_74,2023-09-12T00:43:01.722Z,,0,,,5184.019999809214,completion,,,,,false,,,,532756.2999997139,532756.1999998093,527555.586,527570.5,527572.18,532765.709,8,400,,,
trial,html.Screen,4_75_0,2023-09-12T00:43:06.428Z,,0,2,,4696.090999713866,response,ISIC_0032044.JPG,5,ISIC_0006821.JPG,ISIC_0006821.JPG,false,0,keypress(z),500,537462.1999998093,537461.7999997139,532749.02,532756.4000000954,532765.709,537491.481,8,400,26,,ISIC_0032044.JPG
break,html.Screen,4_75_1,2023-09-12T00:43:06.429Z,,0,,,NaN,,,,,,false,,,,537463.1999998093,537462.9000000954,,537462.4000000954,,537491.481,8,400,,,
break_continue,html.Screen,4_75_2,2023-09-12T00:43:06.429Z,,0,,,NaN,,,,,,false,,,,537463.6999998093,537463.5999999046,,537463.2999997139,,537491.481,8,400,,,
sequence,flow.Sequence,4_75,2023-09-12T00:43:06.430Z,,0,,,4697.890999904601,completion,,,,,false,,,,537463.9000000954,537463.5999999046,532749.02,532756.4000000954,532765.709,537491.481,8,400,,,
trial,html.Screen,4_76_0,2023-09-12T00:43:12.004Z,,0,2,,5546.919000095339,response,ISIC_5174685.JPG,5,ISIC_0054874.JPG,ISIC_0054874.JPG,false,0,keypress(z),500,543038.5999999046,543038.4000000954,537474.821,537464.0999999046,537491.481,543052.383,8,400,27,,ISIC_5174685.JPG
break,html.Screen,4_76_1,2023-09-12T00:43:12.005Z,,0,,,NaN,,,,,,false,,,,543038.9000000954,543038.9000000954,,543038.6999998093,,543052.383,8,400,,,
break_continue,html.Screen,4_76_2,2023-09-12T00:43:12.005Z,,0,,,NaN,,,,,,false,,,,543039.0999999046,543039.0999999046,,543039,,543052.383,8,400,,,
sequence,flow.Sequence,4_76,2023-09-12T00:43:12.005Z,,0,,,5547.618999904604,completion,,,,,false,,,,543039.1999998093,543039.0999999046,537474.821,537464,537491.481,543052.383,8,400,,,
trial,html.Screen,4_77_0,2023-09-12T00:43:16.718Z,,0,2,,4699.816999809234,response,ISIC_0026166.JPG,5,ISIC_0420777.JPG,ISIC_0026166.JPG,false,1,keypress(m),500,547752.2999997139,547752.1999998093,543035.623,543039.2999997139,543052.383,547761.51,8,400,28,,ISIC_0420777.JPG
break,html.Screen,4_77_1,2023-09-12T00:43:16.719Z,,0,,,NaN,,,,,,false,,,,547753,547752.5999999046,,547752.4000000954,,547761.51,8,400,,,
break_continue,html.Screen,4_77_2,2023-09-12T00:43:16.719Z,,0,,,NaN,,,,,,false,,,,547753.2999997139,547753.2999997139,,547753.0999999046,,547761.51,8,400,,,
sequence,flow.Sequence,4_77,2023-09-12T00:43:16.719Z,,0,,,4700.916999713867,completion,,,,,false,,,,547753.5,547753.2999997139,543035.623,543039.1999998093,543052.383,547761.51,8,400,,,
trial,html.Screen,4_78_0,2023-09-12T00:43:21.489Z,,0,2,,4761.689999809256,response,ISIC_4610600.JPG,4,ISIC_0501843.JPG,ISIC_4610600.JPG,false,1,keypress(m),500,552523.5,552523.1999998093,547744.866,547753.5,547761.51,552537.477,8,400,29,,ISIC_0501843.JPG
break,html.Screen,4_78_1,2023-09-12T00:43:21.490Z,,0,,,NaN,,,,,,false,,,,552524.6999998093,552524.5,,552523.9000000954,,552537.477,8,400,,,
break_continue,html.Screen,4_78_2,2023-09-12T00:43:21.491Z,,0,,,NaN,,,,,,false,,,,552525.2999997139,552525.1999998093,,552524.9000000954,,552537.477,8,400,,,
sequence,flow.Sequence,4_78,2023-09-12T00:43:21.491Z,,0,,,4763.689999809256,completion,,,,,false,,,,552525.5,552525.1999998093,547744.866,547753.5,547761.51,552537.477,8,400,,,
trial,html.Screen,4_79_0,2023-09-12T00:43:26.392Z,,0,2,,4888.523000000045,response,ISIC_0057656.JPG,6,ISIC_5518557.JPG,ISIC_0057656.JPG,false,1,keypress(m),500,557426.1999998093,557426,552520.875,552525.6999998093,552537.477,557430.308,8,400,30,,ISIC_5518557.JPG
break,html.Screen,4_79_1,2023-09-12T00:43:26.393Z,,0,,,NaN,,,,,,false,,,,557427,557426.6999998093,,557426.4000000954,,557430.308,8,400,,,
break_continue,html.Screen,4_79_2,2023-09-12T00:43:26.393Z,,0,,,NaN,,,,,,false,,,,557427.1999998093,557427.1999998093,,557427.0999999046,,557430.308,8,400,,,
sequence,flow.Sequence,4_79,2023-09-12T00:43:26.393Z,,0,,,4889.72299980931,completion,,,,,false,,,,557427.4000000954,557427.1999998093,552520.875,552525.6999998093,552537.477,557430.308,8,400,,,
trial,html.Screen,4_80_0,2023-09-12T00:43:32.011Z,,0,2,,5614.791999904672,response,ISIC_0068116.JPG,6,ISIC_0028412.JPG,ISIC_0068116.JPG,false,1,keypress(m),500,563045.2999997139,563045.0999999046,557413.687,557427.4000000954,557430.308,563057.916,8,400,31,,ISIC_0028412.JPG
break,html.Screen,4_80_1,2023-09-12T00:43:32.011Z,,0,,,NaN,,,,,,false,,,,563045.5999999046,563045.5,,563045.2999997139,,563057.916,8,400,,,
break_continue,html.Screen,4_80_2,2023-09-12T00:43:32.012Z,,0,,,NaN,,,,,,false,,,,563045.7999997139,563045.7999997139,,563045.6999998093,,563057.916,8,400,,,
sequence,flow.Sequence,4_80,2023-09-12T00:43:32.012Z,,0,,,5615.491999713937,completion,,,,,false,,,,563045.9000000954,563045.7999997139,557413.687,557427.4000000954,557430.308,563057.916,8,400,,,
trial,html.Screen,4_81_0,2023-09-12T00:43:36.718Z,,0,2,,4693.783999809297,response,ISIC_0014800.JPG,5,ISIC_9465061.JPG,ISIC_9465061.JPG,false,0,keypress(z),500,567751.7999997139,567751.6999998093,563041.455,563046,563057.916,567767.042,8,400,32,,ISIC_0014800.JPG
break,html.Screen,4_81_1,2023-09-12T00:43:36.718Z,,0,,,NaN,,,,,,false,,,,567752.2999997139,567752.0999999046,,567751.7999997139,,567767.042,8,400,,,
break_continue,html.Screen,4_81_2,2023-09-12T00:43:36.718Z,,0,,,NaN,,,,,,false,,,,567752.4000000954,567752.4000000954,,567752.2999997139,,567767.042,8,400,,,
sequence,flow.Sequence,4_81,2023-09-12T00:43:36.718Z,,0,,,4694.484000095399,completion,,,,,false,,,,567752.5,567752.4000000954,563041.455,563046,563057.916,567767.042,8,400,,,
trial,html.Screen,4_82_0,2023-09-12T00:43:42.465Z,,0,2,,5731.757999713882,response,ISIC_0032742.JPG,4,ISIC_0061566.JPG,ISIC_0061566.JPG,false,0,keypress(z),500,573499.1999998093,573498.7999997139,567750.343,567752.5,567767.042,573511.557,8,400,33,,ISIC_0032742.JPG
break,html.Screen,4_82_1,2023-09-12T00:43:42.467Z,,0,,,NaN,,,,,,false,,,,573501.0999999046,573500.5,,573499.5999999046,,573511.557,8,400,,,
break_continue,html.Screen,4_82_2,2023-09-12T00:43:42.467Z,,0,,,NaN,,,,,,false,,,,573501.6999998093,573501.5999999046,,573501.2999997139,,573511.557,8,400,,,
sequence,flow.Sequence,4_82,2023-09-12T00:43:42.468Z,,0,,,5734.557999904617,completion,,,,,false,,,,573501.9000000954,573501.5999999046,567750.343,567752.5,567767.042,573511.557,8,400,,,
trial,html.Screen,4_83_0,2023-09-12T00:43:47.335Z,,0,2,,4857.44299999997,response,ISIC_5789263.JPG,5,ISIC_0055086.JPG,ISIC_0055086.JPG,false,0,keypress(z),500,578369.0999999046,578369,573494.987,573502.0999999046,573511.557,578371.066,8,400,34,,ISIC_5789263.JPG
break,html.Screen,4_83_1,2023-09-12T00:43:47.336Z,,0,,,NaN,,,,,,false,,,,578369.9000000954,578369.6999998093,,578369.2999997139,,578371.066,8,400,,,
break_continue,html.Screen,4_83_2,2023-09-12T00:43:47.336Z,,0,,,NaN,,,,,,false,,,,578370.2999997139,578370.0999999046,,578370,,578371.066,8,400,,,
sequence,flow.Sequence,4_83,2023-09-12T00:43:47.336Z,,0,,,4858.542999904603,completion,,,,,false,,,,578370.2999997139,578370.0999999046,573494.987,573502,573511.557,578371.066,8,400,,,
trial,html.Screen,4_84_0,2023-09-12T00:43:51.642Z,,0,2,,4304.934000000008,response,ISIC_0046664.JPG,4,ISIC_0059037.JPG,ISIC_0046664.JPG,false,1,keypress(m),500,582676.0999999046,582676,578354.355,578370.4000000954,578371.066,582679.398,8,400,35,,ISIC_0059037.JPG
break,html.Screen,4_84_1,2023-09-12T00:43:51.643Z,,0,,,NaN,,,,,,false,,,,582676.5,582676.4000000954,,582676.1999998093,,582679.398,8,400,,,
break_continue,html.Screen,4_84_2,2023-09-12T00:43:51.643Z,,0,,,NaN,,,,,,false,,,,582676.6999998093,582676.6999998093,,582676.5999999046,,582679.398,8,400,,,
sequence,flow.Sequence,4_84,2023-09-12T00:43:51.643Z,,0,,,4305.6339998092735,completion,,,,,false,,,,582676.7999997139,582676.6999998093,578354.355,578370.4000000954,578371.066,582679.398,8,400,,,
trial,html.Screen,4_85_0,2023-09-12T00:43:55.629Z,,0,2,,3983.5020000953227,response,ISIC_9330527.JPG,5,ISIC_0010227.JPG,ISIC_0010227.JPG,false,0,keypress(z),500,586663,586662.9000000954,582662.835,582676.7999997139,582679.398,586670.699,8,400,36,,ISIC_9330527.JPG
break,html.Screen,4_85_1,2023-09-12T00:43:55.630Z,,0,,,NaN,,,,,,false,,,,586663.5999999046,586663.4000000954,,586663.1999998093,,586670.699,8,400,,,
break_continue,html.Screen,4_85_2,2023-09-12T00:43:55.630Z,,0,,,NaN,,,,,,false,,,,586663.9000000954,586663.7999997139,,586663.6999998093,,586670.699,8,400,,,
sequence,flow.Sequence,4_85,2023-09-12T00:43:55.630Z,,0,,,3984.401999713853,completion,,,,,false,,,,586664,586663.7999997139,582662.835,582676.7999997139,582679.398,586670.699,8,400,,,
trial,html.Screen,4_86_0,2023-09-12T00:44:00.835Z,,0,2,,5198.100999713875,response,ISIC_2563374.JPG,5,ISIC_1233104.JPG,ISIC_1233104.JPG,false,0,keypress(z),500,591868.9000000954,591868.7999997139,586653.928,586664,586670.699,591880.697,8,400,37,,ISIC_2563374.JPG
break,html.Screen,4_86_1,2023-09-12T00:44:00.835Z,,0,,,NaN,,,,,,false,,,,591869.5,591869.2999997139,,591869,,591880.697,8,400,,,
break_continue,html.Screen,4_86_2,2023-09-12T00:44:00.836Z,,0,,,NaN,,,,,,false,,,,591869.7999997139,591869.6999998093,,591869.5999999046,,591880.697,8,400,,,
sequence,flow.Sequence,4_86,2023-09-12T00:44:00.836Z,,0,,,5199.000999809243,completion,,,,,false,,,,591869.9000000954,591869.6999998093,586653.928,586664,586670.699,591880.697,8,400,,,
trial,html.Screen,4_87_0,2023-09-12T00:44:06.442Z,,0,2,,5595.002999809221,response,ISIC_5508076.JPG,6,ISIC_0033885.JPG,ISIC_0033885.JPG,false,0,keypress(z),500,597475.7999997139,597475.6999998093,591864.091,591869.9000000954,591880.697,597491.586,8,400,38,,ISIC_5508076.JPG
break,html.Screen,4_87_1,2023-09-12T00:44:06.442Z,,0,,,NaN,,,,,,false,,,,597476.1999998093,597476.1999998093,,597475.9000000954,,597491.586,8,400,,,
break_continue,html.Screen,4_87_2,2023-09-12T00:44:06.442Z,,0,,,NaN,,,,,,false,,,,597476.4000000954,597476.4000000954,,597476.1999998093,,597491.586,8,400,,,
sequence,flow.Sequence,4_87,2023-09-12T00:44:06.443Z,,0,,,5595.703000095324,completion,,,,,false,,,,597476.5,597476.4000000954,591864.091,591869.9000000954,591880.697,597491.586,8,400,,,
trial,html.Screen,4_88_0,2023-09-12T00:44:12.003Z,,0,2,,5544.91399999999,response,ISIC_0012054.JPG,5,ISIC_0055079.JPG,ISIC_0055079.JPG,false,0,keypress(z),500,603036.5999999046,603036.5,597475.003,597476.5999999046,597491.586,603052.379,8,400,39,,ISIC_0012054.JPG
break,html.Screen,4_88_1,2023-09-12T00:44:12.003Z,,0,,,NaN,,,,,,false,,,,603037.1999998093,603037.0999999046,,603036.7999997139,,603052.379,8,400,,,
break_continue,html.Screen,4_88_2,2023-09-12T00:44:12.003Z,,0,,,NaN,,,,,,false,,,,603037.2999997139,603037.2999997139,,603037.1999998093,,603052.379,8,400,,,
sequence,flow.Sequence,4_88,2023-09-12T00:44:12.003Z,,0,,,5545.7139997138875,completion,,,,,false,,,,603037.4000000954,603037.2999997139,597475.003,597476.5,597491.586,603052.379,8,400,,,
trial,html.Screen,4_89_0,2023-09-12T00:44:18.005Z,,0,2,,5987.02100009541,response,ISIC_0012434.JPG,6,ISIC_0030913.JPG,ISIC_0030913.JPG,false,0,keypress(z),500,609039.5,609039.4000000954,603035.898,603037.4000000954,603052.379,609047.469,8,400,40,,ISIC_0012434.JPG
break,html.Screen,4_89_1,2023-09-12T00:44:18.006Z,,0,,,NaN,,,,,,false,,,,609039.9000000954,609039.7999997139,,609039.5999999046,,609047.469,8,400,,,
break_continue,html.Screen,4_89_2,2023-09-12T00:44:18.006Z,,0,,,NaN,,,,,,false,,,,609040.0999999046,609040,,609040,,609047.469,8,400,,,
sequence,flow.Sequence,4_89,2023-09-12T00:44:18.006Z,,0,,,5987.621000000043,completion,,,,,false,,,,609040.1999998093,609040,603035.898,603037.4000000954,603052.379,609047.469,8,400,,,
trial,html.Screen,4_90_0,2023-09-12T00:44:23.448Z,,0,2,,5434.330999713857,response,ISIC_0000523.JPG,5,ISIC_5599298.JPG,ISIC_0000523.JPG,false,1,keypress(m),500,614481.9000000954,614481.7999997139,609030.836,609040.1999998093,609047.469,614491.39,8,400,41,,ISIC_5599298.JPG
break,html.Screen,4_90_1,2023-09-12T00:44:23.448Z,,0,,,NaN,,,,,,false,,,,614482.2999997139,614482.2999997139,,614482.0999999046,,614491.39,8,400,,,
break_continue,html.Screen,4_90_2,2023-09-12T00:44:23.449Z,,0,,,NaN,,,,,,false,,,,614482.5999999046,614482.5,,614482.5,,614491.39,8,400,,,
sequence,flow.Sequence,4_90,2023-09-12T00:44:23.449Z,,0,,,5435.030999999959,completion,,,,,false,,,,614482.6999998093,614482.5,609030.836,609040.1999998093,609047.469,614491.39,8,400,,,
trial,html.Screen,4_91_0,2023-09-12T00:44:30.192Z,,0,2,,6734.909999713884,response,ISIC_0024323.JPG,5,ISIC_5102688.JPG,ISIC_0024323.JPG,false,1,keypress(m),500,621226.2999997139,621226.2999997139,614474.649,614482.6999998093,614491.39,621237.766,8,400,42,,ISIC_5102688.JPG
break,html.Screen,4_91_1,2023-09-12T00:44:30.193Z,,0,,,NaN,,,,,,false,,,,621226.9000000954,621226.6999998093,,621226.5,,621237.766,8,400,,,
break_continue,html.Screen,4_91_2,2023-09-12T00:44:30.193Z,,0,,,NaN,,,,,,false,,,,621227.0999999046,621227,,621226.9000000954,,621237.766,8,400,,,
sequence,flow.Sequence,4_91,2023-09-12T00:44:30.193Z,,0,,,6735.609999999986,completion,,,,,false,,,,621227.1999998093,621227,614474.649,614482.6999998093,614491.39,621237.766,8,400,,,
trial,html.Screen,4_92_0,2023-09-12T00:44:36.434Z,,0,2,,6230.234000000055,response,ISIC_0010046.JPG,4,ISIC_5433087.JPG,ISIC_5433087.JPG,false,0,keypress(z),500,627468.0999999046,627468,621221.166,621227.2999997139,621237.766,627483.242,8,400,43,,ISIC_0010046.JPG
break,html.Screen,4_92_1,2023-09-12T00:44:36.434Z,,0,,,NaN,,,,,,false,,,,627468.4000000954,627468.4000000954,,627468.0999999046,,627483.242,8,400,,,
break_continue,html.Screen,4_92_2,2023-09-12T00:44:36.435Z,,0,,,NaN,,,,,,false,,,,627468.5999999046,627468.5999999046,,627468.5,,627483.242,8,400,,,
sequence,flow.Sequence,4_92,2023-09-12T00:44:36.435Z,,0,,,6230.8339999046875,completion,,,,,false,,,,627468.6999998093,627468.5999999046,621221.166,621227.2999997139,621237.766,627483.242,8,400,,,
trial,html.Screen,4_93_0,2023-09-12T00:44:41.300Z,,0,2,,4850.158000095398,response,ISIC_2266011.JPG,4,ISIC_0001126.JPG,ISIC_0001126.JPG,false,0,keypress(z),500,632333.5,632333.4000000954,627466.715,627468.7999997139,627483.242,632342.715,8,400,44,,ISIC_2266011.JPG
break,html.Screen,4_93_1,2023-09-12T00:44:41.300Z,,0,,,NaN,,,,,,false,,,,632333.9000000954,632333.9000000954,,632333.5999999046,,632342.715,8,400,,,
break_continue,html.Screen,4_93_2,2023-09-12T00:44:41.300Z,,0,,,NaN,,,,,,false,,,,632334.0999999046,632334,,632334,,632342.715,8,400,,,
sequence,flow.Sequence,4_93,2023-09-12T00:44:41.300Z,,0,,,4850.758000000031,completion,,,,,false,,,,632334.0999999046,632334,627466.715,627468.7999997139,627483.242,632342.715,8,400,,,
trial,html.Screen,4_94_0,2023-09-12T00:44:46.825Z,,0,2,,5516.58499971393,response,ISIC_0071901.JPG,5,ISIC_0056409.JPG,ISIC_0071901.JPG,false,1,keypress(m),500,637859.4000000954,637859.2999997139,632326.288,632334.1999998093,632342.715,637870.205,8,400,45,,ISIC_0056409.JPG
break,html.Screen,4_94_1,2023-09-12T00:44:46.826Z,,0,,,NaN,,,,,,false,,,,637860,637859.7999997139,,637859.5,,637870.205,8,400,,,
break_continue,html.Screen,4_94_2,2023-09-12T00:44:46.826Z,,0,,,NaN,,,,,,false,,,,637860.4000000954,637860.2999997139,,637860.0999999046,,637870.205,8,400,,,
sequence,flow.Sequence,4_94,2023-09-12T00:44:46.826Z,,0,,,5517.58499971393,completion,,,,,false,,,,637860.5,637860.2999997139,632326.288,632334.1999998093,632342.715,637870.205,8,400,,,
trial,html.Screen,4_95_0,2023-09-12T00:44:51.357Z,,0,2,,4520.09499971394,response,ISIC_0360988.JPG,5,ISIC_5157799.JPG,ISIC_5157799.JPG,false,0,keypress(z),500,642390.4000000954,642390.2999997139,637853.539,637860.5,637870.205,642395.664,8,400,46,,ISIC_0360988.JPG
break,html.Screen,4_95_1,2023-09-12T00:44:51.357Z,,0,,,NaN,,,,,,false,,,,642390.7999997139,642390.6999998093,,642390.5,,642395.664,8,400,,,
break_continue,html.Screen,4_95_2,2023-09-12T00:44:51.357Z,,0,,,NaN,,,,,,false,,,,642390.9000000954,642390.9000000954,,642390.9000000954,,642395.664,8,400,,,
sequence,flow.Sequence,4_95,2023-09-12T00:44:51.357Z,,0,,,4520.695000095409,completion,,,,,false,,,,642391.0999999046,642390.9000000954,637853.539,637860.5,637870.205,642395.664,8,400,,,
trial,html.Screen,4_96_0,2023-09-12T00:44:57.359Z,,0,2,,5996.635999713908,response,ISIC_0062935.JPG,4,ISIC_0014541.JPG,ISIC_0014541.JPG,false,0,keypress(z),500,648392.5,648392.2999997139,642378.94,642391.0999999046,642395.664,648407.395,8,400,47,,ISIC_0062935.JPG
break,html.Screen,4_96_1,2023-09-12T00:44:57.359Z,,0,,,NaN,,,,,,false,,,,648393.1999998093,648393,,648392.5999999046,,648407.395,8,400,,,
break_continue,html.Screen,4_96_2,2023-09-12T00:44:57.360Z,,0,,,NaN,,,,,,false,,,,648393.5,648393.4000000954,,648393.2999997139,,648407.395,8,400,,,
sequence,flow.Sequence,4_96,2023-09-12T00:44:57.360Z,,0,,,5997.736000095378,completion,,,,,false,,,,648393.5999999046,648393.4000000954,642378.94,642391.0999999046,642395.664,648407.395,8,400,,,
trial,html.Screen,4_97_0,2023-09-12T00:45:04.629Z,,0,2,,7254.904999713879,response,ISIC_3892947.JPG,6,ISIC_5568834.JPG,ISIC_3892947.JPG,false,1,keypress(m),500,655662.4000000954,655662.2999997139,648390.695,648393.6999998093,648407.395,655671.451,8,400,48,,ISIC_5568834.JPG
break,html.Screen,4_97_1,2023-09-12T00:45:04.629Z,,0,,,NaN,,,,,,false,,,,655662.7999997139,655662.6999998093,,655662.5,,655671.451,8,400,,,
break_continue,html.Screen,4_97_2,2023-09-12T00:45:04.629Z,,0,,,NaN,,,,,,false,,,,655663,655663,,655662.9000000954,,655671.451,8,400,,,
sequence,flow.Sequence,4_97,2023-09-12T00:45:04.629Z,,0,,,7255.604999999981,completion,,,,,false,,,,655663.0999999046,655663,648390.695,648393.6999998093,648407.395,655671.451,8,400,,,
trial,html.Screen,4_98_0,2023-09-12T00:45:09.579Z,,0,2,,4941.248999809264,response,ISIC_1077375.JPG,5,ISIC_9965754.JPG,ISIC_1077375.JPG,false,1,keypress(m),500,660612.9000000954,660612.6999998093,655654.946,655663.0999999046,655671.451,660614.416,8,400,49,,ISIC_9965754.JPG
break,html.Screen,4_98_1,2023-09-12T00:45:09.580Z,,0,,,NaN,,,,,,false,,,,660613.5,660613.4000000954,,660613.0999999046,,660614.416,8,400,,,
break_continue,html.Screen,4_98_2,2023-09-12T00:45:09.580Z,,0,,,NaN,,,,,,false,,,,660613.9000000954,660613.7999997139,,660613.6999998093,,660614.416,8,400,,,
sequence,flow.Sequence,4_98,2023-09-12T00:45:09.580Z,,0,,,4942.348999713897,completion,,,,,false,,,,660614,660613.7999997139,655654.946,655663.0999999046,655671.451,660614.416,8,400,,,
trial,html.Screen,4_99_0,2023-09-12T00:45:14.452Z,,0,2,,4870.883999713929,response,ISIC_4032636.JPG,5,ISIC_1413120.JPG,ISIC_1413120.JPG,false,0,keypress(z),500,665485.4000000954,665485.2999997139,660597.824,660614,660614.416,665490.684,8,400,50,,ISIC_4032636.JPG
break,html.Screen,4_99_1,2023-09-12T00:45:24.445Z,,0,,,10002.896999999997,timeout,,,,,false,,,,675478.5999999046,675476.817,665473.994,665485.5,665490.684,675493.581,8,400,,,
break_continue,html.Screen,4_99_2,2023-09-12T00:45:24.965Z,,0,,,497.11899980925955,response,,,,,false,continue,keypress(Space),,675998.9000000954,675990.6999998093,675476.817,675478.9000000954,675493.581,676011.197,8,400,,,
sequence,flow.Sequence,4_99,2023-09-12T00:45:24.965Z,,0,,,15376.283999809297,completion,,,,,false,,,,675999.0999999046,675990.6999998093,660597.824,660614,660614.416,676011.197,8,400,,,
trial,html.Screen,4_100_0,2023-09-12T00:45:29.704Z,,0,3,,4726.102999713854,response,ISIC_2400177.JPG,5,ISIC_3520750.JPG,ISIC_3520750.JPG,false,0,keypress(z),500,680737.4000000954,680737.2999997139,675994.43,675999.0999999046,676011.197,680753.725,8,400,1,,ISIC_2400177.JPG
break,html.Screen,4_100_1,2023-09-12T00:45:29.704Z,,0,,,NaN,,,,,,false,,,,680738,680737.7999997139,,680737.5999999046,,680753.725,8,400,,,
break_continue,html.Screen,4_100_2,2023-09-12T00:45:29.704Z,,0,,,NaN,,,,,,false,,,,680738.1999998093,680738.0999999046,,680738,,680753.725,8,400,,,
sequence,flow.Sequence,4_100,2023-09-12T00:45:29.704Z,,0,,,4726.902999904589,completion,,,,,false,,,,680738.1999998093,680738.0999999046,675994.43,675999.0999999046,676011.197,680753.725,8,400,,,
trial,html.Screen,4_101_0,2023-09-12T00:45:33.790Z,,0,3,,4069.9749998092884,response,ISIC_0033687.JPG,5,ISIC_5722914.JPG,ISIC_0033687.JPG,false,1,keypress(m),500,684823.7999997139,684823.6999998093,680737.078,680738.2999997139,680753.725,684828.217,8,400,2,,ISIC_5722914.JPG
break,html.Screen,4_101_1,2023-09-12T00:45:33.791Z,,0,,,NaN,,,,,,false,,,,684824.2999997139,684824.0999999046,,684823.9000000954,,684828.217,8,400,,,
break_continue,html.Screen,4_101_2,2023-09-12T00:45:33.791Z,,0,,,NaN,,,,,,false,,,,684824.6999998093,684824.5999999046,,684824.5,,684828.217,8,400,,,
sequence,flow.Sequence,4_101,2023-09-12T00:45:33.791Z,,0,,,4070.874999904656,completion,,,,,false,,,,684824.7999997139,684824.5999999046,680737.078,680738.2999997139,680753.725,684828.217,8,400,,,
trial,html.Screen,4_102_0,2023-09-12T00:45:38.816Z,,0,3,,5021.482999809319,response,ISIC_0031325.JPG,5,ISIC_6737771.JPG,ISIC_0031325.JPG,false,1,keypress(m),500,689849.7999997139,689849.6999998093,684811.621,684824.7999997139,684828.217,689854.622,8,400,3,,ISIC_6737771.JPG
break,html.Screen,4_102_1,2023-09-12T00:45:38.816Z,,0,,,NaN,,,,,,false,,,,689850.1999998093,689850.0999999046,,689849.9000000954,,689854.622,8,400,,,
break_continue,html.Screen,4_102_2,2023-09-12T00:45:38.817Z,,0,,,NaN,,,,,,false,,,,689850.4000000954,689850.4000000954,,689850.1999998093,,689854.622,8,400,,,
sequence,flow.Sequence,4_102,2023-09-12T00:45:38.817Z,,0,,,5022.183000095421,completion,,,,,false,,,,689850.5,689850.4000000954,684811.621,684824.7999997139,684828.217,689854.622,8,400,,,
trial,html.Screen,4_103_0,2023-09-12T00:45:44.117Z,,0,3,,5296.077999809291,response,ISIC_0032637.JPG,4,ISIC_0014745.JPG,ISIC_0014745.JPG,false,0,keypress(z),500,695150.9000000954,695150.6999998093,689838.069,689850.5,689854.622,695165.036,8,400,4,,ISIC_0032637.JPG
break,html.Screen,4_103_1,2023-09-12T00:45:44.118Z,,0,,,NaN,,,,,,false,,,,695151.6999998093,695151.5,,695151.0999999046,,695165.036,8,400,,,
break_continue,html.Screen,4_103_2,2023-09-12T00:45:44.118Z,,0,,,NaN,,,,,,false,,,,695152,695151.9000000954,,695151.7999997139,,695165.036,8,400,,,
sequence,flow.Sequence,4_103,2023-09-12T00:45:44.118Z,,0,,,5297.2780000953935,completion,,,,,false,,,,695152.1999998093,695151.9000000954,689838.069,689850.5,689854.622,695165.036,8,400,,,
trial,html.Screen,4_104_0,2023-09-12T00:45:48.489Z,,0,3,,4357.1639998093015,response,ISIC_3335505.JPG,5,ISIC_5897799.JPG,ISIC_5897799.JPG,false,0,keypress(z),500,699522.2999997139,699522.1999998093,695148.366,695152.1999998093,695165.036,699523.428,8,400,5,,ISIC_3335505.JPG
break,html.Screen,4_104_1,2023-09-12T00:45:48.489Z,,0,,,NaN,,,,,,false,,,,699522.7999997139,699522.6999998093,,699522.4000000954,,699523.428,8,400,,,
break_continue,html.Screen,4_104_2,2023-09-12T00:45:48.489Z,,0,,,NaN,,,,,,false,,,,699523.0999999046,699522.9000000954,,699522.7999997139,,699523.428,8,400,,,
sequence,flow.Sequence,4_104,2023-09-12T00:45:48.489Z,,0,,,4357.864000095404,completion,,,,,false,,,,699523.1999998093,699522.9000000954,695148.366,695152.1999998093,695165.036,699523.428,8,400,,,
trial,html.Screen,4_105_0,2023-09-12T00:45:52.812Z,,0,3,,4321.671999904676,response,ISIC_0865706.JPG,5,ISIC_9667297.JPG,ISIC_9667297.JPG,false,0,keypress(z),500,703845.1999998093,703845.0999999046,699506.892,699523.1999998093,699523.428,703848.522,8,400,6,,ISIC_0865706.JPG
break,html.Screen,4_105_1,2023-09-12T00:45:52.812Z,,0,,,NaN,,,,,,false,,,,703845.6999998093,703845.5999999046,,703845.2999997139,,703848.522,8,400,,,
break_continue,html.Screen,4_105_2,2023-09-12T00:45:52.812Z,,0,,,NaN,,,,,,false,,,,703845.9000000954,703845.7999997139,,703845.7999997139,,703848.522,8,400,,,
sequence,flow.Sequence,4_105,2023-09-12T00:45:52.813Z,,0,,,4322.3719997139415,completion,,,,,false,,,,703846,703845.7999997139,699506.892,699523.1999998093,699523.428,703848.522,8,400,,,
trial,html.Screen,4_106_0,2023-09-12T00:45:58.545Z,,0,3,,5729.478000000003,response,ISIC_0015110.JPG,5,ISIC_4606646.JPG,ISIC_0015110.JPG,false,1,keypress(m),500,709578.0999999046,709578,703831.894,703846.0999999046,703848.522,709593.07,8,400,7,,ISIC_4606646.JPG
break,html.Screen,4_106_1,2023-09-12T00:45:58.545Z,,0,,,NaN,,,,,,false,,,,709578.5999999046,709578.5,,709578.1999998093,,709593.07,8,400,,,
break_continue,html.Screen,4_106_2,2023-09-12T00:45:58.545Z,,0,,,NaN,,,,,,false,,,,709578.7999997139,709578.6999998093,,709578.5999999046,,709593.07,8,400,,,
sequence,flow.Sequence,4_106,2023-09-12T00:45:58.545Z,,0,,,5730.177999809268,completion,,,,,false,,,,709578.7999997139,709578.6999998093,703831.894,703846.0999999046,703848.522,709593.07,8,400,,,
trial,html.Screen,4_107_0,2023-09-12T00:46:03.283Z,,0,3,,4723.330000095419,response,ISIC_0028326.JPG,5,ISIC_0028065.JPG,ISIC_0028065.JPG,false,0,keypress(z),500,714316.5,714316.4000000954,709576.417,709578.7999997139,709593.07,714318.938,8,400,8,,ISIC_0028326.JPG
break,html.Screen,4_107_1,2023-09-12T00:46:03.284Z,,0,,,NaN,,,,,,false,,,,714317.2999997139,714317,,714316.6999998093,,714318.938,8,400,,,
break_continue,html.Screen,4_107_2,2023-09-12T00:46:03.284Z,,0,,,NaN,,,,,,false,,,,714317.6999998093,714317.5999999046,,714317.4000000954,,714318.938,8,400,,,
sequence,flow.Sequence,4_107,2023-09-12T00:46:03.284Z,,0,,,4724.529999904684,completion,,,,,false,,,,714317.6999998093,714317.5999999046,709576.417,709578.7999997139,709593.07,714318.938,8,400,,,
trial,html.Screen,4_108_0,2023-09-12T00:46:09.351Z,,0,3,,6065.0620000000345,response,ISIC_0030135.JPG,4,ISIC_0026103.JPG,ISIC_0030135.JPG,false,1,keypress(m),500,720384.1999998093,720384,714302.349,714317.7999997139,714318.938,720397.429,8,400,9,,ISIC_0026103.JPG
break,html.Screen,4_108_1,2023-09-12T00:46:09.351Z,,0,,,NaN,,,,,,false,,,,720384.9000000954,720384.6999998093,,720384.4000000954,,720397.429,8,400,,,
break_continue,html.Screen,4_108_2,2023-09-12T00:46:09.352Z,,0,,,NaN,,,,,,false,,,,720385.1999998093,720385.0999999046,,720385,,720397.429,8,400,,,
sequence,flow.Sequence,4_108,2023-09-12T00:46:09.352Z,,0,,,6066.161999904667,completion,,,,,false,,,,720385.2999997139,720385.0999999046,714302.349,714317.7999997139,714318.938,720397.429,8,400,,,
trial,html.Screen,4_109_0,2023-09-12T00:46:14.137Z,,0,3,,4772.870999713894,response,ISIC_7582818.JPG,4,ISIC_1352841.JPG,ISIC_1352841.JPG,false,0,keypress(z),500,725170.4000000954,725170.2999997139,720380.824,720385.2999997139,720397.429,725173.41,8,400,10,,ISIC_7582818.JPG
break,html.Screen,4_109_1,2023-09-12T00:46:14.137Z,,0,,,NaN,,,,,,false,,,,725170.7999997139,725170.7999997139,,725170.5,,725173.41,8,400,,,
break_continue,html.Screen,4_109_2,2023-09-12T00:46:14.138Z,,0,,,NaN,,,,,,false,,,,725171.0999999046,725171,,725170.9000000954,,725173.41,8,400,,,
sequence,flow.Sequence,4_109,2023-09-12T00:46:14.138Z,,0,,,4773.570999999996,completion,,,,,false,,,,725171.0999999046,725171,720380.824,720385.2999997139,720397.429,725173.41,8,400,,,
trial,html.Screen,4_110_0,2023-09-12T00:46:19.836Z,,0,3,,5695.7899998092325,response,ISIC_0033148.JPG,5,ISIC_0029296.JPG,ISIC_0029296.JPG,false,0,keypress(z),500,730869.4000000954,730869.1999998093,725156.779,725171.1999998093,725173.41,730884.485,8,400,11,,ISIC_0033148.JPG
break,html.Screen,4_110_1,2023-09-12T00:46:19.837Z,,0,,,NaN,,,,,,false,,,,730870.1999998093,730869.7999997139,,730869.5,,730884.485,8,400,,,
break_continue,html.Screen,4_110_2,2023-09-12T00:46:19.837Z,,0,,,NaN,,,,,,false,,,,730870.4000000954,730870.4000000954,,730870.1999998093,,730884.485,8,400,,,
sequence,flow.Sequence,4_110,2023-09-12T00:46:19.837Z,,0,,,5696.990000095335,completion,,,,,false,,,,730870.5999999046,730870.4000000954,725156.779,725171.1999998093,725173.41,730884.485,8,400,,,
trial,html.Screen,4_111_0,2023-09-12T00:46:24.686Z,,0,3,,4835.1149999046465,response,ISIC_1962845.JPG,5,ISIC_0070092.JPG,ISIC_0070092.JPG,false,0,keypress(z),500,735719.7999997139,735719.5999999046,730867.95,730870.6999998093,730884.485,735727.239,8,400,12,,ISIC_1962845.JPG
break,html.Screen,4_111_1,2023-09-12T00:46:24.687Z,,0,,,NaN,,,,,,false,,,,735720.2999997139,735720.1999998093,,735719.9000000954,,735727.239,8,400,,,
break_continue,html.Screen,4_111_2,2023-09-12T00:46:24.687Z,,0,,,NaN,,,,,,false,,,,735720.5,735720.4000000954,,735720.2999997139,,735727.239,8,400,,,
sequence,flow.Sequence,4_111,2023-09-12T00:46:24.687Z,,0,,,4835.915000095381,completion,,,,,false,,,,735720.6999998093,735720.4000000954,730867.95,730870.5999999046,730884.485,735727.239,8,400,,,
trial,html.Screen,4_112_0,2023-09-12T00:46:29.700Z,,0,3,,5005.960999809322,response,ISIC_4629662.JPG,5,ISIC_5769654.JPG,ISIC_5769654.JPG,false,0,keypress(z),500,740733.2999997139,740733.1999998093,735710.651,735720.6999998093,735727.239,740753.695,8,400,13,,ISIC_4629662.JPG
break,html.Screen,4_112_1,2023-09-12T00:46:29.700Z,,0,,,NaN,,,,,,false,,,,740733.7999997139,740733.6999998093,,740733.5,,740753.695,8,400,,,
break_continue,html.Screen,4_112_2,2023-09-12T00:46:29.700Z,,0,,,NaN,,,,,,false,,,,740733.9000000954,740733.7999997139,,740733.7999997139,,740753.695,8,400,,,
sequence,flow.Sequence,4_112,2023-09-12T00:46:29.701Z,,0,,,5006.5609997139545,completion,,,,,false,,,,740734,740733.7999997139,735710.651,735720.6999998093,735727.239,740753.695,8,400,,,
trial,html.Screen,4_113_0,2023-09-12T00:46:34.374Z,,0,3,,4653.705000095419,response,ISIC_0033729.JPG,4,ISIC_0028969.JPG,ISIC_0028969.JPG,false,0,keypress(z),500,745407.4000000954,745407.4000000954,740737.004,740734.0999999046,740753.695,745412.841,8,400,14,,ISIC_0033729.JPG
break,html.Screen,4_113_1,2023-09-12T00:46:34.374Z,,0,,,NaN,,,,,,false,,,,745407.9000000954,745407.6999998093,,745407.5999999046,,745412.841,8,400,,,
break_continue,html.Screen,4_113_2,2023-09-12T00:46:34.375Z,,0,,,NaN,,,,,,false,,,,745408.0999999046,745408,,745407.9000000954,,745412.841,8,400,,,
sequence,flow.Sequence,4_113,2023-09-12T00:46:34.375Z,,0,,,4654.305000000051,completion,,,,,false,,,,745408.0999999046,745408,740737.004,740734.0999999046,740753.695,745412.841,8,400,,,
trial,html.Screen,4_114_0,2023-09-12T00:46:38.921Z,,0,3,,4541.658999999985,response,ISIC_5202231.JPG,5,ISIC_0055759.JPG,ISIC_0055759.JPG,false,0,keypress(z),500,749954.6999998093,749954.5,745396.261,745408.1999998093,745412.841,749971.646,8,400,15,,ISIC_5202231.JPG
break,html.Screen,4_114_1,2023-09-12T00:46:38.923Z,,0,,,NaN,,,,,,false,,,,749956,749955.5999999046,,749954.9000000954,,749971.646,8,400,,,
break_continue,html.Screen,4_114_2,2023-09-12T00:46:38.923Z,,0,,,NaN,,,,,,false,,,,749956.5,749956.4000000954,,749956.1999998093,,749971.646,8,400,,,
sequence,flow.Sequence,4_114,2023-09-12T00:46:38.923Z,,0,,,4543.5590000953525,completion,,,,,false,,,,749956.9000000954,749956.4000000954,745396.261,745408.0999999046,745412.841,749971.646,8,400,,,
trial,html.Screen,4_115_0,2023-09-12T00:46:43.326Z,,0,3,,4388.053999809315,response,ISIC_8504479.JPG,5,ISIC_0064557.JPG,ISIC_0064557.JPG,false,0,keypress(z),500,754359.9000000954,754359.6999998093,749955.146,749957,749971.646,754363.562,8,400,16,,ISIC_8504479.JPG
break,html.Screen,4_115_1,2023-09-12T00:46:43.327Z,,0,,,NaN,,,,,,false,,,,754360.2999997139,754360.1999998093,,754360,,754363.562,8,400,,,
break_continue,html.Screen,4_115_2,2023-09-12T00:46:43.327Z,,0,,,NaN,,,,,,false,,,,754360.5999999046,754360.5,,754360.2999997139,,754363.562,8,400,,,
sequence,flow.Sequence,4_115,2023-09-12T00:46:43.327Z,,0,,,4388.85400000005,completion,,,,,false,,,,754360.5999999046,754360.5,749955.146,749956.9000000954,749971.646,754363.562,8,400,,,
trial,html.Screen,4_116_0,2023-09-12T00:46:49.632Z,,0,3,,6301.9379999999655,response,ISIC_4708642.JPG,4,ISIC_0060222.JPG,ISIC_0060222.JPG,false,0,keypress(z),500,760665.6999998093,760665.5,754346.944,754360.5999999046,754363.562,760675.873,8,400,17,,ISIC_4708642.JPG
break,html.Screen,4_116_1,2023-09-12T00:46:49.633Z,,0,,,NaN,,,,,,false,,,,760666.5999999046,760666.2999997139,,760665.9000000954,,760675.873,8,400,,,
break_continue,html.Screen,4_116_2,2023-09-12T00:46:49.634Z,,0,,,NaN,,,,,,false,,,,760667,760666.9000000954,,760666.6999998093,,760675.873,8,400,,,
sequence,flow.Sequence,4_116,2023-09-12T00:46:49.634Z,,0,,,6303.338000095333,completion,,,,,false,,,,760667.1999998093,760666.9000000954,754346.944,754360.5999999046,754363.562,760675.873,8,400,,,
trial,html.Screen,4_117_0,2023-09-12T00:46:55.174Z,,0,3,,5530.626999999979,response,ISIC_9303594.JPG,5,ISIC_4308751.JPG,ISIC_4308751.JPG,false,0,keypress(z),500,766206.7999997139,766206.5,760659.239,760667.4000000954,760675.873,766219.932,8,400,18,,ISIC_9303594.JPG
break,html.Screen,4_117_1,2023-09-12T00:46:55.175Z,,0,,,NaN,,,,,,false,,,,766208.1999998093,766207.6999998093,,766207,,766219.932,8,400,,,
break_continue,html.Screen,4_117_2,2023-09-12T00:46:55.176Z,,0,,,NaN,,,,,,false,,,,766209.0999999046,766209,,766208.5999999046,,766219.932,8,400,,,
sequence,flow.Sequence,4_117,2023-09-12T00:46:55.176Z,,0,,,5533.126999999979,completion,,,,,false,,,,766209.5999999046,766209,760659.239,760667.2999997139,760675.873,766219.932,8,400,,,
trial,html.Screen,4_118_0,2023-09-12T00:46:59.626Z,,0,3,,4439.56799999997,response,ISIC_2690597.JPG,5,ISIC_3923443.JPG,ISIC_3923443.JPG,false,0,keypress(z),500,770659.5999999046,770659.5,766203.411,766209.9000000954,766219.932,770678.62,8,400,19,,ISIC_2690597.JPG
break,html.Screen,4_118_1,2023-09-12T00:46:59.627Z,,0,,,NaN,,,,,,false,,,,770660,770660,,770659.7999997139,,770678.62,8,400,,,
break_continue,html.Screen,4_118_2,2023-09-12T00:46:59.627Z,,0,,,NaN,,,,,,false,,,,770660.2999997139,770660.1999998093,,770660.0999999046,,770678.62,8,400,,,
sequence,flow.Sequence,4_118,2023-09-12T00:46:59.627Z,,0,,,4440.267999809235,completion,,,,,false,,,,770660.4000000954,770660.1999998093,766203.411,766209.7999997139,766219.932,770678.62,8,400,,,
trial,html.Screen,4_119_0,2023-09-12T00:47:04.863Z,,0,3,,5216.979999904637,response,ISIC_0011350.JPG,5,ISIC_2211136.JPG,ISIC_2211136.JPG,false,0,keypress(z),500,775895.6999998093,775895.5999999046,770661.988,770660.4000000954,770678.62,775905.487,8,400,20,,ISIC_0011350.JPG
break,html.Screen,4_119_1,2023-09-12T00:47:04.863Z,,0,,,NaN,,,,,,false,,,,775896.4000000954,775896.0999999046,,775895.7999997139,,775905.487,8,400,,,
break_continue,html.Screen,4_119_2,2023-09-12T00:47:04.864Z,,0,,,NaN,,,,,,false,,,,775896.7999997139,775896.6999998093,,775896.5999999046,,775905.487,8,400,,,
sequence,flow.Sequence,4_119,2023-09-12T00:47:04.864Z,,0,,,5218.07999980927,completion,,,,,false,,,,775896.9000000954,775896.6999998093,770661.988,770660.4000000954,770678.62,775905.487,8,400,,,
trial,html.Screen,4_120_0,2023-09-12T00:47:10.209Z,,0,3,,5336.7129998093005,response,ISIC_0247197.JPG,5,ISIC_4718237.JPG,ISIC_0247197.JPG,false,1,keypress(m),500,781242.5999999046,781242.1999998093,775888.856,775897,775905.487,781249.166,8,400,21,,ISIC_4718237.JPG
break,html.Screen,4_120_1,2023-09-12T00:47:10.210Z,,0,,,NaN,,,,,,false,,,,781243.5999999046,781243.1999998093,,781242.7999997139,,781249.166,8,400,,,
break_continue,html.Screen,4_120_2,2023-09-12T00:47:10.211Z,,0,,,NaN,,,,,,false,,,,781243.9000000954,781243.7999997139,,781243.5999999046,,781249.166,8,400,,,
sequence,flow.Sequence,4_120,2023-09-12T00:47:10.211Z,,0,,,5338.312999713933,completion,,,,,false,,,,781244.0999999046,781243.7999997139,775888.856,775896.9000000954,775905.487,781249.166,8,400,,,
trial,html.Screen,4_121_0,2023-09-12T00:47:15.270Z,,0,3,,5054.033999809297,response,ISIC_9929097.JPG,5,ISIC_5951430.JPG,ISIC_5951430.JPG,false,0,keypress(z),500,786303.4000000954,786303.1999998093,781232.481,781244.0999999046,781249.166,786309.053,8,400,22,,ISIC_9929097.JPG
break,html.Screen,4_121_1,2023-09-12T00:47:15.271Z,,0,,,NaN,,,,,,false,,,,786303.9000000954,786303.7999997139,,786303.5,,786309.053,8,400,,,
break_continue,html.Screen,4_121_2,2023-09-12T00:47:15.271Z,,0,,,NaN,,,,,,false,,,,786304.1999998093,786304.0999999046,,786304,,786309.053,8,400,,,
sequence,flow.Sequence,4_121,2023-09-12T00:47:15.271Z,,0,,,5054.933999904664,completion,,,,,false,,,,786304.2999997139,786304.0999999046,781232.481,781244.0999999046,781249.166,786309.053,8,400,,,
trial,html.Screen,4_122_0,2023-09-12T00:47:19.723Z,,0,3,,4447.046999904676,response,ISIC_5837098.JPG,5,ISIC_0027836.JPG,ISIC_5837098.JPG,false,1,keypress(m),500,790756.1999998093,790756.0999999046,786292.524,786304.2999997139,786309.053,790767.773,8,400,23,,ISIC_0027836.JPG
break,html.Screen,4_122_1,2023-09-12T00:47:19.724Z,,0,,,NaN,,,,,,false,,,,790756.9000000954,790756.5999999046,,790756.4000000954,,790767.773,8,400,,,
break_continue,html.Screen,4_122_2,2023-09-12T00:47:19.724Z,,0,,,NaN,,,,,,false,,,,790757.1999998093,790757.0999999046,,790757,,790767.773,8,400,,,
sequence,flow.Sequence,4_122,2023-09-12T00:47:19.724Z,,0,,,4448.046999904676,completion,,,,,false,,,,790757.2999997139,790757.0999999046,786292.524,786304.2999997139,786309.053,790767.773,8,400,,,
trial,html.Screen,4_123_0,2023-09-12T00:47:24.607Z,,0,3,,4871.826999904588,response,ISIC_0011702.JPG,6,ISIC_3824206.JPG,ISIC_0011702.JPG,false,1,keypress(m),500,795639.6999998093,795639.5999999046,790751.075,790757.4000000954,790767.773,795643.858,8,400,24,,ISIC_3824206.JPG
break,html.Screen,4_123_1,2023-09-12T00:47:24.607Z,,0,,,NaN,,,,,,false,,,,795640.2999997139,795640,,795639.7999997139,,795643.858,8,400,,,
break_continue,html.Screen,4_123_2,2023-09-12T00:47:24.607Z,,0,,,NaN,,,,,,false,,,,795640.5999999046,795640.5,,795640.2999997139,,795643.858,8,400,,,
sequence,flow.Sequence,4_123,2023-09-12T00:47:24.607Z,,0,,,4872.726999999955,completion,,,,,false,,,,795640.6999998093,795640.5,790751.075,790757.2999997139,790767.773,795643.858,8,400,,,
trial,html.Screen,4_124_0,2023-09-12T00:47:29.097Z,,0,3,,4486.54200009536,response,ISIC_6734679.JPG,6,ISIC_3205354.JPG,ISIC_3205354.JPG,false,0,keypress(z),500,800130.5,800130.4000000954,795627.233,795640.6999998093,795643.858,800135.943,8,400,25,,ISIC_6734679.JPG
break,html.Screen,4_124_1,2023-09-12T00:47:29.098Z,,0,,,NaN,,,,,,false,,,,800131.1999998093,800131,,800130.6999998093,,800135.943,8,400,,,
break_continue,html.Screen,4_124_2,2023-09-12T00:47:29.098Z,,0,,,NaN,,,,,,false,,,,800131.5,800131.4000000954,,800131.2999997139,,800135.943,8,400,,,
sequence,flow.Sequence,4_124,2023-09-12T00:47:29.098Z,,0,,,4487.54200009536,completion,,,,,false,,,,800131.6999998093,800131.4000000954,795627.233,795640.6999998093,795643.858,800135.943,8,400,,,
trial,html.Screen,4_125_0,2023-09-12T00:47:34.236Z,,0,3,,5132.8569997139275,response,ISIC_5273029.JPG,5,ISIC_0024277.JPG,ISIC_0024277.JPG,false,0,keypress(z),500,805268.9000000954,805268.7999997139,800119.357,800131.7999997139,800135.943,805279.378,8,400,26,,ISIC_5273029.JPG
break,html.Screen,4_125_1,2023-09-12T00:47:34.236Z,,0,,,NaN,,,,,,false,,,,805269.2999997139,805269.2999997139,,805269,,805279.378,8,400,,,
break_continue,html.Screen,4_125_2,2023-09-12T00:47:34.236Z,,0,,,NaN,,,,,,false,,,,805269.5,805269.4000000954,,805269.4000000954,,805279.378,8,400,,,
