sender,sender_type,sender_id,timestamp,meta,,blockNo,condition,duration,ended_on,img_left,img_reveal,img_right,loser,practice,response,response_action,selection_duration,time_commit,time_end,time_render,time_run,time_show,time_switch,total_blocks,total_trials,trialNo,url,winner
informed_consent,html.Screen,0,2023-09-09T16:05:21.223Z,"{""labjs_version"":""20.2.4"",""labjs_build"":{""flavor"":""development"",""commit"":""f5b4a49f956347addd546a832a3327688c2c0fef""},""location"":""https://labjs.felixhenninger.com/api/labjs_preview/index.html"",""userAgent"":""Mozilla/5.0 (Windows NT 10.0; Win64; x64) AppleWebKit/537.36 (KHTML, like Gecko) Chrome/116.0.0.0 Safari/537.36"",""platform"":""Win32"",""language"":""en-AU"",""locale"":""en-US"",""timeZone"":""America/Chicago"",""timezoneOffset"":300,""screen_width"":1680,""screen_height"":1050,""scroll_width"":1296,""scroll_height"":688,""window_innerWidth"":1296,""window_innerHeight"":736,""devicePixelRatio"":1}",,,,20911.7510002861,response,,,,,,consent,click button,,21523,21514.700000286102,586.222,602.2000002861023,602.949,21543.798,,,,{},
Welcome,html.Screen,1,2023-09-09T16:05:31.396Z,,,,symmetry,10150.902000286103,response,,,,,,continue,click button,,31695.200000286102,31694.700000286102,21527,21523.200000286102,21543.798,31713.512,,,,,
trial,html.Screen,2_0_0,2023-09-09T16:05:38.167Z,,0,0,,6752.388000095369,response,ISIC_0069348.JPG,,ISIC_6997061.JPG,ISIC_6997061.JPG,true,0,keypress(z),500,38466.10000038147,38465.90000009537,31696.77,31695.300000190735,31713.512,38476.709,1,6,1,,ISIC_0069348.JPG
sequence,flow.Sequence,2_0,2023-09-09T16:05:38.167Z,,0,,,6752.388000095369,completion,,,,,true,,,,38466.300000190735,38465.90000009537,31696.77,31695.300000190735,31713.512,38476.709,1,6,,,
trial,html.Screen,2_1_0,2023-09-09T16:05:40.861Z,,0,0,,2683.2909999999974,response,ISIC_0009529.JPG,,ISIC_0057368.JPG,ISIC_0057368.JPG,true,0,keypress(z),500,41160.10000038147,41160,38459.918,38466.300000190735,38476.709,41165.353,1,6,2,,ISIC_0009529.JPG
sequence,flow.Sequence,2_1,2023-09-09T16:05:40.861Z,,0,,,2683.2909999999974,completion,,,,,true,,,,41160.300000190735,41160,38459.918,38466.300000190735,38476.709,41165.353,1,6,,,
trial,html.Screen,2_2_0,2023-09-09T16:05:43.454Z,,0,0,,2588.447000190732,response,ISIC_9758671.JPG,,ISIC_0064954.JPG,ISIC_0064954.JPG,true,0,keypress(z),500,43754,43753.800000190735,41148.677,41160.40000009537,41165.353,43770.374,1,6,3,,ISIC_9758671.JPG
sequence,flow.Sequence,2_2,2023-09-09T16:05:43.455Z,,0,,,2588.447000190732,completion,,,,,true,,,,43754.40000009537,43753.800000190735,41148.677,41160.300000190735,41165.353,43770.374,1,6,,,
trial,html.Screen,2_3_0,2023-09-09T16:05:45.921Z,,0,0,,2450.1259999999966,response,ISIC_0000080.JPG,,ISIC_0005785.JPG,ISIC_0005785.JPG,true,0,keypress(z),500,46220.60000038147,46220.5,43753.568,43754.7000002861,43770.374,46225.057,1,6,4,,ISIC_0000080.JPG
sequence,flow.Sequence,2_3,2023-09-09T16:05:45.921Z,,0,,,2450.1259999999966,completion,,,,,true,,,,46220.90000009537,46220.5,43753.568,43754.7000002861,43770.374,46225.057,1,6,,,
trial,html.Screen,2_4_0,2023-09-09T16:05:48.354Z,,0,0,,2428.543000381469,response,ISIC_7944028.JPG,,ISIC_5390060.JPG,ISIC_5390060.JPG,true,0,keypress(z),500,48653.7000002861,48653.60000038147,46208.31,46221,46225.057,48663.196,1,6,5,,ISIC_7944028.JPG
sequence,flow.Sequence,2_4,2023-09-09T16:05:48.354Z,,0,,,2428.543000381469,completion,,,,,true,,,,48653.90000009537,48653.60000038147,46208.31,46221,46225.057,48663.196,1,6,,,
trial,html.Screen,2_5_0,2023-09-09T16:05:50.885Z,,0,0,,2521.1040001907313,response,ISIC_0010188.JPG,,ISIC_0794216.JPG,ISIC_0794216.JPG,true,0,keypress(z),500,51184.5,51184.300000190735,48646.476,48654,48663.196,51201.482,1,6,6,,ISIC_0010188.JPG
sequence,flow.Sequence,2_5,2023-09-09T16:05:50.885Z,,0,,,2521.1040001907313,completion,,,,,true,,,,51185,51184.300000190735,48646.476,48654,48663.196,51201.482,1,6,,,
loop,flow.Loop,2,2023-09-09T16:05:50.886Z,,,,,19470.788000190736,completion,,,,,true,,,,51185.2000002861,51184.300000190735,31696.77,31695.300000190735,31713.512,51201.482,1,6,,,
exp_instructions,html.Screen,3,2023-09-09T16:06:28.774Z,,,,,37870.018,response,,,,,,continue,keypress(Space),,89072,89071.5,51184.866,51185.40000009537,51201.482,89091.774,,,,,
trial,html.Screen,4_0_0,2023-09-09T16:06:31.675Z,,0,1,,2880.826000381465,response,ISIC_0031709.JPG,5,ISIC_9646599.JPG,ISIC_0031709.JPG,false,1,keypress(m),500,91972.90000009537,91972.60000038147,89075.074,89072,89091.774,91980.729,8,400,1,,ISIC_9646599.JPG
break,html.Screen,4_0_1,2023-09-09T16:06:31.675Z,,0,,,NaN,,,,,,false,,,,91973.60000038147,91973.40000009537,,91973,,91980.729,8,400,,,
break_continue,html.Screen,4_0_2,2023-09-09T16:06:31.676Z,,0,,,NaN,,,,,,false,,,,91973.90000009537,91973.80000019073,,91973.7000002861,,91980.729,8,400,,,
sequence,flow.Sequence,4_0,2023-09-09T16:06:31.676Z,,0,,,2882.02600019073,completion,,,,,false,,,,91973.90000009537,91973.80000019073,89075.074,89072,89091.774,91980.729,8,400,,,
trial,html.Screen,4_1_0,2023-09-09T16:06:37.245Z,,0,1,,5562.371000381463,response,ISIC_7724635.JPG,4,ISIC_0484171.JPG,ISIC_7724635.JPG,false,1,keypress(m),500,97543.40000009537,97543.10000038147,91964.065,91974,91980.729,97558.326,8,400,2,,ISIC_0484171.JPG
break,html.Screen,4_1_1,2023-09-09T16:06:37.246Z,,0,,,NaN,,,,,,false,,,,97544.2000002861,97543.90000009537,,97543.5,,97558.326,8,400,,,
break_continue,html.Screen,4_1_2,2023-09-09T16:06:37.246Z,,0,,,NaN,,,,,,false,,,,97544.60000038147,97544.5,,97544.40000009537,,97558.326,8,400,,,
sequence,flow.Sequence,4_1,2023-09-09T16:06:37.246Z,,0,,,5563.770999999993,completion,,,,,false,,,,97544.7000002861,97544.5,91964.065,91974,91980.729,97558.326,8,400,,,
trial,html.Screen,4_2_0,2023-09-09T16:06:44.032Z,,0,1,,6771.673999999999,response,ISIC_0068696.JPG,5,ISIC_8692950.JPG,ISIC_0068696.JPG,false,1,keypress(m),500,104330.10000038147,104330,97541.612,97544.80000019073,97558.326,104338.231,8,400,3,,ISIC_8692950.JPG
break,html.Screen,4_2_1,2023-09-09T16:06:44.032Z,,0,,,NaN,,,,,,false,,,,104330.60000038147,104330.40000009537,,104330.2000002861,,104338.231,8,400,,,
break_continue,html.Screen,4_2_2,2023-09-09T16:06:44.032Z,,0,,,NaN,,,,,,false,,,,104330.80000019073,104330.7000002861,,104330.60000038147,,104338.231,8,400,,,
sequence,flow.Sequence,4_2,2023-09-09T16:06:44.033Z,,0,,,6772.374000286101,completion,,,,,false,,,,104330.90000009537,104330.7000002861,97541.612,97544.80000019073,97558.326,104338.231,8,400,,,
trial,html.Screen,4_3_0,2023-09-09T16:06:51.155Z,,0,1,,7114.86900038147,response,ISIC_0011343.JPG,5,ISIC_8150108.JPG,ISIC_0011343.JPG,false,1,keypress(m),500,111453.30000019073,111453.10000038147,104321.498,104331,104338.231,111468.697,8,400,4,,ISIC_8150108.JPG
break,html.Screen,4_3_1,2023-09-09T16:06:51.156Z,,0,,,NaN,,,,,,false,,,,111454,111453.90000009537,,111453.5,,111468.697,8,400,,,
break_continue,html.Screen,4_3_2,2023-09-09T16:06:51.156Z,,0,,,NaN,,,,,,false,,,,111454.40000009537,111454.30000019073,,111454.2000002861,,111468.697,8,400,,,
sequence,flow.Sequence,4_3,2023-09-09T16:06:51.156Z,,0,,,7116.069000190735,completion,,,,,false,,,,111454.60000038147,111454.30000019073,104321.498,104330.90000009537,104338.231,111468.697,8,400,,,
trial,html.Screen,4_4_0,2023-09-09T16:06:59.046Z,,0,1,,7875.90300038147,response,ISIC_2741583.JPG,5,ISIC_1264725.JPG,ISIC_2741583.JPG,false,1,keypress(m),500,119344.7000002861,119344.60000038147,111451.965,111454.7000002861,111468.697,119350.664,8,400,5,,ISIC_1264725.JPG
break,html.Screen,4_4_1,2023-09-09T16:06:59.047Z,,0,,,NaN,,,,,,false,,,,119345.40000009537,119345.2000002861,,119344.80000019073,,119350.664,8,400,,,
break_continue,html.Screen,4_4_2,2023-09-09T16:06:59.047Z,,0,,,NaN,,,,,,false,,,,119345.7000002861,119345.7000002861,,119345.5,,119350.664,8,400,,,
sequence,flow.Sequence,4_4,2023-09-09T16:06:59.047Z,,0,,,7877.003000286102,completion,,,,,false,,,,119345.90000009537,119345.7000002861,111451.965,111454.7000002861,111468.697,119350.664,8,400,,,
trial,html.Screen,4_5_0,2023-09-09T16:07:06.379Z,,0,1,,7325.335999999996,response,ISIC_0061184.JPG,5,ISIC_6517852.JPG,ISIC_0061184.JPG,false,1,keypress(m),500,126676.10000038147,126676,119334.072,119345.90000009537,119350.664,126681.575,8,400,6,,ISIC_6517852.JPG
break,html.Screen,4_5_1,2023-09-09T16:07:06.379Z,,0,,,NaN,,,,,,false,,,,126676.7000002861,126676.60000038147,,126676.30000019073,,126681.575,8,400,,,
break_continue,html.Screen,4_5_2,2023-09-09T16:07:06.380Z,,0,,,NaN,,,,,,false,,,,126676.90000009537,126676.90000009537,,126676.80000019073,,126681.575,8,400,,,
sequence,flow.Sequence,4_5,2023-09-09T16:07:06.380Z,,0,,,7326.236000095363,completion,,,,,false,,,,126676.90000009537,126676.90000009537,119334.072,119345.90000009537,119350.664,126681.575,8,400,,,
trial,html.Screen,4_6_0,2023-09-09T16:07:13.181Z,,0,1,,6796.425000000003,response,ISIC_2046891.JPG,5,ISIC_0011086.JPG,ISIC_0011086.JPG,false,0,keypress(z),500,133478.2000002861,133478,126664.932,126677,126681.575,133494.874,8,400,7,,ISIC_2046891.JPG
break,html.Screen,4_6_1,2023-09-09T16:07:13.182Z,,0,,,NaN,,,,,,false,,,,133478.90000009537,133478.7000002861,,133478.30000019073,,133494.874,8,400,,,
break_continue,html.Screen,4_6_2,2023-09-09T16:07:13.182Z,,0,,,NaN,,,,,,false,,,,133479.10000038147,133479.10000038147,,133479,,133494.874,8,400,,,
sequence,flow.Sequence,4_6,2023-09-09T16:07:13.182Z,,0,,,6797.525000381473,completion,,,,,false,,,,133479.2000002861,133479.10000038147,126664.932,126677,126681.575,133494.874,8,400,,,
trial,html.Screen,4_7_0,2023-09-09T16:07:20.032Z,,0,1,,6834.125999999989,response,ISIC_0064033.JPG,5,ISIC_0063692.JPG,ISIC_0063692.JPG,false,0,keypress(z),500,140329.10000038147,140329,133478.225,133479.40000009537,133494.874,140341.682,8,400,8,,ISIC_0064033.JPG
break,html.Screen,4_7_1,2023-09-09T16:07:20.032Z,,0,,,NaN,,,,,,false,,,,140329.7000002861,140329.5,,140329.2000002861,,140341.682,8,400,,,
break_continue,html.Screen,4_7_2,2023-09-09T16:07:20.033Z,,0,,,NaN,,,,,,false,,,,140330,140330,,140329.80000019073,,140341.682,8,400,,,
sequence,flow.Sequence,4_7,2023-09-09T16:07:20.033Z,,0,,,6835.125999999989,completion,,,,,false,,,,140330.2000002861,140330,133478.225,133479.40000009537,133494.874,140341.682,8,400,,,
trial,html.Screen,4_8_0,2023-09-09T16:07:29.218Z,,0,1,,9173.318,response,ISIC_0027556.JPG,6,ISIC_9048840.JPG,ISIC_9048840.JPG,false,0,keypress(z),500,149515.2000002861,149515,140325.074,140330.2000002861,140341.682,149526.107,8,400,9,,ISIC_0027556.JPG
break,html.Screen,4_8_1,2023-09-09T16:07:29.219Z,,0,,,NaN,,,,,,false,,,,149516,149515.80000019073,,149515.40000009537,,149526.107,8,400,,,
break_continue,html.Screen,4_8_2,2023-09-09T16:07:29.219Z,,0,,,NaN,,,,,,false,,,,149516.30000019073,149516.30000019073,,149516.10000038147,,149526.107,8,400,,,
sequence,flow.Sequence,4_8,2023-09-09T16:07:29.219Z,,0,,,9174.618000190734,completion,,,,,false,,,,149516.5,149516.30000019073,140325.074,140330.2000002861,140341.682,149526.107,8,400,,,
trial,html.Screen,4_9_0,2023-09-09T16:07:35.016Z,,0,1,,5787.293000095378,response,ISIC_4343552.JPG,5,ISIC_0015015.JPG,ISIC_0015015.JPG,false,0,keypress(z),500,155313.5,155313.40000009537,149509.45,149516.5,149526.107,155320.663,8,400,10,,ISIC_4343552.JPG
break,html.Screen,4_9_1,2023-09-09T16:07:35.017Z,,0,,,NaN,,,,,,false,,,,155314.30000019073,155314.10000038147,,155313.7000002861,,155320.663,8,400,,,
break_continue,html.Screen,4_9_2,2023-09-09T16:07:35.017Z,,0,,,NaN,,,,,,false,,,,155314.60000038147,155314.5,,155314.40000009537,,155320.663,8,400,,,
sequence,flow.Sequence,4_9,2023-09-09T16:07:35.017Z,,0,,,5788.393000000011,completion,,,,,false,,,,155314.7000002861,155314.5,149509.45,149516.5,149526.107,155320.663,8,400,,,
trial,html.Screen,4_10_0,2023-09-09T16:07:42.490Z,,0,1,,7466.737000095367,response,ISIC_0024661.JPG,6,ISIC_0011728.JPG,ISIC_0011728.JPG,false,0,keypress(z),500,162787.5,162787.40000009537,155304.096,155314.7000002861,155320.663,162801.988,8,400,11,,ISIC_0024661.JPG
break,html.Screen,4_10_1,2023-09-09T16:07:42.491Z,,0,,,NaN,,,,,,false,,,,162788,162787.90000009537,,162787.60000038147,,162801.988,8,400,,,
break_continue,html.Screen,4_10_2,2023-09-09T16:07:42.491Z,,0,,,NaN,,,,,,false,,,,162788.10000038147,162788.10000038147,,162788,,162801.988,8,400,,,
sequence,flow.Sequence,4_10,2023-09-09T16:07:42.491Z,,0,,,7467.437000381469,completion,,,,,false,,,,162788.10000038147,162788.10000038147,155304.096,155314.7000002861,155320.663,162801.988,8,400,,,
trial,html.Screen,4_11_0,2023-09-09T16:07:48.700Z,,0,1,,6195.011999999988,response,ISIC_0011665.JPG,5,ISIC_1579745.JPG,ISIC_0011665.JPG,false,1,keypress(m),500,168997.10000038147,168997,162785.243,162788.2000002861,162801.988,169014.081,8,400,12,,ISIC_1579745.JPG
break,html.Screen,4_11_1,2023-09-09T16:07:48.700Z,,0,,,NaN,,,,,,false,,,,168997.7000002861,168997.5,,168997.30000019073,,169014.081,8,400,,,
break_continue,html.Screen,4_11_2,2023-09-09T16:07:48.701Z,,0,,,NaN,,,,,,false,,,,168997.90000009537,168997.80000019073,,168997.7000002861,,169014.081,8,400,,,
sequence,flow.Sequence,4_11,2023-09-09T16:07:48.701Z,,0,,,6195.812000190723,completion,,,,,false,,,,168998,168997.80000019073,162785.243,162788.2000002861,162801.988,169014.081,8,400,,,
trial,html.Screen,4_12_0,2023-09-09T16:07:55.461Z,,0,1,,6743.418999999994,response,ISIC_3767325.JPG,6,ISIC_1761083.JPG,ISIC_1761083.JPG,false,0,keypress(z),500,175757.90000009537,175757.5,168997.349,168998,169014.081,175760.5,8,400,13,,ISIC_3767325.JPG
break,html.Screen,4_12_1,2023-09-09T16:07:55.462Z,,0,,,NaN,,,,,,false,,,,175759.30000019073,175759,,175758.2000002861,,175760.5,8,400,,,
break_continue,html.Screen,4_12_2,2023-09-09T16:07:55.463Z,,0,,,NaN,,,,,,false,,,,175759.80000019073,175759.7000002861,,175759.5,,175760.5,8,400,,,
sequence,flow.Sequence,4_12,2023-09-09T16:07:55.463Z,,0,,,6745.619000286097,completion,,,,,false,,,,175760.10000038147,175759.7000002861,168997.349,168998,169014.081,175760.5,8,400,,,
trial,html.Screen,4_13_0,2023-09-09T16:08:01.817Z,,0,1,,6354,response,ISIC_8979567.JPG,5,ISIC_0063445.JPG,ISIC_8979567.JPG,false,1,keypress(m),500,182114.7000002861,182114.5,175743.933,175760.2000002861,175760.5,182122.822,8,400,14,,ISIC_0063445.JPG
break,html.Screen,4_13_1,2023-09-09T16:08:01.818Z,,0,,,NaN,,,,,,false,,,,182115.30000019073,182115.10000038147,,182114.7000002861,,182122.822,8,400,,,
break_continue,html.Screen,4_13_2,2023-09-09T16:08:01.818Z,,0,,,NaN,,,,,,false,,,,182115.7000002861,182115.60000038147,,182115.5,,182122.822,8,400,,,
sequence,flow.Sequence,4_13,2023-09-09T16:08:01.818Z,,0,,,6355.10000038147,completion,,,,,false,,,,182115.7000002861,182115.60000038147,175743.933,175760.10000038147,175760.5,182122.822,8,400,,,
trial,html.Screen,4_14_0,2023-09-09T16:08:09.180Z,,0,1,,7353.478000190749,response,ISIC_0054292.JPG,5,ISIC_0013491.JPG,ISIC_0054292.JPG,false,1,keypress(m),500,189476.5,189476.30000019073,182106.109,182115.80000019073,182122.822,189487.288,8,400,15,,ISIC_0013491.JPG
break,html.Screen,4_14_1,2023-09-09T16:08:09.181Z,,0,,,NaN,,,,,,false,,,,189477,189476.80000019073,,189476.60000038147,,189487.288,8,400,,,
break_continue,html.Screen,4_14_2,2023-09-09T16:08:09.181Z,,0,,,NaN,,,,,,false,,,,189477.2000002861,189477.10000038147,,189477,,189487.288,8,400,,,
sequence,flow.Sequence,4_14,2023-09-09T16:08:09.181Z,,0,,,7354.278000381484,completion,,,,,false,,,,189477.30000019073,189477.10000038147,182106.109,182115.80000019073,182122.822,189487.288,8,400,,,
trial,html.Screen,4_15_0,2023-09-09T16:08:13.937Z,,0,1,,4745.612000095367,response,ISIC_0011073.JPG,6,ISIC_1264725.JPG,ISIC_0011073.JPG,false,1,keypress(m),500,194233,194232.90000009537,189470.466,189477.30000019073,189487.288,194246.528,8,400,16,,ISIC_1264725.JPG
break,html.Screen,4_15_1,2023-09-09T16:08:13.937Z,,0,,,NaN,,,,,,false,,,,194233.40000009537,194233.30000019073,,194233,,194246.528,8,400,,,
break_continue,html.Screen,4_15_2,2023-09-09T16:08:13.937Z,,0,,,NaN,,,,,,false,,,,194233.5,194233.5,,194233.5,,194246.528,8,400,,,
sequence,flow.Sequence,4_15,2023-09-09T16:08:13.937Z,,0,,,4746.2119999999995,completion,,,,,false,,,,194233.7000002861,194233.5,189470.466,189477.30000019073,189487.288,194246.528,8,400,,,
trial,html.Screen,4_16_0,2023-09-09T16:08:19.878Z,,0,1,,5927.872000095376,response,ISIC_0011446.JPG,4,ISIC_0030653.JPG,ISIC_0030653.JPG,false,0,keypress(z),500,200174.60000038147,200174.40000009537,194229.733,194233.7000002861,194246.528,200191.408,8,400,17,,ISIC_0011446.JPG
break,html.Screen,4_16_1,2023-09-09T16:08:19.879Z,,0,,,NaN,,,,,,false,,,,200175.2000002861,200175.10000038147,,200174.80000019073,,200191.408,8,400,,,
break_continue,html.Screen,4_16_2,2023-09-09T16:08:19.879Z,,0,,,NaN,,,,,,false,,,,200175.40000009537,200175.30000019073,,200175.2000002861,,200191.408,8,400,,,
sequence,flow.Sequence,4_16,2023-09-09T16:08:19.879Z,,0,,,5928.772000190744,completion,,,,,false,,,,200175.5,200175.30000019073,194229.733,194233.7000002861,194246.528,200191.408,8,400,,,
trial,html.Screen,4_17_0,2023-09-09T16:08:27.817Z,,0,1,,7922.092000000004,response,ISIC_0063190.JPG,6,ISIC_1533305.JPG,ISIC_0063190.JPG,false,1,keypress(m),500,208113.60000038147,208113.5,200174.881,200175.60000038147,200191.408,208123.48,8,400,18,,ISIC_1533305.JPG
break,html.Screen,4_17_1,2023-09-09T16:08:27.818Z,,0,,,NaN,,,,,,false,,,,208114.10000038147,208114,,208113.7000002861,,208123.48,8,400,,,
break_continue,html.Screen,4_17_2,2023-09-09T16:08:27.818Z,,0,,,NaN,,,,,,false,,,,208114.5,208114.40000009537,,208114.30000019073,,208123.48,8,400,,,
sequence,flow.Sequence,4_17,2023-09-09T16:08:27.818Z,,0,,,7922.992000095372,completion,,,,,false,,,,208114.60000038147,208114.40000009537,200174.881,200175.60000038147,200191.408,208123.48,8,400,,,
trial,html.Screen,4_18_0,2023-09-09T16:08:32.700Z,,0,1,,4872.820000190724,response,ISIC_9384835.JPG,5,ISIC_0010978.JPG,ISIC_0010978.JPG,false,0,keypress(z),500,212996.5,212996.30000019073,208106.821,208114.7000002861,208123.48,212999.594,8,400,19,,ISIC_9384835.JPG
break,html.Screen,4_18_1,2023-09-09T16:08:32.701Z,,0,,,NaN,,,,,,false,,,,212997.2000002861,212997,,212996.60000038147,,212999.594,8,400,,,
break_continue,html.Screen,4_18_2,2023-09-09T16:08:32.701Z,,0,,,NaN,,,,,,false,,,,212997.5,212997.5,,212997.40000009537,,212999.594,8,400,,,
sequence,flow.Sequence,4_18,2023-09-09T16:08:32.701Z,,0,,,4874.0199999999895,completion,,,,,false,,,,212997.60000038147,212997.5,208106.821,208114.7000002861,208123.48,212999.594,8,400,,,
trial,html.Screen,4_19_0,2023-09-09T16:08:39.823Z,,0,1,,7119.905999999988,response,ISIC_0011799.JPG,4,ISIC_0069204.JPG,ISIC_0069204.JPG,false,0,keypress(z),500,220119.60000038147,220119.5,212982.99,212997.60000038147,212999.594,220130.225,8,400,20,,ISIC_0011799.JPG
break,html.Screen,4_19_1,2023-09-09T16:08:39.824Z,,0,,,NaN,,,,,,false,,,,220120,220119.90000009537,,220119.7000002861,,220130.225,8,400,,,
break_continue,html.Screen,4_19_2,2023-09-09T16:08:39.824Z,,0,,,NaN,,,,,,false,,,,220120.2000002861,220120.10000038147,,220120.10000038147,,220130.225,8,400,,,
sequence,flow.Sequence,4_19,2023-09-09T16:08:39.824Z,,0,,,7120.506000381458,completion,,,,,false,,,,220120.30000019073,220120.10000038147,212982.99,212997.60000038147,212999.594,220130.225,8,400,,,
trial,html.Screen,4_20_0,2023-09-09T16:08:45.427Z,,0,1,,5593.375000381464,response,ISIC_5377977.JPG,5,ISIC_0065062.JPG,ISIC_0065062.JPG,false,0,keypress(z),500,225723.60000038147,225723.60000038147,220113.511,220120.30000019073,220130.225,225724.335,8,400,21,,ISIC_5377977.JPG
break,html.Screen,4_20_1,2023-09-09T16:08:45.428Z,,0,,,NaN,,,,,,false,,,,225724.10000038147,225724,,225723.80000019073,,225724.335,8,400,,,
break_continue,html.Screen,4_20_2,2023-09-09T16:08:45.428Z,,0,,,NaN,,,,,,false,,,,225724.30000019073,225724.30000019073,,225724.10000038147,,225724.335,8,400,,,
sequence,flow.Sequence,4_20,2023-09-09T16:08:45.428Z,,0,,,5594.075000190729,completion,,,,,false,,,,225724.60000038147,225724.30000019073,220113.511,220120.30000019073,220130.225,225724.335,8,400,,,
trial,html.Screen,4_21_0,2023-09-09T16:08:54.117Z,,0,1,,8689.165000000008,response,ISIC_0068528.JPG,5,ISIC_0031034.JPG,ISIC_0031034.JPG,false,0,keypress(z),500,234413.7000002861,234413.5,225707.739,225724.80000019073,225724.335,234424.703,8,400,22,,ISIC_0068528.JPG
break,html.Screen,4_21_1,2023-09-09T16:08:54.118Z,,0,,,NaN,,,,,,false,,,,234414.2000002861,234414,,234413.7000002861,,234424.703,8,400,,,
break_continue,html.Screen,4_21_2,2023-09-09T16:08:54.118Z,,0,,,NaN,,,,,,false,,,,234414.60000038147,234414.60000038147,,234414.40000009537,,234424.703,8,400,,,
sequence,flow.Sequence,4_21,2023-09-09T16:08:54.118Z,,0,,,8690.265000381478,completion,,,,,false,,,,234414.7000002861,234414.60000038147,225707.739,225724.7000002861,225724.335,234424.703,8,400,,,
trial,html.Screen,4_22_0,2023-09-09T16:08:59.738Z,,0,1,,5608.997000286094,response,ISIC_2853290.JPG,5,ISIC_0924902.JPG,ISIC_0924902.JPG,false,0,keypress(z),500,240033.90000009537,240033.7000002861,234407.968,234414.80000019073,234424.703,240035.53,8,400,23,,ISIC_2853290.JPG
break,html.Screen,4_22_1,2023-09-09T16:08:59.738Z,,0,,,NaN,,,,,,false,,,,240034.5,240034.30000019073,,240034,,240035.53,8,400,,,
break_continue,html.Screen,4_22_2,2023-09-09T16:08:59.739Z,,0,,,NaN,,,,,,false,,,,240034.80000019073,240034.80000019073,,240034.60000038147,,240035.53,8,400,,,
sequence,flow.Sequence,4_22,2023-09-09T16:08:59.739Z,,0,,,5610.097000190726,completion,,,,,false,,,,240035,240034.80000019073,234407.968,234414.7000002861,234424.703,240035.53,8,400,,,
trial,html.Screen,4_23_0,2023-09-09T16:09:05.325Z,,0,1,,5584.470000000001,response,ISIC_0072828.JPG,6,ISIC_0484171.JPG,ISIC_0072828.JPG,false,1,keypress(m),500,245620.10000038147,245620,240018.811,240035,240035.53,245629.822,8,400,24,,ISIC_0484171.JPG
break,html.Screen,4_23_1,2023-09-09T16:09:05.325Z,,0,,,NaN,,,,,,false,,,,245620.60000038147,245620.5,,245620.2000002861,,245629.822,8,400,,,
break_continue,html.Screen,4_23_2,2023-09-09T16:09:05.326Z,,0,,,NaN,,,,,,false,,,,245620.80000019073,245620.7000002861,,245620.7000002861,,245629.822,8,400,,,
sequence,flow.Sequence,4_23,2023-09-09T16:09:05.326Z,,0,,,5585.1700002861035,completion,,,,,false,,,,245620.90000009537,245620.7000002861,240018.811,240035,240035.53,245629.822,8,400,,,
trial,html.Screen,4_24_0,2023-09-09T16:09:10.435Z,,0,1,,5100.178000000014,response,ISIC_0012069.JPG,4,ISIC_0027901.JPG,ISIC_0012069.JPG,false,1,keypress(m),500,250730.2000002861,250730,245613.231,245621,245629.822,250739.794,8,400,25,,ISIC_0027901.JPG
break,html.Screen,4_24_1,2023-09-09T16:09:10.435Z,,0,,,NaN,,,,,,false,,,,250730.5,250730.5,,250730.2000002861,,250739.794,8,400,,,
break_continue,html.Screen,4_24_2,2023-09-09T16:09:10.435Z,,0,,,NaN,,,,,,false,,,,250730.7000002861,250730.60000038147,,250730.5,,250739.794,8,400,,,
sequence,flow.Sequence,4_24,2023-09-09T16:09:10.435Z,,0,,,5100.778000381484,completion,,,,,false,,,,250730.7000002861,250730.60000038147,245613.231,245621,245629.822,250739.794,8,400,,,
trial,html.Screen,4_25_0,2023-09-09T16:09:16.282Z,,0,1,,5837.406000286108,response,ISIC_0029094.JPG,5,ISIC_0031953.JPG,ISIC_0029094.JPG,false,1,keypress(m),500,256577.40000009537,256577.2000002861,250723.113,250730.80000019073,250739.794,256584.369,8,400,26,,ISIC_0031953.JPG
break,html.Screen,4_25_1,2023-09-09T16:09:16.283Z,,0,,,NaN,,,,,,false,,,,256578.10000038147,256577.90000009537,,256577.60000038147,,256584.369,8,400,,,
break_continue,html.Screen,4_25_2,2023-09-09T16:09:16.283Z,,0,,,NaN,,,,,,false,,,,256578.5,256578.5,,256578.30000019073,,256584.369,8,400,,,
sequence,flow.Sequence,4_25,2023-09-09T16:09:16.283Z,,0,,,5838.706000000006,completion,,,,,false,,,,256578.7000002861,256578.5,250723.113,250730.80000019073,250739.794,256584.369,8,400,,,
trial,html.Screen,4_26_0,2023-09-09T16:09:21.873Z,,0,1,,5583.630999999994,response,ISIC_0011922.JPG,5,ISIC_6777714.JPG,ISIC_0011922.JPG,false,1,keypress(m),500,262168.10000038147,262168,256567.712,256578.7000002861,256584.369,262178.701,8,400,27,,ISIC_6777714.JPG
break,html.Screen,4_26_1,2023-09-09T16:09:21.873Z,,0,,,NaN,,,,,,false,,,,262168.5,262168.40000009537,,262168.10000038147,,262178.701,8,400,,,
break_continue,html.Screen,4_26_2,2023-09-09T16:09:21.873Z,,0,,,NaN,,,,,,false,,,,262168.7000002861,262168.60000038147,,262168.60000038147,,262178.701,8,400,,,
sequence,flow.Sequence,4_26,2023-09-09T16:09:21.873Z,,0,,,5584.231000381464,completion,,,,,false,,,,262168.7000002861,262168.60000038147,256567.712,256578.7000002861,256584.369,262178.701,8,400,,,
trial,html.Screen,4_27_0,2023-09-09T16:09:28.658Z,,0,1,,6774.798999999999,response,ISIC_0027067.JPG,4,ISIC_0070419.JPG,ISIC_0070419.JPG,false,0,keypress(z),500,268953.60000038147,268953.5,262161.94,262168.80000019073,262178.701,268958.538,8,400,28,,ISIC_0027067.JPG
break,html.Screen,4_27_1,2023-09-09T16:09:28.659Z,,0,,,NaN,,,,,,false,,,,268954.10000038147,268954,,268953.7000002861,,268958.538,8,400,,,
break_continue,html.Screen,4_27_2,2023-09-09T16:09:28.659Z,,0,,,NaN,,,,,,false,,,,268954.30000019073,268954.30000019073,,268954.10000038147,,268958.538,8,400,,,
sequence,flow.Sequence,4_27,2023-09-09T16:09:28.659Z,,0,,,6775.599000190734,completion,,,,,false,,,,268954.40000009537,268954.30000019073,262161.94,262168.80000019073,262178.701,268958.538,8,400,,,
trial,html.Screen,4_28_0,2023-09-09T16:09:34.166Z,,0,1,,5502.4619999999995,response,ISIC_7412559.JPG,4,ISIC_5702591.JPG,ISIC_5702591.JPG,false,0,keypress(z),500,274461.2000002861,274461,268941.789,268954.40000009537,268958.538,274469.223,8,400,29,,ISIC_7412559.JPG
break,html.Screen,4_28_1,2023-09-09T16:09:34.167Z,,0,,,NaN,,,,,,false,,,,274462,274461.80000019073,,274461.40000009537,,274469.223,8,400,,,
break_continue,html.Screen,4_28_2,2023-09-09T16:09:34.167Z,,0,,,NaN,,,,,,false,,,,274462.30000019073,274462.30000019073,,274462.2000002861,,274469.223,8,400,,,
sequence,flow.Sequence,4_28,2023-09-09T16:09:34.167Z,,0,,,5503.762000190734,completion,,,,,false,,,,274462.40000009537,274462.30000019073,268941.789,268954.40000009537,268958.538,274469.223,8,400,,,
trial,html.Screen,4_29_0,2023-09-09T16:09:40.105Z,,0,1,,5931.077000190737,response,ISIC_0029017.JPG,5,ISIC_0033416.JPG,ISIC_0033416.JPG,false,0,keypress(z),500,280400.5,280400.30000019073,274452.555,274462.5,274469.223,280414.179,8,400,30,,ISIC_0029017.JPG
break,html.Screen,4_29_1,2023-09-09T16:09:40.106Z,,0,,,NaN,,,,,,false,,,,280401.5,280401.30000019073,,280400.7000002861,,280414.179,8,400,,,
break_continue,html.Screen,4_29_2,2023-09-09T16:09:40.107Z,,0,,,NaN,,,,,,false,,,,280402,280401.90000009537,,280401.7000002861,,280414.179,8,400,,,
sequence,flow.Sequence,4_29,2023-09-09T16:09:40.107Z,,0,,,5932.677000095369,completion,,,,,false,,,,280402.2000002861,280401.90000009537,274452.555,274462.5,274469.223,280414.179,8,400,,,
trial,html.Screen,4_30_0,2023-09-09T16:09:46.542Z,,0,1,,6422.921000381466,response,ISIC_0031295.JPG,5,ISIC_7961365.JPG,ISIC_0031295.JPG,false,1,keypress(m),500,286837.40000009537,286837.10000038147,280397.415,280402.30000019073,280414.179,286843.301,8,400,31,,ISIC_7961365.JPG
break,html.Screen,4_30_1,2023-09-09T16:09:46.543Z,,0,,,NaN,,,,,,false,,,,286838.10000038147,286838,,286837.60000038147,,286843.301,8,400,,,
break_continue,html.Screen,4_30_2,2023-09-09T16:09:46.543Z,,0,,,NaN,,,,,,false,,,,286838.40000009537,286838.30000019073,,286838.2000002861,,286843.301,8,400,,,
sequence,flow.Sequence,4_30,2023-09-09T16:09:46.543Z,,0,,,6424.121000190731,completion,,,,,false,,,,286838.5,286838.30000019073,280397.415,280402.30000019073,280414.179,286843.301,8,400,,,
trial,html.Screen,4_31_0,2023-09-09T16:09:51.506Z,,0,1,,4957.59900009539,response,ISIC_8655206.JPG,5,ISIC_9364350.JPG,ISIC_9364350.JPG,false,0,keypress(z),500,291801.10000038147,291800.90000009537,286826.597,286838.5,286843.301,291802.945,8,400,32,,ISIC_8655206.JPG
break,html.Screen,4_31_1,2023-09-09T16:09:51.506Z,,0,,,NaN,,,,,,false,,,,291801.5,291801.40000009537,,291801.2000002861,,291802.945,8,400,,,
break_continue,html.Screen,4_31_2,2023-09-09T16:09:51.506Z,,0,,,NaN,,,,,,false,,,,291801.7000002861,291801.7000002861,,291801.60000038147,,291802.945,8,400,,,
sequence,flow.Sequence,4_31,2023-09-09T16:09:51.507Z,,0,,,4958.399000286125,completion,,,,,false,,,,291801.80000019073,291801.7000002861,286826.597,286838.5,286843.301,291802.945,8,400,,,
trial,html.Screen,4_32_0,2023-09-09T16:09:56.116Z,,0,1,,4607.855000190728,response,ISIC_0059983.JPG,5,ISIC_5966190.JPG,ISIC_0059983.JPG,false,1,keypress(m),500,296410.90000009537,296410.80000019073,291786.246,291801.90000009537,291802.945,296411.916,8,400,33,,ISIC_5966190.JPG
break,html.Screen,4_32_1,2023-09-09T16:09:56.116Z,,0,,,NaN,,,,,,false,,,,296411.30000019073,296411.2000002861,,296411,,296411.916,8,400,,,
break_continue,html.Screen,4_32_2,2023-09-09T16:09:56.116Z,,0,,,NaN,,,,,,false,,,,296411.5,296411.40000009537,,296411.40000009537,,296411.916,8,400,,,
sequence,flow.Sequence,4_32,2023-09-09T16:09:56.116Z,,0,,,4608.45500009536,completion,,,,,false,,,,296411.5,296411.40000009537,291786.246,291801.80000019073,291802.945,296411.916,8,400,,,
trial,html.Screen,4_33_0,2023-09-09T16:10:02.924Z,,0,1,,6807.5839999999735,response,ISIC_0030512.JPG,5,ISIC_0066470.JPG,ISIC_0030512.JPG,false,1,keypress(m),500,303219.60000038147,303219.5,296395.206,296411.60000038147,296411.916,303225.155,8,400,34,,ISIC_0066470.JPG
break,html.Screen,4_33_1,2023-09-09T16:10:02.925Z,,0,,,NaN,,,,,,false,,,,303220.10000038147,303220,,303219.7000002861,,303225.155,8,400,,,
break_continue,html.Screen,4_33_2,2023-09-09T16:10:02.925Z,,0,,,NaN,,,,,,false,,,,303220.30000019073,303220.2000002861,,303220.10000038147,,303225.155,8,400,,,
sequence,flow.Sequence,4_33,2023-09-09T16:10:02.925Z,,0,,,6808.284000286076,completion,,,,,false,,,,303220.40000009537,303220.2000002861,296395.206,296411.60000038147,296411.916,303225.155,8,400,,,
trial,html.Screen,4_34_0,2023-09-09T16:10:08.148Z,,0,1,,5217.045000286074,response,ISIC_4728200.JPG,5,ISIC_0062517.JPG,ISIC_0062517.JPG,false,0,keypress(z),500,308442.30000019073,308442.2000002861,303208.635,303220.40000009537,303225.155,308452.085,8,400,35,,ISIC_4728200.JPG
break,html.Screen,4_34_1,2023-09-09T16:10:08.148Z,,0,,,NaN,,,,,,false,,,,308442.7000002861,308442.60000038147,,308442.40000009537,,308452.085,8,400,,,
break_continue,html.Screen,4_34_2,2023-09-09T16:10:08.149Z,,0,,,NaN,,,,,,false,,,,308442.90000009537,308442.90000009537,,308442.80000019073,,308452.085,8,400,,,
sequence,flow.Sequence,4_34,2023-09-09T16:10:08.149Z,,0,,,5217.7450000953395,completion,,,,,false,,,,308442.90000009537,308442.90000009537,303208.635,303220.40000009537,303225.155,308452.085,8,400,,,
trial,html.Screen,4_35_0,2023-09-09T16:10:16.439Z,,0,1,,8280.414999999979,response,ISIC_6027459.JPG,5,ISIC_3378691.JPG,ISIC_3378691.JPG,false,0,keypress(z),500,316732.90000009537,316732.5,308435.347,308443,308452.085,316734.86,8,400,36,,ISIC_6027459.JPG
break,html.Screen,4_35_1,2023-09-09T16:10:16.440Z,,0,,,NaN,,,,,,false,,,,316734.5,316734,,316733.2000002861,,316734.86,8,400,,,
break_continue,html.Screen,4_35_2,2023-09-09T16:10:16.442Z,,0,,,NaN,,,,,,false,,,,316735.90000009537,316735.5,,316734.80000019073,,316734.86,8,400,,,
sequence,flow.Sequence,4_35,2023-09-09T16:10:16.442Z,,0,,,8283.414999999979,completion,,,,,false,,,,316736.2000002861,316735.5,308435.347,308443,308452.085,316734.86,8,400,,,
trial,html.Screen,4_36_0,2023-09-09T16:10:23.788Z,,0,1,,7347.640000000014,response,ISIC_0033016.JPG,5,ISIC_7811951.JPG,ISIC_0033016.JPG,false,1,keypress(m),500,324082.7000002861,324082.5,316718.166,316736.40000009537,316734.86,324099.14,8,400,37,,ISIC_7811951.JPG
break,html.Screen,4_36_1,2023-09-09T16:10:23.789Z,,0,,,NaN,,,,,,false,,,,324083.5,324083.2000002861,,324082.90000009537,,324099.14,8,400,,,
break_continue,html.Screen,4_36_2,2023-09-09T16:10:23.790Z,,0,,,NaN,,,,,,false,,,,324084,324083.80000019073,,324083.60000038147,,324099.14,8,400,,,
sequence,flow.Sequence,4_36,2023-09-09T16:10:23.790Z,,0,,,7348.940000190749,completion,,,,,false,,,,324084.2000002861,324083.80000019073,316718.166,316736.40000009537,316734.86,324099.14,8,400,,,
trial,html.Screen,4_37_0,2023-09-09T16:10:29.008Z,,0,1,,5202.660000190721,response,ISIC_0012678.JPG,5,ISIC_0032490.JPG,ISIC_0032490.JPG,false,0,keypress(z),500,329302,329301.80000019073,324082.465,324084.30000019073,324099.14,329309.32,8,400,38,,ISIC_0012678.JPG
break,html.Screen,4_37_1,2023-09-09T16:10:29.008Z,,0,,,NaN,,,,,,false,,,,329302.5,329302.30000019073,,329302.10000038147,,329309.32,8,400,,,
break_continue,html.Screen,4_37_2,2023-09-09T16:10:29.009Z,,0,,,NaN,,,,,,false,,,,329302.7000002861,329302.7000002861,,329302.60000038147,,329309.32,8,400,,,
sequence,flow.Sequence,4_37,2023-09-09T16:10:29.009Z,,0,,,5203.560000286088,completion,,,,,false,,,,329302.90000009537,329302.7000002861,324082.465,324084.30000019073,324099.14,329309.32,8,400,,,
trial,html.Screen,4_38_0,2023-09-09T16:10:34.323Z,,0,1,,5307.980000190728,response,ISIC_3856662.JPG,5,ISIC_0027112.JPG,ISIC_0027112.JPG,false,0,keypress(z),500,334617.30000019073,334617.30000019073,329292.575,329302.90000009537,329309.32,334619.621,8,400,39,,ISIC_3856662.JPG
break,html.Screen,4_38_1,2023-09-09T16:10:34.324Z,,0,,,NaN,,,,,,false,,,,334617.80000019073,334617.7000002861,,334617.40000009537,,334619.621,8,400,,,
break_continue,html.Screen,4_38_2,2023-09-09T16:10:34.324Z,,0,,,NaN,,,,,,false,,,,334618,334618,,334617.90000009537,,334619.621,8,400,,,
sequence,flow.Sequence,4_38,2023-09-09T16:10:34.324Z,,0,,,5308.679999999993,completion,,,,,false,,,,334618.10000038147,334618,329292.575,329302.90000009537,329309.32,334619.621,8,400,,,
trial,html.Screen,4_39_0,2023-09-09T16:10:39.832Z,,0,1,,5505.979000381485,response,ISIC_1097830.JPG,5,ISIC_0023811.JPG,ISIC_0023811.JPG,false,0,keypress(z),500,340125.80000019073,340125.60000038147,334603.081,334618.2000002861,334619.621,340130.392,8,400,40,,ISIC_1097830.JPG
break,html.Screen,4_39_1,2023-09-09T16:10:39.832Z,,0,,,NaN,,,,,,false,,,,340126.2000002861,340126,,340125.90000009537,,340130.392,8,400,,,
break_continue,html.Screen,4_39_2,2023-09-09T16:10:39.832Z,,0,,,NaN,,,,,,false,,,,340126.40000009537,340126.40000009537,,340126.30000019073,,340130.392,8,400,,,
sequence,flow.Sequence,4_39,2023-09-09T16:10:39.832Z,,0,,,5506.779000095383,completion,,,,,false,,,,340126.40000009537,340126.40000009537,334603.081,334618.10000038147,334619.621,340130.392,8,400,,,
trial,html.Screen,4_40_0,2023-09-09T16:10:45.729Z,,0,1,,5892.408000190742,response,ISIC_6065301.JPG,5,ISIC_0073135.JPG,ISIC_0073135.JPG,false,0,keypress(z),500,346022.90000009537,346022.80000019073,340113.795,340126.60000038147,340130.392,346025.102,8,400,41,,ISIC_6065301.JPG
break,html.Screen,4_40_1,2023-09-09T16:10:45.729Z,,0,,,NaN,,,,,,false,,,,346023.5,346023.30000019073,,346023,,346025.102,8,400,,,
break_continue,html.Screen,4_40_2,2023-09-09T16:10:45.730Z,,0,,,NaN,,,,,,false,,,,346023.80000019073,346023.80000019073,,346023.7000002861,,346025.102,8,400,,,
sequence,flow.Sequence,4_40,2023-09-09T16:10:45.730Z,,0,,,5893.408000190742,completion,,,,,false,,,,346023.90000009537,346023.80000019073,340113.795,340126.5,340130.392,346025.102,8,400,,,
trial,html.Screen,4_41_0,2023-09-09T16:10:52.167Z,,0,1,,6436.3979999999865,response,ISIC_0030703.JPG,6,ISIC_0822116.JPG,ISIC_0030703.JPG,false,1,keypress(m),500,352461.60000038147,352461.5,346008.453,346024,346025.102,352471.086,8,400,42,,ISIC_0822116.JPG
break,html.Screen,4_41_1,2023-09-09T16:10:52.168Z,,0,,,NaN,,,,,,false,,,,352462.10000038147,352462,,352461.80000019073,,352471.086,8,400,,,
break_continue,html.Screen,4_41_2,2023-09-09T16:10:52.168Z,,0,,,NaN,,,,,,false,,,,352462.60000038147,352462.5,,352462.40000009537,,352471.086,8,400,,,
sequence,flow.Sequence,4_41,2023-09-09T16:10:52.168Z,,0,,,6437.3979999999865,completion,,,,,false,,,,352462.60000038147,352462.5,346008.453,346024,346025.102,352471.086,8,400,,,
trial,html.Screen,4_42_0,2023-09-09T16:10:57.611Z,,0,1,,5433.5140003814595,response,ISIC_0061252.JPG,5,ISIC_4864523.JPG,ISIC_0061252.JPG,false,1,keypress(m),500,357904.7000002861,357904.60000038147,352454.335,352462.7000002861,352471.086,357914.929,8,400,43,,ISIC_4864523.JPG
break,html.Screen,4_42_1,2023-09-09T16:10:57.611Z,,0,,,NaN,,,,,,false,,,,357905.30000019073,357905.2000002861,,357904.90000009537,,357914.929,8,400,,,
break_continue,html.Screen,4_42_2,2023-09-09T16:10:57.611Z,,0,,,NaN,,,,,,false,,,,357905.5,357905.40000009537,,357905.40000009537,,357914.929,8,400,,,
sequence,flow.Sequence,4_42,2023-09-09T16:10:57.611Z,,0,,,5434.314000095357,completion,,,,,false,,,,357905.60000038147,357905.40000009537,352454.335,352462.7000002861,352471.086,357914.929,8,400,,,
trial,html.Screen,4_43_0,2023-09-09T16:11:02.191Z,,0,1,,4569.871000190731,response,ISIC_8714502.JPG,5,ISIC_6101007.JPG,ISIC_6101007.JPG,false,0,keypress(z),500,362485,362484.80000019073,357898.318,357905.7000002861,357914.929,362490.558,8,400,44,,ISIC_8714502.JPG
break,html.Screen,4_43_1,2023-09-09T16:11:02.191Z,,0,,,NaN,,,,,,false,,,,362485.30000019073,362485.30000019073,,362485,,362490.558,8,400,,,
break_continue,html.Screen,4_43_2,2023-09-09T16:11:02.191Z,,0,,,NaN,,,,,,false,,,,362485.5,362485.5,,362485.5,,362490.558,8,400,,,
sequence,flow.Sequence,4_43,2023-09-09T16:11:02.191Z,,0,,,4570.570999999996,completion,,,,,false,,,,362485.7000002861,362485.5,357898.318,357905.7000002861,357914.929,362490.558,8,400,,,
trial,html.Screen,4_44_0,2023-09-09T16:11:09.013Z,,0,1,,6815.042000381451,response,ISIC_0006672.JPG,5,ISIC_5651106.JPG,ISIC_5651106.JPG,false,0,keypress(z),500,369305.7000002861,369305.60000038147,362473.919,362485.7000002861,362490.558,369320.481,8,400,45,,ISIC_0006672.JPG
break,html.Screen,4_44_1,2023-09-09T16:11:09.013Z,,0,,,NaN,,,,,,false,,,,369306.2000002861,369306.10000038147,,369305.90000009537,,369320.481,8,400,,,
break_continue,html.Screen,4_44_2,2023-09-09T16:11:09.013Z,,0,,,NaN,,,,,,false,,,,369306.30000019073,369306.30000019073,,369306.30000019073,,369320.481,8,400,,,
sequence,flow.Sequence,4_44,2023-09-09T16:11:09.013Z,,0,,,6815.742000190716,completion,,,,,false,,,,369306.5,369306.30000019073,362473.919,362485.7000002861,362490.558,369320.481,8,400,,,
trial,html.Screen,4_45_0,2023-09-09T16:11:15.095Z,,0,1,,6067.319000190706,response,ISIC_2631789.JPG,5,ISIC_1110583.JPG,ISIC_1110583.JPG,false,0,keypress(z),500,375388.2000002861,375387.80000019073,369303.783,369306.60000038147,369320.481,375399.001,8,400,46,,ISIC_2631789.JPG
break,html.Screen,4_45_1,2023-09-09T16:11:15.096Z,,0,,,NaN,,,,,,false,,,,375389.7000002861,375389.30000019073,,375388.60000038147,,375399.001,8,400,,,
break_continue,html.Screen,4_45_2,2023-09-09T16:11:15.097Z,,0,,,NaN,,,,,,false,,,,375390.5,375390.30000019073,,375389.90000009537,,375399.001,8,400,,,
sequence,flow.Sequence,4_45,2023-09-09T16:11:15.098Z,,0,,,6069.819000190706,completion,,,,,false,,,,375391,375390.30000019073,369303.783,369306.5,369320.481,375399.001,8,400,,,
trial,html.Screen,4_46_0,2023-09-09T16:11:22.384Z,,0,1,,7277.999000000011,response,ISIC_9171071.JPG,6,ISIC_8253326.JPG,ISIC_9171071.JPG,false,1,keypress(m),500,382677.10000038147,382677,375382.322,375391.30000019073,375399.001,382679.787,8,400,47,,ISIC_8253326.JPG
break,html.Screen,4_46_1,2023-09-09T16:11:22.384Z,,0,,,NaN,,,,,,false,,,,382677.60000038147,382677.5,,382677.30000019073,,382679.787,8,400,,,
break_continue,html.Screen,4_46_2,2023-09-09T16:11:22.385Z,,0,,,NaN,,,,,,false,,,,382677.90000009537,382677.80000019073,,382677.7000002861,,382679.787,8,400,,,
sequence,flow.Sequence,4_46,2023-09-09T16:11:22.385Z,,0,,,7278.799000190746,completion,,,,,false,,,,382677.90000009537,382677.80000019073,375382.322,375391.2000002861,375399.001,382679.787,8,400,,,
trial,html.Screen,4_47_0,2023-09-09T16:11:31.783Z,,0,1,,9396.313000381459,response,ISIC_0030122.JPG,5,ISIC_5190920.JPG,ISIC_0030122.JPG,false,1,keypress(m),500,392076.30000019073,392076.10000038147,382663.145,382678,382679.787,392081.401,8,400,48,,ISIC_5190920.JPG
break,html.Screen,4_47_1,2023-09-09T16:11:31.784Z,,0,,,NaN,,,,,,false,,,,392076.90000009537,392076.7000002861,,392076.40000009537,,392081.401,8,400,,,
break_continue,html.Screen,4_47_2,2023-09-09T16:11:31.784Z,,0,,,NaN,,,,,,false,,,,392077.10000038147,392077,,392077,,392081.401,8,400,,,
sequence,flow.Sequence,4_47,2023-09-09T16:11:31.784Z,,0,,,9397.212999999989,completion,,,,,false,,,,392077.2000002861,392077,382663.145,382677.90000009537,382679.787,392081.401,8,400,,,
trial,html.Screen,4_48_0,2023-09-09T16:11:37.003Z,,0,1,,5214.29900028609,response,ISIC_2196127.JPG,6,ISIC_0032810.JPG,ISIC_0032810.JPG,false,0,keypress(z),500,397296,397295.7000002861,392064.735,392077.30000019073,392081.401,397308.452,8,400,49,,ISIC_2196127.JPG
break,html.Screen,4_48_1,2023-09-09T16:11:37.004Z,,0,,,NaN,,,,,,false,,,,397297.2000002861,397296.90000009537,,397296.2000002861,,397308.452,8,400,,,
break_continue,html.Screen,4_48_2,2023-09-09T16:11:37.004Z,,0,,,NaN,,,,,,false,,,,397297.60000038147,397297.5,,397297.30000019073,,397308.452,8,400,,,
sequence,flow.Sequence,4_48,2023-09-09T16:11:37.004Z,,0,,,5216.098999999987,completion,,,,,false,,,,397297.7000002861,397297.5,392064.735,392077.2000002861,392081.401,397308.452,8,400,,,
trial,html.Screen,4_49_0,2023-09-09T16:11:42.719Z,,0,1,,5703.1480003814795,response,ISIC_0806138.JPG,6,ISIC_3934537.JPG,ISIC_3934537.JPG,false,0,keypress(z),500,403011.80000019073,403011.60000038147,397291.559,397297.80000019073,397308.452,403019.431,8,400,50,,ISIC_0806138.JPG
break,html.Screen,4_49_1,2023-09-09T16:11:52.713Z,,0,,,10002.896999999997,timeout,,,,,false,,,,413006,413005.47,403002.773,403011.90000009537,403019.431,413022.328,8,400,,,
break_continue,html.Screen,4_49_2,2023-09-09T16:12:03.437Z,,0,,,10697.072000095388,response,,,,,false,continue,keypress(Space),,423730.5,423719.40000009537,413005.47,413006.2000002861,413022.328,423743.06,8,400,,,
sequence,flow.Sequence,4_49,2023-09-09T16:12:03.437Z,,0,,,26410.948000095377,completion,,,,,false,,,,423730.60000038147,423719.40000009537,397291.559,397297.80000019073,397308.452,423743.06,8,400,,,
trial,html.Screen,4_50_0,2023-09-09T16:12:07.223Z,,0,2,,3771.540000381472,response,ISIC_0034188.JPG,7,ISIC_0010532.JPG,ISIC_0010532.JPG,false,0,keypress(z),500,427514.80000019073,427514.60000038147,423726.355,423730.7000002861,423743.06,427517.067,8,400,1,,ISIC_0034188.JPG
break,html.Screen,4_50_1,2023-09-09T16:12:07.224Z,,0,,,NaN,,,,,,false,,,,427516.10000038147,427515.90000009537,,427515.2000002861,,427517.067,8,400,,,
break_continue,html.Screen,4_50_2,2023-09-09T16:12:07.225Z,,0,,,NaN,,,,,,false,,,,427517.10000038147,427516.80000019073,,427516.40000009537,,427517.067,8,400,,,
sequence,flow.Sequence,4_50,2023-09-09T16:12:07.226Z,,0,,,3773.740000190737,completion,,,,,false,,,,427518,427516.80000019073,423726.355,423730.60000038147,423743.06,427517.067,8,400,,,
trial,html.Screen,4_51_0,2023-09-09T16:12:11.516Z,,0,2,,4290.8330000953865,response,ISIC_2596574.JPG,4,ISIC_0057495.JPG,ISIC_2596574.JPG,false,1,keypress(m),500,431808.2000002861,431807.90000009537,427500.403,427518.2000002861,427517.067,431825.409,8,400,2,,ISIC_0057495.JPG
break,html.Screen,4_51_1,2023-09-09T16:12:11.517Z,,0,,,NaN,,,,,,false,,,,431809.10000038147,431808.90000009537,,431808.30000019073,,431825.409,8,400,,,
break_continue,html.Screen,4_51_2,2023-09-09T16:12:11.517Z,,0,,,NaN,,,,,,false,,,,431809.5,431809.40000009537,,431809.2000002861,,431825.409,8,400,,,
sequence,flow.Sequence,4_51,2023-09-09T16:12:11.518Z,,0,,,4292.3330000953865,completion,,,,,false,,,,431809.7000002861,431809.40000009537,427500.403,427518.10000038147,427517.067,431825.409,8,400,,,
trial,html.Screen,4_52_0,2023-09-09T16:12:16.367Z,,0,2,,4833.39100019075,response,ISIC_0027480.JPG,5,ISIC_7260013.JPG,ISIC_0027480.JPG,false,1,keypress(m),500,436658.90000009537,436658.80000019073,431808.71,431809.80000019073,431825.409,436668.221,8,400,3,,ISIC_7260013.JPG
break,html.Screen,4_52_1,2023-09-09T16:12:16.367Z,,0,,,NaN,,,,,,false,,,,436659.40000009537,436659.30000019073,,436659,,436668.221,8,400,,,
break_continue,html.Screen,4_52_2,2023-09-09T16:12:16.367Z,,0,,,NaN,,,,,,false,,,,436659.5,436659.5,,436659.40000009537,,436668.221,8,400,,,
sequence,flow.Sequence,4_52,2023-09-09T16:12:16.367Z,,0,,,4834.091000000015,completion,,,,,false,,,,436659.7000002861,436659.5,431808.71,431809.80000019073,431825.409,436668.221,8,400,,,
trial,html.Screen,4_53_0,2023-09-09T16:12:21.779Z,,0,2,,5403.079000190715,response,ISIC_2729109.JPG,5,ISIC_0032617.JPG,ISIC_0032617.JPG,false,0,keypress(z),500,442071.5,442071.30000019073,436651.555,436659.80000019073,436668.221,442078.706,8,400,4,,ISIC_2729109.JPG
break,html.Screen,4_53_1,2023-09-09T16:12:21.780Z,,0,,,NaN,,,,,,false,,,,442072,442071.90000009537,,442071.60000038147,,442078.706,8,400,,,
break_continue,html.Screen,4_53_2,2023-09-09T16:12:21.780Z,,0,,,NaN,,,,,,false,,,,442072.30000019073,442072.30000019073,,442072.10000038147,,442078.706,8,400,,,
sequence,flow.Sequence,4_53,2023-09-09T16:12:21.780Z,,0,,,5404.079000190715,completion,,,,,false,,,,442072.5,442072.30000019073,436651.555,436659.7000002861,436668.221,442078.706,8,400,,,
trial,html.Screen,4_54_0,2023-09-09T16:12:26.795Z,,0,2,,5008.394000381464,response,ISIC_1377409.JPG,5,ISIC_9566964.JPG,ISIC_9566964.JPG,false,0,keypress(z),500,447087.2000002861,447087.10000038147,442062.076,442072.5,442078.706,447088.46,8,400,5,,ISIC_1377409.JPG
break,html.Screen,4_54_1,2023-09-09T16:12:26.795Z,,0,,,NaN,,,,,,false,,,,447087.60000038147,447087.5,,447087.2000002861,,447088.46,8,400,,,
break_continue,html.Screen,4_54_2,2023-09-09T16:12:26.796Z,,0,,,NaN,,,,,,false,,,,447087.7000002861,447087.7000002861,,447087.60000038147,,447088.46,8,400,,,
sequence,flow.Sequence,4_54,2023-09-09T16:12:26.796Z,,0,,,5008.994000286097,completion,,,,,false,,,,447087.90000009537,447087.7000002861,442062.076,442072.5,442078.706,447088.46,8,400,,,
trial,html.Screen,4_55_0,2023-09-09T16:12:33.245Z,,0,2,,6448.640000381449,response,ISIC_0033830.JPG,4,ISIC_0033801.JPG,ISIC_0033801.JPG,false,0,keypress(z),500,453537.30000019073,453537.10000038147,447071.913,447087.90000009537,447088.46,453551.056,8,400,6,,ISIC_0033830.JPG
break,html.Screen,4_55_1,2023-09-09T16:12:33.246Z,,0,,,NaN,,,,,,false,,,,453537.7000002861,453537.60000038147,,453537.40000009537,,453551.056,8,400,,,
break_continue,html.Screen,4_55_2,2023-09-09T16:12:33.246Z,,0,,,NaN,,,,,,false,,,,453537.90000009537,453537.80000019073,,453537.80000019073,,453551.056,8,400,,,
sequence,flow.Sequence,4_55,2023-09-09T16:12:33.246Z,,0,,,6449.340000190714,completion,,,,,false,,,,453538,453537.80000019073,447071.913,447087.90000009537,447088.46,453551.056,8,400,,,
trial,html.Screen,4_56_0,2023-09-09T16:12:38.375Z,,0,2,,5116.044000381487,response,ISIC_0070651.JPG,5,ISIC_8907232.JPG,ISIC_8907232.JPG,false,0,keypress(z),500,458667.30000019073,458667.10000038147,453534.438,453538,453551.056,458677.765,8,400,7,,ISIC_0070651.JPG
break,html.Screen,4_56_1,2023-09-09T16:12:38.376Z,,0,,,NaN,,,,,,false,,,,458667.80000019073,458667.7000002861,,458667.5,,458677.765,8,400,,,
break_continue,html.Screen,4_56_2,2023-09-09T16:12:38.376Z,,0,,,NaN,,,,,,false,,,,458668,458667.90000009537,,458667.80000019073,,458677.765,8,400,,,
sequence,flow.Sequence,4_56,2023-09-09T16:12:38.376Z,,0,,,5116.844000095385,completion,,,,,false,,,,458668,458667.90000009537,453534.438,453538,453551.056,458677.765,8,400,,,
trial,html.Screen,4_57_0,2023-09-09T16:12:45.290Z,,0,2,,6904.435000286088,response,ISIC_1619814.JPG,5,ISIC_7621412.JPG,ISIC_1619814.JPG,false,1,keypress(m),500,465582.40000009537,465582.2000002861,458660.996,458668.10000038147,458677.765,465591.174,8,400,8,,ISIC_7621412.JPG
break,html.Screen,4_57_1,2023-09-09T16:12:45.291Z,,0,,,NaN,,,,,,false,,,,465583.40000009537,465583.2000002861,,465582.7000002861,,465591.174,8,400,,,
break_continue,html.Screen,4_57_2,2023-09-09T16:12:45.292Z,,0,,,NaN,,,,,,false,,,,465583.90000009537,465583.7000002861,,465583.5,,465591.174,8,400,,,
sequence,flow.Sequence,4_57,2023-09-09T16:12:45.292Z,,0,,,6905.935000286088,completion,,,,,false,,,,465584,465583.7000002861,458660.996,458668.10000038147,458677.765,465591.174,8,400,,,
trial,html.Screen,4_58_0,2023-09-09T16:12:51.662Z,,0,2,,6362.926000381471,response,ISIC_0027072.JPG,5,ISIC_0028420.JPG,ISIC_0027072.JPG,false,1,keypress(m),500,471954.2000002861,471954.10000038147,465574.46,465584.10000038147,465591.174,471970.302,8,400,9,,ISIC_0028420.JPG
break,html.Screen,4_58_1,2023-09-09T16:12:51.663Z,,0,,,NaN,,,,,,false,,,,471955,471954.80000019073,,471954.5,,471970.302,8,400,,,
break_continue,html.Screen,4_58_2,2023-09-09T16:12:51.663Z,,0,,,NaN,,,,,,false,,,,471955.30000019073,471955.2000002861,,471955,,471970.302,8,400,,,
sequence,flow.Sequence,4_58,2023-09-09T16:12:51.663Z,,0,,,6364.026000286103,completion,,,,,false,,,,471955.5,471955.2000002861,465574.46,465584.10000038147,465591.174,471970.302,8,400,,,
trial,html.Screen,4_59_0,2023-09-09T16:12:56.577Z,,0,2,,4898.49800019071,response,ISIC_4201891.JPG,4,ISIC_0065823.JPG,ISIC_0065823.JPG,false,0,keypress(z),500,476868.90000009537,476868.80000019073,471953.522,471955.5,471970.302,476879.951,8,400,10,,ISIC_4201891.JPG
break,html.Screen,4_59_1,2023-09-09T16:12:56.577Z,,0,,,NaN,,,,,,false,,,,476869.40000009537,476869.2000002861,,476869,,476879.951,8,400,,,
break_continue,html.Screen,4_59_2,2023-09-09T16:12:56.577Z,,0,,,NaN,,,,,,false,,,,476869.60000038147,476869.5,,476869.40000009537,,476879.951,8,400,,,
sequence,flow.Sequence,4_59,2023-09-09T16:12:56.577Z,,0,,,4899.197999999975,completion,,,,,false,,,,476869.7000002861,476869.5,471953.522,471955.5,471970.302,476879.951,8,400,,,
trial,html.Screen,4_60_0,2023-09-09T16:13:02.482Z,,0,2,,5894.4490000953665,response,ISIC_8588957.JPG,4,ISIC_0084086.JPG,ISIC_8588957.JPG,false,1,keypress(m),500,482774.60000038147,482774.40000009537,476863.152,476869.7000002861,476879.951,482791.28,8,400,11,,ISIC_0084086.JPG
break,html.Screen,4_60_1,2023-09-09T16:13:02.483Z,,0,,,NaN,,,,,,false,,,,482775.40000009537,482775.2000002861,,482774.7000002861,,482791.28,8,400,,,
break_continue,html.Screen,4_60_2,2023-09-09T16:13:02.484Z,,0,,,NaN,,,,,,false,,,,482776,482775.80000019073,,482775.5,,482791.28,8,400,,,
sequence,flow.Sequence,4_60,2023-09-09T16:13:02.484Z,,0,,,5895.849000190734,completion,,,,,false,,,,482776.2000002861,482775.80000019073,476863.152,476869.7000002861,476879.951,482791.28,8,400,,,
trial,html.Screen,4_61_0,2023-09-09T16:13:08.535Z,,0,2,,6034.719999999972,response,ISIC_1046678.JPG,5,ISIC_0031795.JPG,ISIC_1046678.JPG,false,1,keypress(m),500,488826.30000019073,488826,482774.561,482776.30000019073,482791.28,488836.386,8,400,12,,ISIC_0031795.JPG
break,html.Screen,4_61_1,2023-09-09T16:13:08.537Z,,0,,,NaN,,,,,,false,,,,488828.2000002861,488827.5,,488826.7000002861,,488836.386,8,400,,,
break_continue,html.Screen,4_61_2,2023-09-09T16:13:08.538Z,,0,,,NaN,,,,,,false,,,,488828.90000009537,488828.7000002861,,488828.40000009537,,488836.386,8,400,,,
sequence,flow.Sequence,4_61,2023-09-09T16:13:08.538Z,,0,,,6037.420000286074,completion,,,,,false,,,,488829.30000019073,488828.7000002861,482774.561,482776.2000002861,482791.28,488836.386,8,400,,,
trial,html.Screen,4_62_0,2023-09-09T16:13:14.483Z,,0,2,,5938.114000000001,response,ISIC_0054312.JPG,5,ISIC_3649766.JPG,ISIC_0054312.JPG,false,1,keypress(m),500,494774.60000038147,494774.5,488819.711,488829.5,488836.386,494781.271,8,400,13,,ISIC_3649766.JPG
break,html.Screen,4_62_1,2023-09-09T16:13:14.484Z,,0,,,NaN,,,,,,false,,,,494775.2000002861,494775.10000038147,,494774.80000019073,,494781.271,8,400,,,
break_continue,html.Screen,4_62_2,2023-09-09T16:13:14.484Z,,0,,,NaN,,,,,,false,,,,494775.30000019073,494775.30000019073,,494775.30000019073,,494781.271,8,400,,,
sequence,flow.Sequence,4_62,2023-09-09T16:13:14.484Z,,0,,,5938.914000190736,completion,,,,,false,,,,494775.5,494775.30000019073,488819.711,488829.5,488836.386,494781.271,8,400,,,
trial,html.Screen,4_63_0,2023-09-09T16:13:20.775Z,,0,2,,6284.429000286094,response,ISIC_1018265.JPG,6,ISIC_0015115.JPG,ISIC_0015115.JPG,false,0,keypress(z),500,501065.80000019073,501065.7000002861,494764.595,494775.5,494781.271,501076.932,8,400,14,,ISIC_1018265.JPG
break,html.Screen,4_63_1,2023-09-09T16:13:20.775Z,,0,,,NaN,,,,,,false,,,,501066.30000019073,501066.10000038147,,501065.90000009537,,501076.932,8,400,,,
break_continue,html.Screen,4_63_2,2023-09-09T16:13:20.775Z,,0,,,NaN,,,,,,false,,,,501066.40000009537,501066.40000009537,,501066.30000019073,,501076.932,8,400,,,
sequence,flow.Sequence,4_63,2023-09-09T16:13:20.775Z,,0,,,6285.1290000953595,completion,,,,,false,,,,501066.40000009537,501066.40000009537,494764.595,494775.5,494781.271,501076.932,8,400,,,
trial,html.Screen,4_64_0,2023-09-09T16:13:27.433Z,,0,2,,6646.968000095396,response,ISIC_8624186.JPG,5,ISIC_5122220.JPG,ISIC_8624186.JPG,false,1,keypress(m),500,507724.2000002861,507723.90000009537,501060.183,501066.5,501076.932,507739.842,8,400,15,,ISIC_5122220.JPG
break,html.Screen,4_64_1,2023-09-09T16:13:27.435Z,,0,,,NaN,,,,,,false,,,,507726.30000019073,507725.7000002861,,507724.80000019073,,507739.842,8,400,,,
break_continue,html.Screen,4_64_2,2023-09-09T16:13:27.437Z,,0,,,NaN,,,,,,false,,,,507727.7000002861,507727.30000019073,,507726.80000019073,,507739.842,8,400,,,
sequence,flow.Sequence,4_64,2023-09-09T16:13:27.437Z,,0,,,6650.368000190763,completion,,,,,false,,,,507728.2000002861,507727.30000019073,501060.183,501066.5,501076.932,507739.842,8,400,,,
trial,html.Screen,4_65_0,2023-09-09T16:13:32.911Z,,0,2,,5462.157999999996,response,ISIC_0016050.JPG,5,ISIC_0015071.JPG,ISIC_0015071.JPG,false,0,keypress(z),500,513202.30000019073,513202,507723.222,507728.40000009537,507739.842,513217.165,8,400,16,,ISIC_0016050.JPG
break,html.Screen,4_65_1,2023-09-09T16:13:32.912Z,,0,,,NaN,,,,,,false,,,,513203,513202.90000009537,,513202.5,,513217.165,8,400,,,
break_continue,html.Screen,4_65_2,2023-09-09T16:13:32.912Z,,0,,,NaN,,,,,,false,,,,513203.2000002861,513203.2000002861,,513203.10000038147,,513217.165,8,400,,,
sequence,flow.Sequence,4_65,2023-09-09T16:13:32.912Z,,0,,,5463.358000286098,completion,,,,,false,,,,513203.30000019073,513203.2000002861,507723.222,507728.30000019073,507739.842,513217.165,8,400,,,
trial,html.Screen,4_66_0,2023-09-09T16:13:37.426Z,,0,2,,4500.235000095388,response,ISIC_0059440.JPG,5,ISIC_0030128.JPG,ISIC_0059440.JPG,false,1,keypress(m),500,517717.5,517717.40000009537,513200.448,513203.30000019073,513217.165,517742.599,8,400,17,,ISIC_0030128.JPG
break,html.Screen,4_66_1,2023-09-09T16:13:37.427Z,,0,,,NaN,,,,,,false,,,,517717.90000009537,517717.90000009537,,517717.60000038147,,517742.599,8,400,,,
break_continue,html.Screen,4_66_2,2023-09-09T16:13:37.427Z,,0,,,NaN,,,,,,false,,,,517718.10000038147,517718.10000038147,,517717.90000009537,,517742.599,8,400,,,
sequence,flow.Sequence,4_66,2023-09-09T16:13:37.427Z,,0,,,4500.935000381491,completion,,,,,false,,,,517718.2000002861,517718.10000038147,513200.448,513203.30000019073,513217.165,517742.599,8,400,,,
trial,html.Screen,4_67_0,2023-09-09T16:13:41.780Z,,0,2,,4328.30100009538,response,ISIC_8748070.JPG,5,ISIC_3492490.JPG,ISIC_8748070.JPG,false,1,keypress(m),500,522071,522070.90000009537,517725.945,517718.2000002861,517742.599,522084.4,8,400,18,,ISIC_3492490.JPG
break,html.Screen,4_67_1,2023-09-09T16:13:41.780Z,,0,,,NaN,,,,,,false,,,,522071.5,522071.40000009537,,522071.10000038147,,522084.4,8,400,,,
break_continue,html.Screen,4_67_2,2023-09-09T16:13:41.780Z,,0,,,NaN,,,,,,false,,,,522071.7000002861,522071.60000038147,,522071.5,,522084.4,8,400,,,
sequence,flow.Sequence,4_67,2023-09-09T16:13:41.781Z,,0,,,4329.001000381482,completion,,,,,false,,,,522071.7000002861,522071.60000038147,517725.945,517718.2000002861,517742.599,522084.4,8,400,,,
trial,html.Screen,4_68_0,2023-09-09T16:13:46.615Z,,0,2,,4821.500000095344,response,ISIC_2147549.JPG,5,ISIC_0066262.JPG,ISIC_0066262.JPG,false,0,keypress(z),500,526906,526905.9000000954,522067.734,522071.90000009537,522084.4,526910.535,8,400,19,,ISIC_2147549.JPG
break,html.Screen,4_68_1,2023-09-09T16:13:46.615Z,,0,,,NaN,,,,,,false,,,,526906.4000000954,526906.4000000954,,526906.1000003815,,526910.535,8,400,,,
break_continue,html.Screen,4_68_2,2023-09-09T16:13:46.615Z,,0,,,NaN,,,,,,false,,,,526906.7000002861,526906.6000003815,,526906.5,,526910.535,8,400,,,
sequence,flow.Sequence,4_68,2023-09-09T16:13:46.616Z,,0,,,4822.200000381446,completion,,,,,false,,,,526906.7000002861,526906.6000003815,522067.734,522071.80000019073,522084.4,526910.535,8,400,,,
trial,html.Screen,4_69_0,2023-09-09T16:13:52.153Z,,0,2,,5533.16500028607,response,ISIC_0032509.JPG,5,ISIC_4884394.JPG,ISIC_0032509.JPG,false,1,keypress(m),500,532443.9000000954,532443.7000002861,526893.94,526906.8000001907,526910.535,532454.765,8,400,20,,ISIC_4884394.JPG
break,html.Screen,4_69_1,2023-09-09T16:13:52.153Z,,0,,,NaN,,,,,,false,,,,532444.4000000954,532444.3000001907,,532444,,532454.765,8,400,,,
break_continue,html.Screen,4_69_2,2023-09-09T16:13:52.154Z,,0,,,NaN,,,,,,false,,,,532444.8000001907,532444.7000002861,,532444.5,,532454.765,8,400,,,
sequence,flow.Sequence,4_69,2023-09-09T16:13:52.154Z,,0,,,5534.16500028607,completion,,,,,false,,,,532444.8000001907,532444.7000002861,526893.94,526906.7000002861,526910.535,532454.765,8,400,,,
trial,html.Screen,4_70_0,2023-09-09T16:13:58.812Z,,0,2,,6647.835000381456,response,ISIC_2087913.JPG,5,ISIC_0070048.JPG,ISIC_0070048.JPG,false,0,keypress(z),500,539102.7000002861,539102.6000003815,532437.986,532444.9000000954,532454.765,539117.665,8,400,21,,ISIC_2087913.JPG
break,html.Screen,4_70_1,2023-09-09T16:13:58.812Z,,0,,,NaN,,,,,,false,,,,539103.2000002861,539103.1000003815,,539102.8000001907,,539117.665,8,400,,,
break_continue,html.Screen,4_70_2,2023-09-09T16:13:58.812Z,,0,,,NaN,,,,,,false,,,,539103.4000000954,539103.3000001907,,539103.2000002861,,539117.665,8,400,,,
sequence,flow.Sequence,4_70,2023-09-09T16:13:58.812Z,,0,,,6648.535000190721,completion,,,,,false,,,,539103.5,539103.3000001907,532437.986,532444.9000000954,532454.765,539117.665,8,400,,,
trial,html.Screen,4_71_0,2023-09-09T16:14:05.263Z,,0,2,,6435.4350003814325,response,ISIC_6914698.JPG,5,ISIC_0060559.JPG,ISIC_0060559.JPG,false,0,keypress(z),500,545553.3000001907,545553.1000003815,539101.044,539103.5,539117.665,545563.584,8,400,22,,ISIC_6914698.JPG
break,html.Screen,4_71_1,2023-09-09T16:14:05.264Z,,0,,,NaN,,,,,,false,,,,545553.8000001907,545553.6000003815,,545553.4000000954,,545563.584,8,400,,,
break_continue,html.Screen,4_71_2,2023-09-09T16:14:05.264Z,,0,,,NaN,,,,,,false,,,,545554.1000003815,545554,,545553.9000000954,,545563.584,8,400,,,
sequence,flow.Sequence,4_71,2023-09-09T16:14:05.264Z,,0,,,6436.334999999963,completion,,,,,false,,,,545554.2000002861,545554,539101.044,539103.5,539117.665,545563.584,8,400,,,
trial,html.Screen,4_72_0,2023-09-09T16:14:12.359Z,,0,2,,7086.016000381438,response,ISIC_0032656.JPG,6,ISIC_7662910.JPG,ISIC_0032656.JPG,false,1,keypress(m),500,552649.6000003815,552649.6000003815,545546.891,545554.2000002861,545563.584,552677.372,8,400,23,,ISIC_7662910.JPG
break,html.Screen,4_72_1,2023-09-09T16:14:12.360Z,,0,,,NaN,,,,,,false,,,,552650.1000003815,552650,,552649.7000002861,,552677.372,8,400,,,
break_continue,html.Screen,4_72_2,2023-09-09T16:14:12.360Z,,0,,,NaN,,,,,,false,,,,552650.2000002861,552650.2000002861,,552650.1000003815,,552677.372,8,400,,,
sequence,flow.Sequence,4_72,2023-09-09T16:14:12.360Z,,0,,,7086.616000286071,completion,,,,,false,,,,552650.3000001907,552650.2000002861,545546.891,545554.2000002861,545563.584,552677.372,8,400,,,
trial,html.Screen,4_73_0,2023-09-09T16:14:18.733Z,,0,2,,6345.228000381496,response,ISIC_1988058.JPG,5,ISIC_8650516.JPG,ISIC_1988058.JPG,false,1,keypress(m),500,559022.9000000954,559022.6000003815,552660.565,552650.3000001907,552677.372,559039.866,8,400,24,,ISIC_8650516.JPG
break,html.Screen,4_73_1,2023-09-09T16:14:18.735Z,,0,,,NaN,,,,,,false,,,,559025.5,559024.7000002861,,559023.5,,559039.866,8,400,,,
break_continue,html.Screen,4_73_2,2023-09-09T16:14:18.736Z,,0,,,NaN,,,,,,false,,,,559026.4000000954,559026.1000003815,,559025.7000002861,,559039.866,8,400,,,
sequence,flow.Sequence,4_73,2023-09-09T16:14:18.736Z,,0,,,6348.728000381496,completion,,,,,false,,,,559026.7000002861,559026.1000003815,552660.565,552650.3000001907,552677.372,559039.866,8,400,,,
trial,html.Screen,4_74_0,2023-09-09T16:14:23.799Z,,0,2,,5049.034000095329,response,ISIC_0024650.JPG,6,ISIC_0061085.JPG,ISIC_0061085.JPG,false,0,keypress(z),500,564089.3000001907,564088.9000000954,559022.929,559027,559039.866,564099.623,8,400,25,,ISIC_0024650.JPG
break,html.Screen,4_74_1,2023-09-09T16:14:23.800Z,,0,,,NaN,,,,,,false,,,,564090.6000003815,564090.2000002861,,564089.6000003815,,564099.623,8,400,,,
break_continue,html.Screen,4_74_2,2023-09-09T16:14:23.801Z,,0,,,NaN,,,,,,false,,,,564091.1000003815,564091,,564090.7000002861,,564099.623,8,400,,,
sequence,flow.Sequence,4_74,2023-09-09T16:14:23.801Z,,0,,,5051.133999999962,completion,,,,,false,,,,564091.3000001907,564091,559022.929,559026.9000000954,559039.866,564099.623,8,400,,,
trial,html.Screen,4_75_0,2023-09-09T16:14:29.404Z,,0,2,,5593.977000381448,response,ISIC_0011810.JPG,6,ISIC_0060535.JPG,ISIC_0011810.JPG,false,1,keypress(m),500,569693.7000002861,569693.6000003815,564082.871,564091.4000000954,564099.623,569710.518,8,400,26,,ISIC_0060535.JPG
break,html.Screen,4_75_1,2023-09-09T16:14:29.404Z,,0,,,NaN,,,,,,false,,,,569694.6000003815,569694.3000001907,,569693.9000000954,,569710.518,8,400,,,
break_continue,html.Screen,4_75_2,2023-09-09T16:14:29.405Z,,0,,,NaN,,,,,,false,,,,569694.8000001907,569694.8000001907,,569694.7000002861,,569710.518,8,400,,,
sequence,flow.Sequence,4_75,2023-09-09T16:14:29.405Z,,0,,,5595.177000190713,completion,,,,,false,,,,569694.9000000954,569694.8000001907,564082.871,564091.4000000954,564099.623,569710.518,8,400,,,
trial,html.Screen,4_76_0,2023-09-09T16:14:34.654Z,,0,2,,5233.882000095327,response,ISIC_0025956.JPG,5,ISIC_0010040.JPG,ISIC_0025956.JPG,false,1,keypress(m),500,574944.5,574944.4000000954,569693.791,569695,569710.518,574954.059,8,400,27,,ISIC_0010040.JPG
break,html.Screen,4_76_1,2023-09-09T16:14:34.655Z,,0,,,NaN,,,,,,false,,,,574945,574944.9000000954,,574944.6000003815,,574954.059,8,400,,,
break_continue,html.Screen,4_76_2,2023-09-09T16:14:34.655Z,,0,,,NaN,,,,,,false,,,,574945.2000002861,574945.1000003815,,574945,,574954.059,8,400,,,
sequence,flow.Sequence,4_76,2023-09-09T16:14:34.655Z,,0,,,5234.58200038143,completion,,,,,false,,,,574945.3000001907,574945.1000003815,569693.791,569694.9000000954,569710.518,574954.059,8,400,,,
trial,html.Screen,4_77_0,2023-09-09T16:14:41.169Z,,0,2,,6504.7410001907265,response,ISIC_4867043.JPG,5,ISIC_0025500.JPG,ISIC_0025500.JPG,false,0,keypress(z),500,581458.9000000954,581458.8000001907,574937.3,574945.3000001907,574954.059,581466.671,8,400,28,,ISIC_4867043.JPG
break,html.Screen,4_77_1,2023-09-09T16:14:41.169Z,,0,,,NaN,,,,,,false,,,,581459.4000000954,581459.2000002861,,581459.1000003815,,581466.671,8,400,,,
break_continue,html.Screen,4_77_2,2023-09-09T16:14:41.169Z,,0,,,NaN,,,,,,false,,,,581459.5,581459.5,,581459.4000000954,,581466.671,8,400,,,
sequence,flow.Sequence,4_77,2023-09-09T16:14:41.169Z,,0,,,6505.440999999992,completion,,,,,false,,,,581459.6000003815,581459.5,574937.3,574945.3000001907,574954.059,581466.671,8,400,,,
trial,html.Screen,4_78_0,2023-09-09T16:14:47.525Z,,0,2,,6347.829000000027,response,ISIC_0025929.JPG,5,ISIC_0028394.JPG,ISIC_0025929.JPG,false,1,keypress(m),500,587814.9000000954,587814.5,581450.173,581459.7000002861,581466.671,587829.045,8,400,29,,ISIC_0028394.JPG
break,html.Screen,4_78_1,2023-09-09T16:14:47.526Z,,0,,,NaN,,,,,,false,,,,587816.4000000954,587815.8000001907,,587815.3000001907,,587829.045,8,400,,,
break_continue,html.Screen,4_78_2,2023-09-09T16:14:47.527Z,,0,,,NaN,,,,,,false,,,,587817.1000003815,587816.9000000954,,587816.6000003815,,587829.045,8,400,,,
sequence,flow.Sequence,4_78,2023-09-09T16:14:47.527Z,,0,,,6350.229000095394,completion,,,,,false,,,,587817.5,587816.9000000954,581450.173,581459.7000002861,581466.671,587829.045,8,400,,,
trial,html.Screen,4_79_0,2023-09-09T16:14:54.683Z,,0,2,,7143.65500028606,response,ISIC_0024806.JPG,5,ISIC_0026652.JPG,ISIC_0026652.JPG,false,0,keypress(z),500,594973,594972.7000002861,587812.272,587817.6000003815,587829.045,594976.263,8,400,30,,ISIC_0024806.JPG
break,html.Screen,4_79_1,2023-09-09T16:14:54.684Z,,0,,,NaN,,,,,,false,,,,594974,594973.7000002861,,594973.2000002861,,594976.263,8,400,,,
break_continue,html.Screen,4_79_2,2023-09-09T16:14:54.684Z,,0,,,NaN,,,,,,false,,,,594974.6000003815,594974.5,,594974.2000002861,,594976.263,8,400,,,
sequence,flow.Sequence,4_79,2023-09-09T16:14:54.685Z,,0,,,7145.454999999958,completion,,,,,false,,,,594974.8000001907,594974.5,587812.272,587817.6000003815,587829.045,594976.263,8,400,,,
trial,html.Screen,4_80_0,2023-09-09T16:14:59.986Z,,0,2,,5300.137000095332,response,ISIC_0024271.JPG,4,ISIC_0033429.JPG,ISIC_0033429.JPG,false,0,keypress(z),500,600276.5,600276.4000000954,594959.563,594975,594976.263,600286.595,8,400,31,,ISIC_0024271.JPG
break,html.Screen,4_80_1,2023-09-09T16:14:59.987Z,,0,,,NaN,,,,,,false,,,,600277,600276.9000000954,,600276.6000003815,,600286.595,8,400,,,
break_continue,html.Screen,4_80_2,2023-09-09T16:14:59.987Z,,0,,,NaN,,,,,,false,,,,600277.2000002861,600277.1000003815,,600277,,600286.595,8,400,,,
sequence,flow.Sequence,4_80,2023-09-09T16:14:59.987Z,,0,,,5300.837000381434,completion,,,,,false,,,,600277.2000002861,600277.1000003815,594959.563,594974.9000000954,594976.263,600286.595,8,400,,,
trial,html.Screen,4_81_0,2023-09-09T16:15:03.755Z,,0,2,,3758.3050000953954,response,ISIC_3892947.JPG,6,ISIC_0067830.JPG,ISIC_0067830.JPG,false,0,keypress(z),500,604045,604044.9000000954,600270.021,600277.2000002861,600286.595,604060.603,8,400,32,,ISIC_3892947.JPG
break,html.Screen,4_81_1,2023-09-09T16:15:03.755Z,,0,,,NaN,,,,,,false,,,,604045.6000003815,604045.5,,604045.1000003815,,604060.603,8,400,,,
break_continue,html.Screen,4_81_2,2023-09-09T16:15:03.756Z,,0,,,NaN,,,,,,false,,,,604045.9000000954,604045.8000001907,,604045.7000002861,,604060.603,8,400,,,
sequence,flow.Sequence,4_81,2023-09-09T16:15:03.756Z,,0,,,3759.205000190763,completion,,,,,false,,,,604046,604045.8000001907,600270.021,600277.2000002861,600286.595,604060.603,8,400,,,
trial,html.Screen,4_82_0,2023-09-09T16:15:09.390Z,,0,2,,5618.396999999997,response,ISIC_3791309.JPG,6,ISIC_0057371.JPG,ISIC_3791309.JPG,false,1,keypress(m),500,609679.1000003815,609679,604043.93,604046.2000002861,604060.603,609704.895,8,400,33,,ISIC_0057371.JPG
break,html.Screen,4_82_1,2023-09-09T16:15:09.390Z,,0,,,NaN,,,,,,false,,,,609679.5,609679.4000000954,,609679.1000003815,,609704.895,8,400,,,
break_continue,html.Screen,4_82_2,2023-09-09T16:15:09.390Z,,0,,,NaN,,,,,,false,,,,609679.7000002861,609679.6000003815,,609679.5,,609704.895,8,400,,,
sequence,flow.Sequence,4_82,2023-09-09T16:15:09.390Z,,0,,,5618.997000381467,completion,,,,,false,,,,609679.7000002861,609679.6000003815,604043.93,604046.1000003815,604060.603,609704.895,8,400,,,
trial,html.Screen,4_83_0,2023-09-09T16:15:16.096Z,,0,2,,6679.705000381451,response,ISIC_7768567.JPG,6,ISIC_4912684.JPG,ISIC_7768567.JPG,false,1,keypress(m),500,616384.8000001907,616384.6000003815,609688.386,609679.8000001907,609704.895,616401.384,8,400,34,,ISIC_4912684.JPG
break,html.Screen,4_83_1,2023-09-09T16:15:16.096Z,,0,,,NaN,,,,,,false,,,,616385.5,616385.2000002861,,616385,,616401.384,8,400,,,
break_continue,html.Screen,4_83_2,2023-09-09T16:15:16.096Z,,0,,,NaN,,,,,,false,,,,616385.7000002861,616385.6000003815,,616385.6000003815,,616401.384,8,400,,,
sequence,flow.Sequence,4_83,2023-09-09T16:15:16.097Z,,0,,,6680.705000381451,completion,,,,,false,,,,616385.9000000954,616385.6000003815,609688.386,609679.7000002861,609704.895,616401.384,8,400,,,
trial,html.Screen,4_84_0,2023-09-09T16:15:19.858Z,,0,2,,3745.616000000038,response,ISIC_0061315.JPG,6,ISIC_5108076.JPG,ISIC_0061315.JPG,false,1,keypress(m),500,620147.1000003815,620147,616384.563,616386,616401.384,620175.261,8,400,35,,ISIC_5108076.JPG
break,html.Screen,4_84_1,2023-09-09T16:15:19.858Z,,0,,,NaN,,,,,,false,,,,620147.5,620147.4000000954,,620147.2000002861,,620175.261,8,400,,,
break_continue,html.Screen,4_84_2,2023-09-09T16:15:19.858Z,,0,,,NaN,,,,,,false,,,,620147.7000002861,620147.6000003815,,620147.5,,620175.261,8,400,,,
sequence,flow.Sequence,4_84,2023-09-09T16:15:19.859Z,,0,,,3746.216000381508,completion,,,,,false,,,,620147.7000002861,620147.6000003815,616384.563,616386,616401.384,620175.261,8,400,,,
trial,html.Screen,4_85_0,2023-09-09T16:15:25.939Z,,0,2,,6053.4390002860455,response,ISIC_0014883.JPG,5,ISIC_0012988.JPG,ISIC_0014883.JPG,false,1,keypress(m),500,626228.7000002861,626228.7000002861,620158.754,620147.8000001907,620175.261,626237.096,8,400,36,,ISIC_0012988.JPG
break,html.Screen,4_85_1,2023-09-09T16:15:25.940Z,,0,,,NaN,,,,,,false,,,,626229.2000002861,626229.2000002861,,626228.9000000954,,626237.096,8,400,,,
break_continue,html.Screen,4_85_2,2023-09-09T16:15:25.940Z,,0,,,NaN,,,,,,false,,,,626229.5,626229.4000000954,,626229.3000001907,,626237.096,8,400,,,
sequence,flow.Sequence,4_85,2023-09-09T16:15:25.940Z,,0,,,6054.139000095311,completion,,,,,false,,,,626229.6000003815,626229.4000000954,620158.754,620147.8000001907,620175.261,626237.096,8,400,,,
trial,html.Screen,4_86_0,2023-09-09T16:15:31.532Z,,0,2,,5583.704000190715,response,ISIC_4257634.JPG,5,ISIC_6228471.JPG,ISIC_4257634.JPG,false,1,keypress(m),500,631820.9000000954,631820.8000001907,626220.491,626229.7000002861,626237.096,631831.288,8,400,37,,ISIC_6228471.JPG
break,html.Screen,4_86_1,2023-09-09T16:15:31.532Z,,0,,,NaN,,,,,,false,,,,631821.3000001907,631821.2000002861,,631821,,631831.288,8,400,,,
break_continue,html.Screen,4_86_2,2023-09-09T16:15:31.532Z,,0,,,NaN,,,,,,false,,,,631821.5,631821.5,,631821.4000000954,,631831.288,8,400,,,
sequence,flow.Sequence,4_86,2023-09-09T16:15:31.532Z,,0,,,5584.40399999998,completion,,,,,false,,,,631821.6000003815,631821.5,626220.491,626229.7000002861,626237.096,631831.288,8,400,,,
trial,html.Screen,4_87_0,2023-09-09T16:15:37.198Z,,0,2,,5655.41200028616,response,ISIC_0822238.JPG,5,ISIC_1043267.JPG,ISIC_0822238.JPG,false,1,keypress(m),500,637486.8000001907,637486.7000002861,631814.593,631821.7000002861,631831.288,637492.345,8,400,38,,ISIC_1043267.JPG
break,html.Screen,4_87_1,2023-09-09T16:15:37.198Z,,0,,,NaN,,,,,,false,,,,637487.7000002861,637487.4000000954,,637487,,637492.345,8,400,,,
break_continue,html.Screen,4_87_2,2023-09-09T16:15:37.199Z,,0,,,NaN,,,,,,false,,,,637488.1000003815,637487.9000000954,,637487.8000001907,,637492.345,8,400,,,
sequence,flow.Sequence,4_87,2023-09-09T16:15:37.199Z,,0,,,5656.612000095425,completion,,,,,false,,,,637488.1000003815,637487.9000000954,631814.593,631821.7000002861,631831.288,637492.345,8,400,,,
trial,html.Screen,4_88_0,2023-09-09T16:15:45.672Z,,0,2,,8469.055000095395,response,ISIC_0013845.JPG,5,ISIC_6710082.JPG,ISIC_0013845.JPG,false,1,keypress(m),500,645961.6000003815,645961.4000000954,637475.774,637488.3000001907,637492.345,645975.52,8,400,39,,ISIC_6710082.JPG
break,html.Screen,4_88_1,2023-09-09T16:15:45.673Z,,0,,,NaN,,,,,,false,,,,645962.1000003815,645962,,645961.7000002861,,645975.52,8,400,,,
break_continue,html.Screen,4_88_2,2023-09-09T16:15:45.673Z,,0,,,NaN,,,,,,false,,,,645962.3000001907,645962.3000001907,,645962.2000002861,,645975.52,8,400,,,
sequence,flow.Sequence,4_88,2023-09-09T16:15:45.673Z,,0,,,8469.955000190763,completion,,,,,false,,,,645962.5,645962.3000001907,637475.774,637488.3000001907,637492.345,645975.52,8,400,,,
trial,html.Screen,4_89_0,2023-09-09T16:15:52.491Z,,0,2,,6804.580000381451,response,ISIC_8401332.JPG,4,ISIC_0012065.JPG,ISIC_0012065.JPG,false,0,keypress(z),500,652780.2000002861,652780.1000003815,645958.88,645962.5,645975.52,652788.776,8,400,40,,ISIC_8401332.JPG
break,html.Screen,4_89_1,2023-09-09T16:15:52.491Z,,0,,,NaN,,,,,,false,,,,652780.7000002861,652780.5,,652780.3000001907,,652788.776,8,400,,,
break_continue,html.Screen,4_89_2,2023-09-09T16:15:52.492Z,,0,,,NaN,,,,,,false,,,,652780.8000001907,652780.8000001907,,652780.7000002861,,652788.776,8,400,,,
sequence,flow.Sequence,4_89,2023-09-09T16:15:52.492Z,,0,,,6805.280000190716,completion,,,,,false,,,,652780.9000000954,652780.8000001907,645958.88,645962.5,645975.52,652788.776,8,400,,,
trial,html.Screen,4_90_0,2023-09-09T16:15:57.037Z,,0,2,,4537.624000095413,response,ISIC_0010965.JPG,5,ISIC_9012513.JPG,ISIC_0010965.JPG,false,1,keypress(m),500,657326.5,657326.4000000954,652772.154,652780.9000000954,652788.776,657331.012,8,400,41,,ISIC_9012513.JPG
break,html.Screen,4_90_1,2023-09-09T16:15:57.038Z,,0,,,NaN,,,,,,false,,,,657327,657326.8000001907,,657326.6000003815,,657331.012,8,400,,,
break_continue,html.Screen,4_90_2,2023-09-09T16:15:57.038Z,,0,,,NaN,,,,,,false,,,,657327.1000003815,657327,,657327,,657331.012,8,400,,,
sequence,flow.Sequence,4_90,2023-09-09T16:15:57.038Z,,0,,,4538.224000000046,completion,,,,,false,,,,657327.2000002861,657327,652772.154,652780.9000000954,652788.776,657331.012,8,400,,,
trial,html.Screen,4_91_0,2023-09-09T16:16:01.511Z,,0,2,,4468.688000286114,response,ISIC_0026470.JPG,6,ISIC_0072507.JPG,ISIC_0072507.JPG,false,0,keypress(z),500,661800,661799.7000002861,657314.305,657327.3000001907,657331.012,661806.392,8,400,42,,ISIC_0026470.JPG
break,html.Screen,4_91_1,2023-09-09T16:16:01.512Z,,0,,,NaN,,,,,,false,,,,661801.6000003815,661801.1000003815,,661800.4000000954,,661806.392,8,400,,,
break_continue,html.Screen,4_91_2,2023-09-09T16:16:01.513Z,,0,,,NaN,,,,,,false,,,,661802.3000001907,661802.1000003815,,661801.7000002861,,661806.392,8,400,,,
sequence,flow.Sequence,4_91,2023-09-09T16:16:01.513Z,,0,,,4471.088000381482,completion,,,,,false,,,,661802.6000003815,661802.1000003815,657314.305,657327.3000001907,657331.012,661806.392,8,400,,,
trial,html.Screen,4_92_0,2023-09-09T16:16:06.397Z,,0,2,,4878.508000095375,response,ISIC_7761711.JPG,5,ISIC_0032682.JPG,ISIC_0032682.JPG,false,0,keypress(z),500,666685.1000003815,666684.9000000954,661789.694,661802.7000002861,661806.392,666699.237,8,400,43,,ISIC_7761711.JPG
break,html.Screen,4_92_1,2023-09-09T16:16:06.398Z,,0,,,NaN,,,,,,false,,,,666686,666685.7000002861,,666685.2000002861,,666699.237,8,400,,,
break_continue,html.Screen,4_92_2,2023-09-09T16:16:06.398Z,,0,,,NaN,,,,,,false,,,,666686.3000001907,666686.2000002861,,666686.1000003815,,666699.237,8,400,,,
sequence,flow.Sequence,4_92,2023-09-09T16:16:06.398Z,,0,,,4879.80800028611,completion,,,,,false,,,,666686.5,666686.2000002861,661789.694,661802.7000002861,661806.392,666699.237,8,400,,,
trial,html.Screen,4_93_0,2023-09-09T16:16:11.362Z,,0,2,,4950.763000000035,response,ISIC_4958006.JPG,5,ISIC_0031545.JPG,ISIC_0031545.JPG,false,0,keypress(z),500,671650.1000003815,671650,666682.568,666686.6000003815,666699.237,671675.523,8,400,44,,ISIC_4958006.JPG
break,html.Screen,4_93_1,2023-09-09T16:16:11.363Z,,0,,,NaN,,,,,,false,,,,671650.9000000954,671650.6000003815,,671650.2000002861,,671675.523,8,400,,,
break_continue,html.Screen,4_93_2,2023-09-09T16:16:11.363Z,,0,,,NaN,,,,,,false,,,,671651.1000003815,671651.1000003815,,671650.9000000954,,671675.523,8,400,,,
sequence,flow.Sequence,4_93,2023-09-09T16:16:11.363Z,,0,,,4951.863000381505,completion,,,,,false,,,,671651.2000002861,671651.1000003815,666682.568,666686.6000003815,666699.237,671675.523,8,400,,,
trial,html.Screen,4_94_0,2023-09-09T16:16:15.797Z,,0,2,,4409.976999999955,response,ISIC_0032810.JPG,5,ISIC_6606767.JPG,ISIC_0032810.JPG,false,1,keypress(m),500,676085.6000003815,676085.5,671658.805,671651.3000001907,671675.523,676100.819,8,400,45,,ISIC_6606767.JPG
break,html.Screen,4_94_1,2023-09-09T16:16:15.798Z,,0,,,NaN,,,,,,false,,,,676086.1000003815,676086,,676085.8000001907,,676100.819,8,400,,,
break_continue,html.Screen,4_94_2,2023-09-09T16:16:15.798Z,,0,,,NaN,,,,,,false,,,,676086.4000000954,676086.3000001907,,676086.1000003815,,676100.819,8,400,,,
sequence,flow.Sequence,4_94,2023-09-09T16:16:15.798Z,,0,,,4410.77700019069,completion,,,,,false,,,,676086.4000000954,676086.3000001907,671658.805,671651.3000001907,671675.523,676100.819,8,400,,,
trial,html.Screen,4_95_0,2023-09-09T16:16:20.440Z,,0,2,,4627.481000190717,response,ISIC_0072286.JPG,4,ISIC_3521671.JPG,ISIC_0072286.JPG,false,1,keypress(m),500,680728.4000000954,680728.3000001907,676084.227,676086.5,676100.819,680743.283,8,400,46,,ISIC_3521671.JPG
break,html.Screen,4_95_1,2023-09-09T16:16:20.441Z,,0,,,NaN,,,,,,false,,,,680729.2000002861,680728.9000000954,,680728.5,,680743.283,8,400,,,
break_continue,html.Screen,4_95_2,2023-09-09T16:16:20.441Z,,0,,,NaN,,,,,,false,,,,680729.4000000954,680729.3000001907,,680729.2000002861,,680743.283,8,400,,,
sequence,flow.Sequence,4_95,2023-09-09T16:16:20.441Z,,0,,,4628.481000190717,completion,,,,,false,,,,680729.5,680729.3000001907,676084.227,676086.4000000954,676100.819,680743.283,8,400,,,
trial,html.Screen,4_96_0,2023-09-09T16:16:26.161Z,,0,2,,5706.117000095313,response,ISIC_0056466.JPG,5,ISIC_7438013.JPG,ISIC_0056466.JPG,false,1,keypress(m),500,686449.5,686449.4000000954,680726.562,680729.5,680743.283,686454.333,8,400,47,,ISIC_7438013.JPG
break,html.Screen,4_96_1,2023-09-09T16:16:26.162Z,,0,,,NaN,,,,,,false,,,,686449.9000000954,686449.9000000954,,686449.7000002861,,686454.333,8,400,,,
break_continue,html.Screen,4_96_2,2023-09-09T16:16:26.162Z,,0,,,NaN,,,,,,false,,,,686450.1000003815,686450.1000003815,,686450,,686454.333,8,400,,,
sequence,flow.Sequence,4_96,2023-09-09T16:16:26.162Z,,0,,,5706.817000381416,completion,,,,,false,,,,686450.2000002861,686450.1000003815,680726.562,680729.5,680743.283,686454.333,8,400,,,
trial,html.Screen,4_97_0,2023-09-09T16:16:33.124Z,,0,2,,6957.367000286118,response,ISIC_0011703.JPG,5,ISIC_6125652.JPG,ISIC_0011703.JPG,false,1,keypress(m),500,693412,693411.7000002861,686437.698,686450.2000002861,686454.333,693417.948,8,400,48,,ISIC_6125652.JPG
break,html.Screen,4_97_1,2023-09-09T16:16:33.125Z,,0,,,NaN,,,,,,false,,,,693413.6000003815,693413.1000003815,,693412.5,,693417.948,8,400,,,
break_continue,html.Screen,4_97_2,2023-09-09T16:16:33.126Z,,0,,,NaN,,,,,,false,,,,693414.4000000954,693414.2000002861,,693413.8000001907,,693417.948,8,400,,,
sequence,flow.Sequence,4_97,2023-09-09T16:16:33.126Z,,0,,,6959.867000286118,completion,,,,,false,,,,693414.6000003815,693414.2000002861,686437.698,686450.2000002861,686454.333,693417.948,8,400,,,
trial,html.Screen,4_98_0,2023-09-09T16:16:40.953Z,,0,2,,7822.752000286127,response,ISIC_4024062.JPG,5,ISIC_5994286.JPG,ISIC_5994286.JPG,false,0,keypress(z),500,701240.9000000954,701240.7000002861,693401.208,693414.9000000954,693417.948,701249.777,8,400,49,,ISIC_4024062.JPG
break,html.Screen,4_98_1,2023-09-09T16:16:40.953Z,,0,,,NaN,,,,,,false,,,,701241.3000001907,701241.2000002861,,701241,,701249.777,8,400,,,
break_continue,html.Screen,4_98_2,2023-09-09T16:16:40.953Z,,0,,,NaN,,,,,,false,,,,701241.5,701241.5,,701241.3000001907,,701249.777,8,400,,,
sequence,flow.Sequence,4_98,2023-09-09T16:16:40.953Z,,0,,,7823.552000000025,completion,,,,,false,,,,701241.6000003815,701241.5,693401.208,693414.8000001907,693417.948,701249.777,8,400,,,
trial,html.Screen,4_99_0,2023-09-09T16:16:45.535Z,,0,2,,4573.222999999998,response,ISIC_5362038.JPG,5,ISIC_8671453.JPG,ISIC_5362038.JPG,false,1,keypress(m),500,705823.1000003815,705823,701233.131,701241.6000003815,701249.777,705825.288,8,400,50,,ISIC_8671453.JPG
break,html.Screen,4_99_1,2023-09-09T16:16:55.524Z,,0,,,10003.061000000103,timeout,,,,,false,,,,715812.5,715811.585,705808.582,705823.2000002861,705825.288,715828.349,8,400,,,
break_continue,html.Screen,4_99_2,2023-09-09T16:17:01.441Z,,0,,,5884.951000190689,response,,,,,false,continue,keypress(Space),,721729.3000001907,721713.3000001907,715811.585,715812.6000003815,715828.349,721739.554,8,400,,,
sequence,flow.Sequence,4_99,2023-09-09T16:17:01.441Z,,0,,,20463.523000190733,completion,,,,,false,,,,721729.5,721713.3000001907,701233.131,701241.6000003815,701249.777,721739.554,8,400,,,
trial,html.Screen,4_100_0,2023-09-09T16:17:05.588Z,,0,3,,4136.046000381466,response,ISIC_0027538.JPG,4,ISIC_7452410.JPG,ISIC_0027538.JPG,false,1,keypress(m),500,725875.7000002861,725875.6000003815,721722.893,721729.6000003815,721739.554,725881.008,8,400,1,,ISIC_7452410.JPG
break,html.Screen,4_100_1,2023-09-09T16:17:05.589Z,,0,,,NaN,,,,,,false,,,,725876.2000002861,725876.1000003815,,725875.9000000954,,725881.008,8,400,,,
break_continue,html.Screen,4_100_2,2023-09-09T16:17:05.589Z,,0,,,NaN,,,,,,false,,,,725876.4000000954,725876.3000001907,,725876.3000001907,,725881.008,8,400,,,
sequence,flow.Sequence,4_100,2023-09-09T16:17:05.589Z,,0,,,4136.746000190731,completion,,,,,false,,,,725876.4000000954,725876.3000001907,721722.893,721729.6000003815,721739.554,725881.008,8,400,,,
trial,html.Screen,4_101_0,2023-09-09T16:17:09.741Z,,0,3,,4146.692000286072,response,ISIC_0001148.JPG,6,ISIC_0015185.JPG,ISIC_0015185.JPG,false,0,keypress(z),500,730027.9000000954,730027.7000002861,725864.393,725876.5,725881.008,730039.109,8,400,2,,ISIC_0001148.JPG
break,html.Screen,4_101_1,2023-09-09T16:17:09.741Z,,0,,,NaN,,,,,,false,,,,730028.3000001907,730028.2000002861,,730028,,730039.109,8,400,,,
break_continue,html.Screen,4_101_2,2023-09-09T16:17:09.741Z,,0,,,NaN,,,,,,false,,,,730028.5,730028.5,,730028.3000001907,,730039.109,8,400,,,
sequence,flow.Sequence,4_101,2023-09-09T16:17:09.741Z,,0,,,4147.491999999969,completion,,,,,false,,,,730028.5,730028.5,725864.393,725876.5,725881.008,730039.109,8,400,,,
trial,html.Screen,4_102_0,2023-09-09T16:17:14.195Z,,0,3,,4443.091000286047,response,ISIC_0059840.JPG,5,ISIC_0063680.JPG,ISIC_0063680.JPG,false,0,keypress(z),500,734482.5,734482.2000002861,730022.378,730028.6000003815,730039.109,734497.953,8,400,3,,ISIC_0059840.JPG
break,html.Screen,4_102_1,2023-09-09T16:17:14.196Z,,0,,,NaN,,,,,,false,,,,734483.4000000954,734483.1000003815,,734482.7000002861,,734497.953,8,400,,,
break_continue,html.Screen,4_102_2,2023-09-09T16:17:14.197Z,,0,,,NaN,,,,,,false,,,,734483.9000000954,734483.8000001907,,734483.5,,734497.953,8,400,,,
sequence,flow.Sequence,4_102,2023-09-09T16:17:14.197Z,,0,,,4444.69100019068,completion,,,,,false,,,,734484.1000003815,734483.8000001907,730022.378,730028.6000003815,730039.109,734497.953,8,400,,,
trial,html.Screen,4_103_0,2023-09-09T16:17:18.472Z,,0,3,,4261.747000286123,response,ISIC_0004691.JPG,5,ISIC_8916136.JPG,ISIC_0004691.JPG,false,1,keypress(m),500,738759.8000001907,738759.7000002861,734481.153,734484.3000001907,734497.953,738772.734,8,400,4,,ISIC_8916136.JPG
break,html.Screen,4_103_1,2023-09-09T16:17:18.473Z,,0,,,NaN,,,,,,false,,,,738760.3000001907,738760.1000003815,,738759.9000000954,,738772.734,8,400,,,
break_continue,html.Screen,4_103_2,2023-09-09T16:17:18.473Z,,0,,,NaN,,,,,,false,,,,738760.7000002861,738760.6000003815,,738760.4000000954,,738772.734,8,400,,,
sequence,flow.Sequence,4_103,2023-09-09T16:17:18.473Z,,0,,,4262.64700038149,completion,,,,,false,,,,738760.8000001907,738760.6000003815,734481.153,734484.2000002861,734497.953,738772.734,8,400,,,
trial,html.Screen,4_104_0,2023-09-09T16:17:24.811Z,,0,3,,6325.466000286047,response,ISIC_8883212.JPG,5,ISIC_6860222.JPG,ISIC_6860222.JPG,false,0,keypress(z),500,745098.3000001907,745098.2000002861,738756.053,738760.8000001907,738772.734,745101.772,8,400,5,,ISIC_8883212.JPG
break,html.Screen,4_104_1,2023-09-09T16:17:24.811Z,,0,,,NaN,,,,,,false,,,,745098.7000002861,745098.7000002861,,745098.4000000954,,745101.772,8,400,,,
break_continue,html.Screen,4_104_2,2023-09-09T16:17:24.812Z,,0,,,NaN,,,,,,false,,,,745099,745098.9000000954,,745098.9000000954,,745101.772,8,400,,,
sequence,flow.Sequence,4_104,2023-09-09T16:17:24.812Z,,0,,,6326.1660000953125,completion,,,,,false,,,,745099.1000003815,745098.9000000954,738756.053,738760.8000001907,738772.734,745101.772,8,400,,,
trial,html.Screen,4_105_0,2023-09-09T16:17:28.750Z,,0,3,,3935.3280003814725,response,ISIC_4130478.JPG,6,ISIC_0009721.JPG,ISIC_0009721.JPG,false,0,keypress(z),500,749037.2000002861,749037.1000003815,745085.177,745099.1000003815,745101.772,749042.817,8,400,6,,ISIC_4130478.JPG
break,html.Screen,4_105_1,2023-09-09T16:17:28.750Z,,0,,,NaN,,,,,,false,,,,749037.6000003815,749037.5,,749037.3000001907,,749042.817,8,400,,,
break_continue,html.Screen,4_105_2,2023-09-09T16:17:28.750Z,,0,,,NaN,,,,,,false,,,,749037.8000001907,749037.8000001907,,749037.6000003815,,749042.817,8,400,,,
sequence,flow.Sequence,4_105,2023-09-09T16:17:28.751Z,,0,,,3936.0280001907377,completion,,,,,false,,,,749037.8000001907,749037.8000001907,745085.177,745099.1000003815,745101.772,749042.817,8,400,,,
trial,html.Screen,4_106_0,2023-09-09T16:17:34.563Z,,0,3,,5806.883000286063,response,ISIC_0028515.JPG,4,ISIC_8401332.JPG,ISIC_0028515.JPG,false,1,keypress(m),500,754849.8000001907,754849.7000002861,749026.038,749037.9000000954,749042.817,754854.03,8,400,7,,ISIC_8401332.JPG
break,html.Screen,4_106_1,2023-09-09T16:17:34.563Z,,0,,,NaN,,,,,,false,,,,754850.2000002861,754850.2000002861,,754849.9000000954,,754854.03,8,400,,,
break_continue,html.Screen,4_106_2,2023-09-09T16:17:34.563Z,,0,,,NaN,,,,,,false,,,,754850.5,754850.4000000954,,754850.3000001907,,754854.03,8,400,,,
sequence,flow.Sequence,4_106,2023-09-09T16:17:34.563Z,,0,,,5807.583000095328,completion,,,,,false,,,,754850.5,754850.4000000954,749026.038,749037.9000000954,749042.817,754854.03,8,400,,,
trial,html.Screen,4_107_0,2023-09-09T16:17:40.487Z,,0,3,,5920.270000190707,response,ISIC_0013831.JPG,4,ISIC_0031829.JPG,ISIC_0031829.JPG,false,0,keypress(z),500,760774.4000000954,760774.3000001907,754837.444,754850.5,754854.03,760782.242,8,400,8,,ISIC_0013831.JPG
break,html.Screen,4_107_1,2023-09-09T16:17:40.488Z,,0,,,NaN,,,,,,false,,,,760775,760774.8000001907,,760774.5,,760782.242,8,400,,,
break_continue,html.Screen,4_107_2,2023-09-09T16:17:40.488Z,,0,,,NaN,,,,,,false,,,,760775.4000000954,760775.3000001907,,760775.2000002861,,760782.242,8,400,,,
sequence,flow.Sequence,4_107,2023-09-09T16:17:40.488Z,,0,,,5921.270000190707,completion,,,,,false,,,,760775.4000000954,760775.3000001907,754837.444,754850.5,754854.03,760782.242,8,400,,,
trial,html.Screen,4_108_0,2023-09-09T16:17:45.818Z,,0,3,,5322.658000095398,response,ISIC_0067564.JPG,5,ISIC_5312584.JPG,ISIC_0067564.JPG,false,1,keypress(m),500,766105.2000002861,766104.9000000954,760765.725,760775.5,760782.242,766109.297,8,400,9,,ISIC_5312584.JPG
break,html.Screen,4_108_1,2023-09-09T16:17:45.819Z,,0,,,NaN,,,,,,false,,,,766106.2000002861,766106,,766105.5,,766109.297,8,400,,,
break_continue,html.Screen,4_108_2,2023-09-09T16:17:45.819Z,,0,,,NaN,,,,,,false,,,,766106.4000000954,766106.4000000954,,766106.3000001907,,766109.297,8,400,,,
sequence,flow.Sequence,4_108,2023-09-09T16:17:45.819Z,,0,,,5324.158000095398,completion,,,,,false,,,,766106.6000003815,766106.4000000954,760765.725,760775.4000000954,760782.242,766109.297,8,400,,,
trial,html.Screen,4_109_0,2023-09-09T16:17:50.909Z,,0,3,,5087.103000095347,response,ISIC_4523382.JPG,4,ISIC_7811951.JPG,ISIC_4523382.JPG,false,1,keypress(m),500,771196.6000003815,771196.4000000954,766092.552,766106.6000003815,766109.297,771202.502,8,400,10,,ISIC_7811951.JPG
break,html.Screen,4_109_1,2023-09-09T16:17:50.910Z,,0,,,NaN,,,,,,false,,,,771197,771196.9000000954,,771196.7000002861,,771202.502,8,400,,,
break_continue,html.Screen,4_109_2,2023-09-09T16:17:50.910Z,,0,,,NaN,,,,,,false,,,,771197.2000002861,771197.2000002861,,771197.1000003815,,771202.502,8,400,,,
sequence,flow.Sequence,4_109,2023-09-09T16:17:50.910Z,,0,,,5087.903000286082,completion,,,,,false,,,,771197.3000001907,771197.2000002861,766092.552,766106.6000003815,766109.297,771202.502,8,400,,,
trial,html.Screen,4_110_0,2023-09-09T16:17:57.125Z,,0,3,,6209.998000000021,response,ISIC_0034022.JPG,6,ISIC_0012758.JPG,ISIC_0034022.JPG,false,1,keypress(m),500,777412.6000003815,777412.5,771185.86,771197.4000000954,771202.502,777414.619,8,400,11,,ISIC_0012758.JPG
break,html.Screen,4_110_1,2023-09-09T16:17:57.126Z,,0,,,NaN,,,,,,false,,,,777413.4000000954,777413.1000003815,,777412.8000001907,,777414.619,8,400,,,
break_continue,html.Screen,4_110_2,2023-09-09T16:17:57.126Z,,0,,,NaN,,,,,,false,,,,777413.6000003815,777413.5,,777413.5,,777414.619,8,400,,,
sequence,flow.Sequence,4_110,2023-09-09T16:17:57.126Z,,0,,,6210.998000000021,completion,,,,,false,,,,777413.6000003815,777413.5,771185.86,771197.4000000954,771202.502,777414.619,8,400,,,
trial,html.Screen,4_111_0,2023-09-09T16:18:01.082Z,,0,3,,3954.381000000052,response,ISIC_6801988.JPG,4,ISIC_0057218.JPG,ISIC_0057218.JPG,false,0,keypress(z),500,781369.1000003815,781369,777397.996,777413.7000002861,777414.619,781372.333,8,400,12,,ISIC_6801988.JPG
break,html.Screen,4_111_1,2023-09-09T16:18:01.082Z,,0,,,NaN,,,,,,false,,,,781369.7000002861,781369.5,,781369.3000001907,,781372.333,8,400,,,
break_continue,html.Screen,4_111_2,2023-09-09T16:18:01.083Z,,0,,,NaN,,,,,,false,,,,781369.8000001907,781369.7000002861,,781369.7000002861,,781372.333,8,400,,,
sequence,flow.Sequence,4_111,2023-09-09T16:18:01.083Z,,0,,,3955.0810002861544,completion,,,,,false,,,,781369.9000000954,781369.7000002861,777397.996,777413.7000002861,777414.619,781372.333,8,400,,,
trial,html.Screen,4_112_0,2023-09-09T16:18:06.334Z,,0,3,,5247.667000000016,response,ISIC_0072631.JPG,4,ISIC_0011641.JPG,ISIC_0072631.JPG,false,1,keypress(m),500,786620.1000003815,786620,781355.766,781370.5,781372.333,786632.705,8,400,13,,ISIC_0011641.JPG
break,html.Screen,4_112_1,2023-09-09T16:18:06.334Z,,0,,,NaN,,,,,,false,,,,786620.7000002861,786620.4000000954,,786620.2000002861,,786632.705,8,400,,,
break_continue,html.Screen,4_112_2,2023-09-09T16:18:06.335Z,,0,,,NaN,,,,,,false,,,,786621.1000003815,786621,,786620.7000002861,,786632.705,8,400,,,
sequence,flow.Sequence,4_112,2023-09-09T16:18:06.335Z,,0,,,5248.667000000016,completion,,,,,false,,,,786621.1000003815,786621,781355.766,781370.5,781372.333,786632.705,8,400,,,
trial,html.Screen,4_113_0,2023-09-09T16:18:11.841Z,,0,3,,5493.895000381512,response,ISIC_0897248.JPG,5,ISIC_0034141.JPG,ISIC_0034141.JPG,false,0,keypress(z),500,792126.9000000954,792126.6000003815,786615.89,786621.2000002861,786632.705,792143.288,8,400,14,,ISIC_0897248.JPG
break,html.Screen,4_113_1,2023-09-09T16:18:11.841Z,,0,,,NaN,,,,,,false,,,,792127.6000003815,792127.3000001907,,792127,,792143.288,8,400,,,
break_continue,html.Screen,4_113_2,2023-09-09T16:18:11.842Z,,0,,,NaN,,,,,,false,,,,792128,792127.9000000954,,792127.7000002861,,792143.288,8,400,,,
sequence,flow.Sequence,4_113,2023-09-09T16:18:11.842Z,,0,,,5495.195000095409,completion,,,,,false,,,,792128.1000003815,792127.9000000954,786615.89,786621.2000002861,786632.705,792143.288,8,400,,,
trial,html.Screen,4_114_0,2023-09-09T16:18:16.516Z,,0,3,,4658.8120003815275,response,ISIC_1202785.JPG,6,ISIC_2523776.JPG,ISIC_1202785.JPG,false,1,keypress(m),500,796802.3000001907,796802.1000003815,792126.591,792128.1000003815,792143.288,796819.085,8,400,15,,ISIC_2523776.JPG
break,html.Screen,4_114_1,2023-09-09T16:18:16.517Z,,0,,,NaN,,,,,,false,,,,796803,796802.7000002861,,796802.4000000954,,796819.085,8,400,,,
break_continue,html.Screen,4_114_2,2023-09-09T16:18:16.517Z,,0,,,NaN,,,,,,false,,,,796803.2000002861,796803.2000002861,,796803.1000003815,,796819.085,8,400,,,
sequence,flow.Sequence,4_114,2023-09-09T16:18:16.517Z,,0,,,4659.91200028616,completion,,,,,false,,,,796803.4000000954,796803.2000002861,792126.591,792128.1000003815,792143.288,796819.085,8,400,,,
trial,html.Screen,4_115_0,2023-09-09T16:18:23.896Z,,0,3,,7362.515000381507,response,ISIC_0064836.JPG,5,ISIC_0010225.JPG,ISIC_0064836.JPG,false,1,keypress(m),500,804181.7000002861,804181.6000003815,796802.497,796803.4000000954,796819.085,804183.36,8,400,16,,ISIC_0010225.JPG
break,html.Screen,4_115_1,2023-09-09T16:18:23.896Z,,0,,,NaN,,,,,,false,,,,804182.2000002861,804182.1000003815,,804181.9000000954,,804183.36,8,400,,,
break_continue,html.Screen,4_115_2,2023-09-09T16:18:23.896Z,,0,,,NaN,,,,,,false,,,,804182.4000000954,804182.3000001907,,804182.3000001907,,804183.36,8,400,,,
sequence,flow.Sequence,4_115,2023-09-09T16:18:23.896Z,,0,,,7363.215000190772,completion,,,,,false,,,,804182.5,804182.3000001907,796802.497,796803.4000000954,796819.085,804183.36,8,400,,,
trial,html.Screen,4_116_0,2023-09-09T16:18:29.376Z,,0,3,,5478.440000190749,response,ISIC_6284012.JPG,4,ISIC_9410044.JPG,ISIC_6284012.JPG,false,1,keypress(m),500,809661.9000000954,809661.8000001907,804166.707,804182.5,804183.36,809694.123,8,400,17,,ISIC_9410044.JPG
break,html.Screen,4_116_1,2023-09-09T16:18:29.376Z,,0,,,NaN,,,,,,false,,,,809662.4000000954,809662.3000001907,,809662,,809694.123,8,400,,,
break_continue,html.Screen,4_116_2,2023-09-09T16:18:29.376Z,,0,,,NaN,,,,,,false,,,,809662.7000002861,809662.6000003815,,809662.5,,809694.123,8,400,,,
sequence,flow.Sequence,4_116,2023-09-09T16:18:29.377Z,,0,,,5479.240000381484,completion,,,,,false,,,,809662.8000001907,809662.6000003815,804166.707,804182.5,804183.36,809694.123,8,400,,,
trial,html.Screen,4_117_0,2023-09-09T16:18:33.685Z,,0,3,,4277.376999999979,response,ISIC_5934948.JPG,5,ISIC_3386753.JPG,ISIC_3386753.JPG,false,0,keypress(z),500,813971.7000002861,813971.5,809677.389,809662.8000001907,809694.123,813985.808,8,400,18,,ISIC_5934948.JPG
break,html.Screen,4_117_1,2023-09-09T16:18:33.686Z,,0,,,NaN,,,,,,false,,,,813972.3000001907,813972.3000001907,,813971.9000000954,,813985.808,8,400,,,
break_continue,html.Screen,4_117_2,2023-09-09T16:18:33.686Z,,0,,,NaN,,,,,,false,,,,813972.7000002861,813972.7000002861,,813972.5,,813985.808,8,400,,,
sequence,flow.Sequence,4_117,2023-09-09T16:18:33.687Z,,0,,,4278.577000286081,completion,,,,,false,,,,813972.9000000954,813972.7000002861,809677.389,809662.8000001907,809694.123,813985.808,8,400,,,
trial,html.Screen,4_118_0,2023-09-09T16:18:39.981Z,,0,3,,6281.692000000039,response,ISIC_0062649.JPG,5,ISIC_7672106.JPG,ISIC_0062649.JPG,false,1,keypress(m),500,820267.6000003815,820267.5,813969.234,813973,813985.808,820281.403,8,400,19,,ISIC_7672106.JPG
break,html.Screen,4_118_1,2023-09-09T16:18:39.982Z,,0,,,NaN,,,,,,false,,,,820268.1000003815,820268,,820267.7000002861,,820281.403,8,400,,,
break_continue,html.Screen,4_118_2,2023-09-09T16:18:39.982Z,,0,,,NaN,,,,,,false,,,,820268.3000001907,820268.2000002861,,820268.1000003815,,820281.403,8,400,,,
sequence,flow.Sequence,4_118,2023-09-09T16:18:39.982Z,,0,,,6282.392000286141,completion,,,,,false,,,,820268.3000001907,820268.2000002861,813969.234,813972.9000000954,813985.808,820281.403,8,400,,,
trial,html.Screen,4_119_0,2023-09-09T16:18:43.349Z,,0,3,,3353.797000286053,response,ISIC_0058024.JPG,6,ISIC_0068633.JPG,ISIC_0058024.JPG,false,1,keypress(m),500,823635.4000000954,823635.2000002861,820264.752,820268.4000000954,820281.403,823637.896,8,400,20,,ISIC_0068633.JPG
break,html.Screen,4_119_1,2023-09-09T16:18:43.350Z,,0,,,NaN,,,,,,false,,,,823635.9000000954,823635.7000002861,,823635.5,,823637.896,8,400,,,
break_continue,html.Screen,4_119_2,2023-09-09T16:18:43.350Z,,0,,,NaN,,,,,,false,,,,823636.1000003815,823636,,823636,,823637.896,8,400,,,
sequence,flow.Sequence,4_119,2023-09-09T16:18:43.350Z,,0,,,3354.5969999999506,completion,,,,,false,,,,823636.2000002861,823636,820264.752,820268.4000000954,820281.403,823637.896,8,400,,,
trial,html.Screen,4_120_0,2023-09-09T16:18:50.300Z,,0,3,,6948.10400000005,response,ISIC_3338629.JPG,6,ISIC_0033193.JPG,ISIC_3338629.JPG,false,1,keypress(m),500,830586.2000002861,830586,823621.221,823636.2000002861,823637.896,830601.463,8,400,21,,ISIC_0033193.JPG
break,html.Screen,4_120_1,2023-09-09T16:18:50.301Z,,0,,,NaN,,,,,,false,,,,830586.9000000954,830586.8000001907,,830586.4000000954,,830601.463,8,400,,,
break_continue,html.Screen,4_120_2,2023-09-09T16:18:50.301Z,,0,,,NaN,,,,,,false,,,,830587.2000002861,830587.1000003815,,830587,,830601.463,8,400,,,
sequence,flow.Sequence,4_120,2023-09-09T16:18:50.301Z,,0,,,6949.20400038152,completion,,,,,false,,,,830587.2000002861,830587.1000003815,823621.221,823636.2000002861,823637.896,830601.463,8,400,,,
trial,html.Screen,4_121_0,2023-09-09T16:18:54.677Z,,0,3,,4361.2370002861135,response,ISIC_9675304.JPG,5,ISIC_4153234.JPG,ISIC_9675304.JPG,false,1,keypress(m),500,834962.8000001907,834962.7000002861,830584.742,830587.3000001907,830601.463,834976.822,8,400,22,,ISIC_4153234.JPG
break,html.Screen,4_121_1,2023-09-09T16:18:54.677Z,,0,,,NaN,,,,,,false,,,,834963.4000000954,834963.2000002861,,834963,,834976.822,8,400,,,
break_continue,html.Screen,4_121_2,2023-09-09T16:18:54.677Z,,0,,,NaN,,,,,,false,,,,834963.7000002861,834963.6000003815,,834963.4000000954,,834976.822,8,400,,,
sequence,flow.Sequence,4_121,2023-09-09T16:18:54.678Z,,0,,,4362.137000381481,completion,,,,,false,,,,834963.8000001907,834963.6000003815,830584.742,830587.3000001907,830601.463,834976.822,8,400,,,
trial,html.Screen,4_122_0,2023-09-09T16:19:00.456Z,,0,3,,5765.3780002860585,response,ISIC_5388493.JPG,5,ISIC_8281208.JPG,ISIC_8281208.JPG,false,0,keypress(z),500,840742.4000000954,840742.2000002861,834959.941,834963.9000000954,834976.822,840754.524,8,400,23,,ISIC_5388493.JPG
break,html.Screen,4_122_1,2023-09-09T16:19:00.457Z,,0,,,NaN,,,,,,false,,,,840743.3000001907,840743,,840742.5,,840754.524,8,400,,,
break_continue,html.Screen,4_122_2,2023-09-09T16:19:00.457Z,,0,,,NaN,,,,,,false,,,,840743.7000002861,840743.6000003815,,840743.4000000954,,840754.524,8,400,,,
sequence,flow.Sequence,4_122,2023-09-09T16:19:00.458Z,,0,,,5766.778000381426,completion,,,,,false,,,,840743.8000001907,840743.6000003815,834959.941,834963.8000001907,834976.822,840754.524,8,400,,,
trial,html.Screen,4_123_0,2023-09-09T16:19:06.352Z,,0,3,,5883.1760002861265,response,ISIC_8071637.JPG,6,ISIC_9142919.JPG,ISIC_8071637.JPG,false,1,keypress(m),500,846637.9000000954,846637.7000002861,840737.823,840744,840754.524,846649.448,8,400,24,,ISIC_9142919.JPG
break,html.Screen,4_123_1,2023-09-09T16:19:06.353Z,,0,,,NaN,,,,,,false,,,,846638.2000002861,846638.1000003815,,846637.9000000954,,846649.448,8,400,,,
break_continue,html.Screen,4_123_2,2023-09-09T16:19:06.353Z,,0,,,NaN,,,,,,false,,,,846638.4000000954,846638.4000000954,,846638.3000001907,,846649.448,8,400,,,
sequence,flow.Sequence,4_123,2023-09-09T16:19:06.353Z,,0,,,5883.876000095392,completion,,,,,false,,,,846638.5,846638.4000000954,840737.823,840744,840754.524,846649.448,8,400,,,
trial,html.Screen,4_124_0,2023-09-09T16:19:12.099Z,,0,3,,5734.652000381495,response,ISIC_0030860.JPG,4,ISIC_0026586.JPG,ISIC_0026586.JPG,false,0,keypress(z),500,852384.4000000954,852384.1000003815,846632.673,846638.5,846649.448,852393.958,8,400,25,,ISIC_0030860.JPG
break,html.Screen,4_124_1,2023-09-09T16:19:12.101Z,,0,,,NaN,,,,,,false,,,,852385.9000000954,852385.4000000954,,852384.8000001907,,852393.958,8,400,,,
break_continue,html.Screen,4_124_2,2023-09-09T16:19:12.101Z,,0,,,NaN,,,,,,false,,,,852386.5,852386.3000001907,,852386,,852393.958,8,400,,,
sequence,flow.Sequence,4_124,2023-09-09T16:19:12.101Z,,0,,,5736.85200019076,completion,,,,,false,,,,852386.8000001907,852386.3000001907,846632.673,846638.5,846649.448,852393.958,8,400,,,
trial,html.Screen,4_125_0,2023-09-09T16:19:17.728Z,,0,3,,5619.142000381486,response,ISIC_0193907.JPG,5,ISIC_0476606.JPG,ISIC_0193907.JPG,false,1,keypress(m),500,858013.3000001907,858013.1000003815,852377.376,852387.2000002861,852393.958,858021.611,8,400,26,,ISIC_0476606.JPG
break,html.Screen,4_125_1,2023-09-09T16:19:17.729Z,,0,,,NaN,,,,,,false,,,,858014.3000001907,858014,,858013.5,,858021.611,8,400,,,
break_continue,html.Screen,4_125_2,2023-09-09T16:19:17.729Z,,0,,,NaN,,,,,,false,,,,858014.7000002861,858014.5,,858014.4000000954,,858021.611,8,400,,,
sequence,flow.Sequence,4_125,2023-09-09T16:19:17.730Z,,0,,,5620.542000000016,completion,,,,,false,,,,858014.8000001907,858014.5,852377.376,852387.1000003815,852393.958,858021.611,8,400,,,
trial,html.Screen,4_126_0,2023-09-09T16:19:23.114Z,,0,3,,5377.789000095334,response,ISIC_0011702.JPG,5,ISIC_9155465.JPG,ISIC_0011702.JPG,false,1,keypress(m),500,863399.5,863399.4000000954,858004.872,858015,858021.611,863415.277,8,400,27,,ISIC_9155465.JPG
break,html.Screen,4_126_1,2023-09-09T16:19:23.115Z,,0,,,NaN,,,,,,false,,,,863400,863399.8000001907,,863399.6000003815,,863415.277,8,400,,,
break_continue,html.Screen,4_126_2,2023-09-09T16:19:23.115Z,,0,,,NaN,,,,,,false,,,,863400.1000003815,863400.1000003815,,863400,,863415.277,8,400,,,
sequence,flow.Sequence,4_126,2023-09-09T16:19:23.115Z,,0,,,5378.489000381436,completion,,,,,false,,,,863400.2000002861,863400.1000003815,858004.872,858015,858021.611,863415.277,8,400,,,
