sender,sender_type,sender_id,timestamp,meta,,blockNo,condition,duration,ended_on,img_left,img_reveal,img_right,loser,practice,response,response_action,selection_duration,time_commit,time_end,time_render,time_run,time_show,time_switch,total_blocks,total_trials,trialNo,url,winner
informed_consent,html.Screen,0,2023-09-08T19:49:03.295Z,"{""labjs_version"":""20.2.4"",""labjs_build"":{""flavor"":""development"",""commit"":""f5b4a49f956347addd546a832a3327688c2c0fef""},""location"":""https://labjs.felixhenninger.com/api/labjs_preview/index.html"",""userAgent"":""Mozilla/5.0 (Windows NT 10.0; Win64; x64) AppleWebKit/537.36 (KHTML, like Gecko) Chrome/116.0.0.0 Safari/537.36"",""platform"":""Win32"",""language"":""en-AU"",""locale"":""en-US"",""timeZone"":""America/Chicago"",""timezoneOffset"":300,""screen_width"":1680,""screen_height"":1050,""scroll_width"":1296,""scroll_height"":688,""window_innerWidth"":1296,""window_innerHeight"":736,""devicePixelRatio"":1}",,,,33506.87800004768,response,,,,,,consent,click button,,34078.09999990463,34076.700000047684,553.098,631.2000000476837,569.822,34034.985,,,,{},
Welcome,html.Screen,1,2023-09-08T19:49:08.790Z,,,,symmetry,5537.614999904632,response,,,,,,continue,click button,,39573.09999990463,39572.59999990463,34018.294,34078.39999985695,34034.985,39512.265,,,,,
trial,html.Screen,2_0_0,2023-09-08T19:49:19.820Z,,0,0,,11090.735,response,ISIC_6997061.JPG,,ISIC_0069348.JPG,ISIC_0069348.JPG,true,0,keypress(z),500,50603.200000047684,50603,39495.606,39573.200000047684,39512.265,50550.492,1,6,1,,ISIC_6997061.JPG
sequence,flow.Sequence,2_0,2023-09-08T19:49:19.821Z,,0,,,11090.735,completion,,,,,true,,,,50603.39999985695,50603,39495.606,39573.200000047684,39512.265,50550.492,1,6,,,
trial,html.Screen,2_1_0,2023-09-08T19:49:23.428Z,,0,0,,3659.807999952318,response,ISIC_0057368.JPG,,ISIC_0009529.JPG,ISIC_0057368.JPG,true,1,keypress(m),500,54210.5,54210.299999952316,50533.72,50603.59999990463,50550.492,54157.415,1,6,2,,ISIC_0009529.JPG
sequence,flow.Sequence,2_1,2023-09-08T19:49:23.428Z,,0,,,3659.807999952318,completion,,,,,true,,,,54210.59999990463,54210.299999952316,50533.72,50603.5,50550.492,54157.415,1,6,,,
trial,html.Screen,2_2_0,2023-09-08T19:49:26.329Z,,0,0,,2954.1849999046317,response,ISIC_0064954.JPG,,ISIC_9758671.JPG,ISIC_9758671.JPG,true,0,keypress(z),500,57111.799999952316,57111.59999990463,54140.7,54210.799999952316,54157.415,57046.337,1,6,3,,ISIC_0064954.JPG
sequence,flow.Sequence,2_2,2023-09-08T19:49:26.329Z,,0,,,2954.1849999046317,completion,,,,,true,,,,57111.89999985695,57111.59999990463,54140.7,54210.700000047684,54157.415,57046.337,1,6,,,
trial,html.Screen,2_3_0,2023-09-08T19:49:30.172Z,,0,0,,3907.9629999523167,response,ISIC_0005785.JPG,,ISIC_0000080.JPG,ISIC_0000080.JPG,true,0,keypress(z),500,60954.5,60954.299999952316,57029.894,57112.09999990463,57046.337,60887.164,1,6,4,,ISIC_0005785.JPG
sequence,flow.Sequence,2_3,2023-09-08T19:49:30.172Z,,0,,,3907.9629999523167,completion,,,,,true,,,,60954.59999990463,60954.299999952316,57029.894,57112,57046.337,60887.164,1,6,,,
trial,html.Screen,2_4_0,2023-09-08T19:49:33.825Z,,0,0,,3720.6359999523193,response,ISIC_5390060.JPG,,ISIC_7944028.JPG,ISIC_5390060.JPG,true,1,keypress(m),500,64607.89999985695,64607.799999952316,60870.462,60954.59999990463,60887.164,64544.28,1,6,5,,ISIC_7944028.JPG
sequence,flow.Sequence,2_4,2023-09-08T19:49:33.825Z,,0,,,3720.6359999523193,completion,,,,,true,,,,64608,64607.799999952316,60870.462,60954.59999990463,60887.164,64544.28,1,6,,,
trial,html.Screen,2_5_0,2023-09-08T19:49:37.522Z,,0,0,,3760.720000000001,response,ISIC_0010188.JPG,,ISIC_0794216.JPG,ISIC_0010188.JPG,true,1,keypress(m),500,68305.20000004768,68305,64527.679,64608.09999990463,64544.28,68251.52,1,6,6,,ISIC_0794216.JPG
sequence,flow.Sequence,2_5,2023-09-08T19:49:37.522Z,,0,,,3760.720000000001,completion,,,,,true,,,,68305.29999995232,68305,64527.679,64608,64544.28,68251.52,1,6,,,
loop,flow.Loop,2,2023-09-08T19:49:37.523Z,,,,,28792.735,completion,,,,,true,,,,68305.39999985695,68305,39495.606,39573.200000047684,39512.265,68251.52,1,6,,,
exp_instructions,html.Screen,3,2023-09-08T19:49:41.777Z,,,,,4308.18000004768,response,,,,,,continue,keypress(Space),,72560.39999985695,72559.70000004768,68234.804,68305.5,68251.52,72509.824,,,,,
trial,html.Screen,4_0_0,2023-09-08T19:49:48.812Z,,0,1,,7084.575999856956,response,ISIC_5423896.JPG,5,ISIC_0047031.JPG,ISIC_0047031.JPG,false,0,keypress(z),500,79594.5,79594.39999985695,72493.105,72560.5,72509.824,79540.134,8,400,1,,ISIC_5423896.JPG
break,html.Screen,4_0_1,2023-09-08T19:49:48.812Z,,0,,,NaN,,,,,,false,,,,79595.20000004768,79595,,79594.59999990463,,79540.134,8,400,,,
break_continue,html.Screen,4_0_2,2023-09-08T19:49:48.813Z,,0,,,NaN,,,,,,false,,,,79595.39999985695,79595.29999995232,,79595.20000004768,,79540.134,8,400,,,
sequence,flow.Sequence,4_0,2023-09-08T19:49:48.813Z,,0,,,7085.475999952323,completion,,,,,false,,,,79595.5,79595.29999995232,72493.105,72560.5,72509.824,79540.134,8,400,,,
trial,html.Screen,4_1_0,2023-09-08T19:49:53.679Z,,0,1,,4921.165999952311,response,ISIC_0061751.JPG,5,ISIC_1874480.JPG,ISIC_0061751.JPG,false,1,keypress(m),500,84461.39999985695,84461.29999995232,79523.452,79595.59999990463,79540.134,84399.591,8,400,2,,ISIC_1874480.JPG
break,html.Screen,4_1_1,2023-09-08T19:49:53.680Z,,0,,,NaN,,,,,,false,,,,84462.29999995232,84462.20000004768,,84462.09999990463,,84399.591,8,400,,,
break_continue,html.Screen,4_1_2,2023-09-08T19:49:53.680Z,,0,,,NaN,,,,,,false,,,,84462.5,84462.39999985695,,84462.39999985695,,84399.591,8,400,,,
sequence,flow.Sequence,4_1,2023-09-08T19:49:53.680Z,,0,,,4922.265999856943,completion,,,,,false,,,,84462.59999990463,84462.39999985695,79523.452,79595.59999990463,79540.134,84399.591,8,400,,,
trial,html.Screen,4_2_0,2023-09-08T19:50:00.288Z,,0,1,,6671.409,response,ISIC_4673648.JPG,6,ISIC_0069058.JPG,ISIC_0069058.JPG,false,0,keypress(z),500,91071.09999990463,91071,84382.906,84462.59999990463,84399.591,91012.468,8,400,3,,ISIC_4673648.JPG
break,html.Screen,4_2_1,2023-09-08T19:50:00.289Z,,0,,,NaN,,,,,,false,,,,91071.5,91071.39999985695,,91071.20000004768,,91012.468,8,400,,,
break_continue,html.Screen,4_2_2,2023-09-08T19:50:00.289Z,,0,,,NaN,,,,,,false,,,,91071.59999990463,91071.59999990463,,91071.59999990463,,91012.468,8,400,,,
sequence,flow.Sequence,4_2,2023-09-08T19:50:00.289Z,,0,,,6672.008999904632,completion,,,,,false,,,,91071.70000004768,91071.59999990463,84382.906,84462.59999990463,84399.591,91012.468,8,400,,,
trial,html.Screen,4_3_0,2023-09-08T19:50:05.074Z,,0,1,,4844.131999904639,response,ISIC_0065421.JPG,5,ISIC_0053734.JPG,ISIC_0053734.JPG,false,0,keypress(z),500,95856.70000004768,95856.59999990463,90995.75,91071.89999985695,91012.468,95805.287,8,400,4,,ISIC_0065421.JPG
break,html.Screen,4_3_1,2023-09-08T19:50:05.075Z,,0,,,NaN,,,,,,false,,,,95857.29999995232,95857.20000004768,,95857,,95805.287,8,400,,,
break_continue,html.Screen,4_3_2,2023-09-08T19:50:05.075Z,,0,,,NaN,,,,,,false,,,,95857.59999990463,95857.59999990463,,95857.5,,95805.287,8,400,,,
sequence,flow.Sequence,4_3,2023-09-08T19:50:05.075Z,,0,,,4845.131999904639,completion,,,,,false,,,,95857.79999995232,95857.59999990463,90995.75,91071.79999995232,91012.468,95805.287,8,400,,,
trial,html.Screen,4_4_0,2023-09-08T19:50:10.597Z,,0,1,,5574.01299995232,response,ISIC_0029933.JPG,5,ISIC_7530414.JPG,ISIC_0029933.JPG,false,1,keypress(m),500,101379.39999985695,101379.29999995232,95788.459,95858,95805.287,101315.848,8,400,5,,ISIC_7530414.JPG
break,html.Screen,4_4_1,2023-09-08T19:50:10.597Z,,0,,,NaN,,,,,,false,,,,101379.79999995232,101379.70000004768,,101379.5,,101315.848,8,400,,,
break_continue,html.Screen,4_4_2,2023-09-08T19:50:10.597Z,,0,,,NaN,,,,,,false,,,,101380,101379.79999995232,,101379.79999995232,,101315.848,8,400,,,
sequence,flow.Sequence,4_4,2023-09-08T19:50:10.597Z,,0,,,5574.51299995232,completion,,,,,false,,,,101380,101379.79999995232,95788.459,95857.89999985695,95805.287,101315.848,8,400,,,
trial,html.Screen,4_5_0,2023-09-08T19:50:17.688Z,,0,1,,7154.152000000002,response,ISIC_1115013.JPG,5,ISIC_9183042.JPG,ISIC_9183042.JPG,false,0,keypress(z),500,108470.20000004768,108470,101299.155,101380,101315.848,108413.008,8,400,6,,ISIC_1115013.JPG
break,html.Screen,4_5_1,2023-09-08T19:50:17.688Z,,0,,,NaN,,,,,,false,,,,108470.89999985695,108470.59999990463,,108470.39999985695,,108413.008,8,400,,,
break_continue,html.Screen,4_5_2,2023-09-08T19:50:17.689Z,,0,,,NaN,,,,,,false,,,,108471.20000004768,108471.09999990463,,108471.09999990463,,108413.008,8,400,,,
sequence,flow.Sequence,4_5,2023-09-08T19:50:17.689Z,,0,,,7155.251999904634,completion,,,,,false,,,,108471.39999985695,108471.09999990463,101299.155,101380,101315.848,108413.008,8,400,,,
trial,html.Screen,4_6_0,2023-09-08T19:50:23.963Z,,0,1,,6332.491999999998,response,ISIC_6028082.JPG,5,ISIC_0011238.JPG,ISIC_6028082.JPG,false,1,keypress(m),500,114745.59999990463,114745.5,108396.489,108471.5,108413.008,114691.961,8,400,7,,ISIC_0011238.JPG
break,html.Screen,4_6_1,2023-09-08T19:50:23.963Z,,0,,,NaN,,,,,,false,,,,114746,114745.89999985695,,114745.70000004768,,114691.961,8,400,,,
break_continue,html.Screen,4_6_2,2023-09-08T19:50:23.964Z,,0,,,NaN,,,,,,false,,,,114746.29999995232,114746.20000004768,,114746.20000004768,,114691.961,8,400,,,
sequence,flow.Sequence,4_6,2023-09-08T19:50:23.964Z,,0,,,6333.192000047682,completion,,,,,false,,,,114746.39999985695,114746.20000004768,108396.489,108471.39999985695,108413.008,114691.961,8,400,,,
trial,html.Screen,4_7_0,2023-09-08T19:50:32.397Z,,0,1,,8487.739000047688,response,ISIC_0005655.JPG,5,ISIC_4523565.JPG,ISIC_4523565.JPG,false,0,keypress(z),500,123179.79999995232,123179.70000004768,114675.34,114746.5,114691.961,123125.102,8,400,8,,ISIC_0005655.JPG
break,html.Screen,4_7_1,2023-09-08T19:50:32.398Z,,0,,,NaN,,,,,,false,,,,123180.5,123180.29999995232,,123180.09999990463,,123125.102,8,400,,,
break_continue,html.Screen,4_7_2,2023-09-08T19:50:32.398Z,,0,,,NaN,,,,,,false,,,,123181,123180.89999985695,,123180.79999995232,,123125.102,8,400,,,
sequence,flow.Sequence,4_7,2023-09-08T19:50:32.398Z,,0,,,8488.938999856953,completion,,,,,false,,,,123181.20000004768,123180.89999985695,114675.34,114746.39999985695,114691.961,123125.102,8,400,,,
trial,html.Screen,4_8_0,2023-09-08T19:50:37.584Z,,0,1,,5241.898000000001,response,ISIC_0027872.JPG,6,ISIC_0010415.JPG,ISIC_0010415.JPG,false,0,keypress(z),500,128367.09999990463,128367,123108.407,123181.29999995232,123125.102,128301.738,8,400,9,,ISIC_0027872.JPG
break,html.Screen,4_8_1,2023-09-08T19:50:37.585Z,,0,,,NaN,,,,,,false,,,,128367.79999995232,128367.59999990463,,128367.29999995232,,128301.738,8,400,,,
break_continue,html.Screen,4_8_2,2023-09-08T19:50:37.586Z,,0,,,NaN,,,,,,false,,,,128368.20000004768,128368.09999990463,,128368,,128301.738,8,400,,,
sequence,flow.Sequence,4_8,2023-09-08T19:50:37.586Z,,0,,,5242.997999904634,completion,,,,,false,,,,128368.39999985695,128368.09999990463,123108.407,123181.20000004768,123125.102,128301.738,8,400,,,
trial,html.Screen,4_9_0,2023-09-08T19:50:43.142Z,,0,1,,5622.962000047686,response,ISIC_0062158.JPG,5,ISIC_2193761.JPG,ISIC_0062158.JPG,false,1,keypress(m),500,133925,133924.70000004768,128285.001,128368.59999990463,128301.738,133862.575,8,400,10,,ISIC_2193761.JPG
break,html.Screen,4_9_1,2023-09-08T19:50:43.144Z,,0,,,NaN,,,,,,false,,,,133927.09999990463,133926.79999995232,,133926.39999985695,,133862.575,8,400,,,
break_continue,html.Screen,4_9_2,2023-09-08T19:50:43.145Z,,0,,,NaN,,,,,,false,,,,133927.5,133927.39999985695,,133927.20000004768,,133862.575,8,400,,,
sequence,flow.Sequence,4_9,2023-09-08T19:50:43.145Z,,0,,,5625.661999856951,completion,,,,,false,,,,133927.70000004768,133927.39999985695,128285.001,128368.5,128301.738,133862.575,8,400,,,
trial,html.Screen,4_10_0,2023-09-08T19:50:50.059Z,,0,1,,6979.125000047672,response,ISIC_0011435.JPG,5,ISIC_8048162.JPG,ISIC_8048162.JPG,false,0,keypress(z),500,140841.79999995232,140841.70000004768,133845.922,133927.79999995232,133862.575,140776.002,8,400,11,,ISIC_0011435.JPG
break,html.Screen,4_10_1,2023-09-08T19:50:50.060Z,,0,,,NaN,,,,,,false,,,,140842.09999990463,140842.09999990463,,140841.89999985695,,140776.002,8,400,,,
break_continue,html.Screen,4_10_2,2023-09-08T19:50:50.060Z,,0,,,NaN,,,,,,false,,,,140842.29999995232,140842.29999995232,,140842.20000004768,,140776.002,8,400,,,
sequence,flow.Sequence,4_10,2023-09-08T19:50:50.060Z,,0,,,6979.724999952305,completion,,,,,false,,,,140842.39999985695,140842.29999995232,133845.922,133927.79999995232,133862.575,140776.002,8,400,,,
trial,html.Screen,4_11_0,2023-09-08T19:50:56.608Z,,0,1,,6613.997999999992,response,ISIC_1499915.JPG,5,ISIC_0248628.JPG,ISIC_1499915.JPG,false,1,keypress(m),500,147390.09999990463,147390,140759.363,140842.39999985695,140776.002,147338.771,8,400,12,,ISIC_0248628.JPG
break,html.Screen,4_11_1,2023-09-08T19:50:56.608Z,,0,,,NaN,,,,,,false,,,,147390.70000004768,147390.5,,147390.20000004768,,147338.771,8,400,,,
break_continue,html.Screen,4_11_2,2023-09-08T19:50:56.608Z,,0,,,NaN,,,,,,false,,,,147390.89999985695,147390.70000004768,,147390.70000004768,,147338.771,8,400,,,
sequence,flow.Sequence,4_11,2023-09-08T19:50:56.608Z,,0,,,6614.698000047676,completion,,,,,false,,,,147390.89999985695,147390.70000004768,140759.363,140842.39999985695,140776.002,147338.771,8,400,,,
trial,html.Screen,4_12_0,2023-09-08T19:51:02.738Z,,0,1,,6181.528999952308,response,ISIC_0027109.JPG,5,ISIC_8634334.JPG,ISIC_8634334.JPG,false,0,keypress(z),500,153520.5,153520.29999995232,147322.018,147391,147338.771,153467.345,8,400,13,,ISIC_0027109.JPG
break,html.Screen,4_12_1,2023-09-08T19:51:02.738Z,,0,,,NaN,,,,,,false,,,,153520.79999995232,153520.70000004768,,153520.5,,153467.345,8,400,,,
break_continue,html.Screen,4_12_2,2023-09-08T19:51:02.739Z,,0,,,NaN,,,,,,false,,,,153521,153521,,153520.89999985695,,153467.345,8,400,,,
sequence,flow.Sequence,4_12,2023-09-08T19:51:02.739Z,,0,,,6182.228999999992,completion,,,,,false,,,,153521.09999990463,153521,147322.018,147391,147338.771,153467.345,8,400,,,
trial,html.Screen,4_13_0,2023-09-08T19:51:08.790Z,,0,1,,6104.554999856948,response,ISIC_3941123.JPG,5,ISIC_0592973.JPG,ISIC_3941123.JPG,false,1,keypress(m),500,159572.09999990463,159571.89999985695,153450.73,153521.09999990463,153467.345,159512.416,8,400,14,,ISIC_0592973.JPG
break,html.Screen,4_13_1,2023-09-08T19:51:08.790Z,,0,,,NaN,,,,,,false,,,,159572.59999990463,159572.5,,159572.20000004768,,159512.416,8,400,,,
break_continue,html.Screen,4_13_2,2023-09-08T19:51:08.791Z,,0,,,NaN,,,,,,false,,,,159572.89999985695,159572.89999985695,,159572.70000004768,,159512.416,8,400,,,
sequence,flow.Sequence,4_13,2023-09-08T19:51:08.791Z,,0,,,6105.554999856948,completion,,,,,false,,,,159573,159572.89999985695,153450.73,153521.09999990463,153467.345,159512.416,8,400,,,
trial,html.Screen,4_14_0,2023-09-08T19:51:14.568Z,,0,1,,5837.683999904635,response,ISIC_0064307.JPG,4,ISIC_0025127.JPG,ISIC_0025127.JPG,false,0,keypress(z),500,165350.09999990463,165350.09999990463,159495.73,159573,159512.416,165290.332,8,400,15,,ISIC_0064307.JPG
break,html.Screen,4_14_1,2023-09-08T19:51:14.568Z,,0,,,NaN,,,,,,false,,,,165350.5,165350.39999985695,,165350.20000004768,,165290.332,8,400,,,
break_continue,html.Screen,4_14_2,2023-09-08T19:51:14.568Z,,0,,,NaN,,,,,,false,,,,165350.79999995232,165350.70000004768,,165350.59999990463,,165290.332,8,400,,,
sequence,flow.Sequence,4_14,2023-09-08T19:51:14.568Z,,0,,,5838.284000047686,completion,,,,,false,,,,165350.79999995232,165350.70000004768,159495.73,159573,159512.416,165290.332,8,400,,,
trial,html.Screen,4_15_0,2023-09-08T19:51:21.339Z,,0,1,,6830.467999952321,response,ISIC_0011380.JPG,5,ISIC_0046672.JPG,ISIC_0046672.JPG,false,0,keypress(z),500,172121.09999990463,172120.79999995232,165273.672,165350.89999985695,165290.332,172070.285,8,400,16,,ISIC_0011380.JPG
break,html.Screen,4_15_1,2023-09-08T19:51:21.340Z,,0,,,NaN,,,,,,false,,,,172122.89999985695,172122.5,,172121.70000004768,,172070.285,8,400,,,
break_continue,html.Screen,4_15_2,2023-09-08T19:51:21.341Z,,0,,,NaN,,,,,,false,,,,172123.39999985695,172123.20000004768,,172123.09999990463,,172070.285,8,400,,,
sequence,flow.Sequence,4_15,2023-09-08T19:51:21.341Z,,0,,,6832.868000047689,completion,,,,,false,,,,172123.70000004768,172123.20000004768,165273.672,165350.79999995232,165290.332,172070.285,8,400,,,
trial,html.Screen,4_16_0,2023-09-08T19:51:26.703Z,,0,1,,5415.2149999999965,response,ISIC_0000087.JPG,5,ISIC_6697332.JPG,ISIC_0000087.JPG,false,1,keypress(m),500,177485.70000004768,177485.5,172053.662,172123.79999995232,172070.285,177430.724,8,400,17,,ISIC_6697332.JPG
break,html.Screen,4_16_1,2023-09-08T19:51:26.704Z,,0,,,NaN,,,,,,false,,,,177486.29999995232,177486.20000004768,,177485.89999985695,,177430.724,8,400,,,
break_continue,html.Screen,4_16_2,2023-09-08T19:51:26.704Z,,0,,,NaN,,,,,,false,,,,177486.70000004768,177486.59999990463,,177486.5,,177430.724,8,400,,,
sequence,flow.Sequence,4_16,2023-09-08T19:51:26.704Z,,0,,,5416.314999904629,completion,,,,,false,,,,177486.89999985695,177486.59999990463,172053.662,172123.79999995232,172070.285,177430.724,8,400,,,
trial,html.Screen,4_17_0,2023-09-08T19:51:31.636Z,,0,1,,4987.476000047696,response,ISIC_0066626.JPG,4,ISIC_0010866.JPG,ISIC_0010866.JPG,false,0,keypress(z),500,182418.39999985695,182418.20000004768,177413.973,177487,177430.724,182356.973,8,400,18,,ISIC_0066626.JPG
break,html.Screen,4_17_1,2023-09-08T19:51:31.637Z,,0,,,NaN,,,,,,false,,,,182419,182418.89999985695,,182418.59999990463,,182356.973,8,400,,,
break_continue,html.Screen,4_17_2,2023-09-08T19:51:31.637Z,,0,,,NaN,,,,,,false,,,,182419.29999995232,182419.20000004768,,182419.09999990463,,182356.973,8,400,,,
sequence,flow.Sequence,4_17,2023-09-08T19:51:31.637Z,,0,,,4988.476000047696,completion,,,,,false,,,,182419.5,182419.20000004768,177413.973,177487,177430.724,182356.973,8,400,,,
trial,html.Screen,4_18_0,2023-09-08T19:51:40.215Z,,0,1,,8640.027000000002,response,ISIC_8882374.JPG,5,ISIC_2479134.JPG,ISIC_8882374.JPG,false,1,keypress(m),500,190997.20000004768,190997,182340.518,182419.59999990463,182356.973,190940.273,8,400,19,,ISIC_2479134.JPG
break,html.Screen,4_18_1,2023-09-08T19:51:40.215Z,,0,,,NaN,,,,,,false,,,,190997.59999990463,190997.39999985695,,190997.29999995232,,190940.273,8,400,,,
break_continue,html.Screen,4_18_2,2023-09-08T19:51:40.215Z,,0,,,NaN,,,,,,false,,,,190997.70000004768,190997.59999990463,,190997.59999990463,,190940.273,8,400,,,
sequence,flow.Sequence,4_18,2023-09-08T19:51:40.215Z,,0,,,8640.626999904634,completion,,,,,false,,,,190997.89999985695,190997.59999990463,182340.518,182419.59999990463,182356.973,190940.273,8,400,,,
trial,html.Screen,4_19_0,2023-09-08T19:51:47.081Z,,0,1,,6922.927000047697,response,ISIC_6916924.JPG,4,ISIC_0026627.JPG,ISIC_0026627.JPG,false,0,keypress(z),500,197863.39999985695,197863.20000004768,190923.798,190997.89999985695,190940.273,197803.649,8,400,20,,ISIC_6916924.JPG
break,html.Screen,4_19_1,2023-09-08T19:51:47.082Z,,0,,,NaN,,,,,,false,,,,197863.89999985695,197863.79999995232,,197863.59999990463,,197803.649,8,400,,,
break_continue,html.Screen,4_19_2,2023-09-08T19:51:47.082Z,,0,,,NaN,,,,,,false,,,,197864.39999985695,197864.29999995232,,197864.20000004768,,197803.649,8,400,,,
sequence,flow.Sequence,4_19,2023-09-08T19:51:47.082Z,,0,,,6924.02699995233,completion,,,,,false,,,,197864.5,197864.29999995232,190923.798,190997.89999985695,190940.273,197803.649,8,400,,,
trial,html.Screen,4_20_0,2023-09-08T19:51:53.902Z,,0,1,,6880.750999856944,response,ISIC_9483306.JPG,5,ISIC_2597678.JPG,ISIC_2597678.JPG,false,0,keypress(z),500,204684.59999990463,204684.39999985695,197786.938,197864.59999990463,197803.649,204633.624,8,400,21,,ISIC_9483306.JPG
break,html.Screen,4_20_1,2023-09-08T19:51:53.903Z,,0,,,NaN,,,,,,false,,,,204685.20000004768,204685,,204684.70000004768,,204633.624,8,400,,,
break_continue,html.Screen,4_20_2,2023-09-08T19:51:53.903Z,,0,,,NaN,,,,,,false,,,,204685.59999990463,204685.5,,204685.39999985695,,204633.624,8,400,,,
sequence,flow.Sequence,4_20,2023-09-08T19:51:53.904Z,,0,,,6881.850999999995,completion,,,,,false,,,,204685.79999995232,204685.5,197786.938,197864.59999990463,197803.649,204633.624,8,400,,,
trial,html.Screen,4_21_0,2023-09-08T19:52:01.636Z,,0,1,,7784.775999856938,response,ISIC_0072182.JPG,5,ISIC_0033369.JPG,ISIC_0072182.JPG,false,1,keypress(m),500,212418.59999990463,212418.39999985695,204616.901,204685.79999995232,204633.624,212365.376,8,400,22,,ISIC_0033369.JPG
break,html.Screen,4_21_1,2023-09-08T19:52:01.637Z,,0,,,NaN,,,,,,false,,,,212419.59999990463,212419.39999985695,,212419,,212365.376,8,400,,,
break_continue,html.Screen,4_21_2,2023-09-08T19:52:01.638Z,,0,,,NaN,,,,,,false,,,,212419.79999995232,212419.70000004768,,212419.59999990463,,212365.376,8,400,,,
sequence,flow.Sequence,4_21,2023-09-08T19:52:01.638Z,,0,,,7786.076000047673,completion,,,,,false,,,,212420,212419.70000004768,204616.901,204685.79999995232,204633.624,212365.376,8,400,,,
trial,html.Screen,4_22_0,2023-09-08T19:52:08.060Z,,0,1,,6476.423999952327,response,ISIC_1234463.JPG,5,ISIC_0030254.JPG,ISIC_0030254.JPG,false,0,keypress(z),500,218841.89999985695,218841.79999995232,212348.551,212420,212365.376,218777.786,8,400,23,,ISIC_1234463.JPG
break,html.Screen,4_22_1,2023-09-08T19:52:08.060Z,,0,,,NaN,,,,,,false,,,,218842.59999990463,218842.5,,218842.29999995232,,218777.786,8,400,,,
break_continue,html.Screen,4_22_2,2023-09-08T19:52:08.061Z,,0,,,NaN,,,,,,false,,,,218842.79999995232,218842.79999995232,,218842.70000004768,,218777.786,8,400,,,
sequence,flow.Sequence,4_22,2023-09-08T19:52:08.061Z,,0,,,6477.423999952327,completion,,,,,false,,,,218842.89999985695,218842.79999995232,212348.551,212420,212365.376,218777.786,8,400,,,
trial,html.Screen,4_23_0,2023-09-08T19:52:12.831Z,,0,1,,4835.113999856956,response,ISIC_0030183.JPG,6,ISIC_0031625.JPG,ISIC_0030183.JPG,false,1,keypress(m),500,223613.09999990463,223612.89999985695,218761.236,218843,218777.786,223553.727,8,400,24,,ISIC_0031625.JPG
break,html.Screen,4_23_1,2023-09-08T19:52:12.831Z,,0,,,NaN,,,,,,false,,,,223613.70000004768,223613.59999990463,,223613.29999995232,,223553.727,8,400,,,
break_continue,html.Screen,4_23_2,2023-09-08T19:52:12.832Z,,0,,,NaN,,,,,,false,,,,223614.09999990463,223614,,223613.79999995232,,223553.727,8,400,,,
sequence,flow.Sequence,4_23,2023-09-08T19:52:12.832Z,,0,,,4836.214000000007,completion,,,,,false,,,,223614.20000004768,223614,218761.236,218843,218777.786,223553.727,8,400,,,
trial,html.Screen,4_24_0,2023-09-08T19:52:20.530Z,,0,1,,7758.172999856935,response,ISIC_8945395.JPG,5,ISIC_0028467.JPG,ISIC_0028467.JPG,false,0,keypress(z),500,231312,231311.89999985695,223537.051,223614.29999995232,223553.727,231252.041,8,400,25,,ISIC_8945395.JPG
break,html.Screen,4_24_1,2023-09-08T19:52:20.530Z,,0,,,NaN,,,,,,false,,,,231312.29999995232,231312.29999995232,,231312.09999990463,,231252.041,8,400,,,
break_continue,html.Screen,4_24_2,2023-09-08T19:52:20.530Z,,0,,,NaN,,,,,,false,,,,231312.5,231312.39999985695,,231312.39999985695,,231252.041,8,400,,,
sequence,flow.Sequence,4_24,2023-09-08T19:52:20.530Z,,0,,,7758.672999856935,completion,,,,,false,,,,231312.59999990463,231312.39999985695,223537.051,223614.29999995232,223553.727,231252.041,8,400,,,
trial,html.Screen,4_25_0,2023-09-08T19:52:26.325Z,,0,1,,5854.858999856951,response,ISIC_5281576.JPG,5,ISIC_1772828.JPG,ISIC_5281576.JPG,false,1,keypress(m),500,237107,237106.89999985695,231235.467,231313.20000004768,231252.041,237046.666,8,400,26,,ISIC_1772828.JPG
break,html.Screen,4_25_1,2023-09-08T19:52:26.325Z,,0,,,NaN,,,,,,false,,,,237107.29999995232,237107.20000004768,,237107.09999990463,,237046.666,8,400,,,
break_continue,html.Screen,4_25_2,2023-09-08T19:52:26.325Z,,0,,,NaN,,,,,,false,,,,237107.39999985695,237107.39999985695,,237107.29999995232,,237046.666,8,400,,,
sequence,flow.Sequence,4_25,2023-09-08T19:52:26.325Z,,0,,,5855.358999856951,completion,,,,,false,,,,237107.59999990463,237107.39999985695,231235.467,231313.20000004768,231252.041,237046.666,8,400,,,
trial,html.Screen,4_26_0,2023-09-08T19:52:31.191Z,,0,1,,4926.534000047686,response,ISIC_8393181.JPG,5,ISIC_2633745.JPG,ISIC_8393181.JPG,false,1,keypress(m),500,241973.5,241973.20000004768,237030.024,237107.59999990463,237046.666,241906.112,8,400,27,,ISIC_2633745.JPG
break,html.Screen,4_26_1,2023-09-08T19:52:31.192Z,,0,,,NaN,,,,,,false,,,,241974.29999995232,241974.09999990463,,241973.70000004768,,241906.112,8,400,,,
break_continue,html.Screen,4_26_2,2023-09-08T19:52:31.193Z,,0,,,NaN,,,,,,false,,,,241975.09999990463,241975,,241974.79999995232,,241906.112,8,400,,,
sequence,flow.Sequence,4_26,2023-09-08T19:52:31.193Z,,0,,,4928.334000000003,completion,,,,,false,,,,241975.29999995232,241975,237030.024,237107.59999990463,237046.666,241906.112,8,400,,,
trial,html.Screen,4_27_0,2023-09-08T19:52:38.171Z,,0,1,,7047.08800004769,response,ISIC_3992223.JPG,4,ISIC_9785077.JPG,ISIC_9785077.JPG,false,0,keypress(z),500,248953.29999995232,248953.20000004768,241889.409,241975.5,241906.112,248886.368,8,400,28,,ISIC_3992223.JPG
break,html.Screen,4_27_1,2023-09-08T19:52:38.172Z,,0,,,NaN,,,,,,false,,,,248953.79999995232,248953.70000004768,,248953.5,,248886.368,8,400,,,
break_continue,html.Screen,4_27_2,2023-09-08T19:52:38.172Z,,0,,,NaN,,,,,,false,,,,248954.09999990463,248954,,248953.89999985695,,248886.368,8,400,,,
sequence,flow.Sequence,4_27,2023-09-08T19:52:38.172Z,,0,,,7047.888000000006,completion,,,,,false,,,,248954.20000004768,248954,241889.409,241975.5,241906.112,248886.368,8,400,,,
trial,html.Screen,4_28_0,2023-09-08T19:52:43.405Z,,0,1,,5300.832000047696,response,ISIC_1976571.JPG,4,ISIC_0030921.JPG,ISIC_0030921.JPG,false,0,keypress(z),500,254187.5,254187.20000004768,248869.712,248954.20000004768,248886.368,254129.932,8,400,29,,ISIC_1976571.JPG
break,html.Screen,4_28_1,2023-09-08T19:52:43.406Z,,0,,,NaN,,,,,,false,,,,254188.70000004768,254188.39999985695,,254188,,254129.932,8,400,,,
break_continue,html.Screen,4_28_2,2023-09-08T19:52:43.407Z,,0,,,NaN,,,,,,false,,,,254189.29999995232,254189.09999990463,,254188.89999985695,,254129.932,8,400,,,
sequence,flow.Sequence,4_28,2023-09-08T19:52:43.407Z,,0,,,5302.731999904645,completion,,,,,false,,,,254189.59999990463,254189.09999990463,248869.712,248954.20000004768,248886.368,254129.932,8,400,,,
trial,html.Screen,4_29_0,2023-09-08T19:52:50.737Z,,0,1,,7389.067999999999,response,ISIC_0010852.JPG,5,ISIC_0170101.JPG,ISIC_0170101.JPG,false,0,keypress(z),500,261519.20000004768,261519,254113.434,254189.89999985695,254129.932,261461.012,8,400,30,,ISIC_0010852.JPG
break,html.Screen,4_29_1,2023-09-08T19:52:50.737Z,,0,,,NaN,,,,,,false,,,,261519.59999990463,261519.39999985695,,261519.29999995232,,261461.012,8,400,,,
break_continue,html.Screen,4_29_2,2023-09-08T19:52:50.738Z,,0,,,NaN,,,,,,false,,,,261519.79999995232,261519.70000004768,,261519.70000004768,,261461.012,8,400,,,
sequence,flow.Sequence,4_29,2023-09-08T19:52:50.738Z,,0,,,7389.768000047683,completion,,,,,false,,,,261519.89999985695,261519.70000004768,254113.434,254189.79999995232,254129.932,261461.012,8,400,,,
trial,html.Screen,4_30_0,2023-09-08T19:52:55.988Z,,0,1,,5308.688000047696,response,ISIC_0008424.JPG,6,ISIC_0060705.JPG,ISIC_0060705.JPG,false,0,keypress(z),500,266769.89999985695,266769.7000000477,261444.138,261519.89999985695,261461.012,266704.35,8,400,31,,ISIC_0008424.JPG
break,html.Screen,4_30_1,2023-09-08T19:52:55.989Z,,0,,,NaN,,,,,,false,,,,266770.7000000477,266770.39999985695,,266770.2000000477,,266704.35,8,400,,,
break_continue,html.Screen,4_30_2,2023-09-08T19:52:55.989Z,,0,,,NaN,,,,,,false,,,,266771.09999990463,266771,,266770.7999999523,,266704.35,8,400,,,
sequence,flow.Sequence,4_30,2023-09-08T19:52:55.989Z,,0,,,5309.988000000012,completion,,,,,false,,,,266771.2999999523,266771,261444.138,261519.89999985695,261461.012,266704.35,8,400,,,
trial,html.Screen,4_31_0,2023-09-08T19:53:03.303Z,,0,1,,7380.850000047707,response,ISIC_0011626.JPG,6,ISIC_8502341.JPG,ISIC_0011626.JPG,false,1,keypress(m),500,274085.39999985695,274085.2000000477,266687.843,266771.2999999523,266704.35,274018.668,8,400,32,,ISIC_8502341.JPG
break,html.Screen,4_31_1,2023-09-08T19:53:03.304Z,,0,,,NaN,,,,,,false,,,,274086.2000000477,274086,,274085.7000000477,,274018.668,8,400,,,
break_continue,html.Screen,4_31_2,2023-09-08T19:53:03.305Z,,0,,,NaN,,,,,,false,,,,274086.7000000477,274086.5,,274086.39999985695,,274018.668,8,400,,,
sequence,flow.Sequence,4_31,2023-09-08T19:53:03.305Z,,0,,,7382.150000000023,completion,,,,,false,,,,274086.89999985695,274086.5,266687.843,266771.2999999523,266704.35,274018.668,8,400,,,
trial,html.Screen,4_32_0,2023-09-08T19:53:07.389Z,,0,1,,4152.631999952311,response,ISIC_2682861.JPG,5,ISIC_2142639.JPG,ISIC_2682861.JPG,false,1,keypress(m),500,278171.5,278171.2999999523,274001.987,274087.2999999523,274018.668,278110.071,8,400,33,,ISIC_2142639.JPG
break,html.Screen,4_32_1,2023-09-08T19:53:07.390Z,,0,,,NaN,,,,,,false,,,,278172,278171.7999999523,,278171.7000000477,,278110.071,8,400,,,
break_continue,html.Screen,4_32_2,2023-09-08T19:53:07.390Z,,0,,,NaN,,,,,,false,,,,278172.39999985695,278172.2999999523,,278172.2999999523,,278110.071,8,400,,,
sequence,flow.Sequence,4_32,2023-09-08T19:53:07.390Z,,0,,,4153.631999952311,completion,,,,,false,,,,278172.5,278172.2999999523,274001.987,274087.2000000477,274018.668,278110.071,8,400,,,
trial,html.Screen,4_33_0,2023-09-08T19:53:14.545Z,,0,1,,7216.328999856953,response,ISIC_0029993.JPG,4,ISIC_0057032.JPG,ISIC_0057032.JPG,false,0,keypress(z),500,285326.59999990463,285326.39999985695,278093.462,278172.59999990463,278110.071,285273.877,8,400,34,,ISIC_0029993.JPG
break,html.Screen,4_33_1,2023-09-08T19:53:14.545Z,,0,,,NaN,,,,,,false,,,,285327.39999985695,285327.09999990463,,285326.89999985695,,285273.877,8,400,,,
break_continue,html.Screen,4_33_2,2023-09-08T19:53:14.546Z,,0,,,NaN,,,,,,false,,,,285327.7000000477,285327.59999990463,,285327.39999985695,,285273.877,8,400,,,
sequence,flow.Sequence,4_33,2023-09-08T19:53:14.546Z,,0,,,7217.528999904636,completion,,,,,false,,,,285327.89999985695,285327.59999990463,278093.462,278172.5,278110.071,285273.877,8,400,,,
trial,html.Screen,4_34_0,2023-09-08T19:53:20.791Z,,0,1,,6299.02299985697,response,ISIC_3576000.JPG,5,ISIC_9094080.JPG,ISIC_3576000.JPG,false,1,keypress(m),500,291573,291572.89999985695,285257.235,285328,285273.877,291519.325,8,400,35,,ISIC_9094080.JPG
break,html.Screen,4_34_1,2023-09-08T19:53:20.791Z,,0,,,NaN,,,,,,false,,,,291573.2999999523,291573.2000000477,,291573.09999990463,,291519.325,8,400,,,
break_continue,html.Screen,4_34_2,2023-09-08T19:53:20.791Z,,0,,,NaN,,,,,,false,,,,291573.5,291573.39999985695,,291573.39999985695,,291519.325,8,400,,,
sequence,flow.Sequence,4_34,2023-09-08T19:53:20.791Z,,0,,,6299.52299985697,completion,,,,,false,,,,291573.59999990463,291573.39999985695,285257.235,285328,285273.877,291519.325,8,400,,,
trial,html.Screen,4_35_0,2023-09-08T19:53:26.250Z,,0,1,,5511.974999952305,response,ISIC_0053734.JPG,5,ISIC_0028501.JPG,ISIC_0053734.JPG,false,1,keypress(m),500,297031.7999999523,297031.2999999523,291502.704,291573.59999990463,291519.325,296980.014,8,400,36,,ISIC_0028501.JPG
break,html.Screen,4_35_1,2023-09-08T19:53:26.251Z,,0,,,NaN,,,,,,false,,,,297032.89999985695,297032.59999990463,,297032.2999999523,,296980.014,8,400,,,
break_continue,html.Screen,4_35_2,2023-09-08T19:53:26.251Z,,0,,,NaN,,,,,,false,,,,297033.39999985695,297033.2999999523,,297033.09999990463,,296980.014,8,400,,,
sequence,flow.Sequence,4_35,2023-09-08T19:53:26.251Z,,0,,,5513.974999952305,completion,,,,,false,,,,297033.59999990463,297033.2999999523,291502.704,291573.59999990463,291519.325,296980.014,8,400,,,
trial,html.Screen,4_36_0,2023-09-08T19:53:33.566Z,,0,1,,7367.785999952292,response,ISIC_6714082.JPG,5,ISIC_0033073.JPG,ISIC_6714082.JPG,false,1,keypress(m),500,304347.89999985695,304347.7999999523,296963.316,297033.7000000477,296980.014,304294.246,8,400,37,,ISIC_0033073.JPG
break,html.Screen,4_36_1,2023-09-08T19:53:33.566Z,,0,,,NaN,,,,,,false,,,,304348.2999999523,304348.2999999523,,304348.09999990463,,304294.246,8,400,,,
break_continue,html.Screen,4_36_2,2023-09-08T19:53:33.567Z,,0,,,NaN,,,,,,false,,,,304348.7000000477,304348.5,,304348.39999985695,,304294.246,8,400,,,
sequence,flow.Sequence,4_36,2023-09-08T19:53:33.567Z,,0,,,7368.485999999975,completion,,,,,false,,,,304348.7999999523,304348.5,296963.316,297033.7000000477,296980.014,304294.246,8,400,,,
trial,html.Screen,4_37_0,2023-09-08T19:53:40.598Z,,0,1,,7085.254000000015,response,ISIC_5785408.JPG,5,ISIC_1048913.JPG,ISIC_1048913.JPG,false,0,keypress(z),500,311379.7000000477,311379.5,304277.487,304349.2999999523,304294.246,311324.509,8,400,38,,ISIC_5785408.JPG
break,html.Screen,4_37_1,2023-09-08T19:53:40.598Z,,0,,,NaN,,,,,,false,,,,311380.2000000477,311380.09999990463,,311379.89999985695,,311324.509,8,400,,,
break_continue,html.Screen,4_37_2,2023-09-08T19:53:40.598Z,,0,,,NaN,,,,,,false,,,,311380.39999985695,311380.2999999523,,311380.2999999523,,311324.509,8,400,,,
sequence,flow.Sequence,4_37,2023-09-08T19:53:40.598Z,,0,,,7086.053999952332,completion,,,,,false,,,,311380.59999990463,311380.2999999523,304277.487,304348.7999999523,304294.246,311324.509,8,400,,,
trial,html.Screen,4_38_0,2023-09-08T19:53:46.520Z,,0,1,,5976.790999952296,response,ISIC_0024694.JPG,5,ISIC_5392118.JPG,ISIC_0024694.JPG,false,1,keypress(m),500,317301.39999985695,317301.2999999523,311307.942,311380.7000000477,311324.509,317236.039,8,400,39,,ISIC_5392118.JPG
break,html.Screen,4_38_1,2023-09-08T19:53:46.520Z,,0,,,NaN,,,,,,false,,,,317301.7999999523,317301.7000000477,,317301.5,,317236.039,8,400,,,
break_continue,html.Screen,4_38_2,2023-09-08T19:53:46.520Z,,0,,,NaN,,,,,,false,,,,317302,317302,,317301.89999985695,,317236.039,8,400,,,
sequence,flow.Sequence,4_38,2023-09-08T19:53:46.520Z,,0,,,5977.49099999998,completion,,,,,false,,,,317302.09999990463,317302,311307.942,311380.59999990463,311324.509,317236.039,8,400,,,
trial,html.Screen,4_39_0,2023-09-08T19:53:54.091Z,,0,1,,7636.360999856959,response,ISIC_0059948.JPG,5,ISIC_0058858.JPG,ISIC_0059948.JPG,false,1,keypress(m),500,324872.7000000477,324872.39999985695,317219.472,317302.2000000477,317236.039,324817.462,8,400,40,,ISIC_0058858.JPG
break,html.Screen,4_39_1,2023-09-08T19:53:54.092Z,,0,,,NaN,,,,,,false,,,,324873.7000000477,324873.39999985695,,324873,,324817.462,8,400,,,
break_continue,html.Screen,4_39_2,2023-09-08T19:53:54.092Z,,0,,,NaN,,,,,,false,,,,324874,324873.89999985695,,324873.7999999523,,324817.462,8,400,,,
sequence,flow.Sequence,4_39,2023-09-08T19:53:54.092Z,,0,,,7637.860999856959,completion,,,,,false,,,,324874.2000000477,324873.89999985695,317219.472,317302.2000000477,317236.039,324817.462,8,400,,,
trial,html.Screen,4_40_0,2023-09-08T19:53:58.452Z,,0,1,,4415.738000047684,response,ISIC_0031397.JPG,5,ISIC_5071555.JPG,ISIC_0031397.JPG,false,1,keypress(m),500,329233.2999999523,329233.2000000477,324800.865,324874.5,324817.462,329175.925,8,400,41,,ISIC_5071555.JPG
break,html.Screen,4_40_1,2023-09-08T19:53:58.452Z,,0,,,NaN,,,,,,false,,,,329233.7999999523,329233.7000000477,,329233.59999990463,,329175.925,8,400,,,
break_continue,html.Screen,4_40_2,2023-09-08T19:53:58.452Z,,0,,,NaN,,,,,,false,,,,329234.09999990463,329234,,329233.89999985695,,329175.925,8,400,,,
sequence,flow.Sequence,4_40,2023-09-08T19:53:58.452Z,,0,,,4416.5380000000005,completion,,,,,false,,,,329234.2000000477,329234,324800.865,324874.2999999523,324817.462,329175.925,8,400,,,
trial,html.Screen,4_41_0,2023-09-08T19:54:07.142Z,,0,1,,8747.97499985696,response,ISIC_0055742.JPG,4,ISIC_0024752.JPG,ISIC_0055742.JPG,false,1,keypress(m),500,337924.2000000477,337923.89999985695,329159.328,329234.39999985695,329175.925,337859.603,8,400,42,,ISIC_0024752.JPG
break,html.Screen,4_41_1,2023-09-08T19:54:07.144Z,,0,,,NaN,,,,,,false,,,,337925.7000000477,337925.2999999523,,337924.59999990463,,337859.603,8,400,,,
break_continue,html.Screen,4_41_2,2023-09-08T19:54:07.145Z,,0,,,NaN,,,,,,false,,,,337926.39999985695,337926.09999990463,,337925.89999985695,,337859.603,8,400,,,
sequence,flow.Sequence,4_41,2023-09-08T19:54:07.145Z,,0,,,8750.174999904644,completion,,,,,false,,,,337926.7000000477,337926.09999990463,329159.328,329234.39999985695,329175.925,337859.603,8,400,,,
trial,html.Screen,4_42_0,2023-09-08T19:54:14.099Z,,0,1,,7020.597000047681,response,ISIC_5900778.JPG,6,ISIC_8253317.JPG,ISIC_5900778.JPG,false,1,keypress(m),500,344880.39999985695,344880.2000000477,337842.775,337926.89999985695,337859.603,344823.15,8,400,43,,ISIC_8253317.JPG
break,html.Screen,4_42_1,2023-09-08T19:54:14.099Z,,0,,,NaN,,,,,,false,,,,344881.2999999523,344881.09999990463,,344880.7000000477,,344823.15,8,400,,,
break_continue,html.Screen,4_42_2,2023-09-08T19:54:14.100Z,,0,,,NaN,,,,,,false,,,,344881.7999999523,344881.7000000477,,344881.5,,344823.15,8,400,,,
sequence,flow.Sequence,4_42,2023-09-08T19:54:14.100Z,,0,,,7022.097000047681,completion,,,,,false,,,,344882.09999990463,344881.7000000477,337842.775,337926.7999999523,337859.603,344823.15,8,400,,,
trial,html.Screen,4_43_0,2023-09-08T19:54:19.928Z,,0,1,,5886.55000004766,response,ISIC_5509212.JPG,5,ISIC_0012208.JPG,ISIC_5509212.JPG,false,1,keypress(m),500,350709.7999999523,350709.7000000477,344806.341,344882.2000000477,344823.15,350651.046,8,400,44,,ISIC_0012208.JPG
break,html.Screen,4_43_1,2023-09-08T19:54:19.928Z,,0,,,NaN,,,,,,false,,,,350710.2999999523,350710.2000000477,,350710,,350651.046,8,400,,,
break_continue,html.Screen,4_43_2,2023-09-08T19:54:19.929Z,,0,,,NaN,,,,,,false,,,,350710.5,350710.39999985695,,350710.2999999523,,350651.046,8,400,,,
sequence,flow.Sequence,4_43,2023-09-08T19:54:19.929Z,,0,,,5887.249999856926,completion,,,,,false,,,,350710.5,350710.39999985695,344806.341,344882.2000000477,344823.15,350651.046,8,400,,,
trial,html.Screen,4_44_0,2023-09-08T19:54:25.898Z,,0,1,,6028.654000047711,response,ISIC_0034243.JPG,5,ISIC_0057716.JPG,ISIC_0034243.JPG,false,1,keypress(m),500,356680.09999990463,356679.7000000477,350634.372,350710.59999990463,350651.046,356629.414,8,400,45,,ISIC_0057716.JPG
break,html.Screen,4_44_1,2023-09-08T19:54:25.900Z,,0,,,NaN,,,,,,false,,,,356681.7999999523,356681,,356680.5,,356629.414,8,400,,,
break_continue,html.Screen,4_44_2,2023-09-08T19:54:25.901Z,,0,,,NaN,,,,,,false,,,,356682.7000000477,356682.2999999523,,356682.09999990463,,356629.414,8,400,,,
sequence,flow.Sequence,4_44,2023-09-08T19:54:25.901Z,,0,,,6031.253999952343,completion,,,,,false,,,,356683,356682.2999999523,350634.372,350710.59999990463,350651.046,356629.414,8,400,,,
trial,html.Screen,4_45_0,2023-09-08T19:54:32.404Z,,0,1,,6556.286000047694,response,ISIC_6381981.JPG,6,ISIC_0032841.JPG,ISIC_6381981.JPG,false,1,keypress(m),500,363186.09999990463,363185.7000000477,356612.761,356683.2999999523,356629.414,363125.328,8,400,46,,ISIC_0032841.JPG
break,html.Screen,4_45_1,2023-09-08T19:54:32.405Z,,0,,,NaN,,,,,,false,,,,363187.09999990463,363186.89999985695,,363186.39999985695,,363125.328,8,400,,,
break_continue,html.Screen,4_45_2,2023-09-08T19:54:32.406Z,,0,,,NaN,,,,,,false,,,,363187.7999999523,363187.59999990463,,363187.39999985695,,363125.328,8,400,,,
sequence,flow.Sequence,4_45,2023-09-08T19:54:32.406Z,,0,,,6558.185999904643,completion,,,,,false,,,,363188.09999990463,363187.59999990463,356612.761,356683.2000000477,356629.414,363125.328,8,400,,,
trial,html.Screen,4_46_0,2023-09-08T19:54:38.173Z,,0,1,,5829.6720000000205,response,ISIC_0012065.JPG,6,ISIC_0055491.JPG,ISIC_0055491.JPG,false,0,keypress(z),500,368955.09999990463,368955,363108.806,363188.2999999523,363125.328,368903.221,8,400,47,,ISIC_0012065.JPG
break,html.Screen,4_46_1,2023-09-08T19:54:38.174Z,,0,,,NaN,,,,,,false,,,,368955.5,368955.39999985695,,368955.2000000477,,368903.221,8,400,,,
break_continue,html.Screen,4_46_2,2023-09-08T19:54:38.174Z,,0,,,NaN,,,,,,false,,,,368955.7000000477,368955.59999990463,,368955.5,,368903.221,8,400,,,
sequence,flow.Sequence,4_46,2023-09-08T19:54:38.174Z,,0,,,5830.271999904653,completion,,,,,false,,,,368955.7999999523,368955.59999990463,363108.806,363188.2000000477,363125.328,368903.221,8,400,,,
trial,html.Screen,4_47_0,2023-09-08T19:54:45.503Z,,0,1,,7381.678999856929,response,ISIC_6854940.JPG,6,ISIC_6340564.JPG,ISIC_6340564.JPG,false,0,keypress(z),500,376285.09999990463,376284.89999985695,368886.719,368955.7999999523,368903.221,376234.175,8,400,48,,ISIC_6854940.JPG
break,html.Screen,4_47_1,2023-09-08T19:54:45.504Z,,0,,,NaN,,,,,,false,,,,376285.5,376285.2999999523,,376285.09999990463,,376234.175,8,400,,,
break_continue,html.Screen,4_47_2,2023-09-08T19:54:45.504Z,,0,,,NaN,,,,,,false,,,,376285.89999985695,376285.7999999523,,376285.7000000477,,376234.175,8,400,,,
sequence,flow.Sequence,4_47,2023-09-08T19:54:45.504Z,,0,,,7382.578999952297,completion,,,,,false,,,,376286,376285.7999999523,368886.719,368955.7999999523,368903.221,376234.175,8,400,,,
trial,html.Screen,4_48_0,2023-09-08T19:54:51.586Z,,0,1,,6133.025000047695,response,ISIC_7196249.JPG,5,ISIC_0014229.JPG,ISIC_0014229.JPG,false,0,keypress(z),500,382367.5,382367.2000000477,376200.961,376286.09999990463,376234.175,382312.76,8,400,49,,ISIC_7196249.JPG
break,html.Screen,4_48_1,2023-09-08T19:54:51.587Z,,0,,,NaN,,,,,,false,,,,382368.7999999523,382368.5,,382367.89999985695,,382312.76,8,400,,,
break_continue,html.Screen,4_48_2,2023-09-08T19:54:51.588Z,,0,,,NaN,,,,,,false,,,,382369.5,382369.2999999523,,382369.09999990463,,382312.76,8,400,,,
sequence,flow.Sequence,4_48,2023-09-08T19:54:51.588Z,,0,,,6135.124999952328,completion,,,,,false,,,,382369.7999999523,382369.2999999523,376200.961,376286.09999990463,376234.175,382312.76,8,400,,,
trial,html.Screen,4_49_0,2023-09-08T19:54:57.690Z,,0,1,,6158.1399998569395,response,ISIC_2714907.JPG,5,ISIC_5338721.JPG,ISIC_2714907.JPG,false,1,keypress(m),500,388471.2000000477,388470.89999985695,382296.164,382370.09999990463,382312.76,388407.907,8,400,50,,ISIC_5338721.JPG
break,html.Screen,4_49_1,2023-09-08T19:55:07.681Z,,0,,,10002.831000000006,timeout,,,,,false,,,,398463,398393.998,388391.343,388471.5,388407.907,398410.738,8,400,,,
break_continue,html.Screen,4_49_2,2023-09-08T19:55:08.401Z,,0,,,766.9620000476716,response,,,,,false,continue,keypress(Space),,399183,399177.7000000477,398393.998,398463.2000000477,398410.738,399128.831,8,400,,,
sequence,flow.Sequence,4_49,2023-09-08T19:55:08.401Z,,0,,,16864.940000047674,completion,,,,,false,,,,399183.2000000477,399177.7000000477,382296.164,382370,382312.76,399128.831,8,400,,,
trial,html.Screen,4_50_0,2023-09-08T19:55:13.764Z,,0,2,,5417.068999856943,response,ISIC_0000030.JPG,5,ISIC_0064563.JPG,ISIC_0064563.JPG,false,0,keypress(z),500,404546.09999990463,404545.89999985695,399112,399183.2000000477,399128.831,404489.174,8,400,1,,ISIC_0000030.JPG
break,html.Screen,4_50_1,2023-09-08T19:55:13.765Z,,0,,,NaN,,,,,,false,,,,404546.5,404546.5,,404546.2999999523,,404489.174,8,400,,,
break_continue,html.Screen,4_50_2,2023-09-08T19:55:13.765Z,,0,,,NaN,,,,,,false,,,,404546.7999999523,404546.7000000477,,404546.59999990463,,404489.174,8,400,,,
sequence,flow.Sequence,4_50,2023-09-08T19:55:13.765Z,,0,,,5417.869000047678,completion,,,,,false,,,,404546.89999985695,404546.7000000477,399112,399183.2000000477,399128.831,404489.174,8,400,,,
trial,html.Screen,4_51_0,2023-09-08T19:55:18.087Z,,0,2,,4379.4259999046335,response,ISIC_3418978.JPG,5,ISIC_0000375.JPG,ISIC_0000375.JPG,false,0,keypress(z),500,408868.7000000477,408868.59999990463,404472.482,404547,404489.174,408814.276,8,400,2,,ISIC_3418978.JPG
break,html.Screen,4_51_1,2023-09-08T19:55:18.087Z,,0,,,NaN,,,,,,false,,,,408869,408869,,408868.7999999523,,408814.276,8,400,,,
break_continue,html.Screen,4_51_2,2023-09-08T19:55:18.087Z,,0,,,NaN,,,,,,false,,,,408869.09999990463,408869.09999990463,,408869,,408814.276,8,400,,,
sequence,flow.Sequence,4_51,2023-09-08T19:55:18.088Z,,0,,,4379.9259999046335,completion,,,,,false,,,,408869.2000000477,408869.09999990463,404472.482,404546.89999985695,404489.174,408814.276,8,400,,,
trial,html.Screen,4_52_0,2023-09-08T19:55:22.777Z,,0,2,,4744.223999999987,response,ISIC_0029839.JPG,5,ISIC_1075605.JPG,ISIC_0029839.JPG,false,1,keypress(m),500,413558.7000000477,413558.5,408797.545,408869.2999999523,408814.276,413506.7,8,400,3,,ISIC_1075605.JPG
break,html.Screen,4_52_1,2023-09-08T19:55:22.777Z,,0,,,NaN,,,,,,false,,,,413559.09999990463,413559,,413558.7999999523,,413506.7,8,400,,,
break_continue,html.Screen,4_52_2,2023-09-08T19:55:22.778Z,,0,,,NaN,,,,,,false,,,,413559.2999999523,413559.2999999523,,413559.2000000477,,413506.7,8,400,,,
sequence,flow.Sequence,4_52,2023-09-08T19:55:22.778Z,,0,,,4745.023999952304,completion,,,,,false,,,,413559.5,413559.2999999523,408797.545,408869.2999999523,408814.276,413506.7,8,400,,,
trial,html.Screen,4_53_0,2023-09-08T19:55:27.355Z,,0,2,,4629.599999952305,response,ISIC_5805349.JPG,5,ISIC_0030932.JPG,ISIC_0030932.JPG,false,0,keypress(z),500,418136.5,418136.2999999523,413490.191,413559.5,413506.7,418082.456,8,400,4,,ISIC_5805349.JPG
break,html.Screen,4_53_1,2023-09-08T19:55:27.356Z,,0,,,NaN,,,,,,false,,,,418137.39999985695,418137.2000000477,,418136.7999999523,,418082.456,8,400,,,
break_continue,html.Screen,4_53_2,2023-09-08T19:55:27.356Z,,0,,,NaN,,,,,,false,,,,418137.7000000477,418137.59999990463,,418137.39999985695,,418082.456,8,400,,,
sequence,flow.Sequence,4_53,2023-09-08T19:55:27.356Z,,0,,,4630.899999904621,completion,,,,,false,,,,418137.7999999523,418137.59999990463,413490.191,413559.5,413506.7,418082.456,8,400,,,
trial,html.Screen,4_54_0,2023-09-08T19:55:32.030Z,,0,2,,4729.343999952311,response,ISIC_1843053.JPG,5,ISIC_0047008.JPG,ISIC_1843053.JPG,false,1,keypress(m),500,422811.89999985695,422811.7999999523,418065.664,418137.89999985695,418082.456,422758.097,8,400,5,,ISIC_0047008.JPG
break,html.Screen,4_54_1,2023-09-08T19:55:32.031Z,,0,,,NaN,,,,,,false,,,,422812.59999990463,422812.39999985695,,422812.09999990463,,422758.097,8,400,,,
break_continue,html.Screen,4_54_2,2023-09-08T19:55:32.031Z,,0,,,NaN,,,,,,false,,,,422812.89999985695,422812.7999999523,,422812.7000000477,,422758.097,8,400,,,
sequence,flow.Sequence,4_54,2023-09-08T19:55:32.031Z,,0,,,4730.343999952311,completion,,,,,false,,,,422813,422812.7999999523,418065.664,418137.89999985695,418082.456,422758.097,8,400,,,
trial,html.Screen,4_55_0,2023-09-08T19:55:36.689Z,,0,2,,4712.502999904624,response,ISIC_0069620.JPG,5,ISIC_2056104.JPG,ISIC_0069620.JPG,false,1,keypress(m),500,427470.7999999523,427470.59999990463,422741.475,422813.2000000477,422758.097,427417.165,8,400,6,,ISIC_2056104.JPG
break,html.Screen,4_55_1,2023-09-08T19:55:36.690Z,,0,,,NaN,,,,,,false,,,,427471.39999985695,427471.2999999523,,427471,,427417.165,8,400,,,
break_continue,html.Screen,4_55_2,2023-09-08T19:55:36.690Z,,0,,,NaN,,,,,,false,,,,427471.7000000477,427471.7000000477,,427471.5,,427417.165,8,400,,,
sequence,flow.Sequence,4_55,2023-09-08T19:55:36.690Z,,0,,,4713.603000047675,completion,,,,,false,,,,427471.89999985695,427471.7000000477,422741.475,422813.2000000477,422758.097,427417.165,8,400,,,
trial,html.Screen,4_56_0,2023-09-08T19:55:43.988Z,,0,2,,7352.335000000021,response,ISIC_0026231.JPG,6,ISIC_2668481.JPG,ISIC_2668481.JPG,false,0,keypress(z),500,434769.7000000477,434769.5,427400.438,427472,427417.165,434714.635,8,400,7,,ISIC_0026231.JPG
break,html.Screen,4_56_1,2023-09-08T19:55:43.989Z,,0,,,NaN,,,,,,false,,,,434770.5,434770.2999999523,,434769.89999985695,,434714.635,8,400,,,
break_continue,html.Screen,4_56_2,2023-09-08T19:55:43.989Z,,0,,,NaN,,,,,,false,,,,434770.7999999523,434770.7000000477,,434770.59999990463,,434714.635,8,400,,,
sequence,flow.Sequence,4_56,2023-09-08T19:55:43.989Z,,0,,,7353.535000047705,completion,,,,,false,,,,434770.89999985695,434770.7000000477,427400.438,427471.89999985695,427417.165,434714.635,8,400,,,
trial,html.Screen,4_57_0,2023-09-08T19:55:48.795Z,,0,2,,4861.2649998569395,response,ISIC_8147542.JPG,5,ISIC_0202167.JPG,ISIC_8147542.JPG,false,1,keypress(m),500,439576,439575.89999985695,434698.118,434771.09999990463,434714.635,439524.071,8,400,8,,ISIC_0202167.JPG
break,html.Screen,4_57_1,2023-09-08T19:55:48.795Z,,0,,,NaN,,,,,,false,,,,439576.2000000477,439576.2000000477,,439576.09999990463,,439524.071,8,400,,,
break_continue,html.Screen,4_57_2,2023-09-08T19:55:48.795Z,,0,,,NaN,,,,,,false,,,,439576.39999985695,439576.2999999523,,439576.2999999523,,439524.071,8,400,,,
sequence,flow.Sequence,4_57,2023-09-08T19:55:48.795Z,,0,,,4861.664999952307,completion,,,,,false,,,,439576.39999985695,439576.2999999523,434698.118,434771,434714.635,439524.071,8,400,,,
trial,html.Screen,4_58_0,2023-09-08T19:55:52.684Z,,0,2,,3941.6290000476874,response,ISIC_0029478.JPG,6,ISIC_0071972.JPG,ISIC_0029478.JPG,false,1,keypress(m),500,443465.89999985695,443465.7000000477,439507.405,439576.59999990463,439524.071,443414.915,8,400,9,,ISIC_0071972.JPG
break,html.Screen,4_58_1,2023-09-08T19:55:52.685Z,,0,,,NaN,,,,,,false,,,,443466.5,443466.2999999523,,443466,,443414.915,8,400,,,
break_continue,html.Screen,4_58_2,2023-09-08T19:55:52.685Z,,0,,,NaN,,,,,,false,,,,443466.89999985695,443466.7000000477,,443466.7000000477,,443414.915,8,400,,,
sequence,flow.Sequence,4_58,2023-09-08T19:55:52.686Z,,0,,,3942.6290000476874,completion,,,,,false,,,,443467,443466.7000000477,439507.405,439576.39999985695,439524.071,443414.915,8,400,,,
trial,html.Screen,4_59_0,2023-09-08T19:55:59.491Z,,0,2,,6857.384999952337,response,ISIC_0031800.JPG,5,ISIC_0013141.JPG,ISIC_0031800.JPG,false,1,keypress(m),500,450272.7000000477,450272.2999999523,443398.304,443467.09999990463,443414.915,450211.479,8,400,10,,ISIC_0013141.JPG
break,html.Screen,4_59_1,2023-09-08T19:55:59.492Z,,0,,,NaN,,,,,,false,,,,450273.7999999523,450273.5,,450273,,450211.479,8,400,,,
break_continue,html.Screen,4_59_2,2023-09-08T19:55:59.493Z,,0,,,NaN,,,,,,false,,,,450274.09999990463,450274,,450273.89999985695,,450211.479,8,400,,,
sequence,flow.Sequence,4_59,2023-09-08T19:55:59.493Z,,0,,,6859.085000000021,completion,,,,,false,,,,450274.5,450274,443398.304,443467.09999990463,443414.915,450211.479,8,400,,,
trial,html.Screen,4_60_0,2023-09-08T19:56:04.746Z,,0,2,,5316.1209999046405,response,ISIC_2031626.JPG,5,ISIC_0062301.JPG,ISIC_0062301.JPG,false,0,keypress(z),500,455527.7000000477,455527.59999990463,450194.912,450274.59999990463,450211.479,455471.703,8,400,11,,ISIC_2031626.JPG
break,html.Screen,4_60_1,2023-09-08T19:56:04.747Z,,0,,,NaN,,,,,,false,,,,455528.2999999523,455528.09999990463,,455527.7999999523,,455471.703,8,400,,,
break_continue,html.Screen,4_60_2,2023-09-08T19:56:04.747Z,,0,,,NaN,,,,,,false,,,,455528.7000000477,455528.39999985695,,455528.2999999523,,455471.703,8,400,,,
sequence,flow.Sequence,4_60,2023-09-08T19:56:04.747Z,,0,,,5316.920999856957,completion,,,,,false,,,,455528.7999999523,455528.39999985695,450194.912,450274.59999990463,450211.479,455471.703,8,400,,,
trial,html.Screen,4_61_0,2023-09-08T19:56:09.171Z,,0,2,,4480.196999856969,response,ISIC_2642873.JPG,5,ISIC_0054640.JPG,ISIC_0054640.JPG,false,0,keypress(z),500,459952.09999990463,459951.89999985695,455455.157,455528.7999999523,455471.703,459896.999,8,400,12,,ISIC_2642873.JPG
break,html.Screen,4_61_1,2023-09-08T19:56:09.172Z,,0,,,NaN,,,,,,false,,,,459953,459952.7999999523,,459952.2999999523,,459896.999,8,400,,,
break_continue,html.Screen,4_61_2,2023-09-08T19:56:09.172Z,,0,,,NaN,,,,,,false,,,,459953.59999990463,459953.39999985695,,459953.2999999523,,459896.999,8,400,,,
sequence,flow.Sequence,4_61,2023-09-08T19:56:09.172Z,,0,,,4481.696999856969,completion,,,,,false,,,,459953.7000000477,459953.39999985695,455455.157,455528.7999999523,455471.703,459896.999,8,400,,,
trial,html.Screen,4_62_0,2023-09-08T19:56:16.637Z,,0,2,,7521.500999999989,response,ISIC_5010212.JPG,6,ISIC_0011694.JPG,ISIC_0011694.JPG,false,0,keypress(z),500,467418.7000000477,467418.5,459880.315,459953.89999985695,459896.999,467361.57,8,400,13,,ISIC_5010212.JPG
break,html.Screen,4_62_1,2023-09-08T19:56:16.638Z,,0,,,NaN,,,,,,false,,,,467419.5,467419.2999999523,,467419,,467361.57,8,400,,,
break_continue,html.Screen,4_62_2,2023-09-08T19:56:16.638Z,,0,,,NaN,,,,,,false,,,,467419.89999985695,467419.7000000477,,467419.7000000477,,467361.57,8,400,,,
sequence,flow.Sequence,4_62,2023-09-08T19:56:16.639Z,,0,,,7522.701000047673,completion,,,,,false,,,,467420.09999990463,467419.7000000477,459880.315,459953.89999985695,459896.999,467361.57,8,400,,,
trial,html.Screen,4_63_0,2023-09-08T19:56:20.790Z,,0,2,,4209.429999999993,response,ISIC_0922552.JPG,4,ISIC_2337650.JPG,ISIC_0922552.JPG,false,1,keypress(m),500,471571.2000000477,471571,467345.01,467420.2999999523,467361.57,471519.703,8,400,14,,ISIC_2337650.JPG
break,html.Screen,4_63_1,2023-09-08T19:56:20.790Z,,0,,,NaN,,,,,,false,,,,471571.5,471571.5,,471571.2999999523,,471519.703,8,400,,,
break_continue,html.Screen,4_63_2,2023-09-08T19:56:20.790Z,,0,,,NaN,,,,,,false,,,,471571.7999999523,471571.7000000477,,471571.59999990463,,471519.703,8,400,,,
sequence,flow.Sequence,4_63,2023-09-08T19:56:20.790Z,,0,,,4210.130000047677,completion,,,,,false,,,,471571.7999999523,471571.7000000477,467345.01,467420.2999999523,467361.57,471519.703,8,400,,,
trial,html.Screen,4_64_0,2023-09-08T19:56:27.177Z,,0,2,,6438.696999856969,response,ISIC_4428769.JPG,5,ISIC_0011409.JPG,ISIC_0011409.JPG,false,0,keypress(z),500,477958.89999985695,477958.39999985695,471502.925,471571.89999985695,471519.703,477898.73,8,400,15,,ISIC_4428769.JPG
break,html.Screen,4_64_1,2023-09-08T19:56:27.179Z,,0,,,NaN,,,,,,false,,,,477959.89999985695,477959.7000000477,,477959.2999999523,,477898.73,8,400,,,
break_continue,html.Screen,4_64_2,2023-09-08T19:56:27.180Z,,0,,,NaN,,,,,,false,,,,477961.5,477961,,477960.7000000477,,477898.73,8,400,,,
sequence,flow.Sequence,4_64,2023-09-08T19:56:27.181Z,,0,,,6441.2970000000205,completion,,,,,false,,,,477962,477961,471502.925,471571.89999985695,471519.703,477898.73,8,400,,,
trial,html.Screen,4_65_0,2023-09-08T19:56:33.152Z,,0,2,,6034.1699998569675,response,ISIC_0054292.JPG,5,ISIC_0068776.JPG,ISIC_0054292.JPG,false,1,keypress(m),500,483933.09999990463,483932.89999985695,477882.154,477962.2999999523,477898.73,483876.968,8,400,16,,ISIC_0068776.JPG
break,html.Screen,4_65_1,2023-09-08T19:56:33.152Z,,0,,,NaN,,,,,,false,,,,483933.59999990463,483933.39999985695,,483933.2000000477,,483876.968,8,400,,,
break_continue,html.Screen,4_65_2,2023-09-08T19:56:33.152Z,,0,,,NaN,,,,,,false,,,,483933.7999999523,483933.7000000477,,483933.7000000477,,483876.968,8,400,,,
sequence,flow.Sequence,4_65,2023-09-08T19:56:33.153Z,,0,,,6034.970000047702,completion,,,,,false,,,,483934,483933.7000000477,477882.154,477962.2999999523,477898.73,483876.968,8,400,,,
trial,html.Screen,4_66_0,2023-09-08T19:56:40.455Z,,0,2,,7359.831999952323,response,ISIC_0013565.JPG,5,ISIC_0033612.JPG,ISIC_0013565.JPG,false,1,keypress(m),500,491236.7999999523,491236.7999999523,483860.361,483934,483876.968,491174.53,8,400,17,,ISIC_0033612.JPG
break,html.Screen,4_66_1,2023-09-08T19:56:40.456Z,,0,,,NaN,,,,,,false,,,,491237.2000000477,491237.09999990463,,491236.89999985695,,491174.53,8,400,,,
break_continue,html.Screen,4_66_2,2023-09-08T19:56:40.456Z,,0,,,NaN,,,,,,false,,,,491237.2999999523,491237.2000000477,,491237.2000000477,,491174.53,8,400,,,
sequence,flow.Sequence,4_66,2023-09-08T19:56:40.456Z,,0,,,7360.23200004769,completion,,,,,false,,,,491237.39999985695,491237.2000000477,483860.361,483934,483876.968,491174.53,8,400,,,
trial,html.Screen,4_67_0,2023-09-08T19:56:47.196Z,,0,2,,6802.469999999972,response,ISIC_0385633.JPG,5,ISIC_1514401.JPG,ISIC_1514401.JPG,false,0,keypress(z),500,497977.2000000477,497977,491158.005,491237.39999985695,491174.53,497921.022,8,400,18,,ISIC_0385633.JPG
break,html.Screen,4_67_1,2023-09-08T19:56:47.197Z,,0,,,NaN,,,,,,false,,,,497978.09999990463,497977.7999999523,,497977.5,,497921.022,8,400,,,
break_continue,html.Screen,4_67_2,2023-09-08T19:56:47.197Z,,0,,,NaN,,,,,,false,,,,497978.5,497978.2999999523,,497978.09999990463,,497921.022,8,400,,,
sequence,flow.Sequence,4_67,2023-09-08T19:56:47.197Z,,0,,,6803.769999952288,completion,,,,,false,,,,497978.7999999523,497978.2999999523,491158.005,491237.39999985695,491174.53,497921.022,8,400,,,
trial,html.Screen,4_68_0,2023-09-08T19:56:51.904Z,,0,2,,4763.877999856952,response,ISIC_5366657.JPG,6,ISIC_3159924.JPG,ISIC_3159924.JPG,false,0,keypress(z),500,502685,502684.89999985695,497904.471,497978.89999985695,497921.022,502630.136,8,400,19,,ISIC_5366657.JPG
break,html.Screen,4_68_1,2023-09-08T19:56:51.904Z,,0,,,NaN,,,,,,false,,,,502685.2999999523,502685.2000000477,,502685,,502630.136,8,400,,,
break_continue,html.Screen,4_68_2,2023-09-08T19:56:51.904Z,,0,,,NaN,,,,,,false,,,,502685.59999990463,502685.59999990463,,502685.5,,502630.136,8,400,,,
sequence,flow.Sequence,4_68,2023-09-08T19:56:51.904Z,,0,,,4764.577999904635,completion,,,,,false,,,,502685.7000000477,502685.59999990463,497904.471,497978.7999999523,497921.022,502630.136,8,400,,,
trial,html.Screen,4_69_0,2023-09-08T19:56:56.450Z,,0,2,,4601.163999952318,response,ISIC_0056192.JPG,5,ISIC_0062025.JPG,ISIC_0056192.JPG,false,1,keypress(m),500,507231.39999985695,507231.2999999523,502613.496,502685.7999999523,502630.136,507172.324,8,400,20,,ISIC_0062025.JPG
break,html.Screen,4_69_1,2023-09-08T19:56:56.450Z,,0,,,NaN,,,,,,false,,,,507231.7999999523,507231.7000000477,,507231.59999990463,,507172.324,8,400,,,
break_continue,html.Screen,4_69_2,2023-09-08T19:56:56.451Z,,0,,,NaN,,,,,,false,,,,507232,507231.89999985695,,507231.89999985695,,507172.324,8,400,,,
sequence,flow.Sequence,4_69,2023-09-08T19:56:56.451Z,,0,,,4601.76399985695,completion,,,,,false,,,,507232.09999990463,507231.89999985695,502613.496,502685.7999999523,502630.136,507172.324,8,400,,,
trial,html.Screen,4_70_0,2023-09-08T19:57:01.077Z,,0,2,,4685.5759998569265,response,ISIC_0012425.JPG,5,ISIC_3179296.JPG,ISIC_3179296.JPG,false,0,keypress(z),500,511858.09999990463,511857.89999985695,507155.615,507232.09999990463,507172.324,511797.93,8,400,21,,ISIC_0012425.JPG
break,html.Screen,4_70_1,2023-09-08T19:57:01.077Z,,0,,,NaN,,,,,,false,,,,511858.39999985695,511858.2999999523,,511858.2000000477,,511797.93,8,400,,,
break_continue,html.Screen,4_70_2,2023-09-08T19:57:01.077Z,,0,,,NaN,,,,,,false,,,,511858.59999990463,511858.59999990463,,511858.5,,511797.93,8,400,,,
sequence,flow.Sequence,4_70,2023-09-08T19:57:01.077Z,,0,,,4686.27599990461,completion,,,,,false,,,,511858.7000000477,511858.59999990463,507155.615,507232.09999990463,507172.324,511797.93,8,400,,,
trial,html.Screen,4_71_0,2023-09-08T19:57:09.032Z,,0,2,,8015.270000047691,response,ISIC_0014347.JPG,6,ISIC_8478591.JPG,ISIC_0014347.JPG,false,1,keypress(m),500,519813.39999985695,519813.2000000477,511781.383,511858.7999999523,511797.93,519746.758,8,400,22,,ISIC_8478591.JPG
break,html.Screen,4_71_1,2023-09-08T19:57:09.032Z,,0,,,NaN,,,,,,false,,,,519813.7000000477,519813.59999990463,,519813.39999985695,,519746.758,8,400,,,
break_continue,html.Screen,4_71_2,2023-09-08T19:57:09.033Z,,0,,,NaN,,,,,,false,,,,519814,519813.89999985695,,519813.7999999523,,519746.758,8,400,,,
sequence,flow.Sequence,4_71,2023-09-08T19:57:09.033Z,,0,,,8015.969999856956,completion,,,,,false,,,,519814.09999990463,519813.89999985695,511781.383,511858.7999999523,511797.93,519746.758,8,400,,,
trial,html.Screen,4_72_0,2023-09-08T19:57:14.522Z,,0,2,,5556.442000047711,response,ISIC_0010061.JPG,5,ISIC_3530422.JPG,ISIC_0010061.JPG,false,1,keypress(m),500,525303.399999857,525303.2000000477,519730.269,519814.2000000477,519746.758,525240.776,8,400,23,,ISIC_3530422.JPG
break,html.Screen,4_72_1,2023-09-08T19:57:14.522Z,,0,,,NaN,,,,,,false,,,,525303.7000000477,525303.7000000477,,525303.5,,525240.776,8,400,,,
break_continue,html.Screen,4_72_2,2023-09-08T19:57:14.522Z,,0,,,NaN,,,,,,false,,,,525303.899999857,525303.899999857,,525303.7999999523,,525240.776,8,400,,,
sequence,flow.Sequence,4_72,2023-09-08T19:57:14.523Z,,0,,,5557.141999856976,completion,,,,,false,,,,525304,525303.899999857,519730.269,519814.2000000477,519746.758,525240.776,8,400,,,
trial,html.Screen,4_73_0,2023-09-08T19:57:21.247Z,,0,2,,6787.724000000046,response,ISIC_0030681.JPG,4,ISIC_9052500.JPG,ISIC_9052500.JPG,false,0,keypress(z),500,532028.7000000477,532028.5,525224.161,525304,525240.776,531970.783,8,400,24,,ISIC_0030681.JPG
break,html.Screen,4_73_1,2023-09-08T19:57:21.248Z,,0,,,NaN,,,,,,false,,,,532029.2999999523,532029.0999999046,,532028.899999857,,531970.783,8,400,,,
break_continue,html.Screen,4_73_2,2023-09-08T19:57:21.248Z,,0,,,NaN,,,,,,false,,,,532029.5999999046,532029.5,,532029.399999857,,531970.783,8,400,,,
sequence,flow.Sequence,4_73,2023-09-08T19:57:21.248Z,,0,,,6788.724000000046,completion,,,,,false,,,,532029.7999999523,532029.5,525224.161,525304,525240.776,531970.783,8,400,,,
trial,html.Screen,4_74_0,2023-09-08T19:57:25.491Z,,0,2,,4301.116999856895,response,ISIC_0032162.JPG,4,ISIC_4730066.JPG,ISIC_0032162.JPG,false,1,keypress(m),500,536272,536271.899999857,531953.903,532029.7999999523,531970.783,536212.243,8,400,25,,ISIC_4730066.JPG
break,html.Screen,4_74_1,2023-09-08T19:57:25.491Z,,0,,,NaN,,,,,,false,,,,536272.2999999523,536272.2000000477,,536272.0999999046,,536212.243,8,400,,,
break_continue,html.Screen,4_74_2,2023-09-08T19:57:25.491Z,,0,,,NaN,,,,,,false,,,,536272.5,536272.399999857,,536272.2999999523,,536212.243,8,400,,,
sequence,flow.Sequence,4_74,2023-09-08T19:57:25.491Z,,0,,,4301.616999856895,completion,,,,,false,,,,536272.5,536272.399999857,531953.903,532029.7999999523,531970.783,536212.243,8,400,,,
trial,html.Screen,4_75_0,2023-09-08T19:57:31.640Z,,0,2,,6209.256999999983,response,ISIC_2633745.JPG,5,ISIC_0057753.JPG,ISIC_0057753.JPG,false,0,keypress(z),500,542421.7000000477,542421.5,536195.544,536272.5999999046,536212.243,542357.531,8,400,26,,ISIC_2633745.JPG
break,html.Screen,4_75_1,2023-09-08T19:57:31.641Z,,0,,,NaN,,,,,,false,,,,542422,542422,,542421.7999999523,,542357.531,8,400,,,
break_continue,html.Screen,4_75_2,2023-09-08T19:57:31.641Z,,0,,,NaN,,,,,,false,,,,542422.2000000477,542422.0999999046,,542422.0999999046,,542357.531,8,400,,,
sequence,flow.Sequence,4_75,2023-09-08T19:57:31.641Z,,0,,,6209.856999904616,completion,,,,,false,,,,542422.2999999523,542422.0999999046,536195.544,536272.5,536212.243,542357.531,8,400,,,
trial,html.Screen,4_76_0,2023-09-08T19:57:39.024Z,,0,2,,7447.768999952357,response,ISIC_0012054.JPG,5,ISIC_0033697.JPG,ISIC_0012054.JPG,false,1,keypress(m),500,549805.7000000477,549805.2999999523,542340.73,542422.399999857,542357.531,549755.231,8,400,27,,ISIC_0033697.JPG
break,html.Screen,4_76_1,2023-09-08T19:57:39.025Z,,0,,,NaN,,,,,,false,,,,549806.899999857,549806.5,,549806,,549755.231,8,400,,,
break_continue,html.Screen,4_76_2,2023-09-08T19:57:39.027Z,,0,,,NaN,,,,,,false,,,,549807.899999857,549807.7000000477,,549807.399999857,,549755.231,8,400,,,
sequence,flow.Sequence,4_76,2023-09-08T19:57:39.027Z,,0,,,7450.169000047725,completion,,,,,false,,,,549808.2999999523,549807.7000000477,542340.73,542422.2999999523,542357.531,549755.231,8,400,,,
trial,html.Screen,4_77_0,2023-09-08T19:57:45.096Z,,0,2,,6121.969000047655,response,ISIC_0009985.JPG,5,ISIC_0014366.JPG,ISIC_0009985.JPG,false,1,keypress(m),500,555877.2999999523,555877.2000000477,549738.541,549808.5,549755.231,555817.056,8,400,28,,ISIC_0014366.JPG
break,html.Screen,4_77_1,2023-09-08T19:57:45.097Z,,0,,,NaN,,,,,,false,,,,555877.5999999046,555877.5999999046,,555877.399999857,,555817.056,8,400,,,
break_continue,html.Screen,4_77_2,2023-09-08T19:57:45.097Z,,0,,,NaN,,,,,,false,,,,555878,555877.899999857,,555877.7999999523,,555817.056,8,400,,,
sequence,flow.Sequence,4_77,2023-09-08T19:57:45.097Z,,0,,,6122.66899985692,completion,,,,,false,,,,555878.0999999046,555877.899999857,549738.541,549808.5,549755.231,555817.056,8,400,,,
trial,html.Screen,4_78_0,2023-09-08T19:57:50.754Z,,0,2,,5718.343999856967,response,ISIC_5509946.JPG,5,ISIC_0070352.JPG,ISIC_0070352.JPG,false,0,keypress(z),500,561535.5999999046,561535.399999857,555800.46,555878.7000000477,555817.056,561478.017,8,400,29,,ISIC_5509946.JPG
break,html.Screen,4_78_1,2023-09-08T19:57:50.755Z,,0,,,NaN,,,,,,false,,,,561536,561535.899999857,,561535.7999999523,,561478.017,8,400,,,
break_continue,html.Screen,4_78_2,2023-09-08T19:57:50.755Z,,0,,,NaN,,,,,,false,,,,561536.2000000477,561536.0999999046,,561536,,561478.017,8,400,,,
sequence,flow.Sequence,4_78,2023-09-08T19:57:50.755Z,,0,,,5719.04399990465,completion,,,,,false,,,,561536.2000000477,561536.0999999046,555800.46,555878.7000000477,555817.056,561478.017,8,400,,,
trial,html.Screen,4_79_0,2023-09-08T19:57:57.848Z,,0,2,,7151.183000047691,response,ISIC_5762714.JPG,5,ISIC_2807121.JPG,ISIC_5762714.JPG,false,1,keypress(m),500,568629.399999857,568629.2000000477,561461.406,561536.2999999523,561478.017,568575.105,8,400,30,,ISIC_2807121.JPG
break,html.Screen,4_79_1,2023-09-08T19:57:57.849Z,,0,,,NaN,,,,,,false,,,,568630.2000000477,568630.0999999046,,568629.7000000477,,568575.105,8,400,,,
break_continue,html.Screen,4_79_2,2023-09-08T19:57:57.850Z,,0,,,NaN,,,,,,false,,,,568630.899999857,568630.5999999046,,568630.399999857,,568575.105,8,400,,,
sequence,flow.Sequence,4_79,2023-09-08T19:57:57.850Z,,0,,,7152.58299990464,completion,,,,,false,,,,568631.0999999046,568630.5999999046,561461.406,561536.2999999523,561478.017,568575.105,8,400,,,
trial,html.Screen,4_80_0,2023-09-08T19:58:03.660Z,,0,2,,5866.194999952335,response,ISIC_0060148.JPG,6,ISIC_0012887.JPG,ISIC_0060148.JPG,false,1,keypress(m),500,574441.5,574441.2999999523,568558.479,568631.2999999523,568575.105,574386.43,8,400,31,,ISIC_0012887.JPG
break,html.Screen,4_80_1,2023-09-08T19:58:03.661Z,,0,,,NaN,,,,,,false,,,,574442,574441.899999857,,574441.5999999046,,574386.43,8,400,,,
break_continue,html.Screen,4_80_2,2023-09-08T19:58:03.661Z,,0,,,NaN,,,,,,false,,,,574442.399999857,574442.399999857,,574442.2000000477,,574386.43,8,400,,,
sequence,flow.Sequence,4_80,2023-09-08T19:58:03.661Z,,0,,,5867.2949998569675,completion,,,,,false,,,,574442.5,574442.399999857,568558.479,568631.2999999523,568575.105,574386.43,8,400,,,
trial,html.Screen,4_81_0,2023-09-08T19:58:07.843Z,,0,2,,4237.169999904581,response,ISIC_2372468.JPG,5,ISIC_1584535.JPG,ISIC_2372468.JPG,false,1,keypress(m),500,578623.7999999523,578623.5999999046,574369.836,574442.7000000477,574386.43,578578.127,8,400,32,,ISIC_1584535.JPG
break,html.Screen,4_81_1,2023-09-08T19:58:07.843Z,,0,,,NaN,,,,,,false,,,,578624.0999999046,578624,,578623.899999857,,578578.127,8,400,,,
break_continue,html.Screen,4_81_2,2023-09-08T19:58:07.843Z,,0,,,NaN,,,,,,false,,,,578624.2000000477,578624.2000000477,,578624.2000000477,,578578.127,8,400,,,
sequence,flow.Sequence,4_81,2023-09-08T19:58:07.843Z,,0,,,4237.7700000476325,completion,,,,,false,,,,578624.2999999523,578624.2000000477,574369.836,574442.5999999046,574386.43,578578.127,8,400,,,
trial,html.Screen,4_82_0,2023-09-08T19:58:12.820Z,,0,2,,5023.073000047705,response,ISIC_0026982.JPG,5,ISIC_0602494.JPG,ISIC_0026982.JPG,false,1,keypress(m),500,583601.399999857,583601.2000000477,578561.325,578624.399999857,578578.127,583537.556,8,400,33,,ISIC_0602494.JPG
break,html.Screen,4_82_1,2023-09-08T19:58:12.821Z,,0,,,NaN,,,,,,false,,,,583601.7999999523,583601.7000000477,,583601.5,,583537.556,8,400,,,
break_continue,html.Screen,4_82_2,2023-09-08T19:58:12.821Z,,0,,,NaN,,,,,,false,,,,583601.899999857,583601.7999999523,,583601.7999999523,,583537.556,8,400,,,
sequence,flow.Sequence,4_82,2023-09-08T19:58:12.821Z,,0,,,5023.672999952338,completion,,,,,false,,,,583602,583601.7999999523,578561.325,578624.399999857,578578.127,583537.556,8,400,,,
trial,html.Screen,4_83_0,2023-09-08T19:58:18.186Z,,0,2,,5429.144000047701,response,ISIC_6370977.JPG,5,ISIC_0025546.JPG,ISIC_0025546.JPG,false,0,keypress(z),500,588966.7999999523,588966.7000000477,583520.979,583602.0999999046,583537.556,588914.704,8,400,34,,ISIC_6370977.JPG
break,html.Screen,4_83_1,2023-09-08T19:58:18.186Z,,0,,,NaN,,,,,,false,,,,588967.0999999046,588967,,588966.899999857,,588914.704,8,400,,,
break_continue,html.Screen,4_83_2,2023-09-08T19:58:18.186Z,,0,,,NaN,,,,,,false,,,,588967.2999999523,588967.2999999523,,588967.2000000477,,588914.704,8,400,,,
sequence,flow.Sequence,4_83,2023-09-08T19:58:18.186Z,,0,,,5429.743999952334,completion,,,,,false,,,,588967.399999857,588967.2999999523,583520.979,583602.0999999046,583537.556,588914.704,8,400,,,
trial,html.Screen,4_84_0,2023-09-08T19:58:23.132Z,,0,2,,4998.195999856922,response,ISIC_0063852.JPG,4,ISIC_8766254.JPG,ISIC_0063852.JPG,false,1,keypress(m),500,593913.0999999046,593912.899999857,588898.115,588967.5,588914.704,593857.684,8,400,35,,ISIC_8766254.JPG
break,html.Screen,4_84_1,2023-09-08T19:58:23.132Z,,0,,,NaN,,,,,,false,,,,593913.2999999523,593913.2999999523,,593913.0999999046,,593857.684,8,400,,,
break_continue,html.Screen,4_84_2,2023-09-08T19:58:23.132Z,,0,,,NaN,,,,,,false,,,,593913.5,593913.5,,593913.399999857,,593857.684,8,400,,,
sequence,flow.Sequence,4_84,2023-09-08T19:58:23.132Z,,0,,,4998.795999999973,completion,,,,,false,,,,593913.5999999046,593913.5,588898.115,588967.399999857,588914.704,593857.684,8,400,,,
trial,html.Screen,4_85_0,2023-09-08T19:58:30.334Z,,0,2,,7257.516000047675,response,ISIC_0026398.JPG,5,ISIC_4263521.JPG,ISIC_0026398.JPG,false,1,keypress(m),500,601115.5,601115.2000000477,593841.079,593913.5999999046,593857.684,601055.079,8,400,36,,ISIC_4263521.JPG
break,html.Screen,4_85_1,2023-09-08T19:58:30.335Z,,0,,,NaN,,,,,,false,,,,601116.5999999046,601116.2999999523,,601115.7999999523,,601055.079,8,400,,,
break_continue,html.Screen,4_85_2,2023-09-08T19:58:30.336Z,,0,,,NaN,,,,,,false,,,,601117,601116.7999999523,,601116.7000000477,,601055.079,8,400,,,
sequence,flow.Sequence,4_85,2023-09-08T19:58:30.336Z,,0,,,7259.115999952308,completion,,,,,false,,,,601117.2000000477,601116.7999999523,593841.079,593913.5999999046,593857.684,601055.079,8,400,,,
trial,html.Screen,4_86_0,2023-09-08T19:58:36.659Z,,0,2,,6384.520999904606,response,ISIC_4614604.JPG,5,ISIC_0061806.JPG,ISIC_0061806.JPG,false,0,keypress(z),500,607439.899999857,607439.5999999046,601038.382,601117.2999999523,601055.079,607384.103,8,400,37,,ISIC_4614604.JPG
break,html.Screen,4_86_1,2023-09-08T19:58:36.660Z,,0,,,NaN,,,,,,false,,,,607440.7999999523,607440.5,,607440.0999999046,,607384.103,8,400,,,
break_continue,html.Screen,4_86_2,2023-09-08T19:58:36.660Z,,0,,,NaN,,,,,,false,,,,607441.2000000477,607441.0999999046,,607441,,607384.103,8,400,,,
sequence,flow.Sequence,4_86,2023-09-08T19:58:36.660Z,,0,,,6386.020999904606,completion,,,,,false,,,,607441.5,607441.0999999046,601038.382,601117.2999999523,601055.079,607384.103,8,400,,,
trial,html.Screen,4_87_0,2023-09-08T19:58:43.798Z,,0,2,,7195.1969999523135,response,ISIC_8458843.JPG,5,ISIC_0028998.JPG,ISIC_8458843.JPG,false,1,keypress(m),500,614579.399999857,614579.2999999523,607367.323,607441.7000000477,607384.103,614514.56,8,400,38,,ISIC_0028998.JPG
break,html.Screen,4_87_1,2023-09-08T19:58:43.799Z,,0,,,NaN,,,,,,false,,,,614579.899999857,614579.7999999523,,614579.5999999046,,614514.56,8,400,,,
break_continue,html.Screen,4_87_2,2023-09-08T19:58:43.799Z,,0,,,NaN,,,,,,false,,,,614580.2000000477,614580.0999999046,,614580,,614514.56,8,400,,,
sequence,flow.Sequence,4_87,2023-09-08T19:58:43.799Z,,0,,,7195.99699990463,completion,,,,,false,,,,614580.2999999523,614580.0999999046,607367.323,607441.5999999046,607384.103,614514.56,8,400,,,
trial,html.Screen,4_88_0,2023-09-08T19:58:48.841Z,,0,2,,5106.640000047628,response,ISIC_5484776.JPG,5,ISIC_0034170.JPG,ISIC_0034170.JPG,false,0,keypress(z),500,619621.5,619621.2000000477,614497.987,614580.399999857,614514.56,619557.75,8,400,39,,ISIC_5484776.JPG
break,html.Screen,4_88_1,2023-09-08T19:58:48.841Z,,0,,,NaN,,,,,,false,,,,619622.2000000477,619621.899999857,,619621.7000000477,,619557.75,8,400,,,
break_continue,html.Screen,4_88_2,2023-09-08T19:58:48.842Z,,0,,,NaN,,,,,,false,,,,619622.7999999523,619622.5999999046,,619622.5,,619557.75,8,400,,,
sequence,flow.Sequence,4_88,2023-09-08T19:58:48.842Z,,0,,,5108.039999904577,completion,,,,,false,,,,619623.0999999046,619622.5999999046,614497.987,614580.399999857,614514.56,619557.75,8,400,,,
trial,html.Screen,4_89_0,2023-09-08T19:58:56.499Z,,0,2,,7722.25,response,ISIC_0028226.JPG,5,ISIC_0072826.JPG,ISIC_0072826.JPG,false,0,keypress(z),500,627280.0999999046,627280,619541.17,619623.2000000477,619557.75,627222.605,8,400,40,,ISIC_0028226.JPG
break,html.Screen,4_89_1,2023-09-08T19:58:56.500Z,,0,,,NaN,,,,,,false,,,,627280.399999857,627280.2999999523,,627280.0999999046,,627222.605,8,400,,,
break_continue,html.Screen,4_89_2,2023-09-08T19:58:56.500Z,,0,,,NaN,,,,,,false,,,,627280.5999999046,627280.5,,627280.399999857,,627222.605,8,400,,,
sequence,flow.Sequence,4_89,2023-09-08T19:58:56.500Z,,0,,,7722.75,completion,,,,,false,,,,627280.7000000477,627280.5,619541.17,619623.2000000477,619557.75,627222.605,8,400,,,
trial,html.Screen,4_90_0,2023-09-08T19:59:00.069Z,,0,2,,3627.3950000000186,response,ISIC_4148086.JPG,5,ISIC_7025487.JPG,ISIC_7025487.JPG,false,0,keypress(z),500,630850.0999999046,630850,627205.963,627280.7000000477,627222.605,630796.207,8,400,41,,ISIC_4148086.JPG
break,html.Screen,4_90_1,2023-09-08T19:59:00.070Z,,0,,,NaN,,,,,,false,,,,630850.5,630850.399999857,,630850.2999999523,,630796.207,8,400,,,
break_continue,html.Screen,4_90_2,2023-09-08T19:59:00.070Z,,0,,,NaN,,,,,,false,,,,630850.7000000477,630850.7000000477,,630850.5999999046,,630796.207,8,400,,,
sequence,flow.Sequence,4_90,2023-09-08T19:59:00.070Z,,0,,,3628.0950000477023,completion,,,,,false,,,,630850.7000000477,630850.7000000477,627205.963,627280.7000000477,627222.605,630796.207,8,400,,,
trial,html.Screen,4_91_0,2023-09-08T19:59:05.048Z,,0,2,,5032.993000047631,response,ISIC_0058071.JPG,6,ISIC_6188574.JPG,ISIC_0058071.JPG,false,1,keypress(m),500,635829.2999999523,635829.2000000477,630779.548,630850.7999999523,630796.207,635772.59,8,400,42,,ISIC_6188574.JPG
break,html.Screen,4_91_1,2023-09-08T19:59:05.049Z,,0,,,NaN,,,,,,false,,,,635829.7000000477,635829.5999999046,,635829.399999857,,635772.59,8,400,,,
break_continue,html.Screen,4_91_2,2023-09-08T19:59:05.049Z,,0,,,NaN,,,,,,false,,,,635829.7999999523,635829.7000000477,,635829.7000000477,,635772.59,8,400,,,
sequence,flow.Sequence,4_91,2023-09-08T19:59:05.049Z,,0,,,5033.493000047631,completion,,,,,false,,,,635829.899999857,635829.7000000477,630779.548,630850.7999999523,630796.207,635772.59,8,400,,,
trial,html.Screen,4_92_0,2023-09-08T19:59:11.115Z,,0,2,,6122.910000000033,response,ISIC_8041550.JPG,5,ISIC_0034237.JPG,ISIC_0034237.JPG,false,0,keypress(z),500,641895.7999999523,641895.5,635755.87,635829.899999857,635772.59,641834.411,8,400,43,,ISIC_8041550.JPG
break,html.Screen,4_92_1,2023-09-08T19:59:11.116Z,,0,,,NaN,,,,,,false,,,,641896.5,641896.2999999523,,641896,,641834.411,8,400,,,
break_continue,html.Screen,4_92_2,2023-09-08T19:59:11.116Z,,0,,,NaN,,,,,,false,,,,641896.7999999523,641896.7000000477,,641896.5999999046,,641834.411,8,400,,,
sequence,flow.Sequence,4_92,2023-09-08T19:59:11.116Z,,0,,,6124.110000047716,completion,,,,,false,,,,641897,641896.7000000477,635755.87,635829.899999857,635772.59,641834.411,8,400,,,
trial,html.Screen,4_93_0,2023-09-08T19:59:16.946Z,,0,2,,5892.589000000036,response,ISIC_0025592.JPG,5,ISIC_5281762.JPG,ISIC_5281762.JPG,false,0,keypress(z),500,647727.2000000477,647727,641817.841,641897,641834.411,647662.375,8,400,44,,ISIC_0025592.JPG
break,html.Screen,4_93_1,2023-09-08T19:59:16.947Z,,0,,,NaN,,,,,,false,,,,647727.7000000477,647727.5999999046,,647727.399999857,,647662.375,8,400,,,
break_continue,html.Screen,4_93_2,2023-09-08T19:59:16.947Z,,0,,,NaN,,,,,,false,,,,647727.899999857,647727.899999857,,647727.899999857,,647662.375,8,400,,,
sequence,flow.Sequence,4_93,2023-09-08T19:59:16.947Z,,0,,,5893.488999856985,completion,,,,,false,,,,647728,647727.899999857,641817.841,641897,641834.411,647662.375,8,400,,,
trial,html.Screen,4_94_0,2023-09-08T19:59:23.546Z,,0,2,,6664.424999952316,response,ISIC_0015005.JPG,5,ISIC_0030080.JPG,ISIC_0015005.JPG,false,1,keypress(m),500,654327.0999999046,654326.7999999523,647645.657,647728,647662.375,654275.233,8,400,45,,ISIC_0030080.JPG
break,html.Screen,4_94_1,2023-09-08T19:59:23.547Z,,0,,,NaN,,,,,,false,,,,654328.2999999523,654328,,654327.5999999046,,654275.233,8,400,,,
break_continue,html.Screen,4_94_2,2023-09-08T19:59:23.548Z,,0,,,NaN,,,,,,false,,,,654328.899999857,654328.7000000477,,654328.5,,654275.233,8,400,,,
sequence,flow.Sequence,4_94,2023-09-08T19:59:23.548Z,,0,,,6666.325000047684,completion,,,,,false,,,,654329.2000000477,654328.7000000477,647645.657,647728,647662.375,654275.233,8,400,,,
trial,html.Screen,4_95_0,2023-09-08T19:59:30.566Z,,0,2,,7071.066999952309,response,ISIC_0033621.JPG,5,ISIC_0028886.JPG,ISIC_0028886.JPG,false,0,keypress(z),500,661346.399999857,661346.2999999523,654258.705,654329.5,654275.233,661288.981,8,400,46,,ISIC_0033621.JPG
break,html.Screen,4_95_1,2023-09-08T19:59:30.566Z,,0,,,NaN,,,,,,false,,,,661346.7999999523,661346.7999999523,,661346.5999999046,,661288.981,8,400,,,
break_continue,html.Screen,4_95_2,2023-09-08T19:59:30.566Z,,0,,,NaN,,,,,,false,,,,661347.0999999046,661347.0999999046,,661347,,661288.981,8,400,,,
sequence,flow.Sequence,4_95,2023-09-08T19:59:30.566Z,,0,,,7071.866999904625,completion,,,,,false,,,,661347.2999999523,661347.0999999046,654258.705,654329.399999857,654275.233,661288.981,8,400,,,
trial,html.Screen,4_96_0,2023-09-08T19:59:37.399Z,,0,2,,6891.318999952287,response,ISIC_1962845.JPG,5,ISIC_0056740.JPG,ISIC_0056740.JPG,false,0,keypress(z),500,668180.399999857,668180.2999999523,661272.367,661347.2999999523,661288.981,668118.92,8,400,47,,ISIC_1962845.JPG
break,html.Screen,4_96_1,2023-09-08T19:59:37.400Z,,0,,,NaN,,,,,,false,,,,668180.7000000477,668180.5999999046,,668180.399999857,,668118.92,8,400,,,
break_continue,html.Screen,4_96_2,2023-09-08T19:59:37.400Z,,0,,,NaN,,,,,,false,,,,668180.899999857,668180.899999857,,668180.7999999523,,668118.92,8,400,,,
sequence,flow.Sequence,4_96,2023-09-08T19:59:37.400Z,,0,,,6891.91899985692,completion,,,,,false,,,,668181,668180.899999857,661272.367,661347.2999999523,661288.981,668118.92,8,400,,,
trial,html.Screen,4_97_0,2023-09-08T19:59:41.808Z,,0,2,,4470.079999999958,response,ISIC_0046596.JPG,5,ISIC_0010592.JPG,ISIC_0046596.JPG,false,1,keypress(m),500,672589.2999999523,672589,668102.323,668181.0999999046,668118.92,672527.529,8,400,48,,ISIC_0010592.JPG
break,html.Screen,4_97_1,2023-09-08T19:59:41.810Z,,0,,,NaN,,,,,,false,,,,672590.399999857,672590,,672589.5999999046,,672527.529,8,400,,,
break_continue,html.Screen,4_97_2,2023-09-08T19:59:41.810Z,,0,,,NaN,,,,,,false,,,,672590.7999999523,672590.7000000477,,672590.5,,672527.529,8,400,,,
sequence,flow.Sequence,4_97,2023-09-08T19:59:41.810Z,,0,,,4471.780000047642,completion,,,,,false,,,,672591.2000000477,672590.7000000477,668102.323,668181.0999999046,668118.92,672527.529,8,400,,,
trial,html.Screen,4_98_0,2023-09-08T19:59:47.765Z,,0,2,,6017.870999856968,response,ISIC_4263521.JPG,6,ISIC_4166490.JPG,ISIC_4263521.JPG,false,1,keypress(m),500,678545.5,678545.399999857,672510.722,672591.399999857,672527.529,678489.073,8,400,49,,ISIC_4166490.JPG
break,html.Screen,4_98_1,2023-09-08T19:59:47.765Z,,0,,,NaN,,,,,,false,,,,678545.7999999523,678545.7000000477,,678545.5999999046,,678489.073,8,400,,,
break_continue,html.Screen,4_98_2,2023-09-08T19:59:47.765Z,,0,,,NaN,,,,,,false,,,,678546,678545.899999857,,678545.899999857,,678489.073,8,400,,,
sequence,flow.Sequence,4_98,2023-09-08T19:59:47.765Z,,0,,,6018.370999856968,completion,,,,,false,,,,678546.0999999046,678545.899999857,672510.722,672591.399999857,672527.529,678489.073,8,400,,,
trial,html.Screen,4_99_0,2023-09-08T19:59:52.951Z,,0,2,,5242.326999856974,response,ISIC_0067395.JPG,5,ISIC_5204796.JPG,ISIC_5204796.JPG,false,0,keypress(z),500,683731.5999999046,683731.399999857,678472.391,678546.0999999046,678489.073,683665.803,8,400,50,,ISIC_0067395.JPG
break,html.Screen,4_99_1,2023-09-08T20:00:02.940Z,,0,,,10002.938000000082,timeout,,,,,false,,,,693721.0999999046,693651.924,683649.24,683731.7000000477,683665.803,693668.741,8,400,,,
break_continue,html.Screen,4_99_2,2023-09-08T20:00:04.908Z,,0,,,2000.4590000476455,response,,,,,false,continue,keypress(Space),,695688.399999857,695669.2000000477,693651.924,693721.2999999523,693668.741,695622.355,8,400,,,
sequence,flow.Sequence,4_99,2023-09-08T20:00:04.908Z,,0,,,17180.12700004771,completion,,,,,false,,,,695688.5999999046,695669.2000000477,678472.391,678546.0999999046,678489.073,695622.355,8,400,,,
trial,html.Screen,4_100_0,2023-09-08T20:00:14.158Z,,0,3,,9315.944999952335,response,ISIC_0024567.JPG,5,ISIC_3060145.JPG,ISIC_0024567.JPG,false,1,keypress(m),500,704938.399999857,704938.2999999523,695605.738,695688.5999999046,695622.355,704873.671,8,400,1,,ISIC_3060145.JPG
break,html.Screen,4_100_1,2023-09-08T20:00:14.158Z,,0,,,NaN,,,,,,false,,,,704938.7000000477,704938.5999999046,,704938.5,,704873.671,8,400,,,
break_continue,html.Screen,4_100_2,2023-09-08T20:00:14.158Z,,0,,,NaN,,,,,,false,,,,704938.899999857,704938.7999999523,,704938.7999999523,,704873.671,8,400,,,
sequence,flow.Sequence,4_100,2023-09-08T20:00:14.158Z,,0,,,9316.444999952335,completion,,,,,false,,,,704939,704938.7999999523,695605.738,695688.5999999046,695622.355,704873.671,8,400,,,
trial,html.Screen,4_101_0,2023-09-08T20:00:20.127Z,,0,3,,6034.329000000027,response,ISIC_9017110.JPG,5,ISIC_8257549.JPG,ISIC_8257549.JPG,false,0,keypress(z),500,710908.2000000477,710908,704857.277,704939.0999999046,704873.671,710852.026,8,400,2,,ISIC_9017110.JPG
break,html.Screen,4_101_1,2023-09-08T20:00:20.128Z,,0,,,NaN,,,,,,false,,,,710908.399999857,710908.399999857,,710908.2999999523,,710852.026,8,400,,,
break_continue,html.Screen,4_101_2,2023-09-08T20:00:20.128Z,,0,,,NaN,,,,,,false,,,,710908.5999999046,710908.5999999046,,710908.5,,710852.026,8,400,,,
sequence,flow.Sequence,4_101,2023-09-08T20:00:20.128Z,,0,,,6034.92899990466,completion,,,,,false,,,,710908.5999999046,710908.5999999046,704857.277,704939.0999999046,704873.671,710852.026,8,400,,,
trial,html.Screen,4_102_0,2023-09-08T20:00:25.298Z,,0,3,,5226.674000047729,response,ISIC_0010145.JPG,5,ISIC_7563949.JPG,ISIC_7563949.JPG,false,0,keypress(z),500,716079,716078.7000000477,710835.495,710908.7000000477,710852.026,716028.794,8,400,3,,ISIC_0010145.JPG
break,html.Screen,4_102_1,2023-09-08T20:00:25.300Z,,0,,,NaN,,,,,,false,,,,716080.399999857,716079.899999857,,716079.399999857,,716028.794,8,400,,,
break_continue,html.Screen,4_102_2,2023-09-08T20:00:25.301Z,,0,,,NaN,,,,,,false,,,,716082.0999999046,716081.7999999523,,716081.399999857,,716028.794,8,400,,,
sequence,flow.Sequence,4_102,2023-09-08T20:00:25.302Z,,0,,,5229.773999952362,completion,,,,,false,,,,716082.5,716081.7999999523,710835.495,710908.5999999046,710852.026,716028.794,8,400,,,
trial,html.Screen,4_103_0,2023-09-08T20:00:30.174Z,,0,3,,4925.906000047689,response,ISIC_0034170.JPG,5,ISIC_8835545.JPG,ISIC_0034170.JPG,false,1,keypress(m),500,720954.899999857,720954.7000000477,716012.077,716082.7999999523,716028.794,720904.964,8,400,4,,ISIC_8835545.JPG
break,html.Screen,4_103_1,2023-09-08T20:00:30.175Z,,0,,,NaN,,,,,,false,,,,720955.5,720955.2999999523,,720955,,720904.964,8,400,,,
break_continue,html.Screen,4_103_2,2023-09-08T20:00:30.175Z,,0,,,NaN,,,,,,false,,,,720955.7999999523,720955.7000000477,,720955.5999999046,,720904.964,8,400,,,
sequence,flow.Sequence,4_103,2023-09-08T20:00:30.175Z,,0,,,4926.906000047689,completion,,,,,false,,,,720955.899999857,720955.7000000477,716012.077,716082.7000000477,716028.794,720904.964,8,400,,,
trial,html.Screen,4_104_0,2023-09-08T20:00:36.390Z,,0,3,,6265.135999904596,response,ISIC_8929288.JPG,6,ISIC_6722934.JPG,ISIC_6722934.JPG,false,0,keypress(z),500,727170.2000000477,727170.0999999046,720888.248,720956,720904.964,727117.058,8,400,5,,ISIC_8929288.JPG
break,html.Screen,4_104_1,2023-09-08T20:00:36.391Z,,0,,,NaN,,,,,,false,,,,727171.2000000477,727170.7999999523,,727170.5,,727117.058,8,400,,,
break_continue,html.Screen,4_104_2,2023-09-08T20:00:36.391Z,,0,,,NaN,,,,,,false,,,,727171.5,727171.399999857,,727171.2999999523,,727117.058,8,400,,,
sequence,flow.Sequence,4_104,2023-09-08T20:00:36.391Z,,0,,,6266.4359998569125,completion,,,,,false,,,,727171.7000000477,727171.399999857,720888.248,720956,720904.964,727117.058,8,400,,,
trial,html.Screen,4_105_0,2023-09-08T20:00:41.680Z,,0,3,,5343.642000047723,response,ISIC_4371210.JPG,4,ISIC_0011668.JPG,ISIC_4371210.JPG,false,1,keypress(m),500,732460.899999857,732460.7000000477,727100.388,727171.7999999523,727117.058,732393.896,8,400,6,,ISIC_0011668.JPG
break,html.Screen,4_105_1,2023-09-08T20:00:41.681Z,,0,,,NaN,,,,,,false,,,,732461.399999857,732461.2000000477,,732460.899999857,,732393.896,8,400,,,
break_continue,html.Screen,4_105_2,2023-09-08T20:00:41.681Z,,0,,,NaN,,,,,,false,,,,732461.899999857,732461.7000000477,,732461.5999999046,,732393.896,8,400,,,
sequence,flow.Sequence,4_105,2023-09-08T20:00:41.682Z,,0,,,5344.642000047723,completion,,,,,false,,,,732462.2000000477,732461.7000000477,727100.388,727171.7000000477,727117.058,732393.896,8,400,,,
trial,html.Screen,4_106_0,2023-09-08T20:00:48.004Z,,0,3,,6390.403999952367,response,ISIC_0068993.JPG,4,ISIC_0032140.JPG,ISIC_0068993.JPG,false,1,keypress(m),500,738784.7000000477,738784.2999999523,732377.318,732462.2999999523,732393.896,738722.98,8,400,7,,ISIC_0032140.JPG
break,html.Screen,4_106_1,2023-09-08T20:00:48.005Z,,0,,,NaN,,,,,,false,,,,738785.7999999523,738785.5,,738785,,738722.98,8,400,,,
break_continue,html.Screen,4_106_2,2023-09-08T20:00:48.006Z,,0,,,NaN,,,,,,false,,,,738786.5999999046,738786.399999857,,738786.0999999046,,738722.98,8,400,,,
sequence,flow.Sequence,4_106,2023-09-08T20:00:48.006Z,,0,,,6392.503999856999,completion,,,,,false,,,,738786.899999857,738786.399999857,732377.318,732462.2000000477,732393.896,738722.98,8,400,,,
trial,html.Screen,4_107_0,2023-09-08T20:00:52.667Z,,0,3,,4724.819999952335,response,ISIC_4680417.JPG,5,ISIC_0026086.JPG,ISIC_0026086.JPG,false,0,keypress(z),500,743447.899999857,743447.7999999523,738706.214,738787.0999999046,738722.98,743381.973,8,400,8,,ISIC_4680417.JPG
break,html.Screen,4_107_1,2023-09-08T20:00:52.668Z,,0,,,NaN,,,,,,false,,,,743448.2000000477,743448.2000000477,,743448,,743381.973,8,400,,,
break_continue,html.Screen,4_107_2,2023-09-08T20:00:52.668Z,,0,,,NaN,,,,,,false,,,,743448.399999857,743448.2999999523,,743448.2999999523,,743381.973,8,400,,,
sequence,flow.Sequence,4_107,2023-09-08T20:00:52.668Z,,0,,,4725.319999952335,completion,,,,,false,,,,743448.5,743448.2999999523,738706.214,738787,738722.98,743381.973,8,400,,,
trial,html.Screen,4_108_0,2023-09-08T20:00:58.804Z,,0,3,,6201.926999856951,response,ISIC_4243283.JPG,6,ISIC_5301938.JPG,ISIC_4243283.JPG,false,1,keypress(m),500,749584.0999999046,749583.899999857,743365.37,743448.5999999046,743381.973,749527.322,8,400,9,,ISIC_5301938.JPG
break,html.Screen,4_108_1,2023-09-08T20:00:58.804Z,,0,,,NaN,,,,,,false,,,,749584.399999857,749584.399999857,,749584.2000000477,,749527.322,8,400,,,
break_continue,html.Screen,4_108_2,2023-09-08T20:00:58.804Z,,0,,,NaN,,,,,,false,,,,749584.5999999046,749584.5999999046,,749584.5,,749527.322,8,400,,,
sequence,flow.Sequence,4_108,2023-09-08T20:00:58.804Z,,0,,,6202.626999904634,completion,,,,,false,,,,749584.7000000477,749584.5999999046,743365.37,743448.5,743381.973,749527.322,8,400,,,
trial,html.Screen,4_109_0,2023-09-08T20:01:05.366Z,,0,3,,6619.277999904589,response,ISIC_8064866.JPG,5,ISIC_1619470.JPG,ISIC_8064866.JPG,false,1,keypress(m),500,756146.7999999523,756146.5999999046,749510.591,749584.7999999523,749527.322,756090.1,8,400,10,,ISIC_1619470.JPG
break,html.Screen,4_109_1,2023-09-08T20:01:05.367Z,,0,,,NaN,,,,,,false,,,,756147.5999999046,756147.2000000477,,756147,,756090.1,8,400,,,
break_continue,html.Screen,4_109_2,2023-09-08T20:01:05.367Z,,0,,,NaN,,,,,,false,,,,756148,756147.899999857,,756147.7999999523,,756090.1,8,400,,,
sequence,flow.Sequence,4_109,2023-09-08T20:01:05.368Z,,0,,,6620.577999856905,completion,,,,,false,,,,756148,756147.899999857,749510.591,749584.7000000477,749527.322,756090.1,8,400,,,
trial,html.Screen,4_110_0,2023-09-08T20:01:10.138Z,,0,3,,4827.799999856972,response,ISIC_0031337.JPG,5,ISIC_7693995.JPG,ISIC_0031337.JPG,false,1,keypress(m),500,760918.2000000477,760917.899999857,756073.445,756148.2000000477,756090.1,760865.985,8,400,11,,ISIC_7693995.JPG
break,html.Screen,4_110_1,2023-09-08T20:01:10.138Z,,0,,,NaN,,,,,,false,,,,760918.7000000477,760918.5999999046,,760918.399999857,,760865.985,8,400,,,
break_continue,html.Screen,4_110_2,2023-09-08T20:01:10.138Z,,0,,,NaN,,,,,,false,,,,760918.7999999523,760918.7999999523,,760918.7000000477,,760865.985,8,400,,,
sequence,flow.Sequence,4_110,2023-09-08T20:01:10.139Z,,0,,,4828.69999995234,completion,,,,,false,,,,760919,760918.7999999523,756073.445,756148.0999999046,756090.1,760865.985,8,400,,,
trial,html.Screen,4_111_0,2023-09-08T20:01:18.764Z,,0,3,,8678.614999904647,response,ISIC_0033759.JPG,4,ISIC_4468549.JPG,ISIC_0033759.JPG,false,1,keypress(m),500,769544.7999999523,769544.5999999046,760849.271,760919.0999999046,760865.985,769482.823,8,400,12,,ISIC_4468549.JPG
break,html.Screen,4_111_1,2023-09-08T20:01:18.765Z,,0,,,NaN,,,,,,false,,,,769545.5,769545.399999857,,769545.0999999046,,769482.823,8,400,,,
break_continue,html.Screen,4_111_2,2023-09-08T20:01:18.765Z,,0,,,NaN,,,,,,false,,,,769545.899999857,769545.7999999523,,769545.7000000477,,769482.823,8,400,,,
sequence,flow.Sequence,4_111,2023-09-08T20:01:18.766Z,,0,,,8679.81499995233,completion,,,,,false,,,,769546.0999999046,769545.7999999523,760849.271,760919,760865.985,769482.823,8,400,,,
trial,html.Screen,4_112_0,2023-09-08T20:01:23.105Z,,0,3,,4402.276999904658,response,ISIC_2283628.JPG,6,ISIC_8330906.JPG,ISIC_2283628.JPG,false,1,keypress(m),500,773885.2999999523,773885.0999999046,769466.177,769546.2999999523,769482.823,773824.521,8,400,13,,ISIC_8330906.JPG
break,html.Screen,4_112_1,2023-09-08T20:01:23.105Z,,0,,,NaN,,,,,,false,,,,773885.5,773885.5,,773885.2999999523,,773824.521,8,400,,,
break_continue,html.Screen,4_112_2,2023-09-08T20:01:23.105Z,,0,,,NaN,,,,,,false,,,,773885.7000000477,773885.5999999046,,773885.5999999046,,773824.521,8,400,,,
sequence,flow.Sequence,4_112,2023-09-08T20:01:23.105Z,,0,,,4402.776999904658,completion,,,,,false,,,,773885.7000000477,773885.5999999046,769466.177,769546.0999999046,769482.823,773824.521,8,400,,,
trial,html.Screen,4_113_0,2023-09-08T20:01:28.439Z,,0,3,,5394.878999856999,response,ISIC_5484086.JPG,5,ISIC_9099430.JPG,ISIC_5484086.JPG,false,1,keypress(m),500,779219.5999999046,779219.399999857,773807.865,773885.7999999523,773824.521,779168.387,8,400,14,,ISIC_9099430.JPG
break,html.Screen,4_113_1,2023-09-08T20:01:28.440Z,,0,,,NaN,,,,,,false,,,,779220.2999999523,779220.0999999046,,779219.7999999523,,779168.387,8,400,,,
break_continue,html.Screen,4_113_2,2023-09-08T20:01:28.440Z,,0,,,NaN,,,,,,false,,,,779220.399999857,779220.399999857,,779220.2999999523,,779168.387,8,400,,,
sequence,flow.Sequence,4_113,2023-09-08T20:01:28.440Z,,0,,,5395.878999856999,completion,,,,,false,,,,779220.5999999046,779220.399999857,773807.865,773885.7999999523,773824.521,779168.387,8,400,,,
trial,html.Screen,4_114_0,2023-09-08T20:01:34.314Z,,0,3,,5925.912999952328,response,ISIC_3800974.JPG,5,ISIC_9806131.JPG,ISIC_9806131.JPG,false,0,keypress(z),500,785094.399999857,785094.2999999523,779151.764,779220.5999999046,779168.387,785029.694,8,400,15,,ISIC_3800974.JPG
break,html.Screen,4_114_1,2023-09-08T20:01:34.314Z,,0,,,NaN,,,,,,false,,,,785094.899999857,785094.7999999523,,785094.5,,785029.694,8,400,,,
break_continue,html.Screen,4_114_2,2023-09-08T20:01:34.315Z,,0,,,NaN,,,,,,false,,,,785095.2000000477,785095,,785094.899999857,,785029.694,8,400,,,
sequence,flow.Sequence,4_114,2023-09-08T20:01:34.315Z,,0,,,5926.613000000012,completion,,,,,false,,,,785095.2999999523,785095,779151.764,779220.5999999046,779168.387,785029.694,8,400,,,
trial,html.Screen,4_115_0,2023-09-08T20:01:39.261Z,,0,3,,5011.105999952299,response,ISIC_2987613.JPG,5,ISIC_4383671.JPG,ISIC_2987613.JPG,false,1,keypress(m),500,790041,790040.7999999523,785013.031,785095.2999999523,785029.694,789989.42,8,400,16,,ISIC_4383671.JPG
break,html.Screen,4_115_1,2023-09-08T20:01:39.261Z,,0,,,NaN,,,,,,false,,,,790041.899999857,790041.7000000477,,790041.399999857,,789989.42,8,400,,,
break_continue,html.Screen,4_115_2,2023-09-08T20:01:39.262Z,,0,,,NaN,,,,,,false,,,,790042,790042,,790041.899999857,,789989.42,8,400,,,
sequence,flow.Sequence,4_115,2023-09-08T20:01:39.262Z,,0,,,5012.305999999982,completion,,,,,false,,,,790042.0999999046,790042,785013.031,785095.2999999523,785029.694,789989.42,8,400,,,
trial,html.Screen,4_116_0,2023-09-08T20:01:47.312Z,,0,3,,8102.179999904591,response,ISIC_7873541.JPG,5,ISIC_0031087.JPG,ISIC_0031087.JPG,false,0,keypress(z),500,798092,798091.5999999046,789972.692,790042.0999999046,789989.42,798038.581,8,400,17,,ISIC_7873541.JPG
break,html.Screen,4_116_1,2023-09-08T20:01:47.313Z,,0,,,NaN,,,,,,false,,,,798093.5999999046,798093.2000000477,,798092.5,,798038.581,8,400,,,
break_continue,html.Screen,4_116_2,2023-09-08T20:01:47.314Z,,0,,,NaN,,,,,,false,,,,798094.399999857,798094.0999999046,,798093.899999857,,798038.581,8,400,,,
sequence,flow.Sequence,4_116,2023-09-08T20:01:47.314Z,,0,,,8104.679999904591,completion,,,,,false,,,,798094.5,798094.0999999046,789972.692,790042.0999999046,789989.42,798038.581,8,400,,,
trial,html.Screen,4_117_0,2023-09-08T20:01:51.717Z,,0,3,,4458.018999904627,response,ISIC_0025355.JPG,6,ISIC_6625102.JPG,ISIC_6625102.JPG,false,0,keypress(z),500,802496.7999999523,802496.5999999046,798021.65,798094.7999999523,798038.581,802430.227,8,400,18,,ISIC_0025355.JPG
break,html.Screen,4_117_1,2023-09-08T20:01:51.717Z,,0,,,NaN,,,,,,false,,,,802497.0999999046,802497.0999999046,,802497,,802430.227,8,400,,,
break_continue,html.Screen,4_117_2,2023-09-08T20:01:51.717Z,,0,,,NaN,,,,,,false,,,,802497.2999999523,802497.2999999523,,802497.2999999523,,802430.227,8,400,,,
sequence,flow.Sequence,4_117,2023-09-08T20:01:51.717Z,,0,,,4458.718999952311,completion,,,,,false,,,,802497.399999857,802497.2999999523,798021.65,798094.7000000477,798038.581,802430.227,8,400,,,
trial,html.Screen,4_118_0,2023-09-08T20:01:58.314Z,,0,3,,6663.672999856994,response,ISIC_3043475.JPG,5,ISIC_2380341.JPG,ISIC_3043475.JPG,false,1,keypress(m),500,809094.0999999046,809093.899999857,802413.792,802497.5,802430.227,809059.814,8,400,19,,ISIC_2380341.JPG
break,html.Screen,4_118_1,2023-09-08T20:01:58.314Z,,0,,,NaN,,,,,,false,,,,809094.5999999046,809094.399999857,,809094.0999999046,,809059.814,8,400,,,
break_continue,html.Screen,4_118_2,2023-09-08T20:01:58.315Z,,0,,,NaN,,,,,,false,,,,809095,809094.899999857,,809094.7999999523,,809059.814,8,400,,,
sequence,flow.Sequence,4_118,2023-09-08T20:01:58.315Z,,0,,,6664.672999856994,completion,,,,,false,,,,809095.2000000477,809094.899999857,802413.792,802497.5,802430.227,809059.814,8,400,,,
trial,html.Screen,4_119_0,2023-09-08T20:02:05.357Z,,0,3,,7077.585999856936,response,ISIC_9943579.JPG,5,ISIC_0032181.JPG,ISIC_0032181.JPG,false,0,keypress(z),500,816137.5,816137.399999857,809043.124,809095.2999999523,809059.814,816073.432,8,400,20,,ISIC_9943579.JPG
break,html.Screen,4_119_1,2023-09-08T20:02:05.357Z,,0,,,NaN,,,,,,false,,,,816137.7999999523,816137.7000000477,,816137.5999999046,,816073.432,8,400,,,
break_continue,html.Screen,4_119_2,2023-09-08T20:02:05.358Z,,0,,,NaN,,,,,,false,,,,816138,816138,,816137.7999999523,,816073.432,8,400,,,
sequence,flow.Sequence,4_119,2023-09-08T20:02:05.358Z,,0,,,7078.185999999987,completion,,,,,false,,,,816138,816138,809043.124,809095.2999999523,809059.814,816073.432,8,400,,,
trial,html.Screen,4_120_0,2023-09-08T20:02:11.494Z,,0,3,,6200.768000047654,response,ISIC_0062235.JPG,6,ISIC_2421696.JPG,ISIC_0062235.JPG,false,1,keypress(m),500,822274.399999857,822274.2000000477,816056.788,816138.0999999046,816073.432,822218.935,8,400,21,,ISIC_2421696.JPG
break,html.Screen,4_120_1,2023-09-08T20:02:11.494Z,,0,,,NaN,,,,,,false,,,,822274.7999999523,822274.5999999046,,822274.5,,822218.935,8,400,,,
break_continue,html.Screen,4_120_2,2023-09-08T20:02:11.495Z,,0,,,NaN,,,,,,false,,,,822275.0999999046,822274.899999857,,822274.7999999523,,822218.935,8,400,,,
sequence,flow.Sequence,4_120,2023-09-08T20:02:11.495Z,,0,,,6201.467999856919,completion,,,,,false,,,,822275.2000000477,822274.899999857,816056.788,816138,816073.432,822218.935,8,400,,,
trial,html.Screen,4_121_0,2023-09-08T20:02:16.843Z,,0,3,,5404.164999904577,response,ISIC_7340926.JPG,5,ISIC_0065882.JPG,ISIC_7340926.JPG,false,1,keypress(m),500,827623.2999999523,827623.0999999046,822202.024,822275.2999999523,822218.935,827562.462,8,400,22,,ISIC_0065882.JPG
break,html.Screen,4_121_1,2023-09-08T20:02:16.843Z,,0,,,NaN,,,,,,false,,,,827623.5999999046,827623.5,,827623.399999857,,827562.462,8,400,,,
break_continue,html.Screen,4_121_2,2023-09-08T20:02:16.844Z,,0,,,NaN,,,,,,false,,,,827624,827623.899999857,,827623.7000000477,,827562.462,8,400,,,
sequence,flow.Sequence,4_121,2023-09-08T20:02:16.844Z,,0,,,5404.964999856893,completion,,,,,false,,,,827624.0999999046,827623.899999857,822202.024,822275.2000000477,822218.935,827562.462,8,400,,,
trial,html.Screen,4_122_0,2023-09-08T20:02:22.514Z,,0,3,,5731.637999904575,response,ISIC_0000814.JPG,5,ISIC_5768032.JPG,ISIC_5768032.JPG,false,0,keypress(z),500,833294.399999857,833294.0999999046,827545.832,827624.0999999046,827562.462,833240.902,8,400,23,,ISIC_0000814.JPG
break,html.Screen,4_122_1,2023-09-08T20:02:22.515Z,,0,,,NaN,,,,,,false,,,,833295.0999999046,833294.899999857,,833294.5999999046,,833240.902,8,400,,,
break_continue,html.Screen,4_122_2,2023-09-08T20:02:22.515Z,,0,,,NaN,,,,,,false,,,,833295.5,833295.399999857,,833295.2000000477,,833240.902,8,400,,,
sequence,flow.Sequence,4_122,2023-09-08T20:02:22.515Z,,0,,,5732.937999856891,completion,,,,,false,,,,833295.5999999046,833295.399999857,827545.832,827624.0999999046,827562.462,833240.902,8,400,,,
trial,html.Screen,4_123_0,2023-09-08T20:02:30.757Z,,0,3,,8296.497999856947,response,ISIC_5152859.JPG,6,ISIC_0013835.JPG,ISIC_0013835.JPG,false,0,keypress(z),500,841537.5,841537.399999857,833223.684,833295.7000000477,833240.902,841472.844,8,400,24,,ISIC_5152859.JPG
break,html.Screen,4_123_1,2023-09-08T20:02:30.758Z,,0,,,NaN,,,,,,false,,,,841537.899999857,841537.7999999523,,841537.5999999046,,841472.844,8,400,,,
break_continue,html.Screen,4_123_2,2023-09-08T20:02:30.758Z,,0,,,NaN,,,,,,false,,,,841538.2999999523,841538.2000000477,,841538.0999999046,,841472.844,8,400,,,
sequence,flow.Sequence,4_123,2023-09-08T20:02:30.758Z,,0,,,8297.298000047682,completion,,,,,false,,,,841538.399999857,841538.2000000477,833223.684,833295.5999999046,833240.902,841472.844,8,400,,,
trial,html.Screen,4_124_0,2023-09-08T20:02:36.143Z,,0,3,,5450.356000047643,response,ISIC_5929687.JPG,5,ISIC_6320497.JPG,ISIC_6320497.JPG,false,0,keypress(z),500,846923.2999999523,846923.2000000477,841456.239,841538.5,841472.844,846866.807,8,400,25,,ISIC_5929687.JPG
break,html.Screen,4_124_1,2023-09-08T20:02:36.143Z,,0,,,NaN,,,,,,false,,,,846923.7999999523,846923.5999999046,,846923.399999857,,846866.807,8,400,,,
break_continue,html.Screen,4_124_2,2023-09-08T20:02:36.144Z,,0,,,NaN,,,,,,false,,,,846924.0999999046,846924,,846923.899999857,,846866.807,8,400,,,
sequence,flow.Sequence,4_124,2023-09-08T20:02:36.144Z,,0,,,5451.155999999959,completion,,,,,false,,,,846924.2000000477,846924,841456.239,841538.5,841472.844,846866.807,8,400,,,
trial,html.Screen,4_125_0,2023-09-08T20:02:42.993Z,,0,3,,6906.792999904603,response,ISIC_9802008.JPG,6,ISIC_0029441.JPG,ISIC_0029441.JPG,false,0,keypress(z),500,853773.5999999046,853773.5999999046,846850.162,846924.2999999523,846866.807,853713.381,8,400,26,,ISIC_9802008.JPG
break,html.Screen,4_125_1,2023-09-08T20:02:42.994Z,,0,,,NaN,,,,,,false,,,,853774.0999999046,853773.899999857,,853773.7999999523,,853713.381,8,400,,,
break_continue,html.Screen,4_125_2,2023-09-08T20:02:42.994Z,,0,,,NaN,,,,,,false,,,,853774.399999857,853774.2999999523,,853774.2000000477,,853713.381,8,400,,,
sequence,flow.Sequence,4_125,2023-09-08T20:02:42.994Z,,0,,,6907.4929999522865,completion,,,,,false,,,,853774.5,853774.2999999523,846850.162,846924.2999999523,846866.807,853713.381,8,400,,,
trial,html.Screen,4_126_0,2023-09-08T20:02:49.385Z,,0,3,,6452.418999952264,response,ISIC_0029571.JPG,5,ISIC_3296136.JPG,ISIC_0029571.JPG,false,1,keypress(m),500,860166,860165.7999999523,853696.919,853774.5,853713.381,860109.213,8,400,27,,ISIC_3296136.JPG
break,html.Screen,4_126_1,2023-09-08T20:02:49.386Z,,0,,,NaN,,,,,,false,,,,860166.7000000477,860166.5,,860166.2000000477,,860109.213,8,400,,,
