sender,sender_type,sender_id,timestamp,meta,,blockNo,condition,duration,ended_on,img_left,img_reveal,img_right,loser,practice,response,response_action,selection_duration,time_commit,time_end,time_render,time_run,time_show,time_switch,total_blocks,total_trials,trialNo,url,winner
informed_consent,html.Screen,0,2023-09-08T17:45:18.020Z,"{""labjs_version"":""20.2.4"",""labjs_build"":{""flavor"":""development"",""commit"":""f5b4a49f956347addd546a832a3327688c2c0fef""},""location"":""https://labjs.felixhenninger.com/api/labjs_preview/index.html"",""userAgent"":""Mozilla/5.0 (Windows NT 10.0; Win64; x64) AppleWebKit/537.36 (KHTML, like Gecko) Chrome/116.0.0.0 Safari/537.36"",""platform"":""Win32"",""language"":""en-AU"",""locale"":""en-US"",""timeZone"":""America/Chicago"",""timezoneOffset"":300,""screen_width"":1680,""screen_height"":1050,""scroll_width"":1296,""scroll_height"":688,""window_innerWidth"":1296,""window_innerHeight"":736,""devicePixelRatio"":1}",,,,31938.430000190736,response,,,,,,consent,click button,,32558.700000047684,32557.800000190735,602.667,595.8000001907349,619.37,32565.035,,,,{},
Welcome,html.Screen,1,2023-09-08T17:47:52.724Z,,,,colourful,154694.965,response,,,,,,continue,click button,,187260.70000004768,187260,32548.373,32559,32565.035,187265.947,,,,,
trial,html.Screen,2_0_0,2023-09-08T17:48:04.219Z,,0,0,,11522.426000000007,timeout,ISIC_0063388.JPG,,ISIC_0025593.JPG,,true,,,500,198755.5,198755.40000009537,187249.253,187260.90000009537,187265.947,198788.373,1,6,1,,
sequence,flow.Sequence,2_0,2023-09-08T17:48:04.220Z,,0,,,11489.453000095382,completion,,,,,true,,,,198755.70000004768,198755.40000009537,187249.253,187260.80000019073,187265.947,198788.373,1,6,,,
trial,html.Screen,2_1_0,2023-09-08T17:48:15.742Z,,0,0,,11522.513999999996,timeout,ISIC_1309015.JPG,,ISIC_0028178.JPG,,true,,,500,210278.10000014305,210277.80000019073,198771.71,198755.80000019073,198788.373,210310.887,1,6,2,,
sequence,flow.Sequence,2_1,2023-09-08T17:48:15.742Z,,0,,,11489.427000190743,completion,,,,,true,,,,210278.5,210277.80000019073,198771.71,198755.80000019073,198788.373,210310.887,1,6,,,
trial,html.Screen,2_2_0,2023-09-08T17:48:27.264Z,,0,0,,11522.332000000024,timeout,ISIC_0031128.JPG,,ISIC_3314853.JPG,,true,,,500,221800.30000019073,221800.20000004768,210294.117,210278.70000004768,210310.887,221833.219,1,6,3,,
sequence,flow.Sequence,2_2,2023-09-08T17:48:27.264Z,,0,,,11489.313000047696,completion,,,,,true,,,,221800.5,221800.20000004768,210294.117,210278.60000014305,210310.887,221833.219,1,6,,,
trial,html.Screen,2_3_0,2023-09-08T17:48:38.787Z,,0,0,,11522.468999999983,timeout,ISIC_0031612.JPG,,ISIC_8980141.JPG,,true,,,500,233323,233322.70000004768,221816.483,221800.60000014305,221833.219,233355.688,1,6,4,,
sequence,flow.Sequence,2_3,2023-09-08T17:48:38.787Z,,0,,,11489.481000047672,completion,,,,,true,,,,233323.30000019073,233322.70000004768,221816.483,221800.60000014305,221833.219,233355.688,1,6,,,
trial,html.Screen,2_4_0,2023-09-08T17:48:50.309Z,,0,0,,11522.380000000005,timeout,ISIC_9721604.JPG,,ISIC_1197737.JPG,,true,,,500,244845,244844.90000009537,233339.081,233323.5,233355.688,244878.068,1,6,5,,
sequence,flow.Sequence,2_4,2023-09-08T17:48:50.309Z,,0,,,11489.212000095373,completion,,,,,true,,,,244845.30000019073,244844.90000009537,233339.081,233323.5,233355.688,244878.068,1,6,,,
trial,html.Screen,2_5_0,2023-09-08T17:49:01.832Z,,0,0,,11522.578000000009,timeout,ISIC_0010681.JPG,,ISIC_0025346.JPG,,true,,,500,256367.5,256367.40000009537,244861.358,244845.30000019073,244878.068,256400.646,1,6,6,,
sequence,flow.Sequence,2_5,2023-09-08T17:49:01.832Z,,0,,,11489.332000095368,completion,,,,,true,,,,256367.60000014305,256367.40000009537,244861.358,244845.30000019073,244878.068,256400.646,1,6,,,
loop,flow.Loop,2,2023-09-08T17:49:01.832Z,,,,,69101.45300009538,completion,,,,,true,,,,256367.80000019073,256367.40000009537,187249.253,187260.70000004768,187265.947,256400.646,1,6,,,
exp_instructions,html.Screen,3,2023-09-08T17:49:47.274Z,,,,,45400.35399999999,response,,,,,,continue,keypress(Space),,301809.5,301801,256383.767,256367.80000019073,256400.646,301822.236,,,,,
trial,html.Screen,4_0_0,2023-09-08T17:49:55.453Z,,0,1,,8165.164000095392,response,ISIC_0029905.JPG,5,ISIC_6988514.JPG,ISIC_0029905.JPG,false,1,keypress(m),500,309987.5,309987.40000009537,301805.516,301809.60000014305,301822.236,309988.112,8,400,1,,ISIC_6988514.JPG
break,html.Screen,4_0_1,2023-09-08T17:49:55.453Z,,0,,,NaN,,,,,,false,,,,309987.90000009537,309987.80000019073,,309987.60000014305,,309988.112,8,400,,,
break_continue,html.Screen,4_0_2,2023-09-08T17:49:55.453Z,,0,,,NaN,,,,,,false,,,,309988.10000014305,309988.10000014305,,309988,,309988.112,8,400,,,
sequence,flow.Sequence,4_0,2023-09-08T17:49:55.453Z,,0,,,8165.864000143076,completion,,,,,false,,,,309988.10000014305,309988.10000014305,301805.516,301809.60000014305,301822.236,309988.112,8,400,,,
trial,html.Screen,4_1_0,2023-09-08T17:50:03.174Z,,0,1,,7720.688000190712,response,ISIC_6463417.JPG,5,ISIC_4659355.JPG,ISIC_4659355.JPG,false,0,keypress(z),500,317708.90000009537,317708.80000019073,309971.486,309988.2000000477,309988.112,317719.867,8,400,2,,ISIC_6463417.JPG
break,html.Screen,4_1_1,2023-09-08T17:50:03.174Z,,0,,,NaN,,,,,,false,,,,317709.30000019073,317709.2000000477,,317709,,317719.867,8,400,,,
break_continue,html.Screen,4_1_2,2023-09-08T17:50:03.175Z,,0,,,NaN,,,,,,false,,,,317709.7000000477,317709.5,,317709.40000009537,,317719.867,8,400,,,
sequence,flow.Sequence,4_1,2023-09-08T17:50:03.175Z,,0,,,7721.387999999977,completion,,,,,false,,,,317709.80000019073,317709.5,309971.486,309988.2000000477,309988.112,317719.867,8,400,,,
trial,html.Screen,4_2_0,2023-09-08T17:50:11.705Z,,0,1,,8519.53300009534,response,ISIC_4045781.JPG,5,ISIC_1193108.JPG,ISIC_1193108.JPG,false,0,keypress(z),500,326239.60000014305,326239.40000009537,317703.114,317709.90000009537,317719.867,326253.065,8,400,3,,ISIC_4045781.JPG
break,html.Screen,4_2_1,2023-09-08T17:50:11.705Z,,0,,,NaN,,,,,,false,,,,326240.10000014305,326240,,326239.80000019073,,326253.065,8,400,,,
break_continue,html.Screen,4_2_2,2023-09-08T17:50:11.706Z,,0,,,NaN,,,,,,false,,,,326240.5,326240.5,,326240.30000019073,,326253.065,8,400,,,
sequence,flow.Sequence,4_2,2023-09-08T17:50:11.706Z,,0,,,8520.632999999973,completion,,,,,false,,,,326240.60000014305,326240.5,317703.114,317709.80000019073,317719.867,326253.065,8,400,,,
trial,html.Screen,4_3_0,2023-09-08T17:50:21.252Z,,0,1,,9533.635000047681,response,ISIC_6028082.JPG,5,ISIC_4699066.JPG,ISIC_6028082.JPG,false,1,keypress(m),500,335786.7000000477,335786.7000000477,326236.409,326240.80000019073,326253.065,335788.31,8,400,4,,ISIC_4699066.JPG
break,html.Screen,4_3_1,2023-09-08T17:50:21.252Z,,0,,,NaN,,,,,,false,,,,335787.10000014305,335787,,335786.90000009537,,335788.31,8,400,,,
break_continue,html.Screen,4_3_2,2023-09-08T17:50:21.252Z,,0,,,NaN,,,,,,false,,,,335787.40000009537,335787.2000000477,,335787.2000000477,,335788.31,8,400,,,
sequence,flow.Sequence,4_3,2023-09-08T17:50:21.252Z,,0,,,9534.135000047681,completion,,,,,false,,,,335787.40000009537,335787.2000000477,326236.409,326240.80000019073,326253.065,335788.31,8,400,,,
trial,html.Screen,4_4_0,2023-09-08T17:50:28.887Z,,0,1,,7633.190000000002,response,ISIC_6025721.JPG,5,ISIC_6159783.JPG,ISIC_6025721.JPG,false,1,keypress(m),500,343421.60000014305,343421.5,335771.622,335787.5,335788.31,343436.558,8,400,5,,ISIC_6159783.JPG
break,html.Screen,4_4_1,2023-09-08T17:50:28.887Z,,0,,,NaN,,,,,,false,,,,343422,343421.80000019073,,343421.7000000477,,343436.558,8,400,,,
break_continue,html.Screen,4_4_2,2023-09-08T17:50:28.887Z,,0,,,NaN,,,,,,false,,,,343422.30000019073,343422.2000000477,,343422.10000014305,,343436.558,8,400,,,
sequence,flow.Sequence,4_4,2023-09-08T17:50:28.887Z,,0,,,7633.890000047686,completion,,,,,false,,,,343422.30000019073,343422.2000000477,335771.622,335787.40000009537,335788.31,343436.558,8,400,,,
trial,html.Screen,4_5_0,2023-09-08T17:50:38.079Z,,0,1,,9176.842000095348,response,ISIC_0010468.JPG,5,ISIC_0026039.JPG,ISIC_0010468.JPG,false,1,keypress(m),500,352613.60000014305,352613.40000009537,343419.846,343422.40000009537,343436.558,352621.134,8,400,6,,ISIC_0026039.JPG
break,html.Screen,4_5_1,2023-09-08T17:50:38.079Z,,0,,,NaN,,,,,,false,,,,352614.2000000477,352614,,352613.80000019073,,352621.134,8,400,,,
break_continue,html.Screen,4_5_2,2023-09-08T17:50:38.080Z,,0,,,NaN,,,,,,false,,,,352614.60000014305,352614.5,,352614.5,,352621.134,8,400,,,
sequence,flow.Sequence,4_5,2023-09-08T17:50:38.080Z,,0,,,9177.94199999998,completion,,,,,false,,,,352614.7000000477,352614.5,343419.846,343422.40000009537,343436.558,352621.134,8,400,,,
trial,html.Screen,4_6_0,2023-09-08T17:50:47.174Z,,0,1,,9088.066000047664,response,ISIC_0212774.JPG,6,ISIC_2007396.JPG,ISIC_2007396.JPG,false,0,keypress(z),500,361709.30000019073,361709.2000000477,352604.39,352614.90000009537,352621.134,361722.116,8,400,7,,ISIC_0212774.JPG
break,html.Screen,4_6_1,2023-09-08T17:50:47.175Z,,0,,,NaN,,,,,,false,,,,361709.7000000477,361709.60000014305,,361709.40000009537,,361722.116,8,400,,,
break_continue,html.Screen,4_6_2,2023-09-08T17:50:47.175Z,,0,,,NaN,,,,,,false,,,,361709.90000009537,361709.80000019073,,361709.7000000477,,361722.116,8,400,,,
sequence,flow.Sequence,4_6,2023-09-08T17:50:47.175Z,,0,,,9088.666000190715,completion,,,,,false,,,,361710,361709.80000019073,352604.39,352614.90000009537,352621.134,361722.116,8,400,,,
trial,html.Screen,4_7_0,2023-09-08T17:50:55.737Z,,0,1,,8548.984000143071,response,ISIC_6978997.JPG,6,ISIC_8429798.JPG,ISIC_6978997.JPG,false,1,keypress(m),500,370271.5,370271.10000014305,361705.433,361710.10000014305,361722.116,370289.004,8,400,8,,ISIC_8429798.JPG
break,html.Screen,4_7_1,2023-09-08T17:50:55.739Z,,0,,,NaN,,,,,,false,,,,370273.5,370272.80000019073,,370272,,370289.004,8,400,,,
break_continue,html.Screen,4_7_2,2023-09-08T17:50:55.740Z,,0,,,NaN,,,,,,false,,,,370274.5,370274.30000019073,,370273.90000009537,,370289.004,8,400,,,
sequence,flow.Sequence,4_7,2023-09-08T17:50:55.740Z,,0,,,8552.184000190755,completion,,,,,false,,,,370274.90000009537,370274.30000019073,361705.433,361710,361722.116,370289.004,8,400,,,
trial,html.Screen,4_8_0,2023-09-08T17:51:06.048Z,,0,1,,10292.896000095352,response,ISIC_0062546.JPG,6,ISIC_9155465.JPG,ISIC_0062546.JPG,false,1,keypress(m),500,380582.10000014305,380581.90000009537,370272.129,370275.30000019073,370289.004,380592.209,8,400,9,,ISIC_9155465.JPG
break,html.Screen,4_8_1,2023-09-08T17:51:06.048Z,,0,,,NaN,,,,,,false,,,,380582.90000009537,380582.5,,380582.30000019073,,380592.209,8,400,,,
break_continue,html.Screen,4_8_2,2023-09-08T17:51:06.049Z,,0,,,NaN,,,,,,false,,,,380583.10000014305,380583.10000014305,,380583,,380592.209,8,400,,,
sequence,flow.Sequence,4_8,2023-09-08T17:51:06.049Z,,0,,,10294.096000143036,completion,,,,,false,,,,380583.30000019073,380583.10000014305,370272.129,370275.10000014305,370289.004,380592.209,8,400,,,
trial,html.Screen,4_9_0,2023-09-08T17:51:14.620Z,,0,1,,8561.691000095394,response,ISIC_5615694.JPG,5,ISIC_7448231.JPG,ISIC_5615694.JPG,false,1,keypress(m),500,389154,389153.90000009537,380575.531,380583.40000009537,380592.209,389158.8,8,400,10,,ISIC_7448231.JPG
break,html.Screen,4_9_1,2023-09-08T17:51:14.620Z,,0,,,NaN,,,,,,false,,,,389154.40000009537,389154.2000000477,,389154,,389158.8,8,400,,,
break_continue,html.Screen,4_9_2,2023-09-08T17:51:14.620Z,,0,,,NaN,,,,,,false,,,,389154.60000014305,389154.5,,389154.5,,389158.8,8,400,,,
sequence,flow.Sequence,4_9,2023-09-08T17:51:14.620Z,,0,,,8562.291000000027,completion,,,,,false,,,,389154.7000000477,389154.5,380575.531,380583.40000009537,380592.209,389158.8,8,400,,,
trial,html.Screen,4_10_0,2023-09-08T17:51:25.165Z,,0,1,,10540.800000143063,response,ISIC_0009622.JPG,5,ISIC_9718067.JPG,ISIC_0009622.JPG,false,1,keypress(m),500,399699.7000000477,399699.60000014305,389142.133,389154.7000000477,389158.8,399712.748,8,400,11,,ISIC_9718067.JPG
break,html.Screen,4_10_1,2023-09-08T17:51:25.166Z,,0,,,NaN,,,,,,false,,,,399700.2000000477,399700.10000014305,,399699.90000009537,,399712.748,8,400,,,
break_continue,html.Screen,4_10_2,2023-09-08T17:51:25.166Z,,0,,,NaN,,,,,,false,,,,399700.5,399700.40000009537,,399700.40000009537,,399712.748,8,400,,,
sequence,flow.Sequence,4_10,2023-09-08T17:51:25.166Z,,0,,,10541.600000095379,completion,,,,,false,,,,399700.60000014305,399700.40000009537,389142.133,389154.7000000477,389158.8,399712.748,8,400,,,
trial,html.Screen,4_11_0,2023-09-08T17:51:33.888Z,,0,1,,8709.152000095346,response,ISIC_2341100.JPG,6,ISIC_0034202.JPG,ISIC_2341100.JPG,false,1,keypress(m),500,408422.10000014305,408421.90000009537,399695.993,399700.80000019073,399712.748,408429.662,8,400,12,,ISIC_0034202.JPG
break,html.Screen,4_11_1,2023-09-08T17:51:33.888Z,,0,,,NaN,,,,,,false,,,,408422.90000009537,408422.60000014305,,408422.40000009537,,408429.662,8,400,,,
break_continue,html.Screen,4_11_2,2023-09-08T17:51:33.889Z,,0,,,NaN,,,,,,false,,,,408423.2000000477,408423.10000014305,,408423,,408429.662,8,400,,,
sequence,flow.Sequence,4_11,2023-09-08T17:51:33.889Z,,0,,,8710.35200014303,completion,,,,,false,,,,408423.30000019073,408423.10000014305,399695.993,399700.7000000477,399712.748,408429.662,8,400,,,
trial,html.Screen,4_12_0,2023-09-08T17:51:41.002Z,,0,1,,7106.138000190724,response,ISIC_0024892.JPG,6,ISIC_0061152.JPG,ISIC_0024892.JPG,false,1,keypress(m),500,415535.90000009537,415535.80000019073,408412.99,408423.30000019073,408429.662,415543.611,8,400,13,,ISIC_0061152.JPG
break,html.Screen,4_12_1,2023-09-08T17:51:41.002Z,,0,,,NaN,,,,,,false,,,,415536.30000019073,415536.2000000477,,415536.10000014305,,415543.611,8,400,,,
break_continue,html.Screen,4_12_2,2023-09-08T17:51:41.002Z,,0,,,NaN,,,,,,false,,,,415536.5,415536.5,,415536.40000009537,,415543.611,8,400,,,
sequence,flow.Sequence,4_12,2023-09-08T17:51:41.002Z,,0,,,7106.837999999989,completion,,,,,false,,,,415536.60000014305,415536.5,408412.99,408423.30000019073,408429.662,415543.611,8,400,,,
trial,html.Screen,4_13_0,2023-09-08T17:51:47.891Z,,0,1,,6881.889000000025,response,ISIC_0031891.JPG,5,ISIC_1445277.JPG,ISIC_1445277.JPG,false,0,keypress(z),500,422425.7000000477,422425.5,415526.894,415536.7000000477,415543.611,422440.341,8,400,14,,ISIC_0031891.JPG
break,html.Screen,4_13_1,2023-09-08T17:51:47.892Z,,0,,,NaN,,,,,,false,,,,422426.10000014305,422426,,422425.80000019073,,422440.341,8,400,,,
break_continue,html.Screen,4_13_2,2023-09-08T17:51:47.892Z,,0,,,NaN,,,,,,false,,,,422426.30000019073,422426.30000019073,,422426.2000000477,,422440.341,8,400,,,
sequence,flow.Sequence,4_13,2023-09-08T17:51:47.892Z,,0,,,6882.6890001907595,completion,,,,,false,,,,422426.40000009537,422426.30000019073,415526.894,415536.60000014305,415543.611,422440.341,8,400,,,
trial,html.Screen,4_14_0,2023-09-08T17:51:57.366Z,,0,1,,9459.658999999985,response,ISIC_7642591.JPG,5,ISIC_5229861.JPG,ISIC_7642591.JPG,false,1,keypress(m),500,431900.10000014305,431900,422423.564,422426.5,422440.341,431908.693,8,400,15,,ISIC_5229861.JPG
break,html.Screen,4_14_1,2023-09-08T17:51:57.367Z,,0,,,NaN,,,,,,false,,,,431900.5,431900.40000009537,,431900.2000000477,,431908.693,8,400,,,
break_continue,html.Screen,4_14_2,2023-09-08T17:51:57.367Z,,0,,,NaN,,,,,,false,,,,431900.7000000477,431900.7000000477,,431900.5,,431908.693,8,400,,,
sequence,flow.Sequence,4_14,2023-09-08T17:51:57.367Z,,0,,,9460.359000047669,completion,,,,,false,,,,431900.80000019073,431900.7000000477,422423.564,422426.5,422440.341,431908.693,8,400,,,
trial,html.Screen,4_15_0,2023-09-08T17:52:06.141Z,,0,1,,8765.607000190706,response,ISIC_6487809.JPG,5,ISIC_0062364.JPG,ISIC_6487809.JPG,false,1,keypress(m),500,440674.40000009537,440674.30000019073,431891.967,431900.90000009537,431908.693,440675.759,8,400,16,,ISIC_0062364.JPG
break,html.Screen,4_15_1,2023-09-08T17:52:06.141Z,,0,,,NaN,,,,,,false,,,,440674.7000000477,440674.60000014305,,440674.40000009537,,440675.759,8,400,,,
break_continue,html.Screen,4_15_2,2023-09-08T17:52:06.141Z,,0,,,NaN,,,,,,false,,,,440675,440674.80000019073,,440674.80000019073,,440675.759,8,400,,,
sequence,flow.Sequence,4_15,2023-09-08T17:52:06.141Z,,0,,,8766.107000190706,completion,,,,,false,,,,440675.10000014305,440674.80000019073,431891.967,431900.80000019073,431908.693,440675.759,8,400,,,
trial,html.Screen,4_16_0,2023-09-08T17:52:15.906Z,,0,1,,9763.641000095347,response,ISIC_8659618.JPG,4,ISIC_6072777.JPG,ISIC_8659618.JPG,false,1,keypress(m),500,450439.60000014305,450439.40000009537,440659.117,440675.2000000477,440675.759,450444.794,8,400,17,,ISIC_6072777.JPG
break,html.Screen,4_16_1,2023-09-08T17:52:15.907Z,,0,,,NaN,,,,,,false,,,,450440.40000009537,450440.10000014305,,450439.7000000477,,450444.794,8,400,,,
break_continue,html.Screen,4_16_2,2023-09-08T17:52:15.907Z,,0,,,NaN,,,,,,false,,,,450440.80000019073,450440.7000000477,,450440.60000014305,,450444.794,8,400,,,
sequence,flow.Sequence,4_16,2023-09-08T17:52:15.907Z,,0,,,9764.941000047664,completion,,,,,false,,,,450440.90000009537,450440.7000000477,440659.117,440675.10000014305,440675.759,450444.794,8,400,,,
trial,html.Screen,4_17_0,2023-09-08T17:52:22.869Z,,0,1,,6957.50600019074,response,ISIC_6569060.JPG,5,ISIC_5405889.JPG,ISIC_5405889.JPG,false,0,keypress(z),500,457402.40000009537,457402.30000019073,450428.155,450441.10000014305,450444.794,457408.343,8,400,18,,ISIC_6569060.JPG
break,html.Screen,4_17_1,2023-09-08T17:52:22.869Z,,0,,,NaN,,,,,,false,,,,457402.90000009537,457402.80000019073,,457402.60000014305,,457408.343,8,400,,,
break_continue,html.Screen,4_17_2,2023-09-08T17:52:22.870Z,,0,,,NaN,,,,,,false,,,,457403.5,457403.40000009537,,457403.10000014305,,457408.343,8,400,,,
sequence,flow.Sequence,4_17,2023-09-08T17:52:22.870Z,,0,,,6958.606000095373,completion,,,,,false,,,,457403.60000014305,457403.40000009537,450428.155,450441,450444.794,457408.343,8,400,,,
trial,html.Screen,4_18_0,2023-09-08T17:52:31.400Z,,0,1,,8525.457000190741,response,ISIC_1641823.JPG,5,ISIC_0064534.JPG,ISIC_1641823.JPG,false,1,keypress(m),500,465934,465933.80000019073,457391.686,457403.7000000477,457408.343,465941.625,8,400,19,,ISIC_0064534.JPG
break,html.Screen,4_18_1,2023-09-08T17:52:31.401Z,,0,,,NaN,,,,,,false,,,,465934.90000009537,465934.60000014305,,465934.30000019073,,465941.625,8,400,,,
break_continue,html.Screen,4_18_2,2023-09-08T17:52:31.401Z,,0,,,NaN,,,,,,false,,,,465935.40000009537,465935.2000000477,,465935.10000014305,,465941.625,8,400,,,
sequence,flow.Sequence,4_18,2023-09-08T17:52:31.402Z,,0,,,8526.85700004769,completion,,,,,false,,,,465935.60000014305,465935.2000000477,457391.686,457403.7000000477,457408.343,465941.625,8,400,,,
trial,html.Screen,4_19_0,2023-09-08T17:52:41.212Z,,0,1,,9804.075000047684,response,ISIC_7738955.JPG,5,ISIC_0058149.JPG,ISIC_7738955.JPG,false,1,keypress(m),500,475745.80000019073,475745.7000000477,465925.027,465935.80000019073,465941.625,475760.661,8,400,20,,ISIC_0058149.JPG
break,html.Screen,4_19_1,2023-09-08T17:52:41.212Z,,0,,,NaN,,,,,,false,,,,475746.10000014305,475746,,475745.90000009537,,475760.661,8,400,,,
break_continue,html.Screen,4_19_2,2023-09-08T17:52:41.212Z,,0,,,NaN,,,,,,false,,,,475746.30000019073,475746.2000000477,,475746.2000000477,,475760.661,8,400,,,
sequence,flow.Sequence,4_19,2023-09-08T17:52:41.212Z,,0,,,9804.575000047684,completion,,,,,false,,,,475746.30000019073,475746.2000000477,465925.027,465935.7000000477,465941.625,475760.661,8,400,,,
trial,html.Screen,4_20_0,2023-09-08T17:52:51.390Z,,0,1,,10162.739000095346,response,ISIC_2124148.JPG,5,ISIC_8592235.JPG,ISIC_2124148.JPG,false,1,keypress(m),500,485923.7000000477,485923.40000009537,475744.184,475746.30000019073,475760.661,485930.507,8,400,21,,ISIC_8592235.JPG
break,html.Screen,4_20_1,2023-09-08T17:52:51.391Z,,0,,,NaN,,,,,,false,,,,485925.10000014305,485924.80000019073,,485924.2000000477,,485930.507,8,400,,,
break_continue,html.Screen,4_20_2,2023-09-08T17:52:51.392Z,,0,,,NaN,,,,,,false,,,,485926.10000014305,485925.90000009537,,485925.7000000477,,485930.507,8,400,,,
sequence,flow.Sequence,4_20,2023-09-08T17:52:51.393Z,,0,,,10165.239000095346,completion,,,,,false,,,,485926.40000009537,485925.90000009537,475744.184,475746.30000019073,475760.661,485930.507,8,400,,,
trial,html.Screen,4_21_0,2023-09-08T17:52:58.277Z,,0,1,,6880.1930000477005,response,ISIC_0070422.JPG,4,ISIC_5777181.JPG,ISIC_5777181.JPG,false,0,keypress(z),500,492810.90000009537,492810.7000000477,485913.762,485926.7000000477,485930.507,492827.283,8,400,22,,ISIC_0070422.JPG
break,html.Screen,4_21_1,2023-09-08T17:52:58.277Z,,0,,,NaN,,,,,,false,,,,492811.30000019073,492811.2000000477,,492811,,492827.283,8,400,,,
break_continue,html.Screen,4_21_2,2023-09-08T17:52:58.277Z,,0,,,NaN,,,,,,false,,,,492811.30000019073,492811.30000019073,,492811.30000019073,,492827.283,8,400,,,
sequence,flow.Sequence,4_21,2023-09-08T17:52:58.277Z,,0,,,6880.793000190752,completion,,,,,false,,,,492811.5,492811.30000019073,485913.762,485926.60000014305,485930.507,492827.283,8,400,,,
trial,html.Screen,4_22_0,2023-09-08T17:53:07.069Z,,0,1,,8775.117000095372,response,ISIC_6670242.JPG,6,ISIC_6208107.JPG,ISIC_6208107.JPG,false,0,keypress(z),500,501602.5,501602.40000009537,492810.523,492811.5,492827.283,501611.177,8,400,23,,ISIC_6670242.JPG
break,html.Screen,4_22_1,2023-09-08T17:53:07.069Z,,0,,,NaN,,,,,,false,,,,501602.90000009537,501602.80000019073,,501602.60000014305,,501611.177,8,400,,,
break_continue,html.Screen,4_22_2,2023-09-08T17:53:07.069Z,,0,,,NaN,,,,,,false,,,,501603.30000019073,501603.10000014305,,501603,,501611.177,8,400,,,
sequence,flow.Sequence,4_22,2023-09-08T17:53:07.069Z,,0,,,8775.817000143055,completion,,,,,false,,,,501603.30000019073,501603.10000014305,492810.523,492811.5,492827.283,501611.177,8,400,,,
trial,html.Screen,4_23_0,2023-09-08T17:53:16.751Z,,0,1,,9673.822999999975,response,ISIC_8278458.JPG,5,ISIC_2202486.JPG,ISIC_2202486.JPG,false,0,keypress(z),500,511285.30000019073,511285,501594.377,501603.40000009537,501611.177,511296.574,8,400,24,,ISIC_8278458.JPG
break,html.Screen,4_23_1,2023-09-08T17:53:16.752Z,,0,,,NaN,,,,,,false,,,,511286,511285.80000019073,,511285.5,,511296.574,8,400,,,
break_continue,html.Screen,4_23_2,2023-09-08T17:53:16.752Z,,0,,,NaN,,,,,,false,,,,511286.30000019073,511286.2000000477,,511286.10000014305,,511296.574,8,400,,,
sequence,flow.Sequence,4_23,2023-09-08T17:53:16.753Z,,0,,,9675.023000047659,completion,,,,,false,,,,511286.5,511286.2000000477,501594.377,501603.40000009537,501611.177,511296.574,8,400,,,
trial,html.Screen,4_24_0,2023-09-08T17:53:24.823Z,,0,1,,8059.925999999978,response,ISIC_3959570.JPG,6,ISIC_0054391.JPG,ISIC_0054391.JPG,false,0,keypress(z),500,519356.7000000477,519356.5,511279.816,511286.60000014305,511296.574,519362.238,8,400,25,,ISIC_3959570.JPG
break,html.Screen,4_24_1,2023-09-08T17:53:24.823Z,,0,,,NaN,,,,,,false,,,,519357.30000019073,519357.10000014305,,519356.90000009537,,519362.238,8,400,,,
break_continue,html.Screen,4_24_2,2023-09-08T17:53:24.824Z,,0,,,NaN,,,,,,false,,,,519357.7000000477,519357.60000014305,,519357.40000009537,,519362.238,8,400,,,
sequence,flow.Sequence,4_24,2023-09-08T17:53:24.824Z,,0,,,8061.026000143029,completion,,,,,false,,,,519357.80000019073,519357.60000014305,511279.816,511286.60000014305,511296.574,519362.238,8,400,,,
trial,html.Screen,4_25_0,2023-09-08T17:53:35.050Z,,0,1,,10221.062000190723,response,ISIC_7869255.JPG,5,ISIC_0156642.JPG,ISIC_7869255.JPG,false,1,keypress(m),500,529583.5,529583.3000001907,519345.522,519357.90000009537,519362.238,529598.851,8,400,26,,ISIC_0156642.JPG
break,html.Screen,4_25_1,2023-09-08T17:53:35.050Z,,0,,,NaN,,,,,,false,,,,529583.9000000954,529583.9000000954,,529583.600000143,,529598.851,8,400,,,
break_continue,html.Screen,4_25_2,2023-09-08T17:53:35.050Z,,0,,,NaN,,,,,,false,,,,529584.3000001907,529584.100000143,,529584.100000143,,529598.851,8,400,,,
sequence,flow.Sequence,4_25,2023-09-08T17:53:35.050Z,,0,,,10221.862000143039,completion,,,,,false,,,,529584.5,529584.100000143,519345.522,519357.90000009537,519362.238,529598.851,8,400,,,
trial,html.Screen,4_26_0,2023-09-08T17:53:42.844Z,,0,1,,7779.049000095343,response,ISIC_7498132.JPG,5,ISIC_0024864.JPG,ISIC_7498132.JPG,false,1,keypress(m),500,537378,537377.9000000954,529582.335,529584.600000143,529598.851,537380.59,8,400,27,,ISIC_0024864.JPG
break,html.Screen,4_26_1,2023-09-08T17:53:42.845Z,,0,,,NaN,,,,,,false,,,,537378.5,537378.3000001907,,537378.100000143,,537380.59,8,400,,,
break_continue,html.Screen,4_26_2,2023-09-08T17:53:42.845Z,,0,,,NaN,,,,,,false,,,,537378.8000001907,537378.7000000477,,537378.600000143,,537380.59,8,400,,,
sequence,flow.Sequence,4_26,2023-09-08T17:53:42.845Z,,0,,,7779.8490000476595,completion,,,,,false,,,,537378.9000000954,537378.7000000477,529582.335,529584.5,529598.851,537380.59,8,400,,,
trial,html.Screen,4_27_0,2023-09-08T17:53:52.687Z,,0,1,,9839.110000047716,response,ISIC_2660216.JPG,6,ISIC_1988058.JPG,ISIC_2660216.JPG,false,1,keypress(m),500,547219.9000000954,547219.7000000477,537363.9,537379,537380.59,547249.876,8,400,28,,ISIC_1988058.JPG
break,html.Screen,4_27_1,2023-09-08T17:53:52.688Z,,0,,,NaN,,,,,,false,,,,547220.7000000477,547220.4000000954,,547220.2000000477,,547249.876,8,400,,,
break_continue,html.Screen,4_27_2,2023-09-08T17:53:52.688Z,,0,,,NaN,,,,,,false,,,,547221.100000143,547221,,547220.8000001907,,547249.876,8,400,,,
sequence,flow.Sequence,4_27,2023-09-08T17:53:52.688Z,,0,,,9840.410000000033,completion,,,,,false,,,,547221.2000000477,547221,537363.9,537378.9000000954,537380.59,547249.876,8,400,,,
trial,html.Screen,4_28_0,2023-09-08T17:54:02.773Z,,0,1,,10055.924000190687,response,ISIC_0024214.JPG,6,ISIC_0033729.JPG,ISIC_0024214.JPG,false,1,keypress(m),500,557305.8000001907,557305.8000001907,547233.176,547221.4000000954,547249.876,557319.414,8,400,29,,ISIC_0033729.JPG
break,html.Screen,4_28_1,2023-09-08T17:54:02.773Z,,0,,,NaN,,,,,,false,,,,557306.2000000477,557306.100000143,,557306,,557319.414,8,400,,,
break_continue,html.Screen,4_28_2,2023-09-08T17:54:02.774Z,,0,,,NaN,,,,,,false,,,,557306.3000001907,557306.2000000477,,557306.2000000477,,557319.414,8,400,,,
sequence,flow.Sequence,4_28,2023-09-08T17:54:02.774Z,,0,,,10056.324000047636,completion,,,,,false,,,,557306.4000000954,557306.2000000477,547233.176,547221.4000000954,547249.876,557319.414,8,400,,,
trial,html.Screen,4_29_0,2023-09-08T17:54:11.415Z,,0,1,,8628.58600000001,response,ISIC_4780541.JPG,5,ISIC_0028394.JPG,ISIC_4780541.JPG,false,1,keypress(m),500,565948.100000143,565948,557302.686,557306.4000000954,557319.414,565952.859,8,400,30,,ISIC_0028394.JPG
break,html.Screen,4_29_1,2023-09-08T17:54:11.416Z,,0,,,NaN,,,,,,false,,,,565948.5,565948.4000000954,,565948.3000001907,,565952.859,8,400,,,
break_continue,html.Screen,4_29_2,2023-09-08T17:54:11.416Z,,0,,,NaN,,,,,,false,,,,565948.7000000477,565948.7000000477,,565948.600000143,,565952.859,8,400,,,
sequence,flow.Sequence,4_29,2023-09-08T17:54:11.416Z,,0,,,8629.286000047694,completion,,,,,false,,,,565948.9000000954,565948.7000000477,557302.686,557306.4000000954,557319.414,565952.859,8,400,,,
trial,html.Screen,4_30_0,2023-09-08T17:54:19.050Z,,0,1,,7630.140999999945,response,ISIC_0072175.JPG,5,ISIC_0027125.JPG,ISIC_0027125.JPG,false,0,keypress(z),500,573583.100000143,573583,565936.322,565948.9000000954,565952.859,573601.065,8,400,31,,ISIC_0072175.JPG
break,html.Screen,4_30_1,2023-09-08T17:54:19.051Z,,0,,,NaN,,,,,,false,,,,573583.5,573583.3000001907,,573583.2000000477,,573601.065,8,400,,,
break_continue,html.Screen,4_30_2,2023-09-08T17:54:19.051Z,,0,,,NaN,,,,,,false,,,,573583.600000143,573583.5,,573583.5,,573601.065,8,400,,,
sequence,flow.Sequence,4_30,2023-09-08T17:54:19.051Z,,0,,,7630.640999999945,completion,,,,,false,,,,573583.7000000477,573583.5,565936.322,565948.9000000954,565952.859,573601.065,8,400,,,
trial,html.Screen,4_31_0,2023-09-08T17:54:28.972Z,,0,1,,9903.435000000056,response,ISIC_2975580.JPG,6,ISIC_6983970.JPG,ISIC_2975580.JPG,false,1,keypress(m),500,583504.600000143,583504.5,573584.555,573583.7000000477,573601.065,583537.256,8,400,32,,ISIC_6983970.JPG
break,html.Screen,4_31_1,2023-09-08T17:54:28.972Z,,0,,,NaN,,,,,,false,,,,583505.2000000477,583505,,583504.8000001907,,583537.256,8,400,,,
break_continue,html.Screen,4_31_2,2023-09-08T17:54:28.973Z,,0,,,NaN,,,,,,false,,,,583505.4000000954,583505.3000001907,,583505.2000000477,,583537.256,8,400,,,
sequence,flow.Sequence,4_31,2023-09-08T17:54:28.973Z,,0,,,9904.23500019079,completion,,,,,false,,,,583505.600000143,583505.3000001907,573584.555,573583.7000000477,573601.065,583537.256,8,400,,,
trial,html.Screen,4_32_0,2023-09-08T17:54:37.614Z,,0,1,,8609.544000190683,response,ISIC_4933735.JPG,5,ISIC_4358550.JPG,ISIC_4933735.JPG,false,1,keypress(m),500,592147,592146.8000001907,583520.459,583505.7000000477,583537.256,592153.863,8,400,33,,ISIC_4358550.JPG
break,html.Screen,4_32_1,2023-09-08T17:54:37.615Z,,0,,,NaN,,,,,,false,,,,592147.7000000477,592147.5,,592147.2000000477,,592153.863,8,400,,,
break_continue,html.Screen,4_32_2,2023-09-08T17:54:37.615Z,,0,,,NaN,,,,,,false,,,,592148.100000143,592148,,592147.9000000954,,592153.863,8,400,,,
sequence,flow.Sequence,4_32,2023-09-08T17:54:37.616Z,,0,,,8610.743999999948,completion,,,,,false,,,,592148.3000001907,592148,583520.459,583505.600000143,583537.256,592153.863,8,400,,,
trial,html.Screen,4_33_0,2023-09-08T17:54:45.043Z,,0,1,,7421.337000047672,response,ISIC_6875745.JPG,5,ISIC_5468164.JPG,ISIC_5468164.JPG,false,0,keypress(z),500,599575.3000001907,599575.2000000477,592137.125,592148.4000000954,592153.863,599585.04,8,400,34,,ISIC_6875745.JPG
break,html.Screen,4_33_1,2023-09-08T17:54:45.043Z,,0,,,NaN,,,,,,false,,,,599575.600000143,599575.5,,599575.4000000954,,599585.04,8,400,,,
break_continue,html.Screen,4_33_2,2023-09-08T17:54:45.043Z,,0,,,NaN,,,,,,false,,,,599575.9000000954,599575.8000001907,,599575.8000001907,,599585.04,8,400,,,
sequence,flow.Sequence,4_33,2023-09-08T17:54:45.043Z,,0,,,7421.937000190723,completion,,,,,false,,,,599576,599575.8000001907,592137.125,592148.4000000954,592153.863,599585.04,8,400,,,
trial,html.Screen,4_34_0,2023-09-08T17:54:53.030Z,,0,1,,7976.6600000476465,response,ISIC_6475049.JPG,5,ISIC_0072703.JPG,ISIC_6475049.JPG,false,1,keypress(m),500,607561.9000000954,607561.7000000477,599568.369,599576.100000143,599585.04,607567.176,8,400,35,,ISIC_0072703.JPG
break,html.Screen,4_34_1,2023-09-08T17:54:53.030Z,,0,,,NaN,,,,,,false,,,,607562.100000143,607562.100000143,,607561.9000000954,,607567.176,8,400,,,
break_continue,html.Screen,4_34_2,2023-09-08T17:54:53.030Z,,0,,,NaN,,,,,,false,,,,607562.2000000477,607562.2000000477,,607562.100000143,,607567.176,8,400,,,
sequence,flow.Sequence,4_34,2023-09-08T17:54:53.030Z,,0,,,7977.1600000476465,completion,,,,,false,,,,607562.4000000954,607562.2000000477,599568.369,599576.100000143,599585.04,607567.176,8,400,,,
trial,html.Screen,4_35_0,2023-09-08T17:55:04.087Z,,0,1,,11052.324000000022,response,ISIC_0081584.JPG,4,ISIC_0068153.JPG,ISIC_0081584.JPG,false,1,keypress(m),500,618619.600000143,618619.5,607550.446,607562.5,607567.176,618621.999,8,400,36,,ISIC_0068153.JPG
break,html.Screen,4_35_1,2023-09-08T17:55:04.088Z,,0,,,NaN,,,,,,false,,,,618620,618620,,618619.8000001907,,618621.999,8,400,,,
break_continue,html.Screen,4_35_2,2023-09-08T17:55:04.088Z,,0,,,NaN,,,,,,false,,,,618620.2000000477,618620.100000143,,618620.100000143,,618621.999,8,400,,,
sequence,flow.Sequence,4_35,2023-09-08T17:55:04.088Z,,0,,,11052.924000143073,completion,,,,,false,,,,618620.4000000954,618620.100000143,607550.446,607562.5,607567.176,618621.999,8,400,,,
trial,html.Screen,4_36_0,2023-09-08T17:55:11.438Z,,0,1,,7348.5010000000475,response,ISIC_0030519.JPG,5,ISIC_4280835.JPG,ISIC_4280835.JPG,false,0,keypress(z),500,625970.600000143,625970.5,618605.382,618620.4000000954,618621.999,625986.517,8,400,37,,ISIC_0030519.JPG
break,html.Screen,4_36_1,2023-09-08T17:55:11.439Z,,0,,,NaN,,,,,,false,,,,625971,625970.9000000954,,625970.7000000477,,625986.517,8,400,,,
break_continue,html.Screen,4_36_2,2023-09-08T17:55:11.439Z,,0,,,NaN,,,,,,false,,,,625971.3000001907,625971.2000000477,,625971.100000143,,625986.517,8,400,,,
sequence,flow.Sequence,4_36,2023-09-08T17:55:11.439Z,,0,,,7349.201000047731,completion,,,,,false,,,,625971.4000000954,625971.2000000477,618605.382,618620.4000000954,618621.999,625986.517,8,400,,,
trial,html.Screen,4_37_0,2023-09-08T17:55:18.692Z,,0,1,,7237.483000000007,response,ISIC_0071196.JPG,5,ISIC_0027436.JPG,ISIC_0027436.JPG,false,0,keypress(z),500,633224.2000000477,633224,625969.681,625971.600000143,625986.517,633233.825,8,400,38,,ISIC_0071196.JPG
break,html.Screen,4_37_1,2023-09-08T17:55:18.693Z,,0,,,NaN,,,,,,false,,,,633224.8000001907,633224.600000143,,633224.4000000954,,633233.825,8,400,,,
break_continue,html.Screen,4_37_2,2023-09-08T17:55:18.693Z,,0,,,NaN,,,,,,false,,,,633225.4000000954,633225.3000001907,,633225.100000143,,633233.825,8,400,,,
sequence,flow.Sequence,4_37,2023-09-08T17:55:18.693Z,,0,,,7238.783000190742,completion,,,,,false,,,,633225.5,633225.3000001907,625969.681,625971.5,625986.517,633233.825,8,400,,,
trial,html.Screen,4_38_0,2023-09-08T17:55:26.367Z,,0,1,,7665.475000190781,response,ISIC_5736292.JPG,5,ISIC_8222254.JPG,ISIC_8222254.JPG,false,0,keypress(z),500,640899.4000000954,640899.3000001907,633217.251,633225.600000143,633233.825,640915.424,8,400,39,,ISIC_5736292.JPG
break,html.Screen,4_38_1,2023-09-08T17:55:26.368Z,,0,,,NaN,,,,,,false,,,,640899.9000000954,640899.8000001907,,640899.600000143,,640915.424,8,400,,,
break_continue,html.Screen,4_38_2,2023-09-08T17:55:26.368Z,,0,,,NaN,,,,,,false,,,,640900.2000000477,640900.100000143,,640900.100000143,,640915.424,8,400,,,
sequence,flow.Sequence,4_38,2023-09-08T17:55:26.368Z,,0,,,7666.275000143098,completion,,,,,false,,,,640900.3000001907,640900.100000143,633217.251,633225.600000143,633233.825,640915.424,8,400,,,
trial,html.Screen,4_39_0,2023-09-08T17:55:35.750Z,,0,1,,9366.576000000001,response,ISIC_0057753.JPG,5,ISIC_0003113.JPG,ISIC_0003113.JPG,false,0,keypress(z),500,650282.100000143,650282,640898.796,640900.5,640915.424,650283.66,8,400,40,,ISIC_0057753.JPG
break,html.Screen,4_39_1,2023-09-08T17:55:35.750Z,,0,,,NaN,,,,,,false,,,,650282.5,650282.4000000954,,650282.2000000477,,650283.66,8,400,,,
break_continue,html.Screen,4_39_2,2023-09-08T17:55:35.751Z,,0,,,NaN,,,,,,false,,,,650282.9000000954,650282.7000000477,,650282.600000143,,650283.66,8,400,,,
sequence,flow.Sequence,4_39,2023-09-08T17:55:35.751Z,,0,,,9367.276000047685,completion,,,,,false,,,,650283,650282.7000000477,640898.796,640900.4000000954,640915.424,650283.66,8,400,,,
trial,html.Screen,4_40_0,2023-09-08T17:55:44.777Z,,0,1,,9025.240000095335,response,ISIC_0064784.JPG,5,ISIC_7008969.JPG,ISIC_7008969.JPG,false,0,keypress(z),500,659309,659308.9000000954,650267.018,650283,650283.66,659334.553,8,400,41,,ISIC_0064784.JPG
break,html.Screen,4_40_1,2023-09-08T17:55:44.777Z,,0,,,NaN,,,,,,false,,,,659309.3000001907,659309.3000001907,,659309.100000143,,659334.553,8,400,,,
break_continue,html.Screen,4_40_2,2023-09-08T17:55:44.777Z,,0,,,NaN,,,,,,false,,,,659309.4000000954,659309.4000000954,,659309.3000001907,,659334.553,8,400,,,
sequence,flow.Sequence,4_40,2023-09-08T17:55:44.777Z,,0,,,9025.740000095335,completion,,,,,false,,,,659309.5,659309.4000000954,650267.018,650283,650283.66,659334.553,8,400,,,
trial,html.Screen,4_41_0,2023-09-08T17:55:51.377Z,,0,1,,6574.447000000044,response,ISIC_9482842.JPG,4,ISIC_0063680.JPG,ISIC_0063680.JPG,false,0,keypress(z),500,665909.2000000477,665909,659317.872,659309.5,659334.553,665914.071,8,400,42,,ISIC_9482842.JPG
break,html.Screen,4_41_1,2023-09-08T17:55:51.377Z,,0,,,NaN,,,,,,false,,,,665909.5,665909.4000000954,,665909.3000001907,,665914.071,8,400,,,
break_continue,html.Screen,4_41_2,2023-09-08T17:55:51.378Z,,0,,,NaN,,,,,,false,,,,665909.7000000477,665909.600000143,,665909.600000143,,665914.071,8,400,,,
sequence,flow.Sequence,4_41,2023-09-08T17:55:51.378Z,,0,,,6575.047000143095,completion,,,,,false,,,,665909.8000001907,665909.600000143,659317.872,659309.5,659334.553,665914.071,8,400,,,
trial,html.Screen,4_42_0,2023-09-08T17:55:58.105Z,,0,1,,6722.729000190739,response,ISIC_6785680.JPG,5,ISIC_0030435.JPG,ISIC_0030435.JPG,false,0,keypress(z),500,672637,672636.8000001907,665897.386,665909.8000001907,665914.071,672643.815,8,400,43,,ISIC_6785680.JPG
break,html.Screen,4_42_1,2023-09-08T17:55:58.106Z,,0,,,NaN,,,,,,false,,,,672637.600000143,672637.4000000954,,672637.2000000477,,672643.815,8,400,,,
break_continue,html.Screen,4_42_2,2023-09-08T17:55:58.106Z,,0,,,NaN,,,,,,false,,,,672638,672637.9000000954,,672637.8000001907,,672643.815,8,400,,,
sequence,flow.Sequence,4_42,2023-09-08T17:55:58.107Z,,0,,,6723.829000095371,completion,,,,,false,,,,672638.100000143,672637.9000000954,665897.386,665909.8000001907,665914.071,672643.815,8,400,,,
trial,html.Screen,4_43_0,2023-09-08T17:56:05.245Z,,0,1,,7132.585000095423,response,ISIC_0026115.JPG,5,ISIC_0011528.JPG,ISIC_0011528.JPG,false,0,keypress(z),500,679776.5,679776.4000000954,672627.1,672639.2000000477,672643.815,679791.13,8,400,44,,ISIC_0026115.JPG
break,html.Screen,4_43_1,2023-09-08T17:56:05.245Z,,0,,,NaN,,,,,,false,,,,679776.9000000954,679776.8000001907,,679776.600000143,,679791.13,8,400,,,
break_continue,html.Screen,4_43_2,2023-09-08T17:56:05.246Z,,0,,,NaN,,,,,,false,,,,679777.100000143,679777.100000143,,679777,,679791.13,8,400,,,
sequence,flow.Sequence,4_43,2023-09-08T17:56:05.246Z,,0,,,7133.285000143107,completion,,,,,false,,,,679777.3000001907,679777.100000143,672627.1,672638.3000001907,672643.815,679791.13,8,400,,,
trial,html.Screen,4_44_0,2023-09-08T17:56:14.047Z,,0,1,,8787.369999999995,response,ISIC_0000118.JPG,6,ISIC_0027235.JPG,ISIC_0000118.JPG,false,1,keypress(m),500,688578.7000000477,688578.5,679774.397,679777.4000000954,679791.13,688591.513,8,400,45,,ISIC_0027235.JPG
break,html.Screen,4_44_1,2023-09-08T17:56:14.047Z,,0,,,NaN,,,,,,false,,,,688578.9000000954,688578.8000001907,,688578.7000000477,,688591.513,8,400,,,
break_continue,html.Screen,4_44_2,2023-09-08T17:56:14.048Z,,0,,,NaN,,,,,,false,,,,688579.2000000477,688579.2000000477,,688579,,688591.513,8,400,,,
sequence,flow.Sequence,4_44,2023-09-08T17:56:14.048Z,,0,,,8788.070000047679,completion,,,,,false,,,,688579.3000001907,688579.2000000477,679774.397,679777.4000000954,679791.13,688591.513,8,400,,,
trial,html.Screen,4_45_0,2023-09-08T17:56:25.549Z,,0,1,,11522.58600000001,timeout,ISIC_7271718.JPG,6,ISIC_3652884.JPG,ISIC_3652884.JPG,false,,,500,700081,700080.8000001907,688574.843,688579.4000000954,688591.513,700114.099,8,400,46,,ISIC_7271718.JPG
break,html.Screen,4_45_1,2023-09-08T17:56:25.550Z,,0,,,NaN,,,,,,false,,,,700081.3000001907,700081.2000000477,,700081.100000143,,700114.099,8,400,,,
break_continue,html.Screen,4_45_2,2023-09-08T17:56:25.550Z,,0,,,NaN,,,,,,false,,,,700081.4000000954,700081.4000000954,,700081.4000000954,,700114.099,8,400,,,
sequence,flow.Sequence,4_45,2023-09-08T17:56:25.550Z,,0,,,11489.887000095332,completion,,,,,false,,,,700081.5,700081.4000000954,688574.843,688579.4000000954,688591.513,700114.099,8,400,,,
trial,html.Screen,4_46_0,2023-09-08T17:56:32.431Z,,0,1,,6848.301000095322,response,ISIC_7604596.JPG,6,ISIC_5909451.JPG,ISIC_5909451.JPG,false,0,keypress(z),500,706962.600000143,706962.4000000954,700097.33,700081.600000143,700114.099,706977.345,8,400,47,,ISIC_7604596.JPG
break,html.Screen,4_46_1,2023-09-08T17:56:32.431Z,,0,,,NaN,,,,,,false,,,,706963,706962.8000001907,,706962.600000143,,706977.345,8,400,,,
break_continue,html.Screen,4_46_2,2023-09-08T17:56:32.432Z,,0,,,NaN,,,,,,false,,,,706963.2000000477,706963.100000143,,706963,,706977.345,8,400,,,
sequence,flow.Sequence,4_46,2023-09-08T17:56:32.432Z,,0,,,6849.0010001430055,completion,,,,,false,,,,706963.3000001907,706963.100000143,700097.33,700081.600000143,700114.099,706977.345,8,400,,,
trial,html.Screen,4_47_0,2023-09-08T17:56:39.394Z,,0,1,,6947.755000143079,response,ISIC_0033325.JPG,5,ISIC_5226371.JPG,ISIC_5226371.JPG,false,0,keypress(z),500,713925.3000001907,713925.100000143,706960.683,706963.3000001907,706977.345,713940.829,8,400,48,,ISIC_0033325.JPG
break,html.Screen,4_47_1,2023-09-08T17:56:39.394Z,,0,,,NaN,,,,,,false,,,,713925.9000000954,713925.7000000477,,713925.5,,713940.829,8,400,,,
break_continue,html.Screen,4_47_2,2023-09-08T17:56:39.394Z,,0,,,NaN,,,,,,false,,,,713926.100000143,713925.9000000954,,713925.9000000954,,713940.829,8,400,,,
sequence,flow.Sequence,4_47,2023-09-08T17:56:39.395Z,,0,,,6948.555000095395,completion,,,,,false,,,,713926.100000143,713925.9000000954,706960.683,706963.3000001907,706977.345,713940.829,8,400,,,
trial,html.Screen,4_48_0,2023-09-08T17:56:49.612Z,,0,1,,10201.971000190708,response,ISIC_3737487.JPG,5,ISIC_5559730.JPG,ISIC_5559730.JPG,false,0,keypress(z),500,724143.100000143,724142.8000001907,713924.327,713926.3000001907,713940.829,724160.925,8,400,49,,ISIC_3737487.JPG
break,html.Screen,4_48_1,2023-09-08T17:56:49.613Z,,0,,,NaN,,,,,,false,,,,724144.3000001907,724144,,724143.5,,724160.925,8,400,,,
break_continue,html.Screen,4_48_2,2023-09-08T17:56:49.614Z,,0,,,NaN,,,,,,false,,,,724145.600000143,724145.2000000477,,724144.9000000954,,724160.925,8,400,,,
sequence,flow.Sequence,4_48,2023-09-08T17:56:49.616Z,,0,,,10204.371000047657,completion,,,,,false,,,,724147.4000000954,724145.2000000477,713924.327,713926.3000001907,713940.829,724160.925,8,400,,,
trial,html.Screen,4_49_0,2023-09-08T17:56:53.668Z,,0,1,,4037.8750001906883,response,ISIC_0011744.JPG,5,ISIC_0063871.JPG,ISIC_0011744.JPG,false,1,keypress(m),500,728199.100000143,728198.8000001907,724144.077,724147.9000000954,724160.925,728218.787,8,400,50,,ISIC_0063871.JPG
break,html.Screen,4_49_1,2023-09-08T17:57:03.674Z,,0,,,10002.849000000046,timeout,,,,,false,,,,738205.4000000954,738204.862,728185.359,728199.5,728218.787,738221.636,8,400,,,
break_continue,html.Screen,4_49_2,2023-09-08T17:57:16.297Z,,0,,,12594.76400009531,response,,,,,false,continue,keypress(Space),,750827.9000000954,750816.4000000954,738204.862,738205.5,738221.636,750846.07,8,400,,,
sequence,flow.Sequence,4_49,2023-09-08T17:57:16.297Z,,0,,,26655.47500009532,completion,,,,,false,,,,750828,750816.4000000954,724144.077,724147.8000001907,724160.925,750846.07,8,400,,,
trial,html.Screen,4_50_0,2023-09-08T17:57:23.370Z,,0,2,,7055.330000095419,response,ISIC_0011988.JPG,6,ISIC_0010757.JPG,ISIC_0011988.JPG,false,1,keypress(m),500,757901.5,757901.4000000954,750829.288,750828.100000143,750846.07,757909.832,8,400,1,,ISIC_0010757.JPG
break,html.Screen,4_50_1,2023-09-08T17:57:23.371Z,,0,,,NaN,,,,,,false,,,,757901.8000001907,757901.7000000477,,757901.600000143,,757909.832,8,400,,,
break_continue,html.Screen,4_50_2,2023-09-08T17:57:23.371Z,,0,,,NaN,,,,,,false,,,,757901.9000000954,757901.9000000954,,757901.9000000954,,757909.832,8,400,,,
sequence,flow.Sequence,4_50,2023-09-08T17:57:23.371Z,,0,,,7055.830000095419,completion,,,,,false,,,,757902,757901.9000000954,750829.288,750828.100000143,750846.07,757909.832,8,400,,,
trial,html.Screen,4_51_0,2023-09-08T17:57:30.141Z,,0,2,,6761.667999999947,response,ISIC_0054422.JPG,5,ISIC_7637091.JPG,ISIC_7637091.JPG,false,0,keypress(z),500,764671.600000143,764671.5,757893.156,757902.2000000477,757909.832,764672.921,8,400,2,,ISIC_0054422.JPG
break,html.Screen,4_51_1,2023-09-08T17:57:30.141Z,,0,,,NaN,,,,,,false,,,,764672,764671.9000000954,,764671.7000000477,,764672.921,8,400,,,
break_continue,html.Screen,4_51_2,2023-09-08T17:57:30.141Z,,0,,,NaN,,,,,,false,,,,764672.3000001907,764672.2000000477,,764672.100000143,,764672.921,8,400,,,
sequence,flow.Sequence,4_51,2023-09-08T17:57:30.141Z,,0,,,6762.368000047631,completion,,,,,false,,,,764672.4000000954,764672.2000000477,757893.156,757902.100000143,757909.832,764672.921,8,400,,,
trial,html.Screen,4_52_0,2023-09-08T17:57:36.078Z,,0,2,,5936.079000000027,response,ISIC_0016013.JPG,5,ISIC_6590303.JPG,ISIC_6590303.JPG,false,0,keypress(z),500,770609.2000000477,770609,764656.243,764672.5,764672.921,770618.028,8,400,3,,ISIC_0016013.JPG
break,html.Screen,4_52_1,2023-09-08T17:57:36.078Z,,0,,,NaN,,,,,,false,,,,770609.600000143,770609.4000000954,,770609.3000001907,,770618.028,8,400,,,
break_continue,html.Screen,4_52_2,2023-09-08T17:57:36.079Z,,0,,,NaN,,,,,,false,,,,770609.7000000477,770609.7000000477,,770609.600000143,,770618.028,8,400,,,
sequence,flow.Sequence,4_52,2023-09-08T17:57:36.079Z,,0,,,5936.779000047711,completion,,,,,false,,,,770609.8000001907,770609.7000000477,764656.243,764672.5,764672.921,770618.028,8,400,,,
trial,html.Screen,4_53_0,2023-09-08T17:57:43.633Z,,0,2,,7545.672000047634,response,ISIC_4559115.JPG,5,ISIC_9505595.JPG,ISIC_9505595.JPG,false,0,keypress(z),500,778164,778163.7000000477,770601.085,770609.9000000954,770618.028,778165.865,8,400,4,,ISIC_4559115.JPG
break,html.Screen,4_53_1,2023-09-08T17:57:43.633Z,,0,,,NaN,,,,,,false,,,,778164.4000000954,778164.3000001907,,778164.100000143,,778165.865,8,400,,,
break_continue,html.Screen,4_53_2,2023-09-08T17:57:43.634Z,,0,,,NaN,,,,,,false,,,,778164.8000001907,778164.7000000477,,778164.600000143,,778165.865,8,400,,,
sequence,flow.Sequence,4_53,2023-09-08T17:57:43.635Z,,0,,,7546.672000047634,completion,,,,,false,,,,778165.600000143,778164.7000000477,770601.085,770609.8000001907,770618.028,778165.865,8,400,,,
trial,html.Screen,4_54_0,2023-09-08T17:57:51.115Z,,0,2,,7480.135000000009,response,ISIC_0025464.JPG,5,ISIC_3453832.JPG,ISIC_3453832.JPG,false,0,keypress(z),500,785646.3000001907,785646,778149.197,778165.8000001907,778165.865,785663.766,8,400,5,,ISIC_0025464.JPG
break,html.Screen,4_54_1,2023-09-08T17:57:51.117Z,,0,,,NaN,,,,,,false,,,,785647.8000001907,785647,,785646.600000143,,785663.766,8,400,,,
break_continue,html.Screen,4_54_2,2023-09-08T17:57:51.117Z,,0,,,NaN,,,,,,false,,,,785648.5,785648.3000001907,,785648.100000143,,785663.766,8,400,,,
sequence,flow.Sequence,4_54,2023-09-08T17:57:51.118Z,,0,,,7482.435000190744,completion,,,,,false,,,,785648.8000001907,785648.3000001907,778149.197,778165.8000001907,778165.865,785663.766,8,400,,,
trial,html.Screen,4_55_0,2023-09-08T17:57:57.857Z,,0,2,,6723.734000000055,response,ISIC_0057371.JPG,6,ISIC_0010347.JPG,ISIC_0010347.JPG,false,0,keypress(z),500,792387.600000143,792387.5,785647.239,785649.100000143,785663.766,792393.555,8,400,6,,ISIC_0057371.JPG
break,html.Screen,4_55_1,2023-09-08T17:57:57.858Z,,0,,,NaN,,,,,,false,,,,792388.3000001907,792388.2000000477,,792387.9000000954,,792393.555,8,400,,,
break_continue,html.Screen,4_55_2,2023-09-08T17:57:57.858Z,,0,,,NaN,,,,,,false,,,,792388.7000000477,792388.600000143,,792388.4000000954,,792393.555,8,400,,,
sequence,flow.Sequence,4_55,2023-09-08T17:57:57.858Z,,0,,,6724.834000143106,completion,,,,,false,,,,792388.9000000954,792388.600000143,785647.239,785649,785663.766,792393.555,8,400,,,
trial,html.Screen,4_56_0,2023-09-08T17:58:03.445Z,,0,2,,5581.444999999949,response,ISIC_0057821.JPG,5,ISIC_8628207.JPG,ISIC_8628207.JPG,false,0,keypress(z),500,797975.2000000477,797975,792376.851,792388.9000000954,792393.555,797987.778,8,400,7,,ISIC_0057821.JPG
break,html.Screen,4_56_1,2023-09-08T17:58:03.446Z,,0,,,NaN,,,,,,false,,,,797976.100000143,797975.9000000954,,797975.5,,797987.778,8,400,,,
break_continue,html.Screen,4_56_2,2023-09-08T17:58:03.446Z,,0,,,NaN,,,,,,false,,,,797976.5,797976.4000000954,,797976.3000001907,,797987.778,8,400,,,
sequence,flow.Sequence,4_56,2023-09-08T17:58:03.446Z,,0,,,5582.845000095316,completion,,,,,false,,,,797976.7000000477,797976.4000000954,792376.851,792388.9000000954,792393.555,797987.778,8,400,,,
trial,html.Screen,4_57_0,2023-09-08T17:58:09.673Z,,0,2,,6215.622000095318,response,ISIC_0072393.JPG,5,ISIC_2299862.JPG,ISIC_2299862.JPG,false,0,keypress(z),500,804203.8000001907,804203.4000000954,797971.299,797976.8000001907,797987.778,804216.509,8,400,8,,ISIC_0072393.JPG
break,html.Screen,4_57_1,2023-09-08T17:58:09.675Z,,0,,,NaN,,,,,,false,,,,804206,804205.100000143,,804204.4000000954,,804216.509,8,400,,,
break_continue,html.Screen,4_57_2,2023-09-08T17:58:09.676Z,,0,,,NaN,,,,,,false,,,,804206.5,804206.4000000954,,804206.4000000954,,804216.509,8,400,,,
sequence,flow.Sequence,4_57,2023-09-08T17:58:09.676Z,,0,,,6218.622000095318,completion,,,,,false,,,,804206.600000143,804206.4000000954,797971.299,797976.8000001907,797987.778,804216.509,8,400,,,
trial,html.Screen,4_58_0,2023-09-08T17:58:17.550Z,,0,2,,7863.991000000038,response,ISIC_0033439.JPG,5,ISIC_3346045.JPG,ISIC_3346045.JPG,false,0,keypress(z),500,812080.7000000477,812080.5,804199.891,804206.600000143,804216.509,812081.87,8,400,9,,ISIC_0033439.JPG
break,html.Screen,4_58_1,2023-09-08T17:58:17.550Z,,0,,,NaN,,,,,,false,,,,812081,812080.9000000954,,812080.8000001907,,812081.87,8,400,,,
break_continue,html.Screen,4_58_2,2023-09-08T17:58:17.551Z,,0,,,NaN,,,,,,false,,,,812081.100000143,812081.100000143,,812081,,812081.87,8,400,,,
sequence,flow.Sequence,4_58,2023-09-08T17:58:17.551Z,,0,,,7864.591000143089,completion,,,,,false,,,,812081.2000000477,812081.100000143,804199.891,804206.600000143,804216.509,812081.87,8,400,,,
trial,html.Screen,4_59_0,2023-09-08T17:58:23.384Z,,0,2,,5832.130000000005,response,ISIC_0067205.JPG,6,ISIC_5156491.JPG,ISIC_0067205.JPG,false,1,keypress(m),500,817914.100000143,817914,812065.126,812081.4000000954,812081.87,817926.576,8,400,10,,ISIC_5156491.JPG
break,html.Screen,4_59_1,2023-09-08T17:58:23.384Z,,0,,,NaN,,,,,,false,,,,817914.4000000954,817914.4000000954,,817914.2000000477,,817926.576,8,400,,,
break_continue,html.Screen,4_59_2,2023-09-08T17:58:23.384Z,,0,,,NaN,,,,,,false,,,,817914.600000143,817914.5,,817914.5,,817926.576,8,400,,,
sequence,flow.Sequence,4_59,2023-09-08T17:58:23.384Z,,0,,,5832.630000000005,completion,,,,,false,,,,817914.7000000477,817914.5,812065.126,812081.3000001907,812081.87,817926.576,8,400,,,
trial,html.Screen,4_60_0,2023-09-08T17:58:30.106Z,,0,2,,6709.52400014305,response,ISIC_8655206.JPG,5,ISIC_6550761.JPG,ISIC_8655206.JPG,false,1,keypress(m),500,824636.100000143,824636.100000143,817909.857,817914.8000001907,817926.576,824639.681,8,400,11,,ISIC_6550761.JPG
break,html.Screen,4_60_1,2023-09-08T17:58:30.106Z,,0,,,NaN,,,,,,false,,,,824636.600000143,824636.5,,824636.3000001907,,824639.681,8,400,,,
break_continue,html.Screen,4_60_2,2023-09-08T17:58:30.106Z,,0,,,NaN,,,,,,false,,,,824636.8000001907,824636.7000000477,,824636.600000143,,824639.681,8,400,,,
sequence,flow.Sequence,4_60,2023-09-08T17:58:30.106Z,,0,,,6710.124000047683,completion,,,,,false,,,,824636.9000000954,824636.7000000477,817909.857,817914.8000001907,817926.576,824639.681,8,400,,,
trial,html.Screen,4_61_0,2023-09-08T17:58:35.980Z,,0,2,,5870.319000000018,response,ISIC_8321148.JPG,5,ISIC_3166276.JPG,ISIC_8321148.JPG,false,1,keypress(m),500,830510.3000001907,830510,824623.019,824636.9000000954,824639.681,830517.767,8,400,12,,ISIC_3166276.JPG
break,html.Screen,4_61_1,2023-09-08T17:58:35.981Z,,0,,,NaN,,,,,,false,,,,830511.2000000477,830511,,830510.7000000477,,830517.767,8,400,,,
break_continue,html.Screen,4_61_2,2023-09-08T17:58:35.981Z,,0,,,NaN,,,,,,false,,,,830511.600000143,830511.5,,830511.4000000954,,830517.767,8,400,,,
sequence,flow.Sequence,4_61,2023-09-08T17:58:35.981Z,,0,,,5871.819000000018,completion,,,,,false,,,,830511.8000001907,830511.5,824623.019,824636.9000000954,824639.681,830517.767,8,400,,,
trial,html.Screen,4_62_0,2023-09-08T17:58:43.344Z,,0,2,,7356.333000143059,response,ISIC_5907931.JPG,6,ISIC_2991354.JPG,ISIC_2991354.JPG,false,0,keypress(z),500,837874.2000000477,837874.100000143,830501.266,830511.9000000954,830517.767,837882.023,8,400,13,,ISIC_5907931.JPG
break,html.Screen,4_62_1,2023-09-08T17:58:43.344Z,,0,,,NaN,,,,,,false,,,,837874.600000143,837874.5,,837874.3000001907,,837882.023,8,400,,,
break_continue,html.Screen,4_62_2,2023-09-08T17:58:43.344Z,,0,,,NaN,,,,,,false,,,,837874.9000000954,837874.8000001907,,837874.8000001907,,837882.023,8,400,,,
sequence,flow.Sequence,4_62,2023-09-08T17:58:43.345Z,,0,,,7357.033000190742,completion,,,,,false,,,,837875,837874.8000001907,830501.266,830511.9000000954,830517.767,837882.023,8,400,,,
trial,html.Screen,4_63_0,2023-09-08T17:58:51.060Z,,0,2,,7708.677000047639,response,ISIC_8713330.JPG,4,ISIC_1513720.JPG,ISIC_8713330.JPG,false,1,keypress(m),500,845590.8000001907,845590.7000000477,837865.416,837875.2000000477,837882.023,845597.131,8,400,14,,ISIC_1513720.JPG
break,html.Screen,4_63_1,2023-09-08T17:58:51.061Z,,0,,,NaN,,,,,,false,,,,845591.5,845591.2000000477,,845591,,845597.131,8,400,,,
break_continue,html.Screen,4_63_2,2023-09-08T17:58:51.061Z,,0,,,NaN,,,,,,false,,,,845591.8000001907,845591.7000000477,,845591.600000143,,845597.131,8,400,,,
sequence,flow.Sequence,4_63,2023-09-08T17:58:51.061Z,,0,,,7709.677000047639,completion,,,,,false,,,,845592,845591.7000000477,837865.416,837875.2000000477,837882.023,845597.131,8,400,,,
trial,html.Screen,4_64_0,2023-09-08T17:58:59.320Z,,0,2,,8252.569000047632,response,ISIC_0026364.JPG,6,ISIC_0029970.JPG,ISIC_0029970.JPG,false,0,keypress(z),500,853849.8000001907,853849.7000000477,845580.374,845592.100000143,845597.131,853863.17,8,400,15,,ISIC_0026364.JPG
break,html.Screen,4_64_1,2023-09-08T17:58:59.320Z,,0,,,NaN,,,,,,false,,,,853850.4000000954,853850.3000001907,,853850,,853863.17,8,400,,,
break_continue,html.Screen,4_64_2,2023-09-08T17:58:59.321Z,,0,,,NaN,,,,,,false,,,,853850.7000000477,853850.600000143,,853850.5,,853863.17,8,400,,,
sequence,flow.Sequence,4_64,2023-09-08T17:58:59.321Z,,0,,,8253.469000142999,completion,,,,,false,,,,853850.8000001907,853850.600000143,845580.374,845592.100000143,845597.131,853863.17,8,400,,,
trial,html.Screen,4_65_0,2023-09-08T17:59:04.797Z,,0,2,,5464.130000190693,response,ISIC_6220953.JPG,5,ISIC_1124434.JPG,ISIC_6220953.JPG,false,1,keypress(m),500,859327.5,859327.3000001907,853846.472,853850.9000000954,853863.17,859340.498,8,400,16,,ISIC_1124434.JPG
break,html.Screen,4_65_1,2023-09-08T17:59:04.798Z,,0,,,NaN,,,,,,false,,,,859327.9000000954,859327.8000001907,,859327.600000143,,859340.498,8,400,,,
break_continue,html.Screen,4_65_2,2023-09-08T17:59:04.798Z,,0,,,NaN,,,,,,false,,,,859328.100000143,859328,,859328,,859340.498,8,400,,,
sequence,flow.Sequence,4_65,2023-09-08T17:59:04.798Z,,0,,,5464.829999999958,completion,,,,,false,,,,859328.100000143,859328,853846.472,853850.9000000954,853863.17,859340.498,8,400,,,
trial,html.Screen,4_66_0,2023-09-08T17:59:10.368Z,,0,2,,5557.802000190713,response,ISIC_3513288.JPG,5,ISIC_0025132.JPG,ISIC_3513288.JPG,false,1,keypress(m),500,864898.600000143,864898.3000001907,859323.915,859328.3000001907,859340.498,864901.364,8,400,17,,ISIC_0025132.JPG
break,html.Screen,4_66_1,2023-09-08T17:59:10.369Z,,0,,,NaN,,,,,,false,,,,864899.4000000954,864899.2000000477,,864898.9000000954,,864901.364,8,400,,,
break_continue,html.Screen,4_66_2,2023-09-08T17:59:10.370Z,,0,,,NaN,,,,,,false,,,,864899.8000001907,864899.600000143,,864899.5,,864901.364,8,400,,,
sequence,flow.Sequence,4_66,2023-09-08T17:59:10.370Z,,0,,,5559.10200014303,completion,,,,,false,,,,864900,864899.600000143,859323.915,859328.2000000477,859340.498,864901.364,8,400,,,
trial,html.Screen,4_67_0,2023-09-08T17:59:17.363Z,,0,2,,6991.936000190792,response,ISIC_0000395.JPG,5,ISIC_0070463.JPG,ISIC_0000395.JPG,false,1,keypress(m),500,871893.5,871893.3000001907,864884.766,864900.100000143,864901.364,871898.281,8,400,18,,ISIC_0070463.JPG
break,html.Screen,4_67_1,2023-09-08T17:59:17.364Z,,0,,,NaN,,,,,,false,,,,871894,871893.9000000954,,871893.7000000477,,871898.281,8,400,,,
break_continue,html.Screen,4_67_2,2023-09-08T17:59:17.364Z,,0,,,NaN,,,,,,false,,,,871894.3000001907,871894.2000000477,,871894.100000143,,871898.281,8,400,,,
sequence,flow.Sequence,4_67,2023-09-08T17:59:17.364Z,,0,,,6992.8360000477405,completion,,,,,false,,,,871894.600000143,871894.2000000477,864884.766,864900.100000143,864901.364,871898.281,8,400,,,
trial,html.Screen,4_68_0,2023-09-08T17:59:25.606Z,,0,2,,8237.919000047725,response,ISIC_0030784.JPG,5,ISIC_0060978.JPG,ISIC_0060978.JPG,false,0,keypress(z),500,880136.3000001907,880136.2000000477,871881.55,871894.7000000477,871898.281,880147.74,8,400,19,,ISIC_0030784.JPG
break,html.Screen,4_68_1,2023-09-08T17:59:25.607Z,,0,,,NaN,,,,,,false,,,,880136.600000143,880136.5,,880136.3000001907,,880147.74,8,400,,,
break_continue,html.Screen,4_68_2,2023-09-08T17:59:25.607Z,,0,,,NaN,,,,,,false,,,,880136.8000001907,880136.8000001907,,880136.600000143,,880147.74,8,400,,,
sequence,flow.Sequence,4_68,2023-09-08T17:59:25.607Z,,0,,,8238.519000190776,completion,,,,,false,,,,880137,880136.8000001907,871881.55,871894.600000143,871898.281,880147.74,8,400,,,
trial,html.Screen,4_69_0,2023-09-08T17:59:31.258Z,,0,2,,5639.460000047693,response,ISIC_8048668.JPG,5,ISIC_0033564.JPG,ISIC_8048668.JPG,false,1,keypress(m),500,885787.600000143,885787.2000000477,880131.076,880137,880147.74,885791.946,8,400,20,,ISIC_0033564.JPG
break,html.Screen,4_69_1,2023-09-08T17:59:31.259Z,,0,,,NaN,,,,,,false,,,,885788.600000143,885788.3000001907,,885787.9000000954,,885791.946,8,400,,,
break_continue,html.Screen,4_69_2,2023-09-08T17:59:31.259Z,,0,,,NaN,,,,,,false,,,,885789.100000143,885788.9000000954,,885788.8000001907,,885791.946,8,400,,,
sequence,flow.Sequence,4_69,2023-09-08T17:59:31.259Z,,0,,,5641.160000095377,completion,,,,,false,,,,885789.2000000477,885788.9000000954,880131.076,880137,880147.74,885791.946,8,400,,,
trial,html.Screen,4_70_0,2023-09-08T17:59:38.850Z,,0,2,,7588.154000143055,response,ISIC_0772836.JPG,5,ISIC_1807276.JPG,ISIC_0772836.JPG,false,1,keypress(m),500,893380.4000000954,893380.100000143,885775.356,885789.4000000954,885791.946,893390.097,8,400,21,,ISIC_1807276.JPG
break,html.Screen,4_70_1,2023-09-08T17:59:38.851Z,,0,,,NaN,,,,,,false,,,,893381.600000143,893380.7000000477,,893380.4000000954,,893390.097,8,400,,,
break_continue,html.Screen,4_70_2,2023-09-08T17:59:38.852Z,,0,,,NaN,,,,,,false,,,,893381.9000000954,893381.8000001907,,893381.7000000477,,893390.097,8,400,,,
sequence,flow.Sequence,4_70,2023-09-08T17:59:38.852Z,,0,,,7589.854000190739,completion,,,,,false,,,,893382,893381.8000001907,885775.356,885789.4000000954,885791.946,893390.097,8,400,,,
trial,html.Screen,4_71_0,2023-09-08T17:59:45.126Z,,0,2,,6265.703000190784,response,ISIC_0058753.JPG,6,ISIC_0054043.JPG,ISIC_0058753.JPG,false,1,keypress(m),500,899656.100000143,899655.8000001907,893373.514,893382.100000143,893390.097,899669.116,8,400,22,,ISIC_0054043.JPG
break,html.Screen,4_71_1,2023-09-08T17:59:45.127Z,,0,,,NaN,,,,,,false,,,,899657.2000000477,899656.9000000954,,899656.4000000954,,899669.116,8,400,,,
break_continue,html.Screen,4_71_2,2023-09-08T17:59:45.128Z,,0,,,NaN,,,,,,false,,,,899657.8000001907,899657.600000143,,899657.4000000954,,899669.116,8,400,,,
sequence,flow.Sequence,4_71,2023-09-08T17:59:45.128Z,,0,,,6267.5030001431005,completion,,,,,false,,,,899658,899657.600000143,893373.514,893382,893390.097,899669.116,8,400,,,
trial,html.Screen,4_72_0,2023-09-08T17:59:54.158Z,,0,2,,9018.383999999962,response,ISIC_5732374.JPG,6,ISIC_0034183.JPG,ISIC_5732374.JPG,false,1,keypress(m),500,908687.5,908687.5,899652.28,899658.3000001907,899669.116,908703.2,8,400,23,,ISIC_0034183.JPG
break,html.Screen,4_72_1,2023-09-08T17:59:54.158Z,,0,,,NaN,,,,,,false,,,,908687.9000000954,908687.8000001907,,908687.7000000477,,908703.2,8,400,,,
break_continue,html.Screen,4_72_2,2023-09-08T17:59:54.158Z,,0,,,NaN,,,,,,false,,,,908688,908687.9000000954,,908687.9000000954,,908703.2,8,400,,,
sequence,flow.Sequence,4_72,2023-09-08T17:59:54.159Z,,0,,,9018.78400009533,completion,,,,,false,,,,908688.100000143,908687.9000000954,899652.28,899658.2000000477,899669.116,908703.2,8,400,,,
trial,html.Screen,4_73_0,2023-09-08T17:59:59.808Z,,0,2,,5634.50000004773,response,ISIC_0058863.JPG,6,ISIC_0072624.JPG,ISIC_0058863.JPG,false,1,keypress(m),500,914337.9000000954,914337.7000000477,908686.7,908688.100000143,908703.2,914347.666,8,400,24,,ISIC_0072624.JPG
break,html.Screen,4_73_1,2023-09-08T17:59:59.809Z,,0,,,NaN,,,,,,false,,,,914338.600000143,914338.4000000954,,914338.100000143,,914347.666,8,400,,,
break_continue,html.Screen,4_73_2,2023-09-08T17:59:59.809Z,,0,,,NaN,,,,,,false,,,,914339,914338.8000001907,,914338.8000001907,,914347.666,8,400,,,
sequence,flow.Sequence,4_73,2023-09-08T17:59:59.810Z,,0,,,5635.600000190781,completion,,,,,false,,,,914339.2000000477,914338.8000001907,908686.7,908688.100000143,908703.2,914347.666,8,400,,,
trial,html.Screen,4_74_0,2023-09-08T18:00:06.451Z,,0,2,,6633.034000047715,response,ISIC_1729351.JPG,6,ISIC_0055680.JPG,ISIC_1729351.JPG,false,1,keypress(m),500,920980.9000000954,920980.7000000477,914330.86,914339.3000001907,914347.666,920993.774,8,400,25,,ISIC_0055680.JPG
break,html.Screen,4_74_1,2023-09-08T18:00:06.452Z,,0,,,NaN,,,,,,false,,,,920981.2000000477,920981.100000143,,920981,,920993.774,8,400,,,
break_continue,html.Screen,4_74_2,2023-09-08T18:00:06.452Z,,0,,,NaN,,,,,,false,,,,920981.5,920981.4000000954,,920981.2000000477,,920993.774,8,400,,,
sequence,flow.Sequence,4_74,2023-09-08T18:00:06.452Z,,0,,,6633.734000095399,completion,,,,,false,,,,920981.5,920981.4000000954,914330.86,914339.2000000477,914347.666,920993.774,8,400,,,
trial,html.Screen,4_75_0,2023-09-08T18:00:12.870Z,,0,2,,6405.326000143075,response,ISIC_6208708.JPG,5,ISIC_0027921.JPG,ISIC_6208708.JPG,false,1,keypress(m),500,927399.2000000477,927399.100000143,920977.09,920981.5,920993.774,927406.337,8,400,26,,ISIC_0027921.JPG
break,html.Screen,4_75_1,2023-09-08T18:00:12.870Z,,0,,,NaN,,,,,,false,,,,927399.600000143,927399.600000143,,927399.3000001907,,927406.337,8,400,,,
break_continue,html.Screen,4_75_2,2023-09-08T18:00:12.870Z,,0,,,NaN,,,,,,false,,,,927400,927399.9000000954,,927399.8000001907,,927406.337,8,400,,,
sequence,flow.Sequence,4_75,2023-09-08T18:00:12.871Z,,0,,,6406.126000095392,completion,,,,,false,,,,927400,927399.9000000954,920977.09,920981.5,920993.774,927406.337,8,400,,,
trial,html.Screen,4_76_0,2023-09-08T18:00:20.362Z,,0,2,,7485.363000047626,response,ISIC_0055143.JPG,5,ISIC_0065013.JPG,ISIC_0065013.JPG,false,0,keypress(z),500,934891.7000000477,934891.7000000477,927389.62,927400.2000000477,927406.337,934904.237,8,400,27,,ISIC_0055143.JPG
break,html.Screen,4_76_1,2023-09-08T18:00:20.363Z,,0,,,NaN,,,,,,false,,,,934892.100000143,934892,,934891.8000001907,,934904.237,8,400,,,
break_continue,html.Screen,4_76_2,2023-09-08T18:00:20.363Z,,0,,,NaN,,,,,,false,,,,934892.2000000477,934892.2000000477,,934892.100000143,,934904.237,8,400,,,
sequence,flow.Sequence,4_76,2023-09-08T18:00:20.363Z,,0,,,7485.863000047626,completion,,,,,false,,,,934892.3000001907,934892.2000000477,927389.62,927400.2000000477,927406.337,934904.237,8,400,,,
trial,html.Screen,4_77_0,2023-09-08T18:00:27.004Z,,0,2,,6629.163000095403,response,ISIC_0034107.JPG,5,ISIC_0028338.JPG,ISIC_0028338.JPG,false,0,keypress(z),500,941533.8000001907,941533.4000000954,934887.671,934892.4000000954,934904.237,941550.518,8,400,28,,ISIC_0034107.JPG
break,html.Screen,4_77_1,2023-09-08T18:00:27.006Z,,0,,,NaN,,,,,,false,,,,941535.9000000954,941535.4000000954,,941534.8000001907,,941550.518,8,400,,,
break_continue,html.Screen,4_77_2,2023-09-08T18:00:27.007Z,,0,,,NaN,,,,,,false,,,,941536.5,941536.2000000477,,941536.100000143,,941550.518,8,400,,,
sequence,flow.Sequence,4_77,2023-09-08T18:00:27.007Z,,0,,,6631.963000047719,completion,,,,,false,,,,941536.8000001907,941536.2000000477,934887.671,934892.3000001907,934904.237,941550.518,8,400,,,
trial,html.Screen,4_78_0,2023-09-08T18:00:34.610Z,,0,2,,7588.98199999996,response,ISIC_1874480.JPG,6,ISIC_0212774.JPG,ISIC_1874480.JPG,false,1,keypress(m),500,949139.600000143,949139.5,941533.745,941536.9000000954,941550.518,949148.552,8,400,29,,ISIC_0212774.JPG
break,html.Screen,4_78_1,2023-09-08T18:00:34.610Z,,0,,,NaN,,,,,,false,,,,949139.9000000954,949139.8000001907,,949139.7000000477,,949148.552,8,400,,,
break_continue,html.Screen,4_78_2,2023-09-08T18:00:34.610Z,,0,,,NaN,,,,,,false,,,,949140,949140,,949139.9000000954,,949148.552,8,400,,,
sequence,flow.Sequence,4_78,2023-09-08T18:00:34.611Z,,0,,,7589.48199999996,completion,,,,,false,,,,949140.100000143,949140,941533.745,941536.8000001907,941550.518,949148.552,8,400,,,
trial,html.Screen,4_79_0,2023-09-08T18:00:39.336Z,,0,2,,4716.447999999975,response,ISIC_0066209.JPG,6,ISIC_0031835.JPG,ISIC_0031835.JPG,false,0,keypress(z),500,953865.100000143,953865,949132.066,949140.100000143,949148.552,953874.494,8,400,30,,ISIC_0066209.JPG
break,html.Screen,4_79_1,2023-09-08T18:00:39.336Z,,0,,,NaN,,,,,,false,,,,953865.5,953865.4000000954,,953865.2000000477,,953874.494,8,400,,,
break_continue,html.Screen,4_79_2,2023-09-08T18:00:39.336Z,,0,,,NaN,,,,,,false,,,,953865.8000001907,953865.600000143,,953865.5,,953874.494,8,400,,,
sequence,flow.Sequence,4_79,2023-09-08T18:00:39.336Z,,0,,,4717.048000143026,completion,,,,,false,,,,953865.9000000954,953865.600000143,949132.066,949140.100000143,949148.552,953874.494,8,400,,,
trial,html.Screen,4_80_0,2023-09-08T18:00:45.978Z,,0,2,,6633.006000000052,response,ISIC_6517082.JPG,5,ISIC_0053916.JPG,ISIC_6517082.JPG,false,1,keypress(m),500,960507.7000000477,960507.5,953857.889,953866,953874.494,960520.763,8,400,31,,ISIC_0053916.JPG
break,html.Screen,4_80_1,2023-09-08T18:00:45.979Z,,0,,,NaN,,,,,,false,,,,960508.100000143,960508,,960507.8000001907,,960520.763,8,400,,,
break_continue,html.Screen,4_80_2,2023-09-08T18:00:45.979Z,,0,,,NaN,,,,,,false,,,,960508.3000001907,960508.2000000477,,960508.2000000477,,960520.763,8,400,,,
sequence,flow.Sequence,4_80,2023-09-08T18:00:45.979Z,,0,,,6633.706000047736,completion,,,,,false,,,,960508.4000000954,960508.2000000477,953857.889,953865.9000000954,953874.494,960520.763,8,400,,,
trial,html.Screen,4_81_0,2023-09-08T18:00:51.646Z,,0,2,,5653.937000047648,response,ISIC_8680266.JPG,5,ISIC_1353668.JPG,ISIC_1353668.JPG,false,0,keypress(z),500,966174.8000001907,966174.7000000477,960504.002,960508.4000000954,960520.763,966181.753,8,400,32,,ISIC_8680266.JPG
break,html.Screen,4_81_1,2023-09-08T18:00:51.646Z,,0,,,NaN,,,,,,false,,,,966175.2000000477,966175.100000143,,966174.9000000954,,966181.753,8,400,,,
break_continue,html.Screen,4_81_2,2023-09-08T18:00:51.646Z,,0,,,NaN,,,,,,false,,,,966175.4000000954,966175.3000001907,,966175.3000001907,,966181.753,8,400,,,
sequence,flow.Sequence,4_81,2023-09-08T18:00:51.647Z,,0,,,5654.5370001906995,completion,,,,,false,,,,966175.600000143,966175.3000001907,960504.002,960508.4000000954,960520.763,966181.753,8,400,,,
trial,html.Screen,4_82_0,2023-09-08T18:00:57.124Z,,0,2,,5470.746999999974,response,ISIC_0000142.JPG,5,ISIC_2670619.JPG,ISIC_2670619.JPG,false,0,keypress(z),500,971652.600000143,971652.5,966165.104,966175.600000143,966181.753,971659.105,8,400,33,,ISIC_0000142.JPG
break,html.Screen,4_82_1,2023-09-08T18:00:57.124Z,,0,,,NaN,,,,,,false,,,,971653.2000000477,971653.100000143,,971652.8000001907,,971659.105,8,400,,,
break_continue,html.Screen,4_82_2,2023-09-08T18:00:57.125Z,,0,,,NaN,,,,,,false,,,,971653.600000143,971653.5,,971653.5,,971659.105,8,400,,,
sequence,flow.Sequence,4_82,2023-09-08T18:00:57.125Z,,0,,,5471.746999999974,completion,,,,,false,,,,971653.7000000477,971653.5,966165.104,966175.600000143,966181.753,971659.105,8,400,,,
trial,html.Screen,4_83_0,2023-09-08T18:01:03.608Z,,0,2,,6477.6950001907535,response,ISIC_4673648.JPG,5,ISIC_4646815.JPG,ISIC_4673648.JPG,false,1,keypress(m),500,978137,978136.8000001907,971642.378,971653.9000000954,971659.105,978138.335,8,400,34,,ISIC_4646815.JPG
break,html.Screen,4_83_1,2023-09-08T18:01:03.608Z,,0,,,NaN,,,,,,false,,,,978137.4000000954,978137.3000001907,,978137.100000143,,978138.335,8,400,,,
break_continue,html.Screen,4_83_2,2023-09-08T18:01:03.609Z,,0,,,NaN,,,,,,false,,,,978137.7000000477,978137.600000143,,978137.5,,978138.335,8,400,,,
sequence,flow.Sequence,4_83,2023-09-08T18:01:03.609Z,,0,,,6478.49500014307,completion,,,,,false,,,,978137.8000001907,978137.600000143,971642.378,971653.8000001907,971659.105,978138.335,8,400,,,
trial,html.Screen,4_84_0,2023-09-08T18:01:10.203Z,,0,2,,6593.165000000037,response,ISIC_0055776.JPG,6,ISIC_2033237.JPG,ISIC_2033237.JPG,false,0,keypress(z),500,984731.600000143,984731.5,978121.612,978137.9000000954,978138.335,984734.492,8,400,35,,ISIC_0055776.JPG
break,html.Screen,4_84_1,2023-09-08T18:01:10.203Z,,0,,,NaN,,,,,,false,,,,984732.100000143,984731.9000000954,,984731.7000000477,,984734.492,8,400,,,
break_continue,html.Screen,4_84_2,2023-09-08T18:01:10.203Z,,0,,,NaN,,,,,,false,,,,984732.2000000477,984732.2000000477,,984732.2000000477,,984734.492,8,400,,,
sequence,flow.Sequence,4_84,2023-09-08T18:01:10.203Z,,0,,,6593.865000047721,completion,,,,,false,,,,984732.4000000954,984732.2000000477,978121.612,978137.9000000954,978138.335,984734.492,8,400,,,
trial,html.Screen,4_85_0,2023-09-08T18:01:15.553Z,,0,2,,5347.108000143082,response,ISIC_0011665.JPG,6,ISIC_9169586.JPG,ISIC_9169586.JPG,false,0,keypress(z),500,990081.9000000954,990081.600000143,984717.806,984732.4000000954,984734.492,990094.965,8,400,36,,ISIC_0011665.JPG
break,html.Screen,4_85_1,2023-09-08T18:01:15.554Z,,0,,,NaN,,,,,,false,,,,990083.100000143,990082.7000000477,,990082.3000001907,,990094.965,8,400,,,
break_continue,html.Screen,4_85_2,2023-09-08T18:01:15.555Z,,0,,,NaN,,,,,,false,,,,990083.7000000477,990083.5,,990083.3000001907,,990094.965,8,400,,,
sequence,flow.Sequence,4_85,2023-09-08T18:01:15.555Z,,0,,,5349.008000000031,completion,,,,,false,,,,990084.100000143,990083.5,984717.806,984732.4000000954,984734.492,990094.965,8,400,,,
trial,html.Screen,4_86_0,2023-09-08T18:01:23.149Z,,0,2,,7582.535000000033,response,ISIC_2843245.JPG,5,ISIC_6017985.JPG,ISIC_2843245.JPG,false,1,keypress(m),500,997677.7000000477,997677.5,990078.42,990084.8000001907,990094.965,997693.085,8,400,37,,ISIC_6017985.JPG
break,html.Screen,4_86_1,2023-09-08T18:01:23.149Z,,0,,,NaN,,,,,,false,,,,997678.3000001907,997678.100000143,,997677.9000000954,,997693.085,8,400,,,
break_continue,html.Screen,4_86_2,2023-09-08T18:01:23.150Z,,0,,,NaN,,,,,,false,,,,997678.7000000477,997678.600000143,,997678.4000000954,,997693.085,8,400,,,
sequence,flow.Sequence,4_86,2023-09-08T18:01:23.150Z,,0,,,7583.635000143084,completion,,,,,false,,,,997678.8000001907,997678.600000143,990078.42,990084.600000143,990094.965,997693.085,8,400,,,
trial,html.Screen,4_87_0,2023-09-08T18:01:31.525Z,,0,2,,8360.515000143088,response,ISIC_0006517.JPG,6,ISIC_7820005.JPG,ISIC_0006517.JPG,false,1,keypress(m),500,1006053.7000000477,1006053.600000143,997676.35,997678.9000000954,997693.085,1006059.325,8,400,38,,ISIC_7820005.JPG
break,html.Screen,4_87_1,2023-09-08T18:01:31.525Z,,0,,,NaN,,,,,,false,,,,1006054.100000143,1006054,,1006053.8000001907,,1006059.325,8,400,,,
break_continue,html.Screen,4_87_2,2023-09-08T18:01:31.525Z,,0,,,NaN,,,,,,false,,,,1006054.3000001907,1006054.2000000477,,1006054.2000000477,,1006059.325,8,400,,,
sequence,flow.Sequence,4_87,2023-09-08T18:01:31.525Z,,0,,,8361.115000047721,completion,,,,,false,,,,1006054.4000000954,1006054.2000000477,997676.35,997678.9000000954,997693.085,1006059.325,8,400,,,
trial,html.Screen,4_88_0,2023-09-08T18:01:39.486Z,,0,2,,7955.475000190781,response,ISIC_8150108.JPG,5,ISIC_0939648.JPG,ISIC_0939648.JPG,false,0,keypress(z),500,1014014.8000001907,1014014.8000001907,1006042.597,1006054.4000000954,1006059.325,1014024.869,8,400,39,,ISIC_8150108.JPG
break,html.Screen,4_88_1,2023-09-08T18:01:39.486Z,,0,,,NaN,,,,,,false,,,,1014015.2000000477,1014015.100000143,,1014014.9000000954,,1014024.869,8,400,,,
break_continue,html.Screen,4_88_2,2023-09-08T18:01:39.486Z,,0,,,NaN,,,,,,false,,,,1014015.4000000954,1014015.3000001907,,1014015.2000000477,,1014024.869,8,400,,,
sequence,flow.Sequence,4_88,2023-09-08T18:01:39.486Z,,0,,,7955.975000190781,completion,,,,,false,,,,1014015.5,1014015.3000001907,1006042.597,1006054.4000000954,1006059.325,1014024.869,8,400,,,
trial,html.Screen,4_89_0,2023-09-08T18:01:44.196Z,,0,2,,4700.231000143103,response,ISIC_0026699.JPG,6,ISIC_1027512.JPG,ISIC_1027512.JPG,false,0,keypress(z),500,1018725.3000001907,1018725.100000143,1014008.163,1014015.5,1014024.869,1018733.952,8,400,40,,ISIC_0026699.JPG
break,html.Screen,4_89_1,2023-09-08T18:01:44.197Z,,0,,,NaN,,,,,,false,,,,1018725.600000143,1018725.4000000954,,1018725.4000000954,,1018733.952,8,400,,,
break_continue,html.Screen,4_89_2,2023-09-08T18:01:44.197Z,,0,,,NaN,,,,,,false,,,,1018725.8000001907,1018725.7000000477,,1018725.600000143,,1018733.952,8,400,,,
sequence,flow.Sequence,4_89,2023-09-08T18:01:44.197Z,,0,,,4700.831000047736,completion,,,,,false,,,,1018725.8000001907,1018725.7000000477,1014008.163,1014015.5,1014024.869,1018733.952,8,400,,,
trial,html.Screen,4_90_0,2023-09-08T18:01:49.735Z,,0,2,,5529.948000095319,response,ISIC_0033122.JPG,5,ISIC_0024512.JPG,ISIC_0024512.JPG,false,0,keypress(z),500,1024264,1024263.9000000954,1018717.379,1018725.9000000954,1018733.952,1024278.177,8,400,41,,ISIC_0033122.JPG
break,html.Screen,4_90_1,2023-09-08T18:01:49.735Z,,0,,,NaN,,,,,,false,,,,1024264.3000001907,1024264.2000000477,,1024264,,1024278.177,8,400,,,
break_continue,html.Screen,4_90_2,2023-09-08T18:01:49.735Z,,0,,,NaN,,,,,,false,,,,1024264.5,1024264.4000000954,,1024264.4000000954,,1024278.177,8,400,,,
sequence,flow.Sequence,4_90,2023-09-08T18:01:49.736Z,,0,,,5530.448000095319,completion,,,,,false,,,,1024264.5,1024264.4000000954,1018717.379,1018725.9000000954,1018733.952,1024278.177,8,400,,,
trial,html.Screen,4_91_0,2023-09-08T18:01:55.209Z,,0,2,,5459.023000047659,response,ISIC_0056635.JPG,5,ISIC_0054284.JPG,ISIC_0054284.JPG,false,0,keypress(z),500,1029737.3000001907,1029737.2000000477,1024261.424,1024264.600000143,1024278.177,1029738.76,8,400,42,,ISIC_0056635.JPG
break,html.Screen,4_91_1,2023-09-08T18:01:55.209Z,,0,,,NaN,,,,,,false,,,,1029737.9000000954,1029737.7000000477,,1029737.4000000954,,1029738.76,8,400,,,
break_continue,html.Screen,4_91_2,2023-09-08T18:01:55.210Z,,0,,,NaN,,,,,,false,,,,1029738.3000001907,1029738.2000000477,,1029738.100000143,,1029738.76,8,400,,,
sequence,flow.Sequence,4_91,2023-09-08T18:01:55.210Z,,0,,,5460.023000047659,completion,,,,,false,,,,1029738.5,1029738.2000000477,1024261.424,1024264.5,1024278.177,1029738.76,8,400,,,
trial,html.Screen,4_92_0,2023-09-08T18:02:03.137Z,,0,2,,7926.340000143042,response,ISIC_0055797.JPG,5,ISIC_6385296.JPG,ISIC_6385296.JPG,false,0,keypress(z),500,1037665.100000143,1037665.100000143,1029722.041,1029738.5,1029738.76,1037670.802,8,400,43,,ISIC_0055797.JPG
break,html.Screen,4_92_1,2023-09-08T18:02:03.137Z,,0,,,NaN,,,,,,false,,,,1037665.5,1037665.4000000954,,1037665.3000001907,,1037670.802,8,400,,,
break_continue,html.Screen,4_92_2,2023-09-08T18:02:03.137Z,,0,,,NaN,,,,,,false,,,,1037665.7000000477,1037665.600000143,,1037665.600000143,,1037670.802,8,400,,,
sequence,flow.Sequence,4_92,2023-09-08T18:02:03.137Z,,0,,,7926.840000143042,completion,,,,,false,,,,1037665.7000000477,1037665.600000143,1029722.041,1029738.5,1029738.76,1037670.802,8,400,,,
trial,html.Screen,4_93_0,2023-09-08T18:02:09.858Z,,0,2,,6715.697999999975,response,ISIC_5335139.JPG,4,ISIC_0062740.JPG,ISIC_5335139.JPG,false,1,keypress(m),500,1044386.600000143,1044386.5,1037654.136,1037665.8000001907,1037670.802,1044400.63,8,400,44,,ISIC_0062740.JPG
break,html.Screen,4_93_1,2023-09-08T18:02:09.858Z,,0,,,NaN,,,,,,false,,,,1044387,1044386.9000000954,,1044386.8000001907,,1044400.63,8,400,,,
break_continue,html.Screen,4_93_2,2023-09-08T18:02:09.859Z,,0,,,NaN,,,,,,false,,,,1044387.100000143,1044387.100000143,,1044387,,1044400.63,8,400,,,
sequence,flow.Sequence,4_93,2023-09-08T18:02:09.859Z,,0,,,6716.298000143026,completion,,,,,false,,,,1044387.3000001907,1044387.100000143,1037654.136,1037665.8000001907,1037670.802,1044400.63,8,400,,,
trial,html.Screen,4_94_0,2023-09-08T18:02:18.121Z,,0,2,,8248.470000143046,response,ISIC_0030119.JPG,6,ISIC_6159783.JPG,ISIC_6159783.JPG,false,0,keypress(z),500,1052649.2000000477,1052649.100000143,1044384.011,1044387.4000000954,1044400.63,1052667.07,8,400,45,,ISIC_0030119.JPG
break,html.Screen,4_94_1,2023-09-08T18:02:18.121Z,,0,,,NaN,,,,,,false,,,,1052649.5,1052649.4000000954,,1052649.3000001907,,1052667.07,8,400,,,
break_continue,html.Screen,4_94_2,2023-09-08T18:02:18.121Z,,0,,,NaN,,,,,,false,,,,1052649.600000143,1052649.5,,1052649.5,,1052667.07,8,400,,,
sequence,flow.Sequence,4_94,2023-09-08T18:02:18.121Z,,0,,,8248.869999999995,completion,,,,,false,,,,1052649.7000000477,1052649.5,1044384.011,1044387.4000000954,1044400.63,1052667.07,8,400,,,
trial,html.Screen,4_95_0,2023-09-08T18:02:24.286Z,,0,2,,6147.1300000476185,response,ISIC_0055513.JPG,5,ISIC_0028930.JPG,ISIC_0028930.JPG,false,0,keypress(z),500,1058814.4000000954,1058814.2000000477,1052633.285,1052649.8000001907,1052667.07,1058828.633,8,400,46,,ISIC_0055513.JPG
break,html.Screen,4_95_1,2023-09-08T18:02:24.286Z,,0,,,NaN,,,,,,false,,,,1058814.600000143,1058814.600000143,,1058814.4000000954,,1058828.633,8,400,,,
break_continue,html.Screen,4_95_2,2023-09-08T18:02:24.286Z,,0,,,NaN,,,,,,false,,,,1058814.7000000477,1058814.7000000477,,1058814.600000143,,1058828.633,8,400,,,
sequence,flow.Sequence,4_95,2023-09-08T18:02:24.286Z,,0,,,6147.6300000476185,completion,,,,,false,,,,1058814.8000001907,1058814.7000000477,1052633.285,1052649.7000000477,1052667.07,1058828.633,8,400,,,
trial,html.Screen,4_96_0,2023-09-08T18:02:29.392Z,,0,2,,5091.6670001908205,response,ISIC_7139908.JPG,4,ISIC_3916064.JPG,ISIC_7139908.JPG,false,1,keypress(m),500,1063920.5,1063920.3000001907,1058812.124,1058814.9000000954,1058828.633,1063921.966,8,400,47,,ISIC_3916064.JPG
break,html.Screen,4_96_1,2023-09-08T18:02:29.393Z,,0,,,NaN,,,,,,false,,,,1063921.100000143,1063920.9000000954,,1063920.600000143,,1063921.966,8,400,,,
break_continue,html.Screen,4_96_2,2023-09-08T18:02:29.393Z,,0,,,NaN,,,,,,false,,,,1063921.4000000954,1063921.3000001907,,1063921.3000001907,,1063921.966,8,400,,,
sequence,flow.Sequence,4_96,2023-09-08T18:02:29.393Z,,0,,,5092.6670001908205,completion,,,,,false,,,,1063921.5,1063921.3000001907,1058812.124,1058814.8000001907,1058828.633,1063921.966,8,400,,,
trial,html.Screen,4_97_0,2023-09-08T18:02:36.247Z,,0,2,,6853.533999999985,response,ISIC_2476624.JPG,5,ISIC_2457024.JPG,ISIC_2476624.JPG,false,1,keypress(m),500,1070775.8000001907,1070775.5,1063905.282,1063921.600000143,1063921.966,1070785.282,8,400,48,,ISIC_2457024.JPG
break,html.Screen,4_97_1,2023-09-08T18:02:36.248Z,,0,,,NaN,,,,,,false,,,,1070776.5,1070776.3000001907,,1070776,,1070785.282,8,400,,,
break_continue,html.Screen,4_97_2,2023-09-08T18:02:36.249Z,,0,,,NaN,,,,,,false,,,,1070777.600000143,1070776.7000000477,,1070776.600000143,,1070785.282,8,400,,,
sequence,flow.Sequence,4_97,2023-09-08T18:02:36.249Z,,0,,,6854.734000047669,completion,,,,,false,,,,1070777.9000000954,1070776.7000000477,1063905.282,1063921.600000143,1063921.966,1070785.282,8,400,,,
trial,html.Screen,4_98_0,2023-09-08T18:02:42.351Z,,0,2,,6094.21800000011,response,ISIC_2119925.JPG,5,ISIC_4438786.JPG,ISIC_2119925.JPG,false,1,keypress(m),500,1076879.8000001907,1076879.5,1070768.734,1070778,1070785.282,1076880.566,8,400,49,,ISIC_4438786.JPG
break,html.Screen,4_98_1,2023-09-08T18:02:42.352Z,,0,,,NaN,,,,,,false,,,,1076880.4000000954,1076880.100000143,,1076879.9000000954,,1076880.566,8,400,,,
break_continue,html.Screen,4_98_2,2023-09-08T18:02:42.353Z,,0,,,NaN,,,,,,false,,,,1076881.5,1076881.3000001907,,1076881.100000143,,1076880.566,8,400,,,
sequence,flow.Sequence,4_98,2023-09-08T18:02:42.354Z,,0,,,6096.018000190845,completion,,,,,false,,,,1076882.2000000477,1076881.3000001907,1070768.734,1070778,1070785.282,1076880.566,8,400,,,
trial,html.Screen,4_99_0,2023-09-08T18:02:51.317Z,,0,2,,8964.933999999892,response,ISIC_0064014.JPG,5,ISIC_0053540.JPG,ISIC_0064014.JPG,false,1,keypress(m),500,1085845.600000143,1085845.5,1076863.779,1076882.600000143,1076880.566,1085847.912,8,400,50,,ISIC_0053540.JPG
break,html.Screen,4_99_1,2023-09-08T18:03:01.307Z,,0,,,10002.83899999992,timeout,,,,,false,,,,1095834.5,1095834.045,1085831.313,1085845.8000001907,1085847.912,1095850.751,8,400,,,
break_continue,html.Screen,4_99_2,2023-09-08T18:03:05.680Z,,0,,,4341.449000047753,response,,,,,false,continue,keypress(Space),,1100207.5,1100192.2000000477,1095834.045,1095834.600000143,1095850.751,1100209.175,8,400,,,
sequence,flow.Sequence,4_99,2023-09-08T18:03:05.680Z,,0,,,23311.634000047576,completion,,,,,false,,,,1100207.600000143,1100192.2000000477,1076863.779,1076882.4000000954,1076880.566,1100209.175,8,400,,,
trial,html.Screen,4_100_0,2023-09-08T18:03:11.538Z,,0,3,,5856.425000143005,response,ISIC_6652978.JPG,5,ISIC_4789377.JPG,ISIC_4789377.JPG,false,0,keypress(z),500,1106065.7000000477,1106065.600000143,1100192.479,1100207.600000143,1100209.175,1106070.617,8,400,1,,ISIC_6652978.JPG
break,html.Screen,4_100_1,2023-09-08T18:03:11.538Z,,0,,,NaN,,,,,,false,,,,1106066.100000143,1106066,,1106065.9000000954,,1106070.617,8,400,,,
break_continue,html.Screen,4_100_2,2023-09-08T18:03:11.538Z,,0,,,NaN,,,,,,false,,,,1106066.3000001907,1106066.2000000477,,1106066.2000000477,,1106070.617,8,400,,,
sequence,flow.Sequence,4_100,2023-09-08T18:03:11.538Z,,0,,,5857.025000047637,completion,,,,,false,,,,1106066.4000000954,1106066.2000000477,1100192.479,1100207.600000143,1100209.175,1106070.617,8,400,,,
trial,html.Screen,4_101_0,2023-09-08T18:03:16.212Z,,0,3,,4668.9830001429655,response,ISIC_1195689.JPG,4,ISIC_5218530.JPG,ISIC_1195689.JPG,false,1,keypress(m),500,1110739.7000000477,1110739.600000143,1106053.924,1106066.5,1106070.617,1110746.383,8,400,2,,ISIC_5218530.JPG
break,html.Screen,4_101_1,2023-09-08T18:03:16.212Z,,0,,,NaN,,,,,,false,,,,1110740,1110740,,1110739.8000001907,,1110746.383,8,400,,,
break_continue,html.Screen,4_101_2,2023-09-08T18:03:16.212Z,,0,,,NaN,,,,,,false,,,,1110740.2000000477,1110740.2000000477,,1110740,,1110746.383,8,400,,,
sequence,flow.Sequence,4_101,2023-09-08T18:03:16.212Z,,0,,,4669.583000047598,completion,,,,,false,,,,1110740.2000000477,1110740.2000000477,1106053.924,1106066.5,1106070.617,1110746.383,8,400,,,
trial,html.Screen,4_102_0,2023-09-08T18:03:21.509Z,,0,3,,5290.517000095453,response,ISIC_5414609.JPG,5,ISIC_0065918.JPG,ISIC_5414609.JPG,false,1,keypress(m),500,1116037.100000143,1116036.9000000954,1110729.663,1110740.3000001907,1110746.383,1116056.726,8,400,3,,ISIC_0065918.JPG
break,html.Screen,4_102_1,2023-09-08T18:03:21.510Z,,0,,,NaN,,,,,,false,,,,1116037.600000143,1116037.4000000954,,1116037.2000000477,,1116056.726,8,400,,,
break_continue,html.Screen,4_102_2,2023-09-08T18:03:21.510Z,,0,,,NaN,,,,,,false,,,,1116037.8000001907,1116037.8000001907,,1116037.7000000477,,1116056.726,8,400,,,
sequence,flow.Sequence,4_102,2023-09-08T18:03:21.510Z,,0,,,5291.4170001908205,completion,,,,,false,,,,1116038,1116037.8000001907,1110729.663,1110740.2000000477,1110746.383,1116056.726,8,400,,,
trial,html.Screen,4_103_0,2023-09-08T18:03:29.454Z,,0,3,,7925.074000190711,response,ISIC_0029071.JPG,4,ISIC_0292775.JPG,ISIC_0292775.JPG,false,0,keypress(z),500,1123981.9000000954,1123981.8000001907,1116040.156,1116038.100000143,1116056.726,1123988.854,8,400,4,,ISIC_0029071.JPG
break,html.Screen,4_103_1,2023-09-08T18:03:29.455Z,,0,,,NaN,,,,,,false,,,,1123982.5,1123982.4000000954,,1123982.100000143,,1123988.854,8,400,,,
break_continue,html.Screen,4_103_2,2023-09-08T18:03:29.455Z,,0,,,NaN,,,,,,false,,,,1123982.8000001907,1123982.8000001907,,1123982.600000143,,1123988.854,8,400,,,
sequence,flow.Sequence,4_103,2023-09-08T18:03:29.455Z,,0,,,7926.074000190711,completion,,,,,false,,,,1123983,1123982.8000001907,1116040.156,1116038.100000143,1116056.726,1123988.854,8,400,,,
trial,html.Screen,4_104_0,2023-09-08T18:03:36.385Z,,0,3,,6923.746000143001,response,ISIC_0012721.JPG,5,ISIC_8535134.JPG,ISIC_8535134.JPG,false,0,keypress(z),500,1130912.7000000477,1130912.600000143,1123972.413,1123983.100000143,1123988.854,1130919.056,8,400,5,,ISIC_0012721.JPG
break,html.Screen,4_104_1,2023-09-08T18:03:36.385Z,,0,,,NaN,,,,,,false,,,,1130913.2000000477,1130913,,1130912.8000001907,,1130919.056,8,400,,,
break_continue,html.Screen,4_104_2,2023-09-08T18:03:36.385Z,,0,,,NaN,,,,,,false,,,,1130913.4000000954,1130913.4000000954,,1130913.2000000477,,1130919.056,8,400,,,
sequence,flow.Sequence,4_104,2023-09-08T18:03:36.386Z,,0,,,6924.546000095317,completion,,,,,false,,,,1130913.5,1130913.4000000954,1123972.413,1123983,1123988.854,1130919.056,8,400,,,
trial,html.Screen,4_105_0,2023-09-08T18:03:44.067Z,,0,3,,7676.044000142952,response,ISIC_0031295.JPG,5,ISIC_5659295.JPG,ISIC_5659295.JPG,false,0,keypress(z),500,1138595.2000000477,1138595.100000143,1130902.365,1130913.600000143,1130919.056,1138600.589,8,400,6,,ISIC_0031295.JPG
break,html.Screen,4_105_1,2023-09-08T18:03:44.068Z,,0,,,NaN,,,,,,false,,,,1138595.9000000954,1138595.7000000477,,1138595.4000000954,,1138600.589,8,400,,,
break_continue,html.Screen,4_105_2,2023-09-08T18:03:44.068Z,,0,,,NaN,,,,,,false,,,,1138596.4000000954,1138596.2000000477,,1138596.100000143,,1138600.589,8,400,,,
sequence,flow.Sequence,4_105,2023-09-08T18:03:44.069Z,,0,,,7677.144000047585,completion,,,,,false,,,,1138596.5,1138596.2000000477,1130902.365,1130913.600000143,1130919.056,1138600.589,8,400,,,
trial,html.Screen,4_106_0,2023-09-08T18:03:50.732Z,,0,3,,6659.211000190815,response,ISIC_4023381.JPG,5,ISIC_5355302.JPG,ISIC_4023381.JPG,false,1,keypress(m),500,1145259.8000001907,1145259.8000001907,1138584.049,1138596.600000143,1138600.589,1145263.574,8,400,7,,ISIC_5355302.JPG
break,html.Screen,4_106_1,2023-09-08T18:03:50.732Z,,0,,,NaN,,,,,,false,,,,1145260.2000000477,1145260.100000143,,1145260,,1145263.574,8,400,,,
break_continue,html.Screen,4_106_2,2023-09-08T18:03:50.733Z,,0,,,NaN,,,,,,false,,,,1145260.5,1145260.4000000954,,1145260.3000001907,,1145263.574,8,400,,,
sequence,flow.Sequence,4_106,2023-09-08T18:03:50.733Z,,0,,,6659.8110000954475,completion,,,,,false,,,,1145260.600000143,1145260.4000000954,1138584.049,1138596.5,1138600.589,1145263.574,8,400,,,
trial,html.Screen,4_107_0,2023-09-08T18:03:55.555Z,,0,3,,4818.826000095345,response,ISIC_3046905.JPG,5,ISIC_3944634.JPG,ISIC_3046905.JPG,false,1,keypress(m),500,1150082.7000000477,1150082.4000000954,1145246.941,1145260.600000143,1145263.574,1150089.612,8,400,8,,ISIC_3944634.JPG
break,html.Screen,4_107_1,2023-09-08T18:03:55.556Z,,0,,,NaN,,,,,,false,,,,1150083.9000000954,1150083.600000143,,1150083.100000143,,1150089.612,8,400,,,
break_continue,html.Screen,4_107_2,2023-09-08T18:03:55.557Z,,0,,,NaN,,,,,,false,,,,1150084.7000000477,1150084.4000000954,,1150084.2000000477,,1150089.612,8,400,,,
sequence,flow.Sequence,4_107,2023-09-08T18:03:55.557Z,,0,,,4820.826000095345,completion,,,,,false,,,,1150084.8000001907,1150084.4000000954,1145246.941,1145260.600000143,1145263.574,1150089.612,8,400,,,
trial,html.Screen,4_108_0,2023-09-08T18:04:02.221Z,,0,3,,6658.788000095403,response,ISIC_4292708.JPG,6,ISIC_0032162.JPG,ISIC_4292708.JPG,false,1,keypress(m),500,1156748.5,1156748.4000000954,1150073.019,1150085,1150089.612,1156752.599,8,400,9,,ISIC_0032162.JPG
break,html.Screen,4_108_1,2023-09-08T18:04:02.221Z,,0,,,NaN,,,,,,false,,,,1156748.8000001907,1156748.7000000477,,1156748.600000143,,1156752.599,8,400,,,
break_continue,html.Screen,4_108_2,2023-09-08T18:04:02.221Z,,0,,,NaN,,,,,,false,,,,1156748.9000000954,1156748.9000000954,,1156748.8000001907,,1156752.599,8,400,,,
sequence,flow.Sequence,4_108,2023-09-08T18:04:02.221Z,,0,,,6659.288000095403,completion,,,,,false,,,,1156749,1156748.9000000954,1150073.019,1150085,1150089.612,1156752.599,8,400,,,
trial,html.Screen,4_109_0,2023-09-08T18:04:10.223Z,,0,3,,7998.001000143122,response,ISIC_5284935.JPG,5,ISIC_0060326.JPG,ISIC_5284935.JPG,false,1,keypress(m),500,1164750.8000001907,1164750.600000143,1156735.936,1156749,1156752.599,1164768.34,8,400,10,,ISIC_0060326.JPG
break,html.Screen,4_109_1,2023-09-08T18:04:10.224Z,,0,,,NaN,,,,,,false,,,,1164751.5,1164751.3000001907,,1164751,,1164768.34,8,400,,,
break_continue,html.Screen,4_109_2,2023-09-08T18:04:10.224Z,,0,,,NaN,,,,,,false,,,,1164751.9000000954,1164751.8000001907,,1164751.600000143,,1164768.34,8,400,,,
sequence,flow.Sequence,4_109,2023-09-08T18:04:10.224Z,,0,,,7999.201000190806,completion,,,,,false,,,,1164752,1164751.8000001907,1156735.936,1156749,1156752.599,1164768.34,8,400,,,
trial,html.Screen,4_110_0,2023-09-08T18:04:16.795Z,,0,3,,6553.960000190651,response,ISIC_8040024.JPG,6,ISIC_0056339.JPG,ISIC_8040024.JPG,false,1,keypress(m),500,1171322.5,1171322.3000001907,1164751.529,1164752.100000143,1164768.34,1171331.02,8,400,11,,ISIC_0056339.JPG
break,html.Screen,4_110_1,2023-09-08T18:04:16.796Z,,0,,,NaN,,,,,,false,,,,1171323.600000143,1171323.3000001907,,1171322.8000001907,,1171331.02,8,400,,,
break_continue,html.Screen,4_110_2,2023-09-08T18:04:16.797Z,,0,,,NaN,,,,,,false,,,,1171324.100000143,1171323.9000000954,,1171323.7000000477,,1171331.02,8,400,,,
sequence,flow.Sequence,4_110,2023-09-08T18:04:16.797Z,,0,,,6555.560000095284,completion,,,,,false,,,,1171324.4000000954,1171323.9000000954,1164751.529,1164752.100000143,1164768.34,1171331.02,8,400,,,
trial,html.Screen,4_111_0,2023-09-08T18:04:23.966Z,,0,3,,7162.880000095349,response,ISIC_1589997.JPG,4,ISIC_6423964.JPG,ISIC_6423964.JPG,false,0,keypress(z),500,1178494,1178493.9000000954,1171314.332,1171324.7000000477,1171331.02,1178494.933,8,400,12,,ISIC_1589997.JPG
break,html.Screen,4_111_1,2023-09-08T18:04:23.967Z,,0,,,NaN,,,,,,false,,,,1178494.5,1178494.4000000954,,1178494.2000000477,,1178494.933,8,400,,,
break_continue,html.Screen,4_111_2,2023-09-08T18:04:23.967Z,,0,,,NaN,,,,,,false,,,,1178494.8000001907,1178494.7000000477,,1178494.600000143,,1178494.933,8,400,,,
sequence,flow.Sequence,4_111,2023-09-08T18:04:23.967Z,,0,,,7163.680000047665,completion,,,,,false,,,,1178495,1178494.7000000477,1171314.332,1171324.5,1171331.02,1178494.933,8,400,,,
trial,html.Screen,4_112_0,2023-09-08T18:04:28.210Z,,0,3,,4241.967000095407,response,ISIC_0033612.JPG,5,ISIC_0011215.JPG,ISIC_0011215.JPG,false,0,keypress(z),500,1182737,1182736.9000000954,1178478.199,1178495.2000000477,1178494.933,1182753.228,8,400,13,,ISIC_0033612.JPG
break,html.Screen,4_112_1,2023-09-08T18:04:28.210Z,,0,,,NaN,,,,,,false,,,,1182737.3000001907,1182737.3000001907,,1182737.100000143,,1182753.228,8,400,,,
break_continue,html.Screen,4_112_2,2023-09-08T18:04:28.210Z,,0,,,NaN,,,,,,false,,,,1182737.5,1182737.5,,1182737.4000000954,,1182753.228,8,400,,,
sequence,flow.Sequence,4_112,2023-09-08T18:04:28.210Z,,0,,,4242.567000000039,completion,,,,,false,,,,1182737.600000143,1182737.5,1178478.199,1178495.100000143,1178494.933,1182753.228,8,400,,,
trial,html.Screen,4_113_0,2023-09-08T18:04:34.260Z,,0,3,,6034.0720001908485,response,ISIC_1037945.JPG,6,ISIC_0054073.JPG,ISIC_1037945.JPG,false,1,keypress(m),500,1188787.4000000954,1188787.3000001907,1182736.614,1182737.600000143,1182753.228,1188798.351,8,400,14,,ISIC_0054073.JPG
break,html.Screen,4_113_1,2023-09-08T18:04:34.260Z,,0,,,NaN,,,,,,false,,,,1188787.8000001907,1188787.7000000477,,1188787.5,,1188798.351,8,400,,,
break_continue,html.Screen,4_113_2,2023-09-08T18:04:34.260Z,,0,,,NaN,,,,,,false,,,,1188788,1188788,,1188787.8000001907,,1188798.351,8,400,,,
sequence,flow.Sequence,4_113,2023-09-08T18:04:34.261Z,,0,,,6034.772000000114,completion,,,,,false,,,,1188788.100000143,1188788,1182736.614,1182737.600000143,1182753.228,1188798.351,8,400,,,
trial,html.Screen,4_114_0,2023-09-08T18:04:39.002Z,,0,3,,4731.049000095343,response,ISIC_4468549.JPG,4,ISIC_0504165.JPG,ISIC_4468549.JPG,false,1,keypress(m),500,1193529.600000143,1193529.4000000954,1188781.658,1188788.3000001907,1188798.351,1193540.847,8,400,15,,ISIC_0504165.JPG
break,html.Screen,4_114_1,2023-09-08T18:04:39.002Z,,0,,,NaN,,,,,,false,,,,1193529.8000001907,1193529.8000001907,,1193529.7000000477,,1193540.847,8,400,,,
break_continue,html.Screen,4_114_2,2023-09-08T18:04:39.002Z,,0,,,NaN,,,,,,false,,,,1193530,1193530,,1193529.9000000954,,1193540.847,8,400,,,
sequence,flow.Sequence,4_114,2023-09-08T18:04:39.003Z,,0,,,4731.648999999976,completion,,,,,false,,,,1193530.100000143,1193530,1188781.658,1188788.2000000477,1188798.351,1193540.847,8,400,,,
trial,html.Screen,4_115_0,2023-09-08T18:04:45.471Z,,0,3,,6457.152999999933,response,ISIC_0597218.JPG,5,ISIC_0055996.JPG,ISIC_0597218.JPG,false,1,keypress(m),500,1199998.2000000477,1199998,1193524.246,1193530.100000143,1193540.847,1200003.457,8,400,16,,ISIC_0055996.JPG
break,html.Screen,4_115_1,2023-09-08T18:04:45.471Z,,0,,,NaN,,,,,,false,,,,1199999,1199998.8000001907,,1199998.4000000954,,1200003.457,8,400,,,
break_continue,html.Screen,4_115_2,2023-09-08T18:04:45.472Z,,0,,,NaN,,,,,,false,,,,1199999.5,1199999.3000001907,,1199999.100000143,,1200003.457,8,400,,,
sequence,flow.Sequence,4_115,2023-09-08T18:04:45.472Z,,0,,,6458.453000190668,completion,,,,,false,,,,1199999.7000000477,1199999.3000001907,1193524.246,1193530.100000143,1193540.847,1200003.457,8,400,,,
trial,html.Screen,4_116_0,2023-09-08T18:04:51.926Z,,0,3,,6449.843000190798,response,ISIC_3966064.JPG,6,ISIC_0029322.JPG,ISIC_0029322.JPG,false,0,keypress(z),500,1206453.600000143,1206453.3000001907,1199986.667,1199999.8000001907,1200003.457,1206466.068,8,400,17,,ISIC_3966064.JPG
break,html.Screen,4_116_1,2023-09-08T18:04:51.927Z,,0,,,NaN,,,,,,false,,,,1206454.100000143,1206454,,1206453.8000001907,,1206466.068,8,400,,,
break_continue,html.Screen,4_116_2,2023-09-08T18:04:51.927Z,,0,,,NaN,,,,,,false,,,,1206454.600000143,1206454.5,,1206454.4000000954,,1206466.068,8,400,,,
sequence,flow.Sequence,4_116,2023-09-08T18:04:51.927Z,,0,,,6451.043000000063,completion,,,,,false,,,,1206454.8000001907,1206454.5,1199986.667,1199999.8000001907,1200003.457,1206466.068,8,400,,,
trial,html.Screen,4_117_0,2023-09-08T18:04:58.954Z,,0,3,,7014.6320000477135,response,ISIC_3043219.JPG,6,ISIC_2021321.JPG,ISIC_2021321.JPG,false,0,keypress(z),500,1213480.9000000954,1213480.7000000477,1206449.3,1206454.9000000954,1206466.068,1213496.328,8,400,18,,ISIC_3043219.JPG
break,html.Screen,4_117_1,2023-09-08T18:04:58.954Z,,0,,,NaN,,,,,,false,,,,1213481.3000001907,1213481.2000000477,,1213481,,1213496.328,8,400,,,
break_continue,html.Screen,4_117_2,2023-09-08T18:04:58.955Z,,0,,,NaN,,,,,,false,,,,1213481.7000000477,1213481.600000143,,1213481.4000000954,,1213496.328,8,400,,,
sequence,flow.Sequence,4_117,2023-09-08T18:04:58.955Z,,0,,,7015.532000143081,completion,,,,,false,,,,1213481.8000001907,1213481.600000143,1206449.3,1206454.9000000954,1206466.068,1213496.328,8,400,,,
trial,html.Screen,4_118_0,2023-09-08T18:05:05.373Z,,0,3,,6403.1720000000205,response,ISIC_4853597.JPG,5,ISIC_0000533.JPG,ISIC_4853597.JPG,false,1,keypress(m),500,1219899.600000143,1219899.5,1213479.669,1213481.8000001907,1213496.328,1219908.8,8,400,19,,ISIC_0000533.JPG
break,html.Screen,4_118_1,2023-09-08T18:05:05.373Z,,0,,,NaN,,,,,,false,,,,1219900,1219899.9000000954,,1219899.7000000477,,1219908.8,8,400,,,
break_continue,html.Screen,4_118_2,2023-09-08T18:05:05.373Z,,0,,,NaN,,,,,,false,,,,1219900.2000000477,1219900.100000143,,1219900.100000143,,1219908.8,8,400,,,
sequence,flow.Sequence,4_118,2023-09-08T18:05:05.373Z,,0,,,6403.772000143072,completion,,,,,false,,,,1219900.3000001907,1219900.100000143,1213479.669,1213481.8000001907,1213496.328,1219908.8,8,400,,,
trial,html.Screen,4_119_0,2023-09-08T18:05:12.658Z,,0,3,,7276.300000143005,response,ISIC_0000957.JPG,5,ISIC_1444154.JPG,ISIC_1444154.JPG,false,0,keypress(z),500,1227185.2000000477,1227185.100000143,1219892.077,1219900.4000000954,1219908.8,1227189.576,8,400,20,,ISIC_0000957.JPG
break,html.Screen,4_119_1,2023-09-08T18:05:12.659Z,,0,,,NaN,,,,,,false,,,,1227185.5,1227185.4000000954,,1227185.3000001907,,1227189.576,8,400,,,
break_continue,html.Screen,4_119_2,2023-09-08T18:05:12.659Z,,0,,,NaN,,,,,,false,,,,1227185.8000001907,1227185.7000000477,,1227185.600000143,,1227189.576,8,400,,,
sequence,flow.Sequence,4_119,2023-09-08T18:05:12.659Z,,0,,,7276.900000047637,completion,,,,,false,,,,1227185.9000000954,1227185.7000000477,1219892.077,1219900.4000000954,1219908.8,1227189.576,8,400,,,
trial,html.Screen,4_120_0,2023-09-08T18:05:22.036Z,,0,3,,9372.924000000115,response,ISIC_9499185.JPG,6,ISIC_8153123.JPG,ISIC_9499185.JPG,false,1,keypress(m),500,1236562.600000143,1236562.5,1227172.888,1227186,1227189.576,1236574.555,8,400,21,,ISIC_8153123.JPG
break,html.Screen,4_120_1,2023-09-08T18:05:22.036Z,,0,,,NaN,,,,,,false,,,,1236563.2000000477,1236563,,1236562.8000001907,,1236574.555,8,400,,,
break_continue,html.Screen,4_120_2,2023-09-08T18:05:22.037Z,,0,,,NaN,,,,,,false,,,,1236563.5,1236563.5,,1236563.4000000954,,1236574.555,8,400,,,
sequence,flow.Sequence,4_120,2023-09-08T18:05:22.037Z,,0,,,9373.924000000115,completion,,,,,false,,,,1236563.600000143,1236563.5,1227172.888,1227185.9000000954,1227189.576,1236574.555,8,400,,,
trial,html.Screen,4_121_0,2023-09-08T18:05:27.670Z,,0,3,,5621.945000000065,response,ISIC_0031494.JPG,5,ISIC_0025751.JPG,ISIC_0025751.JPG,false,0,keypress(z),500,1242196.7000000477,1242196.5,1236557.823,1236563.7000000477,1236574.555,1242202.249,8,400,22,,ISIC_0031494.JPG
break,html.Screen,4_121_1,2023-09-08T18:05:27.670Z,,0,,,NaN,,,,,,false,,,,1242197.2000000477,1242197,,1242196.9000000954,,1242202.249,8,400,,,
break_continue,html.Screen,4_121_2,2023-09-08T18:05:27.670Z,,0,,,NaN,,,,,,false,,,,1242197.4000000954,1242197.2000000477,,1242197.2000000477,,1242202.249,8,400,,,
sequence,flow.Sequence,4_121,2023-09-08T18:05:27.670Z,,0,,,5622.645000047749,completion,,,,,false,,,,1242197.5,1242197.2000000477,1236557.823,1236563.600000143,1236574.555,1242202.249,8,400,,,
trial,html.Screen,4_122_0,2023-09-08T18:05:33.608Z,,0,3,,5932.6510000952985,response,ISIC_8521610.JPG,6,ISIC_3026660.JPG,ISIC_3026660.JPG,false,0,keypress(z),500,1248135,1248134.9000000954,1242185.647,1242197.600000143,1242202.249,1248147.207,8,400,23,,ISIC_8521610.JPG
break,html.Screen,4_122_1,2023-09-08T18:05:33.608Z,,0,,,NaN,,,,,,false,,,,1248135.3000001907,1248135.2000000477,,1248135.100000143,,1248147.207,8,400,,,
break_continue,html.Screen,4_122_2,2023-09-08T18:05:33.608Z,,0,,,NaN,,,,,,false,,,,1248135.4000000954,1248135.4000000954,,1248135.4000000954,,1248147.207,8,400,,,
sequence,flow.Sequence,4_122,2023-09-08T18:05:33.608Z,,0,,,5933.1510000952985,completion,,,,,false,,,,1248135.5,1248135.4000000954,1242185.647,1242197.600000143,1242202.249,1248147.207,8,400,,,
trial,html.Screen,4_123_0,2023-09-08T18:05:39.694Z,,0,3,,6073.993000047747,response,ISIC_8429798.JPG,5,ISIC_7555812.JPG,ISIC_8429798.JPG,false,1,keypress(m),500,1254221.2000000477,1254221.2000000477,1248130.402,1248135.5,1248147.207,1254225.59,8,400,24,,ISIC_7555812.JPG
break,html.Screen,4_123_1,2023-09-08T18:05:39.695Z,,0,,,NaN,,,,,,false,,,,1254221.600000143,1254221.5,,1254221.3000001907,,1254225.59,8,400,,,
break_continue,html.Screen,4_123_2,2023-09-08T18:05:39.695Z,,0,,,NaN,,,,,,false,,,,1254221.7000000477,1254221.7000000477,,1254221.7000000477,,1254225.59,8,400,,,
sequence,flow.Sequence,4_123,2023-09-08T18:05:39.695Z,,0,,,6074.493000047747,completion,,,,,false,,,,1254221.8000001907,1254221.7000000477,1248130.402,1248135.5,1248147.207,1254225.59,8,400,,,
trial,html.Screen,4_124_0,2023-09-08T18:05:47.510Z,,0,3,,7811.210000190651,response,ISIC_5854552.JPG,6,ISIC_7586566.JPG,ISIC_5854552.JPG,false,1,keypress(m),500,1262036.8000001907,1262036.8000001907,1254208.875,1254221.9000000954,1254225.59,1262040.787,8,400,25,,ISIC_7586566.JPG
break,html.Screen,4_124_1,2023-09-08T18:05:47.510Z,,0,,,NaN,,,,,,false,,,,1262037.2000000477,1262037.100000143,,1262036.9000000954,,1262040.787,8,400,,,
break_continue,html.Screen,4_124_2,2023-09-08T18:05:47.510Z,,0,,,NaN,,,,,,false,,,,1262037.5,1262037.4000000954,,1262037.3000001907,,1262040.787,8,400,,,
sequence,flow.Sequence,4_124,2023-09-08T18:05:47.511Z,,0,,,7811.810000095284,completion,,,,,false,,,,1262037.7000000477,1262037.4000000954,1254208.875,1254221.9000000954,1254225.59,1262040.787,8,400,,,
trial,html.Screen,4_125_0,2023-09-08T18:05:55.212Z,,0,3,,7697.31300014304,response,ISIC_7129901.JPG,4,ISIC_4624973.JPG,ISIC_7129901.JPG,false,1,keypress(m),500,1269738.3000001907,1269738.100000143,1262024.258,1262037.7000000477,1262040.787,1269739.098,8,400,26,,ISIC_4624973.JPG
break,html.Screen,4_125_1,2023-09-08T18:05:55.212Z,,0,,,NaN,,,,,,false,,,,1269738.600000143,1269738.600000143,,1269738.4000000954,,1269739.098,8,400,,,
break_continue,html.Screen,4_125_2,2023-09-08T18:05:55.212Z,,0,,,NaN,,,,,,false,,,,1269738.9000000954,1269738.8000001907,,1269738.7000000477,,1269739.098,8,400,,,
sequence,flow.Sequence,4_125,2023-09-08T18:05:55.212Z,,0,,,7698.013000190724,completion,,,,,false,,,,1269738.9000000954,1269738.8000001907,1262024.258,1262037.7000000477,1262040.787,1269739.098,8,400,,,
