sender,sender_type,sender_id,timestamp,meta,,blockNo,condition,duration,ended_on,img_left,img_reveal,img_right,loser,practice,response,response_action,selection_duration,time_commit,time_end,time_render,time_run,time_show,time_switch,total_blocks,total_trials,trialNo,url,winner
informed_consent,html.Screen,0,2023-09-08T17:45:29.132Z,"{""labjs_version"":""20.2.4"",""labjs_build"":{""flavor"":""development"",""commit"":""f5b4a49f956347addd546a832a3327688c2c0fef""},""location"":""https://labjs.felixhenninger.com/api/labjs_preview/index.html"",""userAgent"":""Mozilla/5.0 (Windows NT 10.0; Win64; x64) AppleWebKit/537.36 (KHTML, like Gecko) Chrome/116.0.0.0 Safari/537.36"",""platform"":""Win32"",""language"":""en-AU"",""locale"":""en-US"",""timeZone"":""America/Chicago"",""timezoneOffset"":300,""screen_width"":1680,""screen_height"":1050,""scroll_width"":1296,""scroll_height"":688,""window_innerWidth"":1296,""window_innerHeight"":736,""devicePixelRatio"":1}",,,,101303.149,response,,,,,,consent,click button,,101769.89999985695,101769,449.168,520.7999999523163,465.851,101729.604,,,,{},
Welcome,html.Screen,1,2023-09-08T17:47:50.146Z,,,,uniform,141051.69599995232,response,,,,,,continue,click button,,242782,242781.29999995232,101712.857,101770.09999990463,101729.604,242754.053,,,,,
trial,html.Screen,2_0_0,2023-09-08T17:48:01.665Z,,0,0,,11522.542999999976,timeout,ISIC_0063388.JPG,,ISIC_0025593.JPG,,true,,,500,254300.09999990463,254299.89999985695,242737.369,242782.09999990463,242754.053,254276.596,1,6,1,,
sequence,flow.Sequence,2_0,2023-09-08T17:48:01.665Z,,0,,,11545.846999856934,completion,,,,,true,,,,254300.29999995232,254299.89999985695,242737.369,242782.09999990463,242754.053,254276.596,1,6,,,
trial,html.Screen,2_1_0,2023-09-08T17:48:13.187Z,,0,0,,11522.453000000009,timeout,ISIC_0028178.JPG,,ISIC_1309015.JPG,,true,,,500,265822.39999985695,265822.19999980927,254259.994,254300.39999985695,254276.596,265799.049,1,6,2,,
sequence,flow.Sequence,2_1,2023-09-08T17:48:13.187Z,,0,,,11545.603999809275,completion,,,,,true,,,,265822.7999999523,265822.19999980927,254259.994,254300.39999985695,254276.596,265799.049,1,6,,,
trial,html.Screen,2_2_0,2023-09-08T17:48:24.710Z,,0,0,,11522.329000000027,timeout,ISIC_0031128.JPG,,ISIC_3314853.JPG,,true,,,500,277345,277344.69999980927,265782.446,265823,265799.049,277321.378,1,6,3,,
sequence,flow.Sequence,2_2,2023-09-08T17:48:24.710Z,,0,,,11545.650999809266,completion,,,,,true,,,,277345.39999985695,277344.69999980927,265782.446,265822.89999985695,265799.049,277321.378,1,6,,,
trial,html.Screen,2_3_0,2023-09-08T17:48:36.232Z,,0,0,,11522.353999999992,timeout,ISIC_0031612.JPG,,ISIC_8980141.JPG,,true,,,500,288867,288866.7999999523,277304.785,277345.59999990463,277321.378,288843.732,1,6,4,,
sequence,flow.Sequence,2_3,2023-09-08T17:48:36.232Z,,0,,,11545.42199995229,completion,,,,,true,,,,288867.19999980927,288866.7999999523,277304.785,277345.5,277321.378,288843.732,1,6,,,
trial,html.Screen,2_4_0,2023-09-08T17:48:47.754Z,,0,0,,11522.51999999996,timeout,ISIC_1197737.JPG,,ISIC_9721604.JPG,,true,,,500,300389.39999985695,300389.09999990463,288827.048,288867.2999999523,288843.732,300366.252,1,6,5,,
sequence,flow.Sequence,2_4,2023-09-08T17:48:47.754Z,,0,,,11545.367999904614,completion,,,,,true,,,,300389.5,300389.09999990463,288827.048,288867.2999999523,288843.732,300366.252,1,6,,,
trial,html.Screen,2_5_0,2023-09-08T17:48:59.277Z,,0,0,,11522.486000000034,timeout,ISIC_0025346.JPG,,ISIC_0010681.JPG,,true,,,500,311911.7999999523,311911.59999990463,300349.49,300389.59999990463,300366.252,311888.738,1,6,6,,
sequence,flow.Sequence,2_5,2023-09-08T17:48:59.277Z,,0,,,11545.347999904654,completion,,,,,true,,,,311912,311911.59999990463,300349.49,300389.5,300366.252,311888.738,1,6,,,
loop,flow.Loop,2,2023-09-08T17:48:59.277Z,,,,,69157.54699990462,completion,,,,,true,,,,311912.09999990463,311911.59999990463,242737.369,242782,242754.053,311888.738,1,6,,,
exp_instructions,html.Screen,3,2023-09-08T17:49:46.473Z,,,,,47192.96199980925,response,,,,,,continue,keypress(Space),,359107.59999990463,359081.69999980927,311871.904,311912.19999980927,311888.738,359047.077,,,,,
trial,html.Screen,4_0_0,2023-09-08T17:49:52.445Z,,0,1,,6032.222999952326,response,ISIC_8779142.JPG,5,ISIC_4653503.JPG,ISIC_8779142.JPG,false,1,keypress(m),500,365079.39999985695,365079.2999999523,359030.446,359107.7999999523,359047.077,365025.33,8,400,1,,ISIC_4653503.JPG
break,html.Screen,4_0_1,2023-09-08T17:49:52.446Z,,0,,,NaN,,,,,,false,,,,365080,365079.7999999523,,365079.59999990463,,365025.33,8,400,,,
break_continue,html.Screen,4_0_2,2023-09-08T17:49:52.446Z,,0,,,NaN,,,,,,false,,,,365080.2999999523,365080.19999980927,,365080.09999990463,,365025.33,8,400,,,
sequence,flow.Sequence,4_0,2023-09-08T17:49:52.446Z,,0,,,6033.122999809275,completion,,,,,false,,,,365080.39999985695,365080.19999980927,359030.446,359107.7999999523,359047.077,365025.33,8,400,,,
trial,html.Screen,4_1_0,2023-09-08T17:50:00.304Z,,0,1,,7912.669999999984,response,ISIC_5437785.JPG,5,ISIC_0034317.JPG,ISIC_0034317.JPG,false,0,keypress(z),500,372938.19999980927,372938,365008.813,365080.5,365025.33,372890.717,8,400,2,,ISIC_5437785.JPG
break,html.Screen,4_1_1,2023-09-08T17:50:00.305Z,,0,,,NaN,,,,,,false,,,,372938.89999985695,372938.69999980927,,372938.39999985695,,372890.717,8,400,,,
break_continue,html.Screen,4_1_2,2023-09-08T17:50:00.305Z,,0,,,NaN,,,,,,false,,,,372939.19999980927,372939.09999990463,,372939.09999990463,,372890.717,8,400,,,
sequence,flow.Sequence,4_1,2023-09-08T17:50:00.305Z,,0,,,7913.769999904616,completion,,,,,false,,,,372939.39999985695,372939.09999990463,365008.813,365080.39999985695,365025.33,372890.717,8,400,,,
trial,html.Screen,4_2_0,2023-09-08T17:50:08.387Z,,0,1,,8130.582999952312,response,ISIC_0031529.JPG,5,ISIC_1194944.JPG,ISIC_0031529.JPG,false,1,keypress(m),500,381021.39999985695,381021.2999999523,372873.943,372939.5,372890.717,380973.02,8,400,3,,ISIC_1194944.JPG
break,html.Screen,4_2_1,2023-09-08T17:50:08.388Z,,0,,,NaN,,,,,,false,,,,381021.7999999523,381021.59999990463,,381021.39999985695,,380973.02,8,400,,,
break_continue,html.Screen,4_2_2,2023-09-08T17:50:08.388Z,,0,,,NaN,,,,,,false,,,,381022,381021.89999985695,,381021.89999985695,,380973.02,8,400,,,
sequence,flow.Sequence,4_2,2023-09-08T17:50:08.388Z,,0,,,8131.182999856945,completion,,,,,false,,,,381022,381021.89999985695,372873.943,372939.5,372890.717,380973.02,8,400,,,
trial,html.Screen,4_3_0,2023-09-08T17:50:17.206Z,,0,1,,8867.479999999981,response,ISIC_5608998.JPG,6,ISIC_0025812.JPG,ISIC_5608998.JPG,false,1,keypress(m),500,389840.69999980927,389840.5,380956.353,381022.09999990463,380973.02,389790.218,8,400,4,,ISIC_0025812.JPG
break,html.Screen,4_3_1,2023-09-08T17:50:17.207Z,,0,,,NaN,,,,,,false,,,,389841.39999985695,389841.19999980927,,389840.7999999523,,389790.218,8,400,,,
break_continue,html.Screen,4_3_2,2023-09-08T17:50:17.208Z,,0,,,NaN,,,,,,false,,,,389841.7999999523,389841.69999980927,,389841.59999990463,,389790.218,8,400,,,
sequence,flow.Sequence,4_3,2023-09-08T17:50:17.208Z,,0,,,8868.679999809247,completion,,,,,false,,,,389842,389841.69999980927,380956.353,381022.09999990463,380973.02,389790.218,8,400,,,
trial,html.Screen,4_4_0,2023-09-08T17:50:26.458Z,,0,1,,9302.081999952323,response,ISIC_0011099.JPG,5,ISIC_4481362.JPG,ISIC_0011099.JPG,false,1,keypress(m),500,399092.5,399092.2999999523,389773.535,389842.09999990463,389790.218,399041.581,8,400,5,,ISIC_4481362.JPG
break,html.Screen,4_4_1,2023-09-08T17:50:26.459Z,,0,,,NaN,,,,,,false,,,,399092.7999999523,399092.7999999523,,399092.59999990463,,399041.581,8,400,,,
break_continue,html.Screen,4_4_2,2023-09-08T17:50:26.459Z,,0,,,NaN,,,,,,false,,,,399093,399092.89999985695,,399092.89999985695,,399041.581,8,400,,,
sequence,flow.Sequence,4_4,2023-09-08T17:50:26.459Z,,0,,,9302.681999856955,completion,,,,,false,,,,399093.09999990463,399092.89999985695,389773.535,389842.09999990463,389790.218,399041.581,8,400,,,
trial,html.Screen,4_5_0,2023-09-08T17:50:35.251Z,,0,1,,8843.918999999994,response,ISIC_3452564.JPG,6,ISIC_9034574.JPG,ISIC_9034574.JPG,false,0,keypress(z),500,407885.69999980927,407885.5,399024.978,399093.19999980927,399041.581,407842.008,8,400,6,,ISIC_3452564.JPG
break,html.Screen,4_5_1,2023-09-08T17:50:35.252Z,,0,,,NaN,,,,,,false,,,,407886.19999980927,407886.09999990463,,407885.89999985695,,407842.008,8,400,,,
break_continue,html.Screen,4_5_2,2023-09-08T17:50:35.252Z,,0,,,NaN,,,,,,false,,,,407886.59999990463,407886.5,,407886.2999999523,,407842.008,8,400,,,
sequence,flow.Sequence,4_5,2023-09-08T17:50:35.252Z,,0,,,8844.918999999994,completion,,,,,false,,,,407886.69999980927,407886.5,399024.978,399093.19999980927,399041.581,407842.008,8,400,,,
trial,html.Screen,4_6_0,2023-09-08T17:50:45.030Z,,0,1,,9822.291999952344,response,ISIC_3000569.JPG,4,ISIC_0002622.JPG,ISIC_3000569.JPG,false,1,keypress(m),500,417664.39999985695,417664.2999999523,407825.28,407886.69999980927,407842.008,417610.952,8,400,7,,ISIC_0002622.JPG
break,html.Screen,4_6_1,2023-09-08T17:50:45.031Z,,0,,,NaN,,,,,,false,,,,417664.89999985695,417664.7999999523,,417664.59999990463,,417610.952,8,400,,,
break_continue,html.Screen,4_6_2,2023-09-08T17:50:45.031Z,,0,,,NaN,,,,,,false,,,,417665.19999980927,417665.09999990463,,417665.09999990463,,417610.952,8,400,,,
sequence,flow.Sequence,4_6,2023-09-08T17:50:45.031Z,,0,,,9823.09199990466,completion,,,,,false,,,,417665.2999999523,417665.09999990463,407825.28,407886.69999980927,407842.008,417610.952,8,400,,,
trial,html.Screen,4_7_0,2023-09-08T17:50:52.729Z,,0,1,,7751.947999856959,response,ISIC_0006754.JPG,6,ISIC_1369273.JPG,ISIC_1369273.JPG,false,0,keypress(z),500,425363,425362.89999985695,417594.276,417665.39999985695,417610.952,425309.323,8,400,8,,ISIC_0006754.JPG
break,html.Screen,4_7_1,2023-09-08T17:50:52.729Z,,0,,,NaN,,,,,,false,,,,425363.2999999523,425363.19999980927,,425363.09999990463,,425309.323,8,400,,,
break_continue,html.Screen,4_7_2,2023-09-08T17:50:52.730Z,,0,,,NaN,,,,,,false,,,,425363.39999985695,425363.39999985695,,425363.2999999523,,425309.323,8,400,,,
sequence,flow.Sequence,4_7,2023-09-08T17:50:52.730Z,,0,,,7752.447999856959,completion,,,,,false,,,,425363.5,425363.39999985695,417594.276,417665.39999985695,417610.952,425309.323,8,400,,,
trial,html.Screen,4_8_0,2023-09-08T17:51:01.586Z,,0,1,,8909.976999952341,response,ISIC_0010317.JPG,6,ISIC_8375123.JPG,ISIC_0010317.JPG,false,1,keypress(m),500,434219.2999999523,434219.2999999523,425292.806,425363.59999990463,425309.323,434176.569,8,400,9,,ISIC_8375123.JPG
break,html.Screen,4_8_1,2023-09-08T17:51:01.586Z,,0,,,NaN,,,,,,false,,,,434219.59999990463,434219.5,,434219.39999985695,,434176.569,8,400,,,
break_continue,html.Screen,4_8_2,2023-09-08T17:51:01.586Z,,0,,,NaN,,,,,,false,,,,434219.7999999523,434219.7999999523,,434219.7999999523,,434176.569,8,400,,,
sequence,flow.Sequence,4_8,2023-09-08T17:51:01.586Z,,0,,,8910.476999952341,completion,,,,,false,,,,434219.89999985695,434219.7999999523,425292.806,425363.59999990463,425309.323,434176.569,8,400,,,
trial,html.Screen,4_9_0,2023-09-08T17:51:12.052Z,,0,1,,10509.030999904615,response,ISIC_8775014.JPG,6,ISIC_6529819.JPG,ISIC_6529819.JPG,false,0,keypress(z),500,444685.7999999523,444685.59999990463,434159.862,434219.89999985695,434176.569,444663.816,8,400,10,,ISIC_8775014.JPG
break,html.Screen,4_9_1,2023-09-08T17:51:12.053Z,,0,,,NaN,,,,,,false,,,,444686.5,444686.19999980927,,444685.89999985695,,444663.816,8,400,,,
break_continue,html.Screen,4_9_2,2023-09-08T17:51:12.053Z,,0,,,NaN,,,,,,false,,,,444687.09999990463,444686.89999985695,,444686.69999980927,,444663.816,8,400,,,
sequence,flow.Sequence,4_9,2023-09-08T17:51:12.053Z,,0,,,10510.330999856931,completion,,,,,false,,,,444687.19999980927,444686.89999985695,434159.862,434219.89999985695,434176.569,444663.816,8,400,,,
trial,html.Screen,4_10_0,2023-09-08T17:51:19.400Z,,0,1,,7370.283999904641,response,ISIC_8626941.JPG,5,ISIC_6520237.JPG,ISIC_6520237.JPG,false,0,keypress(z),500,452034.2999999523,452034.09999990463,444646.934,444687.2999999523,444663.816,451994.538,8,400,11,,ISIC_8626941.JPG
break,html.Screen,4_10_1,2023-09-08T17:51:19.401Z,,0,,,NaN,,,,,,false,,,,452035,452034.7999999523,,452034.5,,451994.538,8,400,,,
break_continue,html.Screen,4_10_2,2023-09-08T17:51:19.402Z,,0,,,NaN,,,,,,false,,,,452035.39999985695,452035.19999980927,,452035.19999980927,,451994.538,8,400,,,
sequence,flow.Sequence,4_10,2023-09-08T17:51:19.402Z,,0,,,7371.3839998092735,completion,,,,,false,,,,452035.5,452035.19999980927,444646.934,444687.2999999523,444663.816,451994.538,8,400,,,
trial,html.Screen,4_11_0,2023-09-08T17:51:30.700Z,,0,1,,11338.962,response,ISIC_0012740.JPG,6,ISIC_1402840.JPG,ISIC_0012740.JPG,false,1,keypress(m),500,463333.59999990463,463333.5,451978.024,452035.69999980927,451994.538,463283.224,8,400,12,,ISIC_1402840.JPG
break,html.Screen,4_11_1,2023-09-08T17:51:30.700Z,,0,,,NaN,,,,,,false,,,,463333.89999985695,463333.7999999523,,463333.69999980927,,463283.224,8,400,,,
break_continue,html.Screen,4_11_2,2023-09-08T17:51:30.700Z,,0,,,NaN,,,,,,false,,,,463334,463334,,463334,,463283.224,8,400,,,
sequence,flow.Sequence,4_11,2023-09-08T17:51:30.700Z,,0,,,11339.462,completion,,,,,false,,,,463334.09999990463,463334,451978.024,452035.59999990463,451994.538,463283.224,8,400,,,
trial,html.Screen,4_12_0,2023-09-08T17:51:38.963Z,,0,1,,8313.375999904645,response,ISIC_0025316.JPG,5,ISIC_4298624.JPG,ISIC_0025316.JPG,false,1,keypress(m),500,471596.69999980927,471596.59999990463,463266.488,463334.19999980927,463283.224,471549.372,8,400,13,,ISIC_4298624.JPG
break,html.Screen,4_12_1,2023-09-08T17:51:38.963Z,,0,,,NaN,,,,,,false,,,,471597.19999980927,471597.09999990463,,471597,,471549.372,8,400,,,
break_continue,html.Screen,4_12_2,2023-09-08T17:51:38.964Z,,0,,,NaN,,,,,,false,,,,471597.59999990463,471597.59999990463,,471597.5,,471549.372,8,400,,,
sequence,flow.Sequence,4_12,2023-09-08T17:51:38.964Z,,0,,,8314.375999904645,completion,,,,,false,,,,471597.69999980927,471597.59999990463,463266.488,463334.19999980927,463283.224,471549.372,8,400,,,
trial,html.Screen,4_13_0,2023-09-08T17:51:45.357Z,,0,1,,6441.128000000026,response,ISIC_7511557.JPG,5,ISIC_0331389.JPG,ISIC_0331389.JPG,false,0,keypress(z),500,477990.7999999523,477990.5,471532.615,471597.7999999523,471549.372,477945.141,8,400,14,,ISIC_7511557.JPG
break,html.Screen,4_13_1,2023-09-08T17:51:45.358Z,,0,,,NaN,,,,,,false,,,,477992.09999990463,477991.69999980927,,477991.09999990463,,477945.141,8,400,,,
break_continue,html.Screen,4_13_2,2023-09-08T17:51:45.359Z,,0,,,NaN,,,,,,false,,,,477992.69999980927,477992.59999990463,,477992.39999985695,,477945.141,8,400,,,
sequence,flow.Sequence,4_13,2023-09-08T17:51:45.359Z,,0,,,6443.227999904659,completion,,,,,false,,,,477993.09999990463,477992.59999990463,471532.615,471597.7999999523,471549.372,477945.141,8,400,,,
trial,html.Screen,4_14_0,2023-09-08T17:51:53.989Z,,0,1,,8676.45899990463,response,ISIC_5502342.JPG,5,ISIC_0060219.JPG,ISIC_0060219.JPG,false,0,keypress(z),500,486622,486621.59999990463,477928.544,477993.2999999523,477945.141,486578.712,8,400,15,,ISIC_5502342.JPG
break,html.Screen,4_14_1,2023-09-08T17:51:53.990Z,,0,,,NaN,,,,,,false,,,,486623.09999990463,486622.69999980927,,486622.2999999523,,486578.712,8,400,,,
break_continue,html.Screen,4_14_2,2023-09-08T17:51:53.991Z,,0,,,NaN,,,,,,false,,,,486624,486623.69999980927,,486623.5,,486578.712,8,400,,,
sequence,flow.Sequence,4_14,2023-09-08T17:51:53.991Z,,0,,,8678.558999809262,completion,,,,,false,,,,486624.2999999523,486623.69999980927,477928.544,477993.2999999523,477945.141,486578.712,8,400,,,
trial,html.Screen,4_15_0,2023-09-08T17:52:04.080Z,,0,1,,10134.087999952317,response,ISIC_6207688.JPG,5,ISIC_0024221.JPG,ISIC_0024221.JPG,false,0,keypress(z),500,496713,496712.7999999523,486561.952,486624.59999990463,486578.712,496665.014,8,400,16,,ISIC_6207688.JPG
break,html.Screen,4_15_1,2023-09-08T17:52:04.081Z,,0,,,NaN,,,,,,false,,,,496713.59999990463,496713.39999985695,,496713.2999999523,,496665.014,8,400,,,
break_continue,html.Screen,4_15_2,2023-09-08T17:52:04.081Z,,0,,,NaN,,,,,,false,,,,496714.09999990463,496713.89999985695,,496713.7999999523,,496665.014,8,400,,,
sequence,flow.Sequence,4_15,2023-09-08T17:52:04.081Z,,0,,,10135.18799985695,completion,,,,,false,,,,496714.19999980927,496713.89999985695,486561.952,486624.5,486578.712,496665.014,8,400,,,
trial,html.Screen,4_16_0,2023-09-08T17:52:12.563Z,,0,1,,8530.485999999975,response,ISIC_0239178.JPG,5,ISIC_0029157.JPG,ISIC_0029157.JPG,false,0,keypress(z),500,505195.59999990463,505195.5,496648.167,496714.2999999523,496665.014,505148.081,8,400,17,,ISIC_0239178.JPG
break,html.Screen,4_16_1,2023-09-08T17:52:12.563Z,,0,,,NaN,,,,,,false,,,,505196,505196,,505195.69999980927,,505148.081,8,400,,,
break_continue,html.Screen,4_16_2,2023-09-08T17:52:12.563Z,,0,,,NaN,,,,,,false,,,,505196.19999980927,505196.19999980927,,505196,,505148.081,8,400,,,
sequence,flow.Sequence,4_16,2023-09-08T17:52:12.563Z,,0,,,8531.18599980924,completion,,,,,false,,,,505196.2999999523,505196.19999980927,496648.167,496714.19999980927,496665.014,505148.081,8,400,,,
trial,html.Screen,4_17_0,2023-09-08T17:52:20.539Z,,0,1,,8023.61899980926,response,ISIC_6806545.JPG,4,ISIC_4026019.JPG,ISIC_6806545.JPG,false,1,keypress(m),500,513171.7999999523,513171.69999980927,505131.484,505196.2999999523,505148.081,513130.34,8,400,18,,ISIC_4026019.JPG
break,html.Screen,4_17_1,2023-09-08T17:52:20.539Z,,0,,,NaN,,,,,,false,,,,513172.19999980927,513172,,513171.7999999523,,513130.34,8,400,,,
break_continue,html.Screen,4_17_2,2023-09-08T17:52:20.539Z,,0,,,NaN,,,,,,false,,,,513172.5,513172.39999985695,,513172.39999985695,,513130.34,8,400,,,
sequence,flow.Sequence,4_17,2023-09-08T17:52:20.540Z,,0,,,8024.318999856943,completion,,,,,false,,,,513172.59999990463,513172.39999985695,505131.484,505196.2999999523,505148.081,513130.34,8,400,,,
trial,html.Screen,4_18_0,2023-09-08T17:52:30.798Z,,0,1,,10300.559999856923,response,ISIC_0003159.JPG,5,ISIC_0239949.JPG,ISIC_0239949.JPG,false,0,keypress(z),500,523431,523430.89999985695,513113.495,513172.69999980927,513130.34,523383.569,8,400,19,,ISIC_0003159.JPG
break,html.Screen,4_18_1,2023-09-08T17:52:30.799Z,,0,,,NaN,,,,,,false,,,,523431.69999980927,523431.59999990463,,523431.2999999523,,523383.569,8,400,,,
break_continue,html.Screen,4_18_2,2023-09-08T17:52:30.799Z,,0,,,NaN,,,,,,false,,,,523432.19999980927,523432.09999990463,,523431.89999985695,,523383.569,8,400,,,
sequence,flow.Sequence,4_18,2023-09-08T17:52:30.799Z,,0,,,10301.759999904607,completion,,,,,false,,,,523432.39999985695,523432.09999990463,513113.495,513172.69999980927,513130.34,523383.569,8,400,,,
trial,html.Screen,4_19_0,2023-09-08T17:52:37.527Z,,0,1,,6776.530999904615,response,ISIC_6882582.JPG,5,ISIC_6027459.JPG,ISIC_6027459.JPG,false,0,keypress(z),500,530160.2999999523,530160.0999999046,523366.92,523432.39999985695,523383.569,530130.028,8,400,20,,ISIC_6882582.JPG
break,html.Screen,4_19_1,2023-09-08T17:52:37.528Z,,0,,,NaN,,,,,,false,,,,530161,530160.7999999523,,530160.5,,530130.028,8,400,,,
break_continue,html.Screen,4_19_2,2023-09-08T17:52:37.528Z,,0,,,NaN,,,,,,false,,,,530161.399999857,530161.2999999523,,530161.1999998093,,530130.028,8,400,,,
sequence,flow.Sequence,4_19,2023-09-08T17:52:37.528Z,,0,,,6777.730999952299,completion,,,,,false,,,,530161.5,530161.2999999523,523366.92,523432.39999985695,523383.569,530130.028,8,400,,,
trial,html.Screen,4_20_0,2023-09-08T17:52:48.655Z,,0,1,,11158.271999952267,response,ISIC_0012059.JPG,5,ISIC_0064823.JPG,ISIC_0012059.JPG,false,1,keypress(m),500,541288.399999857,541288.2999999523,530113.398,530161.6999998093,530130.028,541234.903,8,400,21,,ISIC_0064823.JPG
break,html.Screen,4_20_1,2023-09-08T17:52:48.656Z,,0,,,NaN,,,,,,false,,,,541288.7999999523,541288.6999998093,,541288.5,,541234.903,8,400,,,
break_continue,html.Screen,4_20_2,2023-09-08T17:52:48.656Z,,0,,,NaN,,,,,,false,,,,541289,541289,,541288.7999999523,,541234.903,8,400,,,
sequence,flow.Sequence,4_20,2023-09-08T17:52:48.656Z,,0,,,11158.97199999995,completion,,,,,false,,,,541289.0999999046,541289,530113.398,530161.6999998093,530130.028,541234.903,8,400,,,
trial,html.Screen,4_21_0,2023-09-08T17:52:55.270Z,,0,1,,6667.896999952267,response,ISIC_8609756.JPG,5,ISIC_7301963.JPG,ISIC_7301963.JPG,false,0,keypress(z),500,547902.7999999523,547902.7999999523,541218.287,541289.1999998093,541234.903,547847.787,8,400,22,,ISIC_8609756.JPG
break,html.Screen,4_21_1,2023-09-08T17:52:55.270Z,,0,,,NaN,,,,,,false,,,,547903.2999999523,547903.1999998093,,547903.0999999046,,547847.787,8,400,,,
break_continue,html.Screen,4_21_2,2023-09-08T17:52:55.270Z,,0,,,NaN,,,,,,false,,,,547903.5,547903.5,,547903.399999857,,547847.787,8,400,,,
sequence,flow.Sequence,4_21,2023-09-08T17:52:55.270Z,,0,,,6668.596999999951,completion,,,,,false,,,,547903.6999998093,547903.5,541218.287,541289.1999998093,541234.903,547847.787,8,400,,,
trial,html.Screen,4_22_0,2023-09-08T17:53:02.968Z,,0,1,,7753.112999856938,response,ISIC_0067296.JPG,5,ISIC_0032774.JPG,ISIC_0067296.JPG,false,1,keypress(m),500,555601,555600.899999857,547831.134,547903.899999857,547847.787,555546.062,8,400,23,,ISIC_0032774.JPG
break,html.Screen,4_22_1,2023-09-08T17:53:02.968Z,,0,,,NaN,,,,,,false,,,,555601.399999857,555601.2999999523,,555601.0999999046,,555546.062,8,400,,,
break_continue,html.Screen,4_22_2,2023-09-08T17:53:02.969Z,,0,,,NaN,,,,,,false,,,,555601.7999999523,555601.6999998093,,555601.5999999046,,555546.062,8,400,,,
sequence,flow.Sequence,4_22,2023-09-08T17:53:02.969Z,,0,,,7753.912999809254,completion,,,,,false,,,,555601.7999999523,555601.6999998093,547831.134,547903.7999999523,547847.787,555546.062,8,400,,,
trial,html.Screen,4_23_0,2023-09-08T17:53:11.536Z,,0,1,,8622.837999856914,response,ISIC_7296201.JPG,5,ISIC_9640145.JPG,ISIC_9640145.JPG,false,0,keypress(z),500,564169,564168.899999857,555529.397,555601.7999999523,555546.062,564129.614,8,400,24,,ISIC_7296201.JPG
break,html.Screen,4_23_1,2023-09-08T17:53:11.537Z,,0,,,NaN,,,,,,false,,,,564169.7999999523,564169.5999999046,,564169.2999999523,,564129.614,8,400,,,
break_continue,html.Screen,4_23_2,2023-09-08T17:53:11.537Z,,0,,,NaN,,,,,,false,,,,564170.0999999046,564170,,564169.899999857,,564129.614,8,400,,,
sequence,flow.Sequence,4_23,2023-09-08T17:53:11.537Z,,0,,,8623.937999999966,completion,,,,,false,,,,564170.1999998093,564170,555529.397,555601.7999999523,555546.062,564129.614,8,400,,,
trial,html.Screen,4_24_0,2023-09-08T17:53:20.883Z,,0,1,,9386.386000000057,response,ISIC_0032892.JPG,5,ISIC_0030913.JPG,ISIC_0032892.JPG,false,1,keypress(m),500,573516.0999999046,573516,564112.784,564170.2999999523,564129.614,573464.348,8,400,25,,ISIC_0030913.JPG
break,html.Screen,4_24_1,2023-09-08T17:53:20.883Z,,0,,,NaN,,,,,,false,,,,573516.5,573516.399999857,,573516.2999999523,,573464.348,8,400,,,
break_continue,html.Screen,4_24_2,2023-09-08T17:53:20.884Z,,0,,,NaN,,,,,,false,,,,573516.7999999523,573516.5999999046,,573516.5999999046,,573464.348,8,400,,,
sequence,flow.Sequence,4_24,2023-09-08T17:53:20.884Z,,0,,,9386.98599990469,completion,,,,,false,,,,573516.899999857,573516.5999999046,564112.784,564170.2999999523,564129.614,573464.348,8,400,,,
trial,html.Screen,4_25_0,2023-09-08T17:53:32.377Z,,0,1,,11522.378999999957,timeout,ISIC_9978498.JPG,5,ISIC_7724635.JPG,ISIC_7724635.JPG,false,,,500,585010.2999999523,585010.0999999046,573447.577,573517,573464.348,584986.727,8,400,26,,ISIC_9978498.JPG
break,html.Screen,4_25_1,2023-09-08T17:53:32.378Z,,0,,,NaN,,,,,,false,,,,585011,585010.7999999523,,585010.5999999046,,584986.727,8,400,,,
break_continue,html.Screen,4_25_2,2023-09-08T17:53:32.378Z,,0,,,NaN,,,,,,false,,,,585011.2999999523,585011.1999998093,,585011.0999999046,,584986.727,8,400,,,
sequence,flow.Sequence,4_25,2023-09-08T17:53:32.378Z,,0,,,11546.851999809267,completion,,,,,false,,,,585011.399999857,585011.1999998093,573447.577,573516.899999857,573464.348,584986.727,8,400,,,
trial,html.Screen,4_25_0,2023-09-08T17:53:32.411Z,,0,1,,11579.951999952318,response,ISIC_9978498.JPG,5,ISIC_7724635.JPG,ISIC_7724635.JPG,false,0,keypress(z),500,585044.5,585044.2999999523,573447.577,573517,573464.348,,8,400,26,,ISIC_9978498.JPG
trial,html.Screen,4_26_0,2023-09-08T17:53:40.529Z,,0,1,,8175.372999904677,response,ISIC_8139762.JPG,5,ISIC_0031377.JPG,ISIC_0031377.JPG,false,0,keypress(z),500,593162.1999998093,593162.0999999046,584970.05,585011.5,584986.727,593119.273,8,400,27,,ISIC_8139762.JPG
break,html.Screen,4_26_1,2023-09-08T17:53:40.529Z,,0,,,NaN,,,,,,false,,,,593162.5,593162.399999857,,593162.2999999523,,593119.273,8,400,,,
break_continue,html.Screen,4_26_2,2023-09-08T17:53:40.529Z,,0,,,NaN,,,,,,false,,,,593162.5999999046,593162.5999999046,,593162.5,,593119.273,8,400,,,
sequence,flow.Sequence,4_26,2023-09-08T17:53:40.529Z,,0,,,8175.872999904677,completion,,,,,false,,,,593162.6999998093,593162.5999999046,584970.05,585011.5,584986.727,593119.273,8,400,,,
trial,html.Screen,4_27_0,2023-09-08T17:53:48.243Z,,0,1,,7756.726999999955,response,ISIC_5881453.JPG,5,ISIC_3926019.JPG,ISIC_5881453.JPG,false,1,keypress(m),500,600876.0999999046,600876,593102.518,593162.6999998093,593119.273,600834.293,8,400,28,,ISIC_3926019.JPG
break,html.Screen,4_27_1,2023-09-08T17:53:48.243Z,,0,,,NaN,,,,,,false,,,,600876.399999857,600876.399999857,,600876.1999998093,,600834.293,8,400,,,
break_continue,html.Screen,4_27_2,2023-09-08T17:53:48.243Z,,0,,,NaN,,,,,,false,,,,600876.5,600876.5,,600876.5,,600834.293,8,400,,,
sequence,flow.Sequence,4_27,2023-09-08T17:53:48.243Z,,0,,,7757.226999999955,completion,,,,,false,,,,600876.5999999046,600876.5,593102.518,593162.6999998093,593119.273,600834.293,8,400,,,
trial,html.Screen,4_28_0,2023-09-08T17:53:58.394Z,,0,1,,10191.00699995237,response,ISIC_6663112.JPG,5,ISIC_0029163.JPG,ISIC_0029163.JPG,false,0,keypress(z),500,611025.5,611025.2999999523,600817.714,600876.6999998093,600834.293,610970.582,8,400,29,,ISIC_6663112.JPG
break,html.Screen,4_28_1,2023-09-08T17:53:58.394Z,,0,,,NaN,,,,,,false,,,,611026.1999998093,611026.0999999046,,611025.7999999523,,610970.582,8,400,,,
break_continue,html.Screen,4_28_2,2023-09-08T17:53:58.395Z,,0,,,NaN,,,,,,false,,,,611026.5,611026.399999857,,611026.399999857,,610970.582,8,400,,,
sequence,flow.Sequence,4_28,2023-09-08T17:53:58.395Z,,0,,,10192.106999857002,completion,,,,,false,,,,611026.6999998093,611026.399999857,600817.714,600876.6999998093,600834.293,610970.582,8,400,,,
trial,html.Screen,4_29_0,2023-09-08T17:54:06.445Z,,0,1,,8106.0179999045795,response,ISIC_0000420.JPG,5,ISIC_3993510.JPG,ISIC_3993510.JPG,false,0,keypress(z),500,619076.7999999523,619076.5999999046,610953.854,611026.6999998093,610970.582,619036.348,8,400,30,,ISIC_0000420.JPG
break,html.Screen,4_29_1,2023-09-08T17:54:06.445Z,,0,,,NaN,,,,,,false,,,,619077.2999999523,619077.1999998093,,619076.899999857,,619036.348,8,400,,,
break_continue,html.Screen,4_29_2,2023-09-08T17:54:06.446Z,,0,,,NaN,,,,,,false,,,,619077.5,619077.5,,619077.399999857,,619036.348,8,400,,,
sequence,flow.Sequence,4_29,2023-09-08T17:54:06.446Z,,0,,,8106.917999999947,completion,,,,,false,,,,619077.6999998093,619077.5,610953.854,611026.6999998093,610970.582,619036.348,8,400,,,
trial,html.Screen,4_30_0,2023-09-08T17:54:16.704Z,,0,1,,10299.851999809267,response,ISIC_6497135.JPG,6,ISIC_0010580.JPG,ISIC_0010580.JPG,false,0,keypress(z),500,629336.399999857,629336.1999998093,619019.761,619077.7999999523,619036.348,629289.587,8,400,31,,ISIC_6497135.JPG
break,html.Screen,4_30_1,2023-09-08T17:54:16.705Z,,0,,,NaN,,,,,,false,,,,629336.7999999523,629336.5999999046,,629336.5,,629289.587,8,400,,,
break_continue,html.Screen,4_30_2,2023-09-08T17:54:16.705Z,,0,,,NaN,,,,,,false,,,,629337,629337,,629336.899999857,,629289.587,8,400,,,
sequence,flow.Sequence,4_30,2023-09-08T17:54:16.705Z,,0,,,10300.652000000002,completion,,,,,false,,,,629337.0999999046,629337,619019.761,619077.7999999523,619036.348,629289.587,8,400,,,
trial,html.Screen,4_31_0,2023-09-08T17:54:25.522Z,,0,1,,8864.412999999942,response,ISIC_4132082.JPG,6,ISIC_0031621.JPG,ISIC_0031621.JPG,false,0,keypress(z),500,638154.0999999046,638154,629272.947,629337.0999999046,629289.587,638106.842,8,400,32,,ISIC_4132082.JPG
break,html.Screen,4_31_1,2023-09-08T17:54:25.523Z,,0,,,NaN,,,,,,false,,,,638154.399999857,638154.399999857,,638154.1999998093,,638106.842,8,400,,,
break_continue,html.Screen,4_31_2,2023-09-08T17:54:25.523Z,,0,,,NaN,,,,,,false,,,,638154.5999999046,638154.5999999046,,638154.5,,638106.842,8,400,,,
sequence,flow.Sequence,4_31,2023-09-08T17:54:25.523Z,,0,,,8865.012999904575,completion,,,,,false,,,,638154.6999998093,638154.5999999046,629272.947,629337.0999999046,629289.587,638106.842,8,400,,,
trial,html.Screen,4_32_0,2023-09-08T17:54:33.381Z,,0,1,,7905.45799995237,response,ISIC_1202976.JPG,5,ISIC_8095877.JPG,ISIC_8095877.JPG,false,0,keypress(z),500,646012.5999999046,646012.2999999523,638090.069,638154.7999999523,638106.842,645988.884,8,400,33,,ISIC_1202976.JPG
break,html.Screen,4_32_1,2023-09-08T17:54:33.382Z,,0,,,NaN,,,,,,false,,,,646014,646013.5999999046,,646012.899999857,,645988.884,8,400,,,
break_continue,html.Screen,4_32_2,2023-09-08T17:54:33.383Z,,0,,,NaN,,,,,,false,,,,646014.6999998093,646014.399999857,,646014.1999998093,,645988.884,8,400,,,
sequence,flow.Sequence,4_32,2023-09-08T17:54:33.383Z,,0,,,7907.557999857003,completion,,,,,false,,,,646014.899999857,646014.399999857,638090.069,638154.7999999523,638106.842,645988.884,8,400,,,
trial,html.Screen,4_33_0,2023-09-08T17:54:41.657Z,,0,1,,8299.815999809303,response,ISIC_3503213.JPG,5,ISIC_0057556.JPG,ISIC_0057556.JPG,false,0,keypress(z),500,654288.7999999523,654288.6999998093,645972.074,646015.0999999046,645988.884,654238.203,8,400,34,,ISIC_3503213.JPG
break,html.Screen,4_33_1,2023-09-08T17:54:41.657Z,,0,,,NaN,,,,,,false,,,,654289.1999998093,654289.0999999046,,654289,,654238.203,8,400,,,
break_continue,html.Screen,4_33_2,2023-09-08T17:54:41.658Z,,0,,,NaN,,,,,,false,,,,654289.399999857,654289.399999857,,654289.2999999523,,654238.203,8,400,,,
sequence,flow.Sequence,4_33,2023-09-08T17:54:41.658Z,,0,,,8300.515999856987,completion,,,,,false,,,,654289.5999999046,654289.399999857,645972.074,646015.0999999046,645988.884,654238.203,8,400,,,
trial,html.Screen,4_34_0,2023-09-08T17:54:50.027Z,,0,1,,8420.896999904653,response,ISIC_0054705.JPG,6,ISIC_9171071.JPG,ISIC_0054705.JPG,false,1,keypress(m),500,662659.0999999046,662659.0999999046,654221.47,654289.5999999046,654238.203,662604.392,8,400,35,,ISIC_9171071.JPG
break,html.Screen,4_34_1,2023-09-08T17:54:50.028Z,,0,,,NaN,,,,,,false,,,,662659.6999998093,662659.5,,662659.2999999523,,662604.392,8,400,,,
break_continue,html.Screen,4_34_2,2023-09-08T17:54:50.028Z,,0,,,NaN,,,,,,false,,,,662660,662659.7999999523,,662659.6999998093,,662604.392,8,400,,,
sequence,flow.Sequence,4_34,2023-09-08T17:54:50.028Z,,0,,,8421.596999952337,completion,,,,,false,,,,662660.0999999046,662659.7999999523,654221.47,654289.5999999046,654238.203,662604.392,8,400,,,
trial,html.Screen,4_35_0,2023-09-08T17:54:59.023Z,,0,1,,9049.807999809273,response,ISIC_0053513.JPG,6,ISIC_6606767.JPG,ISIC_0053513.JPG,false,1,keypress(m),500,671654.399999857,671654.1999998093,662587.694,662660.5,662604.392,671605.277,8,400,36,,ISIC_6606767.JPG
break,html.Screen,4_35_1,2023-09-08T17:54:59.023Z,,0,,,NaN,,,,,,false,,,,671654.6999998093,671654.5999999046,,671654.399999857,,671605.277,8,400,,,
break_continue,html.Screen,4_35_2,2023-09-08T17:54:59.023Z,,0,,,NaN,,,,,,false,,,,671654.7999999523,671654.7999999523,,671654.6999998093,,671605.277,8,400,,,
sequence,flow.Sequence,4_35,2023-09-08T17:54:59.023Z,,0,,,9050.407999952324,completion,,,,,false,,,,671654.899999857,671654.7999999523,662587.694,662660.399999857,662604.392,671605.277,8,400,,,
trial,html.Screen,4_36_0,2023-09-08T17:55:08.279Z,,0,1,,9305.32299990463,response,ISIC_6231450.JPG,4,ISIC_9059311.JPG,ISIC_9059311.JPG,false,0,keypress(z),500,680910.6999998093,680910.5999999046,671588.743,671654.899999857,671605.277,680856.596,8,400,37,,ISIC_6231450.JPG
break,html.Screen,4_36_1,2023-09-08T17:55:08.280Z,,0,,,NaN,,,,,,false,,,,680911.2999999523,680911,,680910.7999999523,,680856.596,8,400,,,
break_continue,html.Screen,4_36_2,2023-09-08T17:55:08.280Z,,0,,,NaN,,,,,,false,,,,680911.5999999046,680911.5,,680911.5,,680856.596,8,400,,,
sequence,flow.Sequence,4_36,2023-09-08T17:55:08.280Z,,0,,,9306.222999999998,completion,,,,,false,,,,680911.6999998093,680911.5,671588.743,671654.899999857,671605.277,680856.596,8,400,,,
trial,html.Screen,4_37_0,2023-09-08T17:55:15.497Z,,0,1,,7272.103999809246,response,ISIC_0064633.JPG,5,ISIC_0026296.JPG,ISIC_0064633.JPG,false,1,keypress(m),500,688128.899999857,688128.6999998093,680839.937,680911.7999999523,680856.596,688087.349,8,400,38,,ISIC_0026296.JPG
break,html.Screen,4_37_1,2023-09-08T17:55:15.498Z,,0,,,NaN,,,,,,false,,,,688129.2999999523,688129.1999998093,,688129.0999999046,,688087.349,8,400,,,
break_continue,html.Screen,4_37_2,2023-09-08T17:55:15.498Z,,0,,,NaN,,,,,,false,,,,688129.399999857,688129.399999857,,688129.399999857,,688087.349,8,400,,,
sequence,flow.Sequence,4_37,2023-09-08T17:55:15.498Z,,0,,,7272.803999856929,completion,,,,,false,,,,688129.5,688129.399999857,680839.937,680911.6999998093,680856.596,688087.349,8,400,,,
trial,html.Screen,4_38_0,2023-09-08T17:55:23.500Z,,0,1,,8043.950999952271,response,ISIC_0027561.JPG,5,ISIC_1988080.JPG,ISIC_0027561.JPG,false,1,keypress(m),500,696131.2999999523,696131.2999999523,688070.639,688129.5999999046,688087.349,696086.191,8,400,39,,ISIC_1988080.JPG
break,html.Screen,4_38_1,2023-09-08T17:55:23.500Z,,0,,,NaN,,,,,,false,,,,696131.7999999523,696131.5999999046,,696131.5,,696086.191,8,400,,,
break_continue,html.Screen,4_38_2,2023-09-08T17:55:23.501Z,,0,,,NaN,,,,,,false,,,,696132.0999999046,696132,,696131.899999857,,696086.191,8,400,,,
sequence,flow.Sequence,4_38,2023-09-08T17:55:23.501Z,,0,,,8044.650999999954,completion,,,,,false,,,,696132.1999998093,696132,688070.639,688129.5999999046,688087.349,696086.191,8,400,,,
trial,html.Screen,4_39_0,2023-09-08T17:55:32.110Z,,0,1,,8655.208999856957,response,ISIC_0014108.JPG,5,ISIC_0010971.JPG,ISIC_0010971.JPG,false,0,keypress(z),500,704741.5,704741.399999857,696069.611,696132.1999998093,696086.191,704703.24,8,400,40,,ISIC_0014108.JPG
break,html.Screen,4_39_1,2023-09-08T17:55:32.111Z,,0,,,NaN,,,,,,false,,,,704742,704741.7999999523,,704741.6999998093,,704703.24,8,400,,,
break_continue,html.Screen,4_39_2,2023-09-08T17:55:32.111Z,,0,,,NaN,,,,,,false,,,,704742.1999998093,704742.1999998093,,704742.0999999046,,704703.24,8,400,,,
sequence,flow.Sequence,4_39,2023-09-08T17:55:32.111Z,,0,,,8656.008999809274,completion,,,,,false,,,,704742.1999998093,704742.1999998093,696069.611,696132.1999998093,696086.191,704703.24,8,400,,,
trial,html.Screen,4_40_0,2023-09-08T17:55:39.859Z,,0,1,,7787.359999904642,response,ISIC_0067830.JPG,5,ISIC_0295323.JPG,ISIC_0067830.JPG,false,1,keypress(m),500,712490.899999857,712490.5999999046,704686.332,704742.2999999523,704703.24,712451.412,8,400,41,,ISIC_0295323.JPG
break,html.Screen,4_40_1,2023-09-08T17:55:39.860Z,,0,,,NaN,,,,,,false,,,,712491.7999999523,712491.5,,712491.1999998093,,712451.412,8,400,,,
break_continue,html.Screen,4_40_2,2023-09-08T17:55:39.861Z,,0,,,NaN,,,,,,false,,,,712492.2999999523,712492.1999998093,,712491.899999857,,712451.412,8,400,,,
sequence,flow.Sequence,4_40,2023-09-08T17:55:39.861Z,,0,,,7788.959999809274,completion,,,,,false,,,,712492.5,712492.1999998093,704686.332,704742.2999999523,704703.24,712451.412,8,400,,,
trial,html.Screen,4_41_0,2023-09-08T17:55:48.713Z,,0,1,,8892.787999809254,response,ISIC_0013844.JPG,6,ISIC_7900295.JPG,ISIC_0013844.JPG,false,1,keypress(m),500,721344.2999999523,721344.1999998093,712434.711,712492.899999857,712451.412,721301.94,8,400,42,,ISIC_7900295.JPG
break,html.Screen,4_41_1,2023-09-08T17:55:48.713Z,,0,,,NaN,,,,,,false,,,,721344.899999857,721344.7999999523,,721344.5,,721301.94,8,400,,,
break_continue,html.Screen,4_41_2,2023-09-08T17:55:48.714Z,,0,,,NaN,,,,,,false,,,,721345.0999999046,721345,,721345,,721301.94,8,400,,,
sequence,flow.Sequence,4_41,2023-09-08T17:55:48.714Z,,0,,,8893.587999999989,completion,,,,,false,,,,721345.1999998093,721345,712434.711,712492.7999999523,712451.412,721301.94,8,400,,,
trial,html.Screen,4_42_0,2023-09-08T17:55:55.885Z,,0,1,,7213.859999952372,response,ISIC_0032233.JPG,4,ISIC_1046678.JPG,ISIC_1046678.JPG,false,0,keypress(z),500,728515.899999857,728515.7999999523,721285.296,721345.7999999523,721301.94,728465.902,8,400,43,,ISIC_0032233.JPG
break,html.Screen,4_42_1,2023-09-08T17:55:55.885Z,,0,,,NaN,,,,,,false,,,,728516.2999999523,728516.1999998093,,728516,,728465.902,8,400,,,
break_continue,html.Screen,4_42_2,2023-09-08T17:55:55.886Z,,0,,,NaN,,,,,,false,,,,728516.5999999046,728516.5,,728516.399999857,,728465.902,8,400,,,
sequence,flow.Sequence,4_42,2023-09-08T17:55:55.886Z,,0,,,7214.560000000056,completion,,,,,false,,,,728516.6999998093,728516.5,721285.296,721345.7999999523,721301.94,728465.902,8,400,,,
trial,html.Screen,4_43_0,2023-09-08T17:56:01.992Z,,0,1,,6156.497999856947,response,ISIC_0057702.JPG,6,ISIC_6496765.JPG,ISIC_6496765.JPG,false,0,keypress(z),500,734622.5999999046,734622.399999857,728449.439,728516.6999998093,728465.902,734577.896,8,400,44,,ISIC_0057702.JPG
break,html.Screen,4_43_1,2023-09-08T17:56:01.992Z,,0,,,NaN,,,,,,false,,,,734622.7999999523,734622.6999998093,,734622.5999999046,,734577.896,8,400,,,
break_continue,html.Screen,4_43_2,2023-09-08T17:56:01.992Z,,0,,,NaN,,,,,,false,,,,734622.899999857,734622.899999857,,734622.899999857,,734577.896,8,400,,,
sequence,flow.Sequence,4_43,2023-09-08T17:56:01.992Z,,0,,,6156.997999856947,completion,,,,,false,,,,734623,734622.899999857,728449.439,728516.6999998093,728465.902,734577.896,8,400,,,
trial,html.Screen,4_44_0,2023-09-08T17:56:10.234Z,,0,1,,8286.403999952367,response,ISIC_9406275.JPG,5,ISIC_0008162.JPG,ISIC_9406275.JPG,false,1,keypress(m),500,742864.5999999046,742864.2999999523,734561.141,734623.0999999046,734577.896,742810.591,8,400,45,,ISIC_0008162.JPG
break,html.Screen,4_44_1,2023-09-08T17:56:10.235Z,,0,,,NaN,,,,,,false,,,,742865.399999857,742865.1999998093,,742864.7999999523,,742810.591,8,400,,,
break_continue,html.Screen,4_44_2,2023-09-08T17:56:10.235Z,,0,,,NaN,,,,,,false,,,,742865.7999999523,742865.6999998093,,742865.5999999046,,742810.591,8,400,,,
sequence,flow.Sequence,4_44,2023-09-08T17:56:10.235Z,,0,,,8287.803999809315,completion,,,,,false,,,,742866.0999999046,742865.6999998093,734561.141,734623,734577.896,742810.591,8,400,,,
trial,html.Screen,4_45_0,2023-09-08T17:56:21.725Z,,0,1,,11522.437000000034,timeout,ISIC_1851605.JPG,4,ISIC_0003851.JPG,,false,,,500,754356.0999999046,754356,742793.757,742866.2999999523,742810.591,754333.028,8,400,46,,
break,html.Screen,4_45_1,2023-09-08T17:56:21.726Z,,0,,,NaN,,,,,,false,,,,754356.399999857,754356.2999999523,,754356.2999999523,,754333.028,8,400,,,
break_continue,html.Screen,4_45_2,2023-09-08T17:56:21.726Z,,0,,,NaN,,,,,,false,,,,754356.5999999046,754356.5,,754356.5,,754333.028,8,400,,,
sequence,flow.Sequence,4_45,2023-09-08T17:56:21.726Z,,0,,,11545.908999999985,completion,,,,,false,,,,754356.5999999046,754356.5,742793.757,742866.1999998093,742810.591,754333.028,8,400,,,
trial,html.Screen,4_46_0,2023-09-08T17:56:29.935Z,,0,1,,8232.97199999995,response,ISIC_2740756.JPG,5,ISIC_0059948.JPG,ISIC_0059948.JPG,false,0,keypress(z),500,762566.1999998093,762566,754316.32,754356.6999998093,754333.028,762515.553,8,400,47,,ISIC_2740756.JPG
break,html.Screen,4_46_1,2023-09-08T17:56:29.936Z,,0,,,NaN,,,,,,false,,,,762566.899999857,762566.6999998093,,762566.399999857,,762515.553,8,400,,,
break_continue,html.Screen,4_46_2,2023-09-08T17:56:29.936Z,,0,,,NaN,,,,,,false,,,,762567.1999998093,762567.0999999046,,762567,,762515.553,8,400,,,
sequence,flow.Sequence,4_46,2023-09-08T17:56:29.937Z,,0,,,8234.071999904583,completion,,,,,false,,,,762567.399999857,762567.0999999046,754316.32,754356.6999998093,754333.028,762515.553,8,400,,,
trial,html.Screen,4_47_0,2023-09-08T17:56:37.175Z,,0,1,,7290.24699995236,response,ISIC_9989936.JPG,6,ISIC_8077943.JPG,ISIC_9989936.JPG,false,1,keypress(m),500,769805.7999999523,769805.7999999523,762499.03,762567.5999999046,762515.553,769763.029,8,400,48,,ISIC_8077943.JPG
break,html.Screen,4_47_1,2023-09-08T17:56:37.175Z,,0,,,NaN,,,,,,false,,,,769806.0999999046,769806.0999999046,,769806,,769763.029,8,400,,,
break_continue,html.Screen,4_47_2,2023-09-08T17:56:37.175Z,,0,,,NaN,,,,,,false,,,,769806.2999999523,769806.2999999523,,769806.1999998093,,769763.029,8,400,,,
sequence,flow.Sequence,4_47,2023-09-08T17:56:37.176Z,,0,,,7290.74699995236,completion,,,,,false,,,,769806.399999857,769806.2999999523,762499.03,762567.5,762515.553,769763.029,8,400,,,
trial,html.Screen,4_48_0,2023-09-08T17:56:44.960Z,,0,1,,7827.97100000002,response,ISIC_0033287.JPG,5,ISIC_0012048.JPG,ISIC_0012048.JPG,false,0,keypress(z),500,777591.0999999046,777591,769746.24,769806.5,769763.029,777544.874,8,400,49,,ISIC_0033287.JPG
break,html.Screen,4_48_1,2023-09-08T17:56:44.961Z,,0,,,NaN,,,,,,false,,,,777591.5,777591.2999999523,,777591.1999998093,,777544.874,8,400,,,
break_continue,html.Screen,4_48_2,2023-09-08T17:56:44.961Z,,0,,,NaN,,,,,,false,,,,777591.5999999046,777591.5,,777591.5,,777544.874,8,400,,,
sequence,flow.Sequence,4_48,2023-09-08T17:56:44.961Z,,0,,,7828.47100000002,completion,,,,,false,,,,777591.6999998093,777591.5,769746.24,769806.5,769763.029,777544.874,8,400,,,
trial,html.Screen,4_49_0,2023-09-08T17:56:51.379Z,,0,1,,6464.325999809313,response,ISIC_2396791.JPG,6,ISIC_0070246.JPG,ISIC_0070246.JPG,false,0,keypress(z),500,784009.399999857,784009.1999998093,777528.049,777591.6999998093,777544.874,783957.343,8,400,50,,ISIC_2396791.JPG
break,html.Screen,4_49_1,2023-09-08T17:57:01.370Z,,0,,,10002.804000000004,timeout,,,,,false,,,,794000.0999999046,793943.449,783940.654,784009.399999857,783957.343,793960.147,8,400,,,
break_continue,html.Screen,4_49_2,2023-09-08T17:57:15.619Z,,0,,,14266.552999809268,response,,,,,false,continue,keypress(Space),,808249.0999999046,808226.6999998093,793943.449,794000.0999999046,793960.147,808221.22,8,400,,,
sequence,flow.Sequence,4_49,2023-09-08T17:57:15.619Z,,0,,,30681.825999809313,completion,,,,,false,,,,808249.1999998093,808226.6999998093,777528.049,777591.6999998093,777544.874,808221.22,8,400,,,
trial,html.Screen,4_50_0,2023-09-08T17:57:21.652Z,,0,2,,6061.179999856977,response,ISIC_7212271.JPG,6,ISIC_2974214.JPG,ISIC_7212271.JPG,false,1,keypress(m),500,814282.399999857,814282.399999857,808204.437,808249.2999999523,808221.22,814232.958,8,400,1,,ISIC_2974214.JPG
break,html.Screen,4_50_1,2023-09-08T17:57:21.653Z,,0,,,NaN,,,,,,false,,,,814282.7999999523,814282.6999998093,,814282.5999999046,,814232.958,8,400,,,
break_continue,html.Screen,4_50_2,2023-09-08T17:57:21.653Z,,0,,,NaN,,,,,,false,,,,814283,814282.899999857,,814282.899999857,,814232.958,8,400,,,
sequence,flow.Sequence,4_50,2023-09-08T17:57:21.653Z,,0,,,6061.679999856977,completion,,,,,false,,,,814283.0999999046,814282.899999857,808204.437,808249.2999999523,808221.22,814232.958,8,400,,,
trial,html.Screen,4_51_0,2023-09-08T17:57:28.247Z,,0,2,,6643.841999952332,response,ISIC_8796456.JPG,6,ISIC_0026160.JPG,ISIC_0026160.JPG,false,0,keypress(z),500,820876.899999857,820876.7999999523,814216.151,814283.1999998093,814232.958,820829.039,8,400,2,,ISIC_8796456.JPG
break,html.Screen,4_51_1,2023-09-08T17:57:28.247Z,,0,,,NaN,,,,,,false,,,,820877.399999857,820877.2999999523,,820877.0999999046,,820829.039,8,400,,,
break_continue,html.Screen,4_51_2,2023-09-08T17:57:28.247Z,,0,,,NaN,,,,,,false,,,,820877.7999999523,820877.6999998093,,820877.5999999046,,820829.039,8,400,,,
sequence,flow.Sequence,4_51,2023-09-08T17:57:28.248Z,,0,,,6644.741999809281,completion,,,,,false,,,,820877.7999999523,820877.6999998093,814216.151,814283.1999998093,814232.958,820829.039,8,400,,,
trial,html.Screen,4_52_0,2023-09-08T17:57:33.754Z,,0,2,,5555.46100000001,response,ISIC_4141315.JPG,5,ISIC_0254447.JPG,ISIC_4141315.JPG,false,1,keypress(m),500,826384.6999998093,826384.5,820812.299,820877.899999857,820829.039,826339.783,8,400,3,,ISIC_0254447.JPG
break,html.Screen,4_52_1,2023-09-08T17:57:33.755Z,,0,,,NaN,,,,,,false,,,,826385,826384.899999857,,826384.7999999523,,826339.783,8,400,,,
break_continue,html.Screen,4_52_2,2023-09-08T17:57:33.755Z,,0,,,NaN,,,,,,false,,,,826385.399999857,826385.2999999523,,826385.1999998093,,826339.783,8,400,,,
sequence,flow.Sequence,4_52,2023-09-08T17:57:33.755Z,,0,,,5556.2609999523265,completion,,,,,false,,,,826385.5999999046,826385.2999999523,820812.299,820877.899999857,820829.039,826339.783,8,400,,,
trial,html.Screen,4_53_0,2023-09-08T17:57:42.061Z,,0,2,,8351.616999856895,response,ISIC_7477006.JPG,6,ISIC_8725878.JPG,ISIC_7477006.JPG,false,1,keypress(m),500,834691.6999998093,834691.399999857,826323.139,826385.6999998093,826339.783,834639.257,8,400,4,,ISIC_8725878.JPG
break,html.Screen,4_53_1,2023-09-08T17:57:42.063Z,,0,,,NaN,,,,,,false,,,,834693.399999857,834692.7999999523,,834692.2999999523,,834639.257,8,400,,,
break_continue,html.Screen,4_53_2,2023-09-08T17:57:42.064Z,,0,,,NaN,,,,,,false,,,,834694.5,834693.899999857,,834693.7999999523,,834639.257,8,400,,,
sequence,flow.Sequence,4_53,2023-09-08T17:57:42.065Z,,0,,,8354.116999856895,completion,,,,,false,,,,834695,834693.899999857,826323.139,826385.6999998093,826339.783,834639.257,8,400,,,
trial,html.Screen,4_54_0,2023-09-08T17:57:50.003Z,,0,2,,7994.243000000017,response,ISIC_0033387.JPG,4,ISIC_8374889.JPG,ISIC_8374889.JPG,false,0,keypress(z),500,842633.5999999046,842633.5,834622.583,834695.0999999046,834639.257,842588.157,8,400,5,,ISIC_0033387.JPG
break,html.Screen,4_54_1,2023-09-08T17:57:50.004Z,,0,,,NaN,,,,,,false,,,,842634.0999999046,842633.899999857,,842633.6999998093,,842588.157,8,400,,,
break_continue,html.Screen,4_54_2,2023-09-08T17:57:50.004Z,,0,,,NaN,,,,,,false,,,,842634.399999857,842634.1999998093,,842634.1999998093,,842588.157,8,400,,,
sequence,flow.Sequence,4_54,2023-09-08T17:57:50.004Z,,0,,,7994.942999809282,completion,,,,,false,,,,842634.5,842634.1999998093,834622.583,834695.0999999046,834639.257,842588.157,8,400,,,
trial,html.Screen,4_55_0,2023-09-08T17:57:55.110Z,,0,2,,5151.64299995231,response,ISIC_9000234.JPG,5,ISIC_0033625.JPG,ISIC_0033625.JPG,false,0,keypress(z),500,847740,847739.7999999523,842571.325,842634.5,842588.157,847698.014,8,400,6,,ISIC_9000234.JPG
break,html.Screen,4_55_1,2023-09-08T17:57:55.111Z,,0,,,NaN,,,,,,false,,,,847740.2999999523,847740.2999999523,,847740.0999999046,,847698.014,8,400,,,
break_continue,html.Screen,4_55_2,2023-09-08T17:57:55.111Z,,0,,,NaN,,,,,,false,,,,847740.5999999046,847740.5,,847740.399999857,,847698.014,8,400,,,
sequence,flow.Sequence,4_55,2023-09-08T17:57:55.111Z,,0,,,5152.3429999999935,completion,,,,,false,,,,847740.6999998093,847740.5,842571.325,842634.5,842588.157,847698.014,8,400,,,
trial,html.Screen,4_56_0,2023-09-08T17:58:01.855Z,,0,2,,6786.4860000000335,response,ISIC_0033782.JPG,6,ISIC_0067006.JPG,ISIC_0067006.JPG,false,0,keypress(z),500,854484.7999999523,854484.5,847681.331,847740.7999999523,847698.014,854461.283,8,400,7,,ISIC_0033782.JPG
break,html.Screen,4_56_1,2023-09-08T17:58:01.856Z,,0,,,NaN,,,,,,false,,,,854485.5,854485.2999999523,,854485.0999999046,,854461.283,8,400,,,
break_continue,html.Screen,4_56_2,2023-09-08T17:58:01.856Z,,0,,,NaN,,,,,,false,,,,854485.899999857,854485.6999998093,,854485.5999999046,,854461.283,8,400,,,
sequence,flow.Sequence,4_56,2023-09-08T17:58:01.856Z,,0,,,6787.685999809299,completion,,,,,false,,,,854486.0999999046,854485.6999998093,847681.331,847740.7999999523,847698.014,854461.283,8,400,,,
trial,html.Screen,4_57_0,2023-09-08T17:58:07.779Z,,0,2,,5947.316999904579,response,ISIC_0002549.JPG,5,ISIC_4163686.JPG,ISIC_4163686.JPG,false,0,keypress(z),500,860408.7999999523,860408.5999999046,854444.461,854486.399999857,854461.283,860355.908,8,400,8,,ISIC_0002549.JPG
break,html.Screen,4_57_1,2023-09-08T17:58:07.779Z,,0,,,NaN,,,,,,false,,,,860409.0999999046,860409,,860408.7999999523,,860355.908,8,400,,,
break_continue,html.Screen,4_57_2,2023-09-08T17:58:07.780Z,,0,,,NaN,,,,,,false,,,,860409.399999857,860409.2999999523,,860409.0999999046,,860355.908,8,400,,,
sequence,flow.Sequence,4_57,2023-09-08T17:58:07.780Z,,0,,,5948.016999952262,completion,,,,,false,,,,860409.399999857,860409.2999999523,854444.461,854486.2999999523,854461.283,860355.908,8,400,,,
trial,html.Screen,4_58_0,2023-09-08T17:58:15.801Z,,0,2,,8074.291999809211,response,ISIC_0034065.JPG,5,ISIC_0060233.JPG,ISIC_0034065.JPG,false,1,keypress(m),500,868430.5999999046,868430.1999998093,860339.393,860409.399999857,860355.908,868388.26,8,400,9,,ISIC_0060233.JPG
break,html.Screen,4_58_1,2023-09-08T17:58:15.802Z,,0,,,NaN,,,,,,false,,,,868431.5999999046,868431.399999857,,868431,,868388.26,8,400,,,
break_continue,html.Screen,4_58_2,2023-09-08T17:58:15.802Z,,0,,,NaN,,,,,,false,,,,868432.1999998093,868432.0999999046,,868431.899999857,,868388.26,8,400,,,
sequence,flow.Sequence,4_58,2023-09-08T17:58:15.803Z,,0,,,8076.191999904579,completion,,,,,false,,,,868432.5,868432.0999999046,860339.393,860409.399999857,860355.908,868388.26,8,400,,,
trial,html.Screen,4_59_0,2023-09-08T17:58:21.859Z,,0,2,,6100.339999904623,response,ISIC_0070689.JPG,5,ISIC_5641619.JPG,ISIC_0070689.JPG,false,1,keypress(m),500,874488.7999999523,874488.5999999046,868371.512,868432.5999999046,868388.26,874466.682,8,400,10,,ISIC_5641619.JPG
break,html.Screen,4_59_1,2023-09-08T17:58:21.860Z,,0,,,NaN,,,,,,false,,,,874489.5999999046,874489.2999999523,,874489,,874466.682,8,400,,,
break_continue,html.Screen,4_59_2,2023-09-08T17:58:21.860Z,,0,,,NaN,,,,,,false,,,,874490,874489.899999857,,874489.7999999523,,874466.682,8,400,,,
sequence,flow.Sequence,4_59,2023-09-08T17:58:21.860Z,,0,,,6101.6399998569395,completion,,,,,false,,,,874490.1999998093,874489.899999857,868371.512,868432.5999999046,868388.26,874466.682,8,400,,,
trial,html.Screen,4_60_0,2023-09-08T17:58:27.368Z,,0,2,,5531.31799999997,response,ISIC_0030259.JPG,4,ISIC_0025757.JPG,ISIC_0030259.JPG,false,1,keypress(m),500,879998.0999999046,879998,874450.143,874490.399999857,874466.682,879944.052,8,400,11,,ISIC_0025757.JPG
break,html.Screen,4_60_1,2023-09-08T17:58:27.369Z,,0,,,NaN,,,,,,false,,,,879998.399999857,879998.399999857,,879998.1999998093,,879944.052,8,400,,,
break_continue,html.Screen,4_60_2,2023-09-08T17:58:27.369Z,,0,,,NaN,,,,,,false,,,,879998.7999999523,879998.6999998093,,879998.5999999046,,879944.052,8,400,,,
sequence,flow.Sequence,4_60,2023-09-08T17:58:27.369Z,,0,,,5532.017999809235,completion,,,,,false,,,,879998.899999857,879998.6999998093,874450.143,874490.1999998093,874466.682,879944.052,8,400,,,
trial,html.Screen,4_61_0,2023-09-08T17:58:33.755Z,,0,2,,6440.947999999975,response,ISIC_0025571.JPG,5,ISIC_0013813.JPG,ISIC_0013813.JPG,false,0,keypress(z),500,886385.0999999046,886385,879927.411,879999,879944.052,886339.857,8,400,12,,ISIC_0025571.JPG
break,html.Screen,4_61_1,2023-09-08T17:58:33.756Z,,0,,,NaN,,,,,,false,,,,886385.5,886385.2999999523,,886385.1999998093,,886339.857,8,400,,,
break_continue,html.Screen,4_61_2,2023-09-08T17:58:33.756Z,,0,,,NaN,,,,,,false,,,,886385.5999999046,886385.5,,886385.5,,886339.857,8,400,,,
sequence,flow.Sequence,4_61,2023-09-08T17:58:33.756Z,,0,,,6441.447999999975,completion,,,,,false,,,,886385.6999998093,886385.5,879927.411,879998.899999857,879944.052,886339.857,8,400,,,
trial,html.Screen,4_62_0,2023-09-08T17:58:40.510Z,,0,2,,6799.64300000004,response,ISIC_0030970.JPG,6,ISIC_0029843.JPG,ISIC_0030970.JPG,false,1,keypress(m),500,893139.5999999046,893139.5,886323.114,886385.7999999523,886339.857,893086.256,8,400,13,,ISIC_0029843.JPG
break,html.Screen,4_62_1,2023-09-08T17:58:40.510Z,,0,,,NaN,,,,,,false,,,,893140,893139.899999857,,893139.6999998093,,893086.256,8,400,,,
break_continue,html.Screen,4_62_2,2023-09-08T17:58:40.511Z,,0,,,NaN,,,,,,false,,,,893140.399999857,893140.2999999523,,893140.0999999046,,893086.256,8,400,,,
sequence,flow.Sequence,4_62,2023-09-08T17:58:40.511Z,,0,,,6800.442999952356,completion,,,,,false,,,,893140.5,893140.2999999523,886323.114,886385.7999999523,886339.857,893086.256,8,400,,,
trial,html.Screen,4_63_0,2023-09-08T17:58:49.457Z,,0,2,,9000.243999999948,response,ISIC_5778927.JPG,6,ISIC_0002853.JPG,ISIC_5778927.JPG,false,1,keypress(m),500,902086.5999999046,902086.5,893069.555,893140.5,893086.256,902037.015,8,400,14,,ISIC_0002853.JPG
break,html.Screen,4_63_1,2023-09-08T17:58:49.457Z,,0,,,NaN,,,,,,false,,,,902086.899999857,902086.899999857,,902086.6999998093,,902037.015,8,400,,,
break_continue,html.Screen,4_63_2,2023-09-08T17:58:49.457Z,,0,,,NaN,,,,,,false,,,,902087.0999999046,902087,,902087,,902037.015,8,400,,,
sequence,flow.Sequence,4_63,2023-09-08T17:58:49.457Z,,0,,,9000.743999999948,completion,,,,,false,,,,902087.1999998093,902087,893069.555,893140.5,893086.256,902037.015,8,400,,,
trial,html.Screen,4_64_0,2023-09-08T17:58:56.298Z,,0,2,,6889.884999856935,response,ISIC_0069908.JPG,5,ISIC_1543770.JPG,ISIC_0069908.JPG,false,1,keypress(m),500,908927,908926.899999857,902020.324,902087.1999998093,902037.015,908883.746,8,400,15,,ISIC_1543770.JPG
break,html.Screen,4_64_1,2023-09-08T17:58:56.298Z,,0,,,NaN,,,,,,false,,,,908927.2999999523,908927.2999999523,,908927.0999999046,,908883.746,8,400,,,
break_continue,html.Screen,4_64_2,2023-09-08T17:58:56.298Z,,0,,,NaN,,,,,,false,,,,908927.5,908927.399999857,,908927.399999857,,908883.746,8,400,,,
sequence,flow.Sequence,4_64,2023-09-08T17:58:56.298Z,,0,,,6890.384999856935,completion,,,,,false,,,,908927.5,908927.399999857,902020.324,902087.1999998093,902037.015,908883.746,8,400,,,
trial,html.Screen,4_65_0,2023-09-08T17:59:02.910Z,,0,2,,6655.553999952273,response,ISIC_4926448.JPG,4,ISIC_6517852.JPG,ISIC_4926448.JPG,false,1,keypress(m),500,915539.399999857,915539.2999999523,908867.043,908927.5,908883.746,915496.539,8,400,16,,ISIC_6517852.JPG
break,html.Screen,4_65_1,2023-09-08T17:59:02.910Z,,0,,,NaN,,,,,,false,,,,915539.6999998093,915539.6999998093,,915539.5,,915496.539,8,400,,,
break_continue,html.Screen,4_65_2,2023-09-08T17:59:02.911Z,,0,,,NaN,,,,,,false,,,,915539.899999857,915539.899999857,,915539.7999999523,,915496.539,8,400,,,
sequence,flow.Sequence,4_65,2023-09-08T17:59:02.911Z,,0,,,6656.153999856906,completion,,,,,false,,,,915539.899999857,915539.899999857,908867.043,908927.5,908883.746,915496.539,8,400,,,
trial,html.Screen,4_66_0,2023-09-08T17:59:08.688Z,,0,2,,5820.860999856959,response,ISIC_6227397.JPG,5,ISIC_0071532.JPG,ISIC_6227397.JPG,false,1,keypress(m),500,921317.5999999046,921317.399999857,915480.022,915540,915496.539,921274.488,8,400,17,,ISIC_0071532.JPG
break,html.Screen,4_66_1,2023-09-08T17:59:08.689Z,,0,,,NaN,,,,,,false,,,,921317.899999857,921317.6999998093,,921317.6999998093,,921274.488,8,400,,,
break_continue,html.Screen,4_66_2,2023-09-08T17:59:08.689Z,,0,,,NaN,,,,,,false,,,,921318.5,921318.399999857,,921318.2999999523,,921274.488,8,400,,,
sequence,flow.Sequence,4_66,2023-09-08T17:59:08.689Z,,0,,,5821.860999856959,completion,,,,,false,,,,921318.5,921318.399999857,915480.022,915540,915496.539,921274.488,8,400,,,
trial,html.Screen,4_67_0,2023-09-08T17:59:15.939Z,,0,2,,7293.6119999046205,response,ISIC_2232442.JPG,5,ISIC_1342117.JPG,ISIC_2232442.JPG,false,1,keypress(m),500,928568.1999998093,928568.0999999046,921257.933,921318.5,921274.488,928521.958,8,400,18,,ISIC_1342117.JPG
break,html.Screen,4_67_1,2023-09-08T17:59:15.939Z,,0,,,NaN,,,,,,false,,,,928568.399999857,928568.399999857,,928568.2999999523,,928521.958,8,400,,,
break_continue,html.Screen,4_67_2,2023-09-08T17:59:15.939Z,,0,,,NaN,,,,,,false,,,,928568.5999999046,928568.5999999046,,928568.5,,928521.958,8,400,,,
sequence,flow.Sequence,4_67,2023-09-08T17:59:15.939Z,,0,,,7294.1119999046205,completion,,,,,false,,,,928568.6999998093,928568.5999999046,921257.933,921318.5,921274.488,928521.958,8,400,,,
trial,html.Screen,4_68_0,2023-09-08T17:59:24.037Z,,0,2,,8144.042000000016,response,ISIC_0024351.JPG,5,ISIC_5849178.JPG,ISIC_0024351.JPG,false,1,keypress(m),500,936666.0999999046,936666,928505.337,928568.6999998093,928521.958,936621,8,400,19,,ISIC_5849178.JPG
break,html.Screen,4_68_1,2023-09-08T17:59:24.037Z,,0,,,NaN,,,,,,false,,,,936666.399999857,936666.2999999523,,936666.1999998093,,936621,8,400,,,
break_continue,html.Screen,4_68_2,2023-09-08T17:59:24.037Z,,0,,,NaN,,,,,,false,,,,936666.5999999046,936666.399999857,,936666.399999857,,936621,8,400,,,
sequence,flow.Sequence,4_68,2023-09-08T17:59:24.037Z,,0,,,8144.441999856965,completion,,,,,false,,,,936666.5999999046,936666.399999857,928505.337,928568.6999998093,928521.958,936621,8,400,,,
trial,html.Screen,4_69_0,2023-09-08T17:59:29.239Z,,0,2,,5247.399999856949,response,ISIC_0060446.JPG,4,ISIC_0026329.JPG,ISIC_0060446.JPG,false,1,keypress(m),500,941868.399999857,941868.399999857,936604.37,936666.5999999046,936621,941814.432,8,400,20,,ISIC_0026329.JPG
break,html.Screen,4_69_1,2023-09-08T17:59:29.240Z,,0,,,NaN,,,,,,false,,,,941868.7999999523,941868.6999998093,,941868.5999999046,,941814.432,8,400,,,
break_continue,html.Screen,4_69_2,2023-09-08T17:59:29.240Z,,0,,,NaN,,,,,,false,,,,941868.899999857,941868.7999999523,,941868.7999999523,,941814.432,8,400,,,
sequence,flow.Sequence,4_69,2023-09-08T17:59:29.240Z,,0,,,5247.799999952316,completion,,,,,false,,,,941869,941868.7999999523,936604.37,936666.5999999046,936621,941814.432,8,400,,,
trial,html.Screen,4_70_0,2023-09-08T17:59:35.882Z,,0,2,,6696.56799999997,response,ISIC_0027130.JPG,5,ISIC_4730433.JPG,ISIC_0027130.JPG,false,1,keypress(m),500,948511.1999998093,948511,941797.911,941869.0999999046,941814.432,948460.661,8,400,21,,ISIC_4730433.JPG
break,html.Screen,4_70_1,2023-09-08T17:59:35.882Z,,0,,,NaN,,,,,,false,,,,948511.5,948511.399999857,,948511.1999998093,,948460.661,8,400,,,
break_continue,html.Screen,4_70_2,2023-09-08T17:59:35.882Z,,0,,,NaN,,,,,,false,,,,948511.7999999523,948511.6999998093,,948511.5999999046,,948460.661,8,400,,,
sequence,flow.Sequence,4_70,2023-09-08T17:59:35.883Z,,0,,,6697.267999809235,completion,,,,,false,,,,948511.7999999523,948511.6999998093,941797.911,941869.0999999046,941814.432,948460.661,8,400,,,
trial,html.Screen,4_71_0,2023-09-08T17:59:42.860Z,,0,2,,7028.339000000036,response,ISIC_2483825.JPG,4,ISIC_0031705.JPG,ISIC_2483825.JPG,false,1,keypress(m),500,955489.0999999046,955489,948444.138,948511.899999857,948460.661,955441.015,8,400,22,,ISIC_0031705.JPG
break,html.Screen,4_71_1,2023-09-08T17:59:42.860Z,,0,,,NaN,,,,,,false,,,,955489.5999999046,955489.399999857,,955489.2999999523,,955441.015,8,400,,,
break_continue,html.Screen,4_71_2,2023-09-08T17:59:42.861Z,,0,,,NaN,,,,,,false,,,,955489.899999857,955489.7999999523,,955489.7999999523,,955441.015,8,400,,,
sequence,flow.Sequence,4_71,2023-09-08T17:59:42.861Z,,0,,,7029.138999952353,completion,,,,,false,,,,955490,955489.7999999523,948444.138,948511.899999857,948460.661,955441.015,8,400,,,
trial,html.Screen,4_72_0,2023-09-08T17:59:51.011Z,,0,2,,8199.284999952302,response,ISIC_0071118.JPG,5,ISIC_0025755.JPG,ISIC_0071118.JPG,false,1,keypress(m),500,963640.5,963640.2999999523,955424.349,955490.0999999046,955441.015,963590.159,8,400,23,,ISIC_0025755.JPG
break,html.Screen,4_72_1,2023-09-08T17:59:51.012Z,,0,,,NaN,,,,,,false,,,,963641.0999999046,963641,,963640.6999998093,,963590.159,8,400,,,
break_continue,html.Screen,4_72_2,2023-09-08T17:59:51.012Z,,0,,,NaN,,,,,,false,,,,963641.5999999046,963641.399999857,,963641.2999999523,,963590.159,8,400,,,
sequence,flow.Sequence,4_72,2023-09-08T17:59:51.012Z,,0,,,8200.384999856935,completion,,,,,false,,,,963641.6999998093,963641.399999857,955424.349,955490.0999999046,955441.015,963590.159,8,400,,,
trial,html.Screen,4_73_0,2023-09-08T17:59:58.696Z,,0,2,,7734.240999856964,response,ISIC_0000483.JPG,5,ISIC_0011286.JPG,ISIC_0011286.JPG,false,0,keypress(z),500,971324.5,971324.399999857,963573.494,963641.7999999523,963590.159,971271.754,8,400,24,,ISIC_0000483.JPG
break,html.Screen,4_73_1,2023-09-08T17:59:58.696Z,,0,,,NaN,,,,,,false,,,,971325,971324.7999999523,,971324.6999998093,,971271.754,8,400,,,
break_continue,html.Screen,4_73_2,2023-09-08T17:59:58.696Z,,0,,,NaN,,,,,,false,,,,971325.0999999046,971325,,971325,,971271.754,8,400,,,
sequence,flow.Sequence,4_73,2023-09-08T17:59:58.696Z,,0,,,7734.841000000015,completion,,,,,false,,,,971325.1999998093,971325,963573.494,963641.7999999523,963590.159,971271.754,8,400,,,
trial,html.Screen,4_74_0,2023-09-08T18:00:04.395Z,,0,2,,5751.545999952359,response,ISIC_8740331.JPG,5,ISIC_1508215.JPG,ISIC_1508215.JPG,false,0,keypress(z),500,977023.5,977023.2999999523,971255.116,971325.2999999523,971271.754,976982.903,8,400,25,,ISIC_8740331.JPG
break,html.Screen,4_74_1,2023-09-08T18:00:04.396Z,,0,,,NaN,,,,,,false,,,,977024.6999998093,977024.399999857,,977023.7999999523,,976982.903,8,400,,,
break_continue,html.Screen,4_74_2,2023-09-08T18:00:04.396Z,,0,,,NaN,,,,,,false,,,,977025,977024.899999857,,977024.7999999523,,976982.903,8,400,,,
sequence,flow.Sequence,4_74,2023-09-08T18:00:04.397Z,,0,,,5753.145999856992,completion,,,,,false,,,,977025.1999998093,977024.899999857,971255.116,971325.2999999523,971271.754,976982.903,8,400,,,
trial,html.Screen,4_75_0,2023-09-08T18:00:09.601Z,,0,2,,5246.296999809216,response,ISIC_5993530.JPG,6,ISIC_5849178.JPG,ISIC_5849178.JPG,false,0,keypress(z),500,982229.399999857,982229.1999998093,976966.235,977025.399999857,976982.903,982176.287,8,400,26,,ISIC_5993530.JPG
break,html.Screen,4_75_1,2023-09-08T18:00:09.601Z,,0,,,NaN,,,,,,false,,,,982229.6999998093,982229.5999999046,,982229.5,,982176.287,8,400,,,
break_continue,html.Screen,4_75_2,2023-09-08T18:00:09.601Z,,0,,,NaN,,,,,,false,,,,982229.7999999523,982229.7999999523,,982229.6999998093,,982176.287,8,400,,,
sequence,flow.Sequence,4_75,2023-09-08T18:00:09.601Z,,0,,,5246.896999952267,completion,,,,,false,,,,982229.899999857,982229.7999999523,976966.235,977025.399999857,976982.903,982176.287,8,400,,,
trial,html.Screen,4_76_0,2023-09-08T18:00:18.185Z,,0,2,,8637.212999999989,response,ISIC_5386244.JPG,4,ISIC_8959928.JPG,ISIC_8959928.JPG,false,0,keypress(z),500,990813.5999999046,990813.5,982159.725,982229.899999857,982176.287,990759.628,8,400,27,,ISIC_5386244.JPG
break,html.Screen,4_76_1,2023-09-08T18:00:18.185Z,,0,,,NaN,,,,,,false,,,,990814,990813.899999857,,990813.6999998093,,990759.628,8,400,,,
break_continue,html.Screen,4_76_2,2023-09-08T18:00:18.185Z,,0,,,NaN,,,,,,false,,,,990814.1999998093,990814.0999999046,,990814,,990759.628,8,400,,,
sequence,flow.Sequence,4_76,2023-09-08T18:00:18.185Z,,0,,,8637.812999904621,completion,,,,,false,,,,990814.1999998093,990814.0999999046,982159.725,982229.899999857,982176.287,990759.628,8,400,,,
trial,html.Screen,4_77_0,2023-09-08T18:00:25.663Z,,0,2,,7532.071999809239,response,ISIC_0946923.JPG,5,ISIC_0015179.JPG,ISIC_0015179.JPG,false,0,keypress(z),500,998291.7999999523,998291.6999998093,990743.1,990814.1999998093,990759.628,998240.862,8,400,28,,ISIC_0946923.JPG
break,html.Screen,4_77_1,2023-09-08T18:00:25.664Z,,0,,,NaN,,,,,,false,,,,998292.2999999523,998292.1999998093,,998292,,998240.862,8,400,,,
break_continue,html.Screen,4_77_2,2023-09-08T18:00:25.664Z,,0,,,NaN,,,,,,false,,,,998292.5,998292.399999857,,998292.2999999523,,998240.862,8,400,,,
sequence,flow.Sequence,4_77,2023-09-08T18:00:25.664Z,,0,,,7532.771999856923,completion,,,,,false,,,,998292.5999999046,998292.399999857,990743.1,990814.1999998093,990759.628,998240.862,8,400,,,
trial,html.Screen,4_78_0,2023-09-08T18:00:32.338Z,,0,2,,6725.437999952352,response,ISIC_6486856.JPG,5,ISIC_7128007.JPG,ISIC_7128007.JPG,false,0,keypress(z),500,1004966.399999857,1004966.2999999523,998224.235,998292.6999998093,998240.862,1004920.706,8,400,29,,ISIC_6486856.JPG
break,html.Screen,4_78_1,2023-09-08T18:00:32.338Z,,0,,,NaN,,,,,,false,,,,1004967,1004966.899999857,,1004966.5999999046,,1004920.706,8,400,,,
break_continue,html.Screen,4_78_2,2023-09-08T18:00:32.339Z,,0,,,NaN,,,,,,false,,,,1004968.1999998093,1004967.2999999523,,1004967.1999998093,,1004920.706,8,400,,,
sequence,flow.Sequence,4_78,2023-09-08T18:00:32.340Z,,0,,,6726.437999952352,completion,,,,,false,,,,1004968.399999857,1004967.2999999523,998224.235,998292.6999998093,998240.862,1004920.706,8,400,,,
trial,html.Screen,4_79_0,2023-09-08T18:00:37.893Z,,0,2,,5600.99399980926,response,ISIC_0392105.JPG,6,ISIC_0067427.JPG,ISIC_0392105.JPG,false,1,keypress(m),500,1010521.899999857,1010521.6999998093,1004904.119,1004968.5,1004920.706,1010481.412,8,400,30,,ISIC_0067427.JPG
break,html.Screen,4_79_1,2023-09-08T18:00:37.894Z,,0,,,NaN,,,,,,false,,,,1010522.399999857,1010522.1999998093,,1010522,,1010481.412,8,400,,,
break_continue,html.Screen,4_79_2,2023-09-08T18:00:37.894Z,,0,,,NaN,,,,,,false,,,,1010522.5999999046,1010522.5,,1010522.399999857,,1010481.412,8,400,,,
sequence,flow.Sequence,4_79,2023-09-08T18:00:37.894Z,,0,,,5601.793999999994,completion,,,,,false,,,,1010522.6999998093,1010522.5,1004904.119,1004968.399999857,1004920.706,1010481.412,8,400,,,
trial,html.Screen,4_80_0,2023-09-08T18:00:44.680Z,,0,2,,6827.087999999989,response,ISIC_0028554.JPG,6,ISIC_0006302.JPG,ISIC_0028554.JPG,false,1,keypress(m),500,1017308.5999999046,1017308.5,1010464.687,1010522.7999999523,1010481.412,1017261.282,8,400,31,,ISIC_0006302.JPG
break,html.Screen,4_80_1,2023-09-08T18:00:44.680Z,,0,,,NaN,,,,,,false,,,,1017309.0999999046,1017308.899999857,,1017308.6999998093,,1017261.282,8,400,,,
break_continue,html.Screen,4_80_2,2023-09-08T18:00:44.681Z,,0,,,NaN,,,,,,false,,,,1017309.399999857,1017309.2999999523,,1017309.0999999046,,1017261.282,8,400,,,
sequence,flow.Sequence,4_80,2023-09-08T18:00:44.681Z,,0,,,6827.887999952305,completion,,,,,false,,,,1017309.399999857,1017309.2999999523,1010464.687,1010522.7999999523,1010481.412,1017261.282,8,400,,,
trial,html.Screen,4_81_0,2023-09-08T18:00:49.677Z,,0,2,,5044.117999856942,response,ISIC_0033492.JPG,5,ISIC_2122488.JPG,ISIC_0033492.JPG,false,1,keypress(m),500,1022305.5999999046,1022305.399999857,1017244.602,1017309.5999999046,1017261.282,1022271.076,8,400,32,,ISIC_2122488.JPG
break,html.Screen,4_81_1,2023-09-08T18:00:49.677Z,,0,,,NaN,,,,,,false,,,,1022305.7999999523,1022305.7999999523,,1022305.5999999046,,1022271.076,8,400,,,
break_continue,html.Screen,4_81_2,2023-09-08T18:00:49.677Z,,0,,,NaN,,,,,,false,,,,1022306,1022305.899999857,,1022305.899999857,,1022271.076,8,400,,,
sequence,flow.Sequence,4_81,2023-09-08T18:00:49.677Z,,0,,,5044.617999856942,completion,,,,,false,,,,1022306.0999999046,1022305.899999857,1017244.602,1017309.5,1017261.282,1022271.076,8,400,,,
trial,html.Screen,4_82_0,2023-09-08T18:00:55.279Z,,0,2,,5635.623999809264,response,ISIC_0027804.JPG,5,ISIC_0014059.JPG,ISIC_0014059.JPG,false,0,keypress(z),500,1027906.899999857,1027906.6999998093,1022254.35,1022306.0999999046,1022271.076,1027865.326,8,400,33,,ISIC_0027804.JPG
break,html.Screen,4_82_1,2023-09-08T18:00:55.279Z,,0,,,NaN,,,,,,false,,,,1027907.1999998093,1027907.1999998093,,1027907,,1027865.326,8,400,,,
break_continue,html.Screen,4_82_2,2023-09-08T18:00:55.279Z,,0,,,NaN,,,,,,false,,,,1027907.5,1027907.399999857,,1027907.399999857,,1027865.326,8,400,,,
sequence,flow.Sequence,4_82,2023-09-08T18:00:55.279Z,,0,,,5636.323999856948,completion,,,,,false,,,,1027907.6999998093,1027907.399999857,1022254.35,1022306.0999999046,1022271.076,1027865.326,8,400,,,
trial,html.Screen,4_83_0,2023-09-08T18:01:01.606Z,,0,2,,6369.273999904632,response,ISIC_6722934.JPG,4,ISIC_0067521.JPG,ISIC_0067521.JPG,false,0,keypress(z),500,1034234.6999998093,1034234.5999999046,1027848.726,1027907.7999999523,1027865.326,1034194.231,8,400,34,,ISIC_6722934.JPG
break,html.Screen,4_83_1,2023-09-08T18:01:01.607Z,,0,,,NaN,,,,,,false,,,,1034235,1034235,,1034234.7999999523,,1034194.231,8,400,,,
break_continue,html.Screen,4_83_2,2023-09-08T18:01:01.607Z,,0,,,NaN,,,,,,false,,,,1034235.2999999523,1034235.1999998093,,1034235.0999999046,,1034194.231,8,400,,,
sequence,flow.Sequence,4_83,2023-09-08T18:01:01.607Z,,0,,,6369.873999809264,completion,,,,,false,,,,1034235.2999999523,1034235.1999998093,1027848.726,1027907.7999999523,1027865.326,1034194.231,8,400,,,
trial,html.Screen,4_84_0,2023-09-08T18:01:08.841Z,,0,2,,7275.268999999971,response,ISIC_0305800.JPG,6,ISIC_0000306.JPG,ISIC_0000306.JPG,false,0,keypress(z),500,1041469.5,1041469.5,1034177.473,1034235.399999857,1034194.231,1041424.903,8,400,35,,ISIC_0305800.JPG
break,html.Screen,4_84_1,2023-09-08T18:01:08.842Z,,0,,,NaN,,,,,,false,,,,1041469.899999857,1041469.7999999523,,1041469.5999999046,,1041424.903,8,400,,,
break_continue,html.Screen,4_84_2,2023-09-08T18:01:08.842Z,,0,,,NaN,,,,,,false,,,,1041470.0999999046,1041470.0999999046,,1041470,,1041424.903,8,400,,,
sequence,flow.Sequence,4_84,2023-09-08T18:01:08.842Z,,0,,,7275.868999904604,completion,,,,,false,,,,1041470.0999999046,1041470.0999999046,1034177.473,1034235.399999857,1034194.231,1041424.903,8,400,,,
trial,html.Screen,4_85_0,2023-09-08T18:01:14.236Z,,0,2,,5439.4969998568995,response,ISIC_0000572.JPG,5,ISIC_9792253.JPG,ISIC_9792253.JPG,false,0,keypress(z),500,1046864.5,1046864.399999857,1041408.276,1041470.1999998093,1041424.903,1046818.834,8,400,36,,ISIC_0000572.JPG
break,html.Screen,4_85_1,2023-09-08T18:01:14.237Z,,0,,,NaN,,,,,,false,,,,1046864.899999857,1046864.7999999523,,1046864.6999998093,,1046818.834,8,400,,,
break_continue,html.Screen,4_85_2,2023-09-08T18:01:14.237Z,,0,,,NaN,,,,,,false,,,,1046865.1999998093,1046865.1999998093,,1046865,,1046818.834,8,400,,,
sequence,flow.Sequence,4_85,2023-09-08T18:01:14.237Z,,0,,,5440.296999809216,completion,,,,,false,,,,1046865.2999999523,1046865.1999998093,1041408.276,1041470.1999998093,1041424.903,1046818.834,8,400,,,
trial,html.Screen,4_86_0,2023-09-08T18:01:21.231Z,,0,2,,7040.465999952285,response,ISIC_0025088.JPG,6,ISIC_0033238.JPG,ISIC_0033238.JPG,false,0,keypress(z),500,1053859.399999857,1053859.2999999523,1046802.133,1046865.5,1046818.834,1053815.734,8,400,37,,ISIC_0025088.JPG
break,html.Screen,4_86_1,2023-09-08T18:01:21.232Z,,0,,,NaN,,,,,,false,,,,1053860.399999857,1053859.899999857,,1053859.6999998093,,1053815.734,8,400,,,
break_continue,html.Screen,4_86_2,2023-09-08T18:01:21.233Z,,0,,,NaN,,,,,,false,,,,1053860.7999999523,1053860.5999999046,,1053860.5,,1053815.734,8,400,,,
sequence,flow.Sequence,4_86,2023-09-08T18:01:21.233Z,,0,,,7041.765999904601,completion,,,,,false,,,,1053861.0999999046,1053860.5999999046,1046802.133,1046865.399999857,1046818.834,1053815.734,8,400,,,
trial,html.Screen,4_87_0,2023-09-08T18:01:30.149Z,,0,2,,8961.365999904694,response,ISIC_5358548.JPG,5,ISIC_0057344.JPG,ISIC_0057344.JPG,false,0,keypress(z),500,1062777.1999998093,1062777.0999999046,1053799.099,1053862.1999998093,1053815.734,1062733.238,8,400,38,,ISIC_5358548.JPG
break,html.Screen,4_87_1,2023-09-08T18:01:30.149Z,,0,,,NaN,,,,,,false,,,,1062777.6999998093,1062777.5999999046,,1062777.399999857,,1062733.238,8,400,,,
break_continue,html.Screen,4_87_2,2023-09-08T18:01:30.150Z,,0,,,NaN,,,,,,false,,,,1062777.899999857,1062777.7999999523,,1062777.6999998093,,1062733.238,8,400,,,
sequence,flow.Sequence,4_87,2023-09-08T18:01:30.150Z,,0,,,8962.065999952378,completion,,,,,false,,,,1062778.0999999046,1062777.7999999523,1053799.099,1053862.0999999046,1053815.734,1062733.238,8,400,,,
trial,html.Screen,4_88_0,2023-09-08T18:01:37.400Z,,0,2,,7295.161999857053,response,ISIC_3314555.JPG,6,ISIC_0015110.JPG,ISIC_0015110.JPG,false,0,keypress(z),500,1070028.5,1070028.399999857,1062716.373,1062778.1999998093,1062733.238,1069980.551,8,400,39,,ISIC_3314555.JPG
break,html.Screen,4_88_1,2023-09-08T18:01:37.401Z,,0,,,NaN,,,,,,false,,,,1070028.899999857,1070028.7999999523,,1070028.5999999046,,1069980.551,8,400,,,
break_continue,html.Screen,4_88_2,2023-09-08T18:01:37.401Z,,0,,,NaN,,,,,,false,,,,1070029.1999998093,1070029.0999999046,,1070029.0999999046,,1069980.551,8,400,,,
sequence,flow.Sequence,4_88,2023-09-08T18:01:37.401Z,,0,,,7295.861999904737,completion,,,,,false,,,,1070029.2999999523,1070029.0999999046,1062716.373,1062778.1999998093,1062733.238,1069980.551,8,400,,,
trial,html.Screen,4_89_0,2023-09-08T18:01:42.650Z,,0,2,,5298.048999904655,response,ISIC_0016082.JPG,5,ISIC_5102688.JPG,ISIC_0016082.JPG,false,1,keypress(m),500,1075278.6999998093,1075278.5999999046,1069963.798,1070029.399999857,1069980.551,1075224.062,8,400,40,,ISIC_5102688.JPG
break,html.Screen,4_89_1,2023-09-08T18:01:42.651Z,,0,,,NaN,,,,,,false,,,,1075279.0999999046,1075279,,1075278.7999999523,,1075224.062,8,400,,,
break_continue,html.Screen,4_89_2,2023-09-08T18:01:42.651Z,,0,,,NaN,,,,,,false,,,,1075279.1999998093,1075279.1999998093,,1075279.0999999046,,1075224.062,8,400,,,
sequence,flow.Sequence,4_89,2023-09-08T18:01:42.651Z,,0,,,5298.6489998092875,completion,,,,,false,,,,1075279.2999999523,1075279.1999998093,1069963.798,1070029.399999857,1069980.551,1075224.062,8,400,,,
trial,html.Screen,4_90_0,2023-09-08T18:01:47.420Z,,0,2,,4824.5379999047145,response,ISIC_4517738.JPG,5,ISIC_9865814.JPG,ISIC_4517738.JPG,false,1,keypress(m),500,1080048.6999998093,1080048.5999999046,1075207.428,1075279.2999999523,1075224.062,1080000.21,8,400,41,,ISIC_9865814.JPG
break,html.Screen,4_90_1,2023-09-08T18:01:47.421Z,,0,,,NaN,,,,,,false,,,,1080049.1999998093,1080049,,1080048.899999857,,1080000.21,8,400,,,
break_continue,html.Screen,4_90_2,2023-09-08T18:01:47.421Z,,0,,,NaN,,,,,,false,,,,1080049.5,1080049.2999999523,,1080049.2999999523,,1080000.21,8,400,,,
sequence,flow.Sequence,4_90,2023-09-08T18:01:47.421Z,,0,,,4825.237999952398,completion,,,,,false,,,,1080049.5,1080049.2999999523,1075207.428,1075279.2999999523,1075224.062,1080000.21,8,400,,,
trial,html.Screen,4_91_0,2023-09-08T18:01:52.903Z,,0,2,,5529.989999809302,response,ISIC_2054180.JPG,5,ISIC_5859812.JPG,ISIC_2054180.JPG,false,1,keypress(m),500,1085530.2999999523,1085530.1999998093,1079983.381,1080049.6999998093,1080000.21,1085477.31,8,400,42,,ISIC_5859812.JPG
break,html.Screen,4_91_1,2023-09-08T18:01:52.903Z,,0,,,NaN,,,,,,false,,,,1085530.6999998093,1085530.5999999046,,1085530.399999857,,1085477.31,8,400,,,
break_continue,html.Screen,4_91_2,2023-09-08T18:01:52.903Z,,0,,,NaN,,,,,,false,,,,1085531,1085530.899999857,,1085530.6999998093,,1085477.31,8,400,,,
sequence,flow.Sequence,4_91,2023-09-08T18:01:52.903Z,,0,,,5530.689999856986,completion,,,,,false,,,,1085531,1085530.899999857,1079983.381,1080049.6999998093,1080000.21,1085477.31,8,400,,,
trial,html.Screen,4_92_0,2023-09-08T18:02:01.417Z,,0,2,,8567.589999856893,response,ISIC_0030760.JPG,5,ISIC_3993924.JPG,ISIC_0030760.JPG,false,1,keypress(m),500,1094045.1999998093,1094044.899999857,1085460.807,1085531.0999999046,1085477.31,1094010.565,8,400,43,,ISIC_3993924.JPG
break,html.Screen,4_92_1,2023-09-08T18:02:01.418Z,,0,,,NaN,,,,,,false,,,,1094045.7999999523,1094045.5999999046,,1094045.2999999523,,1094010.565,8,400,,,
break_continue,html.Screen,4_92_2,2023-09-08T18:02:01.418Z,,0,,,NaN,,,,,,false,,,,1094046,1094045.899999857,,1094045.7999999523,,1094010.565,8,400,,,
sequence,flow.Sequence,4_92,2023-09-08T18:02:01.419Z,,0,,,8568.589999856893,completion,,,,,false,,,,1094046.1999998093,1094045.899999857,1085460.807,1085531.0999999046,1085477.31,1094010.565,8,400,,,
trial,html.Screen,4_93_0,2023-09-08T18:02:07.485Z,,0,2,,6101.834999857005,response,ISIC_0025732.JPG,4,ISIC_6496765.JPG,ISIC_0025732.JPG,false,1,keypress(m),500,1100112.5,1100112.399999857,1093993.88,1094046.2999999523,1094010.565,1100072.398,8,400,44,,ISIC_6496765.JPG
break,html.Screen,4_93_1,2023-09-08T18:02:07.485Z,,0,,,NaN,,,,,,false,,,,1100112.7999999523,1100112.6999998093,,1100112.5,,1100072.398,8,400,,,
break_continue,html.Screen,4_93_2,2023-09-08T18:02:07.485Z,,0,,,NaN,,,,,,false,,,,1100113,1100112.899999857,,1100112.7999999523,,1100072.398,8,400,,,
sequence,flow.Sequence,4_93,2023-09-08T18:02:07.485Z,,0,,,6102.334999857005,completion,,,,,false,,,,1100113,1100112.899999857,1093993.88,1094046.2999999523,1094010.565,1100072.398,8,400,,,
trial,html.Screen,4_94_0,2023-09-08T18:02:16.799Z,,0,2,,9354.101999999955,response,ISIC_0067808.JPG,5,ISIC_0007808.JPG,ISIC_0067808.JPG,false,1,keypress(m),500,1109426.6999998093,1109426.5,1100055.681,1100113.0999999046,1100072.398,1109373.811,8,400,45,,ISIC_0007808.JPG
break,html.Screen,4_94_1,2023-09-08T18:02:16.799Z,,0,,,NaN,,,,,,false,,,,1109427,1109427,,1109426.7999999523,,1109373.811,8,400,,,
break_continue,html.Screen,4_94_2,2023-09-08T18:02:16.800Z,,0,,,NaN,,,,,,false,,,,1109427.2999999523,1109427.0999999046,,1109427.0999999046,,1109373.811,8,400,,,
sequence,flow.Sequence,4_94,2023-09-08T18:02:16.800Z,,0,,,9354.701999904588,completion,,,,,false,,,,1109427.2999999523,1109427.0999999046,1100055.681,1100113.0999999046,1100072.398,1109373.811,8,400,,,
trial,html.Screen,4_95_0,2023-09-08T18:02:22.306Z,,0,2,,5559.588999856962,response,ISIC_3556980.JPG,5,ISIC_9538419.JPG,ISIC_3556980.JPG,false,1,keypress(m),500,1114933.6999998093,1114933.399999857,1109357.309,1109427.2999999523,1109373.811,1114884.554,8,400,46,,ISIC_9538419.JPG
break,html.Screen,4_95_1,2023-09-08T18:02:22.307Z,,0,,,NaN,,,,,,false,,,,1114934.1999998093,1114934.0999999046,,1114933.7999999523,,1114884.554,8,400,,,
break_continue,html.Screen,4_95_2,2023-09-08T18:02:22.307Z,,0,,,NaN,,,,,,false,,,,1114934.399999857,1114934.399999857,,1114934.2999999523,,1114884.554,8,400,,,
sequence,flow.Sequence,4_95,2023-09-08T18:02:22.307Z,,0,,,5560.588999856962,completion,,,,,false,,,,1114934.5,1114934.399999857,1109357.309,1109427.2999999523,1109373.811,1114884.554,8,400,,,
trial,html.Screen,4_96_0,2023-09-08T18:02:27.371Z,,0,2,,5113.845999856945,response,ISIC_0030002.JPG,6,ISIC_6920867.JPG,ISIC_0030002.JPG,false,1,keypress(m),500,1119998.5,1119998.399999857,1114867.946,1114934.5999999046,1114884.554,1119944.428,8,400,47,,ISIC_6920867.JPG
break,html.Screen,4_96_1,2023-09-08T18:02:27.371Z,,0,,,NaN,,,,,,false,,,,1119999,1119998.7999999523,,1119998.5999999046,,1119944.428,8,400,,,
break_continue,html.Screen,4_96_2,2023-09-08T18:02:27.372Z,,0,,,NaN,,,,,,false,,,,1119999.399999857,1119999.1999998093,,1119999.0999999046,,1119944.428,8,400,,,
sequence,flow.Sequence,4_96,2023-09-08T18:02:27.372Z,,0,,,5114.645999809261,completion,,,,,false,,,,1119999.5,1119999.1999998093,1114867.946,1114934.5999999046,1114884.554,1119944.428,8,400,,,
trial,html.Screen,4_97_0,2023-09-08T18:02:34.558Z,,0,2,,7240.871999952244,response,ISIC_0014722.JPG,4,ISIC_1782911.JPG,ISIC_0014722.JPG,false,1,keypress(m),500,1127185.399999857,1127185.2999999523,1119927.885,1119999.5,1119944.428,1127141.742,8,400,48,,ISIC_1782911.JPG
break,html.Screen,4_97_1,2023-09-08T18:02:34.558Z,,0,,,NaN,,,,,,false,,,,1127185.899999857,1127185.7999999523,,1127185.5999999046,,1127141.742,8,400,,,
break_continue,html.Screen,4_97_2,2023-09-08T18:02:34.558Z,,0,,,NaN,,,,,,false,,,,1127186.0999999046,1127186,,1127185.899999857,,1127141.742,8,400,,,
sequence,flow.Sequence,4_97,2023-09-08T18:02:34.559Z,,0,,,7241.571999999927,completion,,,,,false,,,,1127186.1999998093,1127186,1119927.885,1119999.5,1119944.428,1127141.742,8,400,,,
trial,html.Screen,4_98_0,2023-09-08T18:02:39.009Z,,0,2,,4494.357999904547,response,ISIC_7109582.JPG,5,ISIC_9713706.JPG,ISIC_7109582.JPG,false,1,keypress(m),500,1131636.2999999523,1131636.0999999046,1127125.068,1127186.2999999523,1127141.742,1131583.725,8,400,49,,ISIC_9713706.JPG
break,html.Screen,4_98_1,2023-09-08T18:02:39.009Z,,0,,,NaN,,,,,,false,,,,1131637,1131636.6999998093,,1131636.5,,1131583.725,8,400,,,
break_continue,html.Screen,4_98_2,2023-09-08T18:02:39.010Z,,0,,,NaN,,,,,,false,,,,1131637.399999857,1131637.1999998093,,1131637.0999999046,,1131583.725,8,400,,,
sequence,flow.Sequence,4_98,2023-09-08T18:02:39.010Z,,0,,,4495.4579998091795,completion,,,,,false,,,,1131637.399999857,1131637.1999998093,1127125.068,1127186.2999999523,1127141.742,1131583.725,8,400,,,
trial,html.Screen,4_99_0,2023-09-08T18:02:48.852Z,,0,2,,9896.274999999907,response,ISIC_0481702.JPG,6,ISIC_8406262.JPG,ISIC_0481702.JPG,false,1,keypress(m),500,1141480.1999998093,1141480,1131567.033,1131637.5999999046,1131583.725,1141436.208,8,400,50,,ISIC_8406262.JPG
break,html.Screen,4_99_1,2023-09-08T18:02:58.851Z,,0,,,10002.94299999997,timeout,,,,,false,,,,1151479,1151422.331,1141419.509,1141480.1999998093,1141436.208,1151439.151,8,400,,,
break_continue,html.Screen,4_99_2,2023-09-08T18:03:04.878Z,,0,,,6046.748999856878,response,,,,,false,continue,keypress(Space),,1157505.7999999523,1157485.899999857,1151422.331,1151479.1999998093,1151439.151,1157450.703,8,400,,,
sequence,flow.Sequence,4_99,2023-09-08T18:03:04.878Z,,0,,,25902.174999856856,completion,,,,,false,,,,1157506,1157485.899999857,1131567.033,1131637.5999999046,1131583.725,1157450.703,8,400,,,
trial,html.Screen,4_100_0,2023-09-08T18:03:09.460Z,,0,3,,4636.896999904653,response,ISIC_2449919.JPG,5,ISIC_5239607.JPG,ISIC_5239607.JPG,false,0,keypress(z),500,1162087.6999998093,1162087.5999999046,1157434.018,1157506.0999999046,1157450.703,1162042.971,8,400,1,,ISIC_2449919.JPG
break,html.Screen,4_100_1,2023-09-08T18:03:09.460Z,,0,,,NaN,,,,,,false,,,,1162088.0999999046,1162088,,1162087.7999999523,,1162042.971,8,400,,,
break_continue,html.Screen,4_100_2,2023-09-08T18:03:09.461Z,,0,,,NaN,,,,,,false,,,,1162088.2999999523,1162088.1999998093,,1162088.1999998093,,1162042.971,8,400,,,
sequence,flow.Sequence,4_100,2023-09-08T18:03:09.461Z,,0,,,4637.496999809286,completion,,,,,false,,,,1162088.399999857,1162088.1999998093,1157434.018,1157506.0999999046,1157450.703,1162042.971,8,400,,,
trial,html.Screen,4_101_0,2023-09-08T18:03:14.600Z,,0,3,,5183.828999952413,response,ISIC_0016081.JPG,5,ISIC_0031763.JPG,ISIC_0031763.JPG,false,0,keypress(z),500,1167227.399999857,1167226.7999999523,1162026.392,1162088.5,1162042.971,1167186.381,8,400,2,,ISIC_0016081.JPG
break,html.Screen,4_101_1,2023-09-08T18:03:14.601Z,,0,,,NaN,,,,,,false,,,,1167228.5,1167228.0999999046,,1167227.7999999523,,1167186.381,8,400,,,
break_continue,html.Screen,4_101_2,2023-09-08T18:03:14.601Z,,0,,,NaN,,,,,,false,,,,1167229,1167228.7999999523,,1167228.6999998093,,1167186.381,8,400,,,
sequence,flow.Sequence,4_101,2023-09-08T18:03:14.602Z,,0,,,5185.828999952413,completion,,,,,false,,,,1167229.2999999523,1167228.7999999523,1162026.392,1162088.5,1162042.971,1167186.381,8,400,,,
trial,html.Screen,4_102_0,2023-09-08T18:03:19.618Z,,0,3,,5059.318999809213,response,ISIC_5826878.JPG,5,ISIC_7134821.JPG,ISIC_5826878.JPG,false,1,keypress(m),500,1172245.7999999523,1172245.6999998093,1167169.678,1167229.5,1167186.381,1172196.074,8,400,3,,ISIC_7134821.JPG
break,html.Screen,4_102_1,2023-09-08T18:03:19.618Z,,0,,,NaN,,,,,,false,,,,1172246.2999999523,1172246.1999998093,,1172246,,1172196.074,8,400,,,
break_continue,html.Screen,4_102_2,2023-09-08T18:03:19.619Z,,0,,,NaN,,,,,,false,,,,1172246.5,1172246.399999857,,1172246.399999857,,1172196.074,8,400,,,
sequence,flow.Sequence,4_102,2023-09-08T18:03:19.619Z,,0,,,5060.018999856897,completion,,,,,false,,,,1172246.5,1172246.399999857,1167169.678,1167229.5,1167186.381,1172196.074,8,400,,,
trial,html.Screen,4_103_0,2023-09-08T18:03:27.639Z,,0,3,,8070.625999809243,response,ISIC_0010044.JPG,6,ISIC_2259861.JPG,ISIC_0010044.JPG,false,1,keypress(m),500,1180266.899999857,1180266.6999998093,1172179.403,1172246.5999999046,1172196.074,1180211.751,8,400,4,,ISIC_2259861.JPG
break,html.Screen,4_103_1,2023-09-08T18:03:27.640Z,,0,,,NaN,,,,,,false,,,,1180267.6999998093,1180267.5,,1180267.1999998093,,1180211.751,8,400,,,
break_continue,html.Screen,4_103_2,2023-09-08T18:03:27.640Z,,0,,,NaN,,,,,,false,,,,1180268.0999999046,1180268,,1180267.7999999523,,1180211.751,8,400,,,
sequence,flow.Sequence,4_103,2023-09-08T18:03:27.640Z,,0,,,8071.925999999978,completion,,,,,false,,,,1180268.1999998093,1180268,1172179.403,1172246.5999999046,1172196.074,1180211.751,8,400,,,
trial,html.Screen,4_104_0,2023-09-08T18:03:34.978Z,,0,3,,7394.148999857018,response,ISIC_0029343.JPG,5,ISIC_7440724.JPG,ISIC_0029343.JPG,false,1,keypress(m),500,1187606.0999999046,1187605.899999857,1180195.203,1180268.399999857,1180211.751,1187559.494,8,400,5,,ISIC_7440724.JPG
break,html.Screen,4_104_1,2023-09-08T18:03:34.979Z,,0,,,NaN,,,,,,false,,,,1187606.7999999523,1187606.5,,1187606.2999999523,,1187559.494,8,400,,,
break_continue,html.Screen,4_104_2,2023-09-08T18:03:34.979Z,,0,,,NaN,,,,,,false,,,,1187607.1999998093,1187607.0999999046,,1187607,,1187559.494,8,400,,,
sequence,flow.Sequence,4_104,2023-09-08T18:03:34.980Z,,0,,,7395.3489999047015,completion,,,,,false,,,,1187607.399999857,1187607.0999999046,1180195.203,1180268.2999999523,1180211.751,1187559.494,8,400,,,
trial,html.Screen,4_105_0,2023-09-08T18:03:41.676Z,,0,3,,6744.006000000052,response,ISIC_0026371.JPG,4,ISIC_9210255.JPG,ISIC_9210255.JPG,false,0,keypress(z),500,1194303.6999998093,1194303.5,1187542.617,1187607.5,1187559.494,1194255.703,8,400,6,,ISIC_0026371.JPG
break,html.Screen,4_105_1,2023-09-08T18:03:41.676Z,,0,,,NaN,,,,,,false,,,,1194304,1194303.899999857,,1194303.7999999523,,1194255.703,8,400,,,
break_continue,html.Screen,4_105_2,2023-09-08T18:03:41.677Z,,0,,,NaN,,,,,,false,,,,1194304.399999857,1194304.1999998093,,1194304.0999999046,,1194255.703,8,400,,,
sequence,flow.Sequence,4_105,2023-09-08T18:03:41.677Z,,0,,,6744.705999809317,completion,,,,,false,,,,1194304.399999857,1194304.1999998093,1187542.617,1187607.399999857,1187559.494,1194255.703,8,400,,,
trial,html.Screen,4_106_0,2023-09-08T18:03:48.033Z,,0,3,,6404.996999809286,response,ISIC_3238687.JPG,5,ISIC_3298596.JPG,ISIC_3298596.JPG,false,0,keypress(z),500,1200660.7999999523,1200660.6999998093,1194239.105,1194304.399999857,1194255.703,1200618.037,8,400,7,,ISIC_3238687.JPG
break,html.Screen,4_106_1,2023-09-08T18:03:48.033Z,,0,,,NaN,,,,,,false,,,,1200661.1999998093,1200661.0999999046,,1200660.899999857,,1200618.037,8,400,,,
break_continue,html.Screen,4_106_2,2023-09-08T18:03:48.034Z,,0,,,NaN,,,,,,false,,,,1200661.399999857,1200661.1999998093,,1200661.1999998093,,1200618.037,8,400,,,
sequence,flow.Sequence,4_106,2023-09-08T18:03:48.034Z,,0,,,6405.496999809286,completion,,,,,false,,,,1200661.399999857,1200661.1999998093,1194239.105,1194304.399999857,1194255.703,1200618.037,8,400,,,
trial,html.Screen,4_107_0,2023-09-08T18:03:54.294Z,,0,3,,6303.662999809254,response,ISIC_0080817.JPG,5,ISIC_0033171.JPG,ISIC_0033171.JPG,false,0,keypress(z),500,1206921.899999857,1206921.6999998093,1200601.383,1200661.5999999046,1200618.037,1206880.31,8,400,8,,ISIC_0080817.JPG
break,html.Screen,4_107_1,2023-09-08T18:03:54.295Z,,0,,,NaN,,,,,,false,,,,1206922.7999999523,1206922.5,,1206922.1999998093,,1206880.31,8,400,,,
break_continue,html.Screen,4_107_2,2023-09-08T18:03:54.295Z,,0,,,NaN,,,,,,false,,,,1206923.2999999523,1206923.0999999046,,1206923,,1206880.31,8,400,,,
sequence,flow.Sequence,4_107,2023-09-08T18:03:54.296Z,,0,,,6305.062999904621,completion,,,,,false,,,,1206923.399999857,1206923.0999999046,1200601.383,1200661.5999999046,1200618.037,1206880.31,8,400,,,
trial,html.Screen,4_108_0,2023-09-08T18:04:00.059Z,,0,3,,5805.289999904577,response,ISIC_0027881.JPG,5,ISIC_0032629.JPG,ISIC_0032629.JPG,false,0,keypress(z),500,1212685.6999998093,1212685.5999999046,1206863.582,1206923.6999998093,1206880.31,1212641.468,8,400,9,,ISIC_0027881.JPG
break,html.Screen,4_108_1,2023-09-08T18:04:00.059Z,,0,,,NaN,,,,,,false,,,,1212686,1212685.899999857,,1212685.7999999523,,1212641.468,8,400,,,
break_continue,html.Screen,4_108_2,2023-09-08T18:04:00.060Z,,0,,,NaN,,,,,,false,,,,1212686.1999998093,1212686.1999998093,,1212686.0999999046,,1212641.468,8,400,,,
sequence,flow.Sequence,4_108,2023-09-08T18:04:00.060Z,,0,,,5805.889999809209,completion,,,,,false,,,,1212686.2999999523,1212686.1999998093,1206863.582,1206923.5999999046,1206880.31,1212641.468,8,400,,,
trial,html.Screen,4_109_0,2023-09-08T18:04:07.825Z,,0,3,,7810.03199999989,response,ISIC_2212473.JPG,5,ISIC_0058617.JPG,ISIC_2212473.JPG,false,1,keypress(m),500,1220451.6999998093,1220451.5,1212624.801,1212686.2999999523,1212641.468,1220406.584,8,400,10,,ISIC_0058617.JPG
break,html.Screen,4_109_1,2023-09-08T18:04:07.826Z,,0,,,NaN,,,,,,false,,,,1220452.1999998093,1220452.0999999046,,1220451.7999999523,,1220406.584,8,400,,,
break_continue,html.Screen,4_109_2,2023-09-08T18:04:07.826Z,,0,,,NaN,,,,,,false,,,,1220452.899999857,1220452.5,,1220452.399999857,,1220406.584,8,400,,,
sequence,flow.Sequence,4_109,2023-09-08T18:04:07.826Z,,0,,,7811.03199999989,completion,,,,,false,,,,1220453,1220452.5,1212624.801,1212686.2999999523,1212641.468,1220406.584,8,400,,,
trial,html.Screen,4_110_0,2023-09-08T18:04:14.804Z,,0,3,,7023.915999999968,response,ISIC_9161898.JPG,5,ISIC_1507583.JPG,ISIC_9161898.JPG,false,1,keypress(m),500,1227430.6999998093,1227430.5,1220389.867,1220453.0999999046,1220406.584,1227386.823,8,400,11,,ISIC_1507583.JPG
break,html.Screen,4_110_1,2023-09-08T18:04:14.805Z,,0,,,NaN,,,,,,false,,,,1227431.1999998093,1227431.0999999046,,1227430.7999999523,,1227386.823,8,400,,,
break_continue,html.Screen,4_110_2,2023-09-08T18:04:14.805Z,,0,,,NaN,,,,,,false,,,,1227431.5,1227431.399999857,,1227431.399999857,,1227386.823,8,400,,,
sequence,flow.Sequence,4_110,2023-09-08T18:04:14.805Z,,0,,,7024.815999856917,completion,,,,,false,,,,1227431.5999999046,1227431.399999857,1220389.867,1220453.0999999046,1220406.584,1227386.823,8,400,,,
trial,html.Screen,4_111_0,2023-09-08T18:04:22.253Z,,0,3,,7493.076999856858,response,ISIC_0031745.JPG,5,ISIC_6906476.JPG,ISIC_6906476.JPG,false,0,keypress(z),500,1234880,1234879.899999857,1227370.312,1227431.5999999046,1227386.823,1234834.809,8,400,12,,ISIC_0031745.JPG
break,html.Screen,4_111_1,2023-09-08T18:04:22.254Z,,0,,,NaN,,,,,,false,,,,1234880.7999999523,1234880.5,,1234880.1999998093,,1234834.809,8,400,,,
break_continue,html.Screen,4_111_2,2023-09-08T18:04:22.254Z,,0,,,NaN,,,,,,false,,,,1234881.0999999046,1234881,,1234881,,1234834.809,8,400,,,
sequence,flow.Sequence,4_111,2023-09-08T18:04:22.255Z,,0,,,7494.176999999909,completion,,,,,false,,,,1234881.1999998093,1234881,1227370.312,1227431.5999999046,1227386.823,1234834.809,8,400,,,
trial,html.Screen,4_112_0,2023-09-08T18:04:27.045Z,,0,3,,4836.590999857057,response,ISIC_7100813.JPG,5,ISIC_4969996.JPG,ISIC_7100813.JPG,false,1,keypress(m),500,1239671.6999998093,1239671.399999857,1234817.924,1234881.2999999523,1234834.809,1239627.282,8,400,13,,ISIC_4969996.JPG
break,html.Screen,4_112_1,2023-09-08T18:04:27.045Z,,0,,,NaN,,,,,,false,,,,1239672.0999999046,1239672,,1239671.6999998093,,1239627.282,8,400,,,
break_continue,html.Screen,4_112_2,2023-09-08T18:04:27.046Z,,0,,,NaN,,,,,,false,,,,1239672.399999857,1239672.399999857,,1239672.2999999523,,1239627.282,8,400,,,
sequence,flow.Sequence,4_112,2023-09-08T18:04:27.046Z,,0,,,4837.590999857057,completion,,,,,false,,,,1239672.5999999046,1239672.399999857,1234817.924,1234881.1999998093,1234834.809,1239627.282,8,400,,,
trial,html.Screen,4_113_0,2023-09-08T18:04:32.791Z,,0,3,,5790.3179999047425,response,ISIC_3064807.JPG,5,ISIC_5785408.JPG,ISIC_3064807.JPG,false,1,keypress(m),500,1245417.7999999523,1245417.5999999046,1239610.717,1239672.5999999046,1239627.282,1245371.827,8,400,14,,ISIC_5785408.JPG
break,html.Screen,4_113_1,2023-09-08T18:04:32.792Z,,0,,,NaN,,,,,,false,,,,1245418.0999999046,1245418.0999999046,,1245417.899999857,,1245371.827,8,400,,,
break_continue,html.Screen,4_113_2,2023-09-08T18:04:32.792Z,,0,,,NaN,,,,,,false,,,,1245418.2999999523,1245418.2999999523,,1245418.1999998093,,1245371.827,8,400,,,
sequence,flow.Sequence,4_113,2023-09-08T18:04:32.792Z,,0,,,5791.017999952426,completion,,,,,false,,,,1245418.5,1245418.2999999523,1239610.717,1239672.5999999046,1239627.282,1245371.827,8,400,,,
trial,html.Screen,4_114_0,2023-09-08T18:04:37.695Z,,0,3,,4949.472999952268,response,ISIC_4789377.JPG,5,ISIC_0055246.JPG,ISIC_0055246.JPG,false,0,keypress(z),500,1250321.6999998093,1250321.2999999523,1245355.155,1245418.5999999046,1245371.827,1250281.43,8,400,15,,ISIC_4789377.JPG
break,html.Screen,4_114_1,2023-09-08T18:04:37.696Z,,0,,,NaN,,,,,,false,,,,1250322.5999999046,1250322.2999999523,,1250322,,1250281.43,8,400,,,
break_continue,html.Screen,4_114_2,2023-09-08T18:04:37.697Z,,0,,,NaN,,,,,,false,,,,1250323.1999998093,1250322.899999857,,1250322.6999998093,,1250281.43,8,400,,,
sequence,flow.Sequence,4_114,2023-09-08T18:04:37.697Z,,0,,,4951.0729998569,completion,,,,,false,,,,1250323.399999857,1250322.899999857,1245355.155,1245418.5,1245371.827,1250281.43,8,400,,,
trial,html.Screen,4_115_0,2023-09-08T18:04:43.797Z,,0,3,,6141.969999857014,response,ISIC_0058863.JPG,5,ISIC_0024507.JPG,ISIC_0024507.JPG,false,0,keypress(z),500,1256423.6999998093,1256423.399999857,1250264.802,1250323.5,1250281.43,1256376.591,8,400,16,,ISIC_0058863.JPG
break,html.Screen,4_115_1,2023-09-08T18:04:43.798Z,,0,,,NaN,,,,,,false,,,,1256424.1999998093,1256424,,1256423.7999999523,,1256376.591,8,400,,,
break_continue,html.Screen,4_115_2,2023-09-08T18:04:43.798Z,,0,,,NaN,,,,,,false,,,,1256424.5999999046,1256424.5,,1256424.399999857,,1256376.591,8,400,,,
sequence,flow.Sequence,4_115,2023-09-08T18:04:43.798Z,,0,,,6143.070000000065,completion,,,,,false,,,,1256424.7999999523,1256424.5,1250264.802,1250323.5,1250281.43,1256376.591,8,400,,,
trial,html.Screen,4_116_0,2023-09-08T18:04:49.614Z,,0,3,,5863.808999856934,response,ISIC_9084751.JPG,4,ISIC_0030333.JPG,ISIC_0030333.JPG,false,0,keypress(z),500,1262240.5,1262240.399999857,1256359.888,1256424.7999999523,1256376.591,1262187.882,8,400,17,,ISIC_9084751.JPG
break,html.Screen,4_116_1,2023-09-08T18:04:49.615Z,,0,,,NaN,,,,,,false,,,,1262241.0999999046,1262240.899999857,,1262240.6999998093,,1262187.882,8,400,,,
break_continue,html.Screen,4_116_2,2023-09-08T18:04:49.615Z,,0,,,NaN,,,,,,false,,,,1262241.5999999046,1262241.5,,1262241.399999857,,1262187.882,8,400,,,
sequence,flow.Sequence,4_116,2023-09-08T18:04:49.615Z,,0,,,5864.908999999985,completion,,,,,false,,,,1262241.6999998093,1262241.5,1256359.888,1256424.7999999523,1256376.591,1262187.882,8,400,,,
trial,html.Screen,4_117_0,2023-09-08T18:04:57.281Z,,0,3,,7719.417999952333,response,ISIC_3430953.JPG,5,ISIC_7340247.JPG,ISIC_3430953.JPG,false,1,keypress(m),500,1269907.399999857,1269907.2999999523,1262171.275,1262241.7999999523,1262187.882,1269869.515,8,400,18,,ISIC_7340247.JPG
break,html.Screen,4_117_1,2023-09-08T18:04:57.281Z,,0,,,NaN,,,,,,false,,,,1269907.7999999523,1269907.5999999046,,1269907.399999857,,1269869.515,8,400,,,
break_continue,html.Screen,4_117_2,2023-09-08T18:04:57.281Z,,0,,,NaN,,,,,,false,,,,1269908,1269907.899999857,,1269907.899999857,,1269869.515,8,400,,,
sequence,flow.Sequence,4_117,2023-09-08T18:04:57.281Z,,0,,,7720.017999856966,completion,,,,,false,,,,1269908.0999999046,1269907.899999857,1262171.275,1262241.6999998093,1262187.882,1269869.515,8,400,,,
trial,html.Screen,4_118_0,2023-09-08T18:05:03.398Z,,0,3,,6154.784999952419,response,ISIC_0007760.JPG,4,ISIC_0065062.JPG,ISIC_0065062.JPG,false,0,keypress(z),500,1276024.5,1276024.2999999523,1269852.977,1269908.1999998093,1269869.515,1275981.35,8,400,19,,ISIC_0007760.JPG
break,html.Screen,4_118_1,2023-09-08T18:05:03.399Z,,0,,,NaN,,,,,,false,,,,1276024.6999998093,1276024.6999998093,,1276024.5999999046,,1275981.35,8,400,,,
break_continue,html.Screen,4_118_2,2023-09-08T18:05:03.399Z,,0,,,NaN,,,,,,false,,,,1276024.899999857,1276024.899999857,,1276024.7999999523,,1275981.35,8,400,,,
sequence,flow.Sequence,4_118,2023-09-08T18:05:03.399Z,,0,,,6155.384999857051,completion,,,,,false,,,,1276025,1276024.899999857,1269852.977,1269908.0999999046,1269869.515,1275981.35,8,400,,,
trial,html.Screen,4_119_0,2023-09-08T18:05:10.218Z,,0,3,,6862.349999809172,response,ISIC_7215208.JPG,4,ISIC_0010411.JPG,ISIC_0010411.JPG,false,0,keypress(z),500,1282843.899999857,1282843.6999998093,1275964.663,1276025.0999999046,1275981.35,1282794.586,8,400,20,,ISIC_7215208.JPG
break,html.Screen,4_119_1,2023-09-08T18:05:10.218Z,,0,,,NaN,,,,,,false,,,,1282844.1999998093,1282844.0999999046,,1282843.899999857,,1282794.586,8,400,,,
break_continue,html.Screen,4_119_2,2023-09-08T18:05:10.218Z,,0,,,NaN,,,,,,false,,,,1282844.399999857,1282844.399999857,,1282844.2999999523,,1282794.586,8,400,,,
sequence,flow.Sequence,4_119,2023-09-08T18:05:10.218Z,,0,,,6863.049999856856,completion,,,,,false,,,,1282844.5,1282844.399999857,1275964.663,1276025,1275981.35,1282794.586,8,400,,,
trial,html.Screen,4_120_0,2023-09-08T18:05:17.581Z,,0,3,,7412.513999904739,response,ISIC_0058125.JPG,6,ISIC_8035608.JPG,ISIC_8035608.JPG,false,0,keypress(z),500,1290207.2999999523,1290207.0999999046,1282777.912,1282844.5999999046,1282794.586,1290158.926,8,400,21,,ISIC_0058125.JPG
break,html.Screen,4_120_1,2023-09-08T18:05:17.581Z,,0,,,NaN,,,,,,false,,,,1290207.5999999046,1290207.5,,1290207.2999999523,,1290158.926,8,400,,,
break_continue,html.Screen,4_120_2,2023-09-08T18:05:17.582Z,,0,,,NaN,,,,,,false,,,,1290207.7999999523,1290207.6999998093,,1290207.5999999046,,1290158.926,8,400,,,
sequence,flow.Sequence,4_120,2023-09-08T18:05:17.582Z,,0,,,7413.113999809371,completion,,,,,false,,,,1290207.7999999523,1290207.6999998093,1282777.912,1282844.5999999046,1282794.586,1290158.926,8,400,,,
trial,html.Screen,4_121_0,2023-09-08T18:05:25.808Z,,0,3,,8274.973999856971,response,ISIC_0567814.JPG,5,ISIC_0031018.JPG,ISIC_0031018.JPG,false,0,keypress(z),500,1298434,1298433.899999857,1290142.235,1290207.899999857,1290158.926,1298391.929,8,400,22,,ISIC_0567814.JPG
break,html.Screen,4_121_1,2023-09-08T18:05:25.808Z,,0,,,NaN,,,,,,false,,,,1298434.5,1298434.2999999523,,1298434.1999998093,,1298391.929,8,400,,,
break_continue,html.Screen,4_121_2,2023-09-08T18:05:25.809Z,,0,,,NaN,,,,,,false,,,,1298434.6999998093,1298434.6999998093,,1298434.5,,1298391.929,8,400,,,
sequence,flow.Sequence,4_121,2023-09-08T18:05:25.809Z,,0,,,8275.773999809287,completion,,,,,false,,,,1298434.7999999523,1298434.6999998093,1290142.235,1290207.899999857,1290158.926,1298391.929,8,400,,,
trial,html.Screen,4_122_0,2023-09-08T18:05:31.650Z,,0,3,,5883.670999904629,response,ISIC_7172145.JPG,5,ISIC_0060848.JPG,ISIC_0060848.JPG,false,0,keypress(z),500,1304275.5999999046,1304275.5999999046,1298375.055,1298434.899999857,1298391.929,1304219.708,8,400,23,,ISIC_7172145.JPG
break,html.Screen,4_122_1,2023-09-08T18:05:31.650Z,,0,,,NaN,,,,,,false,,,,1304276.2999999523,1304276,,1304275.7999999523,,1304219.708,8,400,,,
break_continue,html.Screen,4_122_2,2023-09-08T18:05:31.651Z,,0,,,NaN,,,,,,false,,,,1304276.6999998093,1304276.5,,1304276.399999857,,1304219.708,8,400,,,
sequence,flow.Sequence,4_122,2023-09-08T18:05:31.651Z,,0,,,5884.570999999996,completion,,,,,false,,,,1304276.6999998093,1304276.5,1298375.055,1298434.899999857,1298391.929,1304219.708,8,400,,,
trial,html.Screen,4_123_0,2023-09-08T18:05:36.997Z,,0,3,,5402.791999999899,response,ISIC_1929937.JPG,5,ISIC_4292879.JPG,ISIC_4292879.JPG,false,0,keypress(z),500,1309622.5999999046,1309622.5,1304203.129,1304276.7999999523,1304219.708,1309580.107,8,400,24,,ISIC_1929937.JPG
break,html.Screen,4_123_1,2023-09-08T18:05:36.997Z,,0,,,NaN,,,,,,false,,,,1309623.2999999523,1309623.0999999046,,1309622.7999999523,,1309580.107,8,400,,,
break_continue,html.Screen,4_123_2,2023-09-08T18:05:36.998Z,,0,,,NaN,,,,,,false,,,,1309623.7999999523,1309623.5999999046,,1309623.5,,1309580.107,8,400,,,
sequence,flow.Sequence,4_123,2023-09-08T18:05:36.998Z,,0,,,5403.891999904532,completion,,,,,false,,,,1309624,1309623.5999999046,1304203.129,1304276.7999999523,1304219.708,1309580.107,8,400,,,
trial,html.Screen,4_124_0,2023-09-08T18:05:44.393Z,,0,3,,7438.492999904556,response,ISIC_7951202.JPG,5,ISIC_6901969.JPG,ISIC_7951202.JPG,false,1,keypress(m),500,1317018.6999998093,1317018.5999999046,1309563.569,1309624.1999998093,1309580.107,1316977.809,8,400,25,,ISIC_6901969.JPG
break,html.Screen,4_124_1,2023-09-08T18:05:44.393Z,,0,,,NaN,,,,,,false,,,,1317019,1317018.899999857,,1317018.7999999523,,1316977.809,8,400,,,
break_continue,html.Screen,4_124_2,2023-09-08T18:05:44.393Z,,0,,,NaN,,,,,,false,,,,1317019.1999998093,1317019.0999999046,,1317019.0999999046,,1316977.809,8,400,,,
sequence,flow.Sequence,4_124,2023-09-08T18:05:44.393Z,,0,,,7438.992999904556,completion,,,,,false,,,,1317019.1999998093,1317019.0999999046,1309563.569,1309624.1999998093,1309580.107,1316977.809,8,400,,,
trial,html.Screen,4_125_0,2023-09-08T18:05:51.866Z,,0,3,,7513.890999809373,response,ISIC_0033193.JPG,5,ISIC_6201338.JPG,ISIC_0033193.JPG,false,1,keypress(m),500,1324491.7999999523,1324491.6999998093,1316961.295,1317019.1999998093,1316977.809,1324442.501,8,400,26,,ISIC_6201338.JPG
break,html.Screen,4_125_1,2023-09-08T18:05:51.866Z,,0,,,NaN,,,,,,false,,,,1324492.399999857,1324492.1999998093,,1324492,,1324442.501,8,400,,,
