sender,sender_type,sender_id,timestamp,meta,,blockNo,condition,duration,ended_on,img_left,img_reveal,img_right,loser,practice,response,response_action,selection_duration,time_commit,time_end,time_render,time_run,time_show,time_switch,total_blocks,total_trials,trialNo,url,winner
informed_consent,html.Screen,0,2023-09-08T19:47:00.576Z,"{""labjs_version"":""20.2.4"",""labjs_build"":{""flavor"":""development"",""commit"":""f5b4a49f956347addd546a832a3327688c2c0fef""},""location"":""https://labjs.felixhenninger.com/api/labjs_preview/index.html"",""userAgent"":""Mozilla/5.0 (Windows NT 10.0; Win64; x64) AppleWebKit/537.36 (KHTML, like Gecko) Chrome/116.0.0.0 Safari/537.36"",""platform"":""Win32"",""language"":""en-AU"",""locale"":""en-US"",""timeZone"":""America/Chicago"",""timezoneOffset"":300,""screen_width"":1680,""screen_height"":1050,""scroll_width"":1296,""scroll_height"":688,""window_innerWidth"":1296,""window_innerHeight"":736,""devicePixelRatio"":1}",,,,988.678,response,,,,,,consent,click button,,1393.2000000476837,1392.5,387.074,451.59999990463257,403.822,1355.644,,,,{},
Welcome,html.Screen,1,2023-09-08T19:49:10.304Z,,,,symmetry,129764.65599995232,response,,,,,,continue,click button,,131121,131120.29999995232,1339.184,1393.4000000953674,1355.644,131074.736,,,,,
trial,html.Screen,2_0_0,2023-09-08T19:49:20.246Z,,0,0,,9987.363999904628,response,ISIC_6997061.JPG,,ISIC_0069348.JPG,ISIC_0069348.JPG,true,0,keypress(z),500,141062.29999995232,141062.09999990463,131058.032,131121.09999990463,131074.736,141010.779,1,6,1,,ISIC_6997061.JPG
sequence,flow.Sequence,2_0,2023-09-08T19:49:20.246Z,,0,,,9987.363999904628,completion,,,,,true,,,,141062.5,141062.09999990463,131058.032,131121.09999990463,131074.736,141010.779,1,6,,,
trial,html.Screen,2_1_0,2023-09-08T19:49:23.800Z,,0,0,,3605.320999904623,response,ISIC_0057368.JPG,,ISIC_0009529.JPG,ISIC_0057368.JPG,true,1,keypress(m),500,144616.20000004768,144616.09999990463,140994.088,141062.5,141010.779,144567.635,1,6,2,,ISIC_0009529.JPG
sequence,flow.Sequence,2_1,2023-09-08T19:49:23.800Z,,0,,,3605.320999904623,completion,,,,,true,,,,144616.40000009537,144616.09999990463,140994.088,141062.5,141010.779,144567.635,1,6,,,
trial,html.Screen,2_2_0,2023-09-08T19:49:26.825Z,,0,0,,3073.765000095358,response,ISIC_9758671.JPG,,ISIC_0064954.JPG,ISIC_9758671.JPG,true,1,keypress(m),500,147641.5,147641.40000009537,144550.952,144616.40000009537,144567.635,147590.222,1,6,3,,ISIC_0064954.JPG
sequence,flow.Sequence,2_2,2023-09-08T19:49:26.825Z,,0,,,3073.765000095358,completion,,,,,true,,,,147641.70000004768,147641.40000009537,144550.952,144616.40000009537,144567.635,147590.222,1,6,,,
trial,html.Screen,2_3_0,2023-09-08T19:49:31.005Z,,0,0,,4231.377999904624,response,ISIC_0000080.JPG,,ISIC_0005785.JPG,ISIC_0005785.JPG,true,0,keypress(z),500,151821.70000004768,151821.59999990463,147573.553,147641.79999995232,147590.222,151765.023,1,6,4,,ISIC_0000080.JPG
sequence,flow.Sequence,2_3,2023-09-08T19:49:31.005Z,,0,,,4231.377999904624,completion,,,,,true,,,,151821.90000009537,151821.59999990463,147573.553,147641.79999995232,147590.222,151765.023,1,6,,,
trial,html.Screen,2_4_0,2023-09-08T19:49:34.323Z,,0,0,,3374.27699995233,response,ISIC_5390060.JPG,,ISIC_7944028.JPG,ISIC_5390060.JPG,true,1,keypress(m),500,155139.5,155139.29999995232,151748.475,151822.09999990463,151765.023,155088.136,1,6,5,,ISIC_7944028.JPG
sequence,flow.Sequence,2_4,2023-09-08T19:49:34.323Z,,0,,,3374.27699995233,completion,,,,,true,,,,155139.59999990463,155139.29999995232,151748.475,151822,151765.023,155088.136,1,6,,,
trial,html.Screen,2_5_0,2023-09-08T19:49:38.109Z,,0,0,,3836.6639999523177,response,ISIC_0010188.JPG,,ISIC_0794216.JPG,ISIC_0010188.JPG,true,1,keypress(m),500,158925,158924.79999995232,155071.619,155139.70000004768,155088.136,158878.887,1,6,6,,ISIC_0794216.JPG
sequence,flow.Sequence,2_5,2023-09-08T19:49:38.109Z,,0,,,3836.6639999523177,completion,,,,,true,,,,158925.09999990463,158924.79999995232,155071.619,155139.70000004768,155088.136,158878.887,1,6,,,
loop,flow.Loop,2,2023-09-08T19:49:38.109Z,,,,,27850.063999952312,completion,,,,,true,,,,158925.29999995232,158924.79999995232,131058.032,131121.09999990463,131074.736,158878.887,1,6,,,
exp_instructions,html.Screen,3,2023-09-08T19:49:42.095Z,,,,,4031.7129999046447,response,,,,,,continue,keypress(Space),,162911.09999990463,162910.59999990463,158862.233,158925.29999995232,158878.887,162869.959,,,,,
trial,html.Screen,4_0_0,2023-09-08T19:49:49.433Z,,0,1,,7379.441000095365,response,ISIC_5147292.JPG,5,ISIC_0010540.JPG,ISIC_0010540.JPG,false,0,keypress(z),500,170249.5,170249.40000009537,162853.287,162911.20000004768,162869.959,170200.969,8,400,1,,ISIC_5147292.JPG
break,html.Screen,4_0_1,2023-09-08T19:49:49.434Z,,0,,,NaN,,,,,,false,,,,170250,170249.90000009537,,170249.59999990463,,170200.969,8,400,,,
break_continue,html.Screen,4_0_2,2023-09-08T19:49:49.434Z,,0,,,NaN,,,,,,false,,,,170250.29999995232,170250.29999995232,,170250.09999990463,,170200.969,8,400,,,
sequence,flow.Sequence,4_0,2023-09-08T19:49:49.434Z,,0,,,7380.340999952314,completion,,,,,false,,,,170250.40000009537,170250.29999995232,162853.287,162911.20000004768,162869.959,170200.969,8,400,,,
trial,html.Screen,4_1_0,2023-09-08T19:49:54.252Z,,0,1,,4867.330999952304,response,ISIC_0068012.JPG,5,ISIC_0031304.JPG,ISIC_0068012.JPG,false,1,keypress(m),500,175068.40000009537,175068.29999995232,170184.204,170250.40000009537,170200.969,175010.274,8,400,2,,ISIC_0031304.JPG
break,html.Screen,4_1_1,2023-09-08T19:49:54.252Z,,0,,,NaN,,,,,,false,,,,175068.70000004768,175068.70000004768,,175068.5,,175010.274,8,400,,,
break_continue,html.Screen,4_1_2,2023-09-08T19:49:54.252Z,,0,,,NaN,,,,,,false,,,,175068.90000009537,175068.79999995232,,175068.79999995232,,175010.274,8,400,,,
sequence,flow.Sequence,4_1,2023-09-08T19:49:54.253Z,,0,,,4867.830999952304,completion,,,,,false,,,,175069,175068.79999995232,170184.204,170250.40000009537,170200.969,175010.274,8,400,,,
trial,html.Screen,4_2_0,2023-09-08T19:50:01.119Z,,0,1,,6925.1260000953625,response,ISIC_2379908.JPG,5,ISIC_0974833.JPG,ISIC_2379908.JPG,false,1,keypress(m),500,181935.70000004768,181935.40000009537,174993.581,175069.09999990463,175010.274,181890.351,8,400,3,,ISIC_0974833.JPG
break,html.Screen,4_2_1,2023-09-08T19:50:01.120Z,,0,,,NaN,,,,,,false,,,,181936.90000009537,181936.5,,181936.09999990463,,181890.351,8,400,,,
break_continue,html.Screen,4_2_2,2023-09-08T19:50:01.121Z,,0,,,NaN,,,,,,false,,,,181937.90000009537,181937.59999990463,,181937.40000009537,,181890.351,8,400,,,
sequence,flow.Sequence,4_2,2023-09-08T19:50:01.122Z,,0,,,6927.325999904628,completion,,,,,false,,,,181938.5,181937.59999990463,174993.581,175069,175010.274,181890.351,8,400,,,
trial,html.Screen,4_3_0,2023-09-08T19:50:06.103Z,,0,1,,5029.448999952321,response,ISIC_1776777.JPG,6,ISIC_0012055.JPG,ISIC_0012055.JPG,false,0,keypress(z),500,186920,186919.79999995232,181873.629,181938.79999995232,181890.351,186866.65,8,400,4,,ISIC_1776777.JPG
break,html.Screen,4_3_1,2023-09-08T19:50:06.104Z,,0,,,NaN,,,,,,false,,,,186920.40000009537,186920.20000004768,,186920,,186866.65,8,400,,,
break_continue,html.Screen,4_3_2,2023-09-08T19:50:06.104Z,,0,,,NaN,,,,,,false,,,,186920.59999990463,186920.59999990463,,186920.40000009537,,186866.65,8,400,,,
sequence,flow.Sequence,4_3,2023-09-08T19:50:06.104Z,,0,,,5030.2489999046375,completion,,,,,false,,,,186920.70000004768,186920.59999990463,181873.629,181938.70000004768,181890.351,186866.65,8,400,,,
trial,html.Screen,4_4_0,2023-09-08T19:50:11.242Z,,0,1,,5191.850000000006,response,ISIC_0030089.JPG,6,ISIC_3232329.JPG,ISIC_3232329.JPG,false,0,keypress(z),500,192058.70000004768,192058.5,186849.982,186920.70000004768,186866.65,192010.119,8,400,5,,ISIC_0030089.JPG
break,html.Screen,4_4_1,2023-09-08T19:50:11.243Z,,0,,,NaN,,,,,,false,,,,192059.40000009537,192059.20000004768,,192058.90000009537,,192010.119,8,400,,,
break_continue,html.Screen,4_4_2,2023-09-08T19:50:11.243Z,,0,,,NaN,,,,,,false,,,,192059.79999995232,192059.59999990463,,192059.59999990463,,192010.119,8,400,,,
sequence,flow.Sequence,4_4,2023-09-08T19:50:11.243Z,,0,,,5192.949999904638,completion,,,,,false,,,,192059.90000009537,192059.59999990463,186849.982,186920.70000004768,186866.65,192010.119,8,400,,,
trial,html.Screen,4_5_0,2023-09-08T19:50:18.147Z,,0,1,,6952.581000047678,response,ISIC_3513367.JPG,5,ISIC_0065360.JPG,ISIC_0065360.JPG,false,0,keypress(z),500,198962.79999995232,198962.70000004768,191993.386,192060,192010.119,198906.729,8,400,6,,ISIC_3513367.JPG
break,html.Screen,4_5_1,2023-09-08T19:50:18.147Z,,0,,,NaN,,,,,,false,,,,198963.20000004768,198963,,198962.90000009537,,198906.729,8,400,,,
break_continue,html.Screen,4_5_2,2023-09-08T19:50:18.147Z,,0,,,NaN,,,,,,false,,,,198963.5,198963.40000009537,,198963.20000004768,,198906.729,8,400,,,
sequence,flow.Sequence,4_5,2023-09-08T19:50:18.147Z,,0,,,6953.281000095361,completion,,,,,false,,,,198963.70000004768,198963.40000009537,191993.386,192060,192010.119,198906.729,8,400,,,
trial,html.Screen,4_6_0,2023-09-08T19:50:25.370Z,,0,1,,7279.070999952324,response,ISIC_8398000.JPG,5,ISIC_4320200.JPG,ISIC_4320200.JPG,false,0,keypress(z),500,206186,206185.79999995232,198890.187,198963.70000004768,198906.729,206137.547,8,400,7,,ISIC_8398000.JPG
break,html.Screen,4_6_1,2023-09-08T19:50:25.371Z,,0,,,NaN,,,,,,false,,,,206187.59999990463,206187.20000004768,,206186.40000009537,,206137.547,8,400,,,
break_continue,html.Screen,4_6_2,2023-09-08T19:50:25.372Z,,0,,,NaN,,,,,,false,,,,206188.29999995232,206188.09999990463,,206187.79999995232,,206137.547,8,400,,,
sequence,flow.Sequence,4_6,2023-09-08T19:50:25.372Z,,0,,,7281.3709999046405,completion,,,,,false,,,,206188.59999990463,206188.09999990463,198890.187,198963.70000004768,198906.729,206137.547,8,400,,,
trial,html.Screen,4_7_0,2023-09-08T19:50:33.375Z,,0,1,,8053.252999952325,response,ISIC_2809019.JPG,4,ISIC_9483306.JPG,ISIC_9483306.JPG,false,0,keypress(z),500,214190.90000009537,214190.79999995232,206120.892,206188.79999995232,206137.547,214136.412,8,400,8,,ISIC_2809019.JPG
break,html.Screen,4_7_1,2023-09-08T19:50:33.375Z,,0,,,NaN,,,,,,false,,,,214191.29999995232,214191.20000004768,,214191,,214136.412,8,400,,,
break_continue,html.Screen,4_7_2,2023-09-08T19:50:33.375Z,,0,,,NaN,,,,,,false,,,,214191.40000009537,214191.40000009537,,214191.29999995232,,214136.412,8,400,,,
sequence,flow.Sequence,4_7,2023-09-08T19:50:33.375Z,,0,,,8053.853000095376,completion,,,,,false,,,,214191.40000009537,214191.40000009537,206120.892,206188.70000004768,206137.547,214136.412,8,400,,,
trial,html.Screen,4_8_0,2023-09-08T19:50:38.753Z,,0,1,,5432.387999952305,response,ISIC_1114966.JPG,6,ISIC_6448654.JPG,ISIC_6448654.JPG,false,0,keypress(z),500,219568.90000009537,219568.79999995232,214119.84,214191.5,214136.412,219513.499,8,400,9,,ISIC_1114966.JPG
break,html.Screen,4_8_1,2023-09-08T19:50:38.753Z,,0,,,NaN,,,,,,false,,,,219569.40000009537,219569.20000004768,,219569.09999990463,,219513.499,8,400,,,
break_continue,html.Screen,4_8_2,2023-09-08T19:50:38.753Z,,0,,,NaN,,,,,,false,,,,219569.70000004768,219569.59999990463,,219569.5,,219513.499,8,400,,,
sequence,flow.Sequence,4_8,2023-09-08T19:50:38.754Z,,0,,,5433.187999904621,completion,,,,,false,,,,219569.79999995232,219569.59999990463,214119.84,214191.40000009537,214136.412,219513.499,8,400,,,
trial,html.Screen,4_9_0,2023-09-08T19:50:44.599Z,,0,1,,5901.401000095357,response,ISIC_4468129.JPG,5,ISIC_0034032.JPG,ISIC_0034032.JPG,false,0,keypress(z),500,225415,225414.90000009537,219496.893,219569.90000009537,219513.499,225358.221,8,400,10,,ISIC_4468129.JPG
break,html.Screen,4_9_1,2023-09-08T19:50:44.599Z,,0,,,NaN,,,,,,false,,,,225415.29999995232,225415.20000004768,,225415.09999990463,,225358.221,8,400,,,
break_continue,html.Screen,4_9_2,2023-09-08T19:50:44.599Z,,0,,,NaN,,,,,,false,,,,225415.59999990463,225415.5,,225415.5,,225358.221,8,400,,,
sequence,flow.Sequence,4_9,2023-09-08T19:50:44.599Z,,0,,,5902.000999999989,completion,,,,,false,,,,225415.59999990463,225415.5,219496.893,219569.90000009537,219513.499,225358.221,8,400,,,
trial,html.Screen,4_10_0,2023-09-08T19:50:51.230Z,,0,1,,6687.679000095377,response,ISIC_8036544.JPG,5,ISIC_8806180.JPG,ISIC_8806180.JPG,false,0,keypress(z),500,232046.29999995232,232045.90000009537,225341.524,225415.70000004768,225358.221,232004.57,8,400,11,,ISIC_8036544.JPG
break,html.Screen,4_10_1,2023-09-08T19:50:51.233Z,,0,,,NaN,,,,,,false,,,,232049.09999990463,232048.90000009537,,232047.09999990463,,232004.57,8,400,,,
break_continue,html.Screen,4_10_2,2023-09-08T19:50:51.233Z,,0,,,NaN,,,,,,false,,,,232049.20000004768,232049.20000004768,,232049.20000004768,,232004.57,8,400,,,
sequence,flow.Sequence,4_10,2023-09-08T19:50:51.233Z,,0,,,6690.979000047693,completion,,,,,false,,,,232049.29999995232,232049.20000004768,225341.524,225415.70000004768,225358.221,232004.57,8,400,,,
trial,html.Screen,4_11_0,2023-09-08T19:50:57.641Z,,0,1,,6452.130000047677,response,ISIC_0071532.JPG,5,ISIC_0027600.JPG,ISIC_0071532.JPG,false,1,keypress(m),500,238456.90000009537,238456.70000004768,231987.903,232049.40000009537,232004.57,238400.259,8,400,12,,ISIC_0027600.JPG
break,html.Screen,4_11_1,2023-09-08T19:50:57.641Z,,0,,,NaN,,,,,,false,,,,238457.40000009537,238457.29999995232,,238457.09999990463,,238400.259,8,400,,,
break_continue,html.Screen,4_11_2,2023-09-08T19:50:57.641Z,,0,,,NaN,,,,,,false,,,,238457.70000004768,238457.59999990463,,238457.5,,238400.259,8,400,,,
sequence,flow.Sequence,4_11,2023-09-08T19:50:57.642Z,,0,,,6453.029999904626,completion,,,,,false,,,,238457.90000009537,238457.59999990463,231987.903,232049.40000009537,232004.57,238400.259,8,400,,,
trial,html.Screen,4_12_0,2023-09-08T19:51:03.840Z,,0,1,,6255.840999904642,response,ISIC_0010629.JPG,5,ISIC_0058580.JPG,ISIC_0010629.JPG,false,1,keypress(m),500,244656.29999995232,244656.09999990463,238383.54,238458,238400.259,244612.385,8,400,13,,ISIC_0058580.JPG
break,html.Screen,4_12_1,2023-09-08T19:51:03.840Z,,0,,,NaN,,,,,,false,,,,244656.79999995232,244656.59999990463,,244656.40000009537,,244612.385,8,400,,,
break_continue,html.Screen,4_12_2,2023-09-08T19:51:03.841Z,,0,,,NaN,,,,,,false,,,,244657.29999995232,244657,,244656.90000009537,,244612.385,8,400,,,
sequence,flow.Sequence,4_12,2023-09-08T19:51:03.841Z,,0,,,6256.741000000009,completion,,,,,false,,,,244657.5,244657,238383.54,238458,238400.259,244612.385,8,400,,,
trial,html.Screen,4_13_0,2023-09-08T19:51:09.507Z,,0,1,,5710.914999952307,response,ISIC_0046683.JPG,4,ISIC_0053572.JPG,ISIC_0053572.JPG,false,0,keypress(z),500,250323.5,250323.29999995232,244595.712,244657.59999990463,244612.385,250273.414,8,400,14,,ISIC_0046683.JPG
break,html.Screen,4_13_1,2023-09-08T19:51:09.508Z,,0,,,NaN,,,,,,false,,,,250323.79999995232,250323.70000004768,,250323.59999990463,,250273.414,8,400,,,
break_continue,html.Screen,4_13_2,2023-09-08T19:51:09.508Z,,0,,,NaN,,,,,,false,,,,250324.09999990463,250324.09999990463,,250324,,250273.414,8,400,,,
sequence,flow.Sequence,4_13,2023-09-08T19:51:09.508Z,,0,,,5711.714999904623,completion,,,,,false,,,,250324.09999990463,250324.09999990463,244595.712,244657.59999990463,244612.385,250273.414,8,400,,,
trial,html.Screen,4_14_0,2023-09-08T19:51:15.269Z,,0,1,,5811.786000047694,response,ISIC_5881453.JPG,6,ISIC_0029898.JPG,ISIC_5881453.JPG,false,1,keypress(m),500,256085.29999995232,256085.20000004768,250256.842,250324.20000004768,250273.414,256034.585,8,400,15,,ISIC_0029898.JPG
break,html.Screen,4_14_1,2023-09-08T19:51:15.270Z,,0,,,NaN,,,,,,false,,,,256085.79999995232,256085.59999990463,,256085.40000009537,,256034.585,8,400,,,
break_continue,html.Screen,4_14_2,2023-09-08T19:51:15.270Z,,0,,,NaN,,,,,,false,,,,256086,256085.90000009537,,256085.90000009537,,256034.585,8,400,,,
sequence,flow.Sequence,4_14,2023-09-08T19:51:15.270Z,,0,,,5812.486000095378,completion,,,,,false,,,,256086,256085.90000009537,250256.842,250324.20000004768,250273.414,256034.585,8,400,,,
trial,html.Screen,4_15_0,2023-09-08T19:51:22.247Z,,0,1,,7028.615000047692,response,ISIC_0072375.JPG,6,ISIC_5503634.JPG,ISIC_0072375.JPG,false,1,keypress(m),500,263063.59999990463,263063.2000000477,256017.916,256086.09999990463,256034.585,263014.924,8,400,16,,ISIC_5503634.JPG
break,html.Screen,4_15_1,2023-09-08T19:51:22.249Z,,0,,,NaN,,,,,,false,,,,263064.59999990463,263064.40000009537,,263063.7999999523,,263014.924,8,400,,,
break_continue,html.Screen,4_15_2,2023-09-08T19:51:22.249Z,,0,,,NaN,,,,,,false,,,,263065.09999990463,263064.90000009537,,263064.7999999523,,263014.924,8,400,,,
sequence,flow.Sequence,4_15,2023-09-08T19:51:22.249Z,,0,,,7030.315000095376,completion,,,,,false,,,,263065.2999999523,263064.90000009537,256017.916,256086.09999990463,256034.585,263014.924,8,400,,,
trial,html.Screen,4_16_0,2023-09-08T19:51:27.661Z,,0,1,,5461.6759999046335,response,ISIC_0024656.JPG,5,ISIC_0941332.JPG,ISIC_0024656.JPG,false,1,keypress(m),500,268476.90000009537,268476.59999990463,262998.295,263065.5,263014.924,268425.387,8,400,17,,ISIC_0941332.JPG
break,html.Screen,4_16_1,2023-09-08T19:51:27.662Z,,0,,,NaN,,,,,,false,,,,268478.40000009537,268477.90000009537,,268477.40000009537,,268425.387,8,400,,,
break_continue,html.Screen,4_16_2,2023-09-08T19:51:27.663Z,,0,,,NaN,,,,,,false,,,,268479.09999990463,268479,,268478.7999999523,,268425.387,8,400,,,
sequence,flow.Sequence,4_16,2023-09-08T19:51:27.663Z,,0,,,5464.076000000001,completion,,,,,false,,,,268479.5,268479,262998.295,263065.40000009537,263014.924,268425.387,8,400,,,
trial,html.Screen,4_17_0,2023-09-08T19:51:33.113Z,,0,1,,5503.712999904645,response,ISIC_0012059.JPG,4,ISIC_0062298.JPG,ISIC_0062298.JPG,false,0,keypress(z),500,273929.2999999523,273929.09999990463,268408.697,268479.7000000477,268425.387,273885.989,8,400,18,,ISIC_0012059.JPG
break,html.Screen,4_17_1,2023-09-08T19:51:33.114Z,,0,,,NaN,,,,,,false,,,,273929.59999990463,273929.5,,273929.40000009537,,273885.989,8,400,,,
break_continue,html.Screen,4_17_2,2023-09-08T19:51:33.114Z,,0,,,NaN,,,,,,false,,,,273929.7999999523,273929.7000000477,,273929.59999990463,,273885.989,8,400,,,
sequence,flow.Sequence,4_17,2023-09-08T19:51:33.114Z,,0,,,5504.313000047696,completion,,,,,false,,,,273929.90000009537,273929.7000000477,268408.697,268479.59999990463,268425.387,273885.989,8,400,,,
trial,html.Screen,4_18_0,2023-09-08T19:51:41.979Z,,0,1,,8908.610999904631,response,ISIC_4570724.JPG,4,ISIC_7803114.JPG,ISIC_7803114.JPG,false,0,keypress(z),500,282794.7000000477,282794.59999990463,273869.309,273929.90000009537,273885.989,282736.53,8,400,19,,ISIC_4570724.JPG
break,html.Screen,4_18_1,2023-09-08T19:51:41.979Z,,0,,,NaN,,,,,,false,,,,282795.09999990463,282794.90000009537,,282794.7999999523,,282736.53,8,400,,,
break_continue,html.Screen,4_18_2,2023-09-08T19:51:41.979Z,,0,,,NaN,,,,,,false,,,,282795.2000000477,282795.2000000477,,282795.09999990463,,282736.53,8,400,,,
sequence,flow.Sequence,4_18,2023-09-08T19:51:41.979Z,,0,,,8909.211000047682,completion,,,,,false,,,,282795.2999999523,282795.2000000477,273869.309,273929.90000009537,273885.989,282736.53,8,400,,,
trial,html.Screen,4_19_0,2023-09-08T19:51:48.496Z,,0,1,,6575.170000047656,response,ISIC_3810274.JPG,4,ISIC_7570343.JPG,ISIC_7570343.JPG,false,0,keypress(z),500,289311.90000009537,289311.7000000477,282719.9,282795.40000009537,282736.53,289266.025,8,400,20,,ISIC_3810274.JPG
break,html.Screen,4_19_1,2023-09-08T19:51:48.497Z,,0,,,NaN,,,,,,false,,,,289312.7999999523,289312.5,,289312.2000000477,,289266.025,8,400,,,
break_continue,html.Screen,4_19_2,2023-09-08T19:51:48.497Z,,0,,,NaN,,,,,,false,,,,289313.09999990463,289313,,289312.7999999523,,289266.025,8,400,,,
sequence,flow.Sequence,4_19,2023-09-08T19:51:48.497Z,,0,,,6576.469999999972,completion,,,,,false,,,,289313.2999999523,289313,282719.9,282795.40000009537,282736.53,289266.025,8,400,,,
trial,html.Screen,4_20_0,2023-09-08T19:51:55.364Z,,0,1,,6914.375000095344,response,ISIC_3304982.JPG,6,ISIC_0212774.JPG,ISIC_0212774.JPG,false,0,keypress(z),500,296180.5,296180.40000009537,289249.271,289313.5,289266.025,296129.245,8,400,21,,ISIC_3304982.JPG
break,html.Screen,4_20_1,2023-09-08T19:51:55.365Z,,0,,,NaN,,,,,,false,,,,296180.7999999523,296180.7000000477,,296180.5,,296129.245,8,400,,,
break_continue,html.Screen,4_20_2,2023-09-08T19:51:55.365Z,,0,,,NaN,,,,,,false,,,,296181,296181,,296180.90000009537,,296129.245,8,400,,,
sequence,flow.Sequence,4_20,2023-09-08T19:51:55.365Z,,0,,,6914.974999999977,completion,,,,,false,,,,296181.09999990463,296181,289249.271,289313.5,289266.025,296129.245,8,400,,,
trial,html.Screen,4_21_0,2023-09-08T19:52:02.254Z,,0,1,,6940.554999952321,response,ISIC_0033186.JPG,5,ISIC_0011295.JPG,ISIC_0011295.JPG,false,0,keypress(z),500,303070,303069.7999999523,296112.694,296181.2000000477,296129.245,303026.047,8,400,22,,ISIC_0033186.JPG
break,html.Screen,4_21_1,2023-09-08T19:52:02.254Z,,0,,,NaN,,,,,,false,,,,303070.2000000477,303070.2000000477,,303070,,303026.047,8,400,,,
break_continue,html.Screen,4_21_2,2023-09-08T19:52:02.254Z,,0,,,NaN,,,,,,false,,,,303070.40000009537,303070.40000009537,,303070.2999999523,,303026.047,8,400,,,
sequence,flow.Sequence,4_21,2023-09-08T19:52:02.254Z,,0,,,6941.155000095372,completion,,,,,false,,,,303070.5,303070.40000009537,296112.694,296181.09999990463,296129.245,303026.047,8,400,,,
trial,html.Screen,4_22_0,2023-09-08T19:52:08.528Z,,0,1,,6318.052999904612,response,ISIC_8692006.JPG,6,ISIC_0067521.JPG,ISIC_0067521.JPG,false,0,keypress(z),500,309344.09999990463,309344.09999990463,303009.522,303070.59999990463,303026.047,309288.188,8,400,23,,ISIC_8692006.JPG
break,html.Screen,4_22_1,2023-09-08T19:52:08.528Z,,0,,,NaN,,,,,,false,,,,309344.5,309344.40000009537,,309344.2999999523,,309288.188,8,400,,,
break_continue,html.Screen,4_22_2,2023-09-08T19:52:08.529Z,,0,,,NaN,,,,,,false,,,,309344.7000000477,309344.59999990463,,309344.5,,309288.188,8,400,,,
sequence,flow.Sequence,4_22,2023-09-08T19:52:08.529Z,,0,,,6318.552999904612,completion,,,,,false,,,,309344.7000000477,309344.59999990463,303009.522,303070.59999990463,303026.047,309288.188,8,400,,,
trial,html.Screen,4_23_0,2023-09-08T19:52:14.966Z,,0,1,,6493.411999904609,response,ISIC_0032604.JPG,5,ISIC_7694028.JPG,ISIC_0032604.JPG,false,1,keypress(m),500,315781.7000000477,315781.59999990463,309271.475,309344.7000000477,309288.188,315734.179,8,400,24,,ISIC_7694028.JPG
break,html.Screen,4_23_1,2023-09-08T19:52:14.966Z,,0,,,NaN,,,,,,false,,,,315782.40000009537,315782.2000000477,,315782,,315734.179,8,400,,,
break_continue,html.Screen,4_23_2,2023-09-08T19:52:14.967Z,,0,,,NaN,,,,,,false,,,,315782.7000000477,315782.59999990463,,315782.5,,315734.179,8,400,,,
sequence,flow.Sequence,4_23,2023-09-08T19:52:14.967Z,,0,,,6494.411999904609,completion,,,,,false,,,,315782.90000009537,315782.59999990463,309271.475,309344.7000000477,309288.188,315734.179,8,400,,,
trial,html.Screen,4_24_0,2023-09-08T19:52:21.817Z,,0,1,,6898.420999904629,response,ISIC_0001745.JPG,5,ISIC_9312164.JPG,ISIC_9312164.JPG,false,0,keypress(z),500,322632.7999999523,322632.59999990463,315717.377,315783,315734.179,322580.743,8,400,25,,ISIC_0001745.JPG
break,html.Screen,4_24_1,2023-09-08T19:52:21.818Z,,0,,,NaN,,,,,,false,,,,322633.2999999523,322633.2000000477,,322632.90000009537,,322580.743,8,400,,,
break_continue,html.Screen,4_24_2,2023-09-08T19:52:21.818Z,,0,,,NaN,,,,,,false,,,,322633.7000000477,322633.59999990463,,322633.40000009537,,322580.743,8,400,,,
sequence,flow.Sequence,4_24,2023-09-08T19:52:21.818Z,,0,,,6899.420999904629,completion,,,,,false,,,,322633.7999999523,322633.59999990463,315717.377,315782.90000009537,315734.179,322580.743,8,400,,,
trial,html.Screen,4_25_0,2023-09-08T19:52:27.147Z,,0,1,,5382.356999904616,response,ISIC_6188574.JPG,5,ISIC_7185036.JPG,ISIC_7185036.JPG,false,0,keypress(z),500,327963.2000000477,327963.09999990463,322564.078,322633.90000009537,322580.743,327907.791,8,400,26,,ISIC_6188574.JPG
break,html.Screen,4_25_1,2023-09-08T19:52:27.148Z,,0,,,NaN,,,,,,false,,,,327963.59999990463,327963.5,,327963.2999999523,,327907.791,8,400,,,
break_continue,html.Screen,4_25_2,2023-09-08T19:52:27.148Z,,0,,,NaN,,,,,,false,,,,327963.90000009537,327963.7999999523,,327963.59999990463,,327907.791,8,400,,,
sequence,flow.Sequence,4_25,2023-09-08T19:52:27.148Z,,0,,,5383.0569999522995,completion,,,,,false,,,,327963.90000009537,327963.7999999523,322564.078,322633.90000009537,322580.743,327907.791,8,400,,,
trial,html.Screen,4_26_0,2023-09-08T19:52:32.529Z,,0,1,,5436.2089999999735,response,ISIC_0027190.JPG,5,ISIC_0056364.JPG,ISIC_0027190.JPG,false,1,keypress(m),500,333344.40000009537,333344,327891.058,327964,327907.791,333301.654,8,400,27,,ISIC_0056364.JPG
break,html.Screen,4_26_1,2023-09-08T19:52:32.530Z,,0,,,NaN,,,,,,false,,,,333345.7000000477,333345.2999999523,,333344.90000009537,,333301.654,8,400,,,
break_continue,html.Screen,4_26_2,2023-09-08T19:52:32.531Z,,0,,,NaN,,,,,,false,,,,333346.40000009537,333346.2999999523,,333346,,333301.654,8,400,,,
sequence,flow.Sequence,4_26,2023-09-08T19:52:32.531Z,,0,,,5438.50899995229,completion,,,,,false,,,,333346.90000009537,333346.2999999523,327891.058,327963.90000009537,327907.791,333301.654,8,400,,,
trial,html.Screen,4_27_0,2023-09-08T19:52:39.515Z,,0,1,,7028.645999952336,response,ISIC_4607215.JPG,5,ISIC_2089231.JPG,ISIC_2089231.JPG,false,0,keypress(z),500,340330.40000009537,340330.2999999523,333284.939,333347.2000000477,333301.654,340281.931,8,400,28,,ISIC_4607215.JPG
break,html.Screen,4_27_1,2023-09-08T19:52:39.515Z,,0,,,NaN,,,,,,false,,,,340330.7000000477,340330.59999990463,,340330.40000009537,,340281.931,8,400,,,
break_continue,html.Screen,4_27_2,2023-09-08T19:52:39.515Z,,0,,,NaN,,,,,,false,,,,340330.7999999523,340330.7000000477,,340330.7000000477,,340281.931,8,400,,,
sequence,flow.Sequence,4_27,2023-09-08T19:52:39.515Z,,0,,,7029.046000047703,completion,,,,,false,,,,340330.7999999523,340330.7000000477,333284.939,333347.09999990463,333301.654,340281.931,8,400,,,
trial,html.Screen,4_28_0,2023-09-08T19:52:44.191Z,,0,1,,4724.368999952334,response,ISIC_4045323.JPG,4,ISIC_9375324.JPG,ISIC_4045323.JPG,false,1,keypress(m),500,345006.59999990463,345006.2999999523,340265.201,340331,340281.931,344957.698,8,400,29,,ISIC_9375324.JPG
break,html.Screen,4_28_1,2023-09-08T19:52:44.192Z,,0,,,NaN,,,,,,false,,,,345007.7999999523,345007.5,,345007,,344957.698,8,400,,,
break_continue,html.Screen,4_28_2,2023-09-08T19:52:44.193Z,,0,,,NaN,,,,,,false,,,,345008.7999999523,345008.5,,345008.2999999523,,344957.698,8,400,,,
sequence,flow.Sequence,4_28,2023-09-08T19:52:44.193Z,,0,,,4726.569000000018,completion,,,,,false,,,,345009.09999990463,345008.5,340265.201,340331,340281.931,344957.698,8,400,,,
trial,html.Screen,4_29_0,2023-09-08T19:52:51.492Z,,0,1,,7349.901999904658,response,ISIC_0026795.JPG,5,ISIC_5919355.JPG,ISIC_0026795.JPG,false,1,keypress(m),500,352307.90000009537,352307.59999990463,344941.035,345009.40000009537,344957.698,352255.254,8,400,30,,ISIC_5919355.JPG
break,html.Screen,4_29_1,2023-09-08T19:52:51.493Z,,0,,,NaN,,,,,,false,,,,352309.09999990463,352308.59999990463,,352308.2000000477,,352255.254,8,400,,,
break_continue,html.Screen,4_29_2,2023-09-08T19:52:51.494Z,,0,,,NaN,,,,,,false,,,,352309.5,352309.40000009537,,352309.2000000477,,352255.254,8,400,,,
sequence,flow.Sequence,4_29,2023-09-08T19:52:51.494Z,,0,,,7351.702000095393,completion,,,,,false,,,,352309.7000000477,352309.40000009537,344941.035,345009.2999999523,344957.698,352255.254,8,400,,,
trial,html.Screen,4_30_0,2023-09-08T19:52:57.178Z,,0,1,,5738.245999999985,response,ISIC_0010822.JPG,6,ISIC_9103090.JPG,ISIC_9103090.JPG,false,0,keypress(z),500,357993.7000000477,357993.5,352238.56,352309.90000009537,352255.254,357949.641,8,400,31,,ISIC_0010822.JPG
break,html.Screen,4_30_1,2023-09-08T19:52:57.179Z,,0,,,NaN,,,,,,false,,,,357994.7000000477,357994.40000009537,,357994.09999990463,,357949.641,8,400,,,
break_continue,html.Screen,4_30_2,2023-09-08T19:52:57.179Z,,0,,,NaN,,,,,,false,,,,357995.09999990463,357995,,357994.7999999523,,357949.641,8,400,,,
sequence,flow.Sequence,4_30,2023-09-08T19:52:57.180Z,,0,,,5739.745999999985,completion,,,,,false,,,,357995.40000009537,357995,352238.56,352309.90000009537,352255.254,357949.641,8,400,,,
trial,html.Screen,4_31_0,2023-09-08T19:53:04.015Z,,0,1,,6880.759000095364,response,ISIC_0010883.JPG,6,ISIC_8002729.JPG,ISIC_0010883.JPG,false,1,keypress(m),500,364830.7000000477,364830.40000009537,357933.109,357995.5,357949.641,364779.555,8,400,32,,ISIC_8002729.JPG
break,html.Screen,4_31_1,2023-09-08T19:53:04.016Z,,0,,,NaN,,,,,,false,,,,364831.5,364831.2999999523,,364830.90000009537,,364779.555,8,400,,,
break_continue,html.Screen,4_31_2,2023-09-08T19:53:04.016Z,,0,,,NaN,,,,,,false,,,,364831.90000009537,364831.7999999523,,364831.7000000477,,364779.555,8,400,,,
sequence,flow.Sequence,4_31,2023-09-08T19:53:04.016Z,,0,,,6882.158999952313,completion,,,,,false,,,,364832.09999990463,364831.7999999523,357933.109,357995.40000009537,357949.641,364779.555,8,400,,,
trial,html.Screen,4_32_0,2023-09-08T19:53:08.852Z,,0,1,,4887.744999952323,response,ISIC_0055727.JPG,5,ISIC_9354604.JPG,ISIC_0055727.JPG,false,1,keypress(m),500,369667.59999990463,369667.2999999523,364762.896,364832.2000000477,364779.555,369622.343,8,400,33,,ISIC_9354604.JPG
break,html.Screen,4_32_1,2023-09-08T19:53:08.853Z,,0,,,NaN,,,,,,false,,,,369668.5,369668.2999999523,,369667.90000009537,,369622.343,8,400,,,
break_continue,html.Screen,4_32_2,2023-09-08T19:53:08.853Z,,0,,,NaN,,,,,,false,,,,369668.90000009537,369668.7999999523,,369668.59999990463,,369622.343,8,400,,,
sequence,flow.Sequence,4_32,2023-09-08T19:53:08.853Z,,0,,,4889.244999952323,completion,,,,,false,,,,369669.09999990463,369668.7999999523,364762.896,364832.2000000477,364779.555,369622.343,8,400,,,
trial,html.Screen,4_33_0,2023-09-08T19:53:15.399Z,,0,1,,6592.256999904639,response,ISIC_7235128.JPG,5,ISIC_0025093.JPG,ISIC_7235128.JPG,false,1,keypress(m),500,376214.7000000477,376214.59999990463,369605.72,369669.5,369622.343,376168.354,8,400,34,,ISIC_0025093.JPG
break,html.Screen,4_33_1,2023-09-08T19:53:15.399Z,,0,,,NaN,,,,,,false,,,,376215.2000000477,376215.09999990463,,376214.90000009537,,376168.354,8,400,,,
break_continue,html.Screen,4_33_2,2023-09-08T19:53:15.400Z,,0,,,NaN,,,,,,false,,,,376215.40000009537,376215.2999999523,,376215.2000000477,,376168.354,8,400,,,
sequence,flow.Sequence,4_33,2023-09-08T19:53:15.400Z,,0,,,6592.956999952323,completion,,,,,false,,,,376215.5,376215.2999999523,369605.72,369669.40000009537,369622.343,376168.354,8,400,,,
trial,html.Screen,4_34_0,2023-09-08T19:53:21.602Z,,0,1,,6248.646000000008,response,ISIC_0058376.JPG,5,ISIC_0034246.JPG,ISIC_0058376.JPG,false,1,keypress(m),500,382417.40000009537,382417,376151.616,376215.59999990463,376168.354,382363.859,8,400,35,,ISIC_0034246.JPG
break,html.Screen,4_34_1,2023-09-08T19:53:21.603Z,,0,,,NaN,,,,,,false,,,,382418.59999990463,382418.2999999523,,382417.7999999523,,382363.859,8,400,,,
break_continue,html.Screen,4_34_2,2023-09-08T19:53:21.604Z,,0,,,NaN,,,,,,false,,,,382419.2000000477,382419,,382418.90000009537,,382363.859,8,400,,,
sequence,flow.Sequence,4_34,2023-09-08T19:53:21.604Z,,0,,,6250.646000000008,completion,,,,,false,,,,382419.59999990463,382419,376151.616,376215.5,376168.354,382363.859,8,400,,,
trial,html.Screen,4_35_0,2023-09-08T19:53:27.130Z,,0,1,,5582.041000095371,response,ISIC_0061559.JPG,5,ISIC_0005639.JPG,ISIC_0061559.JPG,false,1,keypress(m),500,387946.09999990463,387945.90000009537,382347.115,382419.7999999523,382363.859,387891.198,8,400,36,,ISIC_0005639.JPG
break,html.Screen,4_35_1,2023-09-08T19:53:27.131Z,,0,,,NaN,,,,,,false,,,,387946.40000009537,387946.2999999523,,387946.09999990463,,387891.198,8,400,,,
break_continue,html.Screen,4_35_2,2023-09-08T19:53:27.131Z,,0,,,NaN,,,,,,false,,,,387946.59999990463,387946.5,,387946.40000009537,,387891.198,8,400,,,
sequence,flow.Sequence,4_35,2023-09-08T19:53:27.131Z,,0,,,5582.641000000003,completion,,,,,false,,,,387946.7000000477,387946.5,382347.115,382419.7000000477,382363.859,387891.198,8,400,,,
trial,html.Screen,4_36_0,2023-09-08T19:53:34.753Z,,0,1,,7676.901999904658,response,ISIC_1336351.JPG,5,ISIC_0011645.JPG,ISIC_0011645.JPG,false,0,keypress(z),500,395568.40000009537,395568.09999990463,387874.582,387946.7000000477,387891.198,395522.695,8,400,37,,ISIC_1336351.JPG
break,html.Screen,4_36_1,2023-09-08T19:53:34.754Z,,0,,,NaN,,,,,,false,,,,395569.09999990463,395569,,395568.7000000477,,395522.695,8,400,,,
break_continue,html.Screen,4_36_2,2023-09-08T19:53:34.754Z,,0,,,NaN,,,,,,false,,,,395569.59999990463,395569.40000009537,,395569.2999999523,,395522.695,8,400,,,
sequence,flow.Sequence,4_36,2023-09-08T19:53:34.754Z,,0,,,7678.202000095393,completion,,,,,false,,,,395569.59999990463,395569.40000009537,387874.582,387946.7000000477,387891.198,395522.695,8,400,,,
trial,html.Screen,4_37_0,2023-09-08T19:53:41.765Z,,0,1,,7057.20500009536,response,ISIC_9556334.JPG,5,ISIC_0010098.JPG,ISIC_0010098.JPG,false,0,keypress(z),500,402580.09999990463,402579.90000009537,395506.146,395569.7999999523,395522.695,402536.411,8,400,38,,ISIC_9556334.JPG
break,html.Screen,4_37_1,2023-09-08T19:53:41.765Z,,0,,,NaN,,,,,,false,,,,402581.09999990463,402580.7000000477,,402580.40000009537,,402536.411,8,400,,,
break_continue,html.Screen,4_37_2,2023-09-08T19:53:41.766Z,,0,,,NaN,,,,,,false,,,,402581.40000009537,402581.2999999523,,402581.2000000477,,402536.411,8,400,,,
sequence,flow.Sequence,4_37,2023-09-08T19:53:41.766Z,,0,,,7058.604999952309,completion,,,,,false,,,,402581.59999990463,402581.2999999523,395506.146,395569.7000000477,395522.695,402536.411,8,400,,,
trial,html.Screen,4_38_0,2023-09-08T19:53:47.243Z,,0,1,,5522.188999904611,response,ISIC_0031763.JPG,5,ISIC_2991354.JPG,ISIC_0031763.JPG,false,1,keypress(m),500,408058.7000000477,408058.59999990463,402519.813,402581.7000000477,402536.411,408013.704,8,400,39,,ISIC_2991354.JPG
break,html.Screen,4_38_1,2023-09-08T19:53:47.243Z,,0,,,NaN,,,,,,false,,,,408059.09999990463,408059,,408058.90000009537,,408013.704,8,400,,,
break_continue,html.Screen,4_38_2,2023-09-08T19:53:47.244Z,,0,,,NaN,,,,,,false,,,,408059.2000000477,408059.2000000477,,408059.09999990463,,408013.704,8,400,,,
sequence,flow.Sequence,4_38,2023-09-08T19:53:47.244Z,,0,,,5522.789000047662,completion,,,,,false,,,,408059.2999999523,408059.2000000477,402519.813,402581.7000000477,402536.411,408013.704,8,400,,,
trial,html.Screen,4_39_0,2023-09-08T19:53:54.720Z,,0,1,,7521.795999999973,response,ISIC_0027842.JPG,5,ISIC_0000030.JPG,ISIC_0000030.JPG,false,0,keypress(z),500,415535.59999990463,415535.5,407997.046,408059.2999999523,408013.704,415478.176,8,400,40,,ISIC_0027842.JPG
break,html.Screen,4_39_1,2023-09-08T19:53:54.720Z,,0,,,NaN,,,,,,false,,,,415535.90000009537,415535.7999999523,,415535.7999999523,,415478.176,8,400,,,
break_continue,html.Screen,4_39_2,2023-09-08T19:53:54.721Z,,0,,,NaN,,,,,,false,,,,415536.2000000477,415536.2000000477,,415536,,415478.176,8,400,,,
sequence,flow.Sequence,4_39,2023-09-08T19:53:54.721Z,,0,,,7522.496000047657,completion,,,,,false,,,,415536.2999999523,415536.2000000477,407997.046,408059.2999999523,408013.704,415478.176,8,400,,,
trial,html.Screen,4_40_0,2023-09-08T19:53:59.096Z,,0,1,,4433.72400009539,response,ISIC_9028726.JPG,4,ISIC_0060558.JPG,ISIC_0060558.JPG,false,0,keypress(z),500,419912,419911.90000009537,415461.68,415536.40000009537,415478.176,419870.061,8,400,41,,ISIC_9028726.JPG
break,html.Screen,4_40_1,2023-09-08T19:53:59.097Z,,0,,,NaN,,,,,,false,,,,419912.5,419912.40000009537,,419912.09999990463,,419870.061,8,400,,,
break_continue,html.Screen,4_40_2,2023-09-08T19:53:59.097Z,,0,,,NaN,,,,,,false,,,,419912.7999999523,419912.7000000477,,419912.59999990463,,419870.061,8,400,,,
sequence,flow.Sequence,4_40,2023-09-08T19:53:59.097Z,,0,,,4434.524000047706,completion,,,,,false,,,,419913,419912.7000000477,415461.68,415536.40000009537,415478.176,419870.061,8,400,,,
trial,html.Screen,4_41_0,2023-09-08T19:54:08.637Z,,0,1,,9582.538999904646,response,ISIC_0027872.JPG,4,ISIC_8956001.JPG,ISIC_0027872.JPG,false,1,keypress(m),500,429452.7000000477,429452.59999990463,419853.381,419913.09999990463,419870.061,429405.285,8,400,42,,ISIC_8956001.JPG
break,html.Screen,4_41_1,2023-09-08T19:54:08.637Z,,0,,,NaN,,,,,,false,,,,429453,429452.90000009537,,429452.7999999523,,429405.285,8,400,,,
break_continue,html.Screen,4_41_2,2023-09-08T19:54:08.638Z,,0,,,NaN,,,,,,false,,,,429453.2000000477,429453.09999990463,,429453,,429405.285,8,400,,,
sequence,flow.Sequence,4_41,2023-09-08T19:54:08.638Z,,0,,,9583.038999904646,completion,,,,,false,,,,429453.2999999523,429453.09999990463,419853.381,419913,419870.061,429405.285,8,400,,,
trial,html.Screen,4_42_0,2023-09-08T19:54:15.024Z,,0,1,,6433.715000000026,response,ISIC_0032812.JPG,4,ISIC_0053554.JPG,ISIC_0032812.JPG,false,1,keypress(m),500,435839.2999999523,435839,429388.593,429453.2999999523,429405.285,435784.454,8,400,43,,ISIC_0053554.JPG
break,html.Screen,4_42_1,2023-09-08T19:54:15.025Z,,0,,,NaN,,,,,,false,,,,435840.2000000477,435839.90000009537,,435839.59999990463,,435784.454,8,400,,,
break_continue,html.Screen,4_42_2,2023-09-08T19:54:15.025Z,,0,,,NaN,,,,,,false,,,,435840.59999990463,435840.40000009537,,435840.2000000477,,435784.454,8,400,,,
sequence,flow.Sequence,4_42,2023-09-08T19:54:15.025Z,,0,,,6435.115000095393,completion,,,,,false,,,,435840.7999999523,435840.40000009537,429388.593,429453.2999999523,429405.285,435784.454,8,400,,,
trial,html.Screen,4_43_0,2023-09-08T19:54:20.536Z,,0,1,,5567.145999904606,response,ISIC_0064964.JPG,5,ISIC_0027472.JPG,ISIC_0027472.JPG,false,0,keypress(z),500,441351.7000000477,441351.59999990463,435767.66,435840.90000009537,435784.454,441295.102,8,400,44,,ISIC_0064964.JPG
break,html.Screen,4_43_1,2023-09-08T19:54:20.537Z,,0,,,NaN,,,,,,false,,,,441352,441351.90000009537,,441351.7999999523,,441295.102,8,400,,,
break_continue,html.Screen,4_43_2,2023-09-08T19:54:20.537Z,,0,,,NaN,,,,,,false,,,,441352.2000000477,441352.2000000477,,441352.09999990463,,441295.102,8,400,,,
sequence,flow.Sequence,4_43,2023-09-08T19:54:20.537Z,,0,,,5567.746000047657,completion,,,,,false,,,,441352.40000009537,441352.2000000477,435767.66,435840.7999999523,435784.454,441295.102,8,400,,,
trial,html.Screen,4_44_0,2023-09-08T19:54:27.632Z,,0,1,,7152.3979999999865,response,ISIC_0786233.JPG,6,ISIC_0008424.JPG,ISIC_0786233.JPG,false,1,keypress(m),500,448447.59999990463,448447.5,441278.482,441352.40000009537,441295.102,448392.28,8,400,45,,ISIC_0008424.JPG
break,html.Screen,4_44_1,2023-09-08T19:54:27.633Z,,0,,,NaN,,,,,,false,,,,448447.90000009537,448447.90000009537,,448447.7999999523,,448392.28,8,400,,,
break_continue,html.Screen,4_44_2,2023-09-08T19:54:27.633Z,,0,,,NaN,,,,,,false,,,,448448.40000009537,448448.2000000477,,448448.09999990463,,448392.28,8,400,,,
sequence,flow.Sequence,4_44,2023-09-08T19:54:27.633Z,,0,,,7153.09800004767,completion,,,,,false,,,,448448.5,448448.2000000477,441278.482,441352.40000009537,441295.102,448392.28,8,400,,,
trial,html.Screen,4_45_0,2023-09-08T19:54:33.090Z,,0,1,,5513.219999999972,response,ISIC_5031549.JPG,4,ISIC_0627979.JPG,ISIC_0627979.JPG,false,0,keypress(z),500,453905.7000000477,453905.5,448375.54,448448.5,448392.28,453852.882,8,400,46,,ISIC_5031549.JPG
break,html.Screen,4_45_1,2023-09-08T19:54:33.091Z,,0,,,NaN,,,,,,false,,,,453906.7999999523,453906.59999990463,,453906.2999999523,,453852.882,8,400,,,
break_continue,html.Screen,4_45_2,2023-09-08T19:54:33.092Z,,0,,,NaN,,,,,,false,,,,453906.90000009537,453906.90000009537,,453906.7999999523,,453852.882,8,400,,,
sequence,flow.Sequence,4_45,2023-09-08T19:54:33.092Z,,0,,,5514.6200000953395,completion,,,,,false,,,,453907,453906.90000009537,448375.54,448448.5,448392.28,453852.882,8,400,,,
trial,html.Screen,4_46_0,2023-09-08T19:54:39.804Z,,0,1,,6766.118000000017,response,ISIC_0067120.JPG,5,ISIC_0030333.JPG,ISIC_0030333.JPG,false,0,keypress(z),500,460619.2999999523,460619,453836.184,453907,453852.882,460566.042,8,400,47,,ISIC_0067120.JPG
break,html.Screen,4_46_1,2023-09-08T19:54:39.805Z,,0,,,NaN,,,,,,false,,,,460620.5,460620.2000000477,,460619.7000000477,,460566.042,8,400,,,
break_continue,html.Screen,4_46_2,2023-09-08T19:54:39.806Z,,0,,,NaN,,,,,,false,,,,460621.2999999523,460621.09999990463,,460620.7999999523,,460566.042,8,400,,,
sequence,flow.Sequence,4_46,2023-09-08T19:54:39.806Z,,0,,,6768.217999904649,completion,,,,,false,,,,460621.59999990463,460621.09999990463,453836.184,453907,453852.882,460566.042,8,400,,,
trial,html.Screen,4_47_0,2023-09-08T19:54:46.337Z,,0,1,,6586.158000047668,response,ISIC_1782911.JPG,4,ISIC_8629635.JPG,ISIC_8629635.JPG,false,0,keypress(z),500,467152.40000009537,467152.2000000477,460549.445,460621.90000009537,460566.042,467095.302,8,400,48,,ISIC_1782911.JPG
break,html.Screen,4_47_1,2023-09-08T19:54:46.337Z,,0,,,NaN,,,,,,false,,,,467152.7000000477,467152.59999990463,,467152.40000009537,,467095.302,8,400,,,
break_continue,html.Screen,4_47_2,2023-09-08T19:54:46.337Z,,0,,,NaN,,,,,,false,,,,467152.7999999523,467152.7999999523,,467152.7000000477,,467095.302,8,400,,,
sequence,flow.Sequence,4_47,2023-09-08T19:54:46.337Z,,0,,,6586.7579999523,completion,,,,,false,,,,467152.90000009537,467152.7999999523,460549.445,460621.7000000477,460566.042,467095.302,8,400,,,
trial,html.Screen,4_48_0,2023-09-08T19:54:52.531Z,,0,1,,6250.398000047659,response,ISIC_7630831.JPG,5,ISIC_3110909.JPG,ISIC_3110909.JPG,false,0,keypress(z),500,473346,473345.7000000477,467078.629,467152.90000009537,467095.302,473290.821,8,400,49,,ISIC_7630831.JPG
break,html.Screen,4_48_1,2023-09-08T19:54:52.532Z,,0,,,NaN,,,,,,false,,,,473347,473346.7000000477,,473346.2000000477,,473290.821,8,400,,,
break_continue,html.Screen,4_48_2,2023-09-08T19:54:52.532Z,,0,,,NaN,,,,,,false,,,,473347.40000009537,473347.2000000477,,473347.09999990463,,473290.821,8,400,,,
sequence,flow.Sequence,4_48,2023-09-08T19:54:52.532Z,,0,,,6251.898000047659,completion,,,,,false,,,,473347.7000000477,473347.2000000477,467078.629,467152.90000009537,467095.302,473290.821,8,400,,,
trial,html.Screen,4_49_0,2023-09-08T19:54:58.694Z,,0,1,,6218.079000095371,response,ISIC_0063493.JPG,6,ISIC_0027832.JPG,ISIC_0027832.JPG,false,0,keypress(z),500,479509,479508.90000009537,473274.161,473347.7999999523,473290.821,479452.714,8,400,50,,ISIC_0063493.JPG
break,html.Screen,4_49_1,2023-09-08T19:55:08.683Z,,0,,,10002.835000000021,timeout,,,,,false,,,,489498.2000000477,489438.79,479436.174,479509.09999990463,479452.714,489455.549,8,400,,,
break_continue,html.Screen,4_49_2,2023-09-08T19:55:09.371Z,,0,,,725.4510000000009,response,,,,,false,continue,keypress(Space),,490186.59999990463,490181,489438.79,489498.2999999523,489455.549,490156.836,8,400,,,
sequence,flow.Sequence,4_49,2023-09-08T19:55:09.371Z,,0,,,16890.179000000004,completion,,,,,false,,,,490186.7000000477,490181,473274.161,473347.7000000477,473290.821,490156.836,8,400,,,
trial,html.Screen,4_50_0,2023-09-08T19:55:14.756Z,,0,2,,5414.763999904622,response,ISIC_5934948.JPG,5,ISIC_0068447.JPG,ISIC_0068447.JPG,false,0,keypress(z),500,495571.59999990463,495571.59999990463,490140.167,490186.7999999523,490156.836,495517.255,8,400,1,,ISIC_5934948.JPG
break,html.Screen,4_50_1,2023-09-08T19:55:14.757Z,,0,,,NaN,,,,,,false,,,,495572.09999990463,495571.90000009537,,495571.7000000477,,495517.255,8,400,,,
break_continue,html.Screen,4_50_2,2023-09-08T19:55:14.757Z,,0,,,NaN,,,,,,false,,,,495572.2999999523,495572.2000000477,,495572.09999990463,,495517.255,8,400,,,
sequence,flow.Sequence,4_50,2023-09-08T19:55:14.757Z,,0,,,5415.3640000476735,completion,,,,,false,,,,495572.2999999523,495572.2000000477,490140.167,490186.7000000477,490156.836,495517.255,8,400,,,
trial,html.Screen,4_51_0,2023-09-08T19:55:18.682Z,,0,2,,3979.7449999999953,response,ISIC_0014745.JPG,5,ISIC_0004099.JPG,ISIC_0014745.JPG,false,1,keypress(m),500,499497.2000000477,499497,495500.743,495572.40000009537,495517.255,499441.637,8,400,2,,ISIC_0004099.JPG
break,html.Screen,4_51_1,2023-09-08T19:55:18.683Z,,0,,,NaN,,,,,,false,,,,499497.7999999523,499497.7000000477,,499497.40000009537,,499441.637,8,400,,,
break_continue,html.Screen,4_51_2,2023-09-08T19:55:18.683Z,,0,,,NaN,,,,,,false,,,,499498.2999999523,499498.2000000477,,499498,,499441.637,8,400,,,
sequence,flow.Sequence,4_51,2023-09-08T19:55:18.683Z,,0,,,3980.945000047679,completion,,,,,false,,,,499498.5,499498.2000000477,495500.743,495572.2999999523,495517.255,499441.637,8,400,,,
trial,html.Screen,4_52_0,2023-09-08T19:55:23.521Z,,0,2,,4894.462999904645,response,ISIC_0011956.JPG,5,ISIC_8176449.JPG,ISIC_8176449.JPG,false,0,keypress(z),500,504336.2999999523,504336.09999990463,499424.911,499498.59999990463,499441.637,504284.365,8,400,3,,ISIC_0011956.JPG
break,html.Screen,4_52_1,2023-09-08T19:55:23.522Z,,0,,,NaN,,,,,,false,,,,504336.7999999523,504336.59999990463,,504336.5,,504284.365,8,400,,,
break_continue,html.Screen,4_52_2,2023-09-08T19:55:23.522Z,,0,,,NaN,,,,,,false,,,,504337.2000000477,504337.09999990463,,504336.90000009537,,504284.365,8,400,,,
sequence,flow.Sequence,4_52,2023-09-08T19:55:23.522Z,,0,,,4895.462999904645,completion,,,,,false,,,,504337.2999999523,504337.09999990463,499424.911,499498.59999990463,499441.637,504284.365,8,400,,,
trial,html.Screen,4_53_0,2023-09-08T19:55:28.293Z,,0,2,,4824.035000095377,response,ISIC_0029397.JPG,6,ISIC_0015200.JPG,ISIC_0015200.JPG,false,0,keypress(z),500,509108.7000000477,509108.40000009537,504267.786,504337.5,504284.365,509060.481,8,400,4,,ISIC_0029397.JPG
break,html.Screen,4_53_1,2023-09-08T19:55:28.294Z,,0,,,NaN,,,,,,false,,,,509109.5,509109.40000009537,,509108.90000009537,,509060.481,8,400,,,
break_continue,html.Screen,4_53_2,2023-09-08T19:55:28.295Z,,0,,,NaN,,,,,,false,,,,509110,509109.7999999523,,509109.7999999523,,509060.481,8,400,,,
sequence,flow.Sequence,4_53,2023-09-08T19:55:28.295Z,,0,,,4825.434999952326,completion,,,,,false,,,,509110.2000000477,509109.7999999523,504267.786,504337.5,504284.365,509060.481,8,400,,,
trial,html.Screen,4_54_0,2023-09-08T19:55:32.539Z,,0,2,,4293.518999999971,response,ISIC_8732757.JPG,5,ISIC_0178370.JPG,ISIC_0178370.JPG,false,0,keypress(z),500,513354.09999990463,513354,509043.657,509110.40000009537,509060.481,513301.886,8,400,5,,ISIC_8732757.JPG
break,html.Screen,4_54_1,2023-09-08T19:55:32.539Z,,0,,,NaN,,,,,,false,,,,513354.40000009537,513354.40000009537,,513354.2000000477,,513301.886,8,400,,,
break_continue,html.Screen,4_54_2,2023-09-08T19:55:32.539Z,,0,,,NaN,,,,,,false,,,,513354.59999990463,513354.5,,513354.5,,513301.886,8,400,,,
sequence,flow.Sequence,4_54,2023-09-08T19:55:32.539Z,,0,,,4294.018999999971,completion,,,,,false,,,,513354.7000000477,513354.5,509043.657,509110.40000009537,509060.481,513301.886,8,400,,,
trial,html.Screen,4_55_0,2023-09-08T19:55:37.614Z,,0,2,,5126.814000047685,response,ISIC_7912183.JPG,4,ISIC_7697022.JPG,ISIC_7912183.JPG,false,1,keypress(m),500,518428.90000009537,518428.7000000477,513285.205,513354.7000000477,513301.886,518378.442,8,400,6,,ISIC_7697022.JPG
break,html.Screen,4_55_1,2023-09-08T19:55:37.614Z,,0,,,NaN,,,,,,false,,,,518429.5,518429.2999999523,,518429.09999990463,,518378.442,8,400,,,
break_continue,html.Screen,4_55_2,2023-09-08T19:55:37.614Z,,0,,,NaN,,,,,,false,,,,518429.7000000477,518429.7000000477,,518429.59999990463,,518378.442,8,400,,,
sequence,flow.Sequence,4_55,2023-09-08T19:55:37.615Z,,0,,,5127.814000047685,completion,,,,,false,,,,518429.90000009537,518429.7000000477,513285.205,513354.7000000477,513301.886,518378.442,8,400,,,
trial,html.Screen,4_56_0,2023-09-08T19:55:44.593Z,,0,2,,7029.758000047703,response,ISIC_0046773.JPG,6,ISIC_0057858.JPG,ISIC_0046773.JPG,false,1,keypress(m),500,525408.4000000954,525408.2000000477,518361.753,518430,518378.442,525358.688,8,400,7,,ISIC_0057858.JPG
break,html.Screen,4_56_1,2023-09-08T19:55:44.594Z,,0,,,NaN,,,,,,false,,,,525409.2999999523,525409.0999999046,,525408.7000000477,,525358.688,8,400,,,
break_continue,html.Screen,4_56_2,2023-09-08T19:55:44.595Z,,0,,,NaN,,,,,,false,,,,525409.7999999523,525409.7000000477,,525409.5,,525358.688,8,400,,,
sequence,flow.Sequence,4_56,2023-09-08T19:55:44.595Z,,0,,,7031.258000047703,completion,,,,,false,,,,525410.0999999046,525409.7000000477,518361.753,518430,518378.442,525358.688,8,400,,,
trial,html.Screen,4_57_0,2023-09-08T19:55:49.446Z,,0,2,,4902.411999904667,response,ISIC_4107250.JPG,5,ISIC_0031821.JPG,ISIC_0031821.JPG,false,0,keypress(z),500,530261.4000000954,530261.0999999046,525342.175,525410.2000000477,525358.688,530218.231,8,400,8,,ISIC_4107250.JPG
break,html.Screen,4_57_1,2023-09-08T19:55:49.447Z,,0,,,NaN,,,,,,false,,,,530262.7000000477,530262.0999999046,,530261.7000000477,,530218.231,8,400,,,
break_continue,html.Screen,4_57_2,2023-09-08T19:55:49.448Z,,0,,,NaN,,,,,,false,,,,530263.2000000477,530263,,530262.9000000954,,530218.231,8,400,,,
sequence,flow.Sequence,4_57,2023-09-08T19:55:49.448Z,,0,,,4904.3120000000345,completion,,,,,false,,,,530263.2999999523,530263,525342.175,525410.0999999046,525358.688,530218.231,8,400,,,
trial,html.Screen,4_58_0,2023-09-08T19:55:54.107Z,,0,2,,4703.969000047655,response,ISIC_0010719.JPG,5,ISIC_7637091.JPG,ISIC_0010719.JPG,false,1,keypress(m),500,534922.2999999523,534922.2000000477,530201.471,530263.5999999046,530218.231,534877.209,8,400,9,,ISIC_7637091.JPG
break,html.Screen,4_58_1,2023-09-08T19:55:54.107Z,,0,,,NaN,,,,,,false,,,,534922.7000000477,534922.5,,534922.4000000954,,534877.209,8,400,,,
break_continue,html.Screen,4_58_2,2023-09-08T19:55:54.108Z,,0,,,NaN,,,,,,false,,,,534923,534922.9000000954,,534922.7000000477,,534877.209,8,400,,,
sequence,flow.Sequence,4_58,2023-09-08T19:55:54.108Z,,0,,,4704.669000095339,completion,,,,,false,,,,534923.0999999046,534922.9000000954,530201.471,530263.5,530218.231,534877.209,8,400,,,
trial,html.Screen,4_59_0,2023-09-08T19:56:01.277Z,,0,2,,7214.491000047652,response,ISIC_0069210.JPG,6,ISIC_0057898.JPG,ISIC_0069210.JPG,false,1,keypress(m),500,542091.9000000954,542091.7000000477,534860.675,534923.0999999046,534877.209,542041.156,8,400,10,,ISIC_0057898.JPG
break,html.Screen,4_59_1,2023-09-08T19:56:01.277Z,,0,,,NaN,,,,,,false,,,,542092.7000000477,542092.4000000954,,542092.2000000477,,542041.156,8,400,,,
break_continue,html.Screen,4_59_2,2023-09-08T19:56:01.278Z,,0,,,NaN,,,,,,false,,,,542093.0999999046,542093,,542092.9000000954,,542041.156,8,400,,,
sequence,flow.Sequence,4_59,2023-09-08T19:56:01.278Z,,0,,,7215.790999999968,completion,,,,,false,,,,542093.4000000954,542093,534860.675,534923.0999999046,534877.209,542041.156,8,400,,,
trial,html.Screen,4_60_0,2023-09-08T19:56:05.637Z,,0,2,,4410.844000000041,response,ISIC_6532137.JPG,6,ISIC_0060586.JPG,ISIC_0060586.JPG,false,0,keypress(z),500,546452.2999999523,546452,542024.463,542093.5999999046,542041.156,546399.783,8,400,11,,ISIC_6532137.JPG
break,html.Screen,4_60_1,2023-09-08T19:56:05.638Z,,0,,,NaN,,,,,,false,,,,546453.4000000954,546453.2000000477,,546452.7000000477,,546399.783,8,400,,,
break_continue,html.Screen,4_60_2,2023-09-08T19:56:05.639Z,,0,,,NaN,,,,,,false,,,,546454,546453.7000000477,,546453.5999999046,,546399.783,8,400,,,
sequence,flow.Sequence,4_60,2023-09-08T19:56:05.639Z,,0,,,4412.544000047725,completion,,,,,false,,,,546454.2000000477,546453.7000000477,542024.463,542093.5999999046,542041.156,546399.783,8,400,,,
trial,html.Screen,4_61_0,2023-09-08T19:56:10.543Z,,0,2,,4958.41700004763,response,ISIC_0061705.JPG,5,ISIC_2768787.JPG,ISIC_0061705.JPG,false,1,keypress(m),500,551358.4000000954,551358.2000000477,546382.941,546454.5,546399.783,551309.262,8,400,12,,ISIC_2768787.JPG
break,html.Screen,4_61_1,2023-09-08T19:56:10.544Z,,0,,,NaN,,,,,,false,,,,551358.7999999523,551358.7000000477,,551358.5,,551309.262,8,400,,,
break_continue,html.Screen,4_61_2,2023-09-08T19:56:10.544Z,,0,,,NaN,,,,,,false,,,,551359.0999999046,551359,,551358.9000000954,,551309.262,8,400,,,
sequence,flow.Sequence,4_61,2023-09-08T19:56:10.544Z,,0,,,4959.216999999946,completion,,,,,false,,,,551359.2000000477,551359,546382.941,546454.4000000954,546399.783,551309.262,8,400,,,
trial,html.Screen,4_62_0,2023-09-08T19:56:16.994Z,,0,2,,6499.238000000012,response,ISIC_0026296.JPG,5,ISIC_0066001.JPG,ISIC_0066001.JPG,false,0,keypress(z),500,557808.5999999046,557808.5,551292.471,551359.2000000477,551309.262,557755.077,8,400,13,,ISIC_0026296.JPG
break,html.Screen,4_62_1,2023-09-08T19:56:16.994Z,,0,,,NaN,,,,,,false,,,,557809.0999999046,557809,,557808.7999999523,,557755.077,8,400,,,
break_continue,html.Screen,4_62_2,2023-09-08T19:56:16.994Z,,0,,,NaN,,,,,,false,,,,557809.4000000954,557809.2000000477,,557809.2000000477,,557755.077,8,400,,,
sequence,flow.Sequence,4_62,2023-09-08T19:56:16.994Z,,0,,,6499.938000047696,completion,,,,,false,,,,557809.4000000954,557809.2000000477,551292.471,551359.2000000477,551309.262,557755.077,8,400,,,
trial,html.Screen,4_63_0,2023-09-08T19:56:21.828Z,,0,2,,4887.823000095319,response,ISIC_3994656.JPG,5,ISIC_0028025.JPG,ISIC_3994656.JPG,false,1,keypress(m),500,562642.9000000954,562642.9000000954,557738.555,557809.5,557755.077,562597.801,8,400,14,,ISIC_0028025.JPG
break,html.Screen,4_63_1,2023-09-08T19:56:21.828Z,,0,,,NaN,,,,,,false,,,,562643.2999999523,562643.2000000477,,562643,,562597.801,8,400,,,
break_continue,html.Screen,4_63_2,2023-09-08T19:56:21.828Z,,0,,,NaN,,,,,,false,,,,562643.5,562643.4000000954,,562643.2999999523,,562597.801,8,400,,,
sequence,flow.Sequence,4_63,2023-09-08T19:56:21.829Z,,0,,,4888.323000095319,completion,,,,,false,,,,562643.5999999046,562643.4000000954,557738.555,557809.5,557755.077,562597.801,8,400,,,
trial,html.Screen,4_64_0,2023-09-08T19:56:27.974Z,,0,2,,6190.699000000022,response,ISIC_0011348.JPG,5,ISIC_4451735.JPG,ISIC_0011348.JPG,false,1,keypress(m),500,568788.7999999523,568788.5,562581.107,562643.5999999046,562597.801,568743.191,8,400,15,,ISIC_4451735.JPG
break,html.Screen,4_64_1,2023-09-08T19:56:27.975Z,,0,,,NaN,,,,,,false,,,,568789.5999999046,568789.4000000954,,568789.0999999046,,568743.191,8,400,,,
break_continue,html.Screen,4_64_2,2023-09-08T19:56:27.975Z,,0,,,NaN,,,,,,false,,,,568790.2000000477,568790,,568789.7999999523,,568743.191,8,400,,,
sequence,flow.Sequence,4_64,2023-09-08T19:56:27.976Z,,0,,,6192.199000000022,completion,,,,,false,,,,568790.4000000954,568790,562581.107,562643.5999999046,562597.801,568743.191,8,400,,,
trial,html.Screen,4_65_0,2023-09-08T19:56:33.594Z,,0,2,,5665.408999904641,response,ISIC_2631789.JPG,5,ISIC_0034062.JPG,ISIC_0034062.JPG,false,0,keypress(z),500,574408.7999999523,574408.5999999046,568726.457,568790.5999999046,568743.191,574354.102,8,400,16,,ISIC_2631789.JPG
break,html.Screen,4_65_1,2023-09-08T19:56:33.595Z,,0,,,NaN,,,,,,false,,,,574409.5,574409.2999999523,,574409,,574354.102,8,400,,,
break_continue,html.Screen,4_65_2,2023-09-08T19:56:33.595Z,,0,,,NaN,,,,,,false,,,,574410,574409.9000000954,,574409.7000000477,,574354.102,8,400,,,
sequence,flow.Sequence,4_65,2023-09-08T19:56:33.595Z,,0,,,5666.709000095376,completion,,,,,false,,,,574410.2000000477,574409.9000000954,568726.457,568790.5999999046,568743.191,574354.102,8,400,,,
trial,html.Screen,4_66_0,2023-09-08T19:56:42.653Z,,0,2,,9113.398000000045,response,ISIC_0030995.JPG,5,ISIC_0033452.JPG,ISIC_0033452.JPG,false,0,keypress(z),500,583467.7000000477,583467.5,574337.307,574410.2999999523,574354.102,583421.74,8,400,17,,ISIC_0030995.JPG
break,html.Screen,4_66_1,2023-09-08T19:56:42.654Z,,0,,,NaN,,,,,,false,,,,583468.5999999046,583468.4000000954,,583468.0999999046,,583421.74,8,400,,,
break_continue,html.Screen,4_66_2,2023-09-08T19:56:42.654Z,,0,,,NaN,,,,,,false,,,,583469,583468.9000000954,,583468.7000000477,,583421.74,8,400,,,
sequence,flow.Sequence,4_66,2023-09-08T19:56:42.654Z,,0,,,9114.798000095412,completion,,,,,false,,,,583469.2000000477,583468.9000000954,574337.307,574410.2999999523,574354.102,583421.74,8,400,,,
trial,html.Screen,4_67_0,2023-09-08T19:56:47.760Z,,0,2,,5153.359999904642,response,ISIC_0013672.JPG,6,ISIC_5327271.JPG,ISIC_0013672.JPG,false,1,keypress(m),500,588575.2000000477,588575.0999999046,583405.072,583469.4000000954,583421.74,588531.648,8,400,18,,ISIC_5327271.JPG
break,html.Screen,4_67_1,2023-09-08T19:56:47.761Z,,0,,,NaN,,,,,,false,,,,588575.5999999046,588575.5,,588575.4000000954,,588531.648,8,400,,,
break_continue,html.Screen,4_67_2,2023-09-08T19:56:47.761Z,,0,,,NaN,,,,,,false,,,,588575.9000000954,588575.7999999523,,588575.7000000477,,588531.648,8,400,,,
sequence,flow.Sequence,4_67,2023-09-08T19:56:47.761Z,,0,,,5154.059999952326,completion,,,,,false,,,,588575.9000000954,588575.7999999523,583405.072,583469.4000000954,583421.74,588531.648,8,400,,,
trial,html.Screen,4_68_0,2023-09-08T19:56:52.296Z,,0,2,,4579.451999904588,response,ISIC_8622365.JPG,5,ISIC_0030575.JPG,ISIC_0030575.JPG,false,0,keypress(z),500,593111.2000000477,593111.0999999046,588514.951,588576,588531.648,593057.114,8,400,19,,ISIC_8622365.JPG
break,html.Screen,4_68_1,2023-09-08T19:56:52.297Z,,0,,,NaN,,,,,,false,,,,593111.5999999046,593111.5999999046,,593111.4000000954,,593057.114,8,400,,,
break_continue,html.Screen,4_68_2,2023-09-08T19:56:52.297Z,,0,,,NaN,,,,,,false,,,,593111.9000000954,593111.7999999523,,593111.7000000477,,593057.114,8,400,,,
sequence,flow.Sequence,4_68,2023-09-08T19:56:52.297Z,,0,,,4580.151999952272,completion,,,,,false,,,,593111.9000000954,593111.7999999523,588514.951,588576,588531.648,593057.114,8,400,,,
trial,html.Screen,4_69_0,2023-09-08T19:56:56.864Z,,0,2,,4621.485999904689,response,ISIC_6171084.JPG,4,ISIC_8636706.JPG,ISIC_8636706.JPG,false,0,keypress(z),500,597678.7000000477,597678.5999999046,593040.418,593112,593057.114,597632.729,8,400,20,,ISIC_6171084.JPG
break,html.Screen,4_69_1,2023-09-08T19:56:56.864Z,,0,,,NaN,,,,,,false,,,,597679.0999999046,597679,,597678.7999999523,,597632.729,8,400,,,
break_continue,html.Screen,4_69_2,2023-09-08T19:56:56.864Z,,0,,,NaN,,,,,,false,,,,597679.2000000477,597679.2000000477,,597679.2000000477,,597632.729,8,400,,,
sequence,flow.Sequence,4_69,2023-09-08T19:56:56.864Z,,0,,,4622.0860000477405,completion,,,,,false,,,,597679.2999999523,597679.2000000477,593040.418,593112,593057.114,597632.729,8,400,,,
trial,html.Screen,4_70_0,2023-09-08T19:57:01.714Z,,0,2,,4896.471000047633,response,ISIC_4141315.JPG,4,ISIC_0523125.JPG,ISIC_4141315.JPG,false,1,keypress(m),500,602529.5,602529.2000000477,597616.008,597679.4000000954,597632.729,602475.557,8,400,21,,ISIC_0523125.JPG
break,html.Screen,4_70_1,2023-09-08T19:57:01.716Z,,0,,,NaN,,,,,,false,,,,602530.7000000477,602530.4000000954,,602529.7999999523,,602475.557,8,400,,,
break_continue,html.Screen,4_70_2,2023-09-08T19:57:01.716Z,,0,,,NaN,,,,,,false,,,,602531.2999999523,602531.0999999046,,602530.9000000954,,602475.557,8,400,,,
sequence,flow.Sequence,4_70,2023-09-08T19:57:01.717Z,,0,,,4898.370999904582,completion,,,,,false,,,,602531.5,602531.0999999046,597616.008,597679.4000000954,597632.729,602475.557,8,400,,,
trial,html.Screen,4_71_0,2023-09-08T19:57:09.453Z,,0,2,,7792.542999904603,response,ISIC_0034120.JPG,5,ISIC_8319768.JPG,ISIC_0034120.JPG,false,1,keypress(m),500,610268.2000000477,610268.0999999046,602458.728,602531.7999999523,602475.557,610223.823,8,400,22,,ISIC_8319768.JPG
break,html.Screen,4_71_1,2023-09-08T19:57:09.454Z,,0,,,NaN,,,,,,false,,,,610268.5,610268.4000000954,,610268.2999999523,,610223.823,8,400,,,
break_continue,html.Screen,4_71_2,2023-09-08T19:57:09.454Z,,0,,,NaN,,,,,,false,,,,610268.7000000477,610268.7000000477,,610268.5999999046,,610223.823,8,400,,,
sequence,flow.Sequence,4_71,2023-09-08T19:57:09.454Z,,0,,,7793.143000047654,completion,,,,,false,,,,610268.7999999523,610268.7000000477,602458.728,602531.7000000477,602475.557,610223.823,8,400,,,
trial,html.Screen,4_72_0,2023-09-08T19:57:15.167Z,,0,2,,5757.877000047709,response,ISIC_0025265.JPG,5,ISIC_8579259.JPG,ISIC_8579259.JPG,false,0,keypress(z),500,615981.7999999523,615981.7000000477,610207.152,610268.9000000954,610223.823,615934.922,8,400,23,,ISIC_0025265.JPG
break,html.Screen,4_72_1,2023-09-08T19:57:15.167Z,,0,,,NaN,,,,,,false,,,,615982.2000000477,615982.0999999046,,615981.9000000954,,615934.922,8,400,,,
break_continue,html.Screen,4_72_2,2023-09-08T19:57:15.167Z,,0,,,NaN,,,,,,false,,,,615982.5,615982.2999999523,,615982.2999999523,,615934.922,8,400,,,
sequence,flow.Sequence,4_72,2023-09-08T19:57:15.168Z,,0,,,5758.476999952341,completion,,,,,false,,,,615982.5999999046,615982.2999999523,610207.152,610268.9000000954,610223.823,615934.922,8,400,,,
trial,html.Screen,4_73_0,2023-09-08T19:57:21.816Z,,0,2,,6695.377999952296,response,ISIC_0030404.JPG,6,ISIC_0031625.JPG,ISIC_0030404.JPG,false,1,keypress(m),500,622630.5999999046,622630.2999999523,615918.25,615982.5999999046,615934.922,622581.272,8,400,24,,ISIC_0031625.JPG
break,html.Screen,4_73_1,2023-09-08T19:57:21.817Z,,0,,,NaN,,,,,,false,,,,622631.4000000954,622631.2999999523,,622630.9000000954,,622581.272,8,400,,,
break_continue,html.Screen,4_73_2,2023-09-08T19:57:21.817Z,,0,,,NaN,,,,,,false,,,,622631.9000000954,622631.7000000477,,622631.5999999046,,622581.272,8,400,,,
sequence,flow.Sequence,4_73,2023-09-08T19:57:21.817Z,,0,,,6696.778000047663,completion,,,,,false,,,,622632.2000000477,622631.7000000477,615918.25,615982.5999999046,615934.922,622581.272,8,400,,,
trial,html.Screen,4_74_0,2023-09-08T19:57:26.529Z,,0,2,,4762.527999952319,response,ISIC_6771810.JPG,4,ISIC_9792253.JPG,ISIC_9792253.JPG,false,0,keypress(z),500,627344,627343.7999999523,622564.492,622632.5,622581.272,627290.401,8,400,25,,ISIC_6771810.JPG
break,html.Screen,4_74_1,2023-09-08T19:57:26.530Z,,0,,,NaN,,,,,,false,,,,627344.7000000477,627344.4000000954,,627344.2000000477,,627290.401,8,400,,,
break_continue,html.Screen,4_74_2,2023-09-08T19:57:26.530Z,,0,,,NaN,,,,,,false,,,,627345.0999999046,627345,,627344.9000000954,,627290.401,8,400,,,
sequence,flow.Sequence,4_74,2023-09-08T19:57:26.530Z,,0,,,4763.728000000003,completion,,,,,false,,,,627345.2000000477,627345,622564.492,622632.4000000954,622581.272,627290.401,8,400,,,
trial,html.Screen,4_75_0,2023-09-08T19:57:32.676Z,,0,2,,6200.599000000046,response,ISIC_2283509.JPG,5,ISIC_0013969.JPG,ISIC_0013969.JPG,false,0,keypress(z),500,633491.2000000477,633491,627273.835,627345.2999999523,627290.401,633435.698,8,400,26,,ISIC_2283509.JPG
break,html.Screen,4_75_1,2023-09-08T19:57:32.677Z,,0,,,NaN,,,,,,false,,,,633491.5,633491.4000000954,,633491.2000000477,,633435.698,8,400,,,
break_continue,html.Screen,4_75_2,2023-09-08T19:57:32.677Z,,0,,,NaN,,,,,,false,,,,633491.5999999046,633491.5999999046,,633491.5,,633435.698,8,400,,,
sequence,flow.Sequence,4_75,2023-09-08T19:57:32.677Z,,0,,,6201.198999904678,completion,,,,,false,,,,633491.7000000477,633491.5999999046,627273.835,627345.2999999523,627290.401,633435.698,8,400,,,
trial,html.Screen,4_76_0,2023-09-08T19:57:40.839Z,,0,2,,8217.401999904658,response,ISIC_0009879.JPG,5,ISIC_0450295.JPG,ISIC_0009879.JPG,false,1,keypress(m),500,641653.4000000954,641653.0999999046,633419.063,633491.7999999523,633435.698,641601.615,8,400,27,,ISIC_0450295.JPG
break,html.Screen,4_76_1,2023-09-08T19:57:40.839Z,,0,,,NaN,,,,,,false,,,,641653.9000000954,641653.7000000477,,641653.5,,641601.615,8,400,,,
break_continue,html.Screen,4_76_2,2023-09-08T19:57:40.839Z,,0,,,NaN,,,,,,false,,,,641654.0999999046,641654,,641653.9000000954,,641601.615,8,400,,,
sequence,flow.Sequence,4_76,2023-09-08T19:57:40.839Z,,0,,,8218.302000000025,completion,,,,,false,,,,641654.2999999523,641654,633419.063,633491.7000000477,633435.698,641601.615,8,400,,,
trial,html.Screen,4_77_0,2023-09-08T19:57:45.818Z,,0,2,,5030.885000000009,response,ISIC_8942967.JPG,5,ISIC_0011988.JPG,ISIC_0011988.JPG,false,0,keypress(z),500,646632.9000000954,646632.5,641585.121,641654.4000000954,641601.615,646578.013,8,400,28,,ISIC_8942967.JPG
break,html.Screen,4_77_1,2023-09-08T19:57:45.821Z,,0,,,NaN,,,,,,false,,,,646635.7000000477,646635.4000000954,,646635,,646578.013,8,400,,,
break_continue,html.Screen,4_77_2,2023-09-08T19:57:45.822Z,,0,,,NaN,,,,,,false,,,,646636.5,646636.2999999523,,646636.0999999046,,646578.013,8,400,,,
sequence,flow.Sequence,4_77,2023-09-08T19:57:45.822Z,,0,,,5034.684999952326,completion,,,,,false,,,,646636.7999999523,646636.2999999523,641585.121,641654.4000000954,641601.615,646578.013,8,400,,,
trial,html.Screen,4_78_0,2023-09-08T19:57:51.462Z,,0,2,,5698.387000095332,response,ISIC_0000463.JPG,5,ISIC_4791589.JPG,ISIC_0000463.JPG,false,1,keypress(m),500,652276.5,652276.4000000954,646561.513,646638.2999999523,646578.013,652222.254,8,400,29,,ISIC_4791589.JPG
break,html.Screen,4_78_1,2023-09-08T19:57:51.462Z,,0,,,NaN,,,,,,false,,,,652277.0999999046,652276.9000000954,,652276.7999999523,,652222.254,8,400,,,
break_continue,html.Screen,4_78_2,2023-09-08T19:57:51.463Z,,0,,,NaN,,,,,,false,,,,652277.4000000954,652277.2999999523,,652277.0999999046,,652222.254,8,400,,,
sequence,flow.Sequence,4_78,2023-09-08T19:57:51.463Z,,0,,,5699.286999952281,completion,,,,,false,,,,652277.7000000477,652277.2999999523,646561.513,646638,646578.013,652222.254,8,400,,,
trial,html.Screen,4_79_0,2023-09-08T19:57:58.601Z,,0,2,,7192.746000000043,response,ISIC_1863917.JPG,5,ISIC_7672106.JPG,ISIC_1863917.JPG,false,1,keypress(m),500,659415.2999999523,659415,652205.543,652277.7000000477,652222.254,659369.51,8,400,30,,ISIC_7672106.JPG
break,html.Screen,4_79_1,2023-09-08T19:57:58.602Z,,0,,,NaN,,,,,,false,,,,659416.7999999523,659416.4000000954,,659415.7999999523,,659369.51,8,400,,,
break_continue,html.Screen,4_79_2,2023-09-08T19:57:58.603Z,,0,,,NaN,,,,,,false,,,,659417.7000000477,659417.5,,659417.2999999523,,659369.51,8,400,,,
sequence,flow.Sequence,4_79,2023-09-08T19:57:58.603Z,,0,,,7195.246000000043,completion,,,,,false,,,,659418,659417.5,652205.543,652277.7000000477,652222.254,659369.51,8,400,,,
trial,html.Screen,4_80_0,2023-09-08T19:58:04.205Z,,0,2,,5650.489999999991,response,ISIC_1331993.JPG,5,ISIC_0056444.JPG,ISIC_0056444.JPG,false,0,keypress(z),500,665020.2999999523,665020,659352.955,659418.2999999523,659369.51,664963.833,8,400,31,,ISIC_1331993.JPG
break,html.Screen,4_80_1,2023-09-08T19:58:04.206Z,,0,,,NaN,,,,,,false,,,,665021.2999999523,665021,,665020.5999999046,,664963.833,8,400,,,
break_continue,html.Screen,4_80_2,2023-09-08T19:58:04.207Z,,0,,,NaN,,,,,,false,,,,665021.7000000477,665021.5999999046,,665021.4000000954,,664963.833,8,400,,,
sequence,flow.Sequence,4_80,2023-09-08T19:58:04.207Z,,0,,,5652.089999904623,completion,,,,,false,,,,665022,665021.5999999046,659352.955,659418.0999999046,659369.51,664963.833,8,400,,,
trial,html.Screen,4_81_0,2023-09-08T19:58:08.873Z,,0,2,,4724.067000095383,response,ISIC_3065032.JPG,6,ISIC_0070805.JPG,ISIC_3065032.JPG,false,1,keypress(m),500,669688.2999999523,669687.9000000954,664947.159,665022.0999999046,664963.833,669639.481,8,400,32,,ISIC_0070805.JPG
break,html.Screen,4_81_1,2023-09-08T19:58:08.874Z,,0,,,NaN,,,,,,false,,,,669689.2000000477,669688.9000000954,,669688.5,,669639.481,8,400,,,
break_continue,html.Screen,4_81_2,2023-09-08T19:58:08.875Z,,0,,,NaN,,,,,,false,,,,669689.7000000477,669689.5,,669689.2999999523,,669639.481,8,400,,,
sequence,flow.Sequence,4_81,2023-09-08T19:58:08.875Z,,0,,,4725.667000000016,completion,,,,,false,,,,669689.7999999523,669689.5,664947.159,665022.0999999046,664963.833,669639.481,8,400,,,
trial,html.Screen,4_82_0,2023-09-08T19:58:13.315Z,,0,2,,4490.118999904604,response,ISIC_0010778.JPG,6,ISIC_7484618.JPG,ISIC_0010778.JPG,false,1,keypress(m),500,674129.7000000477,674129.5999999046,669622.757,669690,669639.481,674081.501,8,400,33,,ISIC_7484618.JPG
break,html.Screen,4_82_1,2023-09-08T19:58:13.315Z,,0,,,NaN,,,,,,false,,,,674129.9000000954,674129.7999999523,,674129.7000000477,,674081.501,8,400,,,
break_continue,html.Screen,4_82_2,2023-09-08T19:58:13.315Z,,0,,,NaN,,,,,,false,,,,674130.0999999046,674130.0999999046,,674130,,674081.501,8,400,,,
sequence,flow.Sequence,4_82,2023-09-08T19:58:13.315Z,,0,,,4490.618999904604,completion,,,,,false,,,,674130.2000000477,674130.0999999046,669622.757,669690,669639.481,674081.501,8,400,,,
trial,html.Screen,4_83_0,2023-09-08T19:58:18.757Z,,0,2,,5490.098999904585,response,ISIC_0033289.JPG,4,ISIC_7822725.JPG,ISIC_0033289.JPG,false,1,keypress(m),500,679571.7000000477,679571.5999999046,674064.747,674130.2999999523,674081.501,679542.193,8,400,34,,ISIC_7822725.JPG
break,html.Screen,4_83_1,2023-09-08T19:58:18.757Z,,0,,,NaN,,,,,,false,,,,679572,679571.9000000954,,679571.7000000477,,679542.193,8,400,,,
break_continue,html.Screen,4_83_2,2023-09-08T19:58:18.757Z,,0,,,NaN,,,,,,false,,,,679572.0999999046,679572,,679572,,679542.193,8,400,,,
sequence,flow.Sequence,4_83,2023-09-08T19:58:18.758Z,,0,,,5490.4989999999525,completion,,,,,false,,,,679572.2000000477,679572,674064.747,674130.2999999523,674081.501,679542.193,8,400,,,
trial,html.Screen,4_84_0,2023-09-08T19:58:23.952Z,,0,2,,5223.80700000003,response,ISIC_0708542.JPG,5,ISIC_0029250.JPG,ISIC_0029250.JPG,false,0,keypress(z),500,684766.0999999046,684766,679525.433,679572.2000000477,679542.193,684718.897,8,400,35,,ISIC_0708542.JPG
break,html.Screen,4_84_1,2023-09-08T19:58:23.952Z,,0,,,NaN,,,,,,false,,,,684766.5,684766.4000000954,,684766.2000000477,,684718.897,8,400,,,
break_continue,html.Screen,4_84_2,2023-09-08T19:58:23.952Z,,0,,,NaN,,,,,,false,,,,684766.7000000477,684766.5999999046,,684766.5999999046,,684718.897,8,400,,,
sequence,flow.Sequence,4_84,2023-09-08T19:58:23.952Z,,0,,,5224.406999904662,completion,,,,,false,,,,684766.7000000477,684766.5999999046,679525.433,679572.2000000477,679542.193,684718.897,8,400,,,
trial,html.Screen,4_85_0,2023-09-08T19:58:31.033Z,,0,2,,7128.402999952319,response,ISIC_2937642.JPG,5,ISIC_3447331.JPG,ISIC_3447331.JPG,false,0,keypress(z),500,691847.5999999046,691847.2999999523,684702.268,684766.7999999523,684718.897,691799.322,8,400,36,,ISIC_2937642.JPG
break,html.Screen,4_85_1,2023-09-08T19:58:31.034Z,,0,,,NaN,,,,,,false,,,,691848.7999999523,691848.5999999046,,691848,,691799.322,8,400,,,
break_continue,html.Screen,4_85_2,2023-09-08T19:58:31.035Z,,0,,,NaN,,,,,,false,,,,691849.4000000954,691849.2000000477,,691849,,691799.322,8,400,,,
sequence,flow.Sequence,4_85,2023-09-08T19:58:31.035Z,,0,,,7130.3030000476865,completion,,,,,false,,,,691849.7000000477,691849.2000000477,684702.268,684766.7999999523,684718.897,691799.322,8,400,,,
trial,html.Screen,4_86_0,2023-09-08T19:58:37.470Z,,0,2,,6485.177999999956,response,ISIC_2740756.JPG,6,ISIC_0066483.JPG,ISIC_0066483.JPG,false,0,keypress(z),500,698284.7000000477,698284.5,691782.57,691850,691799.322,698228.452,8,400,37,,ISIC_2740756.JPG
break,html.Screen,4_86_1,2023-09-08T19:58:37.470Z,,0,,,NaN,,,,,,false,,,,698285.0999999046,698285,,698284.7999999523,,698228.452,8,400,,,
break_continue,html.Screen,4_86_2,2023-09-08T19:58:37.471Z,,0,,,NaN,,,,,,false,,,,698285.4000000954,698285.2999999523,,698285.2000000477,,698228.452,8,400,,,
sequence,flow.Sequence,4_86,2023-09-08T19:58:37.471Z,,0,,,6485.9779999522725,completion,,,,,false,,,,698285.5999999046,698285.2999999523,691782.57,691849.9000000954,691799.322,698228.452,8,400,,,
trial,html.Screen,4_87_0,2023-09-08T19:58:44.850Z,,0,2,,7435.748000047635,response,ISIC_4153687.JPG,5,ISIC_9390107.JPG,ISIC_4153687.JPG,false,1,keypress(m),500,705664.4000000954,705664.2000000477,698211.735,698285.7000000477,698228.452,705609.492,8,400,38,,ISIC_9390107.JPG
break,html.Screen,4_87_1,2023-09-08T19:58:44.851Z,,0,,,NaN,,,,,,false,,,,705665.2999999523,705664.9000000954,,705664.5999999046,,705609.492,8,400,,,
break_continue,html.Screen,4_87_2,2023-09-08T19:58:44.851Z,,0,,,NaN,,,,,,false,,,,705665.5999999046,705665.5,,705665.4000000954,,705609.492,8,400,,,
sequence,flow.Sequence,4_87,2023-09-08T19:58:44.851Z,,0,,,7437.047999999952,completion,,,,,false,,,,705665.7999999523,705665.5,698211.735,698285.7000000477,698228.452,705609.492,8,400,,,
trial,html.Screen,4_88_0,2023-09-08T19:58:51.364Z,,0,2,,6569.307999952347,response,ISIC_0011930.JPG,6,ISIC_0032940.JPG,ISIC_0032940.JPG,false,0,keypress(z),500,712178.7999999523,712178.7999999523,705592.727,705665.7999999523,705609.492,712122.107,8,400,39,,ISIC_0011930.JPG
break,html.Screen,4_88_1,2023-09-08T19:58:51.365Z,,0,,,NaN,,,,,,false,,,,712179.2000000477,712179.0999999046,,712178.9000000954,,712122.107,8,400,,,
break_continue,html.Screen,4_88_2,2023-09-08T19:58:51.365Z,,0,,,NaN,,,,,,false,,,,712179.4000000954,712179.4000000954,,712179.2000000477,,712122.107,8,400,,,
sequence,flow.Sequence,4_88,2023-09-08T19:58:51.365Z,,0,,,6569.908000095398,completion,,,,,false,,,,712179.5,712179.4000000954,705592.727,705665.7999999523,705609.492,712122.107,8,400,,,
trial,html.Screen,4_89_0,2023-09-08T19:58:57.002Z,,0,2,,5694.39300000004,response,ISIC_7663476.JPG,5,ISIC_0009186.JPG,ISIC_7663476.JPG,false,1,keypress(m),500,717816.7999999523,717816.5,712105.491,712179.5,712122.107,717766.439,8,400,40,,ISIC_0009186.JPG
break,html.Screen,4_89_1,2023-09-08T19:58:57.003Z,,0,,,NaN,,,,,,false,,,,717817.2000000477,717817.2000000477,,717816.9000000954,,717766.439,8,400,,,
break_continue,html.Screen,4_89_2,2023-09-08T19:58:57.003Z,,0,,,NaN,,,,,,false,,,,717817.4000000954,717817.4000000954,,717817.2999999523,,717766.439,8,400,,,
sequence,flow.Sequence,4_89,2023-09-08T19:58:57.003Z,,0,,,5695.2930000954075,completion,,,,,false,,,,717817.5,717817.4000000954,712105.491,712179.5,712122.107,717766.439,8,400,,,
trial,html.Screen,4_90_0,2023-09-08T19:59:00.671Z,,0,2,,3719.3609999523032,response,ISIC_7779155.JPG,5,ISIC_0030047.JPG,ISIC_0030047.JPG,false,0,keypress(z),500,721486,721485.7999999523,717749.929,717817.5,717766.439,721440.246,8,400,41,,ISIC_7779155.JPG
break,html.Screen,4_90_1,2023-09-08T19:59:00.672Z,,0,,,NaN,,,,,,false,,,,721486.5,721486.4000000954,,721486.0999999046,,721440.246,8,400,,,
break_continue,html.Screen,4_90_2,2023-09-08T19:59:00.672Z,,0,,,NaN,,,,,,false,,,,721486.9000000954,721486.7999999523,,721486.7000000477,,721440.246,8,400,,,
sequence,flow.Sequence,4_90,2023-09-08T19:59:00.672Z,,0,,,3720.3609999523032,completion,,,,,false,,,,721486.9000000954,721486.7999999523,717749.929,717817.5,717766.439,721440.246,8,400,,,
trial,html.Screen,4_91_0,2023-09-08T19:59:05.555Z,,0,2,,4929.253999999957,response,ISIC_1327515.JPG,5,ISIC_5732374.JPG,ISIC_5732374.JPG,false,0,keypress(z),500,726369.5999999046,726369.5,721423.587,721487.2000000477,721440.246,726316.396,8,400,42,,ISIC_1327515.JPG
break,html.Screen,4_91_1,2023-09-08T19:59:05.555Z,,0,,,NaN,,,,,,false,,,,726370.0999999046,726369.9000000954,,726369.7000000477,,726316.396,8,400,,,
break_continue,html.Screen,4_91_2,2023-09-08T19:59:05.556Z,,0,,,NaN,,,,,,false,,,,726370.2999999523,726370.2000000477,,726370.2000000477,,726316.396,8,400,,,
sequence,flow.Sequence,4_91,2023-09-08T19:59:05.556Z,,0,,,4929.954000047641,completion,,,,,false,,,,726370.4000000954,726370.2000000477,721423.587,721487.2000000477,721440.246,726316.396,8,400,,,
trial,html.Screen,4_92_0,2023-09-08T19:59:11.893Z,,0,2,,6391.60400000005,response,ISIC_2805573.JPG,6,ISIC_1961064.JPG,ISIC_1961064.JPG,false,0,keypress(z),500,732708.0999999046,732708,726299.802,726370.5,726316.396,732662.052,8,400,43,,ISIC_2805573.JPG
break,html.Screen,4_92_1,2023-09-08T19:59:11.894Z,,0,,,NaN,,,,,,false,,,,732708.4000000954,732708.2999999523,,732708.0999999046,,732662.052,8,400,,,
break_continue,html.Screen,4_92_2,2023-09-08T19:59:11.894Z,,0,,,NaN,,,,,,false,,,,732708.5,732708.4000000954,,732708.4000000954,,732662.052,8,400,,,
sequence,flow.Sequence,4_92,2023-09-08T19:59:11.894Z,,0,,,6392.004000095418,completion,,,,,false,,,,732708.5999999046,732708.4000000954,726299.802,726370.5,726316.396,732662.052,8,400,,,
trial,html.Screen,4_93_0,2023-09-08T19:59:17.814Z,,0,2,,5967.247999952291,response,ISIC_0011095.JPG,5,ISIC_0000283.JPG,ISIC_0000283.JPG,false,0,keypress(z),500,738629.4000000954,738629.2999999523,732645.42,732708.7000000477,732662.052,738573.622,8,400,44,,ISIC_0011095.JPG
break,html.Screen,4_93_1,2023-09-08T19:59:17.815Z,,0,,,NaN,,,,,,false,,,,738629.7999999523,738629.7000000477,,738629.5999999046,,738573.622,8,400,,,
break_continue,html.Screen,4_93_2,2023-09-08T19:59:17.815Z,,0,,,NaN,,,,,,false,,,,738630,738629.9000000954,,738629.7999999523,,738573.622,8,400,,,
sequence,flow.Sequence,4_93,2023-09-08T19:59:17.815Z,,0,,,5967.848000095342,completion,,,,,false,,,,738630.0999999046,738629.9000000954,732645.42,732708.5999999046,732662.052,738573.622,8,400,,,
trial,html.Screen,4_94_0,2023-09-08T19:59:24.064Z,,0,2,,6304.977999904659,response,ISIC_0175530.JPG,5,ISIC_0011607.JPG,ISIC_0011607.JPG,false,0,keypress(z),500,744878.9000000954,744878.5999999046,738556.939,738630.0999999046,738573.622,744835.917,8,400,45,,ISIC_0175530.JPG
break,html.Screen,4_94_1,2023-09-08T19:59:24.064Z,,0,,,NaN,,,,,,false,,,,744879.5,744879.2999999523,,744879.0999999046,,744835.917,8,400,,,
break_continue,html.Screen,4_94_2,2023-09-08T19:59:24.065Z,,0,,,NaN,,,,,,false,,,,744880,744879.7999999523,,744879.5999999046,,744835.917,8,400,,,
sequence,flow.Sequence,4_94,2023-09-08T19:59:24.065Z,,0,,,6306.177999952342,completion,,,,,false,,,,744880.0999999046,744879.7999999523,738556.939,738630.0999999046,738573.622,744835.917,8,400,,,
trial,html.Screen,4_95_0,2023-09-08T19:59:31.619Z,,0,2,,7598.3829999523,response,ISIC_0033589.JPG,6,ISIC_9045601.JPG,ISIC_0033589.JPG,false,1,keypress(m),500,752434.5,752434.2999999523,744819.216,744880.2000000477,744835.917,752383.796,8,400,46,,ISIC_9045601.JPG
break,html.Screen,4_95_1,2023-09-08T19:59:31.620Z,,0,,,NaN,,,,,,false,,,,752435.5999999046,752434.7999999523,,752434.7000000477,,752383.796,8,400,,,
break_continue,html.Screen,4_95_2,2023-09-08T19:59:31.621Z,,0,,,NaN,,,,,,false,,,,752435.9000000954,752435.9000000954,,752435.7000000477,,752383.796,8,400,,,
sequence,flow.Sequence,4_95,2023-09-08T19:59:31.621Z,,0,,,7599.983000095352,completion,,,,,false,,,,752436,752435.9000000954,744819.216,744880.0999999046,744835.917,752383.796,8,400,,,
trial,html.Screen,4_96_0,2023-09-08T19:59:37.981Z,,0,2,,6412.404000047711,response,ISIC_8143286.JPG,6,ISIC_9511265.JPG,ISIC_8143286.JPG,false,1,keypress(m),500,758796.4000000954,758796.2000000477,752367.211,752436.0999999046,752383.796,758746.219,8,400,47,,ISIC_9511265.JPG
break,html.Screen,4_96_1,2023-09-08T19:59:37.982Z,,0,,,NaN,,,,,,false,,,,758796.7000000477,758796.7000000477,,758796.5999999046,,758746.219,8,400,,,
break_continue,html.Screen,4_96_2,2023-09-08T19:59:37.982Z,,0,,,NaN,,,,,,false,,,,758797,758796.9000000954,,758796.9000000954,,758746.219,8,400,,,
sequence,flow.Sequence,4_96,2023-09-08T19:59:37.982Z,,0,,,6413.104000095394,completion,,,,,false,,,,758797.0999999046,758796.9000000954,752367.211,752436.0999999046,752383.796,758746.219,8,400,,,
trial,html.Screen,4_97_0,2023-09-08T19:59:43.215Z,,0,2,,5283.880999904592,response,ISIC_0029395.JPG,5,ISIC_0055388.JPG,ISIC_0055388.JPG,false,0,keypress(z),500,764030.2000000477,764030.0999999046,758729.525,758797.2000000477,758746.219,763973.05,8,400,48,,ISIC_0029395.JPG
break,html.Screen,4_97_1,2023-09-08T19:59:43.216Z,,0,,,NaN,,,,,,false,,,,764030.7000000477,764030.5999999046,,764030.4000000954,,763973.05,8,400,,,
break_continue,html.Screen,4_97_2,2023-09-08T19:59:43.216Z,,0,,,NaN,,,,,,false,,,,764031,764030.9000000954,,764030.7999999523,,763973.05,8,400,,,
sequence,flow.Sequence,4_97,2023-09-08T19:59:43.216Z,,0,,,5284.681000095326,completion,,,,,false,,,,764031.0999999046,764030.9000000954,758729.525,758797.0999999046,758746.219,763973.05,8,400,,,
trial,html.Screen,4_98_0,2023-09-08T19:59:49.426Z,,0,2,,6267.449999999953,response,ISIC_1663144.JPG,5,ISIC_7747712.JPG,ISIC_1663144.JPG,false,1,keypress(m),500,770240.7000000477,770240.5,763956.489,764031.2000000477,763973.05,770185.174,8,400,49,,ISIC_7747712.JPG
break,html.Screen,4_98_1,2023-09-08T19:59:49.426Z,,0,,,NaN,,,,,,false,,,,770241.2999999523,770241.2000000477,,770240.9000000954,,770185.174,8,400,,,
break_continue,html.Screen,4_98_2,2023-09-08T19:59:49.427Z,,0,,,NaN,,,,,,false,,,,770241.5999999046,770241.5999999046,,770241.4000000954,,770185.174,8,400,,,
sequence,flow.Sequence,4_98,2023-09-08T19:59:49.427Z,,0,,,6268.549999904586,completion,,,,,false,,,,770241.7999999523,770241.5999999046,763956.489,764031.2000000477,763973.05,770185.174,8,400,,,
trial,html.Screen,4_99_0,2023-09-08T19:59:53.524Z,,0,2,,4154.326000000001,response,ISIC_8071637.JPG,6,ISIC_0024285.JPG,ISIC_0024285.JPG,false,0,keypress(z),500,774339.5999999046,774339.5,770168.446,770241.9000000954,770185.174,774293.138,8,400,50,,ISIC_8071637.JPG
break,html.Screen,4_99_1,2023-09-08T20:00:03.524Z,,0,,,10002.798999999999,timeout,,,,,false,,,,784338.7000000477,784279.296,774276.61,774339.7000000477,774293.138,784295.937,8,400,,,
break_continue,html.Screen,4_99_2,2023-09-08T20:00:05.179Z,,0,,,1689.0629999999655,response,,,,,false,continue,keypress(Space),,785993.7999999523,785985,784279.296,784338.7999999523,784295.937,785949.09,8,400,,,
sequence,flow.Sequence,4_99,2023-09-08T20:00:05.179Z,,0,,,15799.826000000001,completion,,,,,false,,,,785994,785985,770168.446,770241.9000000954,770185.174,785949.09,8,400,,,
trial,html.Screen,4_100_0,2023-09-08T20:00:14.723Z,,0,3,,9588.209999952349,response,ISIC_0028181.JPG,5,ISIC_9086288.JPG,ISIC_0028181.JPG,false,1,keypress(m),500,795537.7000000477,795537.2999999523,785932.409,785994,785949.09,795484.477,8,400,1,,ISIC_9086288.JPG
break,html.Screen,4_100_1,2023-09-08T20:00:14.724Z,,0,,,NaN,,,,,,false,,,,795538.7999999523,795538.5999999046,,795538.0999999046,,795484.477,8,400,,,
break_continue,html.Screen,4_100_2,2023-09-08T20:00:14.724Z,,0,,,NaN,,,,,,false,,,,795539.2000000477,795539.0999999046,,795539,,795484.477,8,400,,,
sequence,flow.Sequence,4_100,2023-09-08T20:00:14.724Z,,0,,,9590.009999904665,completion,,,,,false,,,,795539.4000000954,795539.0999999046,785932.409,785994,785949.09,795484.477,8,400,,,
trial,html.Screen,4_101_0,2023-09-08T20:00:20.775Z,,0,3,,6104.322999952361,response,ISIC_9876515.JPG,6,ISIC_2192973.JPG,ISIC_9876515.JPG,false,1,keypress(m),500,801589,801588.7999999523,795467.842,795539.5999999046,795484.477,801546.19,8,400,2,,ISIC_2192973.JPG
break,html.Screen,4_101_1,2023-09-08T20:00:20.775Z,,0,,,NaN,,,,,,false,,,,801589.2999999523,801589.2999999523,,801589.0999999046,,801546.19,8,400,,,
break_continue,html.Screen,4_101_2,2023-09-08T20:00:20.775Z,,0,,,NaN,,,,,,false,,,,801589.5999999046,801589.4000000954,,801589.4000000954,,801546.19,8,400,,,
sequence,flow.Sequence,4_101,2023-09-08T20:00:20.775Z,,0,,,6104.923000095412,completion,,,,,false,,,,801589.7000000477,801589.4000000954,795467.842,795539.5999999046,795484.477,801546.19,8,400,,,
trial,html.Screen,4_102_0,2023-09-08T20:00:25.744Z,,0,3,,5011.409999904688,response,ISIC_8671119.JPG,5,ISIC_1670165.JPG,ISIC_1670165.JPG,false,0,keypress(z),500,806557.9000000954,806557.5999999046,801529.631,801589.7999999523,801546.19,806505.833,8,400,3,,ISIC_8671119.JPG
break,html.Screen,4_102_1,2023-09-08T20:00:25.745Z,,0,,,NaN,,,,,,false,,,,806559,806558.7000000477,,806558.4000000954,,806505.833,8,400,,,
break_continue,html.Screen,4_102_2,2023-09-08T20:00:25.745Z,,0,,,NaN,,,,,,false,,,,806559.5999999046,806559.4000000954,,806559.2000000477,,806505.833,8,400,,,
sequence,flow.Sequence,4_102,2023-09-08T20:00:25.746Z,,0,,,5013.210000095423,completion,,,,,false,,,,806559.7999999523,806559.4000000954,801529.631,801589.7999999523,801546.19,806505.833,8,400,,,
trial,html.Screen,4_103_0,2023-09-08T20:00:31.108Z,,0,3,,5416.067000095383,response,ISIC_8513112.JPG,5,ISIC_0033807.JPG,ISIC_0033807.JPG,false,0,keypress(z),500,811922.0999999046,811921.9000000954,806489.093,806559.9000000954,806505.833,811866.291,8,400,4,,ISIC_8513112.JPG
break,html.Screen,4_103_1,2023-09-08T20:00:31.109Z,,0,,,NaN,,,,,,false,,,,811922.7000000477,811922.5,,811922.2999999523,,811866.291,8,400,,,
break_continue,html.Screen,4_103_2,2023-09-08T20:00:31.109Z,,0,,,NaN,,,,,,false,,,,811923.0999999046,811923,,811922.9000000954,,811866.291,8,400,,,
sequence,flow.Sequence,4_103,2023-09-08T20:00:31.109Z,,0,,,5417.167000000016,completion,,,,,false,,,,811923.2999999523,811923,806489.093,806559.9000000954,806505.833,811866.291,8,400,,,
trial,html.Screen,4_104_0,2023-09-08T20:00:36.941Z,,0,3,,5888.409000047715,response,ISIC_7788318.JPG,4,ISIC_0057028.JPG,ISIC_7788318.JPG,false,1,keypress(m),500,817754.7999999523,817754.7000000477,811849.528,811923.4000000954,811866.291,817710.977,8,400,5,,ISIC_0057028.JPG
break,html.Screen,4_104_1,2023-09-08T20:00:36.941Z,,0,,,NaN,,,,,,false,,,,817755.2999999523,817755.0999999046,,817754.9000000954,,817710.977,8,400,,,
break_continue,html.Screen,4_104_2,2023-09-08T20:00:36.941Z,,0,,,NaN,,,,,,false,,,,817755.5999999046,817755.4000000954,,817755.2999999523,,817710.977,8,400,,,
sequence,flow.Sequence,4_104,2023-09-08T20:00:36.941Z,,0,,,5889.109000095399,completion,,,,,false,,,,817755.7000000477,817755.4000000954,811849.528,811923.4000000954,811866.291,817710.977,8,400,,,
trial,html.Screen,4_105_0,2023-09-08T20:00:42.272Z,,0,3,,5374.923000095412,response,ISIC_6118204.JPG,5,ISIC_0015436.JPG,ISIC_0015436.JPG,false,0,keypress(z),500,823086,823085.9000000954,817694.272,817755.7999999523,817710.977,823038.035,8,400,6,,ISIC_6118204.JPG
break,html.Screen,4_105_1,2023-09-08T20:00:42.272Z,,0,,,NaN,,,,,,false,,,,823086.2999999523,823086.2000000477,,823086.0999999046,,823038.035,8,400,,,
break_continue,html.Screen,4_105_2,2023-09-08T20:00:42.272Z,,0,,,NaN,,,,,,false,,,,823086.5,823086.4000000954,,823086.4000000954,,823038.035,8,400,,,
sequence,flow.Sequence,4_105,2023-09-08T20:00:42.272Z,,0,,,5375.423000095412,completion,,,,,false,,,,823086.5,823086.4000000954,817694.272,817755.7999999523,817710.977,823038.035,8,400,,,
trial,html.Screen,4_106_0,2023-09-08T20:00:49.128Z,,0,3,,6904.264999952284,response,ISIC_6754835.JPG,4,ISIC_8555379.JPG,ISIC_8555379.JPG,false,0,keypress(z),500,829942.5,829942.2999999523,823021.461,823086.5999999046,823038.035,829884.67,8,400,7,,ISIC_6754835.JPG
break,html.Screen,4_106_1,2023-09-08T20:00:49.129Z,,0,,,NaN,,,,,,false,,,,829943.2000000477,829942.9000000954,,829942.7000000477,,829884.67,8,400,,,
break_continue,html.Screen,4_106_2,2023-09-08T20:00:49.129Z,,0,,,NaN,,,,,,false,,,,829943.5999999046,829943.5,,829943.4000000954,,829884.67,8,400,,,
sequence,flow.Sequence,4_106,2023-09-08T20:00:49.129Z,,0,,,6905.464999999967,completion,,,,,false,,,,829943.7000000477,829943.5,823021.461,823086.5999999046,823038.035,829884.67,8,400,,,
trial,html.Screen,4_107_0,2023-09-08T20:00:54.959Z,,0,3,,5888.7300000953255,response,ISIC_1809444.JPG,5,ISIC_0010591.JPG,ISIC_0010591.JPG,false,0,keypress(z),500,835773.5,835773.4000000954,829868.092,829943.7999999523,829884.67,835729.438,8,400,8,,ISIC_1809444.JPG
break,html.Screen,4_107_1,2023-09-08T20:00:54.960Z,,0,,,NaN,,,,,,false,,,,835773.7999999523,835773.7999999523,,835773.7000000477,,835729.438,8,400,,,
break_continue,html.Screen,4_107_2,2023-09-08T20:00:54.960Z,,0,,,NaN,,,,,,false,,,,835774,835774,,835773.9000000954,,835729.438,8,400,,,
sequence,flow.Sequence,4_107,2023-09-08T20:00:54.960Z,,0,,,5889.329999999958,completion,,,,,false,,,,835774.2000000477,835774,829868.092,829943.7999999523,829884.67,835729.438,8,400,,,
trial,html.Screen,4_108_0,2023-09-08T20:01:00.226Z,,0,3,,5310.762000047718,response,ISIC_0024246.JPG,5,ISIC_0065807.JPG,ISIC_0065807.JPG,false,0,keypress(z),500,841040.4000000954,841040.2000000477,835712.728,835774.2000000477,835729.438,840989.651,8,400,9,,ISIC_0024246.JPG
break,html.Screen,4_108_1,2023-09-08T20:01:00.227Z,,0,,,NaN,,,,,,false,,,,841041.2999999523,841041.0999999046,,841040.7999999523,,840989.651,8,400,,,
break_continue,html.Screen,4_108_2,2023-09-08T20:01:00.227Z,,0,,,NaN,,,,,,false,,,,841041.7000000477,841041.5999999046,,841041.4000000954,,840989.651,8,400,,,
sequence,flow.Sequence,4_108,2023-09-08T20:01:00.228Z,,0,,,5312.161999904667,completion,,,,,false,,,,841041.9000000954,841041.5999999046,835712.728,835774.2000000477,835729.438,840989.651,8,400,,,
trial,html.Screen,4_109_0,2023-09-08T20:01:05.930Z,,0,3,,5754.249000095413,response,ISIC_0015180.JPG,5,ISIC_9776851.JPG,ISIC_0015180.JPG,false,1,keypress(m),500,846744.0999999046,846743.9000000954,840972.884,841042.0999999046,840989.651,846700.717,8,400,10,,ISIC_9776851.JPG
break,html.Screen,4_109_1,2023-09-08T20:01:05.930Z,,0,,,NaN,,,,,,false,,,,846744.5,846744.4000000954,,846744.2000000477,,846700.717,8,400,,,
break_continue,html.Screen,4_109_2,2023-09-08T20:01:05.930Z,,0,,,NaN,,,,,,false,,,,846744.7000000477,846744.5999999046,,846744.5,,846700.717,8,400,,,
sequence,flow.Sequence,4_109,2023-09-08T20:01:05.931Z,,0,,,5754.948999904678,completion,,,,,false,,,,846744.7999999523,846744.5999999046,840972.884,841042.0999999046,840989.651,846700.717,8,400,,,
trial,html.Screen,4_110_0,2023-09-08T20:01:11.436Z,,0,3,,5549.882999904687,response,ISIC_0062160.JPG,5,ISIC_0027663.JPG,ISIC_0062160.JPG,false,1,keypress(m),500,852250.7000000477,852250.5999999046,846684.032,846744.9000000954,846700.717,852194.687,8,400,11,,ISIC_0027663.JPG
break,html.Screen,4_110_1,2023-09-08T20:01:11.437Z,,0,,,NaN,,,,,,false,,,,852251,852250.9000000954,,852250.7999999523,,852194.687,8,400,,,
break_continue,html.Screen,4_110_2,2023-09-08T20:01:11.437Z,,0,,,NaN,,,,,,false,,,,852251.2999999523,852251.2000000477,,852251.0999999046,,852194.687,8,400,,,
sequence,flow.Sequence,4_110,2023-09-08T20:01:11.437Z,,0,,,5550.483000047738,completion,,,,,false,,,,852251.4000000954,852251.2000000477,846684.032,846744.9000000954,846700.717,852194.687,8,400,,,
trial,html.Screen,4_111_0,2023-09-08T20:01:19.295Z,,0,3,,7914.013000047649,response,ISIC_0257447.JPG,6,ISIC_9989936.JPG,ISIC_0257447.JPG,false,1,keypress(m),500,860108.9000000954,860108.7000000477,852178.042,852251.4000000954,852194.687,860060.041,8,400,12,,ISIC_9989936.JPG
break,html.Screen,4_111_1,2023-09-08T20:01:19.295Z,,0,,,NaN,,,,,,false,,,,860109.2999999523,860109.2000000477,,860109,,860060.041,8,400,,,
break_continue,html.Screen,4_111_2,2023-09-08T20:01:19.295Z,,0,,,NaN,,,,,,false,,,,860109.5,860109.4000000954,,860109.4000000954,,860060.041,8,400,,,
sequence,flow.Sequence,4_111,2023-09-08T20:01:19.295Z,,0,,,7914.713000095333,completion,,,,,false,,,,860109.5999999046,860109.4000000954,852178.042,852251.4000000954,852194.687,860060.041,8,400,,,
trial,html.Screen,4_112_0,2023-09-08T20:01:23.569Z,,0,3,,4323.058999904664,response,ISIC_2758999.JPG,4,ISIC_0062686.JPG,ISIC_0062686.JPG,false,0,keypress(z),500,864383.2000000477,864383.0999999046,860043.354,860109.5999999046,860060.041,864334.996,8,400,13,,ISIC_2758999.JPG
break,html.Screen,4_112_1,2023-09-08T20:01:23.569Z,,0,,,NaN,,,,,,false,,,,864383.7000000477,864383.5,,864383.2999999523,,864334.996,8,400,,,
break_continue,html.Screen,4_112_2,2023-09-08T20:01:23.570Z,,0,,,NaN,,,,,,false,,,,864383.9000000954,864383.7999999523,,864383.7000000477,,864334.996,8,400,,,
sequence,flow.Sequence,4_112,2023-09-08T20:01:23.570Z,,0,,,4323.758999952348,completion,,,,,false,,,,864384,864383.7999999523,860043.354,860109.5999999046,860060.041,864334.996,8,400,,,
trial,html.Screen,4_113_0,2023-09-08T20:01:29.764Z,,0,3,,6243.503999999957,response,ISIC_0034094.JPG,5,ISIC_0064633.JPG,ISIC_0064633.JPG,false,0,keypress(z),500,870578.5,870578.5,864318.349,864384,864334.996,870530.403,8,400,14,,ISIC_0034094.JPG
break,html.Screen,4_113_1,2023-09-08T20:01:29.765Z,,0,,,NaN,,,,,,false,,,,870578.9000000954,870578.7999999523,,870578.5999999046,,870530.403,8,400,,,
break_continue,html.Screen,4_113_2,2023-09-08T20:01:29.765Z,,0,,,NaN,,,,,,false,,,,870579.2000000477,870579,,870579,,870530.403,8,400,,,
sequence,flow.Sequence,4_113,2023-09-08T20:01:29.765Z,,0,,,6244.003999999957,completion,,,,,false,,,,870579.2000000477,870579,864318.349,864384,864334.996,870530.403,8,400,,,
trial,html.Screen,4_114_0,2023-09-08T20:01:35.031Z,,0,3,,5314.997000095318,response,ISIC_9008095.JPG,6,ISIC_8969855.JPG,ISIC_9008095.JPG,false,1,keypress(m),500,875845.5,875845.4000000954,870513.713,870579.2000000477,870530.403,875790.674,8,400,15,,ISIC_8969855.JPG
break,html.Screen,4_114_1,2023-09-08T20:01:35.032Z,,0,,,NaN,,,,,,false,,,,875846.2000000477,875846,,875845.7000000477,,875790.674,8,400,,,
break_continue,html.Screen,4_114_2,2023-09-08T20:01:35.033Z,,0,,,NaN,,,,,,false,,,,875846.7000000477,875846.5999999046,,875846.4000000954,,875790.674,8,400,,,
sequence,flow.Sequence,4_114,2023-09-08T20:01:35.033Z,,0,,,5316.196999904583,completion,,,,,false,,,,875846.7999999523,875846.5999999046,870513.713,870579.2000000477,870530.403,875790.674,8,400,,,
trial,html.Screen,4_115_0,2023-09-08T20:01:39.794Z,,0,3,,4817.526000047685,response,ISIC_0054655.JPG,5,ISIC_0533122.JPG,ISIC_0533122.JPG,false,0,keypress(z),500,880608.2999999523,880608.2000000477,875774.1,875846.9000000954,875790.674,880549.875,8,400,16,,ISIC_0054655.JPG
break,html.Screen,4_115_1,2023-09-08T20:01:39.795Z,,0,,,NaN,,,,,,false,,,,880608.7000000477,880608.5999999046,,880608.5,,880549.875,8,400,,,
break_continue,html.Screen,4_115_2,2023-09-08T20:01:39.795Z,,0,,,NaN,,,,,,false,,,,880608.9000000954,880608.9000000954,,880608.7000000477,,880549.875,8,400,,,
sequence,flow.Sequence,4_115,2023-09-08T20:01:39.795Z,,0,,,4818.226000095368,completion,,,,,false,,,,880609,880608.9000000954,875774.1,875846.9000000954,875790.674,880549.875,8,400,,,
trial,html.Screen,4_116_0,2023-09-08T20:01:47.684Z,,0,3,,7948.625,response,ISIC_2147549.JPG,5,ISIC_0070342.JPG,ISIC_0070342.JPG,false,0,keypress(z),500,888498.5999999046,888498.5,880533.219,880609.0999999046,880549.875,888448.682,8,400,17,,ISIC_2147549.JPG
break,html.Screen,4_116_1,2023-09-08T20:01:47.685Z,,0,,,NaN,,,,,,false,,,,888498.9000000954,888498.9000000954,,888498.7000000477,,888448.682,8,400,,,
break_continue,html.Screen,4_116_2,2023-09-08T20:01:47.685Z,,0,,,NaN,,,,,,false,,,,888499.0999999046,888499,,888499,,888448.682,8,400,,,
sequence,flow.Sequence,4_116,2023-09-08T20:01:47.685Z,,0,,,7949.125,completion,,,,,false,,,,888499.2000000477,888499,880533.219,880609.0999999046,880549.875,888448.682,8,400,,,
trial,html.Screen,4_117_0,2023-09-08T20:01:52.855Z,,0,3,,5219.718000095338,response,ISIC_0538042.JPG,6,ISIC_0033180.JPG,ISIC_0538042.JPG,false,1,keypress(m),500,893668.7000000477,893668.4000000954,888432.072,888499.2000000477,888448.682,893625.53,8,400,18,,ISIC_0033180.JPG
break,html.Screen,4_117_1,2023-09-08T20:01:52.855Z,,0,,,NaN,,,,,,false,,,,893669.2000000477,893669.0999999046,,893668.7999999523,,893625.53,8,400,,,
break_continue,html.Screen,4_117_2,2023-09-08T20:01:52.855Z,,0,,,NaN,,,,,,false,,,,893669.5999999046,893669.4000000954,,893669.4000000954,,893625.53,8,400,,,
sequence,flow.Sequence,4_117,2023-09-08T20:01:52.856Z,,0,,,5220.718000095338,completion,,,,,false,,,,893669.5999999046,893669.4000000954,888432.072,888499.2000000477,888448.682,893625.53,8,400,,,
trial,html.Screen,4_118_0,2023-09-08T20:01:58.762Z,,0,3,,5950.469999999972,response,ISIC_5797404.JPG,5,ISIC_0029480.JPG,ISIC_5797404.JPG,false,1,keypress(m),500,899576.2999999523,899576,893608.657,893669.7999999523,893625.53,899520.228,8,400,19,,ISIC_0029480.JPG
break,html.Screen,4_118_1,2023-09-08T20:01:58.763Z,,0,,,NaN,,,,,,false,,,,899577.2000000477,899576.9000000954,,899576.5,,899520.228,8,400,,,
break_continue,html.Screen,4_118_2,2023-09-08T20:01:58.764Z,,0,,,NaN,,,,,,false,,,,899577.7000000477,899577.5999999046,,899577.4000000954,,899520.228,8,400,,,
sequence,flow.Sequence,4_118,2023-09-08T20:01:58.764Z,,0,,,5952.069999904605,completion,,,,,false,,,,899577.9000000954,899577.5999999046,893608.657,893669.7999999523,893625.53,899520.228,8,400,,,
trial,html.Screen,4_119_0,2023-09-08T20:02:06.179Z,,0,3,,7472.0719999523135,response,ISIC_2011145.JPG,5,ISIC_9107280.JPG,ISIC_2011145.JPG,false,1,keypress(m),500,906992.5999999046,906992.2999999523,899503.459,899578,899520.228,906951.375,8,400,20,,ISIC_9107280.JPG
break,html.Screen,4_119_1,2023-09-08T20:02:06.180Z,,0,,,NaN,,,,,,false,,,,906993.9000000954,906993.5,,906993,,906951.375,8,400,,,
break_continue,html.Screen,4_119_2,2023-09-08T20:02:06.181Z,,0,,,NaN,,,,,,false,,,,906994.7000000477,906994.5,,906994.2999999523,,906951.375,8,400,,,
sequence,flow.Sequence,4_119,2023-09-08T20:02:06.181Z,,0,,,7474.271999999997,completion,,,,,false,,,,906995.2000000477,906994.5,899503.459,899578,899520.228,906951.375,8,400,,,
trial,html.Screen,4_120_0,2023-09-08T20:02:12.663Z,,0,3,,6526.125,response,ISIC_0046693.JPG,5,ISIC_0031589.JPG,ISIC_0031589.JPG,false,0,keypress(z),500,913477.5999999046,913477.5,906934.746,906995.4000000954,906951.375,913430.65,8,400,21,,ISIC_0046693.JPG
break,html.Screen,4_120_1,2023-09-08T20:02:12.664Z,,0,,,NaN,,,,,,false,,,,913477.9000000954,913477.9000000954,,913477.7000000477,,913430.65,8,400,,,
break_continue,html.Screen,4_120_2,2023-09-08T20:02:12.664Z,,0,,,NaN,,,,,,false,,,,913478.2000000477,913478.2000000477,,913478.0999999046,,913430.65,8,400,,,
sequence,flow.Sequence,4_120,2023-09-08T20:02:12.664Z,,0,,,6526.825000047684,completion,,,,,false,,,,913478.2999999523,913478.2000000477,906934.746,906995.4000000954,906951.375,913430.65,8,400,,,
trial,html.Screen,4_121_0,2023-09-08T20:02:18.282Z,,0,3,,5665.649999952293,response,ISIC_0030034.JPG,4,ISIC_0011484.JPG,ISIC_0011484.JPG,false,0,keypress(z),500,919096.4000000954,919096.2999999523,913413.873,913478.4000000954,913430.65,919041.499,8,400,22,,ISIC_0030034.JPG
break,html.Screen,4_121_1,2023-09-08T20:02:18.283Z,,0,,,NaN,,,,,,false,,,,919096.7999999523,919096.7000000477,,919096.5,,919041.499,8,400,,,
break_continue,html.Screen,4_121_2,2023-09-08T20:02:18.283Z,,0,,,NaN,,,,,,false,,,,919097,919096.9000000954,,919096.9000000954,,919041.499,8,400,,,
sequence,flow.Sequence,4_121,2023-09-08T20:02:18.283Z,,0,,,5666.250000095344,completion,,,,,false,,,,919097.0999999046,919096.9000000954,913413.873,913478.4000000954,913430.65,919041.499,8,400,,,
trial,html.Screen,4_122_0,2023-09-08T20:02:24.253Z,,0,3,,6025.201000047731,response,ISIC_2038024.JPG,6,ISIC_5490352.JPG,ISIC_2038024.JPG,false,1,keypress(m),500,925066.7999999523,925066.7000000477,919024.824,919097.0999999046,919041.499,925019.75,8,400,23,,ISIC_5490352.JPG
break,html.Screen,4_122_1,2023-09-08T20:02:24.253Z,,0,,,NaN,,,,,,false,,,,925067.2999999523,925067.2000000477,,925067,,925019.75,8,400,,,
break_continue,html.Screen,4_122_2,2023-09-08T20:02:24.254Z,,0,,,NaN,,,,,,false,,,,925067.5999999046,925067.4000000954,,925067.4000000954,,925019.75,8,400,,,
sequence,flow.Sequence,4_122,2023-09-08T20:02:24.254Z,,0,,,6025.901000095415,completion,,,,,false,,,,925067.7000000477,925067.4000000954,919024.824,919097.0999999046,919041.499,925019.75,8,400,,,
trial,html.Screen,4_123_0,2023-09-08T20:02:31.871Z,,0,3,,7665.150000095367,response,ISIC_5258657.JPG,5,ISIC_0000393.JPG,ISIC_5258657.JPG,false,1,keypress(m),500,932685,932684.9000000954,925003.241,925067.7999999523,925019.75,932634.6,8,400,24,,ISIC_0000393.JPG
break,html.Screen,4_123_1,2023-09-08T20:02:31.871Z,,0,,,NaN,,,,,,false,,,,932685.5,932685.2000000477,,932685.2000000477,,932634.6,8,400,,,
break_continue,html.Screen,4_123_2,2023-09-08T20:02:31.872Z,,0,,,NaN,,,,,,false,,,,932685.7999999523,932685.7000000477,,932685.5999999046,,932634.6,8,400,,,
sequence,flow.Sequence,4_123,2023-09-08T20:02:31.872Z,,0,,,7665.950000047684,completion,,,,,false,,,,932685.9000000954,932685.7000000477,925003.241,925067.7999999523,925019.75,932634.6,8,400,,,
trial,html.Screen,4_124_0,2023-09-08T20:02:36.838Z,,0,3,,5017.69999995234,response,ISIC_0360367.JPG,6,ISIC_0011892.JPG,ISIC_0360367.JPG,false,1,keypress(m),500,937652.4000000954,937652.2999999523,932618.026,932685.9000000954,932634.6,937594.241,8,400,25,,ISIC_0011892.JPG
break,html.Screen,4_124_1,2023-09-08T20:02:36.839Z,,0,,,NaN,,,,,,false,,,,937652.7999999523,937652.5999999046,,937652.5999999046,,937594.241,8,400,,,
break_continue,html.Screen,4_124_2,2023-09-08T20:02:36.839Z,,0,,,NaN,,,,,,false,,,,937652.9000000954,937652.9000000954,,937652.9000000954,,937594.241,8,400,,,
sequence,flow.Sequence,4_124,2023-09-08T20:02:36.839Z,,0,,,5018.300000095391,completion,,,,,false,,,,937653.0999999046,937652.9000000954,932618.026,932685.9000000954,932634.6,937594.241,8,400,,,
trial,html.Screen,4_125_0,2023-09-08T20:02:44.189Z,,0,3,,7409.258999999962,response,ISIC_0014395.JPG,5,ISIC_0753491.JPG,ISIC_0014395.JPG,false,1,keypress(m),500,945003.5999999046,945003.5,937577.564,937653.2000000477,937594.241,944958.635,8,400,26,,ISIC_0753491.JPG
break,html.Screen,4_125_1,2023-09-08T20:02:44.190Z,,0,,,NaN,,,,,,false,,,,945003.9000000954,945003.7999999523,,945003.5999999046,,944958.635,8,400,,,
break_continue,html.Screen,4_125_2,2023-09-08T20:02:44.190Z,,0,,,NaN,,,,,,false,,,,945004.0999999046,945004,,945003.9000000954,,944958.635,8,400,,,
sequence,flow.Sequence,4_125,2023-09-08T20:02:44.190Z,,0,,,7409.758999999962,completion,,,,,false,,,,945004.2000000477,945004,937577.564,937653.2000000477,937594.241,944958.635,8,400,,,
