sender,sender_type,sender_id,timestamp,meta,,blockNo,condition,duration,ended_on,img_left,img_reveal,img_right,loser,practice,response,response_action,selection_duration,time_commit,time_end,time_render,time_run,time_show,time_switch,total_blocks,total_trials,trialNo,url,winner
informed_consent,html.Screen,0,2023-09-13T15:46:29.580Z,"{""labjs_version"":""20.2.4"",""labjs_build"":{""flavor"":""development"",""commit"":""f5b4a49f956347addd546a832a3327688c2c0fef""},""location"":""https://labjs.felixhenninger.com/api/labjs_preview/index.html"",""userAgent"":""Mozilla/5.0 (Windows NT 10.0; Win64; x64) AppleWebKit/537.36 (KHTML, like Gecko) Chrome/116.0.0.0 Safari/537.36"",""platform"":""Win32"",""language"":""en-AU"",""locale"":""en-US"",""timeZone"":""America/Chicago"",""timezoneOffset"":300,""screen_width"":2560,""screen_height"":1440,""scroll_width"":1296,""scroll_height"":688,""window_innerWidth"":1296,""window_innerHeight"":736,""devicePixelRatio"":1}",,,,4352.8020000953675,response,,,,,,consent,click button,,4952.799999713898,4951.900000095367,582.393,597.5,599.098,4957.507,,,,{},
Welcome,html.Screen,1,2023-09-13T15:46:29.751Z,,,,asymmetry,166.39300009536782,response,,,,,,continue,click button,,5124.5,5123.900000095367,4940.893,4953.099999904633,4957.507,5142.51,,,,,
trial,html.Screen,2_0_0,2023-09-13T15:46:41.259Z,,0,0,,11521.06,timeout,ISIC_0069348.JPG,,ISIC_6997061.JPG,,true,,,500,16631,16630.799999713898,5107.815,5124.699999809265,5142.51,16663.57,1,6,1,,
sequence,flow.Sequence,2_0,2023-09-13T15:46:41.260Z,,0,,,11488.289999713897,completion,,,,,true,,,,16631.400000095367,16630.799999713898,5107.815,5124.599999904633,5142.51,16663.57,1,6,,,
trial,html.Screen,2_1_0,2023-09-13T15:46:52.782Z,,0,0,,11522.471000000001,timeout,ISIC_0057368.JPG,,ISIC_0009529.JPG,,true,,,500,28153.299999713898,28153.099999904633,16646.883,16631.5,16663.57,28186.041,1,6,2,,
sequence,flow.Sequence,2_1,2023-09-13T15:46:52.782Z,,0,,,11489.529999904633,completion,,,,,true,,,,28153.5,28153.099999904633,16646.883,16631.5,16663.57,28186.041,1,6,,,
trial,html.Screen,2_2_0,2023-09-13T15:46:56.242Z,,0,0,,3427.2589997138966,response,ISIC_0064954.JPG,,ISIC_9758671.JPG,ISIC_0064954.JPG,true,1,keypress(m),500,31613.5,31613.299999713898,28169.337,28153.5,28186.041,31626.204,1,6,3,,ISIC_9758671.JPG
sequence,flow.Sequence,2_2,2023-09-13T15:46:56.242Z,,0,,,3427.2589997138966,completion,,,,,true,,,,31613.900000095367,31613.299999713898,28169.337,28153.5,28186.041,31626.204,1,6,,,
trial,html.Screen,2_3_0,2023-09-13T15:47:01.795Z,,0,0,,5540.595999713896,response,ISIC_0000080.JPG,,ISIC_0005785.JPG,ISIC_0000080.JPG,true,1,keypress(m),500,37166.90000009537,37166.7999997139,31609.454,31614,31626.204,37170.183,1,6,4,,ISIC_0005785.JPG
sequence,flow.Sequence,2_3,2023-09-13T15:47:01.796Z,,0,,,5540.595999713896,completion,,,,,true,,,,37167.199999809265,37166.7999997139,31609.454,31614,31626.204,37170.183,1,6,,,
trial,html.Screen,2_4_0,2023-09-13T15:47:04.524Z,,0,0,,2724.9169999046353,response,ISIC_5390060.JPG,,ISIC_7944028.JPG,ISIC_7944028.JPG,true,0,keypress(z),500,39895.199999809265,39895.09999990463,37153.581,37167.40000009537,37170.183,39908.845,1,6,5,,ISIC_5390060.JPG
sequence,flow.Sequence,2_4,2023-09-13T15:47:04.524Z,,0,,,2724.9169999046353,completion,,,,,true,,,,39895.2999997139,39895.09999990463,37153.581,37167.40000009537,37170.183,39908.845,1,6,,,
trial,html.Screen,2_5_0,2023-09-13T15:47:07.348Z,,0,0,,2811.0550000953663,response,ISIC_0794216.JPG,,ISIC_0010188.JPG,ISIC_0794216.JPG,true,1,keypress(m),500,42720.09999990463,42719.90000009537,39892.267,39895.5,39908.845,42731.095,1,6,6,,ISIC_0010188.JPG
sequence,flow.Sequence,2_5,2023-09-13T15:47:07.349Z,,0,,,2811.0550000953663,completion,,,,,true,,,,42720.199999809265,42719.90000009537,39892.267,39895.5,39908.845,42731.095,1,6,,,
loop,flow.Loop,2,2023-09-13T15:47:07.349Z,,,,,37577.390000095365,completion,,,,,true,,,,42720.40000009537,42719.90000009537,5107.815,5124.599999904633,5142.51,42731.095,1,6,,,
exp_instructions,html.Screen,3,2023-09-13T15:47:29.661Z,,,,,22301.405,response,,,,,,continue,keypress(Space),,65033.09999990463,65032.5,42714.407,42720.40000009537,42731.095,65041.082,,,,,
trial,html.Screen,4_0_0,2023-09-13T15:47:35.780Z,,0,1,,6110.117999809263,response,ISIC_0065206.JPG,5,ISIC_9969907.JPG,ISIC_9969907.JPG,false,0,keypress(z),500,71151.2999997139,71151.19999980927,65024.408,65033.2999997139,65041.082,71152.949,8,400,1,,ISIC_0065206.JPG
break,html.Screen,4_0_1,2023-09-13T15:47:35.780Z,,0,,,NaN,,,,,,false,,,,71152,71151.7999997139,,71151.40000009537,,71152.949,8,400,,,
break_continue,html.Screen,4_0_2,2023-09-13T15:47:35.780Z,,0,,,NaN,,,,,,false,,,,71152.19999980927,71152.19999980927,,71152,,71152.949,8,400,,,
sequence,flow.Sequence,4_0,2023-09-13T15:47:35.781Z,,0,,,6111.117999809263,completion,,,,,false,,,,71152.19999980927,71152.19999980927,65024.408,65033.2999997139,65041.082,71152.949,8,400,,,
trial,html.Screen,4_1_0,2023-09-13T15:47:42.824Z,,0,1,,7041.250999809272,response,ISIC_0061479.JPG,5,ISIC_0066033.JPG,ISIC_0066033.JPG,false,0,keypress(z),500,78194.5,78194.19999980927,71136.387,71152.40000009537,71152.949,78200.025,8,400,2,,ISIC_0061479.JPG
break,html.Screen,4_1_1,2023-09-13T15:47:42.825Z,,0,,,NaN,,,,,,false,,,,78195.5,78195.19999980927,,78194.7999997139,,78200.025,8,400,,,
break_continue,html.Screen,4_1_2,2023-09-13T15:47:42.826Z,,0,,,NaN,,,,,,false,,,,78196,78195.90000009537,,78195.59999990463,,78200.025,8,400,,,
sequence,flow.Sequence,4_1,2023-09-13T15:47:42.826Z,,0,,,7042.951000095374,completion,,,,,false,,,,78196.19999980927,78195.90000009537,71136.387,71152.40000009537,71152.949,78200.025,8,400,,,
trial,html.Screen,4_2_0,2023-09-13T15:47:49.915Z,,0,1,,7085.574999904638,response,ISIC_3825641.JPG,4,ISIC_0014703.JPG,ISIC_3825641.JPG,false,1,keypress(m),500,85285.7999997139,85285.59999990463,78183.43,78196.2999997139,78200.025,85297.232,8,400,3,,ISIC_0014703.JPG
break,html.Screen,4_2_1,2023-09-13T15:47:49.916Z,,0,,,NaN,,,,,,false,,,,85286.2999997139,85286.09999990463,,85285.90000009537,,85297.232,8,400,,,
break_continue,html.Screen,4_2_2,2023-09-13T15:47:49.916Z,,0,,,NaN,,,,,,false,,,,85286.5,85286.40000009537,,85286.2999997139,,85297.232,8,400,,,
sequence,flow.Sequence,4_2,2023-09-13T15:47:49.916Z,,0,,,7086.375000095373,completion,,,,,false,,,,85286.59999990463,85286.40000009537,78183.43,78196.19999980927,78200.025,85297.232,8,400,,,
trial,html.Screen,4_3_0,2023-09-13T15:47:57.780Z,,0,1,,7853.267999999996,response,ISIC_1899683.JPG,4,ISIC_5931552.JPG,ISIC_5931552.JPG,false,0,keypress(z),500,93150.59999990463,93150.5,85280.591,85286.69999980927,85297.232,93162.53,8,400,4,,ISIC_1899683.JPG
break,html.Screen,4_3_1,2023-09-13T15:47:57.781Z,,0,,,NaN,,,,,,false,,,,93151,93150.90000009537,,93150.69999980927,,93162.53,8,400,,,
break_continue,html.Screen,4_3_2,2023-09-13T15:47:57.781Z,,0,,,NaN,,,,,,false,,,,93151.2999997139,93151.19999980927,,93151.09999990463,,93162.53,8,400,,,
sequence,flow.Sequence,4_3,2023-09-13T15:47:57.781Z,,0,,,7853.9679998092615,completion,,,,,false,,,,93151.2999997139,93151.19999980927,85280.591,85286.69999980927,85297.232,93162.53,8,400,,,
trial,html.Screen,4_4_0,2023-09-13T15:48:03.638Z,,0,1,,5845.970000000001,response,ISIC_6577767.JPG,5,ISIC_0032635.JPG,ISIC_0032635.JPG,false,0,keypress(z),500,99008.5,99008.5,93145.868,93151.40000009537,93162.53,99023.968,8,400,5,,ISIC_6577767.JPG
break,html.Screen,4_4_1,2023-09-13T15:48:03.639Z,,0,,,NaN,,,,,,false,,,,99009.09999990463,99008.90000009537,,99008.59999990463,,99023.968,8,400,,,
break_continue,html.Screen,4_4_2,2023-09-13T15:48:03.639Z,,0,,,NaN,,,,,,false,,,,99009.2999997139,99009.19999980927,,99009.09999990463,,99023.968,8,400,,,
sequence,flow.Sequence,4_4,2023-09-13T15:48:03.639Z,,0,,,5846.669999809266,completion,,,,,false,,,,99009.40000009537,99009.19999980927,93145.868,93151.40000009537,93162.53,99023.968,8,400,,,
trial,html.Screen,4_5_0,2023-09-13T15:48:10.696Z,,0,1,,7042.331999713904,response,ISIC_0003052.JPG,4,ISIC_0061749.JPG,ISIC_0061749.JPG,false,0,keypress(z),500,106066.40000009537,106066.2999997139,99007.174,99009.5,99023.968,106070.995,8,400,6,,ISIC_0003052.JPG
break,html.Screen,4_5_1,2023-09-13T15:48:10.697Z,,0,,,NaN,,,,,,false,,,,106067.09999990463,106066.69999980927,,106066.5,,106070.995,8,400,,,
break_continue,html.Screen,4_5_2,2023-09-13T15:48:10.697Z,,0,,,NaN,,,,,,false,,,,106067.2999997139,106067.2999997139,,106067.19999980927,,106070.995,8,400,,,
sequence,flow.Sequence,4_5,2023-09-13T15:48:10.697Z,,0,,,7043.331999713904,completion,,,,,false,,,,106067.40000009537,106067.2999997139,99007.174,99009.40000009537,99023.968,106070.995,8,400,,,
trial,html.Screen,4_6_0,2023-09-13T15:48:17.246Z,,0,1,,6545.70499980927,response,ISIC_1471329.JPG,6,ISIC_2583592.JPG,ISIC_2583592.JPG,false,0,keypress(z),500,112616.7999997139,112616.69999980927,106054.336,106067.5,106070.995,112633.704,8,400,7,,ISIC_1471329.JPG
break,html.Screen,4_6_1,2023-09-13T15:48:17.247Z,,0,,,NaN,,,,,,false,,,,112617.69999980927,112617.19999980927,,112616.90000009537,,112633.704,8,400,,,
break_continue,html.Screen,4_6_2,2023-09-13T15:48:17.248Z,,0,,,NaN,,,,,,false,,,,112618,112618,,112617.90000009537,,112633.704,8,400,,,
sequence,flow.Sequence,4_6,2023-09-13T15:48:17.248Z,,0,,,6547.005000000005,completion,,,,,false,,,,112618.09999990463,112618,106054.336,106067.40000009537,106070.995,112633.704,8,400,,,
trial,html.Screen,4_7_0,2023-09-13T15:48:22.977Z,,0,1,,5713.296000000002,response,ISIC_0015938.JPG,6,ISIC_4383671.JPG,ISIC_0015938.JPG,false,1,keypress(m),500,118347.09999990463,118347,112617.112,112618.09999990463,112633.704,118361.528,8,400,8,,ISIC_4383671.JPG
break,html.Screen,4_7_1,2023-09-13T15:48:22.978Z,,0,,,NaN,,,,,,false,,,,118348,118347.69999980927,,118347.2999997139,,118361.528,8,400,,,
break_continue,html.Screen,4_7_2,2023-09-13T15:48:22.978Z,,0,,,NaN,,,,,,false,,,,118348.2999997139,118348.19999980927,,118348.09999990463,,118361.528,8,400,,,
sequence,flow.Sequence,4_7,2023-09-13T15:48:22.978Z,,0,,,5714.495999809267,completion,,,,,false,,,,118348.40000009537,118348.19999980927,112617.112,112618.09999990463,112633.704,118361.528,8,400,,,
trial,html.Screen,4_8_0,2023-09-13T15:48:28.052Z,,0,1,,5060.271999713892,response,ISIC_3961647.JPG,5,ISIC_2856521.JPG,ISIC_3961647.JPG,false,1,keypress(m),500,123422,123421.7999997139,118344.918,118348.59999990463,118361.528,123438.19,8,400,9,,ISIC_2856521.JPG
break,html.Screen,4_8_1,2023-09-13T15:48:28.052Z,,0,,,NaN,,,,,,false,,,,123422.59999990463,123422.5,,123422.19999980927,,123438.19,8,400,,,
break_continue,html.Screen,4_8_2,2023-09-13T15:48:28.053Z,,0,,,NaN,,,,,,false,,,,123423,123422.7999997139,,123422.69999980927,,123438.19,8,400,,,
sequence,flow.Sequence,4_8,2023-09-13T15:48:28.053Z,,0,,,5061.271999713892,completion,,,,,false,,,,123423,123422.7999997139,118344.918,118348.59999990463,118361.528,123438.19,8,400,,,
trial,html.Screen,4_9_0,2023-09-13T15:48:34.379Z,,0,1,,6311.109999713895,response,ISIC_0025531.JPG,6,ISIC_5755836.JPG,ISIC_5755836.JPG,false,0,keypress(z),500,129749.59999990463,129749.2999997139,123421.471,123423.09999990463,123438.19,129767.154,8,400,10,,ISIC_0025531.JPG
break,html.Screen,4_9_1,2023-09-13T15:48:34.381Z,,0,,,NaN,,,,,,false,,,,129750.90000009537,129750.40000009537,,129749.90000009537,,129767.154,8,400,,,
break_continue,html.Screen,4_9_2,2023-09-13T15:48:34.381Z,,0,,,NaN,,,,,,false,,,,129751.69999980927,129751.59999990463,,129751.09999990463,,129767.154,8,400,,,
sequence,flow.Sequence,4_9,2023-09-13T15:48:34.382Z,,0,,,6313.40999990463,completion,,,,,false,,,,129751.90000009537,129751.59999990463,123421.471,123423.09999990463,123438.19,129767.154,8,400,,,
trial,html.Screen,4_10_0,2023-09-13T15:48:40.677Z,,0,1,,6278.145999713903,response,ISIC_2046891.JPG,5,ISIC_0065889.JPG,ISIC_0065889.JPG,false,0,keypress(z),500,136045.40000009537,136045.2999997139,129750.361,129752.09999990463,129767.154,136045.934,8,400,11,,ISIC_2046891.JPG
break,html.Screen,4_10_1,2023-09-13T15:48:40.677Z,,0,,,NaN,,,,,,false,,,,136046,136045.7999997139,,136045.59999990463,,136045.934,8,400,,,
break_continue,html.Screen,4_10_2,2023-09-13T15:48:40.678Z,,0,,,NaN,,,,,,false,,,,136046.5,136046.40000009537,,136046.19999980927,,136045.934,8,400,,,
sequence,flow.Sequence,4_10,2023-09-13T15:48:40.678Z,,0,,,6279.246000095372,completion,,,,,false,,,,136046.69999980927,136046.40000009537,129750.361,129752.09999990463,129767.154,136045.934,8,400,,,
trial,html.Screen,4_11_0,2023-09-13T15:48:46.313Z,,0,1,,5635.265999809257,response,ISIC_0054043.JPG,4,ISIC_0070313.JPG,ISIC_0070313.JPG,false,0,keypress(z),500,141681.2999997139,141681.19999980927,136029.337,136046.7999997139,136045.934,141690.239,8,400,12,,ISIC_0054043.JPG
break,html.Screen,4_11_1,2023-09-13T15:48:46.313Z,,0,,,NaN,,,,,,false,,,,141681.90000009537,141681.69999980927,,141681.40000009537,,141690.239,8,400,,,
break_continue,html.Screen,4_11_2,2023-09-13T15:48:46.314Z,,0,,,NaN,,,,,,false,,,,141682.2999997139,141682.19999980927,,141682,,141690.239,8,400,,,
sequence,flow.Sequence,4_11,2023-09-13T15:48:46.314Z,,0,,,5636.265999809257,completion,,,,,false,,,,141682.2999997139,141682.19999980927,136029.337,136046.7999997139,136045.934,141690.239,8,400,,,
trial,html.Screen,4_12_0,2023-09-13T15:48:51.837Z,,0,1,,5515.360999904631,response,ISIC_0525687.JPG,5,ISIC_4821309.JPG,ISIC_0525687.JPG,false,1,keypress(m),500,147205.7999997139,147205.59999990463,141673.931,141682.2999997139,141690.239,147217.649,8,400,13,,ISIC_4821309.JPG
break,html.Screen,4_12_1,2023-09-13T15:48:51.838Z,,0,,,NaN,,,,,,false,,,,147206.5,147206.2999997139,,147205.90000009537,,147217.649,8,400,,,
break_continue,html.Screen,4_12_2,2023-09-13T15:48:51.838Z,,0,,,NaN,,,,,,false,,,,147206.69999980927,147206.69999980927,,147206.5,,147217.649,8,400,,,
sequence,flow.Sequence,4_12,2023-09-13T15:48:51.838Z,,0,,,5516.460999809264,completion,,,,,false,,,,147206.7999997139,147206.69999980927,141673.931,141682.2999997139,141690.239,147217.649,8,400,,,
trial,html.Screen,4_13_0,2023-09-13T15:49:00.759Z,,0,1,,8910.150999713893,response,ISIC_9556334.JPG,4,ISIC_1752943.JPG,ISIC_1752943.JPG,false,0,keypress(z),500,156127.90000009537,156127.7999997139,147201.12,147206.90000009537,147217.649,156135.097,8,400,14,,ISIC_9556334.JPG
break,html.Screen,4_13_1,2023-09-13T15:49:00.760Z,,0,,,NaN,,,,,,false,,,,156128.59999990463,156128.2999997139,,156128,,156135.097,8,400,,,
break_continue,html.Screen,4_13_2,2023-09-13T15:49:00.760Z,,0,,,NaN,,,,,,false,,,,156128.7999997139,156128.7999997139,,156128.59999990463,,156135.097,8,400,,,
sequence,flow.Sequence,4_13,2023-09-13T15:49:00.760Z,,0,,,8911.150999713893,completion,,,,,false,,,,156128.90000009537,156128.7999997139,147201.12,147206.90000009537,147217.649,156135.097,8,400,,,
trial,html.Screen,4_14_0,2023-09-13T15:49:06.237Z,,0,1,,5470.303000095359,response,ISIC_0024779.JPG,5,ISIC_0061011.JPG,ISIC_0024779.JPG,false,1,keypress(m),500,161605.59999990463,161605.40000009537,156118.497,156129,156135.097,161612.422,8,400,15,,ISIC_0061011.JPG
break,html.Screen,4_14_1,2023-09-13T15:49:06.238Z,,0,,,NaN,,,,,,false,,,,161606.09999990463,161606,,161605.69999980927,,161612.422,8,400,,,
break_continue,html.Screen,4_14_2,2023-09-13T15:49:06.238Z,,0,,,NaN,,,,,,false,,,,161606.5,161606.5,,161606.19999980927,,161612.422,8,400,,,
sequence,flow.Sequence,4_14,2023-09-13T15:49:06.238Z,,0,,,5471.402999999991,completion,,,,,false,,,,161606.59999990463,161606.5,156118.497,156128.90000009537,156135.097,161612.422,8,400,,,
trial,html.Screen,4_15_0,2023-09-13T15:49:13.202Z,,0,1,,6957.877999713906,response,ISIC_9141817.JPG,5,ISIC_0034236.JPG,ISIC_0034236.JPG,false,0,keypress(z),500,168570.40000009537,168570.2999997139,161595.762,161606.59999990463,161612.422,168576,8,400,16,,ISIC_9141817.JPG
break,html.Screen,4_15_1,2023-09-13T15:49:13.202Z,,0,,,NaN,,,,,,false,,,,168570.7999997139,168570.69999980927,,168570.5,,168576,8,400,,,
break_continue,html.Screen,4_15_2,2023-09-13T15:49:13.202Z,,0,,,NaN,,,,,,false,,,,168571.09999990463,168571,,168570.90000009537,,168576,8,400,,,
sequence,flow.Sequence,4_15,2023-09-13T15:49:13.203Z,,0,,,6958.578000000009,completion,,,,,false,,,,168571.09999990463,168571,161595.762,161606.59999990463,161612.422,168576,8,400,,,
trial,html.Screen,4_16_0,2023-09-13T15:49:18.788Z,,0,1,,5580.299999713898,response,ISIC_4534608.JPG,4,ISIC_0013427.JPG,ISIC_4534608.JPG,false,1,keypress(m),500,174156.2999997139,174156.2999997139,168559.344,168571.19999980927,168576,174170.105,8,400,17,,ISIC_0013427.JPG
break,html.Screen,4_16_1,2023-09-13T15:49:18.788Z,,0,,,NaN,,,,,,false,,,,174156.90000009537,174156.7999997139,,174156.5,,174170.105,8,400,,,
break_continue,html.Screen,4_16_2,2023-09-13T15:49:18.789Z,,0,,,NaN,,,,,,false,,,,174157.19999980927,174157.09999990463,,174157,,174170.105,8,400,,,
sequence,flow.Sequence,4_16,2023-09-13T15:49:18.789Z,,0,,,5581.099999904633,completion,,,,,false,,,,174157.2999997139,174157.09999990463,168559.344,168571.19999980927,168576,174170.105,8,400,,,
trial,html.Screen,4_17_0,2023-09-13T15:49:24.122Z,,0,1,,5319.994999904622,response,ISIC_3256887.JPG,5,ISIC_0055282.JPG,ISIC_0055282.JPG,false,0,keypress(z),500,179490.2999997139,179490.09999990463,174153.532,174157.2999997139,174170.105,179497.227,8,400,18,,ISIC_3256887.JPG
break,html.Screen,4_17_1,2023-09-13T15:49:24.122Z,,0,,,NaN,,,,,,false,,,,179490.69999980927,179490.59999990463,,179490.40000009537,,179497.227,8,400,,,
break_continue,html.Screen,4_17_2,2023-09-13T15:49:24.122Z,,0,,,NaN,,,,,,false,,,,179490.90000009537,179490.90000009537,,179490.7999997139,,179497.227,8,400,,,
sequence,flow.Sequence,4_17,2023-09-13T15:49:24.122Z,,0,,,5320.795000095357,completion,,,,,false,,,,179491,179490.90000009537,174153.532,174157.2999997139,174170.105,179497.227,8,400,,,
trial,html.Screen,4_18_0,2023-09-13T15:49:30.173Z,,0,1,,6043.673000095354,response,ISIC_4055833.JPG,5,ISIC_5747942.JPG,ISIC_4055833.JPG,false,1,keypress(m),500,185541.2999997139,185540.90000009537,179480.529,179491.09999990463,179497.227,185559.021,8,400,19,,ISIC_5747942.JPG
break,html.Screen,4_18_1,2023-09-13T15:49:30.175Z,,0,,,NaN,,,,,,false,,,,185543.40000009537,185542.90000009537,,185542.09999990463,,185559.021,8,400,,,
break_continue,html.Screen,4_18_2,2023-09-13T15:49:30.176Z,,0,,,NaN,,,,,,false,,,,185544.09999990463,185543.90000009537,,185543.59999990463,,185559.021,8,400,,,
sequence,flow.Sequence,4_18,2023-09-13T15:49:30.176Z,,0,,,6046.673000095354,completion,,,,,false,,,,185544.40000009537,185543.90000009537,179480.529,179491.09999990463,179497.227,185559.021,8,400,,,
trial,html.Screen,4_19_0,2023-09-13T15:49:36.871Z,,0,1,,6680.478999999992,response,ISIC_0962121.JPG,6,ISIC_8066660.JPG,ISIC_8066660.JPG,false,0,keypress(z),500,192239.59999990463,192239.5,185542.354,185544.69999980927,185559.021,192255.37,8,400,20,,ISIC_0962121.JPG
break,html.Screen,4_19_1,2023-09-13T15:49:36.871Z,,0,,,NaN,,,,,,false,,,,192240.09999990463,192239.90000009537,,192239.7999997139,,192255.37,8,400,,,
break_continue,html.Screen,4_19_2,2023-09-13T15:49:36.872Z,,0,,,NaN,,,,,,false,,,,192240.2999997139,192240.19999980927,,192240.09999990463,,192255.37,8,400,,,
sequence,flow.Sequence,4_19,2023-09-13T15:49:36.872Z,,0,,,6681.178999809257,completion,,,,,false,,,,192240.40000009537,192240.19999980927,185542.354,185544.59999990463,185559.021,192255.37,8,400,,,
trial,html.Screen,4_20_0,2023-09-13T15:49:42.843Z,,0,1,,5954.130000000005,response,ISIC_0061625.JPG,7,ISIC_0066749.JPG,ISIC_0066749.JPG,false,0,keypress(z),500,198209.69999980927,198209.5,192238.71,192240.40000009537,192255.37,198216.957,8,400,21,,ISIC_0061625.JPG
break,html.Screen,4_20_1,2023-09-13T15:49:42.844Z,,0,,,NaN,,,,,,false,,,,198210.7999997139,198210.5,,198210,,198216.957,8,400,,,
break_continue,html.Screen,4_20_2,2023-09-13T15:49:42.844Z,,0,,,NaN,,,,,,false,,,,198211.59999990463,198211.2999997139,,198211,,198216.957,8,400,,,
sequence,flow.Sequence,4_20,2023-09-13T15:49:42.845Z,,0,,,5955.929999713902,completion,,,,,false,,,,198211.90000009537,198211.2999997139,192238.71,192240.40000009537,192255.37,198216.957,8,400,,,
trial,html.Screen,4_21_0,2023-09-13T15:49:49.135Z,,0,1,,6284.943000095373,response,ISIC_0922552.JPG,4,ISIC_0058149.JPG,ISIC_0922552.JPG,false,1,keypress(m),500,204502,204501.90000009537,198200.285,198212,198216.957,204512.484,8,400,22,,ISIC_0058149.JPG
break,html.Screen,4_21_1,2023-09-13T15:49:49.136Z,,0,,,NaN,,,,,,false,,,,204502.59999990463,204502.5,,204502.19999980927,,204512.484,8,400,,,
break_continue,html.Screen,4_21_2,2023-09-13T15:49:49.136Z,,0,,,NaN,,,,,,false,,,,204503,204502.90000009537,,204502.69999980927,,204512.484,8,400,,,
sequence,flow.Sequence,4_21,2023-09-13T15:49:49.136Z,,0,,,6285.943000095373,completion,,,,,false,,,,204503.09999990463,204502.90000009537,198200.285,198211.90000009537,198216.957,204512.484,8,400,,,
trial,html.Screen,4_22_0,2023-09-13T15:49:55.657Z,,0,1,,6511.315999713901,response,ISIC_1418304.JPG,5,ISIC_0033710.JPG,ISIC_1418304.JPG,false,1,keypress(m),500,211023.7999997139,211023.7999997139,204495.898,204503.19999980927,204512.484,211025.134,8,400,23,,ISIC_0033710.JPG
break,html.Screen,4_22_1,2023-09-13T15:49:55.657Z,,0,,,NaN,,,,,,false,,,,211024.2999997139,211024.19999980927,,211024,,211025.134,8,400,,,
break_continue,html.Screen,4_22_2,2023-09-13T15:49:55.657Z,,0,,,NaN,,,,,,false,,,,211024.59999990463,211024.5,,211024.40000009537,,211025.134,8,400,,,
sequence,flow.Sequence,4_22,2023-09-13T15:49:55.658Z,,0,,,6512.016000000003,completion,,,,,false,,,,211024.59999990463,211024.5,204495.898,204503.19999980927,204512.484,211025.134,8,400,,,
trial,html.Screen,4_23_0,2023-09-13T15:50:02.059Z,,0,1,,6400.7660000953765,response,ISIC_0069908.JPG,6,ISIC_3152541.JPG,ISIC_0069908.JPG,false,1,keypress(m),500,217426.09999990463,217425.90000009537,211008.558,211024.7999997139,211025.134,217437.621,8,400,24,,ISIC_3152541.JPG
break,html.Screen,4_23_1,2023-09-13T15:50:02.059Z,,0,,,NaN,,,,,,false,,,,217426.5,217426.40000009537,,217426.09999990463,,217437.621,8,400,,,
break_continue,html.Screen,4_23_2,2023-09-13T15:50:02.060Z,,0,,,NaN,,,,,,false,,,,217426.69999980927,217426.59999990463,,217426.59999990463,,217437.621,8,400,,,
sequence,flow.Sequence,4_23,2023-09-13T15:50:02.060Z,,0,,,6401.465999904642,completion,,,,,false,,,,217426.69999980927,217426.59999990463,211008.558,211024.69999980927,211025.134,217437.621,8,400,,,
trial,html.Screen,4_24_0,2023-09-13T15:50:08.397Z,,0,1,,6325.878999999986,response,ISIC_0028239.JPG,6,ISIC_0060626.JPG,ISIC_0060626.JPG,false,0,keypress(z),500,223763.59999990463,223763.5,217421.061,217426.7999997139,217437.621,223766.612,8,400,25,,ISIC_0028239.JPG
break,html.Screen,4_24_1,2023-09-13T15:50:08.397Z,,0,,,NaN,,,,,,false,,,,223764.09999990463,223764,,223763.69999980927,,223766.612,8,400,,,
break_continue,html.Screen,4_24_2,2023-09-13T15:50:08.397Z,,0,,,NaN,,,,,,false,,,,223764.2999997139,223764.2999997139,,223764.19999980927,,223766.612,8,400,,,
sequence,flow.Sequence,4_24,2023-09-13T15:50:08.397Z,,0,,,6326.678999713884,completion,,,,,false,,,,223764.40000009537,223764.2999997139,217421.061,217426.7999997139,217437.621,223766.612,8,400,,,
trial,html.Screen,4_25_0,2023-09-13T15:50:12.575Z,,0,1,,4174.888000000006,response,ISIC_0009918.JPG,5,ISIC_0026552.JPG,ISIC_0026552.JPG,false,0,keypress(z),500,227941.69999980927,227941.5,223749.911,223764.40000009537,223766.612,227958.177,8,400,26,,ISIC_0009918.JPG
break,html.Screen,4_25_1,2023-09-13T15:50:12.575Z,,0,,,NaN,,,,,,false,,,,227942.2999997139,227942.19999980927,,227942,,227958.177,8,400,,,
break_continue,html.Screen,4_25_2,2023-09-13T15:50:12.575Z,,0,,,NaN,,,,,,false,,,,227942.5,227942.40000009537,,227942.40000009537,,227958.177,8,400,,,
sequence,flow.Sequence,4_25,2023-09-13T15:50:12.576Z,,0,,,4175.788000095374,completion,,,,,false,,,,227942.59999990463,227942.40000009537,223749.911,223764.40000009537,223766.612,227958.177,8,400,,,
trial,html.Screen,4_26_0,2023-09-13T15:50:20.402Z,,0,1,,7810.823000000004,response,ISIC_0032751.JPG,5,ISIC_0060222.JPG,ISIC_0032751.JPG,false,1,keypress(m),500,235769.09999990463,235769,227941.54,227942.59999990463,227958.177,235773.321,8,400,27,,ISIC_0060222.JPG
break,html.Screen,4_26_1,2023-09-13T15:50:20.403Z,,0,,,NaN,,,,,,false,,,,235769.69999980927,235769.40000009537,,235769.19999980927,,235773.321,8,400,,,
break_continue,html.Screen,4_26_2,2023-09-13T15:50:20.403Z,,0,,,NaN,,,,,,false,,,,235769.7999997139,235769.7999997139,,235769.69999980927,,235773.321,8,400,,,
sequence,flow.Sequence,4_26,2023-09-13T15:50:20.403Z,,0,,,7811.622999713902,completion,,,,,false,,,,235769.90000009537,235769.7999997139,227941.54,227942.59999990463,227958.177,235773.321,8,400,,,
trial,html.Screen,4_27_0,2023-09-13T15:50:25.383Z,,0,1,,4976.878999809269,response,ISIC_0027248.JPG,5,ISIC_9969263.JPG,ISIC_9969263.JPG,false,0,keypress(z),500,240750.40000009537,240750.19999980927,235756.734,235770,235773.321,240766.467,8,400,28,,ISIC_0027248.JPG
break,html.Screen,4_27_1,2023-09-13T15:50:25.384Z,,0,,,NaN,,,,,,false,,,,240750.7999997139,240750.59999990463,,240750.5,,240766.467,8,400,,,
break_continue,html.Screen,4_27_2,2023-09-13T15:50:25.384Z,,0,,,NaN,,,,,,false,,,,240750.90000009537,240750.90000009537,,240750.7999997139,,240766.467,8,400,,,
sequence,flow.Sequence,4_27,2023-09-13T15:50:25.384Z,,0,,,4977.579000095371,completion,,,,,false,,,,240751,240750.90000009537,235756.734,235769.90000009537,235773.321,240766.467,8,400,,,
trial,html.Screen,4_28_0,2023-09-13T15:50:30.317Z,,0,1,,4917.433000095363,response,ISIC_7618133.JPG,5,ISIC_0000139.JPG,ISIC_7618133.JPG,false,1,keypress(m),500,245684.09999990463,245683.90000009537,240749.77,240751,240766.467,245709.328,8,400,29,,ISIC_0000139.JPG
break,html.Screen,4_28_1,2023-09-13T15:50:30.318Z,,0,,,NaN,,,,,,false,,,,245684.69999980927,245684.5,,245684.19999980927,,245709.328,8,400,,,
break_continue,html.Screen,4_28_2,2023-09-13T15:50:30.318Z,,0,,,NaN,,,,,,false,,,,245685.09999990463,245685,,245684.90000009537,,245709.328,8,400,,,
sequence,flow.Sequence,4_28,2023-09-13T15:50:30.318Z,,0,,,4918.532999999996,completion,,,,,false,,,,245685.09999990463,245685,240749.77,240751,240766.467,245709.328,8,400,,,
trial,html.Screen,4_29_0,2023-09-13T15:50:35.236Z,,0,1,,4893.271999904624,response,ISIC_0360988.JPG,6,ISIC_0059808.JPG,ISIC_0360988.JPG,false,1,keypress(m),500,250602.7999997139,250602.59999990463,245692.641,245685.19999980927,245709.328,250635.583,8,400,30,,ISIC_0059808.JPG
break,html.Screen,4_29_1,2023-09-13T15:50:35.236Z,,0,,,NaN,,,,,,false,,,,250603.5,250603.19999980927,,250603,,250635.583,8,400,,,
break_continue,html.Screen,4_29_2,2023-09-13T15:50:35.237Z,,0,,,NaN,,,,,,false,,,,250603.7999997139,250603.7999997139,,250603.5,,250635.583,8,400,,,
sequence,flow.Sequence,4_29,2023-09-13T15:50:35.237Z,,0,,,4894.471999713889,completion,,,,,false,,,,250604,250603.7999997139,245692.641,245685.19999980927,245709.328,250635.583,8,400,,,
trial,html.Screen,4_30_0,2023-09-13T15:50:40.025Z,,0,1,,4755.016999904619,response,ISIC_0027021.JPG,5,ISIC_0031304.JPG,ISIC_0031304.JPG,false,0,keypress(z),500,255390.59999990463,255390.59999990463,250619,250604.09999990463,250635.583,255394.924,8,400,31,,ISIC_0027021.JPG
break,html.Screen,4_30_1,2023-09-13T15:50:40.026Z,,0,,,NaN,,,,,,false,,,,255391.09999990463,255390.90000009537,,255390.7999997139,,255394.924,8,400,,,
break_continue,html.Screen,4_30_2,2023-09-13T15:50:40.026Z,,0,,,NaN,,,,,,false,,,,255391.19999980927,255391.19999980927,,255391.09999990463,,255394.924,8,400,,,
sequence,flow.Sequence,4_30,2023-09-13T15:50:40.026Z,,0,,,4755.616999809252,completion,,,,,false,,,,255391.40000009537,255391.19999980927,250619,250604.09999990463,250635.583,255394.924,8,400,,,
trial,html.Screen,4_31_0,2023-09-13T15:50:45.603Z,,0,1,,5573.375999713899,response,ISIC_0011894.JPG,6,ISIC_0002026.JPG,ISIC_0002026.JPG,false,0,keypress(z),500,260968.5,260968.2999997139,255378.286,255391.40000009537,255394.924,260972.342,8,400,32,,ISIC_0011894.JPG
break,html.Screen,4_31_1,2023-09-13T15:50:45.604Z,,0,,,NaN,,,,,,false,,,,260969.09999990463,260968.7999997139,,260968.59999990463,,260972.342,8,400,,,
break_continue,html.Screen,4_31_2,2023-09-13T15:50:45.604Z,,0,,,NaN,,,,,,false,,,,260969.5,260969.5,,260969.19999980927,,260972.342,8,400,,,
sequence,flow.Sequence,4_31,2023-09-13T15:50:45.604Z,,0,,,5574.576000000001,completion,,,,,false,,,,260969.5,260969.5,255378.286,255391.40000009537,255394.924,260972.342,8,400,,,
trial,html.Screen,4_32_0,2023-09-13T15:50:50.985Z,,0,1,,5377.9579997138935,response,ISIC_0030135.JPG,6,ISIC_1927858.JPG,ISIC_1927858.JPG,false,0,keypress(z),500,266350.40000009537,266350.2999997139,260955.781,260969.59999990463,260972.342,266366.218,8,400,33,,ISIC_0030135.JPG
break,html.Screen,4_32_1,2023-09-13T15:50:50.985Z,,0,,,NaN,,,,,,false,,,,266350.7999997139,266350.69999980927,,266350.5,,266366.218,8,400,,,
break_continue,html.Screen,4_32_2,2023-09-13T15:50:50.985Z,,0,,,NaN,,,,,,false,,,,266350.90000009537,266350.90000009537,,266350.7999997139,,266366.218,8,400,,,
sequence,flow.Sequence,4_32,2023-09-13T15:50:50.986Z,,0,,,5378.558000095363,completion,,,,,false,,,,266351,266350.90000009537,260955.781,260969.59999990463,260972.342,266366.218,8,400,,,
trial,html.Screen,4_33_0,2023-09-13T15:50:58.604Z,,0,1,,7602.981999809272,response,ISIC_0056660.JPG,5,ISIC_0063980.JPG,ISIC_0063980.JPG,false,0,keypress(z),500,273969.40000009537,273969.19999980927,266349.639,266351.09999990463,266366.218,273981.121,8,400,34,,ISIC_0056660.JPG
break,html.Screen,4_33_1,2023-09-13T15:50:58.604Z,,0,,,NaN,,,,,,false,,,,273969.7999997139,273969.69999980927,,273969.5,,273981.121,8,400,,,
break_continue,html.Screen,4_33_2,2023-09-13T15:50:58.604Z,,0,,,NaN,,,,,,false,,,,273970,273969.90000009537,,273969.7999997139,,273981.121,8,400,,,
sequence,flow.Sequence,4_33,2023-09-13T15:50:58.604Z,,0,,,7603.682000095374,completion,,,,,false,,,,273970,273969.90000009537,266349.639,266351.09999990463,266366.218,273981.121,8,400,,,
trial,html.Screen,4_34_0,2023-09-13T15:51:04.879Z,,0,1,,6262.879000000015,response,ISIC_4604654.JPG,5,ISIC_2331656.JPG,ISIC_4604654.JPG,false,1,keypress(m),500,280244.09999990463,280244,273964.443,273970,273981.121,280259.982,8,400,35,,ISIC_2331656.JPG
break,html.Screen,4_34_1,2023-09-13T15:51:04.879Z,,0,,,NaN,,,,,,false,,,,280244.59999990463,280244.40000009537,,280244.19999980927,,280259.982,8,400,,,
break_continue,html.Screen,4_34_2,2023-09-13T15:51:04.879Z,,0,,,NaN,,,,,,false,,,,280244.69999980927,280244.59999990463,,280244.59999990463,,280259.982,8,400,,,
sequence,flow.Sequence,4_34,2023-09-13T15:51:04.879Z,,0,,,6263.478999904648,completion,,,,,false,,,,280244.69999980927,280244.59999990463,273964.443,273970,273981.121,280259.982,8,400,,,
trial,html.Screen,4_35_0,2023-09-13T15:51:10.018Z,,0,1,,5122.918000095349,response,ISIC_6824842.JPG,4,ISIC_0061092.JPG,ISIC_6824842.JPG,false,1,keypress(m),500,285383.19999980927,285382.90000009537,280243.303,280244.7999997139,280259.982,285386.689,8,400,36,,ISIC_0061092.JPG
break,html.Screen,4_35_1,2023-09-13T15:51:10.019Z,,0,,,NaN,,,,,,false,,,,285384.69999980927,285384.2999997139,,285383.59999990463,,285386.689,8,400,,,
break_continue,html.Screen,4_35_2,2023-09-13T15:51:10.020Z,,0,,,NaN,,,,,,false,,,,285385.40000009537,285385.19999980927,,285384.90000009537,,285386.689,8,400,,,
sequence,flow.Sequence,4_35,2023-09-13T15:51:10.020Z,,0,,,5125.217999809247,completion,,,,,false,,,,285385.7999997139,285385.19999980927,280243.303,280244.7999997139,280259.982,285386.689,8,400,,,
trial,html.Screen,4_36_0,2023-09-13T15:51:16.442Z,,0,1,,6420.510999809252,response,ISIC_0025303.JPG,6,ISIC_0257447.JPG,ISIC_0257447.JPG,false,0,keypress(z),500,291807.2999997139,291807.19999980927,285369.927,285386,285386.689,291815.742,8,400,37,,ISIC_0025303.JPG
break,html.Screen,4_36_1,2023-09-13T15:51:16.442Z,,0,,,NaN,,,,,,false,,,,291807.69999980927,291807.59999990463,,291807.40000009537,,291815.742,8,400,,,
break_continue,html.Screen,4_36_2,2023-09-13T15:51:16.442Z,,0,,,NaN,,,,,,false,,,,291807.7999997139,291807.7999997139,,291807.69999980927,,291815.742,8,400,,,
sequence,flow.Sequence,4_36,2023-09-13T15:51:16.442Z,,0,,,6421.110999713885,completion,,,,,false,,,,291807.90000009537,291807.7999997139,285369.927,285386,285386.689,291815.742,8,400,,,
trial,html.Screen,4_37_0,2023-09-13T15:51:22.995Z,,0,1,,6545.15800009534,response,ISIC_4189981.JPG,5,ISIC_5354827.JPG,ISIC_4189981.JPG,false,1,keypress(m),500,298361,298360.90000009537,291799.14,291808,291815.742,298361.795,8,400,38,,ISIC_5354827.JPG
break,html.Screen,4_37_1,2023-09-13T15:51:22.996Z,,0,,,NaN,,,,,,false,,,,298361.40000009537,298361.2999997139,,298361.09999990463,,298361.795,8,400,,,
break_continue,html.Screen,4_37_2,2023-09-13T15:51:22.996Z,,0,,,NaN,,,,,,false,,,,298361.59999990463,298361.59999990463,,298361.59999990463,,298361.795,8,400,,,
sequence,flow.Sequence,4_37,2023-09-13T15:51:22.996Z,,0,,,6545.857999904605,completion,,,,,false,,,,298361.7999997139,298361.59999990463,291799.14,291808,291815.742,298361.795,8,400,,,
trial,html.Screen,4_38_0,2023-09-13T15:51:28.394Z,,0,1,,5397.705000000016,response,ISIC_0011269.JPG,4,ISIC_4170698.JPG,ISIC_4170698.JPG,false,0,keypress(z),500,303759.59999990463,303759.5,298345.211,298361.7999997139,298361.795,303772.39,8,400,39,,ISIC_0011269.JPG
break,html.Screen,4_38_1,2023-09-13T15:51:28.395Z,,0,,,NaN,,,,,,false,,,,303760.2999997139,303760.09999990463,,303759.69999980927,,303772.39,8,400,,,
break_continue,html.Screen,4_38_2,2023-09-13T15:51:28.395Z,,0,,,NaN,,,,,,false,,,,303760.59999990463,303760.59999990463,,303760.5,,303772.39,8,400,,,
sequence,flow.Sequence,4_38,2023-09-13T15:51:28.395Z,,0,,,5398.804999904649,completion,,,,,false,,,,303760.7999997139,303760.59999990463,298345.211,298361.7999997139,298361.795,303772.39,8,400,,,
trial,html.Screen,4_39_0,2023-09-13T15:51:33.645Z,,0,1,,5238.0100000953535,response,ISIC_8814612.JPG,5,ISIC_1117369.JPG,ISIC_8814612.JPG,false,1,keypress(m),500,309010.59999990463,309010.40000009537,303755.757,303760.7999997139,303772.39,309015.913,8,400,40,,ISIC_1117369.JPG
break,html.Screen,4_39_1,2023-09-13T15:51:33.645Z,,0,,,NaN,,,,,,false,,,,309010.90000009537,309010.90000009537,,309010.59999990463,,309015.913,8,400,,,
break_continue,html.Screen,4_39_2,2023-09-13T15:51:33.646Z,,0,,,NaN,,,,,,false,,,,309011.09999990463,309011,,309011,,309015.913,8,400,,,
sequence,flow.Sequence,4_39,2023-09-13T15:51:33.646Z,,0,,,5238.609999999986,completion,,,,,false,,,,309011.19999980927,309011,303755.757,303760.7999997139,303772.39,309015.913,8,400,,,
trial,html.Screen,4_40_0,2023-09-13T15:51:39.808Z,,0,1,,6156.5869999999995,response,ISIC_0027359.JPG,6,ISIC_0024229.JPG,ISIC_0027359.JPG,false,1,keypress(m),500,315172.59999990463,315172.5,308999.371,309011.19999980927,309015.913,315177.817,8,400,41,,ISIC_0024229.JPG
break,html.Screen,4_40_1,2023-09-13T15:51:39.808Z,,0,,,NaN,,,,,,false,,,,315173,315172.90000009537,,315172.69999980927,,315177.817,8,400,,,
break_continue,html.Screen,4_40_2,2023-09-13T15:51:39.808Z,,0,,,NaN,,,,,,false,,,,315173.19999980927,315173.09999990463,,315173.09999990463,,315177.817,8,400,,,
sequence,flow.Sequence,4_40,2023-09-13T15:51:39.808Z,,0,,,6157.186999904632,completion,,,,,false,,,,315173.19999980927,315173.09999990463,308999.371,309011.19999980927,309015.913,315177.817,8,400,,,
trial,html.Screen,4_41_0,2023-09-13T15:51:45.746Z,,0,1,,5933.382999809284,response,ISIC_0011039.JPG,5,ISIC_0011987.JPG,ISIC_0011987.JPG,false,0,keypress(z),500,321111.2999997139,321111.19999980927,315161.332,315173.2999997139,315177.817,321122.901,8,400,42,,ISIC_0011039.JPG
break,html.Screen,4_41_1,2023-09-13T15:51:45.747Z,,0,,,NaN,,,,,,false,,,,321112.09999990463,321111.7999997139,,321111.5,,321122.901,8,400,,,
break_continue,html.Screen,4_41_2,2023-09-13T15:51:45.747Z,,0,,,NaN,,,,,,false,,,,321112.40000009537,321112.2999997139,,321112.19999980927,,321122.901,8,400,,,
sequence,flow.Sequence,4_41,2023-09-13T15:51:45.748Z,,0,,,5934.482999713917,completion,,,,,false,,,,321112.40000009537,321112.2999997139,315161.332,315173.2999997139,315177.817,321122.901,8,400,,,
trial,html.Screen,4_42_0,2023-09-13T15:51:50.663Z,,0,1,,4905.098999999987,response,ISIC_0014926.JPG,5,ISIC_0946787.JPG,ISIC_0946787.JPG,false,0,keypress(z),500,326028.19999980927,326028,321106.184,321112.40000009537,321122.901,326032.298,8,400,43,,ISIC_0014926.JPG
break,html.Screen,4_42_1,2023-09-13T15:51:50.664Z,,0,,,NaN,,,,,,false,,,,326029.09999990463,326028.90000009537,,326028.40000009537,,326032.298,8,400,,,
break_continue,html.Screen,4_42_2,2023-09-13T15:51:50.664Z,,0,,,NaN,,,,,,false,,,,326029.40000009537,326029.2999997139,,326029.09999990463,,326032.298,8,400,,,
sequence,flow.Sequence,4_42,2023-09-13T15:51:50.665Z,,0,,,4906.398999713885,completion,,,,,false,,,,326029.5,326029.2999997139,321106.184,321112.40000009537,321122.901,326032.298,8,400,,,
trial,html.Screen,4_43_0,2023-09-13T15:51:56.250Z,,0,1,,5582.401999809255,response,ISIC_0028967.JPG,6,ISIC_0182730.JPG,ISIC_0028967.JPG,false,1,keypress(m),500,331614.90000009537,331614.69999980927,326015.723,326029.59999990463,326032.298,331626.556,8,400,44,,ISIC_0182730.JPG
break,html.Screen,4_43_1,2023-09-13T15:51:56.251Z,,0,,,NaN,,,,,,false,,,,331616.19999980927,331616,,331615.19999980927,,331626.556,8,400,,,
break_continue,html.Screen,4_43_2,2023-09-13T15:51:56.252Z,,0,,,NaN,,,,,,false,,,,331616.69999980927,331616.59999990463,,331616.2999997139,,331626.556,8,400,,,
sequence,flow.Sequence,4_43,2023-09-13T15:51:56.252Z,,0,,,5584.301999904623,completion,,,,,false,,,,331616.90000009537,331616.59999990463,326015.723,326029.59999990463,326032.298,331626.556,8,400,,,
trial,html.Screen,4_44_0,2023-09-13T15:52:00.310Z,,0,1,,4048.143999809283,response,ISIC_0053765.JPG,5,ISIC_3436139.JPG,ISIC_3436139.JPG,false,0,keypress(z),500,335674.7999997139,335674.69999980927,331609.928,331617,331626.556,335684.718,8,400,45,,ISIC_0053765.JPG
break,html.Screen,4_44_1,2023-09-13T15:52:00.310Z,,0,,,NaN,,,,,,false,,,,335675.19999980927,335675.09999990463,,335674.90000009537,,335684.718,8,400,,,
break_continue,html.Screen,4_44_2,2023-09-13T15:52:00.311Z,,0,,,NaN,,,,,,false,,,,335675.5,335675.40000009537,,335675.2999997139,,335684.718,8,400,,,
sequence,flow.Sequence,4_44,2023-09-13T15:52:00.311Z,,0,,,4048.844000095385,completion,,,,,false,,,,335675.5,335675.40000009537,331609.928,331617,331626.556,335684.718,8,400,,,
trial,html.Screen,4_45_0,2023-09-13T15:52:05.019Z,,0,1,,4699.182000095374,response,ISIC_0010081.JPG,6,ISIC_0064014.JPG,ISIC_0010081.JPG,false,1,keypress(m),500,340384.09999990463,340383.90000009537,335667.731,335675.69999980927,335684.718,340393.577,8,400,46,,ISIC_0064014.JPG
break,html.Screen,4_45_1,2023-09-13T15:52:05.020Z,,0,,,NaN,,,,,,false,,,,340384.5,340384.40000009537,,340384.19999980927,,340393.577,8,400,,,
break_continue,html.Screen,4_45_2,2023-09-13T15:52:05.020Z,,0,,,NaN,,,,,,false,,,,340384.69999980927,340384.69999980927,,340384.59999990463,,340393.577,8,400,,,
sequence,flow.Sequence,4_45,2023-09-13T15:52:05.020Z,,0,,,4699.981999809272,completion,,,,,false,,,,340384.69999980927,340384.69999980927,335667.731,335675.69999980927,335684.718,340393.577,8,400,,,
trial,html.Screen,4_46_0,2023-09-13T15:52:11.214Z,,0,1,,6185.622999809275,response,ISIC_0016103.JPG,6,ISIC_0030032.JPG,ISIC_0016103.JPG,false,1,keypress(m),500,346579.40000009537,346579.19999980927,340376.992,340384.7999997139,340393.577,346588.963,8,400,47,,ISIC_0030032.JPG
break,html.Screen,4_46_1,2023-09-13T15:52:11.215Z,,0,,,NaN,,,,,,false,,,,346579.69999980927,346579.69999980927,,346579.40000009537,,346588.963,8,400,,,
break_continue,html.Screen,4_46_2,2023-09-13T15:52:11.215Z,,0,,,NaN,,,,,,false,,,,346579.90000009537,346579.90000009537,,346579.7999997139,,346588.963,8,400,,,
sequence,flow.Sequence,4_46,2023-09-13T15:52:11.215Z,,0,,,6186.323000095377,completion,,,,,false,,,,346580,346579.90000009537,340376.992,340384.69999980927,340393.577,346588.963,8,400,,,
trial,html.Screen,4_47_0,2023-09-13T15:52:17.265Z,,0,1,,6041.037000000011,response,ISIC_1819071.JPG,5,ISIC_5994645.JPG,ISIC_1819071.JPG,false,1,keypress(m),500,352630.19999980927,352630,346572.39,346580,346588.963,352634.065,8,400,48,,ISIC_5994645.JPG
break,html.Screen,4_47_1,2023-09-13T15:52:17.266Z,,0,,,NaN,,,,,,false,,,,352630.59999990463,352630.40000009537,,352630.19999980927,,352634.065,8,400,,,
break_continue,html.Screen,4_47_2,2023-09-13T15:52:17.266Z,,0,,,NaN,,,,,,false,,,,352630.69999980927,352630.69999980927,,352630.59999990463,,352634.065,8,400,,,
sequence,flow.Sequence,4_47,2023-09-13T15:52:17.266Z,,0,,,6041.736999809276,completion,,,,,false,,,,352630.7999997139,352630.69999980927,346572.39,346580,346588.963,352634.065,8,400,,,
trial,html.Screen,4_48_0,2023-09-13T15:52:24.391Z,,0,1,,7121.234999713895,response,ISIC_0062087.JPG,5,ISIC_7565128.JPG,ISIC_7565128.JPG,false,0,keypress(z),500,359755.40000009537,359755.2999997139,352617.479,352630.7999997139,352634.065,359764.633,8,400,49,,ISIC_0062087.JPG
break,html.Screen,4_48_1,2023-09-13T15:52:24.391Z,,0,,,NaN,,,,,,false,,,,359756.09999990463,359755.90000009537,,359755.59999990463,,359764.633,8,400,,,
break_continue,html.Screen,4_48_2,2023-09-13T15:52:24.391Z,,0,,,NaN,,,,,,false,,,,359756.19999980927,359756.19999980927,,359756.09999990463,,359764.633,8,400,,,
sequence,flow.Sequence,4_48,2023-09-13T15:52:24.391Z,,0,,,7122.134999809263,completion,,,,,false,,,,359756.40000009537,359756.19999980927,352617.479,352630.7999997139,352634.065,359764.633,8,400,,,
trial,html.Screen,4_49_0,2023-09-13T15:52:29.641Z,,0,1,,5240.767000095395,response,ISIC_4885444.JPG,4,ISIC_3623368.JPG,ISIC_4885444.JPG,false,1,keypress(m),500,365005.5,365005.40000009537,359748.078,359756.40000009537,359764.633,365008.269,8,400,50,,ISIC_3623368.JPG
break,html.Screen,4_49_1,2023-09-13T15:52:39.633Z,,0,,,10002.825000000012,timeout,,,,,false,,,,374995.2999997139,374994.565,364991.557,365005.69999980927,365008.269,375011.094,8,400,,,
break_continue,html.Screen,4_49_2,2023-09-13T15:54:45.438Z,,0,,,125769.50599990465,response,,,,,false,continue,keypress(Space),,500798.7999997139,500780.59999990463,374994.565,374995.69999980927,375011.094,500805.755,8,400,,,
sequence,flow.Sequence,4_49,2023-09-13T15:54:45.438Z,,0,,,141015.96699990466,completion,,,,,false,,,,500798.90000009537,500780.59999990463,359748.078,359756.40000009537,359764.633,500805.755,8,400,,,
trial,html.Screen,4_50_0,2023-09-13T15:54:50.416Z,,0,2,,4970.344999904628,response,ISIC_0000531.JPG,5,ISIC_6026759.JPG,ISIC_6026759.JPG,false,0,keypress(z),500,505776.2999997139,505776.09999990463,500789.068,500798.90000009537,500805.755,505782.103,8,400,1,,ISIC_0000531.JPG
break,html.Screen,4_50_1,2023-09-13T15:54:50.416Z,,0,,,NaN,,,,,,false,,,,505776.59999990463,505776.5,,505776.2999997139,,505782.103,8,400,,,
break_continue,html.Screen,4_50_2,2023-09-13T15:54:50.416Z,,0,,,NaN,,,,,,false,,,,505776.7999997139,505776.7999997139,,505776.69999980927,,505782.103,8,400,,,
sequence,flow.Sequence,4_50,2023-09-13T15:54:50.416Z,,0,,,4971.044999713893,completion,,,,,false,,,,505776.90000009537,505776.7999997139,500789.068,500798.90000009537,500805.755,505782.103,8,400,,,
trial,html.Screen,4_51_0,2023-09-13T15:54:56.674Z,,0,2,,6252.396999999997,response,ISIC_3737739.JPG,5,ISIC_5993356.JPG,ISIC_5993356.JPG,false,0,keypress(z),500,512034.69999980927,512034.5,505765.504,505777,505782.103,512044.314,8,400,2,,ISIC_3737739.JPG
break,html.Screen,4_51_1,2023-09-13T15:54:56.675Z,,0,,,NaN,,,,,,false,,,,512035.19999980927,512035.09999990463,,512034.7999997139,,512044.314,8,400,,,
break_continue,html.Screen,4_51_2,2023-09-13T15:54:56.675Z,,0,,,NaN,,,,,,false,,,,512035.59999990463,512035.5,,512035.2999997139,,512044.314,8,400,,,
sequence,flow.Sequence,4_51,2023-09-13T15:54:56.675Z,,0,,,6253.396999999997,completion,,,,,false,,,,512035.69999980927,512035.5,505765.504,505777,505782.103,512044.314,8,400,,,
trial,html.Screen,4_52_0,2023-09-13T15:55:02.745Z,,0,2,,6061.185999999987,response,ISIC_8995044.JPG,4,ISIC_1781273.JPG,ISIC_1781273.JPG,false,0,keypress(z),500,518105.69999980927,518105.5,512027.673,512035.7999997139,512044.314,518139.465,8,400,3,,ISIC_8995044.JPG
break,html.Screen,4_52_1,2023-09-13T15:55:02.746Z,,0,,,NaN,,,,,,false,,,,518106.5,518106.09999990463,,518105.7999997139,,518139.465,8,400,,,
break_continue,html.Screen,4_52_2,2023-09-13T15:55:02.746Z,,0,,,NaN,,,,,,false,,,,518106.7999997139,518106.59999990463,,518106.59999990463,,518139.465,8,400,,,
sequence,flow.Sequence,4_52,2023-09-13T15:55:02.746Z,,0,,,6062.2859999046195,completion,,,,,false,,,,518106.90000009537,518106.59999990463,512027.673,512035.7999997139,512044.314,518139.465,8,400,,,
trial,html.Screen,4_53_0,2023-09-13T15:55:07.389Z,,0,2,,4609.334999713872,response,ISIC_0000054.JPG,5,ISIC_0069058.JPG,ISIC_0000054.JPG,false,1,keypress(m),500,522749,522748.7999997139,518122.766,518106.90000009537,518139.465,522765.132,8,400,4,,ISIC_0069058.JPG
break,html.Screen,4_53_1,2023-09-13T15:55:07.389Z,,0,,,NaN,,,,,,false,,,,522749.69999980927,522749.5,,522749.19999980927,,522765.132,8,400,,,
break_continue,html.Screen,4_53_2,2023-09-13T15:55:07.390Z,,0,,,NaN,,,,,,false,,,,522750,522749.90000009537,,522749.7999997139,,522765.132,8,400,,,
sequence,flow.Sequence,4_53,2023-09-13T15:55:07.390Z,,0,,,4610.435000095342,completion,,,,,false,,,,522750.09999990463,522749.90000009537,518122.766,518106.90000009537,518139.465,522765.132,8,400,,,
trial,html.Screen,4_54_0,2023-09-13T15:55:12.256Z,,0,2,,4850.967999904649,response,ISIC_0010349.JPG,5,ISIC_6856140.JPG,ISIC_6856140.JPG,false,0,keypress(z),500,527616.1999998093,527616.0999999046,522748.551,522750.19999980927,522765.132,527624.686,8,400,5,,ISIC_0010349.JPG
break,html.Screen,4_54_1,2023-09-13T15:55:12.256Z,,0,,,NaN,,,,,,false,,,,527616.5,527616.5,,527616.1999998093,,527624.686,8,400,,,
break_continue,html.Screen,4_54_2,2023-09-13T15:55:12.256Z,,0,,,NaN,,,,,,false,,,,527616.7999997139,527616.6999998093,,527616.5999999046,,527624.686,8,400,,,
sequence,flow.Sequence,4_54,2023-09-13T15:55:12.256Z,,0,,,4851.567999809282,completion,,,,,false,,,,527616.9000000954,527616.6999998093,522748.551,522750.19999980927,522765.132,527624.686,8,400,,,
trial,html.Screen,4_55_0,2023-09-13T15:55:17.395Z,,0,2,,5129.113999713911,response,ISIC_2379024.JPG,6,ISIC_0025835.JPG,ISIC_0025835.JPG,false,0,keypress(z),500,532753.9000000954,532753.7999997139,527608.019,527616.9000000954,527624.686,532784.696,8,400,6,,ISIC_2379024.JPG
break,html.Screen,4_55_1,2023-09-13T15:55:17.396Z,,0,,,NaN,,,,,,false,,,,532754.4000000954,532754.2999997139,,532754,,532784.696,8,400,,,
break_continue,html.Screen,4_55_2,2023-09-13T15:55:17.396Z,,0,,,NaN,,,,,,false,,,,532754.6999998093,532754.6999998093,,532754.5,,532784.696,8,400,,,
sequence,flow.Sequence,4_55,2023-09-13T15:55:17.396Z,,0,,,5130.013999809278,completion,,,,,false,,,,532754.9000000954,532754.6999998093,527608.019,527616.9000000954,527624.686,532784.696,8,400,,,
trial,html.Screen,4_56_0,2023-09-13T15:55:22.038Z,,0,2,,4611.603999713901,response,ISIC_0034104.JPG,5,ISIC_0033779.JPG,ISIC_0033779.JPG,false,0,keypress(z),500,537396.4000000954,537396.2999997139,532767.975,532754.9000000954,532784.696,537410.39,8,400,7,,ISIC_0034104.JPG
break,html.Screen,4_56_1,2023-09-13T15:55:22.038Z,,0,,,NaN,,,,,,false,,,,537396.9000000954,537396.6999998093,,537396.5,,537410.39,8,400,,,
break_continue,html.Screen,4_56_2,2023-09-13T15:55:22.038Z,,0,,,NaN,,,,,,false,,,,537397,537397,,537396.9000000954,,537410.39,8,400,,,
sequence,flow.Sequence,4_56,2023-09-13T15:55:22.038Z,,0,,,4612.304000000004,completion,,,,,false,,,,537397.0999999046,537397,532767.975,532754.9000000954,532784.696,537410.39,8,400,,,
trial,html.Screen,4_57_0,2023-09-13T15:55:27.161Z,,0,2,,5108.409999713884,response,ISIC_2680640.JPG,5,ISIC_0059569.JPG,ISIC_2680640.JPG,false,1,keypress(m),500,542519.1999998093,542518.7999997139,537393.722,537397.0999999046,537410.39,542537.008,8,400,8,,ISIC_0059569.JPG
break,html.Screen,4_57_1,2023-09-13T15:55:27.164Z,,0,,,NaN,,,,,,false,,,,542522.2999997139,542520.2999997139,,542519.5,,542537.008,8,400,,,
break_continue,html.Screen,4_57_2,2023-09-13T15:55:27.165Z,,0,,,NaN,,,,,,false,,,,542523.4000000954,542523,,542522.5999999046,,542537.008,8,400,,,
sequence,flow.Sequence,4_57,2023-09-13T15:55:27.165Z,,0,,,5112.609999999986,completion,,,,,false,,,,542523.6999998093,542523,537393.722,537397.0999999046,537410.39,542537.008,8,400,,,
trial,html.Screen,4_58_0,2023-09-13T15:55:32.607Z,,0,2,,5428.892000095337,response,ISIC_0001149.JPG,4,ISIC_0024792.JPG,ISIC_0001149.JPG,false,1,keypress(m),500,547966,547965.9000000954,542520.432,542524.0999999046,542537.008,547980.855,8,400,9,,ISIC_0024792.JPG
break,html.Screen,4_58_1,2023-09-13T15:55:32.608Z,,0,,,NaN,,,,,,false,,,,547966.2999997139,547966.1999998093,,547966,,547980.855,8,400,,,
break_continue,html.Screen,4_58_2,2023-09-13T15:55:32.608Z,,0,,,NaN,,,,,,false,,,,547966.5999999046,547966.5,,547966.5,,547980.855,8,400,,,
sequence,flow.Sequence,4_58,2023-09-13T15:55:32.608Z,,0,,,5429.491999999969,completion,,,,,false,,,,547966.5999999046,547966.5,542520.432,542524,542537.008,547980.855,8,400,,,
trial,html.Screen,4_59_0,2023-09-13T15:55:37.188Z,,0,2,,4565.545000095386,response,ISIC_8960223.JPG,6,ISIC_0080539.JPG,ISIC_0080539.JPG,false,0,keypress(z),500,552546.5999999046,552546.4000000954,547964.289,547966.6999998093,547980.855,552556.455,8,400,10,,ISIC_8960223.JPG
break,html.Screen,4_59_1,2023-09-13T15:55:37.188Z,,0,,,NaN,,,,,,false,,,,552547.1999998093,552547,,552546.6999998093,,552556.455,8,400,,,
break_continue,html.Screen,4_59_2,2023-09-13T15:55:37.189Z,,0,,,NaN,,,,,,false,,,,552547.4000000954,552547.4000000954,,552547.2999997139,,552556.455,8,400,,,
sequence,flow.Sequence,4_59,2023-09-13T15:55:37.189Z,,0,,,4566.545000095386,completion,,,,,false,,,,552547.5999999046,552547.4000000954,547964.289,547966.5999999046,547980.855,552556.455,8,400,,,
trial,html.Screen,4_60_0,2023-09-13T15:55:42.781Z,,0,2,,5583.34499971394,response,ISIC_0071430.JPG,6,ISIC_0032996.JPG,ISIC_0032996.JPG,false,0,keypress(z),500,558140,558139.7999997139,552539.901,552547.6999998093,552556.455,558150.663,8,400,11,,ISIC_0071430.JPG
break,html.Screen,4_60_1,2023-09-13T15:55:42.782Z,,0,,,NaN,,,,,,false,,,,558140.9000000954,558140.5999999046,,558140.1999998093,,558150.663,8,400,,,
break_continue,html.Screen,4_60_2,2023-09-13T15:55:42.783Z,,0,,,NaN,,,,,,false,,,,558141.2999997139,558141.1999998093,,558141.0999999046,,558150.663,8,400,,,
sequence,flow.Sequence,4_60,2023-09-13T15:55:42.783Z,,0,,,5584.744999809307,completion,,,,,false,,,,558141.5,558141.1999998093,552539.901,552547.6999998093,552556.455,558150.663,8,400,,,
trial,html.Screen,4_61_0,2023-09-13T15:55:47.537Z,,0,2,,4744.837000000058,response,ISIC_0066429.JPG,6,ISIC_0169604.JPG,ISIC_0169604.JPG,false,0,keypress(z),500,562895.5999999046,562895.5,558134.119,558141.5999999046,558150.663,562909.929,8,400,12,,ISIC_0066429.JPG
break,html.Screen,4_61_1,2023-09-13T15:55:47.538Z,,0,,,NaN,,,,,,false,,,,562896.4000000954,562896.0999999046,,562895.7999997139,,562909.929,8,400,,,
break_continue,html.Screen,4_61_2,2023-09-13T15:55:47.538Z,,0,,,NaN,,,,,,false,,,,562896.6999998093,562896.5,,562896.5,,562909.929,8,400,,,
sequence,flow.Sequence,4_61,2023-09-13T15:55:47.538Z,,0,,,4745.837000000058,completion,,,,,false,,,,562896.6999998093,562896.5,558134.119,558141.5,558150.663,562909.929,8,400,,,
trial,html.Screen,4_62_0,2023-09-13T15:55:52.820Z,,0,2,,5268.270999809261,response,ISIC_0071043.JPG,6,ISIC_8570555.JPG,ISIC_8570555.JPG,false,0,keypress(z),500,568178.5,568178.1999998093,562893.438,562896.6999998093,562909.929,568203.6,8,400,13,,ISIC_0071043.JPG
break,html.Screen,4_62_1,2023-09-13T15:55:52.821Z,,0,,,NaN,,,,,,false,,,,568179.6999998093,568179.2999997139,,568178.7999997139,,568203.6,8,400,,,
break_continue,html.Screen,4_62_2,2023-09-13T15:55:52.822Z,,0,,,NaN,,,,,,false,,,,568180.4000000954,568180.2999997139,,568179.9000000954,,568203.6,8,400,,,
sequence,flow.Sequence,4_62,2023-09-13T15:55:52.822Z,,0,,,5270.370999713894,completion,,,,,false,,,,568180.5999999046,568180.2999997139,562893.438,562896.6999998093,562909.929,568203.6,8,400,,,
trial,html.Screen,4_63_0,2023-09-13T15:55:57.467Z,,0,2,,4621.699999713921,response,ISIC_5848892.JPG,5,ISIC_0060621.JPG,ISIC_5848892.JPG,false,1,keypress(m),500,572825.5,572825.2999997139,568186.908,568180.7999997139,568203.6,572846.038,8,400,14,,ISIC_0060621.JPG
break,html.Screen,4_63_1,2023-09-13T15:55:57.467Z,,0,,,NaN,,,,,,false,,,,572825.9000000954,572825.6999998093,,572825.5999999046,,572846.038,8,400,,,
break_continue,html.Screen,4_63_2,2023-09-13T15:55:57.467Z,,0,,,NaN,,,,,,false,,,,572826.0999999046,572826,,572825.9000000954,,572846.038,8,400,,,
sequence,flow.Sequence,4_63,2023-09-13T15:55:57.467Z,,0,,,4622.400000000023,completion,,,,,false,,,,572826.1999998093,572826,568186.908,568180.7999997139,568203.6,572846.038,8,400,,,
trial,html.Screen,4_64_0,2023-09-13T15:56:03.740Z,,0,2,,6252.761999713955,response,ISIC_9462738.JPG,4,ISIC_0033578.JPG,ISIC_9462738.JPG,false,1,keypress(m),500,579099.0999999046,579098.7999997139,572829.214,572826.1999998093,572846.038,579108.179,8,400,15,,ISIC_0033578.JPG
break,html.Screen,4_64_1,2023-09-13T15:56:03.741Z,,0,,,NaN,,,,,,false,,,,579100.0999999046,579099.9000000954,,579099.2999997139,,579108.179,8,400,,,
break_continue,html.Screen,4_64_2,2023-09-13T15:56:03.742Z,,0,,,NaN,,,,,,false,,,,579100.5999999046,579100.5,,579100.4000000954,,579108.179,8,400,,,
sequence,flow.Sequence,4_64,2023-09-13T15:56:03.742Z,,0,,,6254.462000000058,completion,,,,,false,,,,579101,579100.5,572829.214,572826.1999998093,572846.038,579108.179,8,400,,,
trial,html.Screen,4_65_0,2023-09-13T15:56:08.913Z,,0,2,,5162.920999904629,response,ISIC_0059336.JPG,4,ISIC_0663941.JPG,ISIC_0663941.JPG,false,0,keypress(z),500,584271.2999997139,584271.0999999046,579091.536,579101.0999999046,579108.179,584284.992,8,400,16,,ISIC_0059336.JPG
break,html.Screen,4_65_1,2023-09-13T15:56:08.913Z,,0,,,NaN,,,,,,false,,,,584271.7999997139,584271.6999998093,,584271.4000000954,,584284.992,8,400,,,
break_continue,html.Screen,4_65_2,2023-09-13T15:56:08.913Z,,0,,,NaN,,,,,,false,,,,584272.0999999046,584272.0999999046,,584271.9000000954,,584284.992,8,400,,,
sequence,flow.Sequence,4_65,2023-09-13T15:56:08.914Z,,0,,,5163.920999904629,completion,,,,,false,,,,584272.2999997139,584272.0999999046,579091.536,579101.0999999046,579108.179,584284.992,8,400,,,
trial,html.Screen,4_66_0,2023-09-13T15:56:13.433Z,,0,2,,4504.807999713928,response,ISIC_0013674.JPG,5,ISIC_4541530.JPG,ISIC_4541530.JPG,false,0,keypress(z),500,588789.9000000954,588789.7999997139,584268.371,584272.4000000954,584284.992,588793.64,8,400,17,,ISIC_0013674.JPG
break,html.Screen,4_66_1,2023-09-13T15:56:13.433Z,,0,,,NaN,,,,,,false,,,,588790.2999997139,588790.1999998093,,588790,,588793.64,8,400,,,
break_continue,html.Screen,4_66_2,2023-09-13T15:56:13.433Z,,0,,,NaN,,,,,,false,,,,588790.5,588790.4000000954,,588790.2999997139,,588793.64,8,400,,,
sequence,flow.Sequence,4_66,2023-09-13T15:56:13.433Z,,0,,,4505.408000095398,completion,,,,,false,,,,588790.5,588790.4000000954,584268.371,584272.4000000954,584284.992,588793.64,8,400,,,
trial,html.Screen,4_67_0,2023-09-13T15:56:19.295Z,,0,2,,5858.059999809251,response,ISIC_5611104.JPG,5,ISIC_1472777.JPG,ISIC_5611104.JPG,false,1,keypress(m),500,594651.6999998093,594651.6999998093,588777.063,588790.5999999046,588793.64,594655.03,8,400,18,,ISIC_1472777.JPG
break,html.Screen,4_67_1,2023-09-13T15:56:19.295Z,,0,,,NaN,,,,,,false,,,,594652.0999999046,594652.0999999046,,594651.9000000954,,594655.03,8,400,,,
break_continue,html.Screen,4_67_2,2023-09-13T15:56:19.295Z,,0,,,NaN,,,,,,false,,,,594652.4000000954,594652.2999997139,,594652.1999998093,,594655.03,8,400,,,
sequence,flow.Sequence,4_67,2023-09-13T15:56:19.295Z,,0,,,5858.659999713884,completion,,,,,false,,,,594652.4000000954,594652.2999997139,588777.063,588790.5999999046,588793.64,594655.03,8,400,,,
trial,html.Screen,4_68_0,2023-09-13T15:56:25.336Z,,0,2,,6038.26999971387,response,ISIC_9094080.JPG,5,ISIC_1790808.JPG,ISIC_9094080.JPG,false,1,keypress(m),500,600693.4000000954,600693.2999997139,594638.464,594652.4000000954,594655.03,600700.154,8,400,19,,ISIC_1790808.JPG
break,html.Screen,4_68_1,2023-09-13T15:56:25.337Z,,0,,,NaN,,,,,,false,,,,600694.2999997139,600694,,600693.5999999046,,600700.154,8,400,,,
break_continue,html.Screen,4_68_2,2023-09-13T15:56:25.337Z,,0,,,NaN,,,,,,false,,,,600694.6999998093,600694.5999999046,,600694.4000000954,,600700.154,8,400,,,
sequence,flow.Sequence,4_68,2023-09-13T15:56:25.338Z,,0,,,6039.569999904605,completion,,,,,false,,,,600694.7999997139,600694.5999999046,594638.464,594652.4000000954,594655.03,600700.154,8,400,,,
trial,html.Screen,4_69_0,2023-09-13T15:56:29.982Z,,0,2,,4638.84600000002,response,ISIC_0032718.JPG,6,ISIC_3926305.JPG,ISIC_3926305.JPG,false,0,keypress(z),500,605339.4000000954,605339,600683.558,600694.9000000954,600700.154,605342.561,8,400,20,,ISIC_0032718.JPG
break,html.Screen,4_69_1,2023-09-13T15:56:29.984Z,,0,,,NaN,,,,,,false,,,,605341.1999998093,605340.5999999046,,605339.7999997139,,605342.561,8,400,,,
break_continue,html.Screen,4_69_2,2023-09-13T15:56:29.985Z,,0,,,NaN,,,,,,false,,,,605342.1999998093,605341.9000000954,,605341.5,,605342.561,8,400,,,
sequence,flow.Sequence,4_69,2023-09-13T15:56:29.985Z,,0,,,4641.746000095387,completion,,,,,false,,,,605342.5999999046,605341.9000000954,600683.558,600694.9000000954,600700.154,605342.561,8,400,,,
trial,html.Screen,4_70_0,2023-09-13T15:56:35.326Z,,0,2,,5340.538999904646,response,ISIC_0013801.JPG,6,ISIC_6383486.JPG,ISIC_6383486.JPG,false,0,keypress(z),500,610683.2999997139,610683.0999999046,605325.934,605343.6999998093,605342.561,610703.144,8,400,21,,ISIC_0013801.JPG
break,html.Screen,4_70_1,2023-09-13T15:56:35.327Z,,0,,,NaN,,,,,,false,,,,610684.5,610684.1999998093,,610683.5,,610703.144,8,400,,,
break_continue,html.Screen,4_70_2,2023-09-13T15:56:35.328Z,,0,,,NaN,,,,,,false,,,,610684.9000000954,610684.7999997139,,610684.5999999046,,610703.144,8,400,,,
sequence,flow.Sequence,4_70,2023-09-13T15:56:35.328Z,,0,,,5342.238999713911,completion,,,,,false,,,,610685.1999998093,610684.7999997139,605325.934,605343.2999997139,605342.561,610703.144,8,400,,,
trial,html.Screen,4_71_0,2023-09-13T15:56:41.560Z,,0,2,,6213.655999713927,response,ISIC_0026996.JPG,5,ISIC_6385296.JPG,ISIC_0026996.JPG,false,1,keypress(m),500,616916.9000000954,616916.7999997139,610686.306,610685.2999997139,610703.144,616931.743,8,400,22,,ISIC_6385296.JPG
break,html.Screen,4_71_1,2023-09-13T15:56:41.560Z,,0,,,NaN,,,,,,false,,,,616917.5,616917.2999997139,,616917,,616931.743,8,400,,,
break_continue,html.Screen,4_71_2,2023-09-13T15:56:41.561Z,,0,,,NaN,,,,,,false,,,,616917.9000000954,616917.7999997139,,616917.6999998093,,616931.743,8,400,,,
sequence,flow.Sequence,4_71,2023-09-13T15:56:41.561Z,,0,,,6214.655999713927,completion,,,,,false,,,,616918,616917.7999997139,610686.306,610685.1999998093,610703.144,616931.743,8,400,,,
trial,html.Screen,4_72_0,2023-09-13T15:56:46.556Z,,0,2,,4981.556999713881,response,ISIC_0067467.JPG,5,ISIC_3884221.JPG,ISIC_0067467.JPG,false,1,keypress(m),500,621913.4000000954,621913.2999997139,616915.142,616918.0999999046,616931.743,621924.83,8,400,23,,ISIC_3884221.JPG
break,html.Screen,4_72_1,2023-09-13T15:56:46.557Z,,0,,,NaN,,,,,,false,,,,621913.9000000954,621913.7999997139,,621913.5999999046,,621924.83,8,400,,,
break_continue,html.Screen,4_72_2,2023-09-13T15:56:46.557Z,,0,,,NaN,,,,,,false,,,,621914.1999998093,621914,,621914,,621924.83,8,400,,,
sequence,flow.Sequence,4_72,2023-09-13T15:56:46.557Z,,0,,,4982.256999999983,completion,,,,,false,,,,621914.1999998093,621914,616915.142,616918.0999999046,616931.743,621924.83,8,400,,,
trial,html.Screen,4_73_0,2023-09-13T15:56:51.598Z,,0,2,,5030.570000095409,response,ISIC_0031417.JPG,6,ISIC_0013972.JPG,ISIC_0031417.JPG,false,1,keypress(m),500,626955.5,626955.4000000954,621908.193,621914.2999997139,621924.83,626984.646,8,400,24,,ISIC_0013972.JPG
break,html.Screen,4_73_1,2023-09-13T15:56:51.599Z,,0,,,NaN,,,,,,false,,,,626956.2999997139,626956,,626955.6999998093,,626984.646,8,400,,,
break_continue,html.Screen,4_73_2,2023-09-13T15:56:51.599Z,,0,,,NaN,,,,,,false,,,,626956.5999999046,626956.5,,626956.4000000954,,626984.646,8,400,,,
sequence,flow.Sequence,4_73,2023-09-13T15:56:51.599Z,,0,,,5031.670000000042,completion,,,,,false,,,,626956.5999999046,626956.5,621908.193,621914.2999997139,621924.83,626984.646,8,400,,,
trial,html.Screen,4_74_0,2023-09-13T15:56:58.673Z,,0,2,,7045.35400000005,response,ISIC_0024846.JPG,5,ISIC_2421696.JPG,ISIC_2421696.JPG,false,0,keypress(z),500,634030.0999999046,634030,626968.156,626956.6999998093,626984.646,634031.687,8,400,25,,ISIC_0024846.JPG
break,html.Screen,4_74_1,2023-09-13T15:56:58.673Z,,0,,,NaN,,,,,,false,,,,634030.5,634030.4000000954,,634030.1999998093,,634031.687,8,400,,,
break_continue,html.Screen,4_74_2,2023-09-13T15:56:58.674Z,,0,,,NaN,,,,,,false,,,,634030.6999998093,634030.6999998093,,634030.5999999046,,634031.687,8,400,,,
sequence,flow.Sequence,4_74,2023-09-13T15:56:58.674Z,,0,,,7046.053999809315,completion,,,,,false,,,,634030.7999997139,634030.6999998093,626968.156,626956.6999998093,626984.646,634031.687,8,400,,,
trial,html.Screen,4_75_0,2023-09-13T15:57:03.977Z,,0,2,,5302.512999809231,response,ISIC_7109582.JPG,6,ISIC_1054090.JPG,ISIC_1054090.JPG,false,0,keypress(z),500,639334.1999998093,639334.1999998093,634015.06,634030.7999997139,634031.687,639342.035,8,400,26,,ISIC_7109582.JPG
break,html.Screen,4_75_1,2023-09-13T15:57:03.977Z,,0,,,NaN,,,,,,false,,,,639334.5999999046,639334.5,,639334.4000000954,,639342.035,8,400,,,
break_continue,html.Screen,4_75_2,2023-09-13T15:57:03.978Z,,0,,,NaN,,,,,,false,,,,639334.9000000954,639334.7999997139,,639334.7999997139,,639342.035,8,400,,,
sequence,flow.Sequence,4_75,2023-09-13T15:57:03.978Z,,0,,,5303.112999713863,completion,,,,,false,,,,639334.9000000954,639334.7999997139,634015.06,634030.7999997139,634031.687,639342.035,8,400,,,
trial,html.Screen,4_76_0,2023-09-13T15:57:07.981Z,,0,2,,3996.264999713865,response,ISIC_4846741.JPG,6,ISIC_0069865.JPG,ISIC_4846741.JPG,false,1,keypress(m),500,643338.4000000954,643338.2999997139,639325.385,639335,639342.035,643349.82,8,400,27,,ISIC_0069865.JPG
break,html.Screen,4_76_1,2023-09-13T15:57:07.982Z,,0,,,NaN,,,,,,false,,,,643338.6999998093,643338.6999998093,,643338.4000000954,,643349.82,8,400,,,
break_continue,html.Screen,4_76_2,2023-09-13T15:57:07.982Z,,0,,,NaN,,,,,,false,,,,643338.9000000954,643338.9000000954,,643338.7999997139,,643349.82,8,400,,,
sequence,flow.Sequence,4_76,2023-09-13T15:57:07.982Z,,0,,,3996.865000095335,completion,,,,,false,,,,643339,643338.9000000954,639325.385,639334.9000000954,639342.035,643349.82,8,400,,,
trial,html.Screen,4_77_0,2023-09-13T15:57:16.185Z,,0,2,,8190.779999904684,response,ISIC_9174306.JPG,5,ISIC_0054395.JPG,ISIC_0054395.JPG,false,0,keypress(z),500,651540.7999997139,651540.5999999046,643333.165,643339.0999999046,643349.82,651549.13,8,400,28,,ISIC_9174306.JPG
break,html.Screen,4_77_1,2023-09-13T15:57:16.186Z,,0,,,NaN,,,,,,false,,,,651541.7999997139,651541.5,,651541,,651549.13,8,400,,,
break_continue,html.Screen,4_77_2,2023-09-13T15:57:16.186Z,,0,,,NaN,,,,,,false,,,,651542.1999998093,651542,,651541.9000000954,,651549.13,8,400,,,
sequence,flow.Sequence,4_77,2023-09-13T15:57:16.187Z,,0,,,8192.180000000051,completion,,,,,false,,,,651542.4000000954,651542,643333.165,643339.0999999046,643349.82,651549.13,8,400,,,
trial,html.Screen,4_78_0,2023-09-13T15:57:21.020Z,,0,2,,4826.770000095363,response,ISIC_9066201.JPG,6,ISIC_4248013.JPG,ISIC_9066201.JPG,false,1,keypress(m),500,656376.0999999046,656375.9000000954,651532.616,651542.5,651549.13,656391.957,8,400,29,,ISIC_4248013.JPG
break,html.Screen,4_78_1,2023-09-13T15:57:21.021Z,,0,,,NaN,,,,,,false,,,,656376.5,656376.4000000954,,656376.1999998093,,656391.957,8,400,,,
break_continue,html.Screen,4_78_2,2023-09-13T15:57:21.021Z,,0,,,NaN,,,,,,false,,,,656376.6999998093,656376.6999998093,,656376.5999999046,,656391.957,8,400,,,
sequence,flow.Sequence,4_78,2023-09-13T15:57:21.021Z,,0,,,4827.5699998092605,completion,,,,,false,,,,656376.9000000954,656376.6999998093,651532.616,651542.5,651549.13,656391.957,8,400,,,
trial,html.Screen,4_79_0,2023-09-13T15:57:25.438Z,,0,2,,4401.943000095314,response,ISIC_7180438.JPG,6,ISIC_0068427.JPG,ISIC_7180438.JPG,false,1,keypress(m),500,660794,660793.9000000954,656375.265,656376.9000000954,656391.957,660800.514,8,400,30,,ISIC_0068427.JPG
break,html.Screen,4_79_1,2023-09-13T15:57:25.439Z,,0,,,NaN,,,,,,false,,,,660794.4000000954,660794.2999997139,,660794.0999999046,,660800.514,8,400,,,
break_continue,html.Screen,4_79_2,2023-09-13T15:57:25.439Z,,0,,,NaN,,,,,,false,,,,660794.5999999046,660794.5,,660794.4000000954,,660800.514,8,400,,,
sequence,flow.Sequence,4_79,2023-09-13T15:57:25.439Z,,0,,,4402.542999999947,completion,,,,,false,,,,660794.6999998093,660794.5,656375.265,656376.9000000954,656391.957,660800.514,8,400,,,
trial,html.Screen,4_80_0,2023-09-13T15:57:30.629Z,,0,2,,5183.4860000000335,response,ISIC_1858237.JPG,4,ISIC_6166247.JPG,ISIC_1858237.JPG,false,1,keypress(m),500,665984.4000000954,665984,660783.844,660794.6999998093,660800.514,665993.957,8,400,31,,ISIC_6166247.JPG
break,html.Screen,4_80_1,2023-09-13T15:57:30.630Z,,0,,,NaN,,,,,,false,,,,665985.5999999046,665985.2999997139,,665984.6999998093,,665993.957,8,400,,,
break_continue,html.Screen,4_80_2,2023-09-13T15:57:30.630Z,,0,,,NaN,,,,,,false,,,,665986.1999998093,665986,,665985.7999997139,,665993.957,8,400,,,
sequence,flow.Sequence,4_80,2023-09-13T15:57:30.631Z,,0,,,5185.4860000000335,completion,,,,,false,,,,665986.5,665986,660783.844,660794.6999998093,660800.514,665993.957,8,400,,,
trial,html.Screen,4_81_0,2023-09-13T15:57:34.489Z,,0,2,,3850.8429997138446,response,ISIC_0011169.JPG,5,ISIC_1497525.JPG,ISIC_1497525.JPG,false,0,keypress(z),500,669845,669844.7999997139,665977.286,665986.7999997139,665993.957,669851.456,8,400,32,,ISIC_0011169.JPG
break,html.Screen,4_81_1,2023-09-13T15:57:34.490Z,,0,,,NaN,,,,,,false,,,,669845.4000000954,669845.2999997139,,669845,,669851.456,8,400,,,
break_continue,html.Screen,4_81_2,2023-09-13T15:57:34.490Z,,0,,,NaN,,,,,,false,,,,669845.7999997139,669845.6999998093,,669845.5999999046,,669851.456,8,400,,,
sequence,flow.Sequence,4_81,2023-09-13T15:57:34.490Z,,0,,,3851.742999809212,completion,,,,,false,,,,669845.9000000954,669845.6999998093,665977.286,665986.6999998093,665993.957,669851.456,8,400,,,
trial,html.Screen,4_82_0,2023-09-13T15:57:39.932Z,,0,2,,5435.944000095362,response,ISIC_6878417.JPG,6,ISIC_0011799.JPG,ISIC_6878417.JPG,false,1,keypress(m),500,675287.5,675287.4000000954,669834.823,669845.9000000954,669851.456,675295.34,8,400,33,,ISIC_0011799.JPG
break,html.Screen,4_82_1,2023-09-13T15:57:39.932Z,,0,,,NaN,,,,,,false,,,,675288,675287.7999997139,,675287.6999998093,,675295.34,8,400,,,
break_continue,html.Screen,4_82_2,2023-09-13T15:57:39.932Z,,0,,,NaN,,,,,,false,,,,675288.0999999046,675288.0999999046,,675288,,675295.34,8,400,,,
sequence,flow.Sequence,4_82,2023-09-13T15:57:39.932Z,,0,,,5436.643999904627,completion,,,,,false,,,,675288.1999998093,675288.0999999046,669834.823,669845.9000000954,669851.456,675295.34,8,400,,,
trial,html.Screen,4_83_0,2023-09-13T15:57:44.562Z,,0,2,,4622.160000000033,response,ISIC_5202231.JPG,5,ISIC_0030921.JPG,ISIC_5202231.JPG,false,1,keypress(m),500,679917.6999998093,679917.5,675278.739,675288.2999997139,675295.34,679921.017,8,400,34,,ISIC_0030921.JPG
break,html.Screen,4_83_1,2023-09-13T15:57:44.563Z,,0,,,NaN,,,,,,false,,,,679918.6999998093,679918.1999998093,,679917.9000000954,,679921.017,8,400,,,
break_continue,html.Screen,4_83_2,2023-09-13T15:57:44.563Z,,0,,,NaN,,,,,,false,,,,679919.1999998093,679919,,679918.7999997139,,679921.017,8,400,,,
sequence,flow.Sequence,4_83,2023-09-13T15:57:44.564Z,,0,,,4623.660000000033,completion,,,,,false,,,,679919.4000000954,679919,675278.739,675288.1999998093,675295.34,679921.017,8,400,,,
trial,html.Screen,4_84_0,2023-09-13T15:57:49.627Z,,0,2,,5061.782999713905,response,ISIC_6766153.JPG,5,ISIC_0011369.JPG,ISIC_6766153.JPG,false,1,keypress(m),500,684983,684982.7999997139,679904.275,679919.5,679921.017,684997.591,8,400,35,,ISIC_0011369.JPG
break,html.Screen,4_84_1,2023-09-13T15:57:49.628Z,,0,,,NaN,,,,,,false,,,,684983.6999998093,684983.5,,684983.0999999046,,684997.591,8,400,,,
break_continue,html.Screen,4_84_2,2023-09-13T15:57:49.628Z,,0,,,NaN,,,,,,false,,,,684984,684983.9000000954,,684983.7999997139,,684997.591,8,400,,,
sequence,flow.Sequence,4_84,2023-09-13T15:57:49.628Z,,0,,,5062.883000095375,completion,,,,,false,,,,684984.0999999046,684983.9000000954,679904.275,679919.5,679921.017,684997.591,8,400,,,
trial,html.Screen,4_85_0,2023-09-13T15:57:55.812Z,,0,2,,6170.008999904618,response,ISIC_1807276.JPG,5,ISIC_0032484.JPG,ISIC_0032484.JPG,false,0,keypress(z),500,691167.6999998093,691167.5999999046,684980.943,684984.0999999046,684997.591,691176.203,8,400,36,,ISIC_1807276.JPG
break,html.Screen,4_85_1,2023-09-13T15:57:55.812Z,,0,,,NaN,,,,,,false,,,,691168.1999998093,691168.0999999046,,691167.7999997139,,691176.203,8,400,,,
break_continue,html.Screen,4_85_2,2023-09-13T15:57:55.813Z,,0,,,NaN,,,,,,false,,,,691168.5,691168.4000000954,,691168.2999997139,,691176.203,8,400,,,
sequence,flow.Sequence,4_85,2023-09-13T15:57:55.813Z,,0,,,6170.8090000953525,completion,,,,,false,,,,691168.6999998093,691168.4000000954,684980.943,684984.0999999046,684997.591,691176.203,8,400,,,
trial,html.Screen,4_86_0,2023-09-13T15:58:02.215Z,,0,2,,6393.996999809286,response,ISIC_5557025.JPG,4,ISIC_0024236.JPG,ISIC_5557025.JPG,false,1,keypress(m),500,697570.4000000954,697570.1999998093,691159.623,691168.6999998093,691176.203,697571.979,8,400,37,,ISIC_0024236.JPG
break,html.Screen,4_86_1,2023-09-13T15:58:02.215Z,,0,,,NaN,,,,,,false,,,,697570.7999997139,697570.6999998093,,697570.5,,697571.979,8,400,,,
break_continue,html.Screen,4_86_2,2023-09-13T15:58:02.215Z,,0,,,NaN,,,,,,false,,,,697571,697571,,697570.9000000954,,697571.979,8,400,,,
sequence,flow.Sequence,4_86,2023-09-13T15:58:02.215Z,,0,,,6394.7970000000205,completion,,,,,false,,,,697571.0999999046,697571,691159.623,691168.6999998093,691176.203,697571.979,8,400,,,
trial,html.Screen,4_87_0,2023-09-13T15:58:08.906Z,,0,2,,6689.820999713847,response,ISIC_2769292.JPG,4,ISIC_0003550.JPG,ISIC_0003550.JPG,false,0,keypress(z),500,704261.9000000954,704261.7999997139,697555.397,697571.0999999046,697571.979,704268.388,8,400,38,,ISIC_2769292.JPG
break,html.Screen,4_87_1,2023-09-13T15:58:08.907Z,,0,,,NaN,,,,,,false,,,,704262.5,704262.1999998093,,704262,,704268.388,8,400,,,
break_continue,html.Screen,4_87_2,2023-09-13T15:58:08.907Z,,0,,,NaN,,,,,,false,,,,704262.9000000954,704262.7999997139,,704262.6999998093,,704268.388,8,400,,,
sequence,flow.Sequence,4_87,2023-09-13T15:58:08.907Z,,0,,,6690.820999713847,completion,,,,,false,,,,704263.0999999046,704262.7999997139,697555.397,697571.0999999046,697571.979,704268.388,8,400,,,
trial,html.Screen,4_88_0,2023-09-13T15:58:15.198Z,,0,2,,6283.911999713862,response,ISIC_1632696.JPG,5,ISIC_6982386.JPG,ISIC_6982386.JPG,false,0,keypress(z),500,710552.4000000954,710552.2999997139,704251.792,704263.0999999046,704268.388,710564.002,8,400,39,,ISIC_1632696.JPG
break,html.Screen,4_88_1,2023-09-13T15:58:15.199Z,,0,,,NaN,,,,,,false,,,,710552.9000000954,710552.7999997139,,710552.5,,710564.002,8,400,,,
break_continue,html.Screen,4_88_2,2023-09-13T15:58:15.199Z,,0,,,NaN,,,,,,false,,,,710553.0999999046,710553,,710553,,710564.002,8,400,,,
sequence,flow.Sequence,4_88,2023-09-13T15:58:15.199Z,,0,,,6284.611999999965,completion,,,,,false,,,,710553.1999998093,710553,704251.792,704263.0999999046,704268.388,710564.002,8,400,,,
trial,html.Screen,4_89_0,2023-09-13T15:58:21.137Z,,0,2,,5927.398000095389,response,ISIC_0025277.JPG,5,ISIC_3152541.JPG,ISIC_3152541.JPG,false,0,keypress(z),500,716491.5,716491.4000000954,710547.244,710553.1999998093,710564.002,716492.121,8,400,40,,ISIC_0025277.JPG
break,html.Screen,4_89_1,2023-09-13T15:58:21.138Z,,0,,,NaN,,,,,,false,,,,716492,716491.9000000954,,716491.6999998093,,716492.121,8,400,,,
break_continue,html.Screen,4_89_2,2023-09-13T15:58:21.138Z,,0,,,NaN,,,,,,false,,,,716492.1999998093,716492.0999999046,,716492,,716492.121,8,400,,,
sequence,flow.Sequence,4_89,2023-09-13T15:58:21.138Z,,0,,,5928.097999904654,completion,,,,,false,,,,716492.1999998093,716492.0999999046,710547.244,710553.1999998093,710564.002,716492.121,8,400,,,
trial,html.Screen,4_90_0,2023-09-13T15:58:28.231Z,,0,2,,7092.97899990459,response,ISIC_0011534.JPG,6,ISIC_7185913.JPG,ISIC_7185913.JPG,false,0,keypress(z),500,723585.1999998093,723585.0999999046,716475.439,716492.4000000954,716492.121,723589.3,8,400,41,,ISIC_0011534.JPG
break,html.Screen,4_90_1,2023-09-13T15:58:28.231Z,,0,,,NaN,,,,,,false,,,,723585.7999997139,723585.5999999046,,723585.2999997139,,723589.3,8,400,,,
break_continue,html.Screen,4_90_2,2023-09-13T15:58:28.232Z,,0,,,NaN,,,,,,false,,,,723586.1999998093,723586.0999999046,,723585.9000000954,,723589.3,8,400,,,
sequence,flow.Sequence,4_90,2023-09-13T15:58:28.232Z,,0,,,7093.97899990459,completion,,,,,false,,,,723586.1999998093,723586.0999999046,716475.439,716492.1999998093,716492.121,723589.3,8,400,,,
trial,html.Screen,4_91_0,2023-09-13T15:58:33.756Z,,0,2,,5520.499999713851,response,ISIC_4502605.JPG,6,ISIC_0238824.JPG,ISIC_4502605.JPG,false,1,keypress(m),500,729109.9000000954,729109.7999997139,723572.696,723586.2999997139,723589.3,729116.702,8,400,42,,ISIC_0238824.JPG
break,html.Screen,4_91_1,2023-09-13T15:58:33.756Z,,0,,,NaN,,,,,,false,,,,729110.5,729110.4000000954,,729110,,729116.702,8,400,,,
break_continue,html.Screen,4_91_2,2023-09-13T15:58:33.756Z,,0,,,NaN,,,,,,false,,,,729110.7999997139,729110.7999997139,,729110.5999999046,,729116.702,8,400,,,
sequence,flow.Sequence,4_91,2023-09-13T15:58:33.757Z,,0,,,5521.499999713851,completion,,,,,false,,,,729110.9000000954,729110.7999997139,723572.696,723586.2999997139,723589.3,729116.702,8,400,,,
trial,html.Screen,4_92_0,2023-09-13T15:58:40.158Z,,0,2,,6395.198000095319,response,ISIC_1979534.JPG,6,ISIC_4870676.JPG,ISIC_4870676.JPG,false,0,keypress(z),500,735512,735511.9000000954,729100.118,729111.0999999046,729116.702,735512.483,8,400,43,,ISIC_1979534.JPG
break,html.Screen,4_92_1,2023-09-13T15:58:40.158Z,,0,,,NaN,,,,,,false,,,,735512.5999999046,735512.4000000954,,735512.1999998093,,735512.483,8,400,,,
break_continue,html.Screen,4_92_2,2023-09-13T15:58:40.159Z,,0,,,NaN,,,,,,false,,,,735513,735512.9000000954,,735512.7999997139,,735512.483,8,400,,,
sequence,flow.Sequence,4_92,2023-09-13T15:58:40.159Z,,0,,,6396.198000095319,completion,,,,,false,,,,735513.0999999046,735512.9000000954,729100.118,729111.0999999046,729116.702,735512.483,8,400,,,
trial,html.Screen,4_93_0,2023-09-13T15:58:45.363Z,,0,2,,5204.616999904625,response,ISIC_5388493.JPG,6,ISIC_0030623.JPG,ISIC_0030623.JPG,false,0,keypress(z),500,740717.1999998093,740717.0999999046,735495.904,735513.1999998093,735512.483,740722.633,8,400,44,,ISIC_5388493.JPG
break,html.Screen,4_93_1,2023-09-13T15:58:45.363Z,,0,,,NaN,,,,,,false,,,,740717.5999999046,740717.5,,740717.2999997139,,740722.633,8,400,,,
break_continue,html.Screen,4_93_2,2023-09-13T15:58:45.364Z,,0,,,NaN,,,,,,false,,,,740717.7999997139,740717.7999997139,,740717.7999997139,,740722.633,8,400,,,
sequence,flow.Sequence,4_93,2023-09-13T15:58:45.364Z,,0,,,5205.31699971389,completion,,,,,false,,,,740717.9000000954,740717.7999997139,735495.904,735513.1999998093,735512.483,740722.633,8,400,,,
trial,html.Screen,4_94_0,2023-09-13T15:58:51.158Z,,0,2,,5789.566999809234,response,ISIC_0025500.JPG,5,ISIC_0057028.JPG,ISIC_0057028.JPG,false,0,keypress(z),500,746512.2999997139,746512.1999998093,740706.016,740718,740722.633,746517.274,8,400,45,,ISIC_0025500.JPG
break,html.Screen,4_94_1,2023-09-13T15:58:51.158Z,,0,,,NaN,,,,,,false,,,,746512.7999997139,746512.5999999046,,746512.2999997139,,746517.274,8,400,,,
break_continue,html.Screen,4_94_2,2023-09-13T15:58:51.159Z,,0,,,NaN,,,,,,false,,,,746513,746512.9000000954,,746512.9000000954,,746517.274,8,400,,,
sequence,flow.Sequence,4_94,2023-09-13T15:58:51.159Z,,0,,,5790.267000095337,completion,,,,,false,,,,746513,746512.9000000954,740706.016,740718,740722.633,746517.274,8,400,,,
trial,html.Screen,4_95_0,2023-09-13T15:58:55.785Z,,0,2,,4621.626000095392,response,ISIC_8041078.JPG,4,ISIC_4938994.JPG,ISIC_4938994.JPG,false,0,keypress(z),500,751139.0999999046,751138.9000000954,746500.619,746513.0999999046,746517.274,751142.956,8,400,46,,ISIC_8041078.JPG
break,html.Screen,4_95_1,2023-09-13T15:58:55.785Z,,0,,,NaN,,,,,,false,,,,751139.5,751139.5,,751139.1999998093,,751142.956,8,400,,,
break_continue,html.Screen,4_95_2,2023-09-13T15:58:55.785Z,,0,,,NaN,,,,,,false,,,,751139.7999997139,751139.6999998093,,751139.5999999046,,751142.956,8,400,,,
sequence,flow.Sequence,4_95,2023-09-13T15:58:55.785Z,,0,,,4622.425999809289,completion,,,,,false,,,,751139.9000000954,751139.6999998093,746500.619,746513.0999999046,746517.274,751142.956,8,400,,,
trial,html.Screen,4_96_0,2023-09-13T15:59:02.555Z,,0,2,,6765.843999713892,response,ISIC_8197240.JPG,5,ISIC_0024308.JPG,ISIC_0024308.JPG,false,0,keypress(z),500,757909,757908.7999997139,751126.328,751139.9000000954,751142.956,757922.741,8,400,47,,ISIC_8197240.JPG
break,html.Screen,4_96_1,2023-09-13T15:59:02.555Z,,0,,,NaN,,,,,,false,,,,757909.5,757909.4000000954,,757909.0999999046,,757922.741,8,400,,,
break_continue,html.Screen,4_96_2,2023-09-13T15:59:02.555Z,,0,,,NaN,,,,,,false,,,,757909.6999998093,757909.6999998093,,757909.5,,757922.741,8,400,,,
sequence,flow.Sequence,4_96,2023-09-13T15:59:02.555Z,,0,,,6766.74399980926,completion,,,,,false,,,,757909.7999997139,757909.6999998093,751126.328,751139.9000000954,751142.956,757922.741,8,400,,,
trial,html.Screen,4_97_0,2023-09-13T15:59:07.869Z,,0,2,,5300.958999809227,response,ISIC_0059170.JPG,5,ISIC_0033007.JPG,ISIC_0059170.JPG,false,1,keypress(m),500,763223.7999997139,763223.6999998093,757906.169,757909.9000000954,757922.741,763233.125,8,400,48,,ISIC_0033007.JPG
break,html.Screen,4_97_1,2023-09-13T15:59:07.870Z,,0,,,NaN,,,,,,false,,,,763224.4000000954,763224.1999998093,,763224,,763233.125,8,400,,,
break_continue,html.Screen,4_97_2,2023-09-13T15:59:07.870Z,,0,,,NaN,,,,,,false,,,,763224.5999999046,763224.5,,763224.4000000954,,763233.125,8,400,,,
sequence,flow.Sequence,4_97,2023-09-13T15:59:07.870Z,,0,,,5301.758999999962,completion,,,,,false,,,,763224.5999999046,763224.5,757906.169,757909.9000000954,757922.741,763233.125,8,400,,,
trial,html.Screen,4_98_0,2023-09-13T15:59:13.042Z,,0,2,,5161.174999713898,response,ISIC_8635853.JPG,5,ISIC_0065714.JPG,ISIC_8635853.JPG,false,1,keypress(m),500,768394.5,768394.2999997139,763216.515,763224.6999998093,763233.125,768409.839,8,400,49,,ISIC_0065714.JPG
break,html.Screen,4_98_1,2023-09-13T15:59:13.042Z,,0,,,NaN,,,,,,false,,,,768395.1999998093,768395,,768394.6999998093,,768409.839,8,400,,,
break_continue,html.Screen,4_98_2,2023-09-13T15:59:13.042Z,,0,,,NaN,,,,,,false,,,,768395.4000000954,768395.2999997139,,768395.2999997139,,768409.839,8,400,,,
sequence,flow.Sequence,4_98,2023-09-13T15:59:13.043Z,,0,,,5162.174999713898,completion,,,,,false,,,,768395.4000000954,768395.2999997139,763216.515,763224.6999998093,763233.125,768409.839,8,400,,,
trial,html.Screen,4_99_0,2023-09-13T15:59:18.411Z,,0,2,,5354.061000095331,response,ISIC_5559730.JPG,5,ISIC_5868291.JPG,ISIC_5559730.JPG,false,1,keypress(m),500,773764.0999999046,773763.9000000954,768393.26,768395.5,768409.839,773770.393,8,400,50,,ISIC_5868291.JPG
break,html.Screen,4_99_1,2023-09-13T15:59:28.404Z,,0,,,10002.797999999952,timeout,,,,,false,,,,783757.1999998093,783756.49,773753.681,773764.1999998093,773770.393,783773.191,8,400,,,
break_continue,html.Screen,4_99_2,2023-09-13T16:00:24.283Z,,0,,,55828.608999713906,response,,,,,false,continue,keypress(Space),,839634.2999997139,839601.7999997139,783756.49,783757.2999997139,783773.191,839665.137,8,400,,,
sequence,flow.Sequence,4_99,2023-09-13T16:00:24.283Z,,0,,,71191.96099971386,completion,,,,,false,,,,839634.5,839601.7999997139,768393.26,768395.5,768409.839,839665.137,8,400,,,
trial,html.Screen,4_100_0,2023-09-13T16:00:31.165Z,,0,3,,6851.2630000953795,response,ISIC_5204408.JPG,5,ISIC_8064866.JPG,ISIC_8064866.JPG,false,0,keypress(z),500,846516.4000000954,846516.4000000954,839648.474,839635.1999998093,839665.137,846528.527,8,400,1,,ISIC_5204408.JPG
break,html.Screen,4_100_1,2023-09-13T16:00:31.165Z,,0,,,NaN,,,,,,false,,,,846517,846516.7999997139,,846516.5999999046,,846528.527,8,400,,,
break_continue,html.Screen,4_100_2,2023-09-13T16:00:31.166Z,,0,,,NaN,,,,,,false,,,,846517.2999997139,846517.1999998093,,846517.0999999046,,846528.527,8,400,,,
sequence,flow.Sequence,4_100,2023-09-13T16:00:31.166Z,,0,,,6852.062999809277,completion,,,,,false,,,,846517.4000000954,846517.1999998093,839648.474,839634.5,839665.137,846528.527,8,400,,,
trial,html.Screen,4_101_0,2023-09-13T16:00:38.708Z,,0,3,,7530.972999999998,response,ISIC_0000450.JPG,5,ISIC_0034173.JPG,ISIC_0034173.JPG,false,0,keypress(z),500,854059.6999998093,854059.5,846511.917,846517.4000000954,846528.527,854076.556,8,400,2,,ISIC_0000450.JPG
break,html.Screen,4_101_1,2023-09-13T16:00:38.709Z,,0,,,NaN,,,,,,false,,,,854060.5999999046,854060.2999997139,,854059.9000000954,,854076.556,8,400,,,
break_continue,html.Screen,4_101_2,2023-09-13T16:00:38.709Z,,0,,,NaN,,,,,,false,,,,854060.7999997139,854060.6999998093,,854060.5999999046,,854076.556,8,400,,,
sequence,flow.Sequence,4_101,2023-09-13T16:00:38.709Z,,0,,,7532.172999809263,completion,,,,,false,,,,854060.9000000954,854060.6999998093,846511.917,846517.4000000954,846528.527,854076.556,8,400,,,
trial,html.Screen,4_102_0,2023-09-13T16:00:43.879Z,,0,3,,5154.243999713915,response,ISIC_0060707.JPG,5,ISIC_1850388.JPG,ISIC_1850388.JPG,false,0,keypress(z),500,859230.9000000954,859230.7999997139,854059.816,854060.9000000954,854076.556,859236.684,8,400,3,,ISIC_0060707.JPG
break,html.Screen,4_102_1,2023-09-13T16:00:43.880Z,,0,,,NaN,,,,,,false,,,,859231.1999998093,859231.0999999046,,859231,,859236.684,8,400,,,
break_continue,html.Screen,4_102_2,2023-09-13T16:00:43.880Z,,0,,,NaN,,,,,,false,,,,859231.4000000954,859231.4000000954,,859231.2999997139,,859236.684,8,400,,,
sequence,flow.Sequence,4_102,2023-09-13T16:00:43.880Z,,0,,,5154.844000095385,completion,,,,,false,,,,859231.5,859231.4000000954,854059.816,854060.9000000954,854076.556,859236.684,8,400,,,
trial,html.Screen,4_103_0,2023-09-13T16:00:50.089Z,,0,3,,6203.515999809257,response,ISIC_8635849.JPG,5,ISIC_7806926.JPG,ISIC_7806926.JPG,false,0,keypress(z),500,865440.2999997139,865440.1999998093,859220.054,859231.5,859236.684,865448.725,8,400,4,,ISIC_8635849.JPG
break,html.Screen,4_103_1,2023-09-13T16:00:50.089Z,,0,,,NaN,,,,,,false,,,,865440.6999998093,865440.5999999046,,865440.5,,865448.725,8,400,,,
break_continue,html.Screen,4_103_2,2023-09-13T16:00:50.089Z,,0,,,NaN,,,,,,false,,,,865440.9000000954,865440.9000000954,,865440.6999998093,,865448.725,8,400,,,
sequence,flow.Sequence,4_103,2023-09-13T16:00:50.089Z,,0,,,6204.216000095359,completion,,,,,false,,,,865441,865440.9000000954,859220.054,859231.5,859236.684,865448.725,8,400,,,
trial,html.Screen,4_104_0,2023-09-13T16:00:55.259Z,,0,3,,5161.574999713921,response,ISIC_0016043.JPG,5,ISIC_0029606.JPG,ISIC_0016043.JPG,false,1,keypress(m),500,870610.4000000954,870610.2999997139,865432.099,865441,865448.725,870625.601,8,400,5,,ISIC_0029606.JPG
break,html.Screen,4_104_1,2023-09-13T16:00:55.259Z,,0,,,NaN,,,,,,false,,,,870610.7999997139,870610.6999998093,,870610.5,,870625.601,8,400,,,
break_continue,html.Screen,4_104_2,2023-09-13T16:00:55.259Z,,0,,,NaN,,,,,,false,,,,870611,870610.9000000954,,870610.7999997139,,870625.601,8,400,,,
sequence,flow.Sequence,4_104,2023-09-13T16:00:55.259Z,,0,,,5162.175000095391,completion,,,,,false,,,,870611,870610.9000000954,865432.099,865441,865448.725,870625.601,8,400,,,
trial,html.Screen,4_105_0,2023-09-13T16:01:04.910Z,,0,3,,9635.498999904608,response,ISIC_0024459.JPG,5,ISIC_0010411.JPG,ISIC_0010411.JPG,false,0,keypress(z),500,880261.4000000954,880261.0999999046,870608.815,870611.0999999046,870625.601,880277.615,8,400,6,,ISIC_0024459.JPG
break,html.Screen,4_105_1,2023-09-13T16:01:04.911Z,,0,,,NaN,,,,,,false,,,,880262.5,880262.2999997139,,880261.7999997139,,880277.615,8,400,,,
break_continue,html.Screen,4_105_2,2023-09-13T16:01:04.911Z,,0,,,NaN,,,,,,false,,,,880262.9000000954,880262.6999998093,,880262.5999999046,,880277.615,8,400,,,
sequence,flow.Sequence,4_105,2023-09-13T16:01:04.911Z,,0,,,9637.098999809241,completion,,,,,false,,,,880263,880262.6999998093,870608.815,870611.0999999046,870625.601,880277.615,8,400,,,
trial,html.Screen,4_106_0,2023-09-13T16:01:10.482Z,,0,3,,5555.584999809274,response,ISIC_6385296.JPG,6,ISIC_9358630.JPG,ISIC_9358630.JPG,false,0,keypress(z),500,885833.4000000954,885833.1999998093,880260.948,880263.1999998093,880277.615,885838.336,8,400,7,,ISIC_6385296.JPG
break,html.Screen,4_106_1,2023-09-13T16:01:10.482Z,,0,,,NaN,,,,,,false,,,,885833.6999998093,885833.5999999046,,885833.4000000954,,885838.336,8,400,,,
break_continue,html.Screen,4_106_2,2023-09-13T16:01:10.482Z,,0,,,NaN,,,,,,false,,,,885833.9000000954,885833.7999997139,,885833.7999997139,,885838.336,8,400,,,
sequence,flow.Sequence,4_106,2023-09-13T16:01:10.482Z,,0,,,5556.184999713907,completion,,,,,false,,,,885834,885833.7999997139,880260.948,880263.0999999046,880277.615,885838.336,8,400,,,
trial,html.Screen,4_107_0,2023-09-13T16:01:15.972Z,,0,3,,5485.064000095357,response,ISIC_5153848.JPG,6,ISIC_4966865.JPG,ISIC_4966865.JPG,false,0,keypress(z),500,891323.5,891323.4000000954,885821.766,885834,885838.336,891332.355,8,400,8,,ISIC_5153848.JPG
break,html.Screen,4_107_1,2023-09-13T16:01:15.972Z,,0,,,NaN,,,,,,false,,,,891323.9000000954,891323.7999997139,,891323.5999999046,,891332.355,8,400,,,
break_continue,html.Screen,4_107_2,2023-09-13T16:01:15.972Z,,0,,,NaN,,,,,,false,,,,891324.0999999046,891324.0999999046,,891324,,891332.355,8,400,,,
sequence,flow.Sequence,4_107,2023-09-13T16:01:15.973Z,,0,,,5485.763999904622,completion,,,,,false,,,,891324.1999998093,891324.0999999046,885821.766,885834,885838.336,891332.355,8,400,,,
trial,html.Screen,4_108_0,2023-09-13T16:01:20.168Z,,0,3,,4185.645000000019,response,ISIC_4746361.JPG,6,ISIC_0031561.JPG,ISIC_4746361.JPG,false,1,keypress(m),500,895518.1999998093,895518,891315.783,891324.2999997139,891332.355,895523.947,8,400,9,,ISIC_0031561.JPG
break,html.Screen,4_108_1,2023-09-13T16:01:20.169Z,,0,,,NaN,,,,,,false,,,,895519,895518.6999998093,,895518.2999997139,,895523.947,8,400,,,
break_continue,html.Screen,4_108_2,2023-09-13T16:01:20.169Z,,0,,,NaN,,,,,,false,,,,895519.2999997139,895519.0999999046,,895519,,895523.947,8,400,,,
sequence,flow.Sequence,4_108,2023-09-13T16:01:20.170Z,,0,,,4186.744999904651,completion,,,,,false,,,,895519.4000000954,895519.0999999046,891315.783,891324.1999998093,891332.355,895523.947,8,400,,,
trial,html.Screen,4_109_0,2023-09-13T16:01:26.847Z,,0,3,,6672.752999809221,response,ISIC_3608788.JPG,6,ISIC_0032996.JPG,ISIC_0032996.JPG,false,0,keypress(z),500,902196.9000000954,902196.6999998093,895507.448,895519.5,895523.947,902203.594,8,400,10,,ISIC_3608788.JPG
break,html.Screen,4_109_1,2023-09-13T16:01:26.848Z,,0,,,NaN,,,,,,false,,,,902197.7999997139,902197.5,,902197.0999999046,,902203.594,8,400,,,
break_continue,html.Screen,4_109_2,2023-09-13T16:01:26.848Z,,0,,,NaN,,,,,,false,,,,902198.0999999046,902198,,902197.9000000954,,902203.594,8,400,,,
sequence,flow.Sequence,4_109,2023-09-13T16:01:26.848Z,,0,,,6674.052999999956,completion,,,,,false,,,,902198.2999997139,902198,895507.448,895519.5,895523.947,902203.594,8,400,,,
trial,html.Screen,4_110_0,2023-09-13T16:01:30.937Z,,0,3,,4083.405999999959,response,ISIC_9660528.JPG,5,ISIC_0065206.JPG,ISIC_0065206.JPG,false,0,keypress(z),500,906287.2999997139,906287,902186.954,902198.4000000954,902203.594,906294.976,8,400,11,,ISIC_9660528.JPG
break,html.Screen,4_110_1,2023-09-13T16:01:30.938Z,,0,,,NaN,,,,,,false,,,,906287.7999997139,906287.6999998093,,906287.4000000954,,906294.976,8,400,,,
break_continue,html.Screen,4_110_2,2023-09-13T16:01:30.938Z,,0,,,NaN,,,,,,false,,,,906288.0999999046,906288.0999999046,,906287.9000000954,,906294.976,8,400,,,
sequence,flow.Sequence,4_110,2023-09-13T16:01:30.938Z,,0,,,4084.5059999045916,completion,,,,,false,,,,906288.1999998093,906288.0999999046,902186.954,902198.4000000954,902203.594,906294.976,8,400,,,
trial,html.Screen,4_111_0,2023-09-13T16:01:35.916Z,,0,3,,4970.523999999976,response,ISIC_0169604.JPG,4,ISIC_4229473.JPG,ISIC_0169604.JPG,false,1,keypress(m),500,911265.5999999046,911265.5,906278.303,906288.2999997139,906294.976,911271.225,8,400,12,,ISIC_4229473.JPG
break,html.Screen,4_111_1,2023-09-13T16:01:35.916Z,,0,,,NaN,,,,,,false,,,,911265.9000000954,911265.9000000954,,911265.6999998093,,911271.225,8,400,,,
break_continue,html.Screen,4_111_2,2023-09-13T16:01:35.916Z,,0,,,NaN,,,,,,false,,,,911266.1999998093,911266.0999999046,,911266,,911271.225,8,400,,,
sequence,flow.Sequence,4_111,2023-09-13T16:01:35.916Z,,0,,,4971.123999904608,completion,,,,,false,,,,911266.1999998093,911266.0999999046,906278.303,906288.2999997139,906294.976,911271.225,8,400,,,
trial,html.Screen,4_112_0,2023-09-13T16:01:40.481Z,,0,3,,4558.974999809288,response,ISIC_0031883.JPG,5,ISIC_0031627.JPG,ISIC_0031627.JPG,false,0,keypress(z),500,915830.4000000954,915830.1999998093,911254.681,911266.1999998093,911271.225,915846.888,8,400,13,,ISIC_0031883.JPG
break,html.Screen,4_112_1,2023-09-13T16:01:40.481Z,,0,,,NaN,,,,,,false,,,,915830.7999997139,915830.6999998093,,915830.5,,915846.888,8,400,,,
break_continue,html.Screen,4_112_2,2023-09-13T16:01:40.481Z,,0,,,NaN,,,,,,false,,,,915831,915830.9000000954,,915830.7999997139,,915846.888,8,400,,,
sequence,flow.Sequence,4_112,2023-09-13T16:01:40.481Z,,0,,,4559.675000095391,completion,,,,,false,,,,915831,915830.9000000954,911254.681,911266.1999998093,911271.225,915846.888,8,400,,,
trial,html.Screen,4_113_0,2023-09-13T16:01:46.340Z,,0,3,,5842.512000095332,response,ISIC_0062762.JPG,5,ISIC_0030333.JPG,ISIC_0030333.JPG,false,0,keypress(z),500,921689.5,921689.4000000954,915830.084,915831.0999999046,915846.888,921691.464,8,400,14,,ISIC_0062762.JPG
break,html.Screen,4_113_1,2023-09-13T16:01:46.340Z,,0,,,NaN,,,,,,false,,,,921689.9000000954,921689.7999997139,,921689.5999999046,,921691.464,8,400,,,
break_continue,html.Screen,4_113_2,2023-09-13T16:01:46.340Z,,0,,,NaN,,,,,,false,,,,921690,921689.9000000954,,921689.9000000954,,921691.464,8,400,,,
sequence,flow.Sequence,4_113,2023-09-13T16:01:46.340Z,,0,,,5843.012000095332,completion,,,,,false,,,,921690.0999999046,921689.9000000954,915830.084,915831.0999999046,915846.888,921691.464,8,400,,,
trial,html.Screen,4_114_0,2023-09-13T16:01:53.206Z,,0,3,,6864.635999904596,response,ISIC_0046571.JPG,4,ISIC_0046647.JPG,ISIC_0046571.JPG,false,1,keypress(m),500,928556.1999998093,928556.0999999046,921674.878,921690.0999999046,921691.464,928571.514,8,400,15,,ISIC_0046647.JPG
break,html.Screen,4_114_1,2023-09-13T16:01:53.207Z,,0,,,NaN,,,,,,false,,,,928556.6999998093,928556.5999999046,,928556.2999997139,,928571.514,8,400,,,
break_continue,html.Screen,4_114_2,2023-09-13T16:01:53.207Z,,0,,,NaN,,,,,,false,,,,928556.9000000954,928556.9000000954,,928556.9000000954,,928571.514,8,400,,,
sequence,flow.Sequence,4_114,2023-09-13T16:01:53.208Z,,0,,,6865.436000095331,completion,,,,,false,,,,928557.4000000954,928556.9000000954,921674.878,921690.0999999046,921691.464,928571.514,8,400,,,
trial,html.Screen,4_115_0,2023-09-13T16:01:58.987Z,,0,3,,5765.285999713931,response,ISIC_7621412.JPG,6,ISIC_0000551.JPG,ISIC_7621412.JPG,false,1,keypress(m),500,934336.9000000954,934336.7999997139,928554.932,928557.5999999046,928571.514,934349.437,8,400,16,,ISIC_0000551.JPG
break,html.Screen,4_115_1,2023-09-13T16:01:58.988Z,,0,,,NaN,,,,,,false,,,,934337.4000000954,934337.2999997139,,934337,,934349.437,8,400,,,
break_continue,html.Screen,4_115_2,2023-09-13T16:01:58.988Z,,0,,,NaN,,,,,,false,,,,934337.7999997139,934337.7999997139,,934337.5,,934349.437,8,400,,,
sequence,flow.Sequence,4_115,2023-09-13T16:01:58.988Z,,0,,,5766.285999713931,completion,,,,,false,,,,934337.9000000954,934337.7999997139,928554.932,928557.5999999046,928571.514,934349.437,8,400,,,
trial,html.Screen,4_116_0,2023-09-13T16:02:05.102Z,,0,3,,6101.963000095333,response,ISIC_8821700.JPG,4,ISIC_1641823.JPG,ISIC_8821700.JPG,false,1,keypress(m),500,940451.5999999046,940451.4000000954,934332.839,934338,934349.437,940461.418,8,400,17,,ISIC_1641823.JPG
break,html.Screen,4_116_1,2023-09-13T16:02:05.102Z,,0,,,NaN,,,,,,false,,,,940452,940451.7999997139,,940451.5999999046,,940461.418,8,400,,,
break_continue,html.Screen,4_116_2,2023-09-13T16:02:05.102Z,,0,,,NaN,,,,,,false,,,,940452.2999997139,940452.1999998093,,940452.0999999046,,940461.418,8,400,,,
sequence,flow.Sequence,4_116,2023-09-13T16:02:05.102Z,,0,,,6102.762999809231,completion,,,,,false,,,,940452.4000000954,940452.1999998093,934332.839,934338,934349.437,940461.418,8,400,,,
trial,html.Screen,4_117_0,2023-09-13T16:02:10.407Z,,0,3,,5295.681999904686,response,ISIC_0188432.JPG,5,ISIC_0003122.JPG,ISIC_0003122.JPG,false,0,keypress(z),500,945757.2999997139,945757.0999999046,940444.752,940452.4000000954,940461.418,945771.715,8,400,18,,ISIC_0188432.JPG
break,html.Screen,4_117_1,2023-09-13T16:02:10.408Z,,0,,,NaN,,,,,,false,,,,945758,945757.9000000954,,945757.4000000954,,945771.715,8,400,,,
break_continue,html.Screen,4_117_2,2023-09-13T16:02:10.409Z,,0,,,NaN,,,,,,false,,,,945758.4000000954,945758.1999998093,,945758.0999999046,,945771.715,8,400,,,
sequence,flow.Sequence,4_117,2023-09-13T16:02:10.409Z,,0,,,5296.781999809318,completion,,,,,false,,,,945758.5,945758.1999998093,940444.752,940452.4000000954,940461.418,945771.715,8,400,,,
trial,html.Screen,4_118_0,2023-09-13T16:02:14.942Z,,0,3,,4520.1850000954,response,ISIC_3571523.JPG,5,ISIC_0056677.JPG,ISIC_3571523.JPG,false,1,keypress(m),500,950292,950291.9000000954,945755.066,945758.5999999046,945771.715,950313.819,8,400,19,,ISIC_0056677.JPG
break,html.Screen,4_118_1,2023-09-13T16:02:14.943Z,,0,,,NaN,,,,,,false,,,,950292.4000000954,950292.2999997139,,950292.1999998093,,950313.819,8,400,,,
break_continue,html.Screen,4_118_2,2023-09-13T16:02:14.943Z,,0,,,NaN,,,,,,false,,,,950292.7999997139,950292.5999999046,,950292.5,,950313.819,8,400,,,
sequence,flow.Sequence,4_118,2023-09-13T16:02:14.943Z,,0,,,4520.884999904665,completion,,,,,false,,,,950292.7999997139,950292.5999999046,945755.066,945758.5999999046,945771.715,950313.819,8,400,,,
trial,html.Screen,4_119_0,2023-09-13T16:02:22.275Z,,0,3,,7309.180999999982,response,ISIC_9564379.JPG,5,ISIC_0026966.JPG,ISIC_9564379.JPG,false,1,keypress(m),500,957623.0999999046,957623,950297.124,950293,950313.819,957628.072,8,400,20,,ISIC_0026966.JPG
break,html.Screen,4_119_1,2023-09-13T16:02:22.275Z,,0,,,NaN,,,,,,false,,,,957623.5999999046,957623.5,,957623.2999997139,,957628.072,8,400,,,
break_continue,html.Screen,4_119_2,2023-09-13T16:02:22.275Z,,0,,,NaN,,,,,,false,,,,957623.7999997139,957623.6999998093,,957623.5999999046,,957628.072,8,400,,,
sequence,flow.Sequence,4_119,2023-09-13T16:02:22.275Z,,0,,,7309.880999809247,completion,,,,,false,,,,957623.9000000954,957623.6999998093,950297.124,950292.9000000954,950313.819,957628.072,8,400,,,
trial,html.Screen,4_120_0,2023-09-13T16:02:28.534Z,,0,3,,6253.828000095324,response,ISIC_0029283.JPG,5,ISIC_0031406.JPG,ISIC_0031406.JPG,false,0,keypress(z),500,963882.0999999046,963881.9000000954,957611.576,957624,957628.072,963890.215,8,400,21,,ISIC_0029283.JPG
break,html.Screen,4_120_1,2023-09-13T16:02:28.534Z,,0,,,NaN,,,,,,false,,,,963882.6999998093,963882.5999999046,,963882.2999997139,,963890.215,8,400,,,
break_continue,html.Screen,4_120_2,2023-09-13T16:02:28.535Z,,0,,,NaN,,,,,,false,,,,963883,963883,,963882.9000000954,,963890.215,8,400,,,
sequence,flow.Sequence,4_120,2023-09-13T16:02:28.535Z,,0,,,6254.927999999956,completion,,,,,false,,,,963883.1999998093,963883,957611.576,957624,957628.072,963890.215,8,400,,,
trial,html.Screen,4_121_0,2023-09-13T16:02:36.042Z,,0,3,,7499.884999904665,response,ISIC_4246086.JPG,5,ISIC_7696538.JPG,ISIC_4246086.JPG,false,1,keypress(m),500,971390.1999998093,971390.0999999046,963873.667,963883.4000000954,963890.215,971404.955,8,400,22,,ISIC_7696538.JPG
break,html.Screen,4_121_1,2023-09-13T16:02:36.042Z,,0,,,NaN,,,,,,false,,,,971390.5999999046,971390.5,,971390.4000000954,,971404.955,8,400,,,
break_continue,html.Screen,4_121_2,2023-09-13T16:02:36.042Z,,0,,,NaN,,,,,,false,,,,971390.7999997139,971390.6999998093,,971390.6999998093,,971404.955,8,400,,,
sequence,flow.Sequence,4_121,2023-09-13T16:02:36.042Z,,0,,,7500.484999809298,completion,,,,,false,,,,971390.7999997139,971390.6999998093,963873.667,963883.2999997139,963890.215,971404.955,8,400,,,
trial,html.Screen,4_122_0,2023-09-13T16:02:41.762Z,,0,3,,5704.945000095409,response,ISIC_0028859.JPG,4,ISIC_0010707.JPG,ISIC_0028859.JPG,false,1,keypress(m),500,977110,977109.9000000954,971388.388,971390.9000000954,971404.955,977115.935,8,400,23,,ISIC_0010707.JPG
break,html.Screen,4_122_1,2023-09-13T16:02:41.762Z,,0,,,NaN,,,,,,false,,,,977110.4000000954,977110.2999997139,,977110.0999999046,,977115.935,8,400,,,
break_continue,html.Screen,4_122_2,2023-09-13T16:02:41.762Z,,0,,,NaN,,,,,,false,,,,977110.5999999046,977110.5,,977110.5,,977115.935,8,400,,,
sequence,flow.Sequence,4_122,2023-09-13T16:02:41.762Z,,0,,,5705.545000000042,completion,,,,,false,,,,977110.6999998093,977110.5,971388.388,971390.9000000954,971404.955,977115.935,8,400,,,
trial,html.Screen,4_123_0,2023-09-13T16:02:48.616Z,,0,3,,6848.764999809209,response,ISIC_0031074.JPG,5,ISIC_6668093.JPG,ISIC_0031074.JPG,false,1,keypress(m),500,983964.9000000954,983964.6999998093,977099.37,977110.6999998093,977115.935,983979.433,8,400,24,,ISIC_6668093.JPG
break,html.Screen,4_123_1,2023-09-13T16:02:48.617Z,,0,,,NaN,,,,,,false,,,,983965.1999998093,983965.0999999046,,983964.9000000954,,983979.433,8,400,,,
break_continue,html.Screen,4_123_2,2023-09-13T16:02:48.617Z,,0,,,NaN,,,,,,false,,,,983965.2999997139,983965.2999997139,,983965.2999997139,,983979.433,8,400,,,
sequence,flow.Sequence,4_123,2023-09-13T16:02:48.617Z,,0,,,6849.364999713842,completion,,,,,false,,,,983965.4000000954,983965.2999997139,977099.37,977110.6999998093,977115.935,983979.433,8,400,,,
trial,html.Screen,4_124_0,2023-09-13T16:02:56.779Z,,0,3,,8147.467000095407,response,ISIC_0014291.JPG,6,ISIC_4130478.JPG,ISIC_4130478.JPG,false,0,keypress(z),500,992127,992126.9000000954,983962.76,983965.5,983979.433,992128.527,8,400,25,,ISIC_0014291.JPG
break,html.Screen,4_124_1,2023-09-13T16:02:56.779Z,,0,,,NaN,,,,,,false,,,,992127.5999999046,992127.5,,992127.1999998093,,992128.527,8,400,,,
break_continue,html.Screen,4_124_2,2023-09-13T16:02:56.779Z,,0,,,NaN,,,,,,false,,,,992127.9000000954,992127.7999997139,,992127.6999998093,,992128.527,8,400,,,
sequence,flow.Sequence,4_124,2023-09-13T16:02:56.779Z,,0,,,8148.366999713937,completion,,,,,false,,,,992128,992127.7999997139,983962.76,983965.4000000954,983979.433,992128.527,8,400,,,
trial,html.Screen,4_125_0,2023-09-13T16:03:01.777Z,,0,3,,4996.873000095366,response,ISIC_0484171.JPG,5,ISIC_2136533.JPG,ISIC_2136533.JPG,false,0,keypress(z),500,997125.5,997125.4000000954,992111.951,992128,992128.527,997138.36,8,400,26,,ISIC_0484171.JPG
break,html.Screen,4_125_1,2023-09-13T16:03:01.778Z,,0,,,NaN,,,,,,false,,,,997126.0999999046,997125.9000000954,,997125.5999999046,,997138.36,8,400,,,
break_continue,html.Screen,4_125_2,2023-09-13T16:03:01.778Z,,0,,,NaN,,,,,,false,,,,997126.4000000954,997126.2999997139,,997126.1999998093,,997138.36,8,400,,,
sequence,flow.Sequence,4_125,2023-09-13T16:03:01.778Z,,0,,,4997.772999713896,completion,,,,,false,,,,997126.4000000954,997126.2999997139,992111.951,992128,992128.527,997138.36,8,400,,,
trial,html.Screen,4_126_0,2023-09-13T16:03:06.872Z,,0,3,,5082.140000000014,response,ISIC_0000118.JPG,5,ISIC_0067805.JPG,ISIC_0000118.JPG,false,1,keypress(m),500,1002220.5999999046,1002220.5,997121.723,997126.5,997138.36,1002231.531,8,400,27,,ISIC_0067805.JPG
break,html.Screen,4_126_1,2023-09-13T16:03:06.873Z,,0,,,NaN,,,,,,false,,,,1002221.2999997139,1002221,,1002220.6999998093,,1002231.531,8,400,,,
break_continue,html.Screen,4_126_2,2023-09-13T16:03:06.873Z,,0,,,NaN,,,,,,false,,,,1002221.4000000954,1002221.4000000954,,1002221.2999997139,,1002231.531,8,400,,,
