sender,sender_type,sender_id,timestamp,meta,,blockNo,condition,duration,ended_on,img_left,img_reveal,img_right,loser,practice,response,response_action,selection_duration,time_commit,time_end,time_render,time_run,time_show,time_switch,total_blocks,total_trials,trialNo,url,winner
informed_consent,html.Screen,0,2023-09-12T00:35:38.812Z,"{""labjs_version"":""20.2.4"",""labjs_build"":{""flavor"":""development"",""commit"":""f5b4a49f956347addd546a832a3327688c2c0fef""},""location"":""https://labjs.felixhenninger.com/api/labjs_preview/index.html"",""userAgent"":""Mozilla/5.0 (Windows NT 10.0; Win64; x64) AppleWebKit/537.36 (KHTML, like Gecko) Chrome/116.0.0.0 Safari/537.36"",""platform"":""Win32"",""language"":""en-AU"",""locale"":""en-US"",""timeZone"":""America/Chicago"",""timezoneOffset"":300,""screen_width"":1680,""screen_height"":1050,""scroll_width"":1296,""scroll_height"":688,""window_innerWidth"":1296,""window_innerHeight"":736,""devicePixelRatio"":1}",,,,59409.916,response,,,,,,consent,click button,,59973.09999990463,59972,545.38,550.5999999046326,562.084,59977.718,,,,{},
Welcome,html.Screen,1,2023-09-12T00:35:38.974Z,,,,symmetry,156.3819999046318,response,,,,,,continue,click button,,60134.699999809265,60134.09999990463,59961.157,59973.2999997139,59977.718,60144.673,,,,,
trial,html.Screen,2_0_0,2023-09-12T00:35:50.474Z,,0,0,,11522.507999999994,timeout,ISIC_0069348.JPG,,ISIC_6997061.JPG,,true,,,500,71634.2999997139,71634.09999990463,60128.205,60134.90000009537,60144.673,71667.181,1,6,1,,
sequence,flow.Sequence,2_0,2023-09-12T00:35:50.474Z,,0,,,11489.42699990463,completion,,,,,true,,,,71634.40000009537,71634.09999990463,60128.205,60134.90000009537,60144.673,71667.181,1,6,,,
trial,html.Screen,2_1_0,2023-09-12T00:35:54.892Z,,0,0,,4384.819000000003,response,ISIC_0009529.JPG,,ISIC_0057368.JPG,ISIC_0057368.JPG,true,0,keypress(z),500,76052.19999980927,76052,71650.404,71634.5,71667.181,76058.995,1,6,2,,ISIC_0009529.JPG
sequence,flow.Sequence,2_1,2023-09-12T00:35:54.892Z,,0,,,4384.819000000003,completion,,,,,true,,,,76052.40000009537,76052,71650.404,71634.5,71667.181,76058.995,1,6,,,
trial,html.Screen,2_2_0,2023-09-12T00:35:58.158Z,,0,0,,3259.405000095372,response,ISIC_9758671.JPG,,ISIC_0064954.JPG,ISIC_9758671.JPG,true,1,keypress(m),500,79318.5,79318.40000009537,76042.318,76052.40000009537,76058.995,79332.025,1,6,3,,ISIC_0064954.JPG
sequence,flow.Sequence,2_2,2023-09-12T00:35:58.158Z,,0,,,3259.405000095372,completion,,,,,true,,,,79318.59999990463,79318.40000009537,76042.318,76052.40000009537,76058.995,79332.025,1,6,,,
trial,html.Screen,2_3_0,2023-09-12T00:36:03.793Z,,0,0,,5621.074999904638,response,ISIC_0005785.JPG,,ISIC_0000080.JPG,ISIC_0005785.JPG,true,1,keypress(m),500,84953.19999980927,84953.09999990463,79315.314,79318.7999997139,79332.025,84959.628,1,6,4,,ISIC_0000080.JPG
sequence,flow.Sequence,2_3,2023-09-12T00:36:03.793Z,,0,,,5621.074999904638,completion,,,,,true,,,,84953.40000009537,84953.09999990463,79315.314,79318.7999997139,79332.025,84959.628,1,6,,,
trial,html.Screen,2_4_0,2023-09-12T00:36:07.412Z,,0,0,,3612.6719997139007,response,ISIC_7944028.JPG,,ISIC_5390060.JPG,ISIC_5390060.JPG,true,0,keypress(z),500,88572.5,88572.2999997139,84943.153,84953.5,84959.628,88583.339,1,6,5,,ISIC_7944028.JPG
sequence,flow.Sequence,2_4,2023-09-12T00:36:07.412Z,,0,,,3612.6719997139007,completion,,,,,true,,,,88572.69999980927,88572.2999997139,84943.153,84953.5,84959.628,88583.339,1,6,,,
trial,html.Screen,2_5_0,2023-09-12T00:36:10.906Z,,0,0,,3483.06100009536,response,ISIC_0010188.JPG,,ISIC_0794216.JPG,ISIC_0010188.JPG,true,1,keypress(m),500,92066.5,92066.40000009537,88566.692,88572.7999997139,88583.339,92073.469,1,6,6,,ISIC_0794216.JPG
sequence,flow.Sequence,2_5,2023-09-12T00:36:10.906Z,,0,,,3483.06100009536,completion,,,,,true,,,,92066.69999980927,92066.40000009537,88566.692,88572.7999997139,88583.339,92073.469,1,6,,,
loop,flow.Loop,2,2023-09-12T00:36:10.906Z,,,,,31921.727000095365,completion,,,,,true,,,,92066.90000009537,92066.40000009537,60128.205,60134.90000009537,60144.673,92073.469,1,6,,,
exp_instructions,html.Screen,3,2023-09-12T00:36:18.622Z,,,,,7708.531000000003,response,,,,,,continue,keypress(Space),,99782.40000009537,99782,92056.883,92066.90000009537,92073.469,99788.485,,,,,
trial,html.Screen,4_0_0,2023-09-12T00:36:23.814Z,,0,1,,5185.614999904632,response,ISIC_0024631.JPG,5,ISIC_9694911.JPG,ISIC_9694911.JPG,false,0,keypress(z),500,104974.19999980927,104974.09999990463,99771.817,99782.5,99788.485,104981.931,8,400,1,,ISIC_0024631.JPG
break,html.Screen,4_0_1,2023-09-12T00:36:23.814Z,,0,,,NaN,,,,,,false,,,,104974.69999980927,104974.5,,104974.2999997139,,104981.931,8,400,,,
break_continue,html.Screen,4_0_2,2023-09-12T00:36:23.814Z,,0,,,NaN,,,,,,false,,,,104975,104974.90000009537,,104974.7999997139,,104981.931,8,400,,,
sequence,flow.Sequence,4_0,2023-09-12T00:36:23.814Z,,0,,,5186.415000095367,completion,,,,,false,,,,104975.09999990463,104974.90000009537,99771.817,99782.5,99788.485,104981.931,8,400,,,
trial,html.Screen,4_1_0,2023-09-12T00:36:29.160Z,,0,1,,5338.569000000003,response,ISIC_0030829.JPG,5,ISIC_0000423.JPG,ISIC_0030829.JPG,false,1,keypress(m),500,110320.59999990463,110320.5,104965.303,104975.09999990463,104981.931,110325.741,8,400,2,,ISIC_0000423.JPG
break,html.Screen,4_1_1,2023-09-12T00:36:29.161Z,,0,,,NaN,,,,,,false,,,,110321.19999980927,110321,,110320.7999997139,,110325.741,8,400,,,
break_continue,html.Screen,4_1_2,2023-09-12T00:36:29.161Z,,0,,,NaN,,,,,,false,,,,110321.5,110321.40000009537,,110321.2999997139,,110325.741,8,400,,,
sequence,flow.Sequence,4_1,2023-09-12T00:36:29.161Z,,0,,,5339.469000095371,completion,,,,,false,,,,110321.5,110321.40000009537,104965.303,104975.09999990463,104981.931,110325.741,8,400,,,
trial,html.Screen,4_2_0,2023-09-12T00:36:34.237Z,,0,1,,5071.7590000000055,response,ISIC_0076742.JPG,5,ISIC_3696488.JPG,ISIC_3696488.JPG,false,0,keypress(z),500,115397.7999997139,115397.5,110308.925,110321.59999990463,110325.741,115402.221,8,400,3,,ISIC_0076742.JPG
break,html.Screen,4_2_1,2023-09-12T00:36:34.239Z,,0,,,NaN,,,,,,false,,,,115399.5,115399.09999990463,,115398.2999997139,,115402.221,8,400,,,
break_continue,html.Screen,4_2_2,2023-09-12T00:36:34.240Z,,0,,,NaN,,,,,,false,,,,115400.40000009537,115400,,115399.69999980927,,115402.221,8,400,,,
sequence,flow.Sequence,4_2,2023-09-12T00:36:34.240Z,,0,,,5074.2590000000055,completion,,,,,false,,,,115400.69999980927,115400,110308.925,110321.59999990463,110325.741,115402.221,8,400,,,
trial,html.Screen,4_3_0,2023-09-12T00:36:38.706Z,,0,1,,4464.778999999995,response,ISIC_0031356.JPG,5,ISIC_0064113.JPG,ISIC_0064113.JPG,false,0,keypress(z),500,119867.09999990463,119867,115385.472,115400.90000009537,115402.221,119877.614,8,400,4,,ISIC_0031356.JPG
break,html.Screen,4_3_1,2023-09-12T00:36:38.707Z,,0,,,NaN,,,,,,false,,,,119867.59999990463,119867.40000009537,,119867.19999980927,,119877.614,8,400,,,
break_continue,html.Screen,4_3_2,2023-09-12T00:36:38.707Z,,0,,,NaN,,,,,,false,,,,119868,119867.90000009537,,119867.69999980927,,119877.614,8,400,,,
sequence,flow.Sequence,4_3,2023-09-12T00:36:38.707Z,,0,,,4465.679000095362,completion,,,,,false,,,,119868,119867.90000009537,115385.472,115400.69999980927,115402.221,119877.614,8,400,,,
trial,html.Screen,4_4_0,2023-09-12T00:36:43.525Z,,0,1,,4808.385999999999,response,ISIC_0024865.JPG,4,ISIC_0061371.JPG,ISIC_0061371.JPG,false,0,keypress(z),500,124686.09999990463,124686,119860.905,119868.09999990463,119877.614,124686.935,8,400,5,,ISIC_0024865.JPG
break,html.Screen,4_4_1,2023-09-12T00:36:43.526Z,,0,,,NaN,,,,,,false,,,,124686.59999990463,124686.40000009537,,124686.09999990463,,124686.935,8,400,,,
break_continue,html.Screen,4_4_2,2023-09-12T00:36:43.526Z,,0,,,NaN,,,,,,false,,,,124686.69999980927,124686.69999980927,,124686.59999990463,,124686.935,8,400,,,
sequence,flow.Sequence,4_4,2023-09-12T00:36:43.526Z,,0,,,4809.085999809264,completion,,,,,false,,,,124686.7999997139,124686.69999980927,119860.905,119868.09999990463,119877.614,124686.935,8,400,,,
trial,html.Screen,4_5_0,2023-09-12T00:36:47.977Z,,0,1,,4450.2649998092675,response,ISIC_8820668.JPG,4,ISIC_0027247.JPG,ISIC_8820668.JPG,false,1,keypress(m),500,129137.40000009537,129137.19999980927,124670.316,124686.90000009537,124686.935,129145.787,8,400,6,,ISIC_0027247.JPG
break,html.Screen,4_5_1,2023-09-12T00:36:47.978Z,,0,,,NaN,,,,,,false,,,,129138.40000009537,129138.09999990463,,129137.59999990463,,129145.787,8,400,,,
break_continue,html.Screen,4_5_2,2023-09-12T00:36:47.978Z,,0,,,NaN,,,,,,false,,,,129138.59999990463,129138.5,,129138.40000009537,,129145.787,8,400,,,
sequence,flow.Sequence,4_5,2023-09-12T00:36:47.978Z,,0,,,4451.565000000002,completion,,,,,false,,,,129138.69999980927,129138.5,124670.316,124686.7999997139,124686.935,129145.787,8,400,,,
trial,html.Screen,4_6_0,2023-09-12T00:36:53.148Z,,0,1,,5162.512999713901,response,ISIC_0024792.JPG,6,ISIC_0068580.JPG,ISIC_0024792.JPG,false,1,keypress(m),500,134308.40000009537,134308.2999997139,129129.042,129138.69999980927,129145.787,134322.388,8,400,7,,ISIC_0068580.JPG
break,html.Screen,4_6_1,2023-09-12T00:36:53.148Z,,0,,,NaN,,,,,,false,,,,134309,134308.7999997139,,134308.5,,134322.388,8,400,,,
break_continue,html.Screen,4_6_2,2023-09-12T00:36:53.149Z,,0,,,NaN,,,,,,false,,,,134309.2999997139,134309.19999980927,,134309.09999990463,,134322.388,8,400,,,
sequence,flow.Sequence,4_6,2023-09-12T00:36:53.149Z,,0,,,5163.4129998092685,completion,,,,,false,,,,134309.2999997139,134309.19999980927,129129.042,129138.69999980927,129145.787,134322.388,8,400,,,
trial,html.Screen,4_7_0,2023-09-12T00:36:57.904Z,,0,1,,4741.211999904626,response,ISIC_3060145.JPG,7,ISIC_2178689.JPG,ISIC_3060145.JPG,false,1,keypress(m),500,139063.7999997139,139063.59999990463,134305.649,134309.5,134322.388,139081.722,8,400,8,,ISIC_2178689.JPG
break,html.Screen,4_7_1,2023-09-12T00:36:57.904Z,,0,,,NaN,,,,,,false,,,,139064.09999990463,139064.09999990463,,139063.90000009537,,139081.722,8,400,,,
break_continue,html.Screen,4_7_2,2023-09-12T00:36:57.904Z,,0,,,NaN,,,,,,false,,,,139064.40000009537,139064.2999997139,,139064.19999980927,,139081.722,8,400,,,
sequence,flow.Sequence,4_7,2023-09-12T00:36:57.904Z,,0,,,4741.911999713891,completion,,,,,false,,,,139064.40000009537,139064.2999997139,134305.649,134309.40000009537,134322.388,139081.722,8,400,,,
trial,html.Screen,4_8_0,2023-09-12T00:37:02.132Z,,0,1,,4210.577999713889,response,ISIC_0027666.JPG,4,ISIC_0013459.JPG,ISIC_0013459.JPG,false,0,keypress(z),500,143292.5,143292.2999997139,139064.912,139064.5,139081.722,143306.579,8,400,9,,ISIC_0027666.JPG
break,html.Screen,4_8_1,2023-09-12T00:37:02.133Z,,0,,,NaN,,,,,,false,,,,143293.19999980927,143293,,143292.69999980927,,143306.579,8,400,,,
break_continue,html.Screen,4_8_2,2023-09-12T00:37:02.133Z,,0,,,NaN,,,,,,false,,,,143293.5,143293.40000009537,,143293.2999997139,,143306.579,8,400,,,
sequence,flow.Sequence,4_8,2023-09-12T00:37:02.134Z,,0,,,4211.678000095359,completion,,,,,false,,,,143293.59999990463,143293.40000009537,139064.912,139064.40000009537,139081.722,143306.579,8,400,,,
trial,html.Screen,4_9_0,2023-09-12T00:37:07.479Z,,0,1,,5332.620999809267,response,ISIC_0028883.JPG,5,ISIC_0061580.JPG,ISIC_0061580.JPG,false,0,keypress(z),500,148639.40000009537,148639.19999980927,143289.819,143293.69999980927,143306.579,148650.222,8,400,10,,ISIC_0028883.JPG
break,html.Screen,4_9_1,2023-09-12T00:37:07.480Z,,0,,,NaN,,,,,,false,,,,148639.7999997139,148639.69999980927,,148639.40000009537,,148650.222,8,400,,,
break_continue,html.Screen,4_9_2,2023-09-12T00:37:07.480Z,,0,,,NaN,,,,,,false,,,,148640.09999990463,148640.09999990463,,148640,,148650.222,8,400,,,
sequence,flow.Sequence,4_9,2023-09-12T00:37:07.480Z,,0,,,5333.520999904635,completion,,,,,false,,,,148640.19999980927,148640.09999990463,143289.819,143293.59999990463,143306.579,148650.222,8,400,,,
trial,html.Screen,4_10_0,2023-09-12T00:37:13.690Z,,0,1,,6199.277999999991,response,ISIC_0217267.JPG,5,ISIC_0009879.JPG,ISIC_0009879.JPG,false,0,keypress(z),500,154849.69999980927,154849.5,148633.565,148640.2999997139,148650.222,154862.387,8,400,11,,ISIC_0217267.JPG
break,html.Screen,4_10_1,2023-09-12T00:37:13.690Z,,0,,,NaN,,,,,,false,,,,154850.5,154850.19999980927,,154849.7999997139,,154862.387,8,400,,,
break_continue,html.Screen,4_10_2,2023-09-12T00:37:13.691Z,,0,,,NaN,,,,,,false,,,,154850.7999997139,154850.69999980927,,154850.59999990463,,154862.387,8,400,,,
sequence,flow.Sequence,4_10,2023-09-12T00:37:13.691Z,,0,,,6200.477999809256,completion,,,,,false,,,,154850.7999997139,154850.69999980927,148633.565,148640.19999980927,148650.222,154862.387,8,400,,,
trial,html.Screen,4_11_0,2023-09-12T00:37:19.828Z,,0,1,,6125.5130000953795,response,ISIC_3571523.JPG,5,ISIC_1911193.JPG,ISIC_3571523.JPG,false,1,keypress(m),500,160987.90000009537,160987.90000009537,154845.714,154850.90000009537,154862.387,160990.923,8,400,12,,ISIC_1911193.JPG
break,html.Screen,4_11_1,2023-09-12T00:37:19.828Z,,0,,,NaN,,,,,,false,,,,160988.5,160988.40000009537,,160988.09999990463,,160990.923,8,400,,,
break_continue,html.Screen,4_11_2,2023-09-12T00:37:19.829Z,,0,,,NaN,,,,,,false,,,,160988.7999997139,160988.69999980927,,160988.59999990463,,160990.923,8,400,,,
sequence,flow.Sequence,4_11,2023-09-12T00:37:19.829Z,,0,,,6126.312999809277,completion,,,,,false,,,,160988.90000009537,160988.69999980927,154845.714,154850.90000009537,154862.387,160990.923,8,400,,,
trial,html.Screen,4_12_0,2023-09-12T00:37:26.214Z,,0,1,,6383.176999904623,response,ISIC_0064874.JPG,5,ISIC_7109582.JPG,ISIC_7109582.JPG,false,0,keypress(z),500,167374.19999980927,167374.09999990463,160974.19,160989,160990.923,167386.807,8,400,13,,ISIC_0064874.JPG
break,html.Screen,4_12_1,2023-09-12T00:37:26.215Z,,0,,,NaN,,,,,,false,,,,167374.59999990463,167374.5,,167374.2999997139,,167386.807,8,400,,,
break_continue,html.Screen,4_12_2,2023-09-12T00:37:26.215Z,,0,,,NaN,,,,,,false,,,,167374.7999997139,167374.69999980927,,167374.59999990463,,167386.807,8,400,,,
sequence,flow.Sequence,4_12,2023-09-12T00:37:26.215Z,,0,,,6383.776999809255,completion,,,,,false,,,,167374.7999997139,167374.69999980927,160974.19,160989,160990.923,167386.807,8,400,,,
trial,html.Screen,4_13_0,2023-09-12T00:37:31.531Z,,0,1,,5304.392999809264,response,ISIC_0069851.JPG,5,ISIC_0032192.JPG,ISIC_0032192.JPG,false,0,keypress(z),500,172691.2999997139,172691.19999980927,167370.188,167374.7999997139,167386.807,172697.026,8,400,14,,ISIC_0069851.JPG
break,html.Screen,4_13_1,2023-09-12T00:37:31.532Z,,0,,,NaN,,,,,,false,,,,172691.90000009537,172691.69999980927,,172691.5,,172697.026,8,400,,,
break_continue,html.Screen,4_13_2,2023-09-12T00:37:31.532Z,,0,,,NaN,,,,,,false,,,,172692.2999997139,172692.09999990463,,172692,,172697.026,8,400,,,
sequence,flow.Sequence,4_13,2023-09-12T00:37:31.532Z,,0,,,5305.292999904632,completion,,,,,false,,,,172692.40000009537,172692.09999990463,167370.188,167374.7999997139,167386.807,172697.026,8,400,,,
trial,html.Screen,4_14_0,2023-09-12T00:37:36.946Z,,0,1,,5408.374000095355,response,ISIC_3292151.JPG,4,ISIC_0082348.JPG,ISIC_0082348.JPG,false,0,keypress(z),500,178105.5,178105.40000009537,172680.437,172692.5,172697.026,178107.565,8,400,15,,ISIC_3292151.JPG
break,html.Screen,4_14_1,2023-09-12T00:37:36.946Z,,0,,,NaN,,,,,,false,,,,178106,178105.90000009537,,178105.69999980927,,178107.565,8,400,,,
break_continue,html.Screen,4_14_2,2023-09-12T00:37:36.946Z,,0,,,NaN,,,,,,false,,,,178106.19999980927,178106.09999990463,,178106.09999990463,,178107.565,8,400,,,
sequence,flow.Sequence,4_14,2023-09-12T00:37:36.946Z,,0,,,5409.07399990462,completion,,,,,false,,,,178106.19999980927,178106.09999990463,172680.437,172692.40000009537,172697.026,178107.565,8,400,,,
trial,html.Screen,4_15_0,2023-09-12T00:37:42.867Z,,0,1,,5919.634999809263,response,ISIC_0053469.JPG,5,ISIC_2299862.JPG,ISIC_0053469.JPG,false,1,keypress(m),500,184027.40000009537,184027.19999980927,178090.897,178106.2999997139,178107.565,184035.772,8,400,16,,ISIC_2299862.JPG
break,html.Screen,4_15_1,2023-09-12T00:37:42.868Z,,0,,,NaN,,,,,,false,,,,184028,184027.90000009537,,184027.59999990463,,184035.772,8,400,,,
break_continue,html.Screen,4_15_2,2023-09-12T00:37:42.868Z,,0,,,NaN,,,,,,false,,,,184028.19999980927,184028.19999980927,,184028,,184035.772,8,400,,,
sequence,flow.Sequence,4_15,2023-09-12T00:37:42.868Z,,0,,,5920.634999809263,completion,,,,,false,,,,184028.19999980927,184028.19999980927,178090.897,178106.2999997139,178107.565,184035.772,8,400,,,
trial,html.Screen,4_16_0,2023-09-12T00:37:48.613Z,,0,1,,5737.5279997139005,response,ISIC_0010629.JPG,5,ISIC_0055608.JPG,ISIC_0055608.JPG,false,0,keypress(z),500,189773.40000009537,189773.2999997139,184019.085,184028.2999997139,184035.772,189780.29,8,400,17,,ISIC_0010629.JPG
break,html.Screen,4_16_1,2023-09-12T00:37:48.614Z,,0,,,NaN,,,,,,false,,,,189773.90000009537,189773.7999997139,,189773.5,,189780.29,8,400,,,
break_continue,html.Screen,4_16_2,2023-09-12T00:37:48.614Z,,0,,,NaN,,,,,,false,,,,189774.09999990463,189774.09999990463,,189773.90000009537,,189780.29,8,400,,,
sequence,flow.Sequence,4_16,2023-09-12T00:37:48.614Z,,0,,,5738.327999904635,completion,,,,,false,,,,189774.19999980927,189774.09999990463,184019.085,184028.2999997139,184035.772,189780.29,8,400,,,
trial,html.Screen,4_17_0,2023-09-12T00:37:54.743Z,,0,1,,6122.709999999992,response,ISIC_9713706.JPG,5,ISIC_5722914.JPG,ISIC_9713706.JPG,false,1,keypress(m),500,195903.09999990463,195903,189763.549,189774.19999980927,189780.29,195908.902,8,400,18,,ISIC_5722914.JPG
break,html.Screen,4_17_1,2023-09-12T00:37:54.744Z,,0,,,NaN,,,,,,false,,,,195903.5,195903.40000009537,,195903.19999980927,,195908.902,8,400,,,
break_continue,html.Screen,4_17_2,2023-09-12T00:37:54.744Z,,0,,,NaN,,,,,,false,,,,195903.69999980927,195903.69999980927,,195903.5,,195908.902,8,400,,,
sequence,flow.Sequence,4_17,2023-09-12T00:37:54.744Z,,0,,,6123.409999809257,completion,,,,,false,,,,195903.7999997139,195903.69999980927,189763.549,189774.19999980927,189780.29,195908.902,8,400,,,
trial,html.Screen,4_18_0,2023-09-12T00:38:00.249Z,,0,1,,5499.897999713896,response,ISIC_0025812.JPG,6,ISIC_0058224.JPG,ISIC_0058224.JPG,false,0,keypress(z),500,201409,201408.7999997139,195892.242,195903.7999997139,195908.902,201419.691,8,400,19,,ISIC_0025812.JPG
break,html.Screen,4_18_1,2023-09-12T00:38:00.250Z,,0,,,NaN,,,,,,false,,,,201409.59999990463,201409.2999997139,,201409.09999990463,,201419.691,8,400,,,
break_continue,html.Screen,4_18_2,2023-09-12T00:38:00.250Z,,0,,,NaN,,,,,,false,,,,201409.90000009537,201409.90000009537,,201409.69999980927,,201419.691,8,400,,,
sequence,flow.Sequence,4_18,2023-09-12T00:38:00.250Z,,0,,,5500.998000095366,completion,,,,,false,,,,201410,201409.90000009537,195892.242,195903.7999997139,195908.902,201419.691,8,400,,,
trial,html.Screen,4_19_0,2023-09-12T00:38:05.678Z,,0,1,,5417.408999904641,response,ISIC_0014092.JPG,6,ISIC_0010346.JPG,ISIC_0010346.JPG,false,0,keypress(z),500,206837.2999997139,206837.09999990463,201402.986,201410.09999990463,201419.691,206846.89,8,400,20,,ISIC_0014092.JPG
break,html.Screen,4_19_1,2023-09-12T00:38:05.678Z,,0,,,NaN,,,,,,false,,,,206838.09999990463,206837.90000009537,,206837.40000009537,,206846.89,8,400,,,
break_continue,html.Screen,4_19_2,2023-09-12T00:38:05.679Z,,0,,,NaN,,,,,,false,,,,206838.40000009537,206838.2999997139,,206838.09999990463,,206846.89,8,400,,,
sequence,flow.Sequence,4_19,2023-09-12T00:38:05.679Z,,0,,,5418.608999713906,completion,,,,,false,,,,206838.5,206838.2999997139,201402.986,201410,201419.691,206846.89,8,400,,,
trial,html.Screen,4_20_0,2023-09-12T00:38:12.180Z,,0,1,,6493.0100000953535,response,ISIC_0026930.JPG,4,ISIC_0010049.JPG,ISIC_0010049.JPG,false,0,keypress(z),500,213340,213339.90000009537,206830.102,206838.69999980927,206846.89,213342.82,8,400,21,,ISIC_0026930.JPG
break,html.Screen,4_20_1,2023-09-12T00:38:12.181Z,,0,,,NaN,,,,,,false,,,,213340.69999980927,213340.40000009537,,213340.09999990463,,213342.82,8,400,,,
break_continue,html.Screen,4_20_2,2023-09-12T00:38:12.181Z,,0,,,NaN,,,,,,false,,,,213341,213340.90000009537,,213340.69999980927,,213342.82,8,400,,,
sequence,flow.Sequence,4_20,2023-09-12T00:38:12.181Z,,0,,,6494.0100000953535,completion,,,,,false,,,,213341.09999990463,213340.90000009537,206830.102,206838.59999990463,206846.89,213342.82,8,400,,,
trial,html.Screen,4_21_0,2023-09-12T00:38:16.887Z,,0,1,,4703.779999904626,response,ISIC_2741857.JPG,5,ISIC_2272218.JPG,ISIC_2741857.JPG,false,1,keypress(m),500,218047,218046.59999990463,213326.074,213341.19999980927,213342.82,218052.034,8,400,22,,ISIC_2272218.JPG
break,html.Screen,4_21_1,2023-09-12T00:38:16.889Z,,0,,,NaN,,,,,,false,,,,218048.40000009537,218048,,218047.40000009537,,218052.034,8,400,,,
break_continue,html.Screen,4_21_2,2023-09-12T00:38:16.889Z,,0,,,NaN,,,,,,false,,,,218048.90000009537,218048.7999997139,,218048.59999990463,,218052.034,8,400,,,
sequence,flow.Sequence,4_21,2023-09-12T00:38:16.889Z,,0,,,4705.979999713891,completion,,,,,false,,,,218049.19999980927,218048.7999997139,213326.074,213341.19999980927,213342.82,218052.034,8,400,,,
trial,html.Screen,4_22_0,2023-09-12T00:38:22.497Z,,0,1,,5604.866000095353,response,ISIC_7662993.JPG,6,ISIC_0027514.JPG,ISIC_7662993.JPG,false,1,keypress(m),500,223657,223656.90000009537,218035.282,218049.40000009537,218052.034,223662.991,8,400,23,,ISIC_0027514.JPG
break,html.Screen,4_22_1,2023-09-12T00:38:22.498Z,,0,,,NaN,,,,,,false,,,,223657.5,223657.40000009537,,223657.09999990463,,223662.991,8,400,,,
break_continue,html.Screen,4_22_2,2023-09-12T00:38:22.498Z,,0,,,NaN,,,,,,false,,,,223657.59999990463,223657.5,,223657.5,,223662.991,8,400,,,
sequence,flow.Sequence,4_22,2023-09-12T00:38:22.498Z,,0,,,5605.465999999986,completion,,,,,false,,,,223657.59999990463,223657.5,218035.282,218049.40000009537,218052.034,223662.991,8,400,,,
trial,html.Screen,4_23_0,2023-09-12T00:38:28.547Z,,0,1,,6044.1089999046235,response,ISIC_2433965.JPG,6,ISIC_0029732.JPG,ISIC_0029732.JPG,false,0,keypress(z),500,229707.19999980927,229707.09999990463,223646.271,223657.69999980927,223662.991,229707.998,8,400,24,,ISIC_2433965.JPG
break,html.Screen,4_23_1,2023-09-12T00:38:28.548Z,,0,,,NaN,,,,,,false,,,,229707.69999980927,229707.5,,229707.2999997139,,229707.998,8,400,,,
break_continue,html.Screen,4_23_2,2023-09-12T00:38:28.548Z,,0,,,NaN,,,,,,false,,,,229708.09999990463,229708,,229707.7999997139,,229707.998,8,400,,,
sequence,flow.Sequence,4_23,2023-09-12T00:38:28.548Z,,0,,,6045.008999999991,completion,,,,,false,,,,229708.19999980927,229708,223646.271,223657.69999980927,223662.991,229707.998,8,400,,,
trial,html.Screen,4_24_0,2023-09-12T00:38:34.006Z,,0,1,,5457.902000095375,response,ISIC_0070888.JPG,6,ISIC_9122215.JPG,ISIC_0070888.JPG,false,1,keypress(m),500,235166,235165.90000009537,229691.415,229708.2999997139,229707.998,235168.607,8,400,25,,ISIC_9122215.JPG
break,html.Screen,4_24_1,2023-09-12T00:38:34.007Z,,0,,,NaN,,,,,,false,,,,235166.5,235166.2999997139,,235166.19999980927,,235168.607,8,400,,,
break_continue,html.Screen,4_24_2,2023-09-12T00:38:34.007Z,,0,,,NaN,,,,,,false,,,,235166.69999980927,235166.59999990463,,235166.5,,235168.607,8,400,,,
sequence,flow.Sequence,4_24,2023-09-12T00:38:34.007Z,,0,,,5458.60199990464,completion,,,,,false,,,,235166.69999980927,235166.59999990463,229691.415,229708.2999997139,229707.998,235168.607,8,400,,,
trial,html.Screen,4_25_0,2023-09-12T00:38:38.955Z,,0,1,,4945.9929999046435,response,ISIC_0024802.JPG,6,ISIC_1968421.JPG,ISIC_1968421.JPG,false,0,keypress(z),500,240114.7999997139,240114.59999990463,235152.01,235166.7999997139,235168.607,240128.305,8,400,26,,ISIC_0024802.JPG
break,html.Screen,4_25_1,2023-09-12T00:38:38.955Z,,0,,,NaN,,,,,,false,,,,240115.19999980927,240115.09999990463,,240114.90000009537,,240128.305,8,400,,,
break_continue,html.Screen,4_25_2,2023-09-12T00:38:38.956Z,,0,,,NaN,,,,,,false,,,,240115.40000009537,240115.2999997139,,240115.19999980927,,240128.305,8,400,,,
sequence,flow.Sequence,4_25,2023-09-12T00:38:38.956Z,,0,,,4946.692999713909,completion,,,,,false,,,,240115.40000009537,240115.2999997139,235152.01,235166.69999980927,235168.607,240128.305,8,400,,,
trial,html.Screen,4_26_0,2023-09-12T00:38:43.550Z,,0,1,,4581.095000095374,response,ISIC_1059525.JPG,6,ISIC_2500254.JPG,ISIC_2500254.JPG,false,0,keypress(z),500,244709.40000009537,244709.40000009537,240111.537,240115.5,240128.305,244720.541,8,400,27,,ISIC_1059525.JPG
break,html.Screen,4_26_1,2023-09-12T00:38:43.550Z,,0,,,NaN,,,,,,false,,,,244709.7999997139,244709.7999997139,,244709.59999990463,,244720.541,8,400,,,
break_continue,html.Screen,4_26_2,2023-09-12T00:38:43.550Z,,0,,,NaN,,,,,,false,,,,244710,244710,,244710,,244720.541,8,400,,,
sequence,flow.Sequence,4_26,2023-09-12T00:38:43.550Z,,0,,,4581.695000000007,completion,,,,,false,,,,244710.09999990463,244710,240111.537,240115.5,240128.305,244720.541,8,400,,,
trial,html.Screen,4_27_0,2023-09-12T00:38:49.729Z,,0,1,,6167.558999904635,response,ISIC_0054233.JPG,5,ISIC_3207651.JPG,ISIC_0054233.JPG,false,1,keypress(m),500,250888.19999980927,250888.09999990463,244703.825,244710.19999980927,244720.541,250899.311,8,400,28,,ISIC_3207651.JPG
break,html.Screen,4_27_1,2023-09-12T00:38:49.729Z,,0,,,NaN,,,,,,false,,,,250888.7999997139,250888.59999990463,,250888.40000009537,,250899.311,8,400,,,
break_continue,html.Screen,4_27_2,2023-09-12T00:38:49.729Z,,0,,,NaN,,,,,,false,,,,250889.09999990463,250889,,250888.90000009537,,250899.311,8,400,,,
sequence,flow.Sequence,4_27,2023-09-12T00:38:49.729Z,,0,,,6168.459000000003,completion,,,,,false,,,,250889.09999990463,250889,244703.825,244710.19999980927,244720.541,250899.311,8,400,,,
trial,html.Screen,4_28_0,2023-09-12T00:38:55.130Z,,0,1,,5390.388999809278,response,ISIC_0055361.JPG,4,ISIC_6523645.JPG,ISIC_0055361.JPG,false,1,keypress(m),500,256289.7999997139,256289.69999980927,250882.628,250889.19999980927,250899.311,256293.042,8,400,29,,ISIC_6523645.JPG
break,html.Screen,4_28_1,2023-09-12T00:38:55.131Z,,0,,,NaN,,,,,,false,,,,256290.40000009537,256290.19999980927,,256289.90000009537,,256293.042,8,400,,,
break_continue,html.Screen,4_28_2,2023-09-12T00:38:55.131Z,,0,,,NaN,,,,,,false,,,,256290.7999997139,256290.69999980927,,256290.59999990463,,256293.042,8,400,,,
sequence,flow.Sequence,4_28,2023-09-12T00:38:55.131Z,,0,,,5391.388999809278,completion,,,,,false,,,,256290.90000009537,256290.69999980927,250882.628,250889.09999990463,250899.311,256293.042,8,400,,,
trial,html.Screen,4_29_0,2023-09-12T00:39:01.104Z,,0,1,,5969.458000000013,response,ISIC_0056790.JPG,6,ISIC_0010777.JPG,ISIC_0010777.JPG,false,0,keypress(z),500,262263,262262.5,256276.443,256290.90000009537,256293.042,262271.337,8,400,30,,ISIC_0056790.JPG
break,html.Screen,4_29_1,2023-09-12T00:39:01.105Z,,0,,,NaN,,,,,,false,,,,262264.40000009537,262264,,262263.5,,262271.337,8,400,,,
break_continue,html.Screen,4_29_2,2023-09-12T00:39:01.106Z,,0,,,NaN,,,,,,false,,,,262264.90000009537,262264.90000009537,,262264.69999980927,,262271.337,8,400,,,
sequence,flow.Sequence,4_29,2023-09-12T00:39:01.106Z,,0,,,5971.858000095381,completion,,,,,false,,,,262265.19999980927,262264.90000009537,256276.443,256290.90000009537,256293.042,262271.337,8,400,,,
trial,html.Screen,4_30_0,2023-09-12T00:39:05.451Z,,0,1,,4338.862999809266,response,ISIC_5529924.JPG,4,ISIC_0055253.JPG,ISIC_0055253.JPG,false,0,keypress(z),500,266610.40000009537,266610.19999980927,262254.776,262265.40000009537,262271.337,266613.168,8,400,31,,ISIC_5529924.JPG
break,html.Screen,4_30_1,2023-09-12T00:39:05.452Z,,0,,,NaN,,,,,,false,,,,266611.09999990463,266610.90000009537,,266610.5,,266613.168,8,400,,,
break_continue,html.Screen,4_30_2,2023-09-12T00:39:05.452Z,,0,,,NaN,,,,,,false,,,,266611.5,266611.40000009537,,266611.2999997139,,266613.168,8,400,,,
sequence,flow.Sequence,4_30,2023-09-12T00:39:05.452Z,,0,,,4340.063000095368,completion,,,,,false,,,,266611.59999990463,266611.40000009537,262254.776,262265.2999997139,262271.337,266613.168,8,400,,,
trial,html.Screen,4_31_0,2023-09-12T00:39:10.735Z,,0,1,,5280.631999713893,response,ISIC_4116224.JPG,5,ISIC_0031303.JPG,ISIC_0031303.JPG,false,0,keypress(z),500,271894,271893.7999997139,266596.464,266611.7999997139,266613.168,271906.847,8,400,32,,ISIC_4116224.JPG
break,html.Screen,4_31_1,2023-09-12T00:39:10.735Z,,0,,,NaN,,,,,,false,,,,271894.40000009537,271894.40000009537,,271894.09999990463,,271906.847,8,400,,,
break_continue,html.Screen,4_31_2,2023-09-12T00:39:10.735Z,,0,,,NaN,,,,,,false,,,,271894.69999980927,271894.59999990463,,271894.5,,271906.847,8,400,,,
sequence,flow.Sequence,4_31,2023-09-12T00:39:10.735Z,,0,,,5281.431999904627,completion,,,,,false,,,,271894.69999980927,271894.59999990463,266596.464,266611.69999980927,266613.168,271906.847,8,400,,,
trial,html.Screen,4_32_0,2023-09-12T00:39:15.704Z,,0,1,,4956.352999809256,response,ISIC_0013565.JPG,5,ISIC_6676647.JPG,ISIC_0013565.JPG,false,1,keypress(m),500,276863.40000009537,276863.19999980927,271890.169,271894.7999997139,271906.847,276866.4,8,400,33,,ISIC_6676647.JPG
break,html.Screen,4_32_1,2023-09-12T00:39:15.704Z,,0,,,NaN,,,,,,false,,,,276863.90000009537,276863.69999980927,,276863.5,,276866.4,8,400,,,
break_continue,html.Screen,4_32_2,2023-09-12T00:39:15.705Z,,0,,,NaN,,,,,,false,,,,276864.40000009537,276864.2999997139,,276864.09999990463,,276866.4,8,400,,,
sequence,flow.Sequence,4_32,2023-09-12T00:39:15.705Z,,0,,,4957.452999713889,completion,,,,,false,,,,276864.40000009537,276864.2999997139,271890.169,271894.7999997139,271906.847,276866.4,8,400,,,
trial,html.Screen,4_33_0,2023-09-12T00:39:20.706Z,,0,1,,4998.500000095344,response,ISIC_9555580.JPG,4,ISIC_0034187.JPG,ISIC_0034187.JPG,false,0,keypress(z),500,281865.09999990463,281864.90000009537,276849.902,276864.59999990463,276866.4,281892.884,8,400,34,,ISIC_9555580.JPG
break,html.Screen,4_33_1,2023-09-12T00:39:20.706Z,,0,,,NaN,,,,,,false,,,,281865.69999980927,281865.5,,281865.2999997139,,281892.884,8,400,,,
break_continue,html.Screen,4_33_2,2023-09-12T00:39:20.706Z,,0,,,NaN,,,,,,false,,,,281865.90000009537,281865.7999997139,,281865.69999980927,,281892.884,8,400,,,
sequence,flow.Sequence,4_33,2023-09-12T00:39:20.707Z,,0,,,4999.399999713874,completion,,,,,false,,,,281866,281865.7999997139,276849.902,276864.59999990463,276866.4,281892.884,8,400,,,
trial,html.Screen,4_34_0,2023-09-12T00:39:25.637Z,,0,1,,4903.2159999046125,response,ISIC_0028723.JPG,6,ISIC_0024271.JPG,ISIC_0024271.JPG,false,0,keypress(z),500,286796.19999980927,286796.09999990463,281876.218,281866,281892.884,286819.131,8,400,35,,ISIC_0028723.JPG
break,html.Screen,4_34_1,2023-09-12T00:39:25.637Z,,0,,,NaN,,,,,,false,,,,286796.69999980927,286796.59999990463,,286796.40000009537,,286819.131,8,400,,,
break_continue,html.Screen,4_34_2,2023-09-12T00:39:25.638Z,,0,,,NaN,,,,,,false,,,,286797,286796.90000009537,,286796.7999997139,,286819.131,8,400,,,
sequence,flow.Sequence,4_34,2023-09-12T00:39:25.638Z,,0,,,4904.016000095347,completion,,,,,false,,,,286797.09999990463,286796.90000009537,281876.218,281866,281892.884,286819.131,8,400,,,
trial,html.Screen,4_35_0,2023-09-12T00:39:31.438Z,,0,1,,5778.068999809271,response,ISIC_9088073.JPG,6,ISIC_7545432.JPG,ISIC_7545432.JPG,false,0,keypress(z),500,292597.40000009537,292597.19999980927,286802.439,286797.19999980927,286819.131,292613.889,8,400,36,,ISIC_9088073.JPG
break,html.Screen,4_35_1,2023-09-12T00:39:31.439Z,,0,,,NaN,,,,,,false,,,,292598,292597.7999997139,,292597.40000009537,,292613.889,8,400,,,
break_continue,html.Screen,4_35_2,2023-09-12T00:39:31.439Z,,0,,,NaN,,,,,,false,,,,292598.40000009537,292598.2999997139,,292598.09999990463,,292613.889,8,400,,,
sequence,flow.Sequence,4_35,2023-09-12T00:39:31.439Z,,0,,,5779.168999713904,completion,,,,,false,,,,292598.40000009537,292598.2999997139,286802.439,286797.19999980927,286819.131,292613.889,8,400,,,
trial,html.Screen,4_36_0,2023-09-12T00:39:36.532Z,,0,1,,5077.110999999975,response,ISIC_1495182.JPG,5,ISIC_2969968.JPG,ISIC_2969968.JPG,false,0,keypress(z),500,297691.19999980927,297691,292597.128,292598.5,292613.889,297707.035,8,400,37,,ISIC_1495182.JPG
break,html.Screen,4_36_1,2023-09-12T00:39:36.532Z,,0,,,NaN,,,,,,false,,,,297691.90000009537,297691.69999980927,,297691.40000009537,,297707.035,8,400,,,
break_continue,html.Screen,4_36_2,2023-09-12T00:39:36.533Z,,0,,,NaN,,,,,,false,,,,297692.2999997139,297692.19999980927,,297692,,297707.035,8,400,,,
sequence,flow.Sequence,4_36,2023-09-12T00:39:36.533Z,,0,,,5078.3109998092405,completion,,,,,false,,,,297692.40000009537,297692.19999980927,292597.128,292598.40000009537,292613.889,297707.035,8,400,,,
trial,html.Screen,4_37_0,2023-09-12T00:39:41.415Z,,0,1,,4867.365000095393,response,ISIC_0011695.JPG,4,ISIC_3021188.JPG,ISIC_0011695.JPG,false,1,keypress(m),500,302574.5,302574.40000009537,297690.292,297692.5,297707.035,302599.807,8,400,38,,ISIC_3021188.JPG
break,html.Screen,4_37_1,2023-09-12T00:39:41.416Z,,0,,,NaN,,,,,,false,,,,302575,302574.90000009537,,302574.69999980927,,302599.807,8,400,,,
break_continue,html.Screen,4_37_2,2023-09-12T00:39:41.416Z,,0,,,NaN,,,,,,false,,,,302575.2999997139,302575.2999997139,,302575.09999990463,,302599.807,8,400,,,
sequence,flow.Sequence,4_37,2023-09-12T00:39:41.416Z,,0,,,4868.264999713923,completion,,,,,false,,,,302575.5,302575.2999997139,297690.292,297692.5,297707.035,302599.807,8,400,,,
trial,html.Screen,4_38_0,2023-09-12T00:39:46.990Z,,0,1,,5549.492999713926,response,ISIC_4810142.JPG,5,ISIC_7074321.JPG,ISIC_4810142.JPG,false,1,keypress(m),500,308149.5,308149.2999997139,302583.156,302575.5,302599.807,308160.664,8,400,39,,ISIC_7074321.JPG
break,html.Screen,4_38_1,2023-09-12T00:39:46.991Z,,0,,,NaN,,,,,,false,,,,308150.19999980927,308149.90000009537,,308149.5,,308160.664,8,400,,,
break_continue,html.Screen,4_38_2,2023-09-12T00:39:46.991Z,,0,,,NaN,,,,,,false,,,,308150.5,308150.40000009537,,308150.2999997139,,308160.664,8,400,,,
sequence,flow.Sequence,4_38,2023-09-12T00:39:46.991Z,,0,,,5550.593000095396,completion,,,,,false,,,,308150.59999990463,308150.40000009537,302583.156,302575.5,302599.807,308160.664,8,400,,,
trial,html.Screen,4_39_0,2023-09-12T00:39:52.019Z,,0,1,,5017.736000095378,response,ISIC_0497390.JPG,5,ISIC_8893501.JPG,ISIC_0497390.JPG,false,1,keypress(m),500,313178.5,313178.40000009537,308143.974,308150.69999980927,308160.664,313187.273,8,400,40,,ISIC_8893501.JPG
break,html.Screen,4_39_1,2023-09-12T00:39:52.020Z,,0,,,NaN,,,,,,false,,,,313179,313178.90000009537,,313178.59999990463,,313187.273,8,400,,,
break_continue,html.Screen,4_39_2,2023-09-12T00:39:52.020Z,,0,,,NaN,,,,,,false,,,,313179.19999980927,313179.09999990463,,313179.09999990463,,313187.273,8,400,,,
sequence,flow.Sequence,4_39,2023-09-12T00:39:52.020Z,,0,,,5018.435999904643,completion,,,,,false,,,,313179.19999980927,313179.09999990463,308143.974,308150.69999980927,308160.664,313187.273,8,400,,,
trial,html.Screen,4_40_0,2023-09-12T00:39:57.707Z,,0,1,,5679.026999713911,response,ISIC_5807608.JPG,5,ISIC_0033938.JPG,ISIC_0033938.JPG,false,0,keypress(z),500,318866.40000009537,318866.2999997139,313170.626,313179.2999997139,313187.273,318881.525,8,400,41,,ISIC_5807608.JPG
break,html.Screen,4_40_1,2023-09-12T00:39:57.708Z,,0,,,NaN,,,,,,false,,,,318867.09999990463,318866.90000009537,,318866.59999990463,,318881.525,8,400,,,
break_continue,html.Screen,4_40_2,2023-09-12T00:39:57.708Z,,0,,,NaN,,,,,,false,,,,318867.2999997139,318867.19999980927,,318867.09999990463,,318881.525,8,400,,,
sequence,flow.Sequence,4_40,2023-09-12T00:39:57.708Z,,0,,,5679.926999809279,completion,,,,,false,,,,318867.40000009537,318867.19999980927,313170.626,313179.2999997139,313187.273,318881.525,8,400,,,
trial,html.Screen,4_41_0,2023-09-12T00:40:02.705Z,,0,1,,4982.274999713874,response,ISIC_0025195.JPG,4,ISIC_0028215.JPG,ISIC_0025195.JPG,false,1,keypress(m),500,323864,323863.7999997139,318864.995,318867.40000009537,318881.525,323874.671,8,400,42,,ISIC_0028215.JPG
break,html.Screen,4_41_1,2023-09-12T00:40:02.706Z,,0,,,NaN,,,,,,false,,,,323864.7999997139,323864.59999990463,,323864.19999980927,,323874.671,8,400,,,
break_continue,html.Screen,4_41_2,2023-09-12T00:40:02.706Z,,0,,,NaN,,,,,,false,,,,323865.09999990463,323865.09999990463,,323865,,323874.671,8,400,,,
sequence,flow.Sequence,4_41,2023-09-12T00:40:02.706Z,,0,,,4983.574999904609,completion,,,,,false,,,,323865.19999980927,323865.09999990463,318864.995,318867.40000009537,318881.525,323874.671,8,400,,,
trial,html.Screen,4_42_0,2023-09-12T00:40:07.686Z,,0,1,,4969.729000095394,response,ISIC_2193761.JPG,5,ISIC_0032472.JPG,ISIC_0032472.JPG,false,0,keypress(z),500,328844.7999997139,328844.40000009537,323857.959,323865.19999980927,323874.671,328867.68,8,400,43,,ISIC_2193761.JPG
break,html.Screen,4_42_1,2023-09-12T00:40:07.687Z,,0,,,NaN,,,,,,false,,,,328846.09999990463,328845.7999997139,,328845.19999980927,,328867.68,8,400,,,
break_continue,html.Screen,4_42_2,2023-09-12T00:40:07.688Z,,0,,,NaN,,,,,,false,,,,328846.69999980927,328846.5,,328846.2999997139,,328867.68,8,400,,,
sequence,flow.Sequence,4_42,2023-09-12T00:40:07.688Z,,0,,,4971.829000000027,completion,,,,,false,,,,328846.90000009537,328846.5,323857.959,323865.19999980927,323874.671,328867.68,8,400,,,
trial,html.Screen,4_43_0,2023-09-12T00:40:12.684Z,,0,1,,4975.019999809272,response,ISIC_0645454.JPG,5,ISIC_8887039.JPG,ISIC_0645454.JPG,false,1,keypress(m),500,333842.90000009537,333842.69999980927,328850.955,328847.09999990463,328867.68,333860.673,8,400,44,,ISIC_8887039.JPG
break,html.Screen,4_43_1,2023-09-12T00:40:12.684Z,,0,,,NaN,,,,,,false,,,,333843.2999997139,333843.19999980927,,333842.90000009537,,333860.673,8,400,,,
break_continue,html.Screen,4_43_2,2023-09-12T00:40:12.684Z,,0,,,NaN,,,,,,false,,,,333843.5,333843.40000009537,,333843.2999997139,,333860.673,8,400,,,
sequence,flow.Sequence,4_43,2023-09-12T00:40:12.684Z,,0,,,4975.720000095374,completion,,,,,false,,,,333843.5,333843.40000009537,328850.955,328847,328867.68,333860.673,8,400,,,
trial,html.Screen,4_44_0,2023-09-12T00:40:18.190Z,,0,1,,5488.526999809255,response,ISIC_0030845.JPG,5,ISIC_0055361.JPG,ISIC_0055361.JPG,false,0,keypress(z),500,339349.2999997139,339349.19999980927,333843.954,333843.59999990463,333860.673,339354.754,8,400,45,,ISIC_0030845.JPG
break,html.Screen,4_44_1,2023-09-12T00:40:18.191Z,,0,,,NaN,,,,,,false,,,,339350.09999990463,339349.90000009537,,339349.40000009537,,339354.754,8,400,,,
break_continue,html.Screen,4_44_2,2023-09-12T00:40:18.192Z,,0,,,NaN,,,,,,false,,,,339350.69999980927,339350.5,,339350.40000009537,,339354.754,8,400,,,
sequence,flow.Sequence,4_44,2023-09-12T00:40:18.192Z,,0,,,5489.82699999999,completion,,,,,false,,,,339350.7999997139,339350.5,333843.954,333843.5,333860.673,339354.754,8,400,,,
trial,html.Screen,4_45_0,2023-09-12T00:40:23.570Z,,0,1,,5374.44599980925,response,ISIC_0000763.JPG,6,ISIC_0032716.JPG,ISIC_0032716.JPG,false,0,keypress(z),500,344729.2999997139,344729.19999980927,339337.983,339350.90000009537,339354.754,344731.856,8,400,46,,ISIC_0000763.JPG
break,html.Screen,4_45_1,2023-09-12T00:40:23.571Z,,0,,,NaN,,,,,,false,,,,344730,344729.59999990463,,344729.40000009537,,344731.856,8,400,,,
break_continue,html.Screen,4_45_2,2023-09-12T00:40:23.571Z,,0,,,NaN,,,,,,false,,,,344730.2999997139,344730.19999980927,,344730.09999990463,,344731.856,8,400,,,
sequence,flow.Sequence,4_45,2023-09-12T00:40:23.571Z,,0,,,5375.44599980925,completion,,,,,false,,,,344730.2999997139,344730.19999980927,339337.983,339350.90000009537,339354.754,344731.856,8,400,,,
trial,html.Screen,4_46_0,2023-09-12T00:40:28.772Z,,0,1,,5199.443999713869,response,ISIC_0061751.JPG,5,ISIC_2729109.JPG,ISIC_0061751.JPG,false,1,keypress(m),500,349931.5,349931.2999997139,344715.236,344730.40000009537,344731.856,349941.976,8,400,47,,ISIC_2729109.JPG
break,html.Screen,4_46_1,2023-09-12T00:40:28.773Z,,0,,,NaN,,,,,,false,,,,349932,349931.90000009537,,349931.5,,349941.976,8,400,,,
break_continue,html.Screen,4_46_2,2023-09-12T00:40:28.773Z,,0,,,NaN,,,,,,false,,,,349932.2999997139,349932.09999990463,,349932.09999990463,,349941.976,8,400,,,
sequence,flow.Sequence,4_46,2023-09-12T00:40:28.773Z,,0,,,5200.243999904604,completion,,,,,false,,,,349932.5,349932.09999990463,344715.236,344730.40000009537,344731.856,349941.976,8,400,,,
trial,html.Screen,4_47_0,2023-09-12T00:40:33.047Z,,0,1,,4264.023999999976,response,ISIC_0033365.JPG,5,ISIC_0059904.JPG,ISIC_0059904.JPG,false,0,keypress(z),500,354206.09999990463,354206,349925.275,349932.5,349941.976,354216.996,8,400,48,,ISIC_0033365.JPG
break,html.Screen,4_47_1,2023-09-12T00:40:33.048Z,,0,,,NaN,,,,,,false,,,,354206.69999980927,354206.5,,354206.19999980927,,354216.996,8,400,,,
break_continue,html.Screen,4_47_2,2023-09-12T00:40:33.048Z,,0,,,NaN,,,,,,false,,,,354207,354206.90000009537,,354206.7999997139,,354216.996,8,400,,,
sequence,flow.Sequence,4_47,2023-09-12T00:40:33.048Z,,0,,,4264.924000095343,completion,,,,,false,,,,354207.09999990463,354206.90000009537,349925.275,349932.5,349941.976,354216.996,8,400,,,
trial,html.Screen,4_48_0,2023-09-12T00:40:38.619Z,,0,1,,5560.603999904648,response,ISIC_0011520.JPG,5,ISIC_2365588.JPG,ISIC_0011520.JPG,false,1,keypress(m),500,359777.7999997139,359777.59999990463,354200.399,354207.19999980927,354216.996,359811.147,8,400,49,,ISIC_2365588.JPG
break,html.Screen,4_48_1,2023-09-12T00:40:38.619Z,,0,,,NaN,,,,,,false,,,,359778.40000009537,359778.2999997139,,359777.90000009537,,359811.147,8,400,,,
break_continue,html.Screen,4_48_2,2023-09-12T00:40:38.620Z,,0,,,NaN,,,,,,false,,,,359778.59999990463,359778.5,,359778.5,,359811.147,8,400,,,
sequence,flow.Sequence,4_48,2023-09-12T00:40:38.620Z,,0,,,5561.504000000015,completion,,,,,false,,,,359778.69999980927,359778.5,354200.399,354207.19999980927,354216.996,359811.147,8,400,,,
trial,html.Screen,4_49_0,2023-09-12T00:40:45.101Z,,0,1,,6448.6529997139005,response,ISIC_9574101.JPG,5,ISIC_0054523.JPG,ISIC_0054523.JPG,false,0,keypress(z),500,366259.90000009537,366259.7999997139,359794.486,359778.7999997139,359811.147,366273.831,8,400,50,,ISIC_9574101.JPG
break,html.Screen,4_49_1,2023-09-12T00:40:55.102Z,,0,,,10002.869000000006,timeout,,,,,false,,,,376261.2999997139,376260.129,366257.056,366260,366273.831,376276.7,8,400,,,
break_continue,html.Screen,4_49_2,2023-09-12T00:40:58.108Z,,0,,,2965.7999999999884,response,,,,,false,continue,keypress(Space),,379267.2999997139,379242.5,376260.129,376261.5,376276.7,379282.41,8,400,,,
sequence,flow.Sequence,4_49,2023-09-12T00:40:58.108Z,,0,,,19431.353000000003,completion,,,,,false,,,,379267.40000009537,379242.5,359794.486,359778.7999997139,359811.147,379282.41,8,400,,,
trial,html.Screen,4_50_0,2023-09-12T00:41:02.307Z,,0,2,,4183.490000095393,response,ISIC_0064472.JPG,5,ISIC_3880324.JPG,ISIC_3880324.JPG,false,0,keypress(z),500,383466,383465.90000009537,379265.702,379267.40000009537,379282.41,383473.854,8,400,1,,ISIC_0064472.JPG
break,html.Screen,4_50_1,2023-09-12T00:41:02.307Z,,0,,,NaN,,,,,,false,,,,383466.40000009537,383466.2999997139,,383466.09999990463,,383473.854,8,400,,,
break_continue,html.Screen,4_50_2,2023-09-12T00:41:02.307Z,,0,,,NaN,,,,,,false,,,,383466.59999990463,383466.5,,383466.40000009537,,383473.854,8,400,,,
sequence,flow.Sequence,4_50,2023-09-12T00:41:02.308Z,,0,,,4184.090000000026,completion,,,,,false,,,,383466.69999980927,383466.5,379265.702,379267.40000009537,379282.41,383473.854,8,400,,,
trial,html.Screen,4_51_0,2023-09-12T00:41:06.853Z,,0,2,,4538.445999713906,response,ISIC_0068975.JPG,6,ISIC_0009931.JPG,ISIC_0068975.JPG,false,1,keypress(m),500,388012.40000009537,388012.2999997139,383457.223,383466.7999997139,383473.854,388016.055,8,400,2,,ISIC_0009931.JPG
break,html.Screen,4_51_1,2023-09-12T00:41:06.854Z,,0,,,NaN,,,,,,false,,,,388012.90000009537,388012.69999980927,,388012.5,,388016.055,8,400,,,
break_continue,html.Screen,4_51_2,2023-09-12T00:41:06.854Z,,0,,,NaN,,,,,,false,,,,388013.09999990463,388013,,388013,,388016.055,8,400,,,
sequence,flow.Sequence,4_51,2023-09-12T00:41:06.854Z,,0,,,4539.146000000008,completion,,,,,false,,,,388013.19999980927,388013,383457.223,383466.69999980927,383473.854,388016.055,8,400,,,
trial,html.Screen,4_52_0,2023-09-12T00:41:11.144Z,,0,2,,4286.644999809272,response,ISIC_1472731.JPG,5,ISIC_4957216.JPG,ISIC_1472731.JPG,false,1,keypress(m),500,392302.90000009537,392302.69999980927,387999.448,388013.2999997139,388016.055,392307.718,8,400,3,,ISIC_4957216.JPG
break,html.Screen,4_52_1,2023-09-12T00:41:11.144Z,,0,,,NaN,,,,,,false,,,,392303.5,392303.2999997139,,392303.09999990463,,392307.718,8,400,,,
break_continue,html.Screen,4_52_2,2023-09-12T00:41:11.145Z,,0,,,NaN,,,,,,false,,,,392303.59999990463,392303.59999990463,,392303.5,,392307.718,8,400,,,
sequence,flow.Sequence,4_52,2023-09-12T00:41:11.145Z,,0,,,4287.54499990464,completion,,,,,false,,,,392303.7999997139,392303.59999990463,387999.448,388013.2999997139,388016.055,392307.718,8,400,,,
trial,html.Screen,4_53_0,2023-09-12T00:41:15.563Z,,0,2,,4413.7820000000065,response,ISIC_4524488.JPG,5,ISIC_6052860.JPG,ISIC_4524488.JPG,false,1,keypress(m),500,396721.69999980927,396721.5,392291.054,392303.90000009537,392307.718,396732.99,8,400,4,,ISIC_6052860.JPG
break,html.Screen,4_53_1,2023-09-12T00:41:15.563Z,,0,,,NaN,,,,,,false,,,,396722.19999980927,396722.09999990463,,396721.69999980927,,396732.99,8,400,,,
break_continue,html.Screen,4_53_2,2023-09-12T00:41:15.563Z,,0,,,NaN,,,,,,false,,,,396722.2999997139,396722.2999997139,,396722.2999997139,,396732.99,8,400,,,
sequence,flow.Sequence,4_53,2023-09-12T00:41:15.563Z,,0,,,4414.581999713904,completion,,,,,false,,,,396722.40000009537,396722.2999997139,392291.054,392303.90000009537,392307.718,396732.99,8,400,,,
trial,html.Screen,4_54_0,2023-09-12T00:41:19.933Z,,0,2,,4358.609999904642,response,ISIC_0552911.JPG,4,ISIC_0069933.JPG,ISIC_0069933.JPG,false,0,keypress(z),500,401091.7999997139,401091.59999990463,396716.488,396722.5,396732.99,401108.299,8,400,5,,ISIC_0552911.JPG
break,html.Screen,4_54_1,2023-09-12T00:41:19.934Z,,0,,,NaN,,,,,,false,,,,401092.69999980927,401092.5,,401092,,401108.299,8,400,,,
break_continue,html.Screen,4_54_2,2023-09-12T00:41:19.934Z,,0,,,NaN,,,,,,false,,,,401093,401092.90000009537,,401092.7999997139,,401108.299,8,400,,,
sequence,flow.Sequence,4_54,2023-09-12T00:41:19.934Z,,0,,,4359.910000095377,completion,,,,,false,,,,401093.09999990463,401092.90000009537,396716.488,396722.40000009537,396732.99,401108.299,8,400,,,
trial,html.Screen,4_55_0,2023-09-12T00:41:25.960Z,,0,2,,6010.601000095368,response,ISIC_3899323.JPG,4,ISIC_0011626.JPG,ISIC_0011626.JPG,false,0,keypress(z),500,407119.09999990463,407118.90000009537,401091.465,401093.19999980927,401108.299,407119.928,8,400,6,,ISIC_3899323.JPG
break,html.Screen,4_55_1,2023-09-12T00:41:25.961Z,,0,,,NaN,,,,,,false,,,,407119.7999997139,407119.5,,407119.19999980927,,407119.928,8,400,,,
break_continue,html.Screen,4_55_2,2023-09-12T00:41:25.961Z,,0,,,NaN,,,,,,false,,,,407120,407120,,407119.7999997139,,407119.928,8,400,,,
sequence,flow.Sequence,4_55,2023-09-12T00:41:25.961Z,,0,,,6011.701000000001,completion,,,,,false,,,,407120.19999980927,407120,401091.465,401093.19999980927,401108.299,407119.928,8,400,,,
trial,html.Screen,4_56_0,2023-09-12T00:41:30.817Z,,0,2,,4856.371999713883,response,ISIC_2424673.JPG,5,ISIC_0024313.JPG,ISIC_0024313.JPG,false,0,keypress(z),500,411976.40000009537,411976.2999997139,407103.177,407120.40000009537,407119.928,411979.395,8,400,7,,ISIC_2424673.JPG
break,html.Screen,4_56_1,2023-09-12T00:41:30.818Z,,0,,,NaN,,,,,,false,,,,411976.69999980927,411976.69999980927,,411976.5,,411979.395,8,400,,,
break_continue,html.Screen,4_56_2,2023-09-12T00:41:30.818Z,,0,,,NaN,,,,,,false,,,,411977,411976.90000009537,,411976.90000009537,,411979.395,8,400,,,
sequence,flow.Sequence,4_56,2023-09-12T00:41:30.818Z,,0,,,4856.972000095353,completion,,,,,false,,,,411977,411976.90000009537,407103.177,407120.40000009537,407119.928,411979.395,8,400,,,
trial,html.Screen,4_57_0,2023-09-12T00:41:35.801Z,,0,2,,4980.3049998092465,response,ISIC_0013817.JPG,5,ISIC_1871890.JPG,ISIC_0013817.JPG,false,1,keypress(m),500,416960,416959.69999980927,411962.736,411977,411979.395,416989.135,8,400,8,,ISIC_1871890.JPG
break,html.Screen,4_57_1,2023-09-12T00:41:35.802Z,,0,,,NaN,,,,,,false,,,,416961.5,416961.09999990463,,416960.5,,416989.135,8,400,,,
break_continue,html.Screen,4_57_2,2023-09-12T00:41:35.803Z,,0,,,NaN,,,,,,false,,,,416962.5,416962.19999980927,,416961.7999997139,,416989.135,8,400,,,
sequence,flow.Sequence,4_57,2023-09-12T00:41:35.804Z,,0,,,4982.8049998092465,completion,,,,,false,,,,416963,416962.19999980927,411962.736,411977,411979.395,416989.135,8,400,,,
trial,html.Screen,4_58_0,2023-09-12T00:41:41.394Z,,0,2,,5563.564999809256,response,ISIC_0028086.JPG,4,ISIC_7658276.JPG,ISIC_0028086.JPG,false,1,keypress(m),500,422552.69999980927,422552.69999980927,416972.455,416963.40000009537,416989.135,422566.713,8,400,9,,ISIC_7658276.JPG
break,html.Screen,4_58_1,2023-09-12T00:41:41.394Z,,0,,,NaN,,,,,,false,,,,422553.2999997139,422553.09999990463,,422552.90000009537,,422566.713,8,400,,,
break_continue,html.Screen,4_58_2,2023-09-12T00:41:41.395Z,,0,,,NaN,,,,,,false,,,,422553.59999990463,422553.5,,422553.40000009537,,422566.713,8,400,,,
sequence,flow.Sequence,4_58,2023-09-12T00:41:41.395Z,,0,,,5564.364999999991,completion,,,,,false,,,,422553.69999980927,422553.5,416972.455,416963.2999997139,416989.135,422566.713,8,400,,,
trial,html.Screen,4_59_0,2023-09-12T00:41:46.423Z,,0,2,,5015.386999904644,response,ISIC_7575957.JPG,6,ISIC_0033202.JPG,ISIC_0033202.JPG,false,0,keypress(z),500,427582.19999980927,427582.09999990463,422549.996,422553.7999997139,422566.713,427593.14,8,400,10,,ISIC_7575957.JPG
break,html.Screen,4_59_1,2023-09-12T00:41:46.424Z,,0,,,NaN,,,,,,false,,,,427582.69999980927,427582.59999990463,,427582.2999997139,,427593.14,8,400,,,
break_continue,html.Screen,4_59_2,2023-09-12T00:41:46.424Z,,0,,,NaN,,,,,,false,,,,427582.90000009537,427582.7999997139,,427582.69999980927,,427593.14,8,400,,,
sequence,flow.Sequence,4_59,2023-09-12T00:41:46.424Z,,0,,,5016.086999713909,completion,,,,,false,,,,427583,427582.7999997139,422549.996,422553.69999980927,422566.713,427593.14,8,400,,,
trial,html.Screen,4_60_0,2023-09-12T00:41:51.183Z,,0,2,,4749.159999713884,response,ISIC_0011810.JPG,5,ISIC_0011387.JPG,ISIC_0011387.JPG,false,0,keypress(z),500,432342.40000009537,432342.2999997139,427576.553,427583.09999990463,427593.14,432352.406,8,400,11,,ISIC_0011810.JPG
break,html.Screen,4_60_1,2023-09-12T00:41:51.184Z,,0,,,NaN,,,,,,false,,,,432343,432342.90000009537,,432342.5,,432352.406,8,400,,,
break_continue,html.Screen,4_60_2,2023-09-12T00:41:51.184Z,,0,,,NaN,,,,,,false,,,,432343.2999997139,432343.19999980927,,432343.09999990463,,432352.406,8,400,,,
sequence,flow.Sequence,4_60,2023-09-12T00:41:51.184Z,,0,,,4750.059999809251,completion,,,,,false,,,,432343.40000009537,432343.19999980927,427576.553,427583.09999990463,427593.14,432352.406,8,400,,,
trial,html.Screen,4_61_0,2023-09-12T00:41:55.610Z,,0,2,,4415.593999999983,response,ISIC_0014703.JPG,5,ISIC_3871225.JPG,ISIC_0014703.JPG,false,1,keypress(m),500,436768.19999980927,436768,432335.624,432343.5,432352.406,436777.587,8,400,12,,ISIC_3871225.JPG
break,html.Screen,4_61_1,2023-09-12T00:41:55.610Z,,0,,,NaN,,,,,,false,,,,436768.7999997139,436768.59999990463,,436768.40000009537,,436777.587,8,400,,,
break_continue,html.Screen,4_61_2,2023-09-12T00:41:55.610Z,,0,,,NaN,,,,,,false,,,,436769.09999990463,436769,,436768.90000009537,,436777.587,8,400,,,
sequence,flow.Sequence,4_61,2023-09-12T00:41:55.611Z,,0,,,4416.593999999983,completion,,,,,false,,,,436769.09999990463,436769,432335.624,432343.5,432352.406,436777.587,8,400,,,
trial,html.Screen,4_62_0,2023-09-12T00:41:59.892Z,,0,2,,4272.212999713898,response,ISIC_9433388.JPG,5,ISIC_0027130.JPG,ISIC_0027130.JPG,false,0,keypress(z),500,441050.19999980927,441049.7999997139,436760.987,436769.19999980927,436777.587,441052.701,8,400,13,,ISIC_9433388.JPG
break,html.Screen,4_62_1,2023-09-12T00:41:59.893Z,,0,,,NaN,,,,,,false,,,,441052,441051.2999997139,,441050.69999980927,,441052.701,8,400,,,
break_continue,html.Screen,4_62_2,2023-09-12T00:41:59.895Z,,0,,,NaN,,,,,,false,,,,441053.2999997139,441052.59999990463,,441052.19999980927,,441052.701,8,400,,,
sequence,flow.Sequence,4_62,2023-09-12T00:41:59.896Z,,0,,,4275.012999904633,completion,,,,,false,,,,441054.19999980927,441052.59999990463,436760.987,436769.19999980927,436777.587,441052.701,8,400,,,
trial,html.Screen,4_63_0,2023-09-12T00:42:05.809Z,,0,2,,5915.098999713897,response,ISIC_0027436.JPG,5,ISIC_0012681.JPG,ISIC_0027436.JPG,false,1,keypress(m),500,446967.90000009537,446967.7999997139,441035.985,441054.69999980927,441052.701,446980.809,8,400,14,,ISIC_0012681.JPG
break,html.Screen,4_63_1,2023-09-12T00:42:05.810Z,,0,,,NaN,,,,,,false,,,,446968.69999980927,446968.40000009537,,446968.09999990463,,446980.809,8,400,,,
break_continue,html.Screen,4_63_2,2023-09-12T00:42:05.810Z,,0,,,NaN,,,,,,false,,,,446968.90000009537,446968.90000009537,,446968.69999980927,,446980.809,8,400,,,
sequence,flow.Sequence,4_63,2023-09-12T00:42:05.810Z,,0,,,5916.1990000953665,completion,,,,,false,,,,446969,446968.90000009537,441035.985,441054.5,441052.701,446980.809,8,400,,,
trial,html.Screen,4_64_0,2023-09-12T00:42:11.044Z,,0,2,,5221.790999904624,response,ISIC_0339930.JPG,5,ISIC_0061158.JPG,ISIC_0061158.JPG,false,0,keypress(z),500,452202.69999980927,452202.59999990463,446964.279,446969.09999990463,446980.809,452207.636,8,400,15,,ISIC_0339930.JPG
break,html.Screen,4_64_1,2023-09-12T00:42:11.045Z,,0,,,NaN,,,,,,false,,,,452203.19999980927,452203,,452202.7999997139,,452207.636,8,400,,,
break_continue,html.Screen,4_64_2,2023-09-12T00:42:11.045Z,,0,,,NaN,,,,,,false,,,,452203.40000009537,452203.2999997139,,452203.2999997139,,452207.636,8,400,,,
sequence,flow.Sequence,4_64,2023-09-12T00:42:11.045Z,,0,,,5222.490999713889,completion,,,,,false,,,,452203.40000009537,452203.2999997139,446964.279,446969.09999990463,446980.809,452207.636,8,400,,,
trial,html.Screen,4_65_0,2023-09-12T00:42:15.386Z,,0,2,,4336.463999904634,response,ISIC_3496800.JPG,5,ISIC_4643298.JPG,ISIC_4643298.JPG,false,0,keypress(z),500,456544.40000009537,456544.09999990463,452190.94,452203.59999990463,452207.636,456549.398,8,400,16,,ISIC_3496800.JPG
break,html.Screen,4_65_1,2023-09-12T00:42:15.386Z,,0,,,NaN,,,,,,false,,,,456545,456544.90000009537,,456544.59999990463,,456549.398,8,400,,,
break_continue,html.Screen,4_65_2,2023-09-12T00:42:15.387Z,,0,,,NaN,,,,,,false,,,,456545.40000009537,456545.2999997139,,456545.09999990463,,456549.398,8,400,,,
sequence,flow.Sequence,4_65,2023-09-12T00:42:15.387Z,,0,,,4337.663999713899,completion,,,,,false,,,,456545.5,456545.2999997139,452190.94,452203.59999990463,452207.636,456549.398,8,400,,,
trial,html.Screen,4_66_0,2023-09-12T00:42:20.063Z,,0,2,,4671.6020000000135,response,ISIC_0033834.JPG,5,ISIC_8910589.JPG,ISIC_0033834.JPG,false,1,keypress(m),500,461221.09999990463,461221,456532.749,456545.59999990463,456549.398,461225.171,8,400,17,,ISIC_8910589.JPG
break,html.Screen,4_66_1,2023-09-12T00:42:20.063Z,,0,,,NaN,,,,,,false,,,,461221.7999997139,461221.59999990463,,461221.2999997139,,461225.171,8,400,,,
break_continue,html.Screen,4_66_2,2023-09-12T00:42:20.064Z,,0,,,NaN,,,,,,false,,,,461222.09999990463,461222,,461221.90000009537,,461225.171,8,400,,,
sequence,flow.Sequence,4_66,2023-09-12T00:42:20.064Z,,0,,,4672.6020000000135,completion,,,,,false,,,,461222.2999997139,461222,456532.749,456545.59999990463,456549.398,461225.171,8,400,,,
trial,html.Screen,4_67_0,2023-09-12T00:42:25.346Z,,0,2,,5278.92899990466,response,ISIC_0033569.JPG,5,ISIC_3816833.JPG,ISIC_0033569.JPG,false,1,keypress(m),500,466504.19999980927,466504.09999990463,461208.655,461222.2999997139,461225.171,466535.603,8,400,18,,ISIC_3816833.JPG
break,html.Screen,4_67_1,2023-09-12T00:42:25.346Z,,0,,,NaN,,,,,,false,,,,466504.69999980927,466504.59999990463,,466504.2999997139,,466535.603,8,400,,,
break_continue,html.Screen,4_67_2,2023-09-12T00:42:25.346Z,,0,,,NaN,,,,,,false,,,,466504.7999997139,466504.7999997139,,466504.69999980927,,466535.603,8,400,,,
sequence,flow.Sequence,4_67,2023-09-12T00:42:25.346Z,,0,,,5279.628999713925,completion,,,,,false,,,,466504.90000009537,466504.7999997139,461208.655,461222.2999997139,461225.171,466535.603,8,400,,,
trial,html.Screen,4_68_0,2023-09-12T00:42:30.420Z,,0,2,,5042.797000095365,response,ISIC_0069638.JPG,4,ISIC_2687641.JPG,ISIC_0069638.JPG,false,1,keypress(m),500,471578.5,471578.40000009537,466518.828,466504.90000009537,466535.603,471595.479,8,400,19,,ISIC_2687641.JPG
break,html.Screen,4_68_1,2023-09-12T00:42:30.421Z,,0,,,NaN,,,,,,false,,,,471579.19999980927,471579,,471578.59999990463,,471595.479,8,400,,,
break_continue,html.Screen,4_68_2,2023-09-12T00:42:30.421Z,,0,,,NaN,,,,,,false,,,,471579.40000009537,471579.2999997139,,471579.2999997139,,471595.479,8,400,,,
sequence,flow.Sequence,4_68,2023-09-12T00:42:30.421Z,,0,,,5043.696999713895,completion,,,,,false,,,,471579.5,471579.2999997139,466518.828,466504.90000009537,466535.603,471595.479,8,400,,,
trial,html.Screen,4_69_0,2023-09-12T00:42:37.559Z,,0,2,,7121.521000000008,response,ISIC_0031972.JPG,5,ISIC_0011744.JPG,ISIC_0011744.JPG,false,0,keypress(z),500,478717.09999990463,478717,471578.739,471579.5,471595.479,478725.914,8,400,20,,ISIC_0031972.JPG
break,html.Screen,4_69_1,2023-09-12T00:42:37.559Z,,0,,,NaN,,,,,,false,,,,478717.5,478717.5,,478717.19999980927,,478725.914,8,400,,,
break_continue,html.Screen,4_69_2,2023-09-12T00:42:37.559Z,,0,,,NaN,,,,,,false,,,,478717.7999997139,478717.69999980927,,478717.59999990463,,478725.914,8,400,,,
sequence,flow.Sequence,4_69,2023-09-12T00:42:37.559Z,,0,,,7122.220999809273,completion,,,,,false,,,,478717.7999997139,478717.69999980927,471578.739,471579.5,471595.479,478725.914,8,400,,,
trial,html.Screen,4_70_0,2023-09-12T00:42:41.965Z,,0,2,,4397.885999713908,response,ISIC_9837030.JPG,6,ISIC_3836576.JPG,ISIC_3836576.JPG,false,0,keypress(z),500,483123.90000009537,483123.7999997139,478709.311,478717.90000009537,478725.914,483134.586,8,400,21,,ISIC_9837030.JPG
break,html.Screen,4_70_1,2023-09-12T00:42:41.966Z,,0,,,NaN,,,,,,false,,,,483124.59999990463,483124.2999997139,,483124,,483134.586,8,400,,,
break_continue,html.Screen,4_70_2,2023-09-12T00:42:41.966Z,,0,,,NaN,,,,,,false,,,,483124.90000009537,483124.90000009537,,483124.69999980927,,483134.586,8,400,,,
sequence,flow.Sequence,4_70,2023-09-12T00:42:41.966Z,,0,,,4398.986000095378,completion,,,,,false,,,,483125,483124.90000009537,478709.311,478717.90000009537,478725.914,483134.586,8,400,,,
trial,html.Screen,4_71_0,2023-09-12T00:42:46.273Z,,0,2,,4296.41399999999,response,ISIC_0053659.JPG,5,ISIC_5231145.JPG,ISIC_0053659.JPG,false,1,keypress(m),500,487431.09999990463,487431,483117.901,483125,483134.586,487442.988,8,400,22,,ISIC_5231145.JPG
break,html.Screen,4_71_1,2023-09-12T00:42:46.273Z,,0,,,NaN,,,,,,false,,,,487431.5,487431.40000009537,,487431.19999980927,,487442.988,8,400,,,
break_continue,html.Screen,4_71_2,2023-09-12T00:42:46.273Z,,0,,,NaN,,,,,,false,,,,487431.90000009537,487431.69999980927,,487431.69999980927,,487442.988,8,400,,,
sequence,flow.Sequence,4_71,2023-09-12T00:42:46.273Z,,0,,,4297.113999809255,completion,,,,,false,,,,487431.90000009537,487431.69999980927,483117.901,483125,483134.586,487442.988,8,400,,,
trial,html.Screen,4_72_0,2023-09-12T00:42:51.207Z,,0,2,,4922.412000095355,response,ISIC_1479949.JPG,4,ISIC_0071576.JPG,ISIC_0071576.JPG,false,0,keypress(z),500,492365.5,492365.40000009537,487426.334,487432.09999990463,487442.988,492369.122,8,400,23,,ISIC_1479949.JPG
break,html.Screen,4_72_1,2023-09-12T00:42:51.207Z,,0,,,NaN,,,,,,false,,,,492365.90000009537,492365.7999997139,,492365.69999980927,,492369.122,8,400,,,
break_continue,html.Screen,4_72_2,2023-09-12T00:42:51.208Z,,0,,,NaN,,,,,,false,,,,492366.19999980927,492366.19999980927,,492366.09999990463,,492369.122,8,400,,,
sequence,flow.Sequence,4_72,2023-09-12T00:42:51.208Z,,0,,,4923.211999809253,completion,,,,,false,,,,492366.2999997139,492366.19999980927,487426.334,487432,487442.988,492369.122,8,400,,,
trial,html.Screen,4_73_0,2023-09-12T00:42:55.483Z,,0,2,,4271.7780000953935,response,ISIC_2535382.JPG,6,ISIC_0057218.JPG,ISIC_0057218.JPG,false,0,keypress(z),500,496641.09999990463,496640.90000009537,492352.534,492366.40000009537,492369.122,496644.106,8,400,24,,ISIC_2535382.JPG
break,html.Screen,4_73_1,2023-09-12T00:42:55.483Z,,0,,,NaN,,,,,,false,,,,496641.5,496641.5,,496641.19999980927,,496644.106,8,400,,,
break_continue,html.Screen,4_73_2,2023-09-12T00:42:55.483Z,,0,,,NaN,,,,,,false,,,,496641.7999997139,496641.7999997139,,496641.69999980927,,496644.106,8,400,,,
sequence,flow.Sequence,4_73,2023-09-12T00:42:55.483Z,,0,,,4272.677999713924,completion,,,,,false,,,,496641.90000009537,496641.7999997139,492352.534,492366.40000009537,492369.122,496644.106,8,400,,,
trial,html.Screen,4_74_0,2023-09-12T00:43:00.653Z,,0,2,,5167.794000095339,response,ISIC_0068798.JPG,5,ISIC_0031074.JPG,ISIC_0068798.JPG,false,1,keypress(m),500,501812,501811.90000009537,496627.503,496642,496644.106,501820.819,8,400,25,,ISIC_0031074.JPG
break,html.Screen,4_74_1,2023-09-12T00:43:00.654Z,,0,,,NaN,,,,,,false,,,,501812.40000009537,501812.19999980927,,501812.09999990463,,501820.819,8,400,,,
break_continue,html.Screen,4_74_2,2023-09-12T00:43:00.654Z,,0,,,NaN,,,,,,false,,,,501812.59999990463,501812.5,,501812.40000009537,,501820.819,8,400,,,
sequence,flow.Sequence,4_74,2023-09-12T00:43:00.654Z,,0,,,5168.393999999971,completion,,,,,false,,,,501812.69999980927,501812.5,496627.503,496642,496644.106,501820.819,8,400,,,
trial,html.Screen,4_75_0,2023-09-12T00:43:05.440Z,,0,2,,4777.58100009535,response,ISIC_5732201.JPG,4,ISIC_0063181.JPG,ISIC_0063181.JPG,false,0,keypress(z),500,506598.5,506598.40000009537,501804.141,501812.69999980927,501820.819,506630.227,8,400,26,,ISIC_5732201.JPG
break,html.Screen,4_75_1,2023-09-12T00:43:05.440Z,,0,,,NaN,,,,,,false,,,,506598.7999997139,506598.7999997139,,506598.59999990463,,506630.227,8,400,,,
break_continue,html.Screen,4_75_2,2023-09-12T00:43:05.441Z,,0,,,NaN,,,,,,false,,,,506599.09999990463,506599,,506599,,506630.227,8,400,,,
sequence,flow.Sequence,4_75,2023-09-12T00:43:05.441Z,,0,,,4778.180999999982,completion,,,,,false,,,,506599.09999990463,506599,501804.141,501812.69999980927,501820.819,506630.227,8,400,,,
trial,html.Screen,4_76_0,2023-09-12T00:43:10.802Z,,0,2,,5330.2729999999865,response,ISIC_8028631.JPG,5,ISIC_2598575.JPG,ISIC_2598575.JPG,false,0,keypress(z),500,511960.69999980927,511960.5,506613.795,506599.19999980927,506630.227,511974.101,8,400,27,,ISIC_8028631.JPG
break,html.Screen,4_76_1,2023-09-12T00:43:10.803Z,,0,,,NaN,,,,,,false,,,,511961.40000009537,511961.19999980927,,511960.90000009537,,511974.101,8,400,,,
break_continue,html.Screen,4_76_2,2023-09-12T00:43:10.803Z,,0,,,NaN,,,,,,false,,,,511961.69999980927,511961.5,,511961.40000009537,,511974.101,8,400,,,
sequence,flow.Sequence,4_76,2023-09-12T00:43:10.803Z,,0,,,5331.2729999999865,completion,,,,,false,,,,511961.7999997139,511961.5,506613.795,506599.09999990463,506630.227,511974.101,8,400,,,
trial,html.Screen,4_77_0,2023-09-12T00:43:15.800Z,,0,2,,4984.398999999976,response,ISIC_3947876.JPG,6,ISIC_0030889.JPG,ISIC_0030889.JPG,false,0,keypress(z),500,516958.59999990463,516958.5,511957.287,511961.90000009537,511974.101,516967.012,8,400,28,,ISIC_3947876.JPG
break,html.Screen,4_77_1,2023-09-12T00:43:15.801Z,,0,,,NaN,,,,,,false,,,,516959.09999990463,516958.90000009537,,516958.69999980927,,516967.012,8,400,,,
break_continue,html.Screen,4_77_2,2023-09-12T00:43:15.801Z,,0,,,NaN,,,,,,false,,,,516959.5,516959.40000009537,,516959.19999980927,,516967.012,8,400,,,
sequence,flow.Sequence,4_77,2023-09-12T00:43:15.801Z,,0,,,4985.299000095343,completion,,,,,false,,,,516959.59999990463,516959.40000009537,511957.287,511961.7999997139,511974.101,516967.012,8,400,,,
trial,html.Screen,4_78_0,2023-09-12T00:43:20.043Z,,0,2,,4234.28799971391,response,ISIC_0030963.JPG,5,ISIC_4926448.JPG,ISIC_4926448.JPG,false,0,keypress(z),500,521201.5,521201.2999997139,516950.276,516959.59999990463,516967.012,521208.597,8,400,29,,ISIC_0030963.JPG
break,html.Screen,4_78_1,2023-09-12T00:43:20.044Z,,0,,,NaN,,,,,,false,,,,521202.5,521202.19999980927,,521201.59999990463,,521208.597,8,400,,,
break_continue,html.Screen,4_78_2,2023-09-12T00:43:20.044Z,,0,,,NaN,,,,,,false,,,,521203,521202.90000009537,,521202.59999990463,,521208.597,8,400,,,
sequence,flow.Sequence,4_78,2023-09-12T00:43:20.045Z,,0,,,4235.8880000953795,completion,,,,,false,,,,521203.2999997139,521202.90000009537,516950.276,516959.59999990463,516967.012,521208.597,8,400,,,
trial,html.Screen,4_79_0,2023-09-12T00:43:25.486Z,,0,2,,5436.303000095359,response,ISIC_0011529.JPG,6,ISIC_0058132.JPG,ISIC_0011529.JPG,false,1,keypress(m),500,526645,526644.9000000954,521191.875,521203.40000009537,521208.597,526652.683,8,400,30,,ISIC_0058132.JPG
break,html.Screen,4_79_1,2023-09-12T00:43:25.487Z,,0,,,NaN,,,,,,false,,,,526645.5999999046,526645.2999997139,,526645.0999999046,,526652.683,8,400,,,
break_continue,html.Screen,4_79_2,2023-09-12T00:43:25.487Z,,0,,,NaN,,,,,,false,,,,526646,526645.9000000954,,526645.6999998093,,526652.683,8,400,,,
sequence,flow.Sequence,4_79,2023-09-12T00:43:25.488Z,,0,,,5437.303000095359,completion,,,,,false,,,,526646,526645.9000000954,521191.875,521203.2999997139,521208.597,526652.683,8,400,,,
trial,html.Screen,4_80_0,2023-09-12T00:43:30.149Z,,0,2,,4655.217000095407,response,ISIC_0056937.JPG,6,ISIC_0945844.JPG,ISIC_0056937.JPG,false,1,keypress(m),500,531308,531307.9000000954,526635.898,526646.0999999046,526652.683,531311.578,8,400,31,,ISIC_0945844.JPG
break,html.Screen,4_80_1,2023-09-12T00:43:30.150Z,,0,,,NaN,,,,,,false,,,,531308.6999998093,531308.4000000954,,531308.0999999046,,531311.578,8,400,,,
break_continue,html.Screen,4_80_2,2023-09-12T00:43:30.150Z,,0,,,NaN,,,,,,false,,,,531309,531309,,531308.7999997139,,531311.578,8,400,,,
sequence,flow.Sequence,4_80,2023-09-12T00:43:30.151Z,,0,,,4656.317000000039,completion,,,,,false,,,,531309.0999999046,531309,526635.898,526646.0999999046,526652.683,531311.578,8,400,,,
trial,html.Screen,4_81_0,2023-09-12T00:43:35.079Z,,0,2,,4926.121999809286,response,ISIC_0000026.JPG,4,ISIC_3747979.JPG,ISIC_0000026.JPG,false,1,keypress(m),500,536237.9000000954,536237.6999998093,531294.907,531309.1999998093,531311.578,536254.536,8,400,32,,ISIC_3747979.JPG
break,html.Screen,4_81_1,2023-09-12T00:43:35.080Z,,0,,,NaN,,,,,,false,,,,536238.6999998093,536238.5,,536238.1999998093,,536254.536,8,400,,,
break_continue,html.Screen,4_81_2,2023-09-12T00:43:35.080Z,,0,,,NaN,,,,,,false,,,,536239,536238.9000000954,,536238.7999997139,,536254.536,8,400,,,
sequence,flow.Sequence,4_81,2023-09-12T00:43:35.081Z,,0,,,4927.322000095388,completion,,,,,false,,,,536239,536238.9000000954,531294.907,531309.1999998093,531311.578,536254.536,8,400,,,
trial,html.Screen,4_82_0,2023-09-12T00:43:41.306Z,,0,2,,6210.263999713934,response,ISIC_0011264.JPG,5,ISIC_0061085.JPG,ISIC_0011264.JPG,false,1,keypress(m),500,542465,542464.7999997139,536238.045,536239.0999999046,536254.536,542466.623,8,400,33,,ISIC_0061085.JPG
break,html.Screen,4_82_1,2023-09-12T00:43:41.307Z,,0,,,NaN,,,,,,false,,,,542465.5999999046,542465.2999997139,,542465.0999999046,,542466.623,8,400,,,
break_continue,html.Screen,4_82_2,2023-09-12T00:43:41.307Z,,0,,,NaN,,,,,,false,,,,542465.7999997139,542465.7999997139,,542465.5999999046,,542466.623,8,400,,,
sequence,flow.Sequence,4_82,2023-09-12T00:43:41.307Z,,0,,,6211.263999713934,completion,,,,,false,,,,542466,542465.7999997139,536238.045,536239.0999999046,536254.536,542466.623,8,400,,,
trial,html.Screen,4_83_0,2023-09-12T00:43:46.205Z,,0,2,,4897.176999713876,response,ISIC_7508320.JPG,5,ISIC_8690205.JPG,ISIC_8690205.JPG,false,0,keypress(z),500,547363.9000000954,547363.7999997139,542449.975,542466,542466.623,547376.286,8,400,34,,ISIC_7508320.JPG
break,html.Screen,4_83_1,2023-09-12T00:43:46.206Z,,0,,,NaN,,,,,,false,,,,547364.5999999046,547364.4000000954,,547364.0999999046,,547376.286,8,400,,,
break_continue,html.Screen,4_83_2,2023-09-12T00:43:46.206Z,,0,,,NaN,,,,,,false,,,,547364.7999997139,547364.7999997139,,547364.6999998093,,547376.286,8,400,,,
sequence,flow.Sequence,4_83,2023-09-12T00:43:46.206Z,,0,,,4898.176999713876,completion,,,,,false,,,,547364.9000000954,547364.7999997139,542449.975,542466,542466.623,547376.286,8,400,,,
trial,html.Screen,4_84_0,2023-09-12T00:43:50.737Z,,0,2,,4518.4139998093015,response,ISIC_9983696.JPG,5,ISIC_0033568.JPG,ISIC_0033568.JPG,false,0,keypress(z),500,551895.2999997139,551894.6999998093,547359.581,547365,547376.286,551901.771,8,400,35,,ISIC_9983696.JPG
break,html.Screen,4_84_1,2023-09-12T00:43:50.738Z,,0,,,NaN,,,,,,false,,,,551896.9000000954,551896.2999997139,,551895.5999999046,,551901.771,8,400,,,
break_continue,html.Screen,4_84_2,2023-09-12T00:43:50.739Z,,0,,,NaN,,,,,,false,,,,551897.5,551897.2999997139,,551897.1999998093,,551901.771,8,400,,,
sequence,flow.Sequence,4_84,2023-09-12T00:43:50.739Z,,0,,,4521.013999713934,completion,,,,,false,,,,551897.7999997139,551897.2999997139,547359.581,547364.9000000954,547376.286,551901.771,8,400,,,
trial,html.Screen,4_85_0,2023-09-12T00:43:54.423Z,,0,2,,3679.328999904683,response,ISIC_9751601.JPG,5,ISIC_0068961.JPG,ISIC_0068961.JPG,false,0,keypress(z),500,555581.4000000954,555581.0999999046,551885,551898,551901.771,555592.395,8,400,36,,ISIC_9751601.JPG
break,html.Screen,4_85_1,2023-09-12T00:43:54.426Z,,0,,,NaN,,,,,,false,,,,555584.0999999046,555583.2999997139,,555581.6999998093,,555592.395,8,400,,,
break_continue,html.Screen,4_85_2,2023-09-12T00:43:54.426Z,,0,,,NaN,,,,,,false,,,,555584.9000000954,555584.6999998093,,555584.4000000954,,555592.395,8,400,,,
sequence,flow.Sequence,4_85,2023-09-12T00:43:54.427Z,,0,,,3682.9289998093154,completion,,,,,false,,,,555585.1999998093,555584.6999998093,551885,551897.9000000954,551901.771,555592.395,8,400,,,
trial,html.Screen,4_86_0,2023-09-12T00:43:59.778Z,,0,2,,5343.404999713879,response,ISIC_0060586.JPG,6,ISIC_5581297.JPG,ISIC_5581297.JPG,false,0,keypress(z),500,560936,560935.7999997139,555575.637,555585.2999997139,555592.395,560952.571,8,400,37,,ISIC_0060586.JPG
break,html.Screen,4_86_1,2023-09-12T00:43:59.779Z,,0,,,NaN,,,,,,false,,,,560936.5999999046,560936.5,,560936.1999998093,,560952.571,8,400,,,
break_continue,html.Screen,4_86_2,2023-09-12T00:43:59.779Z,,0,,,NaN,,,,,,false,,,,560936.7999997139,560936.7999997139,,560936.6999998093,,560952.571,8,400,,,
sequence,flow.Sequence,4_86,2023-09-12T00:43:59.779Z,,0,,,5344.404999713879,completion,,,,,false,,,,560937,560936.7999997139,555575.637,555585.2999997139,555592.395,560952.571,8,400,,,
trial,html.Screen,4_87_0,2023-09-12T00:44:05.429Z,,0,2,,5634.028999904636,response,ISIC_5702591.JPG,4,ISIC_0001157.JPG,ISIC_0001157.JPG,false,0,keypress(z),500,566587,566586.5999999046,560935.977,560937.0999999046,560952.571,566596.932,8,400,38,,ISIC_5702591.JPG
break,html.Screen,4_87_1,2023-09-12T00:44:05.431Z,,0,,,NaN,,,,,,false,,,,566588.7999997139,566588.0999999046,,566587.2999997139,,566596.932,8,400,,,
break_continue,html.Screen,4_87_2,2023-09-12T00:44:05.432Z,,0,,,NaN,,,,,,false,,,,566589.5999999046,566589.4000000954,,566589,,566596.932,8,400,,,
sequence,flow.Sequence,4_87,2023-09-12T00:44:05.432Z,,0,,,5636.829000095371,completion,,,,,false,,,,566589.9000000954,566589.4000000954,560935.977,560937,560952.571,566596.932,8,400,,,
trial,html.Screen,4_88_0,2023-09-12T00:44:10.972Z,,0,2,,5533.06799999997,response,ISIC_8791744.JPG,4,ISIC_6942437.JPG,ISIC_6942437.JPG,false,0,keypress(z),500,572130.0999999046,572130,566580.363,566590.0999999046,566596.932,572141.038,8,400,39,,ISIC_8791744.JPG
break,html.Screen,4_88_1,2023-09-12T00:44:10.973Z,,0,,,NaN,,,,,,false,,,,572130.7999997139,572130.5999999046,,572130.1999998093,,572141.038,8,400,,,
break_continue,html.Screen,4_88_2,2023-09-12T00:44:10.973Z,,0,,,NaN,,,,,,false,,,,572131.1999998093,572131.0999999046,,572131,,572141.038,8,400,,,
sequence,flow.Sequence,4_88,2023-09-12T00:44:10.973Z,,0,,,5534.167999904603,completion,,,,,false,,,,572131.1999998093,572131.0999999046,566580.363,566590.0999999046,566596.932,572141.038,8,400,,,
trial,html.Screen,4_89_0,2023-09-12T00:44:16.799Z,,0,2,,5815.261999713955,response,ISIC_7484618.JPG,5,ISIC_0068106.JPG,ISIC_0068106.JPG,false,0,keypress(z),500,577956.7999997139,577956.2999997139,572124.492,572131.2999997139,572141.038,577969.164,8,400,40,,ISIC_7484618.JPG
break,html.Screen,4_89_1,2023-09-12T00:44:16.800Z,,0,,,NaN,,,,,,false,,,,577958.1999998093,577957.7999997139,,577957.0999999046,,577969.164,8,400,,,
break_continue,html.Screen,4_89_2,2023-09-12T00:44:16.801Z,,0,,,NaN,,,,,,false,,,,577958.9000000954,577958.6999998093,,577958.4000000954,,577969.164,8,400,,,
sequence,flow.Sequence,4_89,2023-09-12T00:44:16.801Z,,0,,,5817.661999809323,completion,,,,,false,,,,577959.2999997139,577958.6999998093,572124.492,572131.2999997139,572141.038,577969.164,8,400,,,
trial,html.Screen,4_90_0,2023-09-12T00:44:22.295Z,,0,2,,5483.435999904643,response,ISIC_0025450.JPG,5,ISIC_4752144.JPG,ISIC_4752144.JPG,false,0,keypress(z),500,583452.6999998093,583452.5999999046,577952.312,577959.6999998093,577969.164,583463.216,8,400,41,,ISIC_0025450.JPG
break,html.Screen,4_90_1,2023-09-12T00:44:22.295Z,,0,,,NaN,,,,,,false,,,,583453.0999999046,583453,,583452.9000000954,,583463.216,8,400,,,
break_continue,html.Screen,4_90_2,2023-09-12T00:44:22.295Z,,0,,,NaN,,,,,,false,,,,583453.2999997139,583453.2999997139,,583453.1999998093,,583463.216,8,400,,,
sequence,flow.Sequence,4_90,2023-09-12T00:44:22.295Z,,0,,,5484.135999713908,completion,,,,,false,,,,583453.4000000954,583453.2999997139,577952.312,577959.5999999046,577969.164,583463.216,8,400,,,
trial,html.Screen,4_91_0,2023-09-12T00:44:28.313Z,,0,2,,6007.48399980925,response,ISIC_8855102.JPG,5,ISIC_0024519.JPG,ISIC_8855102.JPG,false,1,keypress(m),500,589470.9000000954,589470.6999998093,583446.478,583453.4000000954,583463.216,589474.783,8,400,42,,ISIC_0024519.JPG
break,html.Screen,4_91_1,2023-09-12T00:44:28.314Z,,0,,,NaN,,,,,,false,,,,589471.7999997139,589471.5999999046,,589471.0999999046,,589474.783,8,400,,,
break_continue,html.Screen,4_91_2,2023-09-12T00:44:28.314Z,,0,,,NaN,,,,,,false,,,,589472.0999999046,589472,,589471.7999997139,,589474.783,8,400,,,
sequence,flow.Sequence,4_91,2023-09-12T00:44:28.314Z,,0,,,6008.783999999985,completion,,,,,false,,,,589472.4000000954,589472,583446.478,583453.4000000954,583463.216,589474.783,8,400,,,
trial,html.Screen,4_92_0,2023-09-12T00:44:35.005Z,,0,2,,6688.516999713844,response,ISIC_0061141.JPG,6,ISIC_0054527.JPG,ISIC_0061141.JPG,false,1,keypress(m),500,596163.4000000954,596163.2999997139,589458.051,589472.4000000954,589474.783,596171.122,8,400,43,,ISIC_0054527.JPG
break,html.Screen,4_92_1,2023-09-12T00:44:35.006Z,,0,,,NaN,,,,,,false,,,,596164,596163.7999997139,,596163.5,,596171.122,8,400,,,
break_continue,html.Screen,4_92_2,2023-09-12T00:44:35.006Z,,0,,,NaN,,,,,,false,,,,596164.4000000954,596164.2999997139,,596164.1999998093,,596171.122,8,400,,,
sequence,flow.Sequence,4_92,2023-09-12T00:44:35.006Z,,0,,,6689.516999713844,completion,,,,,false,,,,596164.5,596164.2999997139,589458.051,589472.4000000954,589474.783,596171.122,8,400,,,
trial,html.Screen,4_93_0,2023-09-12T00:44:40.400Z,,0,2,,5386.477999904659,response,ISIC_0011698.JPG,5,ISIC_0058046.JPG,ISIC_0011698.JPG,false,1,keypress(m),500,601558.2999997139,601557.5999999046,596154.413,596164.5,596171.122,601565.005,8,400,44,,ISIC_0058046.JPG
break,html.Screen,4_93_1,2023-09-12T00:44:40.402Z,,0,,,NaN,,,,,,false,,,,601559.6999998093,601559.1999998093,,601558.5,,601565.005,8,400,,,
break_continue,html.Screen,4_93_2,2023-09-12T00:44:40.403Z,,0,,,NaN,,,,,,false,,,,601560.5999999046,601560.2999997139,,601560,,601565.005,8,400,,,
sequence,flow.Sequence,4_93,2023-09-12T00:44:40.403Z,,0,,,5389.177999713924,completion,,,,,false,,,,601561,601560.2999997139,596154.413,596164.5,596171.122,601565.005,8,400,,,
trial,html.Screen,4_94_0,2023-09-12T00:44:45.158Z,,0,2,,4751.1949998092605,response,ISIC_0067805.JPG,7,ISIC_6741865.JPG,ISIC_0067805.JPG,false,1,keypress(m),500,606316.2999997139,606316.1999998093,601548.353,601561.1999998093,601565.005,606324.201,8,400,45,,ISIC_6741865.JPG
break,html.Screen,4_94_1,2023-09-12T00:44:45.159Z,,0,,,NaN,,,,,,false,,,,606316.5999999046,606316.5,,606316.2999997139,,606324.201,8,400,,,
break_continue,html.Screen,4_94_2,2023-09-12T00:44:45.159Z,,0,,,NaN,,,,,,false,,,,606316.9000000954,606316.7999997139,,606316.6999998093,,606324.201,8,400,,,
sequence,flow.Sequence,4_94,2023-09-12T00:44:45.159Z,,0,,,4751.794999713893,completion,,,,,false,,,,606316.9000000954,606316.7999997139,601548.353,601561.0999999046,601565.005,606324.201,8,400,,,
trial,html.Screen,4_95_0,2023-09-12T00:44:50.430Z,,0,2,,5263.998999809264,response,ISIC_3067522.JPG,5,ISIC_9499185.JPG,ISIC_9499185.JPG,false,0,keypress(z),500,611588.2999997139,611588.1999998093,606307.551,606317,606324.201,611617.88,8,400,46,,ISIC_3067522.JPG
break,html.Screen,4_95_1,2023-09-12T00:44:50.431Z,,0,,,NaN,,,,,,false,,,,611588.9000000954,611588.5999999046,,611588.4000000954,,611617.88,8,400,,,
break_continue,html.Screen,4_95_2,2023-09-12T00:44:50.431Z,,0,,,NaN,,,,,,false,,,,611589.0999999046,611589.0999999046,,611588.9000000954,,611617.88,8,400,,,
sequence,flow.Sequence,4_95,2023-09-12T00:44:50.431Z,,0,,,5264.898999904632,completion,,,,,false,,,,611589.1999998093,611589.0999999046,606307.551,606316.9000000954,606324.201,611617.88,8,400,,,
trial,html.Screen,4_96_0,2023-09-12T00:44:55.602Z,,0,2,,5141.520000095363,response,ISIC_4566439.JPG,4,ISIC_0059569.JPG,ISIC_0059569.JPG,false,0,keypress(z),500,616759.5,616759.4000000954,611601.157,611589.2999997139,611617.88,616761.207,8,400,47,,ISIC_4566439.JPG
break,html.Screen,4_96_1,2023-09-12T00:44:55.602Z,,0,,,NaN,,,,,,false,,,,616760.0999999046,616759.9000000954,,616759.5999999046,,616761.207,8,400,,,
break_continue,html.Screen,4_96_2,2023-09-12T00:44:55.603Z,,0,,,NaN,,,,,,false,,,,616760.4000000954,616760.4000000954,,616760.2999997139,,616761.207,8,400,,,
sequence,flow.Sequence,4_96,2023-09-12T00:44:55.603Z,,0,,,5142.520000095363,completion,,,,,false,,,,616760.5999999046,616760.4000000954,611601.157,611589.2999997139,611617.88,616761.207,8,400,,,
trial,html.Screen,4_97_0,2023-09-12T00:45:03.268Z,,0,2,,7664.693000095314,response,ISIC_8363069.JPG,4,ISIC_4033676.JPG,ISIC_4033676.JPG,false,0,keypress(z),500,624426,624425.9000000954,616744.638,616760.5999999046,616761.207,624442.847,8,400,48,,ISIC_8363069.JPG
break,html.Screen,4_97_1,2023-09-12T00:45:03.269Z,,0,,,NaN,,,,,,false,,,,624427,624426.6999998093,,624426.0999999046,,624442.847,8,400,,,
break_continue,html.Screen,4_97_2,2023-09-12T00:45:03.269Z,,0,,,NaN,,,,,,false,,,,624427.1999998093,624427.0999999046,,624427.0999999046,,624442.847,8,400,,,
sequence,flow.Sequence,4_97,2023-09-12T00:45:03.270Z,,0,,,7665.8929999045795,completion,,,,,false,,,,624427.2999997139,624427.0999999046,616744.638,616760.5999999046,616761.207,624442.847,8,400,,,
trial,html.Screen,4_98_0,2023-09-12T00:45:08.359Z,,0,2,,5073.8529998093145,response,ISIC_0071771.JPG,4,ISIC_4294705.JPG,ISIC_0071771.JPG,false,1,keypress(m),500,629516.7999997139,629516.6999998093,624426.136,624427.2999997139,624442.847,629519.392,8,400,49,,ISIC_4294705.JPG
break,html.Screen,4_98_1,2023-09-12T00:45:08.360Z,,0,,,NaN,,,,,,false,,,,629517.5,629517.2999997139,,629517,,629519.392,8,400,,,
break_continue,html.Screen,4_98_2,2023-09-12T00:45:08.360Z,,0,,,NaN,,,,,,false,,,,629517.9000000954,629517.6999998093,,629517.6999998093,,629519.392,8,400,,,
sequence,flow.Sequence,4_98,2023-09-12T00:45:08.360Z,,0,,,5074.8529998093145,completion,,,,,false,,,,629517.9000000954,629517.6999998093,624426.136,624427.2999997139,624442.847,629519.392,8,400,,,
trial,html.Screen,4_99_0,2023-09-12T00:45:13.437Z,,0,2,,5075.70799990464,response,ISIC_0063745.JPG,4,ISIC_0032875.JPG,ISIC_0032875.JPG,false,0,keypress(z),500,634595.1999998093,634595.0999999046,629502.638,629518,629519.392,634595.92,8,400,50,,ISIC_0063745.JPG
break,html.Screen,4_99_1,2023-09-12T00:45:23.426Z,,0,,,10003.02099999995,timeout,,,,,false,,,,644583.6999998093,644582.286,634579.385,634595.2999997139,634595.92,644598.941,8,400,,,
break_continue,html.Screen,4_99_2,2023-09-12T00:45:24.086Z,,0,,,637.658999904641,response,,,,,false,continue,keypress(Space),,645243.6999998093,645236.5999999046,644582.286,644584.5,644598.941,645250.171,8,400,,,
sequence,flow.Sequence,4_99,2023-09-12T00:45:24.086Z,,0,,,15717.20799990464,completion,,,,,false,,,,645243.7999997139,645236.5999999046,629502.638,629517.9000000954,629519.392,645250.171,8,400,,,
trial,html.Screen,4_100_0,2023-09-12T00:45:28.664Z,,0,3,,4570.92899990466,response,ISIC_4548995.JPG,4,ISIC_2209697.JPG,ISIC_4548995.JPG,false,1,keypress(m),500,649821.4000000954,649821.0999999046,645233.455,645243.7999997139,645250.171,649842.282,8,400,1,,ISIC_2209697.JPG
break,html.Screen,4_100_1,2023-09-12T00:45:28.667Z,,0,,,NaN,,,,,,false,,,,649824.5,649823.5,,649822,,649842.282,8,400,,,
break_continue,html.Screen,4_100_2,2023-09-12T00:45:28.668Z,,0,,,NaN,,,,,,false,,,,649825.5,649825.1999998093,,649824.6999998093,,649842.282,8,400,,,
sequence,flow.Sequence,4_100,2023-09-12T00:45:28.668Z,,0,,,4575.028999809292,completion,,,,,false,,,,649826,649825.1999998093,645233.455,645243.7999997139,645250.171,649842.282,8,400,,,
trial,html.Screen,4_101_0,2023-09-12T00:45:32.833Z,,0,3,,4148.017999713891,response,ISIC_7630831.JPG,6,ISIC_7682938.JPG,ISIC_7682938.JPG,false,0,keypress(z),500,653990.5,653990.2999997139,649808.835,649826.5999999046,649842.282,654000.311,8,400,2,,ISIC_7630831.JPG
break,html.Screen,4_101_1,2023-09-12T00:45:32.833Z,,0,,,NaN,,,,,,false,,,,653991,653990.7999997139,,653990.5,,654000.311,8,400,,,
break_continue,html.Screen,4_101_2,2023-09-12T00:45:32.833Z,,0,,,NaN,,,,,,false,,,,653991.0999999046,653991.0999999046,,653991,,654000.311,8,400,,,
sequence,flow.Sequence,4_101,2023-09-12T00:45:32.833Z,,0,,,4148.817999904626,completion,,,,,false,,,,653991.1999998093,653991.0999999046,649808.835,649826.4000000954,649842.282,654000.311,8,400,,,
trial,html.Screen,4_102_0,2023-09-12T00:45:37.635Z,,0,3,,4792.0890000953805,response,ISIC_0239949.JPG,5,ISIC_1579745.JPG,ISIC_0239949.JPG,false,1,keypress(m),500,658792.5999999046,658792.4000000954,653983.66,653991.1999998093,654000.311,658826.344,8,400,3,,ISIC_1579745.JPG
break,html.Screen,4_102_1,2023-09-12T00:45:37.636Z,,0,,,NaN,,,,,,false,,,,658793.2999997139,658793,,658792.6999998093,,658826.344,8,400,,,
break_continue,html.Screen,4_102_2,2023-09-12T00:45:37.636Z,,0,,,NaN,,,,,,false,,,,658793.6999998093,658793.6999998093,,658793.4000000954,,658826.344,8,400,,,
sequence,flow.Sequence,4_102,2023-09-12T00:45:37.636Z,,0,,,4793.388999809278,completion,,,,,false,,,,658793.7999997139,658793.6999998093,653983.66,653991.1999998093,654000.311,658826.344,8,400,,,
trial,html.Screen,4_103_0,2023-09-12T00:45:42.773Z,,0,3,,5104.556000095326,response,ISIC_0068168.JPG,6,ISIC_0071168.JPG,ISIC_0068168.JPG,false,1,keypress(m),500,663931,663930.9000000954,658809.915,658793.9000000954,658826.344,663953.03,8,400,4,,ISIC_0071168.JPG
break,html.Screen,4_103_1,2023-09-12T00:45:42.774Z,,0,,,NaN,,,,,,false,,,,663931.5,663931.4000000954,,663931.0999999046,,663953.03,8,400,,,
break_continue,html.Screen,4_103_2,2023-09-12T00:45:42.774Z,,0,,,NaN,,,,,,false,,,,663931.6999998093,663931.5999999046,,663931.5,,663953.03,8,400,,,
sequence,flow.Sequence,4_103,2023-09-12T00:45:42.774Z,,0,,,5105.255999904592,completion,,,,,false,,,,663931.7999997139,663931.5999999046,658809.915,658793.7999997139,658826.344,663953.03,8,400,,,
trial,html.Screen,4_104_0,2023-09-12T00:45:47.226Z,,0,3,,4431.169999809237,response,ISIC_5005253.JPG,6,ISIC_3608788.JPG,ISIC_3608788.JPG,false,0,keypress(z),500,668384.1999998093,668384.1999998093,663936.359,663932,663953.03,668394.999,8,400,5,,ISIC_5005253.JPG
break,html.Screen,4_104_1,2023-09-12T00:45:47.227Z,,0,,,NaN,,,,,,false,,,,668384.9000000954,668384.6999998093,,668384.4000000954,,668394.999,8,400,,,
break_continue,html.Screen,4_104_2,2023-09-12T00:45:47.227Z,,0,,,NaN,,,,,,false,,,,668385.0999999046,668385.0999999046,,668385,,668394.999,8,400,,,
sequence,flow.Sequence,4_104,2023-09-12T00:45:47.227Z,,0,,,4432.069999904605,completion,,,,,false,,,,668385.1999998093,668385.0999999046,663936.359,663931.9000000954,663953.03,668394.999,8,400,,,
trial,html.Screen,4_105_0,2023-09-12T00:45:51.745Z,,0,3,,4507.5010000000475,response,ISIC_0067969.JPG,4,ISIC_0030518.JPG,ISIC_0067969.JPG,false,1,keypress(m),500,672902.6999998093,672902.5,668378.28,668385.2999997139,668394.999,672903.8,8,400,6,,ISIC_0030518.JPG
break,html.Screen,4_105_1,2023-09-12T00:45:51.745Z,,0,,,NaN,,,,,,false,,,,672903.0999999046,672903.0999999046,,672902.7999997139,,672903.8,8,400,,,
break_continue,html.Screen,4_105_2,2023-09-12T00:45:51.746Z,,0,,,NaN,,,,,,false,,,,672903.2999997139,672903.1999998093,,672903.1999998093,,672903.8,8,400,,,
sequence,flow.Sequence,4_105,2023-09-12T00:45:51.746Z,,0,,,4508.200999809313,completion,,,,,false,,,,672903.4000000954,672903.1999998093,668378.28,668385.2999997139,668394.999,672903.8,8,400,,,
trial,html.Screen,4_106_0,2023-09-12T00:45:57.606Z,,0,3,,5859.299999904586,response,ISIC_8504479.JPG,5,ISIC_0032724.JPG,ISIC_0032724.JPG,false,0,keypress(z),500,678763.2999997139,678763.0999999046,672887.08,672903.5,672903.8,678765.21,8,400,7,,ISIC_8504479.JPG
break,html.Screen,4_106_1,2023-09-12T00:45:57.606Z,,0,,,NaN,,,,,,false,,,,678764,678763.5999999046,,678763.2999997139,,678765.21,8,400,,,
break_continue,html.Screen,4_106_2,2023-09-12T00:45:57.607Z,,0,,,NaN,,,,,,false,,,,678764.2999997139,678764.1999998093,,678764.0999999046,,678765.21,8,400,,,
sequence,flow.Sequence,4_106,2023-09-12T00:45:57.607Z,,0,,,5860.399999809219,completion,,,,,false,,,,678764.2999997139,678764.1999998093,672887.08,672903.5,672903.8,678765.21,8,400,,,
trial,html.Screen,4_107_0,2023-09-12T00:46:02.444Z,,0,3,,4836.589999713935,response,ISIC_4015508.JPG,5,ISIC_0033238.JPG,ISIC_0033238.JPG,false,0,keypress(z),500,683602,683601.7999997139,678748.442,678764.5,678765.21,683607.945,8,400,8,,ISIC_4015508.JPG
break,html.Screen,4_107_1,2023-09-12T00:46:02.445Z,,0,,,NaN,,,,,,false,,,,683602.5999999046,683602.5,,683602.0999999046,,683607.945,8,400,,,
break_continue,html.Screen,4_107_2,2023-09-12T00:46:02.446Z,,0,,,NaN,,,,,,false,,,,683603,683602.9000000954,,683602.9000000954,,683607.945,8,400,,,
sequence,flow.Sequence,4_107,2023-09-12T00:46:02.446Z,,0,,,4837.690000095405,completion,,,,,false,,,,683603.0999999046,683602.9000000954,678748.442,678764.4000000954,678765.21,683607.945,8,400,,,
trial,html.Screen,4_108_0,2023-09-12T00:46:07.077Z,,0,3,,4626.854999713949,response,ISIC_0011313.JPG,5,ISIC_0011177.JPG,ISIC_0011177.JPG,false,0,keypress(z),500,688235,688234.7999997139,683591.269,683603.1999998093,683607.945,688250.296,8,400,9,,ISIC_0011313.JPG
break,html.Screen,4_108_1,2023-09-12T00:46:07.078Z,,0,,,NaN,,,,,,false,,,,688235.5,688235.2999997139,,688235.0999999046,,688250.296,8,400,,,
break_continue,html.Screen,4_108_2,2023-09-12T00:46:07.078Z,,0,,,NaN,,,,,,false,,,,688235.7999997139,688235.6999998093,,688235.5,,688250.296,8,400,,,
sequence,flow.Sequence,4_108,2023-09-12T00:46:07.078Z,,0,,,4627.754999809316,completion,,,,,false,,,,688235.9000000954,688235.6999998093,683591.269,683603.1999998093,683607.945,688250.296,8,400,,,
trial,html.Screen,4_109_0,2023-09-12T00:46:12.952Z,,0,3,,5859.604000095394,response,ISIC_0005639.JPG,6,ISIC_9900191.JPG,ISIC_0005639.JPG,false,1,keypress(m),500,694110,694109.9000000954,688233.621,688236,688250.296,694111.71,8,400,10,,ISIC_9900191.JPG
break,html.Screen,4_109_1,2023-09-12T00:46:12.953Z,,0,,,NaN,,,,,,false,,,,694110.5,694110.2999997139,,694110.0999999046,,694111.71,8,400,,,
break_continue,html.Screen,4_109_2,2023-09-12T00:46:12.953Z,,0,,,NaN,,,,,,false,,,,694110.5999999046,694110.5999999046,,694110.5999999046,,694111.71,8,400,,,
sequence,flow.Sequence,4_109,2023-09-12T00:46:12.953Z,,0,,,5860.30399990466,completion,,,,,false,,,,694110.7999997139,694110.5999999046,688233.621,688236,688250.296,694111.71,8,400,,,
trial,html.Screen,4_110_0,2023-09-12T00:46:18.524Z,,0,3,,5569.290000000037,response,ISIC_4378189.JPG,5,ISIC_0010478.JPG,ISIC_0010478.JPG,false,0,keypress(z),500,699681.1999998093,699681,694095.122,694110.9000000954,694111.71,699689.391,8,400,11,,ISIC_4378189.JPG
break,html.Screen,4_110_1,2023-09-12T00:46:18.524Z,,0,,,NaN,,,,,,false,,,,699681.6999998093,699681.5999999046,,699681.2999997139,,699689.391,8,400,,,
break_continue,html.Screen,4_110_2,2023-09-12T00:46:18.524Z,,0,,,NaN,,,,,,false,,,,699681.9000000954,699681.9000000954,,699681.6999998093,,699689.391,8,400,,,
sequence,flow.Sequence,4_110,2023-09-12T00:46:18.525Z,,0,,,5570.190000095405,completion,,,,,false,,,,699682,699681.9000000954,694095.122,694110.7999997139,694111.71,699689.391,8,400,,,
trial,html.Screen,4_111_0,2023-09-12T00:46:23.445Z,,0,3,,4912.7089999046875,response,ISIC_0056110.JPG,5,ISIC_0014703.JPG,ISIC_0014703.JPG,false,0,keypress(z),500,704602.2999997139,704602.0999999046,699672.62,699682.0999999046,699689.391,704615.594,8,400,12,,ISIC_0056110.JPG
break,html.Screen,4_111_1,2023-09-12T00:46:23.445Z,,0,,,NaN,,,,,,false,,,,704602.5999999046,704602.5,,704602.4000000954,,704615.594,8,400,,,
break_continue,html.Screen,4_111_2,2023-09-12T00:46:23.445Z,,0,,,NaN,,,,,,false,,,,704602.9000000954,704602.7999997139,,704602.7999997139,,704615.594,8,400,,,
sequence,flow.Sequence,4_111,2023-09-12T00:46:23.445Z,,0,,,4913.408999713953,completion,,,,,false,,,,704603,704602.7999997139,699672.62,699682,699689.391,704615.594,8,400,,,
trial,html.Screen,4_112_0,2023-09-12T00:46:28.622Z,,0,3,,5163.806000095326,response,ISIC_0522926.JPG,5,ISIC_8803600.JPG,ISIC_8803600.JPG,false,0,keypress(z),500,709779.5,709779.4000000954,704599.03,704603,704615.594,709792.268,8,400,13,,ISIC_0522926.JPG
break,html.Screen,4_112_1,2023-09-12T00:46:28.622Z,,0,,,NaN,,,,,,false,,,,709780,709779.7999997139,,709779.5999999046,,709792.268,8,400,,,
break_continue,html.Screen,4_112_2,2023-09-12T00:46:28.623Z,,0,,,NaN,,,,,,false,,,,709780.0999999046,709780.0999999046,,709780,,709792.268,8,400,,,
sequence,flow.Sequence,4_112,2023-09-12T00:46:28.623Z,,0,,,5164.505999904592,completion,,,,,false,,,,709780.1999998093,709780.0999999046,704599.03,704603,704615.594,709792.268,8,400,,,
trial,html.Screen,4_113_0,2023-09-12T00:46:32.850Z,,0,3,,4215.23199999996,response,ISIC_0826998.JPG,4,ISIC_0028325.JPG,ISIC_0028325.JPG,false,0,keypress(z),500,714007.5,714007.5,709775.535,709780.2999997139,709792.268,714017.133,8,400,14,,ISIC_0826998.JPG
break,html.Screen,4_113_1,2023-09-12T00:46:32.850Z,,0,,,NaN,,,,,,false,,,,714008,714007.9000000954,,714007.5999999046,,714017.133,8,400,,,
break_continue,html.Screen,4_113_2,2023-09-12T00:46:32.851Z,,0,,,NaN,,,,,,false,,,,714008.0999999046,714008.0999999046,,714008,,714017.133,8,400,,,
sequence,flow.Sequence,4_113,2023-09-12T00:46:32.851Z,,0,,,4215.8319999045925,completion,,,,,false,,,,714008.1999998093,714008.0999999046,709775.535,709780.1999998093,709792.268,714017.133,8,400,,,
trial,html.Screen,4_114_0,2023-09-12T00:46:37.959Z,,0,3,,5099.066999809234,response,ISIC_0069257.JPG,5,ISIC_4136351.JPG,ISIC_4136351.JPG,false,0,keypress(z),500,719116.4000000954,719116.1999998093,714000.454,714008.1999998093,714017.133,719127.059,8,400,15,,ISIC_0069257.JPG
break,html.Screen,4_114_1,2023-09-12T00:46:37.959Z,,0,,,NaN,,,,,,false,,,,719116.7999997139,719116.6999998093,,719116.4000000954,,719127.059,8,400,,,
break_continue,html.Screen,4_114_2,2023-09-12T00:46:37.960Z,,0,,,NaN,,,,,,false,,,,719117,719116.9000000954,,719116.7999997139,,719127.059,8,400,,,
sequence,flow.Sequence,4_114,2023-09-12T00:46:37.960Z,,0,,,5099.767000095337,completion,,,,,false,,,,719117,719116.9000000954,714000.454,714008.1999998093,714017.133,719127.059,8,400,,,
trial,html.Screen,4_115_0,2023-09-12T00:46:42.290Z,,0,3,,4320.540999904624,response,ISIC_7438013.JPG,5,ISIC_0068299.JPG,ISIC_0068299.JPG,false,0,keypress(z),500,723447.7999997139,723447.5999999046,719110.422,719117.0999999046,719127.059,723452.144,8,400,16,,ISIC_7438013.JPG
break,html.Screen,4_115_1,2023-09-12T00:46:42.291Z,,0,,,NaN,,,,,,false,,,,723449,723448.5999999046,,723448,,723452.144,8,400,,,
break_continue,html.Screen,4_115_2,2023-09-12T00:46:42.292Z,,0,,,NaN,,,,,,false,,,,723449.5999999046,723449.4000000954,,723449.1999998093,,723452.144,8,400,,,
sequence,flow.Sequence,4_115,2023-09-12T00:46:42.292Z,,0,,,4322.341000095359,completion,,,,,false,,,,723449.5999999046,723449.4000000954,719110.422,719117.0999999046,719127.059,723452.144,8,400,,,
trial,html.Screen,4_116_0,2023-09-12T00:46:48.150Z,,0,3,,5855.555999809294,response,ISIC_5729818.JPG,5,ISIC_1694817.JPG,ISIC_5729818.JPG,false,1,keypress(m),500,729307.9000000954,729307.6999998093,723435.472,723449.7999997139,723452.144,729313.587,8,400,17,,ISIC_1694817.JPG
break,html.Screen,4_116_1,2023-09-12T00:46:48.151Z,,0,,,NaN,,,,,,false,,,,729308.7999997139,729308.5999999046,,729308.0999999046,,729313.587,8,400,,,
break_continue,html.Screen,4_116_2,2023-09-12T00:46:48.152Z,,0,,,NaN,,,,,,false,,,,729309.4000000954,729309.2999997139,,729309.0999999046,,729313.587,8,400,,,
sequence,flow.Sequence,4_116,2023-09-12T00:46:48.152Z,,0,,,5857.155999713927,completion,,,,,false,,,,729309.5,729309.2999997139,723435.472,723449.7999997139,723452.144,729313.587,8,400,,,
trial,html.Screen,4_117_0,2023-09-12T00:46:54.282Z,,0,3,,6125.81300009531,response,ISIC_8468512.JPG,5,ISIC_0055246.JPG,ISIC_8468512.JPG,false,1,keypress(m),500,735439.5,735439.4000000954,729296.959,729309.6999998093,729313.587,735442.119,8,400,18,,ISIC_0055246.JPG
break,html.Screen,4_117_1,2023-09-12T00:46:54.282Z,,0,,,NaN,,,,,,false,,,,735440,735439.9000000954,,735439.6999998093,,735442.119,8,400,,,
break_continue,html.Screen,4_117_2,2023-09-12T00:46:54.283Z,,0,,,NaN,,,,,,false,,,,735440.0999999046,735440.0999999046,,735440,,735442.119,8,400,,,
sequence,flow.Sequence,4_117,2023-09-12T00:46:54.283Z,,0,,,6126.512999904575,completion,,,,,false,,,,735440.1999998093,735440.0999999046,729296.959,729309.5999999046,729313.587,735442.119,8,400,,,
trial,html.Screen,4_118_0,2023-09-12T00:46:58.450Z,,0,3,,4164.980999904685,response,ISIC_0067467.JPG,5,ISIC_8248922.JPG,ISIC_0067467.JPG,false,1,keypress(m),500,739607.1999998093,739607.0999999046,735425.403,735440.1999998093,735442.119,739617.043,8,400,19,,ISIC_8248922.JPG
break,html.Screen,4_118_1,2023-09-12T00:46:58.451Z,,0,,,NaN,,,,,,false,,,,739607.6999998093,739607.5,,739607.2999997139,,739617.043,8,400,,,
break_continue,html.Screen,4_118_2,2023-09-12T00:46:58.451Z,,0,,,NaN,,,,,,false,,,,739608,739608,,739607.7999997139,,739617.043,8,400,,,
sequence,flow.Sequence,4_118,2023-09-12T00:46:58.451Z,,0,,,4165.881000000052,completion,,,,,false,,,,739608.0999999046,739608,735425.403,735440.1999998093,735442.119,739617.043,8,400,,,
trial,html.Screen,4_119_0,2023-09-12T00:47:03.540Z,,0,3,,5079.756999713951,response,ISIC_0010772.JPG,5,ISIC_4220010.JPG,ISIC_0010772.JPG,false,1,keypress(m),500,744697,744696.7999997139,739600.224,739608.0999999046,739617.043,744710.274,8,400,20,,ISIC_4220010.JPG
break,html.Screen,4_119_1,2023-09-12T00:47:03.540Z,,0,,,NaN,,,,,,false,,,,744697.5,744697.2999997139,,744697,,744710.274,8,400,,,
break_continue,html.Screen,4_119_2,2023-09-12T00:47:03.540Z,,0,,,NaN,,,,,,false,,,,744697.6999998093,744697.5999999046,,744697.5,,744710.274,8,400,,,
sequence,flow.Sequence,4_119,2023-09-12T00:47:03.540Z,,0,,,5080.556999904686,completion,,,,,false,,,,744697.6999998093,744697.5999999046,739600.224,739608.0999999046,739617.043,744710.274,8,400,,,
trial,html.Screen,4_120_0,2023-09-12T00:47:08.733Z,,0,3,,5179.325999904657,response,ISIC_0030469.JPG,5,ISIC_0032701.JPG,ISIC_0030469.JPG,false,1,keypress(m),500,749889.6999998093,749889.5999999046,744693.518,744697.7999997139,744710.274,749903.833,8,400,21,,ISIC_0032701.JPG
break,html.Screen,4_120_1,2023-09-12T00:47:08.733Z,,0,,,NaN,,,,,,false,,,,749890.5,749890.1999998093,,749889.9000000954,,749903.833,8,400,,,
break_continue,html.Screen,4_120_2,2023-09-12T00:47:08.734Z,,0,,,NaN,,,,,,false,,,,749890.9000000954,749890.7999997139,,749890.5999999046,,749903.833,8,400,,,
sequence,flow.Sequence,4_120,2023-09-12T00:47:08.734Z,,0,,,5180.525999713922,completion,,,,,false,,,,749891.0999999046,749890.7999997139,744693.518,744697.6999998093,744710.274,749903.833,8,400,,,
trial,html.Screen,4_121_0,2023-09-12T00:47:13.984Z,,0,3,,5237.366999809281,response,ISIC_0033605.JPG,6,ISIC_0066094.JPG,ISIC_0066094.JPG,false,0,keypress(z),500,755141.4000000954,755141.1999998093,749886.935,749891.0999999046,749903.833,755147.145,8,400,22,,ISIC_0033605.JPG
break,html.Screen,4_121_1,2023-09-12T00:47:13.985Z,,0,,,NaN,,,,,,false,,,,755141.6999998093,755141.6999998093,,755141.4000000954,,755147.145,8,400,,,
break_continue,html.Screen,4_121_2,2023-09-12T00:47:13.985Z,,0,,,NaN,,,,,,false,,,,755142,755141.9000000954,,755141.9000000954,,755147.145,8,400,,,
sequence,flow.Sequence,4_121,2023-09-12T00:47:13.985Z,,0,,,5238.067000095383,completion,,,,,false,,,,755142.0999999046,755141.9000000954,749886.935,749891.0999999046,749903.833,755147.145,8,400,,,
trial,html.Screen,4_122_0,2023-09-12T00:47:18.771Z,,0,3,,4780.755000095349,response,ISIC_8796456.JPG,5,ISIC_4554381.JPG,ISIC_4554381.JPG,false,0,keypress(z),500,759928.0999999046,759927.9000000954,755130.447,755142.0999999046,755147.145,759956.692,8,400,23,,ISIC_8796456.JPG
break,html.Screen,4_122_1,2023-09-12T00:47:18.771Z,,0,,,NaN,,,,,,false,,,,759928.5,759928.4000000954,,759928.1999998093,,759956.692,8,400,,,
break_continue,html.Screen,4_122_2,2023-09-12T00:47:18.771Z,,0,,,NaN,,,,,,false,,,,759928.6999998093,759928.6999998093,,759928.5,,759956.692,8,400,,,
sequence,flow.Sequence,4_122,2023-09-12T00:47:18.772Z,,0,,,4781.5549998092465,completion,,,,,false,,,,759928.6999998093,759928.6999998093,755130.447,755142.0999999046,755147.145,759956.692,8,400,,,
trial,html.Screen,4_123_0,2023-09-12T00:47:23.445Z,,0,3,,4645.307999999961,response,ISIC_6595186.JPG,5,ISIC_4978697.JPG,ISIC_6595186.JPG,false,1,keypress(m),500,764602.0999999046,764602,759939.843,759928.7999997139,759956.692,764615.616,8,400,24,,ISIC_4978697.JPG
break,html.Screen,4_123_1,2023-09-12T00:47:23.445Z,,0,,,NaN,,,,,,false,,,,764602.5,764602.4000000954,,764602.2999997139,,764615.616,8,400,,,
break_continue,html.Screen,4_123_2,2023-09-12T00:47:23.446Z,,0,,,NaN,,,,,,false,,,,764602.7999997139,764602.7999997139,,764602.6999998093,,764615.616,8,400,,,
sequence,flow.Sequence,4_123,2023-09-12T00:47:23.446Z,,0,,,4646.107999713859,completion,,,,,false,,,,764602.9000000954,764602.7999997139,759939.843,759928.7999997139,759956.692,764615.616,8,400,,,
trial,html.Screen,4_124_0,2023-09-12T00:47:27.913Z,,0,3,,4454.1839997138595,response,ISIC_0007760.JPG,4,ISIC_0032626.JPG,ISIC_0032626.JPG,false,0,keypress(z),500,769070.0999999046,769069.7999997139,764598.907,764603,764615.616,769074.244,8,400,25,,ISIC_0007760.JPG
break,html.Screen,4_124_1,2023-09-12T00:47:27.913Z,,0,,,NaN,,,,,,false,,,,769070.6999998093,769070.5,,769070.0999999046,,769074.244,8,400,,,
break_continue,html.Screen,4_124_2,2023-09-12T00:47:27.914Z,,0,,,NaN,,,,,,false,,,,769070.9000000954,769070.9000000954,,769070.6999998093,,769074.244,8,400,,,
sequence,flow.Sequence,4_124,2023-09-12T00:47:27.914Z,,0,,,4455.284000095329,completion,,,,,false,,,,769070.9000000954,769070.9000000954,764598.907,764603,764615.616,769074.244,8,400,,,
trial,html.Screen,4_125_0,2023-09-12T00:47:33.200Z,,0,3,,5282.65600009542,response,ISIC_2750230.JPG,6,ISIC_0032492.JPG,ISIC_0032492.JPG,false,0,keypress(z),500,774357.0999999046,774356.9000000954,769057.571,769071,769074.244,774367.933,8,400,26,,ISIC_2750230.JPG
break,html.Screen,4_125_1,2023-09-12T00:47:33.201Z,,0,,,NaN,,,,,,false,,,,774358.0999999046,774357.7999997139,,774357.4000000954,,774367.933,8,400,,,
break_continue,html.Screen,4_125_2,2023-09-12T00:47:33.201Z,,0,,,NaN,,,,,,false,,,,774358.5,774358.4000000954,,774358.0999999046,,774367.933,8,400,,,
sequence,flow.Sequence,4_125,2023-09-12T00:47:33.201Z,,0,,,5284.15600009542,completion,,,,,false,,,,774358.6999998093,774358.4000000954,769057.571,769071,769074.244,774367.933,8,400,,,
trial,html.Screen,4_126_0,2023-09-12T00:47:37.987Z,,0,3,,4776.467000095407,response,ISIC_5674396.JPG,4,ISIC_0033710.JPG,ISIC_0033710.JPG,false,0,keypress(z),500,779144.5999999046,779144.4000000954,774351.342,774358.9000000954,774367.933,779160.548,8,400,27,,ISIC_5674396.JPG
break,html.Screen,4_126_1,2023-09-12T00:47:37.988Z,,0,,,NaN,,,,,,false,,,,779145.0999999046,779145,,779144.7999997139,,779160.548,8,400,,,
