sender,sender_type,sender_id,timestamp,meta,,blockNo,condition,duration,ended_on,img_left,img_reveal,img_right,loser,practice,response,response_action,selection_duration,time_commit,time_end,time_render,time_run,time_show,time_switch,total_blocks,total_trials,trialNo,url,winner
informed_consent,html.Screen,0,2023-09-11T20:04:29.479Z,"{""labjs_version"":""20.2.4"",""labjs_build"":{""flavor"":""development"",""commit"":""f5b4a49f956347addd546a832a3327688c2c0fef""},""location"":""https://labjs.felixhenninger.com/api/labjs_preview/index.html"",""userAgent"":""Mozilla/5.0 (Windows NT 10.0; Win64; x64) AppleWebKit/537.36 (KHTML, like Gecko) Chrome/116.0.0.0 Safari/537.36"",""platform"":""Win32"",""language"":""en-AU"",""locale"":""en-US"",""timeZone"":""America/Chicago"",""timezoneOffset"":300,""screen_width"":1680,""screen_height"":1050,""scroll_width"":1296,""scroll_height"":688,""window_innerWidth"":1296,""window_innerHeight"":736,""devicePixelRatio"":1}",,,,3639.8549999046327,response,,,,,,consent,click button,,4203.699999809265,4202.599999904633,546.077,551.9000000953674,562.745,4219.943,,,,{},
Welcome,html.Screen,1,2023-09-11T20:04:30.154Z,,,,uniform,658.7569998092649,response,,,,,,continue,click button,,4879.199999809265,4878.699999809265,4186.623,4204,4219.943,4904.626,,,,,
trial,html.Screen,2_0_0,2023-09-11T20:04:42.407Z,,0,0,,17784.513,timeout,ISIC_0063388.JPG,,ISIC_0025593.JPG,,true,,,500,17132.299999713898,17131.900000095367,4887.915,4879.400000095367,4904.626,22689.139,1,6,1,,
sequence,flow.Sequence,2_0,2023-09-11T20:04:42.407Z,,0,,,12227.274000095367,completion,,,,,true,,,,17132.599999904633,17131.900000095367,4887.915,4879.400000095367,4904.626,22689.139,1,6,,,
trial,html.Screen,2_1_0,2023-09-11T20:04:59.454Z,,0,0,,11522.530999999999,timeout,ISIC_0028178.JPG,,ISIC_1309015.JPG,,true,,,500,34179,34178.699999809265,22672.383,17132.699999809265,22689.139,34211.67,1,6,2,,
sequence,flow.Sequence,2_1,2023-09-11T20:04:59.454Z,,0,,,11489.560999809266,completion,,,,,true,,,,34179.40000009537,34178.699999809265,22672.383,17132.699999809265,22689.139,34211.67,1,6,,,
trial,html.Screen,2_2_0,2023-09-11T20:05:07.858Z,,0,0,,8370.330000000002,response,ISIC_3314853.JPG,,ISIC_0031128.JPG,ISIC_0031128.JPG,true,0,keypress(z),500,42582.40000009537,42582,34194.912,34179.59999990463,34211.67,42594.5,1,6,3,,ISIC_3314853.JPG
sequence,flow.Sequence,2_2,2023-09-11T20:05:07.859Z,,0,,,8370.330000000002,completion,,,,,true,,,,42583,42582,34194.912,34179.5,34211.67,42594.5,1,6,,,
trial,html.Screen,2_3_0,2023-09-11T20:05:13.189Z,,0,0,,5318.799999713898,response,ISIC_8980141.JPG,,ISIC_0031612.JPG,ISIC_0031612.JPG,true,0,keypress(z),500,47913.40000009537,47913.2999997139,42577.878,42583.40000009537,42594.5,47921.555,1,6,4,,ISIC_8980141.JPG
sequence,flow.Sequence,2_3,2023-09-11T20:05:13.189Z,,0,,,5318.799999713898,completion,,,,,true,,,,47913.59999990463,47913.2999997139,42577.878,42583.199999809265,42594.5,47921.555,1,6,,,
trial,html.Screen,2_4_0,2023-09-11T20:05:21.470Z,,0,0,,8272.644999809265,response,ISIC_1197737.JPG,,ISIC_9721604.JPG,ISIC_1197737.JPG,true,1,keypress(m),500,56194.2999997139,56194.199999809265,47904.958,47913.699999809265,47921.555,56204.399,1,6,5,,ISIC_9721604.JPG
sequence,flow.Sequence,2_4,2023-09-11T20:05:21.470Z,,0,,,8272.644999809265,completion,,,,,true,,,,56194.5,56194.199999809265,47904.958,47913.699999809265,47921.555,56204.399,1,6,,,
trial,html.Screen,2_5_0,2023-09-11T20:05:24.655Z,,0,0,,3174.9009997139,response,ISIC_0025346.JPG,,ISIC_0010681.JPG,ISIC_0025346.JPG,true,1,keypress(m),500,59379.5,59379.2999997139,56187.693,56194.59999990463,56204.399,59393.935,1,6,6,,ISIC_0010681.JPG
sequence,flow.Sequence,2_5,2023-09-11T20:05:24.656Z,,0,,,3174.9009997139,completion,,,,,true,,,,59379.90000009537,59379.2999997139,56187.693,56194.59999990463,56204.399,59393.935,1,6,,,
loop,flow.Loop,2,2023-09-11T20:05:24.656Z,,,,,54474.673999713894,completion,,,,,true,,,,59380.09999990463,59379.2999997139,4887.915,4879.400000095367,4904.626,59393.935,1,6,,,
exp_instructions,html.Screen,3,2023-09-11T20:33:26.302Z,,,,,1681609.8649997138,response,,,,,,continue,keypress(Space),,1741004.4000000954,1741003.799999714,59377.287,59380.199999809265,59393.935,1741033.063,,,,,
trial,html.Screen,4_0_0,2023-09-11T20:33:32.580Z,,0,1,,6249.3370000952855,response,ISIC_0014666.JPG,5,ISIC_0070852.JPG,ISIC_0014666.JPG,false,1,keypress(m),500,1747282.5,1747282.4000000954,1741016.38,1741004.5999999046,1741033.063,1747295.36,8,400,1,,ISIC_0070852.JPG
break,html.Screen,4_0_1,2023-09-11T20:33:32.580Z,,0,,,NaN,,,,,,false,,,,1747283.1999998093,1747283,,1747282.6999998093,,1747295.36,8,400,,,
break_continue,html.Screen,4_0_2,2023-09-11T20:33:32.581Z,,0,,,NaN,,,,,,false,,,,1747283.4000000954,1747283.299999714,,1747283.1999998093,,1747295.36,8,400,,,
sequence,flow.Sequence,4_0,2023-09-11T20:33:32.581Z,,0,,,6250.236999713816,completion,,,,,false,,,,1747283.5,1747283.299999714,1741016.38,1741004.5999999046,1741033.063,1747295.36,8,400,,,
trial,html.Screen,4_1_0,2023-09-11T20:33:39.830Z,,0,1,,7237.639999999898,response,ISIC_0011780.JPG,5,ISIC_3159924.JPG,ISIC_0011780.JPG,false,1,keypress(m),500,1754533.0999999046,1754533,1747278.525,1747283.5999999046,1747295.36,1754542.645,8,400,2,,ISIC_3159924.JPG
break,html.Screen,4_1_1,2023-09-11T20:33:39.831Z,,0,,,NaN,,,,,,false,,,,1754533.6999998093,1754533.5,,1754533.299999714,,1754542.645,8,400,,,
break_continue,html.Screen,4_1_2,2023-09-11T20:33:39.831Z,,0,,,NaN,,,,,,false,,,,1754533.9000000954,1754533.9000000954,,1754533.799999714,,1754542.645,8,400,,,
sequence,flow.Sequence,4_1,2023-09-11T20:33:39.831Z,,0,,,7238.540000095265,completion,,,,,false,,,,1754534,1754533.9000000954,1747278.525,1747283.5999999046,1747295.36,1754542.645,8,400,,,
trial,html.Screen,4_2_0,2023-09-11T20:33:49.961Z,,0,1,,10121.554999809247,response,ISIC_8899350.JPG,4,ISIC_1104374.JPG,ISIC_8899350.JPG,false,1,keypress(m),500,1764664.299999714,1764664.1999998093,1754526.003,1754534.0999999046,1754542.645,1764679.047,8,400,3,,ISIC_1104374.JPG
break,html.Screen,4_2_1,2023-09-11T20:33:49.962Z,,0,,,NaN,,,,,,false,,,,1764664.9000000954,1764664.6999998093,,1764664.4000000954,,1764679.047,8,400,,,
break_continue,html.Screen,4_2_2,2023-09-11T20:33:49.962Z,,0,,,NaN,,,,,,false,,,,1764665.0999999046,1764665.0999999046,,1764665,,1764679.047,8,400,,,
sequence,flow.Sequence,4_2,2023-09-11T20:33:49.962Z,,0,,,10122.454999904614,completion,,,,,false,,,,1764665.1999998093,1764665.0999999046,1754526.003,1754534.0999999046,1754542.645,1764679.047,8,400,,,
trial,html.Screen,4_3_0,2023-09-11T20:33:56.656Z,,0,1,,6680.052999904612,response,ISIC_4322954.JPG,4,ISIC_9545819.JPG,ISIC_4322954.JPG,false,1,keypress(m),500,1771359.1999998093,1771359.0999999046,1764662.381,1764665.299999714,1764679.047,1771375.577,8,400,4,,ISIC_9545819.JPG
break,html.Screen,4_3_1,2023-09-11T20:33:56.657Z,,0,,,NaN,,,,,,false,,,,1771360.0999999046,1771359.9000000954,,1771359.4000000954,,1771375.577,8,400,,,
break_continue,html.Screen,4_3_2,2023-09-11T20:33:56.658Z,,0,,,NaN,,,,,,false,,,,1771360.5,1771360.4000000954,,1771360.1999998093,,1771375.577,8,400,,,
sequence,flow.Sequence,4_3,2023-09-11T20:33:56.658Z,,0,,,6681.353000095347,completion,,,,,false,,,,1771360.5999999046,1771360.4000000954,1764662.381,1764665.299999714,1764679.047,1771375.577,8,400,,,
trial,html.Screen,4_4_0,2023-09-11T20:34:06.932Z,,0,1,,10259.22299971385,response,ISIC_0056186.JPG,5,ISIC_0010791.JPG,ISIC_0056186.JPG,false,1,keypress(m),500,1781634.9000000954,1781634.799999714,1771358.756,1771360.6999998093,1771375.577,1781645.445,8,400,5,,ISIC_0010791.JPG
break,html.Screen,4_4_1,2023-09-11T20:34:06.933Z,,0,,,NaN,,,,,,false,,,,1781635.5999999046,1781635.4000000954,,1781635,,1781645.445,8,400,,,
break_continue,html.Screen,4_4_2,2023-09-11T20:34:06.933Z,,0,,,NaN,,,,,,false,,,,1781635.799999714,1781635.799999714,,1781635.5999999046,,1781645.445,8,400,,,
sequence,flow.Sequence,4_4,2023-09-11T20:34:06.933Z,,0,,,10260.22299971385,completion,,,,,false,,,,1781636,1781635.799999714,1771358.756,1771360.6999998093,1771375.577,1781645.445,8,400,,,
trial,html.Screen,4_5_0,2023-09-11T20:34:15.194Z,,0,1,,8251.455000095302,response,ISIC_9203812.JPG,5,ISIC_5320483.JPG,ISIC_9203812.JPG,false,1,keypress(m),500,1789897.0999999046,1789896.9000000954,1781628.696,1781636,1781645.445,1789911.586,8,400,6,,ISIC_5320483.JPG
break,html.Screen,4_5_1,2023-09-11T20:34:15.195Z,,0,,,NaN,,,,,,false,,,,1789897.5,1789897.4000000954,,1789897.1999998093,,1789911.586,8,400,,,
break_continue,html.Screen,4_5_2,2023-09-11T20:34:15.195Z,,0,,,NaN,,,,,,false,,,,1789897.6999998093,1789897.6999998093,,1789897.5999999046,,1789911.586,8,400,,,
sequence,flow.Sequence,4_5,2023-09-11T20:34:15.195Z,,0,,,8252.2549998092,completion,,,,,false,,,,1789897.9000000954,1789897.6999998093,1781628.696,1781636,1781645.445,1789911.586,8,400,,,
trial,html.Screen,4_6_0,2023-09-11T20:34:21.533Z,,0,1,,6323.414000000106,response,ISIC_9090822.JPG,6,ISIC_0029028.JPG,ISIC_0029028.JPG,false,0,keypress(z),500,1796235.1999998093,1796235,1789894.903,1789897.9000000954,1789911.586,1796240.514,8,400,7,,ISIC_9090822.JPG
break,html.Screen,4_6_1,2023-09-11T20:34:21.534Z,,0,,,NaN,,,,,,false,,,,1796235.9000000954,1796235.6999998093,,1796235.4000000954,,1796240.514,8,400,,,
break_continue,html.Screen,4_6_2,2023-09-11T20:34:21.534Z,,0,,,NaN,,,,,,false,,,,1796236.299999714,1796236.1999998093,,1796236,,1796240.514,8,400,,,
sequence,flow.Sequence,4_6,2023-09-11T20:34:21.535Z,,0,,,6324.613999809371,completion,,,,,false,,,,1796236.4000000954,1796236.1999998093,1789894.903,1789897.9000000954,1789911.586,1796240.514,8,400,,,
trial,html.Screen,4_7_0,2023-09-11T20:34:26.465Z,,0,1,,4926.285999713931,response,ISIC_0029094.JPG,6,ISIC_6062657.JPG,ISIC_0029094.JPG,false,1,keypress(m),500,1801167,1801166.799999714,1796223.74,1796236.5999999046,1796240.514,1801183.443,8,400,8,,ISIC_6062657.JPG
break,html.Screen,4_7_1,2023-09-11T20:34:26.466Z,,0,,,NaN,,,,,,false,,,,1801167.6999998093,1801167.5999999046,,1801167.0999999046,,1801183.443,8,400,,,
break_continue,html.Screen,4_7_2,2023-09-11T20:34:26.466Z,,0,,,NaN,,,,,,false,,,,1801168.0999999046,1801167.9000000954,,1801167.799999714,,1801183.443,8,400,,,
sequence,flow.Sequence,4_7,2023-09-11T20:34:26.466Z,,0,,,4927.386000095401,completion,,,,,false,,,,1801168.0999999046,1801167.9000000954,1796223.74,1796236.5999999046,1796240.514,1801183.443,8,400,,,
trial,html.Screen,4_8_0,2023-09-11T20:34:36.650Z,,0,1,,10168.356999713928,response,ISIC_0056110.JPG,5,ISIC_0029495.JPG,ISIC_0029495.JPG,false,0,keypress(z),500,1811351.9000000954,1811351.799999714,1801166.78,1801168.1999998093,1801183.443,1811353.253,8,400,9,,ISIC_0056110.JPG
break,html.Screen,4_8_1,2023-09-11T20:34:36.651Z,,0,,,NaN,,,,,,false,,,,1811352.5999999046,1811352.299999714,,1811352,,1811353.253,8,400,,,
break_continue,html.Screen,4_8_2,2023-09-11T20:34:36.651Z,,0,,,NaN,,,,,,false,,,,1811352.9000000954,1811352.9000000954,,1811352.799999714,,1811353.253,8,400,,,
sequence,flow.Sequence,4_8,2023-09-11T20:34:36.651Z,,0,,,10169.457000095397,completion,,,,,false,,,,1811353,1811352.9000000954,1801166.78,1801168.1999998093,1801183.443,1811353.253,8,400,,,
trial,html.Screen,4_9_0,2023-09-11T20:34:41.857Z,,0,1,,5205.647000095341,response,ISIC_0069292.JPG,4,ISIC_5877410.JPG,ISIC_0069292.JPG,false,1,keypress(m),500,1816559.0999999046,1816558.9000000954,1811336.54,1811353.0999999046,1811353.253,1816563.361,8,400,10,,ISIC_5877410.JPG
break,html.Screen,4_9_1,2023-09-11T20:34:41.858Z,,0,,,NaN,,,,,,false,,,,1816559.5,1816559.299999714,,1816559.1999998093,,1816563.361,8,400,,,
break_continue,html.Screen,4_9_2,2023-09-11T20:34:41.858Z,,0,,,NaN,,,,,,false,,,,1816559.5999999046,1816559.5999999046,,1816559.5,,1816563.361,8,400,,,
sequence,flow.Sequence,4_9,2023-09-11T20:34:41.858Z,,0,,,5206.3469999046065,completion,,,,,false,,,,1816559.6999998093,1816559.5999999046,1811336.54,1811353.0999999046,1811353.253,1816563.361,8,400,,,
trial,html.Screen,4_10_0,2023-09-11T20:34:46.980Z,,0,1,,5117.838999809232,response,ISIC_0027408.JPG,5,ISIC_0032089.JPG,ISIC_0027408.JPG,false,1,keypress(m),500,1821681.5,1821681.1999998093,1816546.713,1816559.6999998093,1816563.361,1821690.009,8,400,11,,ISIC_0032089.JPG
break,html.Screen,4_10_1,2023-09-11T20:34:46.981Z,,0,,,NaN,,,,,,false,,,,1821682.9000000954,1821682.299999714,,1821681.6999998093,,1821690.009,8,400,,,
break_continue,html.Screen,4_10_2,2023-09-11T20:34:46.982Z,,0,,,NaN,,,,,,false,,,,1821683.5999999046,1821683.4000000954,,1821683.0999999046,,1821690.009,8,400,,,
sequence,flow.Sequence,4_10,2023-09-11T20:34:46.982Z,,0,,,5120.039000095334,completion,,,,,false,,,,1821683.9000000954,1821683.4000000954,1816546.713,1816559.6999998093,1816563.361,1821690.009,8,400,,,
trial,html.Screen,4_11_0,2023-09-11T20:34:54.911Z,,0,1,,7922.7909997138195,response,ISIC_3582787.JPG,5,ISIC_0054651.JPG,ISIC_0054651.JPG,false,0,keypress(z),500,1829613,1829612.799999714,1821673.296,1821684.1999998093,1821690.009,1829622.152,8,400,12,,ISIC_3582787.JPG
break,html.Screen,4_11_1,2023-09-11T20:34:54.912Z,,0,,,NaN,,,,,,false,,,,1829614.0999999046,1829613.799999714,,1829613.299999714,,1829622.152,8,400,,,
break_continue,html.Screen,4_11_2,2023-09-11T20:34:54.913Z,,0,,,NaN,,,,,,false,,,,1829614.5,1829614.4000000954,,1829614.299999714,,1829622.152,8,400,,,
sequence,flow.Sequence,4_11,2023-09-11T20:34:54.913Z,,0,,,7924.391000095289,completion,,,,,false,,,,1829614.799999714,1829614.4000000954,1821673.296,1821684.0999999046,1821690.009,1829622.152,8,400,,,
trial,html.Screen,4_12_0,2023-09-11T20:35:01.572Z,,0,1,,6651.347999999998,response,ISIC_0026596.JPG,6,ISIC_3764173.JPG,ISIC_0026596.JPG,false,1,keypress(m),500,1836273.6999998093,1836273.5,1829605.454,1829615.0999999046,1829622.152,1836285.189,8,400,13,,ISIC_3764173.JPG
break,html.Screen,4_12_1,2023-09-11T20:35:01.573Z,,0,,,NaN,,,,,,false,,,,1836274.5999999046,1836274.4000000954,,1836273.799999714,,1836285.189,8,400,,,
break_continue,html.Screen,4_12_2,2023-09-11T20:35:01.573Z,,0,,,NaN,,,,,,false,,,,1836275,1836274.9000000954,,1836274.6999998093,,1836285.189,8,400,,,
sequence,flow.Sequence,4_12,2023-09-11T20:35:01.573Z,,0,,,6652.748000095366,completion,,,,,false,,,,1836275.0999999046,1836274.9000000954,1829605.454,1829615.0999999046,1829622.152,1836285.189,8,400,,,
trial,html.Screen,4_13_0,2023-09-11T20:35:05.847Z,,0,1,,4264.010999809252,response,ISIC_7100813.JPG,5,ISIC_2371495.JPG,ISIC_7100813.JPG,false,1,keypress(m),500,1840549.4000000954,1840549.1999998093,1836268.505,1836275.299999714,1836285.189,1840560.066,8,400,14,,ISIC_2371495.JPG
break,html.Screen,4_13_1,2023-09-11T20:35:05.848Z,,0,,,NaN,,,,,,false,,,,1840549.799999714,1840549.5999999046,,1840549.5,,1840560.066,8,400,,,
break_continue,html.Screen,4_13_2,2023-09-11T20:35:05.848Z,,0,,,NaN,,,,,,false,,,,1840549.9000000954,1840549.9000000954,,1840549.799999714,,1840560.066,8,400,,,
sequence,flow.Sequence,4_13,2023-09-11T20:35:05.848Z,,0,,,4264.711000095354,completion,,,,,false,,,,1840550,1840549.9000000954,1836268.505,1836275.1999998093,1836285.189,1840560.066,8,400,,,
trial,html.Screen,4_14_0,2023-09-11T20:35:09.073Z,,0,1,,3215.0339999045245,response,ISIC_0056089.JPG,5,ISIC_2454898.JPG,ISIC_0056089.JPG,false,1,keypress(m),500,1843775.1999998093,1843775.0999999046,1840543.354,1840550.0999999046,1840560.066,1843783.011,8,400,15,,ISIC_2454898.JPG
break,html.Screen,4_14_1,2023-09-11T20:35:09.074Z,,0,,,NaN,,,,,,false,,,,1843775.5999999046,1843775.5,,1843775.299999714,,1843783.011,8,400,,,
break_continue,html.Screen,4_14_2,2023-09-11T20:35:09.074Z,,0,,,NaN,,,,,,false,,,,1843775.799999714,1843775.6999998093,,1843775.6999998093,,1843783.011,8,400,,,
sequence,flow.Sequence,4_14,2023-09-11T20:35:09.074Z,,0,,,3215.633999809157,completion,,,,,false,,,,1843775.9000000954,1843775.6999998093,1840543.354,1840550.0999999046,1840560.066,1843783.011,8,400,,,
trial,html.Screen,4_15_0,2023-09-11T20:35:12.547Z,,0,1,,3466.2889997139573,response,ISIC_0032797.JPG,6,ISIC_0026586.JPG,ISIC_0026586.JPG,false,0,keypress(z),500,1847249.299999714,1847249.299999714,1843766.494,1843776,1843783.011,1847256.465,8,400,16,,ISIC_0032797.JPG
break,html.Screen,4_15_1,2023-09-11T20:35:12.548Z,,0,,,NaN,,,,,,false,,,,1847249.799999714,1847249.6999998093,,1847249.4000000954,,1847256.465,8,400,,,
break_continue,html.Screen,4_15_2,2023-09-11T20:35:12.548Z,,0,,,NaN,,,,,,false,,,,1847250,1847249.9000000954,,1847249.799999714,,1847256.465,8,400,,,
sequence,flow.Sequence,4_15,2023-09-11T20:35:12.548Z,,0,,,3466.889000095427,completion,,,,,false,,,,1847250.0999999046,1847249.9000000954,1843766.494,1843775.9000000954,1843783.011,1847256.465,8,400,,,
trial,html.Screen,4_16_0,2023-09-11T20:35:15.548Z,,0,1,,2993.1349999045487,response,ISIC_0000121.JPG,5,ISIC_0055931.JPG,ISIC_0055931.JPG,false,0,keypress(z),500,1850249.6999998093,1850249.5999999046,1847239.756,1847250.1999998093,1847256.465,1850262.276,8,400,17,,ISIC_0000121.JPG
break,html.Screen,4_16_1,2023-09-11T20:35:15.548Z,,0,,,NaN,,,,,,false,,,,1850250.299999714,1850250.1999998093,,1850249.9000000954,,1850262.276,8,400,,,
break_continue,html.Screen,4_16_2,2023-09-11T20:35:15.549Z,,0,,,NaN,,,,,,false,,,,1850250.6999998093,1850250.5999999046,,1850250.4000000954,,1850262.276,8,400,,,
sequence,flow.Sequence,4_16,2023-09-11T20:35:15.549Z,,0,,,2994.1349999045487,completion,,,,,false,,,,1850250.799999714,1850250.5999999046,1847239.756,1847250.0999999046,1847256.465,1850262.276,8,400,,,
trial,html.Screen,4_17_0,2023-09-11T20:35:20.916Z,,0,1,,5355.323999904562,response,ISIC_3952694.JPG,5,ISIC_1860707.JPG,ISIC_1860707.JPG,false,0,keypress(z),500,1855617.6999998093,1855617.5999999046,1850245.539,1850251,1850262.276,1855622.689,8,400,18,,ISIC_3952694.JPG
break,html.Screen,4_17_1,2023-09-11T20:35:20.916Z,,0,,,NaN,,,,,,false,,,,1855618.0999999046,1855618,,1855617.799999714,,1855622.689,8,400,,,
break_continue,html.Screen,4_17_2,2023-09-11T20:35:20.916Z,,0,,,NaN,,,,,,false,,,,1855618.1999998093,1855618.1999998093,,1855618.0999999046,,1855622.689,8,400,,,
sequence,flow.Sequence,4_17,2023-09-11T20:35:20.916Z,,0,,,5355.923999809194,completion,,,,,false,,,,1855618.4000000954,1855618.1999998093,1850245.539,1850250.9000000954,1850262.276,1855622.689,8,400,,,
trial,html.Screen,4_18_0,2023-09-11T20:35:24.614Z,,0,1,,3692.2110000953544,response,ISIC_2008230.JPG,6,ISIC_8626941.JPG,ISIC_2008230.JPG,false,1,keypress(m),500,1859315.0999999046,1859314.9000000954,1855605.967,1855618.4000000954,1855622.689,1859330.095,8,400,19,,ISIC_8626941.JPG
break,html.Screen,4_18_1,2023-09-11T20:35:24.615Z,,0,,,NaN,,,,,,false,,,,1859315.799999714,1859315.5999999046,,1859315.1999998093,,1859330.095,8,400,,,
break_continue,html.Screen,4_18_2,2023-09-11T20:35:24.615Z,,0,,,NaN,,,,,,false,,,,1859316,1859316,,1859315.9000000954,,1859330.095,8,400,,,
sequence,flow.Sequence,4_18,2023-09-11T20:35:24.615Z,,0,,,3693.310999999987,completion,,,,,false,,,,1859316.1999998093,1859316,1855605.967,1855618.4000000954,1855622.689,1859330.095,8,400,,,
trial,html.Screen,4_19_0,2023-09-11T20:35:27.993Z,,0,1,,3363.405000000028,response,ISIC_0028366.JPG,5,ISIC_5772938.JPG,ISIC_0028366.JPG,false,1,keypress(m),500,1862693.5999999046,1862693.5,1859313.239,1859316.1999998093,1859330.095,1862703.121,8,400,20,,ISIC_5772938.JPG
break,html.Screen,4_19_1,2023-09-11T20:35:27.993Z,,0,,,NaN,,,,,,false,,,,1862694.0999999046,1862694,,1862693.6999998093,,1862703.121,8,400,,,
break_continue,html.Screen,4_19_2,2023-09-11T20:35:27.993Z,,0,,,NaN,,,,,,false,,,,1862694.299999714,1862694.299999714,,1862694.1999998093,,1862703.121,8,400,,,
sequence,flow.Sequence,4_19,2023-09-11T20:35:27.993Z,,0,,,3364.2049997139256,completion,,,,,false,,,,1862694.5,1862694.299999714,1859313.239,1859316.1999998093,1859330.095,1862703.121,8,400,,,
trial,html.Screen,4_20_0,2023-09-11T20:35:32.795Z,,0,1,,4793.078999809222,response,ISIC_0028379.JPG,6,ISIC_0067695.JPG,ISIC_0067695.JPG,false,0,keypress(z),500,1867496.299999714,1867496.1999998093,1862686.593,1862694.5,1862703.121,1867512.523,8,400,21,,ISIC_0028379.JPG
break,html.Screen,4_20_1,2023-09-11T20:35:32.796Z,,0,,,NaN,,,,,,false,,,,1867496.6999998093,1867496.6999998093,,1867496.4000000954,,1867512.523,8,400,,,
break_continue,html.Screen,4_20_2,2023-09-11T20:35:32.796Z,,0,,,NaN,,,,,,false,,,,1867496.9000000954,1867496.799999714,,1867496.799999714,,1867512.523,8,400,,,
sequence,flow.Sequence,4_20,2023-09-11T20:35:32.796Z,,0,,,4793.678999713855,completion,,,,,false,,,,1867497,1867496.799999714,1862686.593,1862694.5,1862703.121,1867512.523,8,400,,,
trial,html.Screen,4_21_0,2023-09-11T20:35:42.957Z,,0,1,,10145.776999713853,response,ISIC_4401524.JPG,6,ISIC_6685513.JPG,ISIC_6685513.JPG,false,0,keypress(z),500,1877658.299999714,1877658.299999714,1867495.875,1867497.0999999046,1867512.523,1877665.69,8,400,22,,ISIC_4401524.JPG
break,html.Screen,4_21_1,2023-09-11T20:35:42.958Z,,0,,,NaN,,,,,,false,,,,1877658.9000000954,1877658.6999998093,,1877658.5,,1877665.69,8,400,,,
break_continue,html.Screen,4_21_2,2023-09-11T20:35:42.958Z,,0,,,NaN,,,,,,false,,,,1877659.4000000954,1877659.299999714,,1877659.1999998093,,1877665.69,8,400,,,
sequence,flow.Sequence,4_21,2023-09-11T20:35:42.958Z,,0,,,10146.776999713853,completion,,,,,false,,,,1877659.4000000954,1877659.299999714,1867495.875,1867497.0999999046,1867512.523,1877665.69,8,400,,,
trial,html.Screen,4_22_0,2023-09-11T20:35:48.385Z,,0,1,,5419.810000000056,response,ISIC_0004558.JPG,5,ISIC_0029026.JPG,ISIC_0029026.JPG,false,0,keypress(z),500,1883085.799999714,1883085.5,1877648.945,1877659.5,1877665.69,1883092.833,8,400,23,,ISIC_0004558.JPG
break,html.Screen,4_22_1,2023-09-11T20:35:48.386Z,,0,,,NaN,,,,,,false,,,,1883087.5,1883087,,1883086.299999714,,1883092.833,8,400,,,
break_continue,html.Screen,4_22_2,2023-09-11T20:35:48.387Z,,0,,,NaN,,,,,,false,,,,1883088.299999714,1883088.0999999046,,1883087.799999714,,1883092.833,8,400,,,
sequence,flow.Sequence,4_22,2023-09-11T20:35:48.388Z,,0,,,5422.409999904688,completion,,,,,false,,,,1883088.5999999046,1883088.0999999046,1877648.945,1877659.5,1877665.69,1883092.833,8,400,,,
trial,html.Screen,4_23_0,2023-09-11T20:35:52.345Z,,0,1,,3952.966999713797,response,ISIC_0071916.JPG,5,ISIC_5584185.JPG,ISIC_0071916.JPG,false,1,keypress(m),500,1887046.1999998093,1887045.799999714,1883076.177,1883088.799999714,1883092.833,1887050.565,8,400,24,,ISIC_5584185.JPG
break,html.Screen,4_23_1,2023-09-11T20:35:52.347Z,,0,,,NaN,,,,,,false,,,,1887047.6999998093,1887047.299999714,,1887046.5,,1887050.565,8,400,,,
break_continue,html.Screen,4_23_2,2023-09-11T20:35:52.347Z,,0,,,NaN,,,,,,false,,,,1887048.1999998093,1887048,,1887047.6999998093,,1887050.565,8,400,,,
sequence,flow.Sequence,4_23,2023-09-11T20:35:52.347Z,,0,,,3955.1669999998994,completion,,,,,false,,,,1887048.299999714,1887048,1883076.177,1883088.6999998093,1883092.833,1887050.565,8,400,,,
trial,html.Screen,4_24_0,2023-09-11T20:35:57.037Z,,0,1,,4687.234999713954,response,ISIC_0064060.JPG,5,ISIC_0025018.JPG,ISIC_0064060.JPG,false,1,keypress(m),500,1891737.9000000954,1891737.799999714,1887033.995,1887048.5,1887050.565,1891743.029,8,400,25,,ISIC_0025018.JPG
break,html.Screen,4_24_1,2023-09-11T20:35:57.038Z,,0,,,NaN,,,,,,false,,,,1891738.5999999046,1891738.299999714,,1891738,,1891743.029,8,400,,,
break_continue,html.Screen,4_24_2,2023-09-11T20:35:57.038Z,,0,,,NaN,,,,,,false,,,,1891738.9000000954,1891738.799999714,,1891738.6999998093,,1891743.029,8,400,,,
sequence,flow.Sequence,4_24,2023-09-11T20:35:57.038Z,,0,,,4688.234999713954,completion,,,,,false,,,,1891739,1891738.799999714,1887033.995,1887048.5,1887050.565,1891743.029,8,400,,,
trial,html.Screen,4_25_0,2023-09-11T20:36:03.056Z,,0,1,,6014.170999809168,response,ISIC_2197722.JPG,5,ISIC_0066109.JPG,ISIC_0066109.JPG,false,0,keypress(z),500,1897757.5,1897757.1999998093,1891726.383,1891739.0999999046,1891743.029,1897771.475,8,400,26,,ISIC_2197722.JPG
break,html.Screen,4_25_1,2023-09-11T20:36:03.058Z,,0,,,NaN,,,,,,false,,,,1897759,1897758.5999999046,,1897757.9000000954,,1897771.475,8,400,,,
break_continue,html.Screen,4_25_2,2023-09-11T20:36:03.059Z,,0,,,NaN,,,,,,false,,,,1897759.9000000954,1897759.6999998093,,1897759.299999714,,1897771.475,8,400,,,
sequence,flow.Sequence,4_25,2023-09-11T20:36:03.059Z,,0,,,6016.670999809168,completion,,,,,false,,,,1897760.1999998093,1897759.6999998093,1891726.383,1891739.0999999046,1891743.029,1897771.475,8,400,,,
trial,html.Screen,4_26_0,2023-09-11T20:36:06.613Z,,0,1,,3542.724999809172,response,ISIC_3338629.JPG,5,ISIC_0641480.JPG,ISIC_3338629.JPG,false,1,keypress(m),500,1901314.299999714,1901314.1999998093,1897754.799,1897760.4000000954,1897771.475,1901328.36,8,400,27,,ISIC_0641480.JPG
break,html.Screen,4_26_1,2023-09-11T20:36:06.614Z,,0,,,NaN,,,,,,false,,,,1901314.799999714,1901314.6999998093,,1901314.4000000954,,1901328.36,8,400,,,
break_continue,html.Screen,4_26_2,2023-09-11T20:36:06.614Z,,0,,,NaN,,,,,,false,,,,1901315,1901314.9000000954,,1901314.799999714,,1901328.36,8,400,,,
sequence,flow.Sequence,4_26,2023-09-11T20:36:06.614Z,,0,,,3543.4250000952743,completion,,,,,false,,,,1901315.0999999046,1901314.9000000954,1897754.799,1897760.4000000954,1897771.475,1901328.36,8,400,,,
trial,html.Screen,4_27_0,2023-09-11T20:36:13.903Z,,0,1,,7275.139999999898,response,ISIC_9810276.JPG,5,ISIC_6128108.JPG,ISIC_6128108.JPG,false,0,keypress(z),500,1908603.5999999046,1908603.5,1901311.654,1901315.0999999046,1901328.36,1908609.184,8,400,28,,ISIC_9810276.JPG
break,html.Screen,4_27_1,2023-09-11T20:36:13.903Z,,0,,,NaN,,,,,,false,,,,1908604.0999999046,1908604,,1908603.799999714,,1908609.184,8,400,,,
break_continue,html.Screen,4_27_2,2023-09-11T20:36:13.903Z,,0,,,NaN,,,,,,false,,,,1908604.299999714,1908604.299999714,,1908604.0999999046,,1908609.184,8,400,,,
sequence,flow.Sequence,4_27,2023-09-11T20:36:13.903Z,,0,,,7275.939999713795,completion,,,,,false,,,,1908604.299999714,1908604.299999714,1901311.654,1901315.0999999046,1901328.36,1908609.184,8,400,,,
trial,html.Screen,4_28_0,2023-09-11T20:36:20.544Z,,0,1,,6636.115999714006,response,ISIC_9564379.JPG,5,ISIC_7550510.JPG,ISIC_7550510.JPG,false,0,keypress(z),500,1915245.5,1915245.299999714,1908592.633,1908604.4000000954,1908609.184,1915255.43,8,400,29,,ISIC_9564379.JPG
break,html.Screen,4_28_1,2023-09-11T20:36:20.545Z,,0,,,NaN,,,,,,false,,,,1915246.1999998093,1915246.0999999046,,1915245.6999998093,,1915255.43,8,400,,,
break_continue,html.Screen,4_28_2,2023-09-11T20:36:20.546Z,,0,,,NaN,,,,,,false,,,,1915246.5999999046,1915246.5,,1915246.4000000954,,1915255.43,8,400,,,
sequence,flow.Sequence,4_28,2023-09-11T20:36:20.546Z,,0,,,6637.316000000108,completion,,,,,false,,,,1915246.799999714,1915246.5,1908592.633,1908604.4000000954,1908609.184,1915255.43,8,400,,,
trial,html.Screen,4_29_0,2023-09-11T20:36:25.915Z,,0,1,,5359.470000095433,response,ISIC_7658276.JPG,6,ISIC_6180870.JPG,ISIC_7658276.JPG,false,1,keypress(m),500,1920615,1920614.9000000954,1915238.745,1915246.9000000954,1915255.43,1920615.834,8,400,30,,ISIC_6180870.JPG
break,html.Screen,4_29_1,2023-09-11T20:36:25.915Z,,0,,,NaN,,,,,,false,,,,1920615.5,1920615.4000000954,,1920615.0999999046,,1920615.834,8,400,,,
break_continue,html.Screen,4_29_2,2023-09-11T20:36:25.915Z,,0,,,NaN,,,,,,false,,,,1920615.6999998093,1920615.5999999046,,1920615.5999999046,,1920615.834,8,400,,,
sequence,flow.Sequence,4_29,2023-09-11T20:36:25.915Z,,0,,,5360.169999904698,completion,,,,,false,,,,1920615.799999714,1920615.5999999046,1915238.745,1915246.9000000954,1915255.43,1920615.834,8,400,,,
trial,html.Screen,4_30_0,2023-09-11T20:36:30.654Z,,0,1,,4738.066000095336,response,ISIC_0327225.JPG,4,ISIC_0010581.JPG,ISIC_0010581.JPG,false,0,keypress(z),500,1925354.299999714,1925353.9000000954,1920599.116,1920615.9000000954,1920615.834,1925358.502,8,400,31,,ISIC_0327225.JPG
break,html.Screen,4_30_1,2023-09-11T20:36:30.656Z,,0,,,NaN,,,,,,false,,,,1925356.5999999046,1925356,,1925354.799999714,,1925358.502,8,400,,,
break_continue,html.Screen,4_30_2,2023-09-11T20:36:30.657Z,,0,,,NaN,,,,,,false,,,,1925357.5999999046,1925357.299999714,,1925356.799999714,,1925358.502,8,400,,,
sequence,flow.Sequence,4_30,2023-09-11T20:36:30.658Z,,0,,,4741.465999713866,completion,,,,,false,,,,1925358,1925357.299999714,1920599.116,1920615.9000000954,1920615.834,1925358.502,8,400,,,
trial,html.Screen,4_31_0,2023-09-11T20:36:35.914Z,,0,1,,5255.297999713803,response,ISIC_7947847.JPG,6,ISIC_5385528.JPG,ISIC_5385528.JPG,false,0,keypress(z),500,1930613.9000000954,1930613.799999714,1925341.777,1925358.299999714,1925358.502,1930635.347,8,400,32,,ISIC_7947847.JPG
break,html.Screen,4_31_1,2023-09-11T20:36:35.914Z,,0,,,NaN,,,,,,false,,,,1930614.4000000954,1930614.4000000954,,1930614,,1930635.347,8,400,,,
break_continue,html.Screen,4_31_2,2023-09-11T20:36:35.914Z,,0,,,NaN,,,,,,false,,,,1930614.6999998093,1930614.6999998093,,1930614.5,,1930635.347,8,400,,,
sequence,flow.Sequence,4_31,2023-09-11T20:36:35.915Z,,0,,,5256.19799980917,completion,,,,,false,,,,1930614.9000000954,1930614.6999998093,1925341.777,1925358.1999998093,1925358.502,1930635.347,8,400,,,
trial,html.Screen,4_32_0,2023-09-11T20:36:41.613Z,,0,1,,5678.152999999933,response,ISIC_0010213.JPG,4,ISIC_0034000.JPG,ISIC_0034000.JPG,false,0,keypress(z),500,1936313.799999714,1936313.5,1930618.653,1930614.9000000954,1930635.347,1936329.9,8,400,33,,ISIC_0010213.JPG
break,html.Screen,4_32_1,2023-09-11T20:36:41.614Z,,0,,,NaN,,,,,,false,,,,1936314.4000000954,1936314.1999998093,,1936314,,1936329.9,8,400,,,
break_continue,html.Screen,4_32_2,2023-09-11T20:36:41.614Z,,0,,,NaN,,,,,,false,,,,1936314.6999998093,1936314.5999999046,,1936314.5999999046,,1936329.9,8,400,,,
sequence,flow.Sequence,4_32,2023-09-11T20:36:41.614Z,,0,,,5679.2529999045655,completion,,,,,false,,,,1936314.6999998093,1936314.5999999046,1930618.653,1930614.9000000954,1930635.347,1936329.9,8,400,,,
trial,html.Screen,4_33_0,2023-09-11T20:36:46.896Z,,0,1,,5266.500000095461,response,ISIC_0068168.JPG,5,ISIC_9521776.JPG,ISIC_0068168.JPG,false,1,keypress(m),500,1941596.5,1941596.4000000954,1936313.112,1936314.799999714,1936329.9,1941606.736,8,400,34,,ISIC_9521776.JPG
break,html.Screen,4_33_1,2023-09-11T20:36:46.897Z,,0,,,NaN,,,,,,false,,,,1941597.1999998093,1941596.9000000954,,1941596.6999998093,,1941606.736,8,400,,,
break_continue,html.Screen,4_33_2,2023-09-11T20:36:46.897Z,,0,,,NaN,,,,,,false,,,,1941597.5999999046,1941597.5,,1941597.299999714,,1941606.736,8,400,,,
sequence,flow.Sequence,4_33,2023-09-11T20:36:46.897Z,,0,,,5267.600000000093,completion,,,,,false,,,,1941597.6999998093,1941597.5,1936313.112,1936314.799999714,1936329.9,1941606.736,8,400,,,
trial,html.Screen,4_34_0,2023-09-11T20:36:51.602Z,,0,1,,4695.664000095334,response,ISIC_0982757.JPG,5,ISIC_0012681.JPG,ISIC_0012681.JPG,false,0,keypress(z),500,1946302.5999999046,1946302.4000000954,1941589.991,1941597.6999998093,1941606.736,1946332.586,8,400,35,,ISIC_0982757.JPG
break,html.Screen,4_34_1,2023-09-11T20:36:51.603Z,,0,,,NaN,,,,,,false,,,,1946303,1946303,,1946302.799999714,,1946332.586,8,400,,,
break_continue,html.Screen,4_34_2,2023-09-11T20:36:51.603Z,,0,,,NaN,,,,,,false,,,,1946303.299999714,1946303.1999998093,,1946303.0999999046,,1946332.586,8,400,,,
sequence,flow.Sequence,4_34,2023-09-11T20:36:51.603Z,,0,,,4696.463999809232,completion,,,,,false,,,,1946303.299999714,1946303.1999998093,1941589.991,1941597.6999998093,1941606.736,1946332.586,8,400,,,
trial,html.Screen,4_35_0,2023-09-11T20:36:55.445Z,,0,1,,3812.5139999047387,response,ISIC_0029441.JPG,4,ISIC_0033304.JPG,ISIC_0033304.JPG,false,0,keypress(z),500,1950145.299999714,1950145.0999999046,1946315.869,1946303.4000000954,1946332.586,1950156.757,8,400,36,,ISIC_0029441.JPG
break,html.Screen,4_35_1,2023-09-11T20:36:55.446Z,,0,,,NaN,,,,,,false,,,,1950145.9000000954,1950145.6999998093,,1950145.4000000954,,1950156.757,8,400,,,
break_continue,html.Screen,4_35_2,2023-09-11T20:36:55.446Z,,0,,,NaN,,,,,,false,,,,1950146.299999714,1950146.1999998093,,1950146.0999999046,,1950156.757,8,400,,,
sequence,flow.Sequence,4_35,2023-09-11T20:36:55.446Z,,0,,,3813.6139998093713,completion,,,,,false,,,,1950146.4000000954,1950146.1999998093,1946315.869,1946303.4000000954,1946332.586,1950156.757,8,400,,,
trial,html.Screen,4_36_0,2023-09-11T20:37:00.777Z,,0,1,,5320.143000095384,response,ISIC_3617159.JPG,5,ISIC_1899683.JPG,ISIC_1899683.JPG,false,0,keypress(z),500,1955477,1955476.9000000954,1950140,1950146.5,1950156.757,1955483.675,8,400,37,,ISIC_3617159.JPG
break,html.Screen,4_36_1,2023-09-11T20:37:00.777Z,,0,,,NaN,,,,,,false,,,,1955477.6999998093,1955477.5,,1955477.0999999046,,1955483.675,8,400,,,
break_continue,html.Screen,4_36_2,2023-09-11T20:37:00.778Z,,0,,,NaN,,,,,,false,,,,1955477.9000000954,1955477.799999714,,1955477.6999998093,,1955483.675,8,400,,,
sequence,flow.Sequence,4_36,2023-09-11T20:37:00.778Z,,0,,,5321.0429997139145,completion,,,,,false,,,,1955478,1955477.799999714,1950140,1950146.5,1950156.757,1955483.675,8,400,,,
trial,html.Screen,4_37_0,2023-09-11T20:37:05.659Z,,0,1,,4875.924999904586,response,ISIC_5879789.JPG,5,ISIC_0033526.JPG,ISIC_0033526.JPG,false,0,keypress(z),500,1960359.6999998093,1960359.5999999046,1955467.205,1955478.0999999046,1955483.675,1960376.719,8,400,38,,ISIC_5879789.JPG
break,html.Screen,4_37_1,2023-09-11T20:37:05.660Z,,0,,,NaN,,,,,,false,,,,1960360.5,1960360.1999998093,,1960359.9000000954,,1960376.719,8,400,,,
break_continue,html.Screen,4_37_2,2023-09-11T20:37:05.660Z,,0,,,NaN,,,,,,false,,,,1960360.799999714,1960360.6999998093,,1960360.5999999046,,1960376.719,8,400,,,
sequence,flow.Sequence,4_37,2023-09-11T20:37:05.661Z,,0,,,4877.024999809219,completion,,,,,false,,,,1960360.9000000954,1960360.6999998093,1955467.205,1955478.0999999046,1955483.675,1960376.719,8,400,,,
trial,html.Screen,4_38_0,2023-09-11T20:37:09.775Z,,0,1,,4098.681000095326,response,ISIC_0026039.JPG,4,ISIC_0009905.JPG,ISIC_0009905.JPG,false,0,keypress(z),500,1964475.5999999046,1964475.4000000954,1960359.908,1960360.9000000954,1960376.719,1964484.534,8,400,39,,ISIC_0026039.JPG
break,html.Screen,4_38_1,2023-09-11T20:37:09.776Z,,0,,,NaN,,,,,,false,,,,1964476.1999998093,1964476.0999999046,,1964475.799999714,,1964484.534,8,400,,,
break_continue,html.Screen,4_38_2,2023-09-11T20:37:09.776Z,,0,,,NaN,,,,,,false,,,,1964476.6999998093,1964476.5,,1964476.299999714,,1964484.534,8,400,,,
sequence,flow.Sequence,4_38,2023-09-11T20:37:09.776Z,,0,,,4099.780999999959,completion,,,,,false,,,,1964476.6999998093,1964476.5,1960359.908,1960360.9000000954,1960376.719,1964484.534,8,400,,,
trial,html.Screen,4_39_0,2023-09-11T20:37:15.106Z,,0,1,,5321.966000000015,response,ISIC_0000445.JPG,5,ISIC_0011163.JPG,ISIC_0011163.JPG,false,0,keypress(z),500,1969806.5999999046,1969806.5,1964467.945,1964476.9000000954,1964484.534,1969811.571,8,400,40,,ISIC_0000445.JPG
break,html.Screen,4_39_1,2023-09-11T20:37:15.107Z,,0,,,NaN,,,,,,false,,,,1969807.1999998093,1969807.0999999046,,1969806.799999714,,1969811.571,8,400,,,
break_continue,html.Screen,4_39_2,2023-09-11T20:37:15.107Z,,0,,,NaN,,,,,,false,,,,1969807.5999999046,1969807.5999999046,,1969807.299999714,,1969811.571,8,400,,,
sequence,flow.Sequence,4_39,2023-09-11T20:37:15.107Z,,0,,,5323.0659999046475,completion,,,,,false,,,,1969807.6999998093,1969807.5999999046,1964467.945,1964476.9000000954,1964484.534,1969811.571,8,400,,,
trial,html.Screen,4_40_0,2023-09-11T20:37:19.861Z,,0,1,,4749.929000000004,response,ISIC_0072294.JPG,4,ISIC_0000155.JPG,ISIC_0000155.JPG,false,0,keypress(z),500,1974561.6999998093,1974561.5,1969794.889,1969807.799999714,1969811.571,1974570.867,8,400,41,,ISIC_0072294.JPG
break,html.Screen,4_40_1,2023-09-11T20:37:19.862Z,,0,,,NaN,,,,,,false,,,,1974562.0999999046,1974562.0999999046,,1974561.799999714,,1974570.867,8,400,,,
break_continue,html.Screen,4_40_2,2023-09-11T20:37:19.862Z,,0,,,NaN,,,,,,false,,,,1974562.4000000954,1974562.299999714,,1974562.1999998093,,1974570.867,8,400,,,
sequence,flow.Sequence,4_40,2023-09-11T20:37:19.862Z,,0,,,4750.728999713901,completion,,,,,false,,,,1974562.4000000954,1974562.299999714,1969794.889,1969807.799999714,1969811.571,1974570.867,8,400,,,
trial,html.Screen,4_41_0,2023-09-11T20:37:24.398Z,,0,1,,4526.8329998091795,response,ISIC_5336548.JPG,6,ISIC_0029453.JPG,ISIC_0029453.JPG,false,0,keypress(z),500,1979097.9000000954,1979097.6999998093,1974554.334,1974562.5,1974570.867,1979112.993,8,400,42,,ISIC_5336548.JPG
break,html.Screen,4_41_1,2023-09-11T20:37:24.399Z,,0,,,NaN,,,,,,false,,,,1979098.5999999046,1979098.4000000954,,1979098,,1979112.993,8,400,,,
break_continue,html.Screen,4_41_2,2023-09-11T20:37:24.399Z,,0,,,NaN,,,,,,false,,,,1979099,1979098.9000000954,,1979098.6999998093,,1979112.993,8,400,,,
sequence,flow.Sequence,4_41,2023-09-11T20:37:24.399Z,,0,,,4528.033000095282,completion,,,,,false,,,,1979099.0999999046,1979098.9000000954,1974554.334,1974562.5,1974570.867,1979112.993,8,400,,,
trial,html.Screen,4_42_0,2023-09-11T20:37:30.838Z,,0,1,,6424.606999904616,response,ISIC_0009883.JPG,5,ISIC_6592334.JPG,ISIC_0009883.JPG,false,1,keypress(m),500,1985537.6999998093,1985537.5999999046,1979096.363,1979099.0999999046,1979112.993,1985542.234,8,400,43,,ISIC_6592334.JPG
break,html.Screen,4_42_1,2023-09-11T20:37:30.839Z,,0,,,NaN,,,,,,false,,,,1985538.4000000954,1985538.0999999046,,1985537.9000000954,,1985542.234,8,400,,,
break_continue,html.Screen,4_42_2,2023-09-11T20:37:30.839Z,,0,,,NaN,,,,,,false,,,,1985538.799999714,1985538.6999998093,,1985538.5,,1985542.234,8,400,,,
sequence,flow.Sequence,4_42,2023-09-11T20:37:30.839Z,,0,,,6425.706999809248,completion,,,,,false,,,,1985538.9000000954,1985538.6999998093,1979096.363,1979099.0999999046,1979112.993,1985542.234,8,400,,,
trial,html.Screen,4_43_0,2023-09-11T20:37:35.948Z,,0,1,,5104.666000095429,response,ISIC_0053765.JPG,4,ISIC_3391254.JPG,ISIC_0053765.JPG,false,1,keypress(m),500,1990647.0999999046,1990646.9000000954,1985525.694,1985539,1985542.234,1990652.12,8,400,44,,ISIC_3391254.JPG
break,html.Screen,4_43_1,2023-09-11T20:37:35.948Z,,0,,,NaN,,,,,,false,,,,1990647.799999714,1990647.6999998093,,1990647.4000000954,,1990652.12,8,400,,,
break_continue,html.Screen,4_43_2,2023-09-11T20:37:35.948Z,,0,,,NaN,,,,,,false,,,,1990648.0999999046,1990648,,1990647.9000000954,,1990652.12,8,400,,,
sequence,flow.Sequence,4_43,2023-09-11T20:37:35.948Z,,0,,,5105.7660000000615,completion,,,,,false,,,,1990648.0999999046,1990648,1985525.694,1985538.9000000954,1985542.234,1990652.12,8,400,,,
trial,html.Screen,4_44_0,2023-09-11T20:37:41.904Z,,0,1,,5951.179999713786,response,ISIC_0057259.JPG,6,ISIC_9950866.JPG,ISIC_0057259.JPG,false,1,keypress(m),500,1996603.5,1996603.299999714,1990635.538,1990648.0999999046,1990652.12,1996613.817,8,400,45,,ISIC_9950866.JPG
break,html.Screen,4_44_1,2023-09-11T20:37:41.904Z,,0,,,NaN,,,,,,false,,,,1996604.0999999046,1996603.9000000954,,1996603.5999999046,,1996613.817,8,400,,,
break_continue,html.Screen,4_44_2,2023-09-11T20:37:41.905Z,,0,,,NaN,,,,,,false,,,,1996604.4000000954,1996604.4000000954,,1996604.1999998093,,1996613.817,8,400,,,
sequence,flow.Sequence,4_44,2023-09-11T20:37:41.905Z,,0,,,5952.280000095256,completion,,,,,false,,,,1996604.5999999046,1996604.4000000954,1990635.538,1990648.0999999046,1990652.12,1996613.817,8,400,,,
trial,html.Screen,4_45_0,2023-09-11T20:37:48.090Z,,0,1,,6175.282999904593,response,ISIC_2863397.JPG,5,ISIC_2064934.JPG,ISIC_2064934.JPG,false,0,keypress(z),500,2002789.1999998093,2002789.0999999046,1996597.154,1996604.5999999046,1996613.817,2002792.459,8,400,46,,ISIC_2863397.JPG
break,html.Screen,4_45_1,2023-09-11T20:37:48.090Z,,0,,,NaN,,,,,,false,,,,2002789.6999998093,2002789.5999999046,,2002789.4000000954,,2002792.459,8,400,,,
break_continue,html.Screen,4_45_2,2023-09-11T20:37:48.090Z,,0,,,NaN,,,,,,false,,,,2002789.9000000954,2002789.799999714,,2002789.799999714,,2002792.459,8,400,,,
sequence,flow.Sequence,4_45,2023-09-11T20:37:48.090Z,,0,,,6175.982999713859,completion,,,,,false,,,,2002789.9000000954,2002789.799999714,1996597.154,1996604.5999999046,1996613.817,2002792.459,8,400,,,
trial,html.Screen,4_46_0,2023-09-11T20:37:55.042Z,,0,1,,6948.640999904601,response,ISIC_1640823.JPG,5,ISIC_5823859.JPG,ISIC_5823859.JPG,false,0,keypress(z),500,2009741.299999714,2009741.0999999046,2002775.872,2002790,2002792.459,2009755.986,8,400,47,,ISIC_1640823.JPG
break,html.Screen,4_46_1,2023-09-11T20:37:55.042Z,,0,,,NaN,,,,,,false,,,,2009741.799999714,2009741.5999999046,,2009741.4000000954,,2009755.986,8,400,,,
break_continue,html.Screen,4_46_2,2023-09-11T20:37:55.043Z,,0,,,NaN,,,,,,false,,,,2009742.299999714,2009742.0999999046,,2009742,,2009755.986,8,400,,,
sequence,flow.Sequence,4_46,2023-09-11T20:37:55.043Z,,0,,,6949.640999904601,completion,,,,,false,,,,2009742.299999714,2009742.0999999046,2002775.872,2002790,2002792.459,2009755.986,8,400,,,
trial,html.Screen,4_47_0,2023-09-11T20:37:59.333Z,,0,1,,4276.914000095334,response,ISIC_0054021.JPG,5,ISIC_9957389.JPG,ISIC_0054021.JPG,false,1,keypress(m),500,2014033,2014032.9000000954,2009739.313,2009742.4000000954,2009755.986,2014047.716,8,400,48,,ISIC_9957389.JPG
break,html.Screen,4_47_1,2023-09-11T20:37:59.334Z,,0,,,NaN,,,,,,false,,,,2014033.5,2014033.4000000954,,2014033.0999999046,,2014047.716,8,400,,,
break_continue,html.Screen,4_47_2,2023-09-11T20:37:59.334Z,,0,,,NaN,,,,,,false,,,,2014033.799999714,2014033.6999998093,,2014033.5999999046,,2014047.716,8,400,,,
sequence,flow.Sequence,4_47,2023-09-11T20:37:59.334Z,,0,,,4277.713999809232,completion,,,,,false,,,,2014033.9000000954,2014033.6999998093,2009739.313,2009742.4000000954,2009755.986,2014047.716,8,400,,,
trial,html.Screen,4_48_0,2023-09-11T20:38:04.924Z,,0,1,,5576.083999713883,response,ISIC_7137995.JPG,5,ISIC_0069274.JPG,ISIC_0069274.JPG,false,0,keypress(z),500,2019623.9000000954,2019623.799999714,2014031.053,2014034,2014047.716,2019641.876,8,400,49,,ISIC_7137995.JPG
break,html.Screen,4_48_1,2023-09-11T20:38:04.925Z,,0,,,NaN,,,,,,false,,,,2019624.1999998093,2019624.1999998093,,2019624,,2019641.876,8,400,,,
break_continue,html.Screen,4_48_2,2023-09-11T20:38:04.925Z,,0,,,NaN,,,,,,false,,,,2019624.4000000954,2019624.4000000954,,2019624.299999714,,2019641.876,8,400,,,
sequence,flow.Sequence,4_48,2023-09-11T20:38:04.925Z,,0,,,5576.6840000953525,completion,,,,,false,,,,2019624.5,2019624.4000000954,2014031.053,2014034,2014047.716,2019641.876,8,400,,,
trial,html.Screen,4_49_0,2023-09-11T20:38:11.236Z,,0,1,,6293.323999809334,response,ISIC_6423964.JPG,4,ISIC_7260013.JPG,ISIC_7260013.JPG,false,0,keypress(z),500,2025935.299999714,2025935.1999998093,2019625.256,2019624.5,2019641.876,2025937.49,8,400,50,,ISIC_6423964.JPG
break,html.Screen,4_49_1,2023-09-11T20:38:21.226Z,,0,,,10002.882999999914,timeout,,,,,false,,,,2035925.299999714,2035923.662,2025920.805,2025935.4000000954,2025937.49,2035940.373,8,400,,,
break_continue,html.Screen,4_49_2,2023-09-11T20:38:26.072Z,,0,,,4809.726999904728,response,,,,,false,continue,keypress(Space),,2040771.5999999046,2040750.0999999046,2035923.662,2035925.5999999046,2035940.373,2040783.128,8,400,,,
sequence,flow.Sequence,4_49,2023-09-11T20:38:26.072Z,,0,,,21108.2239999047,completion,,,,,false,,,,2040771.5999999046,2040750.0999999046,2019625.256,2019624.5,2019641.876,2040783.128,8,400,,,
trial,html.Screen,4_50_0,2023-09-11T20:38:29.409Z,,0,2,,3324.7720000953414,response,ISIC_4378189.JPG,6,ISIC_5859812.JPG,ISIC_5859812.JPG,false,0,keypress(z),500,2044108,2044107.9000000954,2040766.46,2040771.6999998093,2040783.128,2044122.837,8,400,1,,ISIC_4378189.JPG
break,html.Screen,4_50_1,2023-09-11T20:38:29.409Z,,0,,,NaN,,,,,,false,,,,2044108.5,2044108.299999714,,2044108.0999999046,,2044122.837,8,400,,,
break_continue,html.Screen,4_50_2,2023-09-11T20:38:29.409Z,,0,,,NaN,,,,,,false,,,,2044108.5999999046,2044108.5999999046,,2044108.5,,2044122.837,8,400,,,
sequence,flow.Sequence,4_50,2023-09-11T20:38:29.409Z,,0,,,3325.4719999046065,completion,,,,,false,,,,2044108.799999714,2044108.5999999046,2040766.46,2040771.6999998093,2040783.128,2044122.837,8,400,,,
trial,html.Screen,4_51_0,2023-09-11T20:38:34.211Z,,0,2,,4787.56300009531,response,ISIC_3021188.JPG,5,ISIC_4903988.JPG,ISIC_4903988.JPG,false,0,keypress(z),500,2048910.5999999046,2048910.4000000954,2044106.165,2044108.9000000954,2044122.837,2048915.552,8,400,2,,ISIC_3021188.JPG
break,html.Screen,4_51_1,2023-09-11T20:38:34.212Z,,0,,,NaN,,,,,,false,,,,2048911.4000000954,2048911.1999998093,,2048910.799999714,,2048915.552,8,400,,,
break_continue,html.Screen,4_51_2,2023-09-11T20:38:34.212Z,,0,,,NaN,,,,,,false,,,,2048911.6999998093,2048911.5999999046,,2048911.5,,2048915.552,8,400,,,
sequence,flow.Sequence,4_51,2023-09-11T20:38:34.212Z,,0,,,4788.762999904575,completion,,,,,false,,,,2048911.6999998093,2048911.5999999046,2044106.165,2044108.9000000954,2044122.837,2048915.552,8,400,,,
trial,html.Screen,4_52_0,2023-09-11T20:38:37.206Z,,0,2,,2989.9480000000913,response,ISIC_4074537.JPG,5,ISIC_0060817.JPG,ISIC_0060817.JPG,false,0,keypress(z),500,2051905.5999999046,2051905.5,2048898.987,2048911.799999714,2048915.552,2051921.475,8,400,3,,ISIC_4074537.JPG
break,html.Screen,4_52_1,2023-09-11T20:38:37.207Z,,0,,,NaN,,,,,,false,,,,2051906,2051905.9000000954,,2051905.6999998093,,2051921.475,8,400,,,
break_continue,html.Screen,4_52_2,2023-09-11T20:38:37.207Z,,0,,,NaN,,,,,,false,,,,2051906.1999998093,2051906.0999999046,,2051906.0999999046,,2051921.475,8,400,,,
sequence,flow.Sequence,4_52,2023-09-11T20:38:37.207Z,,0,,,2990.547999904724,completion,,,,,false,,,,2051906.4000000954,2051906.0999999046,2048898.987,2048911.799999714,2048915.552,2051921.475,8,400,,,
trial,html.Screen,4_53_0,2023-09-11T20:38:40.825Z,,0,2,,3602.4250000952743,response,ISIC_5194331.JPG,5,ISIC_0027502.JPG,ISIC_0027502.JPG,false,0,keypress(z),500,2055524,2055523.9000000954,2051904.701,2051906.4000000954,2051921.475,2055528.397,8,400,4,,ISIC_5194331.JPG
break,html.Screen,4_53_1,2023-09-11T20:38:40.825Z,,0,,,NaN,,,,,,false,,,,2055524.5,2055524.299999714,,2055524.0999999046,,2055528.397,8,400,,,
break_continue,html.Screen,4_53_2,2023-09-11T20:38:40.826Z,,0,,,NaN,,,,,,false,,,,2055524.9000000954,2055524.799999714,,2055524.5999999046,,2055528.397,8,400,,,
sequence,flow.Sequence,4_53,2023-09-11T20:38:40.826Z,,0,,,3603.3249997138046,completion,,,,,false,,,,2055525,2055524.799999714,2051904.701,2051906.4000000954,2051921.475,2055528.397,8,400,,,
trial,html.Screen,4_54_0,2023-09-11T20:38:44.667Z,,0,2,,3838.003000095254,response,ISIC_0781315.JPG,6,ISIC_3520591.JPG,ISIC_3520591.JPG,false,0,keypress(z),500,2059366.5999999046,2059366.4000000954,2055511.699,2055525.0999999046,2055528.397,2059369.208,8,400,5,,ISIC_0781315.JPG
break,html.Screen,4_54_1,2023-09-11T20:38:44.668Z,,0,,,NaN,,,,,,false,,,,2059367,2059366.9000000954,,2059366.6999998093,,2059369.208,8,400,,,
break_continue,html.Screen,4_54_2,2023-09-11T20:38:44.668Z,,0,,,NaN,,,,,,false,,,,2059367.1999998093,2059367.0999999046,,2059367,,2059369.208,8,400,,,
sequence,flow.Sequence,4_54,2023-09-11T20:38:44.668Z,,0,,,3838.702999904519,completion,,,,,false,,,,2059367.1999998093,2059367.0999999046,2055511.699,2055525.0999999046,2055528.397,2059369.208,8,400,,,
trial,html.Screen,4_55_0,2023-09-11T20:38:48.127Z,,0,2,,3457.192000095267,response,ISIC_0054652.JPG,5,ISIC_8417873.JPG,ISIC_8417873.JPG,false,0,keypress(z),500,2062826.5999999046,2062826.4000000954,2059352.591,2059367.299999714,2059369.208,2062842.605,8,400,6,,ISIC_0054652.JPG
break,html.Screen,4_55_1,2023-09-11T20:38:48.128Z,,0,,,NaN,,,,,,false,,,,2062827.0999999046,2062826.9000000954,,2062826.5999999046,,2062842.605,8,400,,,
break_continue,html.Screen,4_55_2,2023-09-11T20:38:48.128Z,,0,,,NaN,,,,,,false,,,,2062827.1999998093,2062827.1999998093,,2062827.0999999046,,2062842.605,8,400,,,
sequence,flow.Sequence,4_55,2023-09-11T20:38:48.128Z,,0,,,3457.9919998091646,completion,,,,,false,,,,2062827.299999714,2062827.1999998093,2059352.591,2059367.299999714,2059369.208,2062842.605,8,400,,,
trial,html.Screen,4_56_0,2023-09-11T20:38:53.826Z,,0,2,,5682.295000095386,response,ISIC_4182801.JPG,5,ISIC_8893501.JPG,ISIC_4182801.JPG,false,1,keypress(m),500,2068525,2068524.9000000954,2062825.909,2062827.4000000954,2062842.605,2068537.044,8,400,7,,ISIC_8893501.JPG
break,html.Screen,4_56_1,2023-09-11T20:38:53.826Z,,0,,,NaN,,,,,,false,,,,2068525.5,2068525.4000000954,,2068525.1999998093,,2068537.044,8,400,,,
break_continue,html.Screen,4_56_2,2023-09-11T20:38:53.826Z,,0,,,NaN,,,,,,false,,,,2068525.799999714,2068525.5999999046,,2068525.5999999046,,2068537.044,8,400,,,
sequence,flow.Sequence,4_56,2023-09-11T20:38:53.826Z,,0,,,5682.994999904651,completion,,,,,false,,,,2068525.9000000954,2068525.5999999046,2062825.909,2062827.299999714,2062842.605,2068537.044,8,400,,,
trial,html.Screen,4_57_0,2023-09-11T20:38:58.040Z,,0,2,,4201.856000095373,response,ISIC_0058346.JPG,5,ISIC_0071586.JPG,ISIC_0071586.JPG,false,0,keypress(z),500,2072738.9000000954,2072738.9000000954,2068520.416,2068525.9000000954,2068537.044,2072761.942,8,400,8,,ISIC_0058346.JPG
break,html.Screen,4_57_1,2023-09-11T20:38:58.040Z,,0,,,NaN,,,,,,false,,,,2072739.299999714,2072739.1999998093,,2072739.0999999046,,2072761.942,8,400,,,
break_continue,html.Screen,4_57_2,2023-09-11T20:38:58.040Z,,0,,,NaN,,,,,,false,,,,2072739.5,2072739.5,,2072739.4000000954,,2072761.942,8,400,,,
sequence,flow.Sequence,4_57,2023-09-11T20:38:58.040Z,,0,,,4202.456000000006,completion,,,,,false,,,,2072739.5999999046,2072739.5,2068520.416,2068525.9000000954,2068537.044,2072761.942,8,400,,,
trial,html.Screen,4_58_0,2023-09-11T20:39:01.978Z,,0,2,,3915.6579999045935,response,ISIC_6785680.JPG,5,ISIC_0029571.JPG,ISIC_6785680.JPG,false,1,keypress(m),500,2076677.799999714,2076677.5999999046,2072745.332,2072739.5999999046,2072761.942,2076686.297,8,400,9,,ISIC_0029571.JPG
break,html.Screen,4_58_1,2023-09-11T20:39:01.979Z,,0,,,NaN,,,,,,false,,,,2076678.4000000954,2076678.299999714,,2076677.9000000954,,2076686.297,8,400,,,
break_continue,html.Screen,4_58_2,2023-09-11T20:39:01.979Z,,0,,,NaN,,,,,,false,,,,2076678.799999714,2076678.6999998093,,2076678.5,,2076686.297,8,400,,,
sequence,flow.Sequence,4_58,2023-09-11T20:39:01.980Z,,0,,,3916.757999809226,completion,,,,,false,,,,2076678.9000000954,2076678.6999998093,2072745.332,2072739.5999999046,2072761.942,2076686.297,8,400,,,
trial,html.Screen,4_59_0,2023-09-11T20:39:05.293Z,,0,2,,3306.302999904612,response,ISIC_0055087.JPG,5,ISIC_0620587.JPG,ISIC_0055087.JPG,false,1,keypress(m),500,2079992.6999998093,2079992.5999999046,2076669.535,2076679,2076686.297,2080009.466,8,400,10,,ISIC_0620587.JPG
break,html.Screen,4_59_1,2023-09-11T20:39:05.294Z,,0,,,NaN,,,,,,false,,,,2079993.299999714,2079993.1999998093,,2079992.9000000954,,2080009.466,8,400,,,
break_continue,html.Screen,4_59_2,2023-09-11T20:39:05.294Z,,0,,,NaN,,,,,,false,,,,2079993.5,2079993.5,,2079993.4000000954,,2080009.466,8,400,,,
sequence,flow.Sequence,4_59,2023-09-11T20:39:05.294Z,,0,,,3307.2029999999795,completion,,,,,false,,,,2079993.5999999046,2079993.5,2076669.535,2076678.9000000954,2076686.297,2080009.466,8,400,,,
trial,html.Screen,4_60_0,2023-09-11T20:39:09.248Z,,0,2,,3937.6339999046177,response,ISIC_0147869.JPG,5,ISIC_5287679.JPG,ISIC_5287679.JPG,false,0,keypress(z),500,2083947.1999998093,2083947.0999999046,2079992.751,2079993.6999998093,2080009.466,2083950.413,8,400,11,,ISIC_0147869.JPG
break,html.Screen,4_60_1,2023-09-11T20:39:09.249Z,,0,,,NaN,,,,,,false,,,,2083948,2083947.799999714,,2083947.4000000954,,2083950.413,8,400,,,
break_continue,html.Screen,4_60_2,2023-09-11T20:39:09.249Z,,0,,,NaN,,,,,,false,,,,2083948.299999714,2083948.1999998093,,2083948.0999999046,,2083950.413,8,400,,,
sequence,flow.Sequence,4_60,2023-09-11T20:39:09.249Z,,0,,,3938.7339998092502,completion,,,,,false,,,,2083948.4000000954,2083948.1999998093,2079992.751,2079993.6999998093,2080009.466,2083950.413,8,400,,,
trial,html.Screen,4_61_0,2023-09-11T20:39:13.859Z,,0,2,,4607.587000000058,response,ISIC_0887792.JPG,5,ISIC_0698821.JPG,ISIC_0698821.JPG,false,0,keypress(z),500,2088558.1999998093,2088558,2083933.855,2083948.5,2083950.413,2088559.37,8,400,12,,ISIC_0887792.JPG
break,html.Screen,4_61_1,2023-09-11T20:39:13.859Z,,0,,,NaN,,,,,,false,,,,2088558.5,2088558.4000000954,,2088558.299999714,,2088559.37,8,400,,,
break_continue,html.Screen,4_61_2,2023-09-11T20:39:13.859Z,,0,,,NaN,,,,,,false,,,,2088558.6999998093,2088558.6999998093,,2088558.5999999046,,2088559.37,8,400,,,
sequence,flow.Sequence,4_61,2023-09-11T20:39:13.859Z,,0,,,4608.286999809323,completion,,,,,false,,,,2088558.799999714,2088558.6999998093,2083933.855,2083948.5,2083950.413,2088559.37,8,400,,,
trial,html.Screen,4_62_0,2023-09-11T20:39:18.501Z,,0,2,,4640.629999999888,response,ISIC_0056156.JPG,4,ISIC_0028579.JPG,ISIC_0056156.JPG,false,1,keypress(m),500,2093200.299999714,2093200,2088542.709,2088558.9000000954,2088559.37,2093201.773,8,400,13,,ISIC_0028579.JPG
break,html.Screen,4_62_1,2023-09-11T20:39:18.503Z,,0,,,NaN,,,,,,false,,,,2093202.1999998093,2093201.299999714,,2093200.5999999046,,2093201.773,8,400,,,
break_continue,html.Screen,4_62_2,2023-09-11T20:39:18.504Z,,0,,,NaN,,,,,,false,,,,2093203.4000000954,2093203.0999999046,,2093202.5,,2093201.773,8,400,,,
sequence,flow.Sequence,4_62,2023-09-11T20:39:18.505Z,,0,,,4643.729999904521,completion,,,,,false,,,,2093204,2093203.0999999046,2088542.709,2088558.799999714,2088559.37,2093201.773,8,400,,,
trial,html.Screen,4_63_0,2023-09-11T20:39:24.093Z,,0,2,,5589.42699980922,response,ISIC_4734111.JPG,6,ISIC_7218890.JPG,ISIC_7218890.JPG,false,0,keypress(z),500,2098791.299999714,2098791.1999998093,2093185.094,2093204.1999998093,2093201.773,2098795.951,8,400,14,,ISIC_4734111.JPG
break,html.Screen,4_63_1,2023-09-11T20:39:24.094Z,,0,,,NaN,,,,,,false,,,,2098792.4000000954,2098792.0999999046,,2098791.5999999046,,2098795.951,8,400,,,
break_continue,html.Screen,4_63_2,2023-09-11T20:39:24.095Z,,0,,,NaN,,,,,,false,,,,2098793,2098792.9000000954,,2098792.5999999046,,2098795.951,8,400,,,
sequence,flow.Sequence,4_63,2023-09-11T20:39:24.095Z,,0,,,5591.127000095323,completion,,,,,false,,,,2098793.299999714,2098792.9000000954,2093185.094,2093204.1999998093,2093201.773,2098795.951,8,400,,,
trial,html.Screen,4_64_0,2023-09-11T20:39:27.076Z,,0,2,,2978.5490000001155,response,ISIC_5921777.JPG,5,ISIC_0057155.JPG,ISIC_0057155.JPG,false,0,keypress(z),500,2101774.6999998093,2101774.5,2098779.215,2098793.5,2098795.951,2101785.165,8,400,15,,ISIC_5921777.JPG
break,html.Screen,4_64_1,2023-09-11T20:39:27.077Z,,0,,,NaN,,,,,,false,,,,2101775.0999999046,2101775,,2101774.799999714,,2101785.165,8,400,,,
break_continue,html.Screen,4_64_2,2023-09-11T20:39:27.077Z,,0,,,NaN,,,,,,false,,,,2101775.299999714,2101775.1999998093,,2101775.1999998093,,2101785.165,8,400,,,
sequence,flow.Sequence,4_64,2023-09-11T20:39:27.077Z,,0,,,2979.2489998093806,completion,,,,,false,,,,2101775.4000000954,2101775.1999998093,2098779.215,2098793.4000000954,2098795.951,2101785.165,8,400,,,
trial,html.Screen,4_65_0,2023-09-11T20:39:30.359Z,,0,2,,3271.8349999999627,response,ISIC_7482149.JPG,4,ISIC_8433608.JPG,ISIC_8433608.JPG,false,0,keypress(z),500,2105057.1999998093,2105057,2101768.489,2101775.5,2101785.165,2105058.131,8,400,16,,ISIC_7482149.JPG
break,html.Screen,4_65_1,2023-09-11T20:39:30.359Z,,0,,,NaN,,,,,,false,,,,2105057.6999998093,2105057.5999999046,,2105057.299999714,,2105058.131,8,400,,,
break_continue,html.Screen,4_65_2,2023-09-11T20:39:30.360Z,,0,,,NaN,,,,,,false,,,,2105057.9000000954,2105057.799999714,,2105057.799999714,,2105058.131,8,400,,,
sequence,flow.Sequence,4_65,2023-09-11T20:39:30.360Z,,0,,,3272.6349997138605,completion,,,,,false,,,,2105057.9000000954,2105057.799999714,2101768.489,2101775.5,2101785.165,2105058.131,8,400,,,
trial,html.Screen,4_66_0,2023-09-11T20:39:34.170Z,,0,2,,3809.568999809213,response,ISIC_0015180.JPG,5,ISIC_0033464.JPG,ISIC_0015180.JPG,false,1,keypress(m),500,2108867.9000000954,2108867.6999998093,2105041.441,2105058,2105058.131,2108882.255,8,400,17,,ISIC_0033464.JPG
break,html.Screen,4_66_1,2023-09-11T20:39:34.170Z,,0,,,NaN,,,,,,false,,,,2108868.6999998093,2108868.4000000954,,2108868,,2108882.255,8,400,,,
break_continue,html.Screen,4_66_2,2023-09-11T20:39:34.171Z,,0,,,NaN,,,,,,false,,,,2108869,2108868.9000000954,,2108868.9000000954,,2108882.255,8,400,,,
sequence,flow.Sequence,4_66,2023-09-11T20:39:34.171Z,,0,,,3810.7690000953153,completion,,,,,false,,,,2108869.0999999046,2108868.9000000954,2105041.441,2105058,2105058.131,2108882.255,8,400,,,
trial,html.Screen,4_67_0,2023-09-11T20:39:38.579Z,,0,2,,4395.0449997140095,response,ISIC_7605678.JPG,6,ISIC_0015950.JPG,ISIC_0015950.JPG,false,0,keypress(z),500,2113277.4000000954,2113277.299999714,2108865.645,2108869.0999999046,2108882.255,2113290.798,8,400,18,,ISIC_7605678.JPG
break,html.Screen,4_67_1,2023-09-11T20:39:38.580Z,,0,,,NaN,,,,,,false,,,,2113277.799999714,2113277.6999998093,,2113277.4000000954,,2113290.798,8,400,,,
break_continue,html.Screen,4_67_2,2023-09-11T20:39:38.580Z,,0,,,NaN,,,,,,false,,,,2113277.9000000954,2113277.9000000954,,2113277.799999714,,2113290.798,8,400,,,
sequence,flow.Sequence,4_67,2023-09-11T20:39:38.580Z,,0,,,4395.645000095479,completion,,,,,false,,,,2113278,2113277.9000000954,2108865.645,2108869.0999999046,2108882.255,2113290.798,8,400,,,
trial,html.Screen,4_68_0,2023-09-11T20:39:45.557Z,,0,2,,6964.602000095416,response,ISIC_8362891.JPG,5,ISIC_8027899.JPG,ISIC_8027899.JPG,false,0,keypress(z),500,2120255.5999999046,2120255.4000000954,2113274.126,2113278.0999999046,2113290.798,2120271.061,8,400,19,,ISIC_8362891.JPG
break,html.Screen,4_68_1,2023-09-11T20:39:45.558Z,,0,,,NaN,,,,,,false,,,,2120256.4000000954,2120256.1999998093,,2120255.799999714,,2120271.061,8,400,,,
break_continue,html.Screen,4_68_2,2023-09-11T20:39:45.558Z,,0,,,NaN,,,,,,false,,,,2120256.6999998093,2120256.5999999046,,2120256.5,,2120271.061,8,400,,,
sequence,flow.Sequence,4_68,2023-09-11T20:39:45.559Z,,0,,,6965.801999904681,completion,,,,,false,,,,2120256.9000000954,2120256.5999999046,2113274.126,2113278.0999999046,2113290.798,2120271.061,8,400,,,
trial,html.Screen,4_69_0,2023-09-11T20:39:49.917Z,,0,2,,4343.738999713678,response,ISIC_0003767.JPG,5,ISIC_0011374.JPG,ISIC_0011374.JPG,false,0,keypress(z),500,2124615.4000000954,2124614.799999714,2120254.512,2120257,2120271.061,2124629.757,8,400,20,,ISIC_0003767.JPG
break,html.Screen,4_69_1,2023-09-11T20:39:49.919Z,,0,,,NaN,,,,,,false,,,,2124616.9000000954,2124616.799999714,,2124615.9000000954,,2124629.757,8,400,,,
break_continue,html.Screen,4_69_2,2023-09-11T20:39:49.919Z,,0,,,NaN,,,,,,false,,,,2124617.0999999046,2124617.0999999046,,2124617,,2124629.757,8,400,,,
sequence,flow.Sequence,4_69,2023-09-11T20:39:49.919Z,,0,,,4346.038999904413,completion,,,,,false,,,,2124617.299999714,2124617.0999999046,2120254.512,2120256.9000000954,2120271.061,2124629.757,8,400,,,
trial,html.Screen,4_70_0,2023-09-11T20:39:57.571Z,,0,2,,7639.442999809049,response,ISIC_0055513.JPG,4,ISIC_0033584.JPG,ISIC_0055513.JPG,false,1,keypress(m),500,2132269.4000000954,2132269.1999998093,2124612.943,2124617.299999714,2124629.757,2132277.824,8,400,21,,ISIC_0033584.JPG
break,html.Screen,4_70_1,2023-09-11T20:39:57.572Z,,0,,,NaN,,,,,,false,,,,2132270,2132269.799999714,,2132269.5,,2132277.824,8,400,,,
break_continue,html.Screen,4_70_2,2023-09-11T20:39:57.572Z,,0,,,NaN,,,,,,false,,,,2132270.4000000954,2132270.299999714,,2132270.0999999046,,2132277.824,8,400,,,
sequence,flow.Sequence,4_70,2023-09-11T20:39:57.572Z,,0,,,7640.542999713682,completion,,,,,false,,,,2132270.5,2132270.299999714,2124612.943,2124617.299999714,2124629.757,2132277.824,8,400,,,
trial,html.Screen,4_71_0,2023-09-11T20:40:00.870Z,,0,2,,3290.375999809243,response,ISIC_5247560.JPG,5,ISIC_0065748.JPG,ISIC_0065748.JPG,false,0,keypress(z),500,2135568.4000000954,2135568.1999998093,2132261.093,2132270.5999999046,2132277.824,2135584.365,8,400,22,,ISIC_5247560.JPG
break,html.Screen,4_71_1,2023-09-11T20:40:00.871Z,,0,,,NaN,,,,,,false,,,,2135569,2135568.799999714,,2135568.5,,2135584.365,8,400,,,
break_continue,html.Screen,4_71_2,2023-09-11T20:40:00.871Z,,0,,,NaN,,,,,,false,,,,2135569.1999998093,2135569.1999998093,,2135569.0999999046,,2135584.365,8,400,,,
sequence,flow.Sequence,4_71,2023-09-11T20:40:00.871Z,,0,,,3291.375999809243,completion,,,,,false,,,,2135569.4000000954,2135569.1999998093,2132261.093,2132270.5999999046,2132277.824,2135584.365,8,400,,,
trial,html.Screen,4_72_0,2023-09-11T20:40:04.698Z,,0,2,,3811.535000095144,response,ISIC_7738955.JPG,6,ISIC_0016092.JPG,ISIC_0016092.JPG,false,0,keypress(z),500,2139396,2139395.9000000954,2135567.511,2135569.5,2135584.365,2139408.375,8,400,23,,ISIC_7738955.JPG
break,html.Screen,4_72_1,2023-09-11T20:40:04.698Z,,0,,,NaN,,,,,,false,,,,2139396.4000000954,2139396.4000000954,,2139396.1999998093,,2139408.375,8,400,,,
break_continue,html.Screen,4_72_2,2023-09-11T20:40:04.698Z,,0,,,NaN,,,,,,false,,,,2139396.5999999046,2139396.5,,2139396.5,,2139408.375,8,400,,,
sequence,flow.Sequence,4_72,2023-09-11T20:40:04.698Z,,0,,,3812.1349999997765,completion,,,,,false,,,,2139396.5999999046,2139396.5,2135567.511,2135569.4000000954,2135584.365,2139408.375,8,400,,,
trial,html.Screen,4_73_0,2023-09-11T20:40:10.108Z,,0,2,,5397.924999713898,response,ISIC_0033607.JPG,5,ISIC_0033678.JPG,ISIC_0033678.JPG,false,0,keypress(z),500,2144806.4000000954,2144806.299999714,2139391.67,2139396.6999998093,2139408.375,2144818.835,8,400,24,,ISIC_0033607.JPG
break,html.Screen,4_73_1,2023-09-11T20:40:10.109Z,,0,,,NaN,,,,,,false,,,,2144806.9000000954,2144806.6999998093,,2144806.5,,2144818.835,8,400,,,
break_continue,html.Screen,4_73_2,2023-09-11T20:40:10.109Z,,0,,,NaN,,,,,,false,,,,2144807.299999714,2144807.1999998093,,2144807,,2144818.835,8,400,,,
sequence,flow.Sequence,4_73,2023-09-11T20:40:10.109Z,,0,,,5398.824999809265,completion,,,,,false,,,,2144807.299999714,2144807.1999998093,2139391.67,2139396.6999998093,2139408.375,2144818.835,8,400,,,
trial,html.Screen,4_74_0,2023-09-11T20:40:15.535Z,,0,2,,5414.464999713935,response,ISIC_0032701.JPG,5,ISIC_8803600.JPG,ISIC_0032701.JPG,false,1,keypress(m),500,2150233.5,2150233.299999714,2144802.349,2144807.4000000954,2144818.835,2150246.078,8,400,25,,ISIC_8803600.JPG
break,html.Screen,4_74_1,2023-09-11T20:40:15.536Z,,0,,,NaN,,,,,,false,,,,2150234.4000000954,2150234.0999999046,,2150233.5999999046,,2150246.078,8,400,,,
break_continue,html.Screen,4_74_2,2023-09-11T20:40:15.537Z,,0,,,NaN,,,,,,false,,,,2150234.6999998093,2150234.5999999046,,2150234.4000000954,,2150246.078,8,400,,,
sequence,flow.Sequence,4_74,2023-09-11T20:40:15.537Z,,0,,,5415.76499990467,completion,,,,,false,,,,2150234.9000000954,2150234.5999999046,2144802.349,2144807.4000000954,2144818.835,2150246.078,8,400,,,
trial,html.Screen,4_75_0,2023-09-11T20:40:21.988Z,,0,2,,6439.721999713685,response,ISIC_0027304.JPG,5,ISIC_0069486.JPG,ISIC_0069486.JPG,false,0,keypress(z),500,2156685.799999714,2156685.799999714,2150229.62,2150235.0999999046,2150246.078,2156691.92,8,400,26,,ISIC_0027304.JPG
break,html.Screen,4_75_1,2023-09-11T20:40:21.989Z,,0,,,NaN,,,,,,false,,,,2156686.5,2156686.299999714,,2156686,,2156691.92,8,400,,,
break_continue,html.Screen,4_75_2,2023-09-11T20:40:21.989Z,,0,,,NaN,,,,,,false,,,,2156686.5999999046,2156686.5999999046,,2156686.5999999046,,2156691.92,8,400,,,
sequence,flow.Sequence,4_75,2023-09-11T20:40:21.989Z,,0,,,6440.52199990442,completion,,,,,false,,,,2156686.799999714,2156686.5999999046,2150229.62,2150235.0999999046,2150246.078,2156691.92,8,400,,,
trial,html.Screen,4_76_0,2023-09-11T20:40:25.207Z,,0,2,,3212.179999904707,response,ISIC_0033800.JPG,13,ISIC_0072748.JPG,ISIC_0072748.JPG,false,0,keypress(z),500,2159904.299999714,2159904.0999999046,2156675.261,2156686.799999714,2156691.92,2159914.934,8,400,27,,ISIC_0033800.JPG
break,html.Screen,4_76_1,2023-09-11T20:40:25.207Z,,0,,,NaN,,,,,,false,,,,2159904.6999998093,2159904.6999998093,,2159904.299999714,,2159914.934,8,400,,,
break_continue,html.Screen,4_76_2,2023-09-11T20:40:25.207Z,,0,,,NaN,,,,,,false,,,,2159905,2159905,,2159904.799999714,,2159914.934,8,400,,,
sequence,flow.Sequence,4_76,2023-09-11T20:40:25.208Z,,0,,,3213.0800000000745,completion,,,,,false,,,,2159905.0999999046,2159905,2156675.261,2156686.799999714,2156691.92,2159914.934,8,400,,,
trial,html.Screen,4_77_0,2023-09-11T20:40:29.882Z,,0,2,,4664.4660000954755,response,ISIC_0013874.JPG,5,ISIC_1251639.JPG,ISIC_0013874.JPG,false,1,keypress(m),500,2164579.4000000954,2164579.4000000954,2159898.3,2159905.1999998093,2159914.934,2164590.652,8,400,28,,ISIC_1251639.JPG
break,html.Screen,4_77_1,2023-09-11T20:40:29.882Z,,0,,,NaN,,,,,,false,,,,2164579.9000000954,2164579.6999998093,,2164579.5999999046,,2164590.652,8,400,,,
break_continue,html.Screen,4_77_2,2023-09-11T20:40:29.883Z,,0,,,NaN,,,,,,false,,,,2164580.0999999046,2164580,,2164579.9000000954,,2164590.652,8,400,,,
sequence,flow.Sequence,4_77,2023-09-11T20:40:29.883Z,,0,,,4665.066000000108,completion,,,,,false,,,,2164580.1999998093,2164580,2159898.3,2159905.1999998093,2159914.934,2164590.652,8,400,,,
trial,html.Screen,4_78_0,2023-09-11T20:40:34.043Z,,0,2,,4150.147999714129,response,ISIC_0032551.JPG,5,ISIC_0033966.JPG,ISIC_0033966.JPG,false,0,keypress(z),500,2168740.9000000954,2168740.799999714,2164573.95,2164580.1999998093,2164590.652,2168748.757,8,400,29,,ISIC_0032551.JPG
break,html.Screen,4_78_1,2023-09-11T20:40:34.044Z,,0,,,NaN,,,,,,false,,,,2168741.5999999046,2168741.4000000954,,2168741.0999999046,,2168748.757,8,400,,,
break_continue,html.Screen,4_78_2,2023-09-11T20:40:34.044Z,,0,,,NaN,,,,,,false,,,,2168742,2168741.9000000954,,2168741.799999714,,2168748.757,8,400,,,
sequence,flow.Sequence,4_78,2023-09-11T20:40:34.045Z,,0,,,4151.248000095598,completion,,,,,false,,,,2168742.0999999046,2168741.9000000954,2164573.95,2164580.1999998093,2164590.652,2168748.757,8,400,,,
trial,html.Screen,4_79_0,2023-09-11T20:40:37.966Z,,0,2,,3915.0429997136816,response,ISIC_0033977.JPG,4,ISIC_5754023.JPG,ISIC_0033977.JPG,false,1,keypress(m),500,2172663.9000000954,2172663.799999714,2168732.256,2168742.1999998093,2168748.757,2172673.027,8,400,30,,ISIC_5754023.JPG
break,html.Screen,4_79_1,2023-09-11T20:40:37.967Z,,0,,,NaN,,,,,,false,,,,2172664.299999714,2172664.1999998093,,2172663.9000000954,,2172673.027,8,400,,,
break_continue,html.Screen,4_79_2,2023-09-11T20:40:37.967Z,,0,,,NaN,,,,,,false,,,,2172664.5,2172664.4000000954,,2172664.299999714,,2172673.027,8,400,,,
sequence,flow.Sequence,4_79,2023-09-11T20:40:37.967Z,,0,,,3915.6430000951514,completion,,,,,false,,,,2172664.5999999046,2172664.4000000954,2168732.256,2168742.1999998093,2168748.757,2172673.027,8,400,,,
trial,html.Screen,4_80_0,2023-09-11T20:40:42.161Z,,0,2,,4185.772999714129,response,ISIC_5219334.JPG,6,ISIC_7779155.JPG,ISIC_7779155.JPG,false,0,keypress(z),500,2176858.9000000954,2176858.799999714,2172656.416,2172664.5999999046,2172673.027,2176864.534,8,400,31,,ISIC_5219334.JPG
break,html.Screen,4_80_1,2023-09-11T20:40:42.162Z,,0,,,NaN,,,,,,false,,,,2176859.5,2176859.299999714,,2176859.0999999046,,2176864.534,8,400,,,
break_continue,html.Screen,4_80_2,2023-09-11T20:40:42.162Z,,0,,,NaN,,,,,,false,,,,2176859.6999998093,2176859.6999998093,,2176859.5999999046,,2176864.534,8,400,,,
sequence,flow.Sequence,4_80,2023-09-11T20:40:42.162Z,,0,,,4186.672999809496,completion,,,,,false,,,,2176859.799999714,2176859.6999998093,2172656.416,2172664.5999999046,2172673.027,2176864.534,8,400,,,
trial,html.Screen,4_81_0,2023-09-11T20:40:47.045Z,,0,2,,4877.765999713913,response,ISIC_0000146.JPG,4,ISIC_7587513.JPG,ISIC_0000146.JPG,false,1,keypress(m),500,2181742.4000000954,2181742.299999714,2176847.858,2176859.9000000954,2176864.534,2181757.464,8,400,32,,ISIC_7587513.JPG
break,html.Screen,4_81_1,2023-09-11T20:40:47.046Z,,0,,,NaN,,,,,,false,,,,2181743.0999999046,2181742.799999714,,2181742.5,,2181757.464,8,400,,,
break_continue,html.Screen,4_81_2,2023-09-11T20:40:47.046Z,,0,,,NaN,,,,,,false,,,,2181743.299999714,2181743.299999714,,2181743.0999999046,,2181757.464,8,400,,,
sequence,flow.Sequence,4_81,2023-09-11T20:40:47.046Z,,0,,,4878.765999713913,completion,,,,,false,,,,2181743.4000000954,2181743.299999714,2176847.858,2176859.9000000954,2176864.534,2181757.464,8,400,,,
trial,html.Screen,4_82_0,2023-09-11T20:40:53.963Z,,0,2,,6902.63599990448,response,ISIC_0071338.JPG,5,ISIC_6628544.JPG,ISIC_0071338.JPG,false,1,keypress(m),500,2188660.1999998093,2188660.0999999046,2181740.842,2181743.5,2181757.464,2188670.891,8,400,33,,ISIC_6628544.JPG
break,html.Screen,4_82_1,2023-09-11T20:40:53.963Z,,0,,,NaN,,,,,,false,,,,2188660.5999999046,2188660.5,,2188660.299999714,,2188670.891,8,400,,,
break_continue,html.Screen,4_82_2,2023-09-11T20:40:53.963Z,,0,,,NaN,,,,,,false,,,,2188660.6999998093,2188660.6999998093,,2188660.5999999046,,2188670.891,8,400,,,
sequence,flow.Sequence,4_82,2023-09-11T20:40:53.963Z,,0,,,6903.235999809112,completion,,,,,false,,,,2188660.799999714,2188660.6999998093,2181740.842,2181743.5,2181757.464,2188670.891,8,400,,,
trial,html.Screen,4_83_0,2023-09-11T20:40:58.542Z,,0,2,,4567.908999714069,response,ISIC_0029893.JPG,5,ISIC_5336548.JPG,ISIC_0029893.JPG,false,1,keypress(m),500,2193239.0999999046,2193238.799999714,2188654.212,2188660.9000000954,2188670.891,2193246.421,8,400,34,,ISIC_5336548.JPG
break,html.Screen,4_83_1,2023-09-11T20:40:58.543Z,,0,,,NaN,,,,,,false,,,,2193240.299999714,2193240,,2193239.4000000954,,2193246.421,8,400,,,
break_continue,html.Screen,4_83_2,2023-09-11T20:40:58.543Z,,0,,,NaN,,,,,,false,,,,2193240.799999714,2193240.5999999046,,2193240.5,,2193246.421,8,400,,,
sequence,flow.Sequence,4_83,2023-09-11T20:40:58.543Z,,0,,,4569.708999904804,completion,,,,,false,,,,2193241,2193240.5999999046,2188654.212,2188660.799999714,2188670.891,2193246.421,8,400,,,
trial,html.Screen,4_84_0,2023-09-11T20:41:04.585Z,,0,2,,6036.078999999911,response,ISIC_0007029.JPG,5,ISIC_0013579.JPG,ISIC_0013579.JPG,false,0,keypress(z),500,2199282.5999999046,2199282.5,2193229.692,2193241.1999998093,2193246.421,2199291.656,8,400,35,,ISIC_0007029.JPG
break,html.Screen,4_84_1,2023-09-11T20:41:04.586Z,,0,,,NaN,,,,,,false,,,,2199283.299999714,2199283.0999999046,,2199282.799999714,,2199291.656,8,400,,,
break_continue,html.Screen,4_84_2,2023-09-11T20:41:04.586Z,,0,,,NaN,,,,,,false,,,,2199283.5999999046,2199283.4000000954,,2199283.299999714,,2199291.656,8,400,,,
sequence,flow.Sequence,4_84,2023-09-11T20:41:04.586Z,,0,,,6036.979000095278,completion,,,,,false,,,,2199283.6999998093,2199283.4000000954,2193229.692,2193241.1999998093,2193246.421,2199291.656,8,400,,,
trial,html.Screen,4_85_0,2023-09-11T20:41:08.959Z,,0,2,,4364.744000095408,response,ISIC_0063028.JPG,4,ISIC_7277310.JPG,ISIC_0063028.JPG,false,1,keypress(m),500,2203656.6999998093,2203656.4000000954,2199274.824,2199283.6999998093,2199291.656,2203666.863,8,400,36,,ISIC_7277310.JPG
break,html.Screen,4_85_1,2023-09-11T20:41:08.960Z,,0,,,NaN,,,,,,false,,,,2203657.5,2203657.299999714,,2203656.799999714,,2203666.863,8,400,,,
break_continue,html.Screen,4_85_2,2023-09-11T20:41:08.960Z,,0,,,NaN,,,,,,false,,,,2203657.799999714,2203657.6999998093,,2203657.5,,2203666.863,8,400,,,
sequence,flow.Sequence,4_85,2023-09-11T20:41:08.960Z,,0,,,4366.043999809306,completion,,,,,false,,,,2203658,2203657.6999998093,2199274.824,2199283.6999998093,2199291.656,2203666.863,8,400,,,
trial,html.Screen,4_86_0,2023-09-11T20:41:13.363Z,,0,2,,4393.137000000104,response,ISIC_0012137.JPG,5,ISIC_9114539.JPG,ISIC_0012137.JPG,false,1,keypress(m),500,2208060.1999998093,2208060,2203649.998,2203658.0999999046,2203666.863,2208075.28,8,400,37,,ISIC_9114539.JPG
break,html.Screen,4_86_1,2023-09-11T20:41:13.363Z,,0,,,NaN,,,,,,false,,,,2208060.6999998093,2208060.5999999046,,2208060.299999714,,2208075.28,8,400,,,
break_continue,html.Screen,4_86_2,2023-09-11T20:41:13.363Z,,0,,,NaN,,,,,,false,,,,2208060.799999714,2208060.799999714,,2208060.6999998093,,2208075.28,8,400,,,
sequence,flow.Sequence,4_86,2023-09-11T20:41:13.363Z,,0,,,4393.936999714002,completion,,,,,false,,,,2208061,2208060.799999714,2203649.998,2203658.0999999046,2203666.863,2208075.28,8,400,,,
trial,html.Screen,4_87_0,2023-09-11T20:41:20.629Z,,0,2,,7251.220000000205,response,ISIC_0033472.JPG,5,ISIC_0060719.JPG,ISIC_0033472.JPG,false,1,keypress(m),500,2215326.5999999046,2215326.5,2208058.578,2208061,2208075.28,2215339.478,8,400,38,,ISIC_0060719.JPG
break,html.Screen,4_87_1,2023-09-11T20:41:20.630Z,,0,,,NaN,,,,,,false,,,,2215327,2215326.9000000954,,2215326.799999714,,2215339.478,8,400,,,
break_continue,html.Screen,4_87_2,2023-09-11T20:41:20.630Z,,0,,,NaN,,,,,,false,,,,2215327.299999714,2215327.1999998093,,2215327.1999998093,,2215339.478,8,400,,,
sequence,flow.Sequence,4_87,2023-09-11T20:41:20.630Z,,0,,,7251.91999980947,completion,,,,,false,,,,2215327.299999714,2215327.1999998093,2208058.578,2208061,2208075.28,2215339.478,8,400,,,
trial,html.Screen,4_88_0,2023-09-11T20:41:25.384Z,,0,2,,4741.422000095248,response,ISIC_5623973.JPG,5,ISIC_0830217.JPG,ISIC_5623973.JPG,false,1,keypress(m),500,2220081.1999998093,2220080.9000000954,2215322.667,2215327.4000000954,2215339.478,2220098.632,8,400,39,,ISIC_0830217.JPG
break,html.Screen,4_88_1,2023-09-11T20:41:25.386Z,,0,,,NaN,,,,,,false,,,,2220082.9000000954,2220082.4000000954,,2220081.5,,2220098.632,8,400,,,
break_continue,html.Screen,4_88_2,2023-09-11T20:41:25.386Z,,0,,,NaN,,,,,,false,,,,2220083.799999714,2220083.5999999046,,2220083.1999998093,,2220098.632,8,400,,,
sequence,flow.Sequence,4_88,2023-09-11T20:41:25.387Z,,0,,,4744.121999904513,completion,,,,,false,,,,2220084.0999999046,2220083.5999999046,2215322.667,2215327.4000000954,2215339.478,2220098.632,8,400,,,
trial,html.Screen,4_89_0,2023-09-11T20:41:30.926Z,,0,2,,5524.167999713682,response,ISIC_0067395.JPG,5,ISIC_9121369.JPG,ISIC_0067395.JPG,false,1,keypress(m),500,2225623.0999999046,2225622.799999714,2220081.978,2220084.299999714,2220098.632,2225626.075,8,400,40,,ISIC_9121369.JPG
break,html.Screen,4_89_1,2023-09-11T20:41:30.927Z,,0,,,NaN,,,,,,false,,,,2225624.299999714,2225624,,2225623.4000000954,,2225626.075,8,400,,,
break_continue,html.Screen,4_89_2,2023-09-11T20:41:30.927Z,,0,,,NaN,,,,,,false,,,,2225624.6999998093,2225624.6999998093,,2225624.5,,2225626.075,8,400,,,
sequence,flow.Sequence,4_89,2023-09-11T20:41:30.928Z,,0,,,5526.067999809049,completion,,,,,false,,,,2225625,2225624.6999998093,2220081.978,2220084.1999998093,2220098.632,2225626.075,8,400,,,
trial,html.Screen,4_90_0,2023-09-11T20:41:35.425Z,,0,2,,4496.524999904446,response,ISIC_3868662.JPG,5,ISIC_2732573.JPG,ISIC_3868662.JPG,false,1,keypress(m),500,2230122.799999714,2230122.5999999046,2225609.364,2225625,2225626.075,2230151.524,8,400,41,,ISIC_2732573.JPG
break,html.Screen,4_90_1,2023-09-11T20:41:35.426Z,,0,,,NaN,,,,,,false,,,,2230123.1999998093,2230123.0999999046,,2230122.799999714,,2230151.524,8,400,,,
break_continue,html.Screen,4_90_2,2023-09-11T20:41:35.426Z,,0,,,NaN,,,,,,false,,,,2230123.299999714,2230123.299999714,,2230123.1999998093,,2230151.524,8,400,,,
sequence,flow.Sequence,4_90,2023-09-11T20:41:35.426Z,,0,,,4497.224999713711,completion,,,,,false,,,,2230123.4000000954,2230123.299999714,2225609.364,2225625,2225626.075,2230151.524,8,400,,,
trial,html.Screen,4_91_0,2023-09-11T20:41:39.991Z,,0,2,,4536.575999904424,response,ISIC_0156642.JPG,6,ISIC_1566428.JPG,ISIC_1566428.JPG,false,0,keypress(z),500,2234688.1999998093,2234688.0999999046,2230134.902,2230123.5,2230151.524,2234693.88,8,400,42,,ISIC_0156642.JPG
break,html.Screen,4_91_1,2023-09-11T20:41:39.991Z,,0,,,NaN,,,,,,false,,,,2234688.6999998093,2234688.5,,2234688.299999714,,2234693.88,8,400,,,
break_continue,html.Screen,4_91_2,2023-09-11T20:41:39.992Z,,0,,,NaN,,,,,,false,,,,2234689.0999999046,2234689,,2234688.799999714,,2234693.88,8,400,,,
sequence,flow.Sequence,4_91,2023-09-11T20:41:39.992Z,,0,,,4537.475999999791,completion,,,,,false,,,,2234689.0999999046,2234689,2230134.902,2230123.4000000954,2230151.524,2234693.88,8,400,,,
trial,html.Screen,4_92_0,2023-09-11T20:41:45.514Z,,0,2,,5517.319999809377,response,ISIC_0691454.JPG,5,ISIC_8241457.JPG,ISIC_8241457.JPG,false,0,keypress(z),500,2240211.299999714,2240211.1999998093,2234677.075,2234689.1999998093,2234693.88,2240221.139,8,400,43,,ISIC_0691454.JPG
break,html.Screen,4_92_1,2023-09-11T20:41:45.515Z,,0,,,NaN,,,,,,false,,,,2240211.9000000954,2240211.6999998093,,2240211.4000000954,,2240221.139,8,400,,,
break_continue,html.Screen,4_92_2,2023-09-11T20:41:45.515Z,,0,,,NaN,,,,,,false,,,,2240212.299999714,2240212.1999998093,,2240212.0999999046,,2240221.139,8,400,,,
sequence,flow.Sequence,4_92,2023-09-11T20:41:45.515Z,,0,,,5518.319999809377,completion,,,,,false,,,,2240212.4000000954,2240212.1999998093,2234677.075,2234689.1999998093,2234693.88,2240221.139,8,400,,,
trial,html.Screen,4_93_0,2023-09-11T20:41:49.932Z,,0,2,,4408.3610000000335,response,ISIC_0012990.JPG,6,ISIC_0071916.JPG,ISIC_0071916.JPG,false,0,keypress(z),500,2244629.5999999046,2244629.5,2240204.586,2240212.4000000954,2240221.139,2244646.556,8,400,44,,ISIC_0012990.JPG
break,html.Screen,4_93_1,2023-09-11T20:41:49.933Z,,0,,,NaN,,,,,,false,,,,2244630.5999999046,2244630.299999714,,2244629.9000000954,,2244646.556,8,400,,,
break_continue,html.Screen,4_93_2,2023-09-11T20:41:49.934Z,,0,,,NaN,,,,,,false,,,,2244631,2244630.9000000954,,2244630.799999714,,2244646.556,8,400,,,
sequence,flow.Sequence,4_93,2023-09-11T20:41:49.934Z,,0,,,4409.761000095401,completion,,,,,false,,,,2244631.299999714,2244630.9000000954,2240204.586,2240212.4000000954,2240221.139,2244646.556,8,400,,,
trial,html.Screen,4_94_0,2023-09-11T20:41:54.867Z,,0,2,,4918.043999904767,response,ISIC_8689112.JPG,5,ISIC_0046351.JPG,ISIC_0046351.JPG,false,0,keypress(z),500,2249564.799999714,2249564.5999999046,2244629.747,2244631.299999714,2244646.556,2249572.694,8,400,45,,ISIC_8689112.JPG
break,html.Screen,4_94_1,2023-09-11T20:41:54.868Z,,0,,,NaN,,,,,,false,,,,2249565.5,2249565.1999998093,,2249564.9000000954,,2249572.694,8,400,,,
break_continue,html.Screen,4_94_2,2023-09-11T20:41:54.868Z,,0,,,NaN,,,,,,false,,,,2249565.799999714,2249565.6999998093,,2249565.5999999046,,2249572.694,8,400,,,
sequence,flow.Sequence,4_94,2023-09-11T20:41:54.868Z,,0,,,4919.143999809399,completion,,,,,false,,,,2249565.9000000954,2249565.6999998093,2244629.747,2244631.299999714,2244646.556,2249572.694,8,400,,,
trial,html.Screen,4_95_0,2023-09-11T20:41:59.238Z,,0,2,,4362.706000095233,response,ISIC_0014684.JPG,5,ISIC_0061915.JPG,ISIC_0061915.JPG,false,0,keypress(z),500,2253935.5999999046,2253935.4000000954,2249556.073,2249566,2249572.694,2253947.944,8,400,46,,ISIC_0014684.JPG
break,html.Screen,4_95_1,2023-09-11T20:41:59.239Z,,0,,,NaN,,,,,,false,,,,2253936.1999998093,2253936,,2253935.6999998093,,2253947.944,8,400,,,
break_continue,html.Screen,4_95_2,2023-09-11T20:41:59.239Z,,0,,,NaN,,,,,,false,,,,2253936.5999999046,2253936.5,,2253936.4000000954,,2253947.944,8,400,,,
sequence,flow.Sequence,4_95,2023-09-11T20:41:59.239Z,,0,,,4363.805999999866,completion,,,,,false,,,,2253936.6999998093,2253936.5,2249556.073,2249566,2249572.694,2253947.944,8,400,,,
trial,html.Screen,4_96_0,2023-09-11T20:42:04.745Z,,0,2,,5494.555999999866,response,ISIC_7599444.JPG,6,ISIC_0054329.JPG,ISIC_0054329.JPG,false,0,keypress(z),500,2259442.799999714,2259442.5,2253931.138,2253936.6999998093,2253947.944,2259475.262,8,400,47,,ISIC_7599444.JPG
break,html.Screen,4_96_1,2023-09-11T20:42:04.746Z,,0,,,NaN,,,,,,false,,,,2259443.299999714,2259443.0999999046,,2259443,,2259475.262,8,400,,,
break_continue,html.Screen,4_96_2,2023-09-11T20:42:04.746Z,,0,,,NaN,,,,,,false,,,,2259443.4000000954,2259443.4000000954,,2259443.299999714,,2259475.262,8,400,,,
sequence,flow.Sequence,4_96,2023-09-11T20:42:04.746Z,,0,,,5495.456000095233,completion,,,,,false,,,,2259443.5,2259443.4000000954,2253931.138,2253936.6999998093,2253947.944,2259475.262,8,400,,,
trial,html.Screen,4_97_0,2023-09-11T20:42:09.692Z,,0,2,,4913.737999999896,response,ISIC_3058627.JPG,6,ISIC_4307205.JPG,ISIC_4307205.JPG,false,0,keypress(z),500,2264389.299999714,2264389,2259458.731,2259443.5999999046,2259475.262,2264401.609,8,400,48,,ISIC_3058627.JPG
break,html.Screen,4_97_1,2023-09-11T20:42:09.694Z,,0,,,NaN,,,,,,false,,,,2264391.1999998093,2264390.5,,2264389.6999998093,,2264401.609,8,400,,,
break_continue,html.Screen,4_97_2,2023-09-11T20:42:09.695Z,,0,,,NaN,,,,,,false,,,,2264392.299999714,2264392,,2264391.5,,2264401.609,8,400,,,
sequence,flow.Sequence,4_97,2023-09-11T20:42:09.695Z,,0,,,4916.737999999896,completion,,,,,false,,,,2264392.9000000954,2264392,2259458.731,2259443.5,2259475.262,2264401.609,8,400,,,
trial,html.Screen,4_98_0,2023-09-11T20:42:14.467Z,,0,2,,4762.990999904461,response,ISIC_4247149.JPG,5,ISIC_0057815.JPG,ISIC_0057815.JPG,false,0,keypress(z),500,2269164.6999998093,2269164.5999999046,2264384.839,2264393.1999998093,2264401.609,2269177.537,8,400,49,,ISIC_4247149.JPG
break,html.Screen,4_98_1,2023-09-11T20:42:14.468Z,,0,,,NaN,,,,,,false,,,,2269165.5999999046,2269165.4000000954,,2269165,,2269177.537,8,400,,,
break_continue,html.Screen,4_98_2,2023-09-11T20:42:14.468Z,,0,,,NaN,,,,,,false,,,,2269165.799999714,2269165.799999714,,2269165.799999714,,2269177.537,8,400,,,
sequence,flow.Sequence,4_98,2023-09-11T20:42:14.469Z,,0,,,4764.190999713726,completion,,,,,false,,,,2269166,2269165.799999714,2264384.839,2264393.0999999046,2264401.609,2269177.537,8,400,,,
trial,html.Screen,4_99_0,2023-09-11T20:42:21.434Z,,0,2,,6952.863000095356,response,ISIC_0010618.JPG,5,ISIC_2141003.JPG,ISIC_2141003.JPG,false,0,keypress(z),500,2276130.5,2276130.4000000954,2269160.812,2269166,2269177.537,2276141.053,8,400,50,,ISIC_0010618.JPG
break,html.Screen,4_99_1,2023-09-11T20:42:31.431Z,,0,,,10002.881000000052,timeout,,,,,false,,,,2286128.1999998093,2286127.308,2276124.425,2276130.5999999046,2276141.053,2286143.934,8,400,,,
break_continue,html.Screen,4_99_2,2023-09-11T20:45:44.604Z,,0,,,193139.5660000001,response,,,,,false,continue,keypress(Space),,2479298.4000000954,2479283.5,2286127.308,2286128.4000000954,2286143.934,2479303.032,8,400,,,
sequence,flow.Sequence,4_99,2023-09-11T20:45:44.604Z,,0,,,210105.963,completion,,,,,false,,,,2479298.5,2479283.5,2269160.812,2269166,2269177.537,2479303.032,8,400,,,
trial,html.Screen,4_100_0,2023-09-11T20:45:49.727Z,,0,3,,5117.967999999877,response,ISIC_0029874.JPG,5,ISIC_0031877.JPG,ISIC_0031877.JPG,false,0,keypress(z),500,2484421.4000000954,2484421,2479286.345,2479298.5999999046,2479303.032,2484429.842,8,400,1,,ISIC_0029874.JPG
break,html.Screen,4_100_1,2023-09-11T20:45:49.729Z,,0,,,NaN,,,,,,false,,,,2484423.5,2484423,,2484422.299999714,,2484429.842,8,400,,,
break_continue,html.Screen,4_100_2,2023-09-11T20:45:49.730Z,,0,,,NaN,,,,,,false,,,,2484424.4000000954,2484424.299999714,,2484423.799999714,,2484429.842,8,400,,,
sequence,flow.Sequence,4_100,2023-09-11T20:45:49.731Z,,0,,,5121.267999713775,completion,,,,,false,,,,2484424.9000000954,2484424.299999714,2479286.345,2479298.5999999046,2479303.032,2484429.842,8,400,,,
trial,html.Screen,4_101_0,2023-09-11T20:45:55.293Z,,0,3,,5557.257999904454,response,ISIC_8356468.JPG,6,ISIC_0024805.JPG,ISIC_0024805.JPG,false,0,keypress(z),500,2489987.1999998093,2489987.0999999046,2484413.011,2484425.1999998093,2484429.842,2489990.532,8,400,2,,ISIC_8356468.JPG
break,html.Screen,4_101_1,2023-09-11T20:45:55.293Z,,0,,,NaN,,,,,,false,,,,2489987.5999999046,2489987.5,,2489987.299999714,,2489990.532,8,400,,,
break_continue,html.Screen,4_101_2,2023-09-11T20:45:55.294Z,,0,,,NaN,,,,,,false,,,,2489987.799999714,2489987.6999998093,,2489987.5999999046,,2489990.532,8,400,,,
sequence,flow.Sequence,4_101,2023-09-11T20:45:55.294Z,,0,,,5557.857999809086,completion,,,,,false,,,,2489987.9000000954,2489987.6999998093,2484413.011,2484425.0999999046,2484429.842,2489990.532,8,400,,,
trial,html.Screen,4_102_0,2023-09-11T20:46:01.321Z,,0,3,,6024.667999809142,response,ISIC_0066429.JPG,5,ISIC_1722909.JPG,ISIC_0066429.JPG,false,1,keypress(m),500,2496015.299999714,2496015.1999998093,2489974.005,2489987.9000000954,2489990.532,2496018.915,8,400,3,,ISIC_1722909.JPG
break,html.Screen,4_102_1,2023-09-11T20:46:01.322Z,,0,,,NaN,,,,,,false,,,,2496016,2496015.799999714,,2496015.4000000954,,2496018.915,8,400,,,
break_continue,html.Screen,4_102_2,2023-09-11T20:46:01.322Z,,0,,,NaN,,,,,,false,,,,2496016.4000000954,2496016.299999714,,2496016.0999999046,,2496018.915,8,400,,,
sequence,flow.Sequence,4_102,2023-09-11T20:46:01.322Z,,0,,,6025.767999713775,completion,,,,,false,,,,2496016.5999999046,2496016.299999714,2489974.005,2489987.9000000954,2489990.532,2496018.915,8,400,,,
trial,html.Screen,4_103_0,2023-09-11T20:46:05.981Z,,0,3,,4656.184999904595,response,ISIC_4508878.JPG,5,ISIC_0030697.JPG,ISIC_4508878.JPG,false,1,keypress(m),500,2500675.5,2500675.0999999046,2496002.401,2496016.6999998093,2496018.915,2500678.134,8,400,4,,ISIC_0030697.JPG
break,html.Screen,4_103_1,2023-09-11T20:46:05.983Z,,0,,,NaN,,,,,,false,,,,2500677.0999999046,2500676.5999999046,,2500675.9000000954,,2500678.134,8,400,,,
break_continue,html.Screen,4_103_2,2023-09-11T20:46:05.984Z,,0,,,NaN,,,,,,false,,,,2500677.9000000954,2500677.6999998093,,2500677.299999714,,2500678.134,8,400,,,
sequence,flow.Sequence,4_103,2023-09-11T20:46:05.984Z,,0,,,4658.784999809228,completion,,,,,false,,,,2500678.0999999046,2500677.6999998093,2496002.401,2496016.6999998093,2496018.915,2500678.134,8,400,,,
trial,html.Screen,4_104_0,2023-09-11T20:46:11.605Z,,0,3,,5621.065999809187,response,ISIC_0009298.JPG,5,ISIC_0030666.JPG,ISIC_0030666.JPG,false,0,keypress(z),500,2506299.4000000954,2506299.1999998093,2500661.284,2500678.5,2500678.134,2506305.701,8,400,5,,ISIC_0009298.JPG
break,html.Screen,4_104_1,2023-09-11T20:46:11.606Z,,0,,,NaN,,,,,,false,,,,2506300.0999999046,2506299.9000000954,,2506299.5999999046,,2506305.701,8,400,,,
break_continue,html.Screen,4_104_2,2023-09-11T20:46:11.606Z,,0,,,NaN,,,,,,false,,,,2506300.4000000954,2506300.299999714,,2506300.1999998093,,2506305.701,8,400,,,
sequence,flow.Sequence,4_104,2023-09-11T20:46:11.606Z,,0,,,5622.1659997138195,completion,,,,,false,,,,2506300.4000000954,2506300.299999714,2500661.284,2500678.4000000954,2500678.134,2506305.701,8,400,,,
trial,html.Screen,4_105_0,2023-09-11T20:46:15.968Z,,0,3,,4356.2990000001155,response,ISIC_0055367.JPG,4,ISIC_0030443.JPG,ISIC_0055367.JPG,false,1,keypress(m),500,2510662.4000000954,2510662,2506289.103,2506300.5999999046,2506305.701,2510680.94,8,400,6,,ISIC_0030443.JPG
break,html.Screen,4_105_1,2023-09-11T20:46:15.970Z,,0,,,NaN,,,,,,false,,,,2510664,2510663.4000000954,,2510662.799999714,,2510680.94,8,400,,,
break_continue,html.Screen,4_105_2,2023-09-11T20:46:15.973Z,,0,,,NaN,,,,,,false,,,,2510666.6999998093,2510666.4000000954,,2510665.9000000954,,2510680.94,8,400,,,
sequence,flow.Sequence,4_105,2023-09-11T20:46:15.973Z,,0,,,4360.699000095483,completion,,,,,false,,,,2510667.0999999046,2510666.4000000954,2506289.103,2506300.5,2506305.701,2510680.94,8,400,,,
trial,html.Screen,4_106_0,2023-09-11T20:46:20.217Z,,0,3,,4229.560000000056,response,ISIC_0006327.JPG,5,ISIC_0010757.JPG,ISIC_0010757.JPG,false,0,keypress(z),500,2514910.799999714,2514910.5,2510664.167,2510667.4000000954,2510680.94,2514922.442,8,400,7,,ISIC_0006327.JPG
break,html.Screen,4_106_1,2023-09-11T20:46:20.218Z,,0,,,NaN,,,,,,false,,,,2514911.9000000954,2514911.6999998093,,2514911.0999999046,,2514922.442,8,400,,,
break_continue,html.Screen,4_106_2,2023-09-11T20:46:20.218Z,,0,,,NaN,,,,,,false,,,,2514912.5999999046,2514912.5,,2514912.0999999046,,2514922.442,8,400,,,
sequence,flow.Sequence,4_106,2023-09-11T20:46:20.219Z,,0,,,4231.560000000056,completion,,,,,false,,,,2514912.799999714,2514912.5,2510664.167,2510667.4000000954,2510680.94,2514922.442,8,400,,,
trial,html.Screen,4_107_0,2023-09-11T20:46:25.678Z,,0,3,,5449.357999714091,response,ISIC_0071576.JPG,4,ISIC_6639094.JPG,ISIC_0071576.JPG,false,1,keypress(m),500,2520371.9000000954,2520371.799999714,2514905.687,2514913,2514922.442,2520383.031,8,400,8,,ISIC_6639094.JPG
break,html.Screen,4_107_1,2023-09-11T20:46:25.678Z,,0,,,NaN,,,,,,false,,,,2520372.4000000954,2520372.1999998093,,2520372,,2520383.031,8,400,,,
break_continue,html.Screen,4_107_2,2023-09-11T20:46:25.679Z,,0,,,NaN,,,,,,false,,,,2520372.6999998093,2520372.5999999046,,2520372.5,,2520383.031,8,400,,,
sequence,flow.Sequence,4_107,2023-09-11T20:46:25.679Z,,0,,,5450.157999904826,completion,,,,,false,,,,2520372.799999714,2520372.5999999046,2514905.687,2514912.9000000954,2514922.442,2520383.031,8,400,,,
trial,html.Screen,4_108_0,2023-09-11T20:46:30.128Z,,0,3,,4438.668999809306,response,ISIC_0053513.JPG,5,ISIC_3046905.JPG,ISIC_0053513.JPG,false,1,keypress(m),500,2524821.799999714,2524821.6999998093,2520366.288,2520372.9000000954,2520383.031,2524841.701,8,400,9,,ISIC_3046905.JPG
break,html.Screen,4_108_1,2023-09-11T20:46:30.128Z,,0,,,NaN,,,,,,false,,,,2524822.1999998093,2524822.0999999046,,2524821.9000000954,,2524841.701,8,400,,,
break_continue,html.Screen,4_108_2,2023-09-11T20:46:30.128Z,,0,,,NaN,,,,,,false,,,,2524822.4000000954,2524822.299999714,,2524822.299999714,,2524841.701,8,400,,,
sequence,flow.Sequence,4_108,2023-09-11T20:46:30.128Z,,0,,,4439.268999713939,completion,,,,,false,,,,2524822.5,2524822.299999714,2520366.288,2520372.799999714,2520383.031,2524841.701,8,400,,,
trial,html.Screen,4_109_0,2023-09-11T20:46:37.090Z,,0,3,,6942.2990000001155,response,ISIC_0027088.JPG,5,ISIC_0058071.JPG,ISIC_0058071.JPG,false,0,keypress(z),500,2531784.0999999046,2531784,2524825.081,2524822.5,2524841.701,2531788.588,8,400,10,,ISIC_0027088.JPG
break,html.Screen,4_109_1,2023-09-11T20:46:37.090Z,,0,,,NaN,,,,,,false,,,,2531784.5999999046,2531784.5,,2531784.0999999046,,2531788.588,8,400,,,
break_continue,html.Screen,4_109_2,2023-09-11T20:46:37.091Z,,0,,,NaN,,,,,,false,,,,2531785,2531784.9000000954,,2531784.799999714,,2531788.588,8,400,,,
sequence,flow.Sequence,4_109,2023-09-11T20:46:37.091Z,,0,,,6943.199000095483,completion,,,,,false,,,,2531785.1999998093,2531784.9000000954,2524825.081,2524822.5,2524841.701,2531788.588,8,400,,,
trial,html.Screen,4_110_0,2023-09-11T20:46:42.070Z,,0,3,,4975.412000000011,response,ISIC_0027666.JPG,6,ISIC_1740912.JPG,ISIC_0027666.JPG,false,1,keypress(m),500,2536764.1999998093,2536764,2531771.869,2531785.1999998093,2531788.588,2536764.876,8,400,11,,ISIC_1740912.JPG
break,html.Screen,4_110_1,2023-09-11T20:46:42.071Z,,0,,,NaN,,,,,,false,,,,2536765,2536764.799999714,,2536764.4000000954,,2536764.876,8,400,,,
break_continue,html.Screen,4_110_2,2023-09-11T20:46:42.071Z,,0,,,NaN,,,,,,false,,,,2536765.4000000954,2536765.299999714,,2536765.0999999046,,2536764.876,8,400,,,
sequence,flow.Sequence,4_110,2023-09-11T20:46:42.071Z,,0,,,4976.711999713909,completion,,,,,false,,,,2536765.5999999046,2536765.299999714,2531771.869,2531785.1999998093,2531788.588,2536764.876,8,400,,,
trial,html.Screen,4_111_0,2023-09-11T20:46:48.683Z,,0,3,,6611.123999999836,response,ISIC_0558485.JPG,5,ISIC_3116288.JPG,ISIC_3116288.JPG,false,0,keypress(z),500,2543376.1999998093,2543376,2536748.356,2536765.6999998093,2536764.876,2543377.776,8,400,12,,ISIC_0558485.JPG
break,html.Screen,4_111_1,2023-09-11T20:46:48.683Z,,0,,,NaN,,,,,,false,,,,2543376.6999998093,2543376.5,,2543376.299999714,,2543377.776,8,400,,,
break_continue,html.Screen,4_111_2,2023-09-11T20:46:48.684Z,,0,,,NaN,,,,,,false,,,,2543377,2543377,,2543376.799999714,,2543377.776,8,400,,,
sequence,flow.Sequence,4_111,2023-09-11T20:46:48.684Z,,0,,,6612.123999999836,completion,,,,,false,,,,2543377.0999999046,2543377,2536748.356,2536765.6999998093,2536764.876,2543377.776,8,400,,,
trial,html.Screen,4_112_0,2023-09-11T20:46:55.901Z,,0,3,,7216.323999904562,response,ISIC_1323743.JPG,5,ISIC_2134975.JPG,ISIC_2134975.JPG,false,0,keypress(z),500,2550594.1999998093,2550594.0999999046,2543361.138,2543377.1999998093,2543377.776,2550608.612,8,400,13,,ISIC_1323743.JPG
break,html.Screen,4_112_1,2023-09-11T20:46:55.901Z,,0,,,NaN,,,,,,false,,,,2550594.5999999046,2550594.5,,2550594.299999714,,2550608.612,8,400,,,
break_continue,html.Screen,4_112_2,2023-09-11T20:46:55.902Z,,0,,,NaN,,,,,,false,,,,2550594.799999714,2550594.799999714,,2550594.6999998093,,2550608.612,8,400,,,
sequence,flow.Sequence,4_112,2023-09-11T20:46:55.902Z,,0,,,7217.023999713827,completion,,,,,false,,,,2550594.9000000954,2550594.799999714,2543361.138,2543377.0999999046,2543377.776,2550608.612,8,400,,,
trial,html.Screen,4_113_0,2023-09-11T20:46:59.557Z,,0,3,,3641.6879997137003,response,ISIC_0014190.JPG,5,ISIC_0009993.JPG,ISIC_0009993.JPG,false,0,keypress(z),500,2554250.5999999046,2554250.299999714,2550591.899,2550594.9000000954,2550608.612,2554265.623,8,400,14,,ISIC_0014190.JPG
break,html.Screen,4_113_1,2023-09-11T20:46:59.558Z,,0,,,NaN,,,,,,false,,,,2554251.0999999046,2554251,,2554250.6999998093,,2554265.623,8,400,,,
break_continue,html.Screen,4_113_2,2023-09-11T20:46:59.558Z,,0,,,NaN,,,,,,false,,,,2554251.299999714,2554251.299999714,,2554251.0999999046,,2554265.623,8,400,,,
sequence,flow.Sequence,4_113,2023-09-11T20:46:59.558Z,,0,,,3642.6879997137003,completion,,,,,false,,,,2554251.4000000954,2554251.299999714,2550591.899,2550594.9000000954,2550608.612,2554265.623,8,400,,,
trial,html.Screen,4_114_0,2023-09-11T20:47:04.016Z,,0,3,,4442.976999904495,response,ISIC_4066094.JPG,5,ISIC_6284012.JPG,ISIC_6284012.JPG,false,0,keypress(z),500,2558708.6999998093,2558708.5999999046,2554248.878,2554251.5999999046,2554265.623,2558724.377,8,400,15,,ISIC_4066094.JPG
break,html.Screen,4_114_1,2023-09-11T20:47:04.016Z,,0,,,NaN,,,,,,false,,,,2558709.4000000954,2558709.1999998093,,2558708.9000000954,,2558724.377,8,400,,,
break_continue,html.Screen,4_114_2,2023-09-11T20:47:04.017Z,,0,,,NaN,,,,,,false,,,,2558709.9000000954,2558709.799999714,,2558709.5999999046,,2558724.377,8,400,,,
sequence,flow.Sequence,4_114,2023-09-11T20:47:04.017Z,,0,,,4444.17699971376,completion,,,,,false,,,,2558710,2558709.799999714,2554248.878,2554251.5,2554265.623,2558724.377,8,400,,,
trial,html.Screen,4_115_0,2023-09-11T20:47:09.075Z,,0,3,,5043.22299990477,response,ISIC_2131962.JPG,5,ISIC_0000551.JPG,ISIC_0000551.JPG,false,0,keypress(z),500,2563767.799999714,2563767.5999999046,2558707.683,2558710.0999999046,2558724.377,2563784.218,8,400,16,,ISIC_2131962.JPG
break,html.Screen,4_115_1,2023-09-11T20:47:09.075Z,,0,,,NaN,,,,,,false,,,,2563768.5,2563768.1999998093,,2563767.9000000954,,2563784.218,8,400,,,
break_continue,html.Screen,4_115_2,2023-09-11T20:47:09.075Z,,0,,,NaN,,,,,,false,,,,2563768.6999998093,2563768.6999998093,,2563768.5,,2563784.218,8,400,,,
sequence,flow.Sequence,4_115,2023-09-11T20:47:09.076Z,,0,,,5044.322999809403,completion,,,,,false,,,,2563768.799999714,2563768.6999998093,2558707.683,2558710.0999999046,2558724.377,2563784.218,8,400,,,
trial,html.Screen,4_116_0,2023-09-11T20:47:16.501Z,,0,3,,7409.581999714021,response,ISIC_0032192.JPG,5,ISIC_0015071.JPG,ISIC_0032192.JPG,false,1,keypress(m),500,2571193.9000000954,2571193.799999714,2563767.458,2563768.9000000954,2563784.218,2571198.56,8,400,17,,ISIC_0015071.JPG
break,html.Screen,4_116_1,2023-09-11T20:47:16.501Z,,0,,,NaN,,,,,,false,,,,2571194.1999998093,2571194.1999998093,,2571193.9000000954,,2571198.56,8,400,,,
break_continue,html.Screen,4_116_2,2023-09-11T20:47:16.501Z,,0,,,NaN,,,,,,false,,,,2571194.4000000954,2571194.4000000954,,2571194.299999714,,2571198.56,8,400,,,
sequence,flow.Sequence,4_116,2023-09-11T20:47:16.501Z,,0,,,7410.18200009549,completion,,,,,false,,,,2571194.5,2571194.4000000954,2563767.458,2563768.9000000954,2563784.218,2571198.56,8,400,,,
trial,html.Screen,4_117_0,2023-09-11T20:47:21.431Z,,0,3,,4925.439999999944,response,ISIC_5122220.JPG,4,ISIC_0011238.JPG,ISIC_0011238.JPG,false,0,keypress(z),500,2576124.1999998093,2576124,2571182.021,2571194.5999999046,2571198.56,2576124.859,8,400,18,,ISIC_5122220.JPG
break,html.Screen,4_117_1,2023-09-11T20:47:21.432Z,,0,,,NaN,,,,,,false,,,,2576124.799999714,2576124.6999998093,,2576124.4000000954,,2576124.859,8,400,,,
break_continue,html.Screen,4_117_2,2023-09-11T20:47:21.432Z,,0,,,NaN,,,,,,false,,,,2576125.0999999046,2576125.0999999046,,2576124.799999714,,2576124.859,8,400,,,
sequence,flow.Sequence,4_117,2023-09-11T20:47:21.432Z,,0,,,4926.539999904577,completion,,,,,false,,,,2576125.1999998093,2576125.0999999046,2571182.021,2571194.5,2571198.56,2576124.859,8,400,,,
trial,html.Screen,4_118_0,2023-09-11T20:47:26.923Z,,0,3,,5491.640999999829,response,ISIC_0067467.JPG,5,ISIC_9178485.JPG,ISIC_0067467.JPG,false,1,keypress(m),500,2581616.6999998093,2581616.5,2576108.294,2576125.1999998093,2576124.859,2581618.828,8,400,19,,ISIC_9178485.JPG
break,html.Screen,4_118_1,2023-09-11T20:47:26.924Z,,0,,,NaN,,,,,,false,,,,2581617.299999714,2581617.0999999046,,2581616.799999714,,2581618.828,8,400,,,
break_continue,html.Screen,4_118_2,2023-09-11T20:47:26.924Z,,0,,,NaN,,,,,,false,,,,2581617.5,2581617.5,,2581617.299999714,,2581618.828,8,400,,,
sequence,flow.Sequence,4_118,2023-09-11T20:47:26.924Z,,0,,,5492.640999999829,completion,,,,,false,,,,2581617.6999998093,2581617.5,2576108.294,2576125.1999998093,2576124.859,2581618.828,8,400,,,
trial,html.Screen,4_119_0,2023-09-11T20:47:33.838Z,,0,3,,6912.27199990442,response,ISIC_0031972.JPG,5,ISIC_4120174.JPG,ISIC_4120174.JPG,false,0,keypress(z),500,2588531.1999998093,2588531.0999999046,2581602.182,2581617.6999998093,2581618.828,2588532.319,8,400,20,,ISIC_0031972.JPG
break,html.Screen,4_119_1,2023-09-11T20:47:33.838Z,,0,,,NaN,,,,,,false,,,,2588531.5999999046,2588531.5,,2588531.299999714,,2588532.319,8,400,,,
break_continue,html.Screen,4_119_2,2023-09-11T20:47:33.839Z,,0,,,NaN,,,,,,false,,,,2588531.9000000954,2588531.799999714,,2588531.6999998093,,2588532.319,8,400,,,
sequence,flow.Sequence,4_119,2023-09-11T20:47:33.839Z,,0,,,6912.971999713685,completion,,,,,false,,,,2588532,2588531.799999714,2581602.182,2581617.6999998093,2581618.828,2588532.319,8,400,,,
trial,html.Screen,4_120_0,2023-09-11T20:47:37.409Z,,0,3,,3569.880999809131,response,ISIC_9061511.JPG,6,ISIC_0030694.JPG,ISIC_0030694.JPG,false,0,keypress(z),500,2592102.4000000954,2592102.1999998093,2588515.752,2588532.0999999046,2588532.319,2592105.946,8,400,21,,ISIC_9061511.JPG
break,html.Screen,4_120_1,2023-09-11T20:47:37.410Z,,0,,,NaN,,,,,,false,,,,2592103.0999999046,2592102.9000000954,,2592102.5999999046,,2592105.946,8,400,,,
break_continue,html.Screen,4_120_2,2023-09-11T20:47:37.410Z,,0,,,NaN,,,,,,false,,,,2592103.299999714,2592103.299999714,,2592103.1999998093,,2592105.946,8,400,,,
sequence,flow.Sequence,4_120,2023-09-11T20:47:37.410Z,,0,,,3570.9809997137636,completion,,,,,false,,,,2592103.4000000954,2592103.299999714,2588515.752,2588532.0999999046,2588532.319,2592105.946,8,400,,,
trial,html.Screen,4_121_0,2023-09-11T20:47:40.726Z,,0,3,,3313.3539997139014,response,ISIC_0009931.JPG,4,ISIC_2819721.JPG,ISIC_0009931.JPG,false,1,keypress(m),500,2595419.5,2595419.299999714,2592089.214,2592103.5,2592105.946,2595429.042,8,400,22,,ISIC_2819721.JPG
break,html.Screen,4_121_1,2023-09-11T20:47:40.727Z,,0,,,NaN,,,,,,false,,,,2595419.9000000954,2595419.9000000954,,2595419.5999999046,,2595429.042,8,400,,,
break_continue,html.Screen,4_121_2,2023-09-11T20:47:40.727Z,,0,,,NaN,,,,,,false,,,,2595420.1999998093,2595420.1999998093,,2595420.0999999046,,2595429.042,8,400,,,
sequence,flow.Sequence,4_121,2023-09-11T20:47:40.727Z,,0,,,3314.253999809269,completion,,,,,false,,,,2595420.1999998093,2595420.1999998093,2592089.214,2592103.5,2592105.946,2595429.042,8,400,,,
trial,html.Screen,4_122_0,2023-09-11T20:47:45.034Z,,0,3,,4296.757999713998,response,ISIC_0013997.JPG,5,ISIC_0071434.JPG,ISIC_0071434.JPG,false,0,keypress(z),500,2599726.299999714,2599725.799999714,2595412.381,2595420.299999714,2595429.042,2599737.532,8,400,23,,ISIC_0013997.JPG
break,html.Screen,4_122_1,2023-09-11T20:47:45.035Z,,0,,,NaN,,,,,,false,,,,2599728,2599727.4000000954,,2599726.6999998093,,2599737.532,8,400,,,
break_continue,html.Screen,4_122_2,2023-09-11T20:47:45.036Z,,0,,,NaN,,,,,,false,,,,2599728.9000000954,2599728.5999999046,,2599728.1999998093,,2599737.532,8,400,,,
sequence,flow.Sequence,4_122,2023-09-11T20:47:45.036Z,,0,,,4299.557999904733,completion,,,,,false,,,,2599729.1999998093,2599728.5999999046,2595412.381,2595420.299999714,2595429.042,2599737.532,8,400,,,
trial,html.Screen,4_123_0,2023-09-11T20:47:49.664Z,,0,3,,4618.667999809142,response,ISIC_0268187.JPG,5,ISIC_4372519.JPG,ISIC_0268187.JPG,false,1,keypress(m),500,2604356.5,2604356.1999998093,2599720.834,2599729.4000000954,2599737.532,2604363.144,8,400,24,,ISIC_4372519.JPG
break,html.Screen,4_123_1,2023-09-11T20:47:49.665Z,,0,,,NaN,,,,,,false,,,,2604357.4000000954,2604357.0999999046,,2604356.6999998093,,2604363.144,8,400,,,
break_continue,html.Screen,4_123_2,2023-09-11T20:47:49.665Z,,0,,,NaN,,,,,,false,,,,2604357.6999998093,2604357.5999999046,,2604357.4000000954,,2604363.144,8,400,,,
