sender,sender_type,sender_id,timestamp,meta,,blockNo,condition,duration,ended_on,img_left,img_reveal,img_right,loser,practice,response,response_action,selection_duration,time_commit,time_end,time_render,time_run,time_show,time_switch,total_blocks,total_trials,trialNo,url,winner
informed_consent,html.Screen,0,2023-09-09T16:05:28.610Z,"{""labjs_version"":""20.2.4"",""labjs_build"":{""flavor"":""development"",""commit"":""f5b4a49f956347addd546a832a3327688c2c0fef""},""location"":""https://labjs.felixhenninger.com/api/labjs_preview/index.html"",""userAgent"":""Mozilla/5.0 (Windows NT 10.0; Win64; x64) AppleWebKit/537.36 (KHTML, like Gecko) Chrome/116.0.0.0 Safari/537.36"",""platform"":""Win32"",""language"":""en-AU"",""locale"":""en-US"",""timeZone"":""America/Chicago"",""timezoneOffset"":300,""screen_width"":1680,""screen_height"":1050,""scroll_width"":1296,""scroll_height"":688,""window_innerWidth"":1296,""window_innerHeight"":736,""devicePixelRatio"":1}",,,,74805.01300009536,response,,,,,,consent,click button,,75374.40000009537,75364.90000009537,543.182,551.3000001907349,559.887,75372.103,,,,{},
Welcome,html.Screen,1,2023-09-09T16:05:35.819Z,,,,symmetry,7210.99699990463,response,,,,,,continue,click button,,82583.7000002861,82583.09999990463,75355.799,75374.80000019073,75372.103,82586.181,,,,,
trial,html.Screen,2_0_0,2023-09-09T16:05:39.806Z,,0,0,,3983.819000000003,response,ISIC_6997061.JPG,,ISIC_0069348.JPG,ISIC_0069348.JPG,true,0,keypress(z),500,86570.09999990463,86570,82569.653,82583.80000019073,82586.181,86594.127,1,6,1,,ISIC_6997061.JPG
sequence,flow.Sequence,2_0,2023-09-09T16:05:39.806Z,,0,,,3983.819000000003,completion,,,,,true,,,,86570.2000002861,86570,82569.653,82583.80000019073,82586.181,86594.127,1,6,,,
trial,html.Screen,2_1_0,2023-09-09T16:05:42.559Z,,0,0,,2729.373000000007,response,ISIC_0009529.JPG,,ISIC_0057368.JPG,ISIC_0057368.JPG,true,0,keypress(z),500,89323.59999990463,89323.5,86577.332,86570.30000019073,86594.127,89332.699,1,6,2,,ISIC_0009529.JPG
sequence,flow.Sequence,2_1,2023-09-09T16:05:42.559Z,,0,,,2729.373000000007,completion,,,,,true,,,,89323.7000002861,89323.5,86577.332,86570.30000019073,86594.127,89332.699,1,6,,,
trial,html.Screen,2_2_0,2023-09-09T16:05:45.168Z,,0,0,,2600.001000286109,response,ISIC_9758671.JPG,,ISIC_0064954.JPG,ISIC_0064954.JPG,true,0,keypress(z),500,91932.80000019073,91932.7000002861,89315.897,89323.80000019073,89332.699,91937.74,1,6,3,,ISIC_9758671.JPG
sequence,flow.Sequence,2_2,2023-09-09T16:05:45.169Z,,0,,,2600.001000286109,completion,,,,,true,,,,91933,91932.7000002861,89315.897,89323.80000019073,89332.699,91937.74,1,6,,,
trial,html.Screen,2_3_0,2023-09-09T16:05:47.554Z,,0,0,,2380.0600001907296,response,ISIC_0005785.JPG,,ISIC_0000080.JPG,ISIC_0000080.JPG,true,0,keypress(z),500,94317.90000009537,94317.80000019073,91920.986,91933.09999990463,91937.74,94325.739,1,6,4,,ISIC_0005785.JPG
sequence,flow.Sequence,2_3,2023-09-09T16:05:47.554Z,,0,,,2380.0600001907296,completion,,,,,true,,,,94318.09999990463,94317.80000019073,91920.986,91933,91937.74,94325.739,1,6,,,
trial,html.Screen,2_4_0,2023-09-09T16:05:49.989Z,,0,0,,2427.360999904631,response,ISIC_5390060.JPG,,ISIC_7944028.JPG,ISIC_7944028.JPG,true,0,keypress(z),500,96753.30000019073,96753.09999990463,94309.032,94318.2000002861,94325.739,96763.807,1,6,5,,ISIC_5390060.JPG
sequence,flow.Sequence,2_4,2023-09-09T16:05:49.989Z,,0,,,2427.360999904631,completion,,,,,true,,,,96753.5,96753.09999990463,94309.032,94318.09999990463,94325.739,96763.807,1,6,,,
trial,html.Screen,2_5_0,2023-09-09T16:05:52.633Z,,0,0,,2631.6929999999993,response,ISIC_0794216.JPG,,ISIC_0010188.JPG,ISIC_0010188.JPG,true,0,keypress(z),500,99395.80000019073,99395.5,96747.206,96753.7000002861,96763.807,99402.235,1,6,6,,ISIC_0794216.JPG
sequence,flow.Sequence,2_5,2023-09-09T16:05:52.633Z,,0,,,2631.6929999999993,completion,,,,,true,,,,99396.2000002861,99395.5,96747.206,96753.7000002861,96763.807,99402.235,1,6,,,
loop,flow.Loop,2,2023-09-09T16:05:52.634Z,,,,,16809.319000000003,completion,,,,,true,,,,99396.5,99395.5,82569.653,82583.80000019073,82586.181,99402.235,1,6,,,
exp_instructions,html.Screen,3,2023-09-09T16:06:25.817Z,,,,,33177.4650002861,response,,,,,,continue,keypress(Space),,132580.09999990463,132579.7000002861,99385.564,99396.59999990463,99402.235,132600.142,,,,,
trial,html.Screen,4_0_0,2023-09-09T16:06:35.250Z,,0,1,,9412.258000095375,response,ISIC_0011757.JPG,5,ISIC_2743014.JPG,ISIC_0011757.JPG,false,1,keypress(m),500,142012.5,142012.40000009537,132583.558,132580.30000019073,132600.142,142018.482,8,400,1,,ISIC_2743014.JPG
break,html.Screen,4_0_1,2023-09-09T16:06:35.250Z,,0,,,NaN,,,,,,false,,,,142013,142012.90000009537,,142012.59999990463,,142018.482,8,400,,,
break_continue,html.Screen,4_0_2,2023-09-09T16:06:35.251Z,,0,,,NaN,,,,,,false,,,,142013.30000019073,142013.2000002861,,142013.09999990463,,142018.482,8,400,,,
sequence,flow.Sequence,4_0,2023-09-09T16:06:35.251Z,,0,,,9413.05800028611,completion,,,,,false,,,,142013.30000019073,142013.2000002861,132583.558,132580.30000019073,132600.142,142018.482,8,400,,,
trial,html.Screen,4_1_0,2023-09-09T16:06:42.504Z,,0,1,,7247.518000000011,response,ISIC_9433388.JPG,5,ISIC_7951202.JPG,ISIC_7951202.JPG,false,0,keypress(z),500,149266.2000002861,149266,142001.878,142013.30000019073,142018.482,149299.345,8,400,2,,ISIC_9433388.JPG
break,html.Screen,4_1_1,2023-09-09T16:06:42.504Z,,0,,,NaN,,,,,,false,,,,149266.90000009537,149266.7000002861,,149266.30000019073,,149299.345,8,400,,,
break_continue,html.Screen,4_1_2,2023-09-09T16:06:42.504Z,,0,,,NaN,,,,,,false,,,,149267.2000002861,149267,,149267,,149299.345,8,400,,,
sequence,flow.Sequence,4_1,2023-09-09T16:06:42.505Z,,0,,,7248.518000000011,completion,,,,,false,,,,149267.2000002861,149267,142001.878,142013.30000019073,142018.482,149299.345,8,400,,,
trial,html.Screen,4_2_0,2023-09-09T16:06:49.132Z,,0,1,,6595.254999904631,response,ISIC_0485996.JPG,5,ISIC_7168122.JPG,ISIC_0485996.JPG,false,1,keypress(m),500,155894.90000009537,155894.59999990463,149282.625,149267.40000009537,149299.345,155912.221,8,400,3,,ISIC_7168122.JPG
break,html.Screen,4_2_1,2023-09-09T16:06:49.135Z,,0,,,NaN,,,,,,false,,,,155897.30000019073,155896.90000009537,,155895.30000019073,,155912.221,8,400,,,
break_continue,html.Screen,4_2_2,2023-09-09T16:06:49.135Z,,0,,,NaN,,,,,,false,,,,155898.09999990463,155898,,155897.59999990463,,155912.221,8,400,,,
sequence,flow.Sequence,4_2,2023-09-09T16:06:49.136Z,,0,,,6598.654999999999,completion,,,,,false,,,,155898.40000009537,155898,149282.625,149267.40000009537,149299.345,155912.221,8,400,,,
trial,html.Screen,4_3_0,2023-09-09T16:06:56.355Z,,0,1,,7204.579000190744,response,ISIC_0822238.JPG,5,ISIC_9538004.JPG,ISIC_0822238.JPG,false,1,keypress(m),500,163116.90000009537,163116.80000019073,155895.504,155898.7000002861,155912.221,163126.337,8,400,4,,ISIC_9538004.JPG
break,html.Screen,4_3_1,2023-09-09T16:06:56.356Z,,0,,,NaN,,,,,,false,,,,163117.40000009537,163117.30000019073,,163117,,163126.337,8,400,,,
break_continue,html.Screen,4_3_2,2023-09-09T16:06:56.356Z,,0,,,NaN,,,,,,false,,,,163117.59999990463,163117.5,,163117.40000009537,,163126.337,8,400,,,
sequence,flow.Sequence,4_3,2023-09-09T16:06:56.356Z,,0,,,7205.27900000001,completion,,,,,false,,,,163117.7000002861,163117.5,155895.504,155898.59999990463,155912.221,163126.337,8,400,,,
trial,html.Screen,4_4_0,2023-09-09T16:07:04.444Z,,0,1,,8079.063000095368,response,ISIC_0830131.JPG,6,ISIC_1782911.JPG,ISIC_1782911.JPG,false,0,keypress(z),500,171205.59999990463,171205.40000009537,163109.531,163117.80000019073,163126.337,171208.638,8,400,5,,ISIC_0830131.JPG
break,html.Screen,4_4_1,2023-09-09T16:07:04.445Z,,0,,,NaN,,,,,,false,,,,171206.40000009537,171206.09999990463,,171205.80000019073,,171208.638,8,400,,,
break_continue,html.Screen,4_4_2,2023-09-09T16:07:04.445Z,,0,,,NaN,,,,,,false,,,,171206.80000019073,171206.7000002861,,171206.5,,171208.638,8,400,,,
sequence,flow.Sequence,4_4,2023-09-09T16:07:04.445Z,,0,,,8080.363000286103,completion,,,,,false,,,,171206.90000009537,171206.7000002861,163109.531,163117.80000019073,163126.337,171208.638,8,400,,,
trial,html.Screen,4_5_0,2023-09-09T16:07:10.483Z,,0,1,,6035.762000095361,response,ISIC_0057192.JPG,5,ISIC_5457889.JPG,ISIC_0057192.JPG,false,1,keypress(m),500,177244.59999990463,177244.40000009537,171192.094,171207,171208.638,177253.79,8,400,6,,ISIC_5457889.JPG
break,html.Screen,4_5_1,2023-09-09T16:07:10.483Z,,0,,,NaN,,,,,,false,,,,177245.09999990463,177245,,177244.7000002861,,177253.79,8,400,,,
break_continue,html.Screen,4_5_2,2023-09-09T16:07:10.484Z,,0,,,NaN,,,,,,false,,,,177245.30000019073,177245.2000002861,,177245.2000002861,,177253.79,8,400,,,
sequence,flow.Sequence,4_5,2023-09-09T16:07:10.484Z,,0,,,6036.562000286096,completion,,,,,false,,,,177245.40000009537,177245.2000002861,171192.094,171207,171208.638,177253.79,8,400,,,
trial,html.Screen,4_6_0,2023-09-09T16:07:17.862Z,,0,1,,7369.610000095359,response,ISIC_1805163.JPG,6,ISIC_7254359.JPG,ISIC_7254359.JPG,false,0,keypress(z),500,184623.5,184623.40000009537,177237.009,177245.5,177253.79,184634.726,8,400,7,,ISIC_1805163.JPG
break,html.Screen,4_6_1,2023-09-09T16:07:17.862Z,,0,,,NaN,,,,,,false,,,,184624,184623.90000009537,,184623.59999990463,,184634.726,8,400,,,
break_continue,html.Screen,4_6_2,2023-09-09T16:07:17.863Z,,0,,,NaN,,,,,,false,,,,184624.2000002861,184624.09999990463,,184624,,184634.726,8,400,,,
sequence,flow.Sequence,4_6,2023-09-09T16:07:17.863Z,,0,,,7370.309999904624,completion,,,,,false,,,,184624.30000019073,184624.09999990463,177237.009,177245.5,177253.79,184634.726,8,400,,,
trial,html.Screen,4_7_0,2023-09-09T16:07:23.432Z,,0,1,,5558.8739999046375,response,ISIC_0010145.JPG,6,ISIC_0062443.JPG,ISIC_0062443.JPG,false,0,keypress(z),500,190193.80000019073,190193.59999990463,184618.056,184624.40000009537,184634.726,190195.582,8,400,8,,ISIC_0010145.JPG
break,html.Screen,4_7_1,2023-09-09T16:07:23.433Z,,0,,,NaN,,,,,,false,,,,190194.40000009537,190194.2000002861,,190193.90000009537,,190195.582,8,400,,,
break_continue,html.Screen,4_7_2,2023-09-09T16:07:23.433Z,,0,,,NaN,,,,,,false,,,,190194.7000002861,190194.7000002861,,190194.59999990463,,190195.582,8,400,,,
sequence,flow.Sequence,4_7,2023-09-09T16:07:23.433Z,,0,,,5559.974000286107,completion,,,,,false,,,,190194.90000009537,190194.7000002861,184618.056,184624.40000009537,184634.726,190195.582,8,400,,,
trial,html.Screen,4_8_0,2023-09-09T16:07:32.874Z,,0,1,,9440.21800019074,response,ISIC_6274085.JPG,4,ISIC_0064073.JPG,ISIC_0064073.JPG,false,0,keypress(z),500,199635.90000009537,199635.80000019073,190178.875,190194.90000009537,190195.582,199647.293,8,400,9,,ISIC_6274085.JPG
break,html.Screen,4_8_1,2023-09-09T16:07:32.875Z,,0,,,NaN,,,,,,false,,,,199636.30000019073,199636.2000002861,,199636,,199647.293,8,400,,,
break_continue,html.Screen,4_8_2,2023-09-09T16:07:32.875Z,,0,,,NaN,,,,,,false,,,,199636.59999990463,199636.5,,199636.5,,199647.293,8,400,,,
sequence,flow.Sequence,4_8,2023-09-09T16:07:32.875Z,,0,,,9440.918000000005,completion,,,,,false,,,,199636.59999990463,199636.5,190178.875,190194.90000009537,190195.582,199647.293,8,400,,,
trial,html.Screen,4_9_0,2023-09-09T16:07:39.357Z,,0,1,,6471.407000286097,response,ISIC_0247197.JPG,5,ISIC_0029874.JPG,ISIC_0029874.JPG,false,0,keypress(z),500,206119,206118.7000002861,199630.598,199636.80000019073,199647.293,206126.625,8,400,10,,ISIC_0247197.JPG
break,html.Screen,4_9_1,2023-09-09T16:07:39.359Z,,0,,,NaN,,,,,,false,,,,206120.40000009537,206120.09999990463,,206119.30000019073,,206126.625,8,400,,,
break_continue,html.Screen,4_9_2,2023-09-09T16:07:39.359Z,,0,,,NaN,,,,,,false,,,,206120.80000019073,206120.7000002861,,206120.5,,206126.625,8,400,,,
sequence,flow.Sequence,4_9,2023-09-09T16:07:39.359Z,,0,,,6473.407000286097,completion,,,,,false,,,,206120.90000009537,206120.7000002861,199630.598,199636.7000002861,199647.293,206126.625,8,400,,,
trial,html.Screen,4_10_0,2023-09-09T16:07:46.497Z,,0,1,,7132.175000190735,response,ISIC_0013674.JPG,5,ISIC_0013845.JPG,ISIC_0013845.JPG,false,0,keypress(z),500,213258.90000009537,213258.80000019073,206109.963,206121,206126.625,213273.883,8,400,11,,ISIC_0013674.JPG
break,html.Screen,4_10_1,2023-09-09T16:07:46.498Z,,0,,,NaN,,,,,,false,,,,213259.7000002861,213259.30000019073,,213259,,213273.883,8,400,,,
break_continue,html.Screen,4_10_2,2023-09-09T16:07:46.498Z,,0,,,NaN,,,,,,false,,,,213260,213259.90000009537,,213259.80000019073,,213273.883,8,400,,,
sequence,flow.Sequence,4_10,2023-09-09T16:07:46.498Z,,0,,,7133.275000095367,completion,,,,,false,,,,213260.09999990463,213259.90000009537,206109.963,206121,206126.625,213273.883,8,400,,,
trial,html.Screen,4_11_0,2023-09-09T16:07:51.939Z,,0,1,,5426.917000190733,response,ISIC_0054777.JPG,4,ISIC_5491641.JPG,ISIC_0054777.JPG,false,1,keypress(m),500,218700.90000009537,218700.80000019073,213257.144,213260.09999990463,213273.883,218717.893,8,400,12,,ISIC_5491641.JPG
break,html.Screen,4_11_1,2023-09-09T16:07:51.940Z,,0,,,NaN,,,,,,false,,,,218701.40000009537,218701.30000019073,,218701,,218717.893,8,400,,,
break_continue,html.Screen,4_11_2,2023-09-09T16:07:51.940Z,,0,,,NaN,,,,,,false,,,,218701.59999990463,218701.59999990463,,218701.5,,218717.893,8,400,,,
sequence,flow.Sequence,4_11,2023-09-09T16:07:51.940Z,,0,,,5427.716999904631,completion,,,,,false,,,,218701.80000019073,218701.59999990463,213257.144,213260.09999990463,213273.883,218717.893,8,400,,,
trial,html.Screen,4_12_0,2023-09-09T16:07:58.759Z,,0,1,,6802.0070000953565,response,ISIC_8651053.JPG,6,ISIC_7297078.JPG,ISIC_7297078.JPG,false,0,keypress(z),500,225519.90000009537,225519.90000009537,218701.012,218701.90000009537,218717.893,225530.985,8,400,13,,ISIC_8651053.JPG
break,html.Screen,4_12_1,2023-09-09T16:07:58.760Z,,0,,,NaN,,,,,,false,,,,225520.40000009537,225520.30000019073,,225520,,225530.985,8,400,,,
break_continue,html.Screen,4_12_2,2023-09-09T16:07:58.760Z,,0,,,NaN,,,,,,false,,,,225520.5,225520.5,,225520.40000009537,,225530.985,8,400,,,
sequence,flow.Sequence,4_12,2023-09-09T16:07:58.760Z,,0,,,6802.606999999989,completion,,,,,false,,,,225520.5,225520.5,218701.012,218701.90000009537,218717.893,225530.985,8,400,,,
trial,html.Screen,4_13_0,2023-09-09T16:08:07.513Z,,0,1,,8742.915000095381,response,ISIC_9545819.JPG,6,ISIC_7875088.JPG,ISIC_7875088.JPG,false,0,keypress(z),500,234274,234273.90000009537,225514.308,225520.59999990463,225530.985,234281.323,8,400,14,,ISIC_9545819.JPG
break,html.Screen,4_13_1,2023-09-09T16:08:07.514Z,,0,,,NaN,,,,,,false,,,,234274.5,234274.40000009537,,234274.09999990463,,234281.323,8,400,,,
break_continue,html.Screen,4_13_2,2023-09-09T16:08:07.514Z,,0,,,NaN,,,,,,false,,,,234274.7000002861,234274.7000002861,,234274.59999990463,,234281.323,8,400,,,
sequence,flow.Sequence,4_13,2023-09-09T16:08:07.514Z,,0,,,8743.715000286116,completion,,,,,false,,,,234274.80000019073,234274.7000002861,225514.308,225520.59999990463,225530.985,234281.323,8,400,,,
trial,html.Screen,4_14_0,2023-09-09T16:08:12.210Z,,0,1,,4689.176999999996,response,ISIC_0014150.JPG,6,ISIC_0032779.JPG,ISIC_0014150.JPG,false,1,keypress(m),500,238970.59999990463,238970.5,234264.645,234274.80000019073,234281.323,238973.821,8,400,15,,ISIC_0032779.JPG
break,html.Screen,4_14_1,2023-09-09T16:08:12.210Z,,0,,,NaN,,,,,,false,,,,238971,238970.90000009537,,238970.7000002861,,238973.821,8,400,,,
break_continue,html.Screen,4_14_2,2023-09-09T16:08:12.211Z,,0,,,NaN,,,,,,false,,,,238971.09999990463,238971.09999990463,,238971,,238973.821,8,400,,,
sequence,flow.Sequence,4_14,2023-09-09T16:08:12.211Z,,0,,,4689.776999904629,completion,,,,,false,,,,238971.30000019073,238971.09999990463,234264.645,234274.80000019073,234281.323,238973.821,8,400,,,
trial,html.Screen,4_15_0,2023-09-09T16:08:17.513Z,,0,1,,5299.778999904636,response,ISIC_0055776.JPG,5,ISIC_5721677.JPG,ISIC_0055776.JPG,false,1,keypress(m),500,244273.7000002861,244273.59999990463,238957.147,238971.30000019073,238973.821,244300.837,8,400,16,,ISIC_5721677.JPG
break,html.Screen,4_15_1,2023-09-09T16:08:17.514Z,,0,,,NaN,,,,,,false,,,,244274.09999990463,244274,,244273.80000019073,,244300.837,8,400,,,
break_continue,html.Screen,4_15_2,2023-09-09T16:08:17.514Z,,0,,,NaN,,,,,,false,,,,244274.2000002861,244274.2000002861,,244274.09999990463,,244300.837,8,400,,,
sequence,flow.Sequence,4_15,2023-09-09T16:08:17.514Z,,0,,,5300.379000286106,completion,,,,,false,,,,244274.40000009537,244274.2000002861,238957.147,238971.30000019073,238973.821,244300.837,8,400,,,
trial,html.Screen,4_16_0,2023-09-09T16:08:25.116Z,,0,1,,7576.063000095368,response,ISIC_0536321.JPG,6,ISIC_0000421.JPG,ISIC_0000421.JPG,false,0,keypress(z),500,251876.90000009537,251876.90000009537,244284.242,244274.40000009537,244300.837,251882.257,8,400,17,,ISIC_0536321.JPG
break,html.Screen,4_16_1,2023-09-09T16:08:25.117Z,,0,,,NaN,,,,,,false,,,,251877.59999990463,251877.40000009537,,251877,,251882.257,8,400,,,
break_continue,html.Screen,4_16_2,2023-09-09T16:08:25.118Z,,0,,,NaN,,,,,,false,,,,251878.2000002861,251878,,251877.80000019073,,251882.257,8,400,,,
sequence,flow.Sequence,4_16,2023-09-09T16:08:25.118Z,,0,,,7577.1630000000005,completion,,,,,false,,,,251878.40000009537,251878,244284.242,244274.40000009537,244300.837,251882.257,8,400,,,
trial,html.Screen,4_17_0,2023-09-09T16:08:31.441Z,,0,1,,6318.643000095355,response,ISIC_4161113.JPG,5,ISIC_0072195.JPG,ISIC_0072195.JPG,false,0,keypress(z),500,258201,258200.90000009537,251865.583,251878.5,251882.257,258211.251,8,400,18,,ISIC_4161113.JPG
break,html.Screen,4_17_1,2023-09-09T16:08:31.441Z,,0,,,NaN,,,,,,false,,,,258201.5,258201.40000009537,,258201.09999990463,,258211.251,8,400,,,
break_continue,html.Screen,4_17_2,2023-09-09T16:08:31.441Z,,0,,,NaN,,,,,,false,,,,258201.59999990463,258201.59999990463,,258201.5,,258211.251,8,400,,,
sequence,flow.Sequence,4_17,2023-09-09T16:08:31.441Z,,0,,,6319.34299990462,completion,,,,,false,,,,258201.7000002861,258201.59999990463,251865.583,251878.5,251882.257,258211.251,8,400,,,
trial,html.Screen,4_18_0,2023-09-09T16:08:38.147Z,,0,1,,6696.149000095378,response,ISIC_5298216.JPG,4,ISIC_0000572.JPG,ISIC_5298216.JPG,false,1,keypress(m),500,264907.5,264907.40000009537,258194.559,258201.7000002861,258211.251,264924.512,8,400,19,,ISIC_0000572.JPG
break,html.Screen,4_18_1,2023-09-09T16:08:38.148Z,,0,,,NaN,,,,,,false,,,,264908.5,264908.2000002861,,264907.7000002861,,264924.512,8,400,,,
break_continue,html.Screen,4_18_2,2023-09-09T16:08:38.148Z,,0,,,NaN,,,,,,false,,,,264908.90000009537,264908.90000009537,,264908.7000002861,,264924.512,8,400,,,
sequence,flow.Sequence,4_18,2023-09-09T16:08:38.149Z,,0,,,6697.649000095378,completion,,,,,false,,,,264909.40000009537,264908.90000009537,258194.559,258201.7000002861,258211.251,264924.512,8,400,,,
trial,html.Screen,4_19_0,2023-09-09T16:08:43.896Z,,0,1,,5731.688000286114,response,ISIC_5879418.JPG,5,ISIC_8048668.JPG,ISIC_8048668.JPG,false,0,keypress(z),500,270656.40000009537,270656.2000002861,264907.604,264909.7000002861,264924.512,270668.854,8,400,20,,ISIC_5879418.JPG
break,html.Screen,4_19_1,2023-09-09T16:08:43.896Z,,0,,,NaN,,,,,,false,,,,270657,270656.90000009537,,270656.59999990463,,270668.854,8,400,,,
break_continue,html.Screen,4_19_2,2023-09-09T16:08:43.897Z,,0,,,NaN,,,,,,false,,,,270657.30000019073,270657.09999990463,,270657,,270668.854,8,400,,,
sequence,flow.Sequence,4_19,2023-09-09T16:08:43.897Z,,0,,,5732.587999904645,completion,,,,,false,,,,270657.40000009537,270657.09999990463,264907.604,264909.7000002861,264924.512,270668.854,8,400,,,
trial,html.Screen,4_20_0,2023-09-09T16:08:50.785Z,,0,1,,6875.946000190743,response,ISIC_5370803.JPG,6,ISIC_8588033.JPG,ISIC_5370803.JPG,false,1,keypress(m),500,277545.30000019073,277544.80000019073,270652.199,270657.40000009537,270668.854,277548.992,8,400,21,,ISIC_8588033.JPG
break,html.Screen,4_20_1,2023-09-09T16:08:50.787Z,,0,,,NaN,,,,,,false,,,,277547.2000002861,277546.7000002861,,277545.90000009537,,277548.992,8,400,,,
break_continue,html.Screen,4_20_2,2023-09-09T16:08:50.788Z,,0,,,NaN,,,,,,false,,,,277548,277547.90000009537,,277547.5,,277548.992,8,400,,,
sequence,flow.Sequence,4_20,2023-09-09T16:08:50.788Z,,0,,,6879.046000095375,completion,,,,,false,,,,277548.30000019073,277547.90000009537,270652.199,270657.40000009537,270668.854,277548.992,8,400,,,
trial,html.Screen,4_21_0,2023-09-09T16:08:57.998Z,,0,1,,7208.607999904605,response,ISIC_0057669.JPG,5,ISIC_7271718.JPG,ISIC_7271718.JPG,false,0,keypress(z),500,284757.59999990463,284757.59999990463,277532.285,277548.7000002861,277548.992,284779.586,8,400,22,,ISIC_0057669.JPG
break,html.Screen,4_21_1,2023-09-09T16:08:57.999Z,,0,,,NaN,,,,,,false,,,,284758.09999990463,284757.90000009537,,284757.80000019073,,284779.586,8,400,,,
break_continue,html.Screen,4_21_2,2023-09-09T16:08:57.999Z,,0,,,NaN,,,,,,false,,,,284758.30000019073,284758.2000002861,,284758.2000002861,,284779.586,8,400,,,
sequence,flow.Sequence,4_21,2023-09-09T16:08:57.999Z,,0,,,7209.208000286075,completion,,,,,false,,,,284758.40000009537,284758.2000002861,277532.285,277548.59999990463,277548.992,284779.586,8,400,,,
trial,html.Screen,4_22_0,2023-09-09T16:09:03.398Z,,0,1,,5377.91399999999,response,ISIC_6247668.JPG,5,ISIC_0011313.JPG,ISIC_6247668.JPG,false,1,keypress(m),500,290157.80000019073,290157.5,284762.994,284758.5,284779.586,290173.427,8,400,23,,ISIC_0011313.JPG
break,html.Screen,4_22_1,2023-09-09T16:09:03.400Z,,0,,,NaN,,,,,,false,,,,290159.40000009537,290159.09999990463,,290158,,290173.427,8,400,,,
break_continue,html.Screen,4_22_2,2023-09-09T16:09:03.401Z,,0,,,NaN,,,,,,false,,,,290160.30000019073,290160.2000002861,,290159.5,,290173.427,8,400,,,
sequence,flow.Sequence,4_22,2023-09-09T16:09:03.401Z,,0,,,5380.614000286092,completion,,,,,false,,,,290160.59999990463,290160.2000002861,284762.994,284758.40000009537,284779.586,290173.427,8,400,,,
trial,html.Screen,4_23_0,2023-09-09T16:09:08.811Z,,0,1,,5397.273000286077,response,ISIC_0067418.JPG,5,ISIC_0054925.JPG,ISIC_0067418.JPG,false,1,keypress(m),500,295570.80000019073,295570.7000002861,290156.77,290160.7000002861,290173.427,295584.003,8,400,24,,ISIC_0054925.JPG
break,html.Screen,4_23_1,2023-09-09T16:09:08.812Z,,0,,,NaN,,,,,,false,,,,295571.30000019073,295571.2000002861,,295571,,295584.003,8,400,,,
break_continue,html.Screen,4_23_2,2023-09-09T16:09:08.812Z,,0,,,NaN,,,,,,false,,,,295571.59999990463,295571.59999990463,,295571.40000009537,,295584.003,8,400,,,
sequence,flow.Sequence,4_23,2023-09-09T16:09:08.812Z,,0,,,5398.172999904607,completion,,,,,false,,,,295571.7000002861,295571.59999990463,290156.77,290160.7000002861,290173.427,295584.003,8,400,,,
trial,html.Screen,4_24_0,2023-09-09T16:09:14.509Z,,0,1,,5684.897000095341,response,ISIC_4314089.JPG,5,ISIC_0014186.JPG,ISIC_0014186.JPG,false,0,keypress(z),500,301269,301268.90000009537,295567.465,295571.7000002861,295584.003,301278.443,8,400,25,,ISIC_4314089.JPG
break,html.Screen,4_24_1,2023-09-09T16:09:14.510Z,,0,,,NaN,,,,,,false,,,,301269.59999990463,301269.5,,301269.2000002861,,301278.443,8,400,,,
break_continue,html.Screen,4_24_2,2023-09-09T16:09:14.510Z,,0,,,NaN,,,,,,false,,,,301269.90000009537,301269.90000009537,,301269.80000019073,,301278.443,8,400,,,
sequence,flow.Sequence,4_24,2023-09-09T16:09:14.510Z,,0,,,5685.897000095341,completion,,,,,false,,,,301270,301269.90000009537,295567.465,295571.7000002861,295584.003,301278.443,8,400,,,
trial,html.Screen,4_25_0,2023-09-09T16:09:20.448Z,,0,1,,5928.556999999972,response,ISIC_8679617.JPG,5,ISIC_5416978.JPG,ISIC_8679617.JPG,false,1,keypress(m),500,307207.2000002861,307207,301261.806,301270.09999990463,301278.443,307223.315,8,400,26,,ISIC_5416978.JPG
break,html.Screen,4_25_1,2023-09-09T16:09:20.448Z,,0,,,NaN,,,,,,false,,,,307207.59999990463,307207.5,,307207.30000019073,,307223.315,8,400,,,
break_continue,html.Screen,4_25_2,2023-09-09T16:09:20.448Z,,0,,,NaN,,,,,,false,,,,307207.80000019073,307207.80000019073,,307207.80000019073,,307223.315,8,400,,,
sequence,flow.Sequence,4_25,2023-09-09T16:09:20.448Z,,0,,,5929.3570001907065,completion,,,,,false,,,,307207.90000009537,307207.80000019073,301261.806,301270,301278.443,307223.315,8,400,,,
trial,html.Screen,4_26_0,2023-09-09T16:09:26.405Z,,0,1,,5940.9850001907325,response,ISIC_0033708.JPG,5,ISIC_7802213.JPG,ISIC_0033708.JPG,false,1,keypress(m),500,313164.40000009537,313164.30000019073,307206.628,307208,307223.315,313168.27,8,400,27,,ISIC_7802213.JPG
break,html.Screen,4_26_1,2023-09-09T16:09:26.405Z,,0,,,NaN,,,,,,false,,,,313164.80000019073,313164.80000019073,,313164.5,,313168.27,8,400,,,
break_continue,html.Screen,4_26_2,2023-09-09T16:09:26.405Z,,0,,,NaN,,,,,,false,,,,313165,313165,,313164.90000009537,,313168.27,8,400,,,
sequence,flow.Sequence,4_26,2023-09-09T16:09:26.405Z,,0,,,5941.684999999998,completion,,,,,false,,,,313165.09999990463,313165,307206.628,307207.90000009537,307223.315,313168.27,8,400,,,
trial,html.Screen,4_27_0,2023-09-09T16:09:32.571Z,,0,1,,6162.630000095349,response,ISIC_0011490.JPG,4,ISIC_1080647.JPG,ISIC_0011490.JPG,false,1,keypress(m),500,319331.09999990463,319330.90000009537,313151.567,313165.09999990463,313168.27,319347.081,8,400,28,,ISIC_1080647.JPG
break,html.Screen,4_27_1,2023-09-09T16:09:32.572Z,,0,,,NaN,,,,,,false,,,,319331.5,319331.5,,319331.2000002861,,319347.081,8,400,,,
break_continue,html.Screen,4_27_2,2023-09-09T16:09:32.572Z,,0,,,NaN,,,,,,false,,,,319331.7000002861,319331.7000002861,,319331.59999990463,,319347.081,8,400,,,
sequence,flow.Sequence,4_27,2023-09-09T16:09:32.572Z,,0,,,6163.430000286084,completion,,,,,false,,,,319331.80000019073,319331.7000002861,313151.567,313165.09999990463,313168.27,319347.081,8,400,,,
trial,html.Screen,4_28_0,2023-09-09T16:09:38.526Z,,0,1,,5938.418999999994,response,ISIC_0071771.JPG,5,ISIC_0069257.JPG,ISIC_0071771.JPG,false,1,keypress(m),500,325285.7000002861,325285.5,319330.255,319331.90000009537,319347.081,325291.799,8,400,29,,ISIC_0069257.JPG
break,html.Screen,4_28_1,2023-09-09T16:09:38.527Z,,0,,,NaN,,,,,,false,,,,325286.30000019073,325286.09999990463,,325285.80000019073,,325291.799,8,400,,,
break_continue,html.Screen,4_28_2,2023-09-09T16:09:38.527Z,,0,,,NaN,,,,,,false,,,,325286.7000002861,325286.59999990463,,325286.40000009537,,325291.799,8,400,,,
sequence,flow.Sequence,4_28,2023-09-09T16:09:38.527Z,,0,,,5939.518999904627,completion,,,,,false,,,,325286.7000002861,325286.59999990463,319330.255,319331.90000009537,319347.081,325291.799,8,400,,,
trial,html.Screen,4_29_0,2023-09-09T16:09:43.154Z,,0,1,,4621.401000286103,response,ISIC_1955991.JPG,5,ISIC_8654660.JPG,ISIC_1955991.JPG,false,1,keypress(m),500,329913.30000019073,329913.2000002861,325275.199,325286.80000019073,325291.799,329917.491,8,400,30,,ISIC_8654660.JPG
break,html.Screen,4_29_1,2023-09-09T16:09:43.154Z,,0,,,NaN,,,,,,false,,,,329914,329913.80000019073,,329913.40000009537,,329917.491,8,400,,,
break_continue,html.Screen,4_29_2,2023-09-09T16:09:43.155Z,,0,,,NaN,,,,,,false,,,,329914.5,329914.40000009537,,329914.30000019073,,329917.491,8,400,,,
sequence,flow.Sequence,4_29,2023-09-09T16:09:43.155Z,,0,,,4622.601000095368,completion,,,,,false,,,,329914.59999990463,329914.40000009537,325275.199,325286.80000019073,325291.799,329917.491,8,400,,,
trial,html.Screen,4_30_0,2023-09-09T16:09:50.006Z,,0,1,,6847.50900000002,response,ISIC_0006327.JPG,5,ISIC_0000538.JPG,ISIC_0000538.JPG,false,0,keypress(z),500,336765.09999990463,336765,329900.831,329914.59999990463,329917.491,336780.939,8,400,31,,ISIC_0006327.JPG
break,html.Screen,4_30_1,2023-09-09T16:09:50.006Z,,0,,,NaN,,,,,,false,,,,336765.59999990463,336765.5,,336765.2000002861,,336780.939,8,400,,,
break_continue,html.Screen,4_30_2,2023-09-09T16:09:50.006Z,,0,,,NaN,,,,,,false,,,,336765.7000002861,336765.7000002861,,336765.59999990463,,336780.939,8,400,,,
sequence,flow.Sequence,4_30,2023-09-09T16:09:50.006Z,,0,,,6848.209000286122,completion,,,,,false,,,,336765.80000019073,336765.7000002861,329900.831,329914.59999990463,329917.491,336780.939,8,400,,,
trial,html.Screen,4_31_0,2023-09-09T16:09:54.185Z,,0,1,,4162.461000095354,response,ISIC_6547707.JPG,5,ISIC_1384527.JPG,ISIC_1384527.JPG,false,0,keypress(z),500,340943.5,340943.40000009537,336764.121,336765.90000009537,336780.939,340955.814,8,400,32,,ISIC_6547707.JPG
break,html.Screen,4_31_1,2023-09-09T16:09:54.185Z,,0,,,NaN,,,,,,false,,,,340944,340943.90000009537,,340943.59999990463,,340955.814,8,400,,,
break_continue,html.Screen,4_31_2,2023-09-09T16:09:54.186Z,,0,,,NaN,,,,,,false,,,,340944.09999990463,340944.09999990463,,340944,,340955.814,8,400,,,
sequence,flow.Sequence,4_31,2023-09-09T16:09:54.186Z,,0,,,4163.1609999046195,completion,,,,,false,,,,340944.2000002861,340944.09999990463,336764.121,336765.90000009537,336780.939,340955.814,8,400,,,
trial,html.Screen,4_32_0,2023-09-09T16:10:00.060Z,,0,1,,5862.886000286089,response,ISIC_0024208.JPG,5,ISIC_4064936.JPG,ISIC_4064936.JPG,false,0,keypress(z),500,346818.90000009537,346818.7000002861,340939.078,340944.30000019073,340955.814,346833.739,8,400,33,,ISIC_0024208.JPG
break,html.Screen,4_32_1,2023-09-09T16:10:00.061Z,,0,,,NaN,,,,,,false,,,,346819.59999990463,346819.40000009537,,346819.09999990463,,346833.739,8,400,,,
break_continue,html.Screen,4_32_2,2023-09-09T16:10:00.061Z,,0,,,NaN,,,,,,false,,,,346819.80000019073,346819.80000019073,,346819.59999990463,,346833.739,8,400,,,
sequence,flow.Sequence,4_32,2023-09-09T16:10:00.061Z,,0,,,5863.986000190722,completion,,,,,false,,,,346820,346819.80000019073,340939.078,340944.30000019073,340955.814,346833.739,8,400,,,
trial,html.Screen,4_33_0,2023-09-09T16:10:07.076Z,,0,1,,7000.260999999999,response,ISIC_0032684.JPG,5,ISIC_0296109.JPG,ISIC_0032684.JPG,false,1,keypress(m),500,353834.09999990463,353834,346817.026,346820,346833.739,353847.522,8,400,34,,ISIC_0296109.JPG
break,html.Screen,4_33_1,2023-09-09T16:10:07.076Z,,0,,,NaN,,,,,,false,,,,353834.59999990463,353834.5,,353834.2000002861,,353847.522,8,400,,,
break_continue,html.Screen,4_33_2,2023-09-09T16:10:07.076Z,,0,,,NaN,,,,,,false,,,,353834.80000019073,353834.80000019073,,353834.7000002861,,353847.522,8,400,,,
sequence,flow.Sequence,4_33,2023-09-09T16:10:07.076Z,,0,,,7001.0610001907335,completion,,,,,false,,,,353834.80000019073,353834.80000019073,346817.026,346820,346833.739,353847.522,8,400,,,
trial,html.Screen,4_34_0,2023-09-09T16:10:13.366Z,,0,1,,6276.978000000003,response,ISIC_1431777.JPG,4,ISIC_0025779.JPG,ISIC_0025779.JPG,false,0,keypress(z),500,360124.59999990463,360124.5,353830.693,353834.90000009537,353847.522,360126.225,8,400,35,,ISIC_1431777.JPG
break,html.Screen,4_34_1,2023-09-09T16:10:13.367Z,,0,,,NaN,,,,,,false,,,,360125.40000009537,360125.2000002861,,360124.80000019073,,360126.225,8,400,,,
break_continue,html.Screen,4_34_2,2023-09-09T16:10:13.367Z,,0,,,NaN,,,,,,false,,,,360125.7000002861,360125.59999990463,,360125.40000009537,,360126.225,8,400,,,
sequence,flow.Sequence,4_34,2023-09-09T16:10:13.367Z,,0,,,6278.077999904635,completion,,,,,false,,,,360125.80000019073,360125.59999990463,353830.693,353834.90000009537,353847.522,360126.225,8,400,,,
trial,html.Screen,4_35_0,2023-09-09T16:10:21.713Z,,0,1,,8344.775000000023,response,ISIC_0026516.JPG,5,ISIC_0698821.JPG,ISIC_0026516.JPG,false,1,keypress(m),500,368471.2000002861,368471,360109.516,360125.90000009537,360126.225,368475.865,8,400,36,,ISIC_0698821.JPG
break,html.Screen,4_35_1,2023-09-09T16:10:21.713Z,,0,,,NaN,,,,,,false,,,,368471.90000009537,368471.7000002861,,368471.40000009537,,368475.865,8,400,,,
break_continue,html.Screen,4_35_2,2023-09-09T16:10:21.714Z,,0,,,NaN,,,,,,false,,,,368472.30000019073,368472.2000002861,,368472,,368475.865,8,400,,,
sequence,flow.Sequence,4_35,2023-09-09T16:10:21.714Z,,0,,,8345.975000286126,completion,,,,,false,,,,368472.5,368472.2000002861,360109.516,360125.90000009537,360126.225,368475.865,8,400,,,
trial,html.Screen,4_36_0,2023-09-09T16:10:26.372Z,,0,1,,4654.335000286112,response,ISIC_6038490.JPG,4,ISIC_2456538.JPG,ISIC_6038490.JPG,false,1,keypress(m),500,373130.59999990463,373130.2000002861,368459.209,368472.5,368475.865,373134.888,8,400,37,,ISIC_2456538.JPG
break,html.Screen,4_36_1,2023-09-09T16:10:26.373Z,,0,,,NaN,,,,,,false,,,,373131.09999990463,373131,,373130.80000019073,,373134.888,8,400,,,
break_continue,html.Screen,4_36_2,2023-09-09T16:10:26.373Z,,0,,,NaN,,,,,,false,,,,373131.40000009537,373131.30000019073,,373131.30000019073,,373134.888,8,400,,,
sequence,flow.Sequence,4_36,2023-09-09T16:10:26.373Z,,0,,,4655.435000190744,completion,,,,,false,,,,373131.5,373131.30000019073,368459.209,368472.5,368475.865,373134.888,8,400,,,
trial,html.Screen,4_37_0,2023-09-09T16:10:33.142Z,,0,1,,6765.612000000023,response,ISIC_2849353.JPG,5,ISIC_1694817.JPG,ISIC_2849353.JPG,false,1,keypress(m),500,379900.59999990463,379900.5,373118.209,373131.59999990463,373134.888,379931.444,8,400,38,,ISIC_1694817.JPG
break,html.Screen,4_37_1,2023-09-09T16:10:33.143Z,,0,,,NaN,,,,,,false,,,,379901.2000002861,379901.09999990463,,379900.80000019073,,379931.444,8,400,,,
break_continue,html.Screen,4_37_2,2023-09-09T16:10:33.143Z,,0,,,NaN,,,,,,false,,,,379901.40000009537,379901.30000019073,,379901.30000019073,,379931.444,8,400,,,
sequence,flow.Sequence,4_37,2023-09-09T16:10:33.143Z,,0,,,6766.412000190758,completion,,,,,false,,,,379901.5,379901.30000019073,373118.209,373131.59999990463,373134.888,379931.444,8,400,,,
trial,html.Screen,4_38_0,2023-09-09T16:10:37.672Z,,0,1,,4499.256000286085,response,ISIC_0000452.JPG,5,ISIC_0063081.JPG,ISIC_0000452.JPG,false,1,keypress(m),500,384430.90000009537,384430.7000002861,379914.795,379901.5,379931.444,384440.406,8,400,39,,ISIC_0063081.JPG
break,html.Screen,4_38_1,2023-09-09T16:10:37.673Z,,0,,,NaN,,,,,,false,,,,384431.30000019073,384431.2000002861,,384431,,384440.406,8,400,,,
break_continue,html.Screen,4_38_2,2023-09-09T16:10:37.673Z,,0,,,NaN,,,,,,false,,,,384431.40000009537,384431.40000009537,,384431.30000019073,,384440.406,8,400,,,
sequence,flow.Sequence,4_38,2023-09-09T16:10:37.673Z,,0,,,4499.95600009535,completion,,,,,false,,,,384431.5,384431.40000009537,379914.795,379901.5,379931.444,384440.406,8,400,,,
trial,html.Screen,4_39_0,2023-09-09T16:10:43.115Z,,0,1,,5432.593999999983,response,ISIC_2680588.JPG,5,ISIC_0026009.JPG,ISIC_0026009.JPG,false,0,keypress(z),500,389873.09999990463,389873,384423.619,384431.59999990463,384440.406,389900.879,8,400,40,,ISIC_2680588.JPG
break,html.Screen,4_39_1,2023-09-09T16:10:43.115Z,,0,,,NaN,,,,,,false,,,,389873.5,389873.40000009537,,389873.2000002861,,389900.879,8,400,,,
break_continue,html.Screen,4_39_2,2023-09-09T16:10:43.115Z,,0,,,NaN,,,,,,false,,,,389873.59999990463,389873.59999990463,,389873.59999990463,,389900.879,8,400,,,
sequence,flow.Sequence,4_39,2023-09-09T16:10:43.115Z,,0,,,5433.193999904615,completion,,,,,false,,,,389873.7000002861,389873.59999990463,384423.619,384431.59999990463,384440.406,389900.879,8,400,,,
trial,html.Screen,4_40_0,2023-09-09T16:10:49.005Z,,0,1,,5862.720999904617,response,ISIC_3901421.JPG,5,ISIC_6974830.JPG,ISIC_6974830.JPG,false,0,keypress(z),500,395763.7000002861,395763.59999990463,389884.161,389873.80000019073,389900.879,395778.995,8,400,41,,ISIC_3901421.JPG
break,html.Screen,4_40_1,2023-09-09T16:10:49.006Z,,0,,,NaN,,,,,,false,,,,395764.2000002861,395764.09999990463,,395763.80000019073,,395778.995,8,400,,,
break_continue,html.Screen,4_40_2,2023-09-09T16:10:49.006Z,,0,,,NaN,,,,,,false,,,,395764.40000009537,395764.30000019073,,395764.30000019073,,395778.995,8,400,,,
sequence,flow.Sequence,4_40,2023-09-09T16:10:49.006Z,,0,,,5863.4210001907195,completion,,,,,false,,,,395764.40000009537,395764.30000019073,389884.161,389873.80000019073,389900.879,395778.995,8,400,,,
trial,html.Screen,4_41_0,2023-09-09T16:10:55.651Z,,0,1,,6629.604999904637,response,ISIC_0012988.JPG,5,ISIC_0034074.JPG,ISIC_0034074.JPG,false,0,keypress(z),500,402408.90000009537,402408.59999990463,395762.432,395764.5,395778.995,402425.309,8,400,42,,ISIC_0012988.JPG
break,html.Screen,4_41_1,2023-09-09T16:10:55.653Z,,0,,,NaN,,,,,,false,,,,402410.40000009537,402410.09999990463,,402409.5,,402425.309,8,400,,,
break_continue,html.Screen,4_41_2,2023-09-09T16:10:55.654Z,,0,,,NaN,,,,,,false,,,,402411.09999990463,402411,,402410.7000002861,,402425.309,8,400,,,
sequence,flow.Sequence,4_41,2023-09-09T16:10:55.654Z,,0,,,6632.005000000005,completion,,,,,false,,,,402411.30000019073,402411,395762.432,395764.5,395778.995,402425.309,8,400,,,
trial,html.Screen,4_42_0,2023-09-09T16:11:00.584Z,,0,1,,4916.190999999992,response,ISIC_0010024.JPG,4,ISIC_8897947.JPG,ISIC_0010024.JPG,false,1,keypress(m),500,407341.7000002861,407341.5,402408.623,402411.5,402425.309,407351.666,8,400,43,,ISIC_8897947.JPG
break,html.Screen,4_42_1,2023-09-09T16:11:00.585Z,,0,,,NaN,,,,,,false,,,,407342.2000002861,407342.09999990463,,407341.80000019073,,407351.666,8,400,,,
break_continue,html.Screen,4_42_2,2023-09-09T16:11:00.585Z,,0,,,NaN,,,,,,false,,,,407342.59999990463,407342.5,,407342.40000009537,,407351.666,8,400,,,
sequence,flow.Sequence,4_42,2023-09-09T16:11:00.585Z,,0,,,4917.190999999992,completion,,,,,false,,,,407342.59999990463,407342.5,402408.623,402411.5,402425.309,407351.666,8,400,,,
trial,html.Screen,4_43_0,2023-09-09T16:11:05.919Z,,0,1,,5324.534000286076,response,ISIC_0054974.JPG,5,ISIC_0009984.JPG,ISIC_0009984.JPG,false,0,keypress(z),500,412676.59999990463,412676.2000002861,407334.892,407342.7000002861,407351.666,412678.596,8,400,44,,ISIC_0054974.JPG
break,html.Screen,4_43_1,2023-09-09T16:11:05.920Z,,0,,,NaN,,,,,,false,,,,412677.59999990463,412677.40000009537,,412676.80000019073,,412678.596,8,400,,,
break_continue,html.Screen,4_43_2,2023-09-09T16:11:05.921Z,,0,,,NaN,,,,,,false,,,,412678.09999990463,412678,,412677.80000019073,,412678.596,8,400,,,
sequence,flow.Sequence,4_43,2023-09-09T16:11:05.921Z,,0,,,5326.3339999999735,completion,,,,,false,,,,412678.40000009537,412678,407334.892,407342.59999990463,407351.666,412678.596,8,400,,,
trial,html.Screen,4_44_0,2023-09-09T16:11:12.645Z,,0,1,,6723.304000095348,response,ISIC_0058079.JPG,5,ISIC_0064997.JPG,ISIC_0064997.JPG,false,0,keypress(z),500,419402,419401.90000009537,412661.882,412678.59999990463,412678.596,419408.452,8,400,45,,ISIC_0058079.JPG
break,html.Screen,4_44_1,2023-09-09T16:11:12.645Z,,0,,,NaN,,,,,,false,,,,419402.80000019073,419402.5,,419402.2000002861,,419408.452,8,400,,,
break_continue,html.Screen,4_44_2,2023-09-09T16:11:12.646Z,,0,,,NaN,,,,,,false,,,,419403.09999990463,419403,,419402.90000009537,,419408.452,8,400,,,
sequence,flow.Sequence,4_44,2023-09-09T16:11:12.646Z,,0,,,6724.40399999998,completion,,,,,false,,,,419403.2000002861,419403,412661.882,412678.59999990463,412678.596,419408.452,8,400,,,
trial,html.Screen,4_45_0,2023-09-09T16:11:19.224Z,,0,1,,6572.848000190745,response,ISIC_8612828.JPG,5,ISIC_7758102.JPG,ISIC_8612828.JPG,false,1,keypress(m),500,425981.40000009537,425981.30000019073,419391.747,419403.30000019073,419408.452,425987.72,8,400,46,,ISIC_7758102.JPG
break,html.Screen,4_45_1,2023-09-09T16:11:19.224Z,,0,,,NaN,,,,,,false,,,,425981.80000019073,425981.7000002861,,425981.5,,425987.72,8,400,,,
break_continue,html.Screen,4_45_2,2023-09-09T16:11:19.224Z,,0,,,NaN,,,,,,false,,,,425982,425982,,425981.80000019073,,425987.72,8,400,,,
sequence,flow.Sequence,4_45,2023-09-09T16:11:19.225Z,,0,,,6573.54800000001,completion,,,,,false,,,,425982.09999990463,425982,419391.747,419403.30000019073,419408.452,425987.72,8,400,,,
trial,html.Screen,4_46_0,2023-09-09T16:11:28.797Z,,0,1,,9566.37999990466,response,ISIC_6398283.JPG,5,ISIC_5223280.JPG,ISIC_6398283.JPG,false,1,keypress(m),500,435554.2000002861,435554.09999990463,425971.13,425982.09999990463,425987.72,435556.39,8,400,47,,ISIC_5223280.JPG
break,html.Screen,4_46_1,2023-09-09T16:11:28.797Z,,0,,,NaN,,,,,,false,,,,435554.7000002861,435554.5,,435554.30000019073,,435556.39,8,400,,,
break_continue,html.Screen,4_46_2,2023-09-09T16:11:28.797Z,,0,,,NaN,,,,,,false,,,,435554.90000009537,435554.80000019073,,435554.80000019073,,435556.39,8,400,,,
sequence,flow.Sequence,4_46,2023-09-09T16:11:28.797Z,,0,,,9567.080000190763,completion,,,,,false,,,,435554.90000009537,435554.80000019073,425971.13,425982.09999990463,425987.72,435556.39,8,400,,,
trial,html.Screen,4_47_0,2023-09-09T16:11:35.394Z,,0,1,,6595.109999999986,response,ISIC_0068239.JPG,5,ISIC_0029118.JPG,ISIC_0068239.JPG,false,1,keypress(m),500,442151.59999990463,442151.5,435539.675,435555,435556.39,442152.541,8,400,48,,ISIC_0029118.JPG
break,html.Screen,4_47_1,2023-09-09T16:11:35.395Z,,0,,,NaN,,,,,,false,,,,442152,442151.90000009537,,442151.80000019073,,442152.541,8,400,,,
break_continue,html.Screen,4_47_2,2023-09-09T16:11:35.395Z,,0,,,NaN,,,,,,false,,,,442152.2000002861,442152.2000002861,,442152.09999990463,,442152.541,8,400,,,
sequence,flow.Sequence,4_47,2023-09-09T16:11:35.395Z,,0,,,6595.810000286088,completion,,,,,false,,,,442152.30000019073,442152.2000002861,435539.675,435555,435556.39,442152.541,8,400,,,
trial,html.Screen,4_48_0,2023-09-09T16:11:41.525Z,,0,1,,6129.9589999999735,response,ISIC_1763577.JPG,4,ISIC_5364330.JPG,ISIC_1763577.JPG,false,1,keypress(m),500,448282.59999990463,448282.5,442135.896,442152.40000009537,442152.541,448297.922,8,400,49,,ISIC_5364330.JPG
break,html.Screen,4_48_1,2023-09-09T16:11:41.526Z,,0,,,NaN,,,,,,false,,,,448283.09999990463,448282.90000009537,,448282.7000002861,,448297.922,8,400,,,
break_continue,html.Screen,4_48_2,2023-09-09T16:11:41.526Z,,0,,,NaN,,,,,,false,,,,448283.30000019073,448283.30000019073,,448283.2000002861,,448297.922,8,400,,,
sequence,flow.Sequence,4_48,2023-09-09T16:11:41.526Z,,0,,,6130.759000190708,completion,,,,,false,,,,448283.30000019073,448283.30000019073,442135.896,442152.40000009537,442152.541,448297.922,8,400,,,
trial,html.Screen,4_49_0,2023-09-09T16:11:46.728Z,,0,1,,5187.878000190714,response,ISIC_0006116.JPG,5,ISIC_1113265.JPG,ISIC_1113265.JPG,false,0,keypress(z),500,453485.90000009537,453485.80000019073,448281.106,448283.40000009537,448297.922,453491.371,8,400,50,,ISIC_0006116.JPG
break,html.Screen,4_49_1,2023-09-09T16:11:56.721Z,,0,,,10002.656000000017,timeout,,,,,false,,,,463477.90000009537,463477.419,453474.558,453486,453491.371,463494.027,8,400,,,
break_continue,html.Screen,4_49_2,2023-09-09T16:12:05.171Z,,0,,,8419.1730002861,response,,,,,false,continue,keypress(Space),,471927.5,471913.2000002861,463477.419,463478,463494.027,471944.033,8,400,,,
sequence,flow.Sequence,4_49,2023-09-09T16:12:05.171Z,,0,,,23615.27800028608,completion,,,,,false,,,,471927.7000002861,471913.2000002861,448281.106,448283.40000009537,448297.922,471944.033,8,400,,,
trial,html.Screen,4_50_0,2023-09-09T16:12:10.617Z,,0,2,,5429.066999904637,response,ISIC_0032955.JPG,5,ISIC_0030898.JPG,ISIC_0032955.JPG,false,1,keypress(m),500,477373.2000002861,477373.09999990463,471927.12,471927.80000019073,471944.033,477387.928,8,400,1,,ISIC_0030898.JPG
break,html.Screen,4_50_1,2023-09-09T16:12:10.617Z,,0,,,NaN,,,,,,false,,,,477373.7000002861,477373.59999990463,,477373.30000019073,,477387.928,8,400,,,
break_continue,html.Screen,4_50_2,2023-09-09T16:12:10.617Z,,0,,,NaN,,,,,,false,,,,477373.80000019073,477373.80000019073,,477373.7000002861,,477387.928,8,400,,,
sequence,flow.Sequence,4_50,2023-09-09T16:12:10.617Z,,0,,,5429.767000190739,completion,,,,,false,,,,477373.80000019073,477373.80000019073,471927.12,471927.80000019073,471944.033,477387.928,8,400,,,
trial,html.Screen,4_51_0,2023-09-09T16:12:14.394Z,,0,2,,3762.5719999999856,response,ISIC_0004334.JPG,4,ISIC_7693611.JPG,ISIC_7693611.JPG,false,0,keypress(z),500,481150.80000019073,481150.5,477371.134,477373.90000009537,477387.928,481178.496,8,400,2,,ISIC_0004334.JPG
break,html.Screen,4_51_1,2023-09-09T16:12:14.395Z,,0,,,NaN,,,,,,false,,,,481151.40000009537,481151.2000002861,,481150.90000009537,,481178.496,8,400,,,
break_continue,html.Screen,4_51_2,2023-09-09T16:12:14.395Z,,0,,,NaN,,,,,,false,,,,481152,481151.80000019073,,481151.59999990463,,481178.496,8,400,,,
sequence,flow.Sequence,4_51,2023-09-09T16:12:14.395Z,,0,,,3763.8720001907204,completion,,,,,false,,,,481152,481151.80000019073,477371.134,477373.90000009537,477387.928,481178.496,8,400,,,
trial,html.Screen,4_52_0,2023-09-09T16:12:19.780Z,,0,2,,5357.704000286118,response,ISIC_8694181.JPG,5,ISIC_3063260.JPG,ISIC_8694181.JPG,false,1,keypress(m),500,486536.40000009537,486536.2000002861,481161.796,481152.2000002861,481178.496,486538.895,8,400,3,,ISIC_3063260.JPG
break,html.Screen,4_52_1,2023-09-09T16:12:19.780Z,,0,,,NaN,,,,,,false,,,,486536.7000002861,486536.7000002861,,486536.40000009537,,486538.895,8,400,,,
break_continue,html.Screen,4_52_2,2023-09-09T16:12:19.780Z,,0,,,NaN,,,,,,false,,,,486537,486536.90000009537,,486536.80000019073,,486538.895,8,400,,,
sequence,flow.Sequence,4_52,2023-09-09T16:12:19.780Z,,0,,,5358.404000095383,completion,,,,,false,,,,486537.09999990463,486536.90000009537,481161.796,481152.2000002861,481178.496,486538.895,8,400,,,
trial,html.Screen,4_53_0,2023-09-09T16:12:24.870Z,,0,2,,5087.905000190716,response,ISIC_0067458.JPG,5,ISIC_9072567.JPG,ISIC_9072567.JPG,false,0,keypress(z),500,491627,491626.80000019073,486522.245,486537.09999990463,486538.895,491632.183,8,400,4,,ISIC_0067458.JPG
break,html.Screen,4_53_1,2023-09-09T16:12:24.871Z,,0,,,NaN,,,,,,false,,,,491627.90000009537,491627.7000002861,,491627.2000002861,,491632.183,8,400,,,
break_continue,html.Screen,4_53_2,2023-09-09T16:12:24.872Z,,0,,,NaN,,,,,,false,,,,491628.2000002861,491628.09999990463,,491627.90000009537,,491632.183,8,400,,,
sequence,flow.Sequence,4_53,2023-09-09T16:12:24.872Z,,0,,,5089.204999904614,completion,,,,,false,,,,491628.40000009537,491628.09999990463,486522.245,486537.09999990463,486538.895,491632.183,8,400,,,
trial,html.Screen,4_54_0,2023-09-09T16:12:31.865Z,,0,2,,6989.717000095348,response,ISIC_0027921.JPG,6,ISIC_8127578.JPG,ISIC_8127578.JPG,false,0,keypress(z),500,498622,498621.90000009537,491615.621,491628.5,491632.183,498629.087,8,400,5,,ISIC_0027921.JPG
break,html.Screen,4_54_1,2023-09-09T16:12:31.866Z,,0,,,NaN,,,,,,false,,,,498622.59999990463,498622.40000009537,,498622.09999990463,,498629.087,8,400,,,
break_continue,html.Screen,4_54_2,2023-09-09T16:12:31.866Z,,0,,,NaN,,,,,,false,,,,498622.90000009537,498622.80000019073,,498622.7000002861,,498629.087,8,400,,,
sequence,flow.Sequence,4_54,2023-09-09T16:12:31.866Z,,0,,,6990.617000190716,completion,,,,,false,,,,498623,498622.80000019073,491615.621,491628.40000009537,491632.183,498629.087,8,400,,,
trial,html.Screen,4_55_0,2023-09-09T16:12:36.925Z,,0,2,,5052.313000095368,response,ISIC_2268341.JPG,5,ISIC_0033508.JPG,ISIC_2268341.JPG,false,1,keypress(m),500,503681.5,503681.40000009537,498612.518,498623.09999990463,498629.087,503688.998,8,400,6,,ISIC_0033508.JPG
break,html.Screen,4_55_1,2023-09-09T16:12:36.925Z,,0,,,NaN,,,,,,false,,,,503682.09999990463,503681.80000019073,,503681.59999990463,,503688.998,8,400,,,
break_continue,html.Screen,4_55_2,2023-09-09T16:12:36.926Z,,0,,,NaN,,,,,,false,,,,503682.30000019073,503682.30000019073,,503682.2000002861,,503688.998,8,400,,,
sequence,flow.Sequence,4_55,2023-09-09T16:12:36.926Z,,0,,,5053.213000190735,completion,,,,,false,,,,503682.5,503682.30000019073,498612.518,498623.09999990463,498629.087,503688.998,8,400,,,
trial,html.Screen,4_56_0,2023-09-09T16:12:42.111Z,,0,2,,5178.402000095346,response,ISIC_3365692.JPG,5,ISIC_7637597.JPG,ISIC_3365692.JPG,false,1,keypress(m),500,508867.5,508867.40000009537,503672.352,503682.59999990463,503688.998,508882.401,8,400,7,,ISIC_7637597.JPG
break,html.Screen,4_56_1,2023-09-09T16:12:42.111Z,,0,,,NaN,,,,,,false,,,,508868.09999990463,508867.90000009537,,508867.59999990463,,508882.401,8,400,,,
break_continue,html.Screen,4_56_2,2023-09-09T16:12:42.112Z,,0,,,NaN,,,,,,false,,,,508868.30000019073,508868.2000002861,,508868.2000002861,,508882.401,8,400,,,
sequence,flow.Sequence,4_56,2023-09-09T16:12:42.112Z,,0,,,5179.202000286081,completion,,,,,false,,,,508868.40000009537,508868.2000002861,503672.352,503682.5,503688.998,508882.401,8,400,,,
trial,html.Screen,4_57_0,2023-09-09T16:12:49.873Z,,0,2,,7747.399000190722,response,ISIC_0011260.JPG,5,ISIC_7236365.JPG,ISIC_0011260.JPG,false,1,keypress(m),500,516629.90000009537,516629.80000019073,508865.789,508868.5,508882.401,516630.858,8,400,8,,ISIC_7236365.JPG
break,html.Screen,4_57_1,2023-09-09T16:12:49.874Z,,0,,,NaN,,,,,,false,,,,516630.59999990463,516630.40000009537,,516630.09999990463,,516630.858,8,400,,,
break_continue,html.Screen,4_57_2,2023-09-09T16:12:49.874Z,,0,,,NaN,,,,,,false,,,,516630.90000009537,516630.90000009537,,516630.7000002861,,516630.858,8,400,,,
sequence,flow.Sequence,4_57,2023-09-09T16:12:49.875Z,,0,,,7748.499000095355,completion,,,,,false,,,,516631.2000002861,516630.90000009537,508865.789,508868.5,508882.401,516630.858,8,400,,,
trial,html.Screen,4_58_0,2023-09-09T16:12:54.565Z,,0,2,,4690.342000286095,response,ISIC_0029740.JPG,6,ISIC_7984569.JPG,ISIC_0029740.JPG,false,1,keypress(m),500,521321.2000002861,521321.2000002861,516614.146,516631.30000019073,516630.858,521323.298,8,400,9,,ISIC_7984569.JPG
break,html.Screen,4_58_1,2023-09-09T16:12:54.565Z,,0,,,NaN,,,,,,false,,,,521321.7000002861,521321.59999990463,,521321.40000009537,,521323.298,8,400,,,
break_continue,html.Screen,4_58_2,2023-09-09T16:12:54.565Z,,0,,,NaN,,,,,,false,,,,521321.90000009537,521321.90000009537,,521321.80000019073,,521323.298,8,400,,,
sequence,flow.Sequence,4_58,2023-09-09T16:12:54.565Z,,0,,,4691.04200009536,completion,,,,,false,,,,521322,521321.90000009537,516614.146,516631.30000019073,516630.858,521323.298,8,400,,,
trial,html.Screen,4_59_0,2023-09-09T16:13:00.025Z,,0,2,,5457.102000095358,response,ISIC_4049598.JPG,5,ISIC_7824688.JPG,ISIC_4049598.JPG,false,1,keypress(m),500,526780.5,526780.4000000954,521306.742,521322,521323.298,526783.859,8,400,10,,ISIC_7824688.JPG
break,html.Screen,4_59_1,2023-09-09T16:13:00.026Z,,0,,,NaN,,,,,,false,,,,526780.9000000954,526780.8000001907,,526780.5999999046,,526783.859,8,400,,,
break_continue,html.Screen,4_59_2,2023-09-09T16:13:00.026Z,,0,,,NaN,,,,,,false,,,,526781.0999999046,526781.0999999046,,526781,,526783.859,8,400,,,
sequence,flow.Sequence,4_59,2023-09-09T16:13:00.026Z,,0,,,5457.801999904623,completion,,,,,false,,,,526781.3000001907,526781.0999999046,521306.742,521322,521323.298,526783.859,8,400,,,
trial,html.Screen,4_60_0,2023-09-09T16:13:05.739Z,,0,2,,5710.640999999945,response,ISIC_0069210.JPG,6,ISIC_0026552.JPG,ISIC_0069210.JPG,false,1,keypress(m),500,532494.5999999046,532494.5,526767.254,526781.3000001907,526783.859,532511.812,8,400,11,,ISIC_0026552.JPG
break,html.Screen,4_60_1,2023-09-09T16:13:05.740Z,,0,,,NaN,,,,,,false,,,,532495.4000000954,532495.0999999046,,532494.7000002861,,532511.812,8,400,,,
break_continue,html.Screen,4_60_2,2023-09-09T16:13:05.740Z,,0,,,NaN,,,,,,false,,,,532495.7000002861,532495.5999999046,,532495.4000000954,,532511.812,8,400,,,
sequence,flow.Sequence,4_60,2023-09-09T16:13:05.740Z,,0,,,5711.740999904578,completion,,,,,false,,,,532495.7000002861,532495.5999999046,526767.254,526781.3000001907,526783.859,532511.812,8,400,,,
trial,html.Screen,4_61_0,2023-09-09T16:13:12.911Z,,0,2,,7154.4880001907,response,ISIC_4906385.JPG,4,ISIC_9303849.JPG,ISIC_4906385.JPG,false,1,keypress(m),500,539666.4000000954,539666.3000001907,532495.093,532495.8000001907,532511.812,539675.643,8,400,12,,ISIC_9303849.JPG
break,html.Screen,4_61_1,2023-09-09T16:13:12.911Z,,0,,,NaN,,,,,,false,,,,539666.8000001907,539666.7000002861,,539666.5,,539675.643,8,400,,,
break_continue,html.Screen,4_61_2,2023-09-09T16:13:12.912Z,,0,,,NaN,,,,,,false,,,,539667.0999999046,539667,,539667,,539675.643,8,400,,,
sequence,flow.Sequence,4_61,2023-09-09T16:13:12.912Z,,0,,,7155.1879999999655,completion,,,,,false,,,,539667.2000002861,539667,532495.093,532495.7000002861,532511.812,539675.643,8,400,,,
trial,html.Screen,4_62_0,2023-09-09T16:13:17.219Z,,0,2,,4298.157000190695,response,ISIC_0058033.JPG,6,ISIC_5559165.JPG,ISIC_0058033.JPG,false,1,keypress(m),500,543974.2000002861,543973.8000001907,539658.948,539667.3000001907,539675.643,543984.09,8,400,13,,ISIC_5559165.JPG
break,html.Screen,4_62_1,2023-09-09T16:13:17.220Z,,0,,,NaN,,,,,,false,,,,543975.8000001907,543975.2000002861,,543974.5999999046,,543984.09,8,400,,,
break_continue,html.Screen,4_62_2,2023-09-09T16:13:17.222Z,,0,,,NaN,,,,,,false,,,,543977.2000002861,543976.8000001907,,543976.3000001907,,543984.09,8,400,,,
sequence,flow.Sequence,4_62,2023-09-09T16:13:17.222Z,,0,,,4301.157000190695,completion,,,,,false,,,,543977.8000001907,543976.8000001907,539658.948,539667.3000001907,539675.643,543984.09,8,400,,,
trial,html.Screen,4_63_0,2023-09-09T16:13:24.746Z,,0,2,,7517.410000000033,response,ISIC_0011995.JPG,5,ISIC_7271718.JPG,ISIC_7271718.JPG,false,0,keypress(z),500,551501.5999999046,551501.5,543967.336,543978.3000001907,543984.09,551515.387,8,400,14,,ISIC_0011995.JPG
break,html.Screen,4_63_1,2023-09-09T16:13:24.747Z,,0,,,NaN,,,,,,false,,,,551502.0999999046,551502,,551501.7000002861,,551515.387,8,400,,,
break_continue,html.Screen,4_63_2,2023-09-09T16:13:24.747Z,,0,,,NaN,,,,,,false,,,,551502.5,551502.4000000954,,551502.3000001907,,551515.387,8,400,,,
sequence,flow.Sequence,4_63,2023-09-09T16:13:24.747Z,,0,,,7518.3100000954,completion,,,,,false,,,,551502.5999999046,551502.4000000954,543967.336,543978.0999999046,543984.09,551515.387,8,400,,,
trial,html.Screen,4_64_0,2023-09-09T16:13:31.728Z,,0,2,,6967.5130000953795,response,ISIC_6739241.JPG,5,ISIC_7329395.JPG,ISIC_7329395.JPG,false,0,keypress(z),500,558483,558482.9000000954,551498.87,551502.7000002861,551515.387,558495.637,8,400,15,,ISIC_6739241.JPG
break,html.Screen,4_64_1,2023-09-09T16:13:31.728Z,,0,,,NaN,,,,,,false,,,,558483.4000000954,558483.4000000954,,558483.0999999046,,558495.637,8,400,,,
break_continue,html.Screen,4_64_2,2023-09-09T16:13:31.728Z,,0,,,NaN,,,,,,false,,,,558483.7000002861,558483.5999999046,,558483.5,,558495.637,8,400,,,
sequence,flow.Sequence,4_64,2023-09-09T16:13:31.728Z,,0,,,6968.212999904645,completion,,,,,false,,,,558483.7000002861,558483.5999999046,551498.87,551502.7000002861,551515.387,558495.637,8,400,,,
trial,html.Screen,4_65_0,2023-09-09T16:13:36.130Z,,0,2,,4389.363000000012,response,ISIC_0072382.JPG,4,ISIC_0070805.JPG,ISIC_0072382.JPG,false,1,keypress(m),500,562885.0999999046,562885,558478.877,558483.8000001907,558495.637,562887.494,8,400,16,,ISIC_0070805.JPG
break,html.Screen,4_65_1,2023-09-09T16:13:36.130Z,,0,,,NaN,,,,,,false,,,,562885.5,562885.4000000954,,562885.2000002861,,562887.494,8,400,,,
break_continue,html.Screen,4_65_2,2023-09-09T16:13:36.130Z,,0,,,NaN,,,,,,false,,,,562885.7000002861,562885.7000002861,,562885.5,,562887.494,8,400,,,
sequence,flow.Sequence,4_65,2023-09-09T16:13:36.130Z,,0,,,4390.063000286114,completion,,,,,false,,,,562885.8000001907,562885.7000002861,558478.877,558483.7000002861,558495.637,562887.494,8,400,,,
trial,html.Screen,4_66_0,2023-09-09T16:13:40.308Z,,0,2,,4176.006000000052,response,ISIC_1550721.JPG,4,ISIC_0033228.JPG,ISIC_0033228.JPG,false,0,keypress(z),500,567063.5999999046,567063.5,562870.794,562885.8000001907,562887.494,567079.123,8,400,17,,ISIC_1550721.JPG
break,html.Screen,4_66_1,2023-09-09T16:13:40.309Z,,0,,,NaN,,,,,,false,,,,567064.2000002861,567064,,567063.8000001907,,567079.123,8,400,,,
break_continue,html.Screen,4_66_2,2023-09-09T16:13:40.309Z,,0,,,NaN,,,,,,false,,,,567064.5999999046,567064.4000000954,,567064.4000000954,,567079.123,8,400,,,
sequence,flow.Sequence,4_66,2023-09-09T16:13:40.309Z,,0,,,4176.90600009542,completion,,,,,false,,,,567064.5999999046,567064.4000000954,562870.794,562885.8000001907,562887.494,567079.123,8,400,,,
trial,html.Screen,4_67_0,2023-09-09T16:13:45.562Z,,0,2,,5237.876999999979,response,ISIC_0024853.JPG,5,ISIC_5607702.JPG,ISIC_0024853.JPG,false,1,keypress(m),500,572317.2000002861,572317,567062.305,567064.7000002861,567079.123,572322.588,8,400,18,,ISIC_5607702.JPG
break,html.Screen,4_67_1,2023-09-09T16:13:45.562Z,,0,,,NaN,,,,,,false,,,,572317.7000002861,572317.5999999046,,572317.3000001907,,572322.588,8,400,,,
break_continue,html.Screen,4_67_2,2023-09-09T16:13:45.562Z,,0,,,NaN,,,,,,false,,,,572317.9000000954,572317.8000001907,,572317.7000002861,,572322.588,8,400,,,
sequence,flow.Sequence,4_67,2023-09-09T16:13:45.563Z,,0,,,5238.677000190713,completion,,,,,false,,,,572317.9000000954,572317.8000001907,567062.305,567064.7000002861,567079.123,572322.588,8,400,,,
trial,html.Screen,4_68_0,2023-09-09T16:13:50.380Z,,0,2,,4812.912000000011,response,ISIC_4672131.JPG,5,ISIC_7575957.JPG,ISIC_4672131.JPG,false,1,keypress(m),500,577135.5999999046,577135.5,572305.868,572318,572322.588,577148.686,8,400,19,,ISIC_7575957.JPG
break,html.Screen,4_68_1,2023-09-09T16:13:50.381Z,,0,,,NaN,,,,,,false,,,,577136,577135.9000000954,,577135.7000002861,,577148.686,8,400,,,
break_continue,html.Screen,4_68_2,2023-09-09T16:13:50.381Z,,0,,,NaN,,,,,,false,,,,577136.0999999046,577136.0999999046,,577136,,577148.686,8,400,,,
sequence,flow.Sequence,4_68,2023-09-09T16:13:50.381Z,,0,,,4813.511999904644,completion,,,,,false,,,,577136.3000001907,577136.0999999046,572305.868,572318,572322.588,577148.686,8,400,,,
trial,html.Screen,4_69_0,2023-09-09T16:13:54.931Z,,0,2,,4537.314000000013,response,ISIC_0027271.JPG,5,ISIC_4148086.JPG,ISIC_0027271.JPG,false,1,keypress(m),500,581686.0999999046,581686,577131.948,577136.3000001907,577148.686,581690.784,8,400,20,,ISIC_4148086.JPG
break,html.Screen,4_69_1,2023-09-09T16:13:54.931Z,,0,,,NaN,,,,,,false,,,,581686.5,581686.4000000954,,581686.2000002861,,581690.784,8,400,,,
break_continue,html.Screen,4_69_2,2023-09-09T16:13:54.931Z,,0,,,NaN,,,,,,false,,,,581686.7000002861,581686.7000002861,,581686.5999999046,,581690.784,8,400,,,
sequence,flow.Sequence,4_69,2023-09-09T16:13:54.931Z,,0,,,4538.014000286115,completion,,,,,false,,,,581686.8000001907,581686.7000002861,577131.948,577136.3000001907,577148.686,581690.784,8,400,,,
trial,html.Screen,4_70_0,2023-09-09T16:14:02.198Z,,0,2,,7261.51600019075,response,ISIC_0014766.JPG,4,ISIC_0030393.JPG,ISIC_0014766.JPG,false,1,keypress(m),500,588952.7000002861,588952.3000001907,581674.073,581686.9000000954,581690.784,588955,8,400,21,,ISIC_0030393.JPG
break,html.Screen,4_70_1,2023-09-09T16:14:02.200Z,,0,,,NaN,,,,,,false,,,,588954.3000001907,588953.8000001907,,588953.0999999046,,588955,8,400,,,
break_continue,html.Screen,4_70_2,2023-09-09T16:14:02.201Z,,0,,,NaN,,,,,,false,,,,588954.9000000954,588954.7000002861,,588954.5,,588955,8,400,,,
sequence,flow.Sequence,4_70,2023-09-09T16:14:02.201Z,,0,,,7263.916000286117,completion,,,,,false,,,,588955.5,588954.7000002861,581674.073,581686.9000000954,581690.784,588955,8,400,,,
trial,html.Screen,4_71_0,2023-09-09T16:14:08.946Z,,0,2,,6745,response,ISIC_5746904.JPG,5,ISIC_6855540.JPG,ISIC_5746904.JPG,false,1,keypress(m),500,595700.2000002861,595700,588938.275,588955.7000002861,588955,595701.394,8,400,22,,ISIC_6855540.JPG
break,html.Screen,4_71_1,2023-09-09T16:14:08.946Z,,0,,,NaN,,,,,,false,,,,595700.8000001907,595700.5999999046,,595700.4000000954,,595701.394,8,400,,,
break_continue,html.Screen,4_71_2,2023-09-09T16:14:08.947Z,,0,,,NaN,,,,,,false,,,,595701.0999999046,595701,,595700.9000000954,,595701.394,8,400,,,
sequence,flow.Sequence,4_71,2023-09-09T16:14:08.947Z,,0,,,6746,completion,,,,,false,,,,595701.0999999046,595701,588938.275,588955.5999999046,588955,595701.394,8,400,,,
trial,html.Screen,4_72_0,2023-09-09T16:14:15.717Z,,0,2,,6769.506000095396,response,ISIC_7663476.JPG,6,ISIC_0015179.JPG,ISIC_0015179.JPG,false,0,keypress(z),500,602471,602470.9000000954,595684.703,595701.3000001907,595701.394,602497.996,8,400,23,,ISIC_7663476.JPG
break,html.Screen,4_72_1,2023-09-09T16:14:15.717Z,,0,,,NaN,,,,,,false,,,,602471.4000000954,602471.3000001907,,602471.0999999046,,602497.996,8,400,,,
break_continue,html.Screen,4_72_2,2023-09-09T16:14:15.717Z,,0,,,NaN,,,,,,false,,,,602471.5,602471.5,,602471.4000000954,,602497.996,8,400,,,
sequence,flow.Sequence,4_72,2023-09-09T16:14:15.717Z,,0,,,6770.106000000029,completion,,,,,false,,,,602471.7000002861,602471.5,595684.703,595701.3000001907,595701.394,602497.996,8,400,,,
trial,html.Screen,4_73_0,2023-09-09T16:14:21.671Z,,0,2,,5927.704000286059,response,ISIC_8617277.JPG,5,ISIC_6714082.JPG,ISIC_8617277.JPG,false,1,keypress(m),500,608425.8000001907,608425.7000002861,602481.314,602471.7000002861,602497.996,608442.943,8,400,24,,ISIC_6714082.JPG
break,html.Screen,4_73_1,2023-09-09T16:14:21.672Z,,0,,,NaN,,,,,,false,,,,608426.5999999046,608426.3000001907,,608426,,608442.943,8,400,,,
break_continue,html.Screen,4_73_2,2023-09-09T16:14:21.672Z,,0,,,NaN,,,,,,false,,,,608426.9000000954,608426.8000001907,,608426.5999999046,,608442.943,8,400,,,
sequence,flow.Sequence,4_73,2023-09-09T16:14:21.672Z,,0,,,5928.804000190692,completion,,,,,false,,,,608427,608426.8000001907,602481.314,602471.7000002861,602497.996,608442.943,8,400,,,
trial,html.Screen,4_74_0,2023-09-09T16:14:28.010Z,,0,2,,6320.957000095397,response,ISIC_8161933.JPG,4,ISIC_7196249.JPG,ISIC_8161933.JPG,false,1,keypress(m),500,614764.0999999046,614763.9000000954,608426.131,608427,608442.943,614771.828,8,400,25,,ISIC_7196249.JPG
break,html.Screen,4_74_1,2023-09-09T16:14:28.011Z,,0,,,NaN,,,,,,false,,,,614765,614764.5999999046,,614764.2000002861,,614771.828,8,400,,,
break_continue,html.Screen,4_74_2,2023-09-09T16:14:28.011Z,,0,,,NaN,,,,,,false,,,,614765.4000000954,614765.3000001907,,614765.0999999046,,614771.828,8,400,,,
sequence,flow.Sequence,4_74,2023-09-09T16:14:28.011Z,,0,,,6322.357000190765,completion,,,,,false,,,,614765.5,614765.3000001907,608426.131,608427,608442.943,614771.828,8,400,,,
trial,html.Screen,4_75_0,2023-09-09T16:14:32.486Z,,0,2,,4467.472000190755,response,ISIC_8168598.JPG,5,ISIC_0011128.JPG,ISIC_0011128.JPG,false,0,keypress(z),500,619240.2000002861,619239.3000001907,614755.152,614765.5,614771.828,619247.166,8,400,26,,ISIC_8168598.JPG
break,html.Screen,4_75_1,2023-09-09T16:14:32.488Z,,0,,,NaN,,,,,,false,,,,619242.7000002861,619241.7000002861,,619240.5999999046,,619247.166,8,400,,,
break_continue,html.Screen,4_75_2,2023-09-09T16:14:32.489Z,,0,,,NaN,,,,,,false,,,,619243.7000002861,619243.5,,619243.2000002861,,619247.166,8,400,,,
sequence,flow.Sequence,4_75,2023-09-09T16:14:32.489Z,,0,,,4471.6720000000205,completion,,,,,false,,,,619243.8000001907,619243.5,614755.152,614765.5,614771.828,619247.166,8,400,,,
trial,html.Screen,4_76_0,2023-09-09T16:14:38.683Z,,0,2,,6189.933999904664,response,ISIC_0031074.JPG,6,ISIC_0069633.JPG,ISIC_0069633.JPG,false,0,keypress(z),500,625437.3000001907,625437.0999999046,619230.43,619243.9000000954,619247.166,625442.588,8,400,27,,ISIC_0031074.JPG
break,html.Screen,4_76_1,2023-09-09T16:14:38.684Z,,0,,,NaN,,,,,,false,,,,625438.2000002861,625437.9000000954,,625437.5,,625442.588,8,400,,,
break_continue,html.Screen,4_76_2,2023-09-09T16:14:38.684Z,,0,,,NaN,,,,,,false,,,,625438.5,625438.4000000954,,625438.3000001907,,625442.588,8,400,,,
sequence,flow.Sequence,4_76,2023-09-09T16:14:38.684Z,,0,,,6191.234000095399,completion,,,,,false,,,,625438.7000002861,625438.4000000954,619230.43,619243.9000000954,619247.166,625442.588,8,400,,,
trial,html.Screen,4_77_0,2023-09-09T16:14:45.682Z,,0,2,,6993.912000000011,response,ISIC_0027666.JPG,6,ISIC_0072624.JPG,ISIC_0072624.JPG,false,0,keypress(z),500,632436.5999999046,632436.5,625426.073,625438.8000001907,625442.588,632456.224,8,400,28,,ISIC_0027666.JPG
break,html.Screen,4_77_1,2023-09-09T16:14:45.683Z,,0,,,NaN,,,,,,false,,,,632437.0999999046,632437,,632436.7000002861,,632456.224,8,400,,,
break_continue,html.Screen,4_77_2,2023-09-09T16:14:45.683Z,,0,,,NaN,,,,,,false,,,,632437.3000001907,632437.2000002861,,632437.2000002861,,632456.224,8,400,,,
sequence,flow.Sequence,4_77,2023-09-09T16:14:45.683Z,,0,,,6994.6120002861135,completion,,,,,false,,,,632437.4000000954,632437.2000002861,625426.073,625438.8000001907,625442.588,632456.224,8,400,,,
trial,html.Screen,4_78_0,2023-09-09T16:14:51.972Z,,0,2,,6270.076000190689,response,ISIC_1925623.JPG,6,ISIC_6618652.JPG,ISIC_1925623.JPG,false,1,keypress(m),500,638726.4000000954,638726.3000001907,632439.533,632437.4000000954,632456.224,638735.141,8,400,29,,ISIC_6618652.JPG
break,html.Screen,4_78_1,2023-09-09T16:14:51.972Z,,0,,,NaN,,,,,,false,,,,638726.9000000954,638726.8000001907,,638726.5999999046,,638735.141,8,400,,,
break_continue,html.Screen,4_78_2,2023-09-09T16:14:51.973Z,,0,,,NaN,,,,,,false,,,,638727.0999999046,638727,,638726.9000000954,,638735.141,8,400,,,
sequence,flow.Sequence,4_78,2023-09-09T16:14:51.973Z,,0,,,6270.775999999954,completion,,,,,false,,,,638727.0999999046,638727,632439.533,632437.4000000954,632456.224,638735.141,8,400,,,
trial,html.Screen,4_79_0,2023-09-09T16:14:57.703Z,,0,2,,5720.9589999046875,response,ISIC_0010017.JPG,6,ISIC_6162545.JPG,ISIC_0010017.JPG,false,1,keypress(m),500,644456.3000001907,644456.0999999046,638718.418,638727.2000002861,638735.141,644462.928,8,400,30,,ISIC_6162545.JPG
break,html.Screen,4_79_1,2023-09-09T16:14:57.703Z,,0,,,NaN,,,,,,false,,,,644456.7000002861,644456.5999999046,,644456.4000000954,,644462.928,8,400,,,
break_continue,html.Screen,4_79_2,2023-09-09T16:14:57.704Z,,0,,,NaN,,,,,,false,,,,644456.9000000954,644456.9000000954,,644456.8000001907,,644462.928,8,400,,,
sequence,flow.Sequence,4_79,2023-09-09T16:14:57.704Z,,0,,,5721.759000095422,completion,,,,,false,,,,644457.0999999046,644456.9000000954,638718.418,638727.0999999046,638735.141,644462.928,8,400,,,
trial,html.Screen,4_80_0,2023-09-09T16:15:02.345Z,,0,2,,4635.372000190779,response,ISIC_7489895.JPG,5,ISIC_0011863.JPG,ISIC_0011863.JPG,false,0,keypress(z),500,649098.5,649098.3000001907,644446.2,644457.2000002861,644462.928,649105.285,8,400,31,,ISIC_7489895.JPG
break,html.Screen,4_80_1,2023-09-09T16:15:02.346Z,,0,,,NaN,,,,,,false,,,,649099.3000001907,649099,,649098.7000002861,,649105.285,8,400,,,
break_continue,html.Screen,4_80_2,2023-09-09T16:15:02.346Z,,0,,,NaN,,,,,,false,,,,649099.5999999046,649099.5,,649099.3000001907,,649105.285,8,400,,,
sequence,flow.Sequence,4_80,2023-09-09T16:15:02.346Z,,0,,,4636.572000000044,completion,,,,,false,,,,649099.7000002861,649099.5,644446.2,644457.0999999046,644462.928,649105.285,8,400,,,
trial,html.Screen,4_81_0,2023-09-09T16:15:06.637Z,,0,2,,4285.3149999046,response,ISIC_0894785.JPG,5,ISIC_0025800.JPG,ISIC_0894785.JPG,false,1,keypress(m),500,653390.8000001907,653390.5999999046,649088.769,649099.8000001907,649105.285,653396.972,8,400,32,,ISIC_0025800.JPG
break,html.Screen,4_81_1,2023-09-09T16:15:06.638Z,,0,,,NaN,,,,,,false,,,,653391.2000002861,653391.0999999046,,653390.9000000954,,653396.972,8,400,,,
break_continue,html.Screen,4_81_2,2023-09-09T16:15:06.638Z,,0,,,NaN,,,,,,false,,,,653391.5,653391.4000000954,,653391.4000000954,,653396.972,8,400,,,
sequence,flow.Sequence,4_81,2023-09-09T16:15:06.638Z,,0,,,4286.115000095335,completion,,,,,false,,,,653391.5,653391.4000000954,649088.769,649099.8000001907,649105.285,653396.972,8,400,,,
trial,html.Screen,4_82_0,2023-09-09T16:15:14.623Z,,0,2,,7979.828000190784,response,ISIC_0069791.JPG,6,ISIC_0294399.JPG,ISIC_0069791.JPG,false,1,keypress(m),500,661376.9000000954,661376.8000001907,653380.287,653391.5999999046,653396.972,661379.19,8,400,33,,ISIC_0294399.JPG
break,html.Screen,4_82_1,2023-09-09T16:15:14.624Z,,0,,,NaN,,,,,,false,,,,661377.8000001907,661377.5,,661377.0999999046,,661379.19,8,400,,,
break_continue,html.Screen,4_82_2,2023-09-09T16:15:14.625Z,,0,,,NaN,,,,,,false,,,,661378.0999999046,661378.0999999046,,661377.8000001907,,661379.19,8,400,,,
sequence,flow.Sequence,4_82,2023-09-09T16:15:14.625Z,,0,,,7981.127999904682,completion,,,,,false,,,,661378.3000001907,661378.0999999046,653380.287,653391.5,653396.972,661379.19,8,400,,,
trial,html.Screen,4_83_0,2023-09-09T16:15:18.707Z,,0,2,,4081.010000286158,response,ISIC_1432058.JPG,5,ISIC_0027492.JPG,ISIC_1432058.JPG,false,1,keypress(m),500,665460.3000001907,665460.2000002861,661362.496,661378.3000001907,661379.19,665470.54,8,400,34,,ISIC_0027492.JPG
break,html.Screen,4_83_1,2023-09-09T16:15:18.707Z,,0,,,NaN,,,,,,false,,,,665460.7000002861,665460.7000002861,,665460.4000000954,,665470.54,8,400,,,
break_continue,html.Screen,4_83_2,2023-09-09T16:15:18.707Z,,0,,,NaN,,,,,,false,,,,665461,665460.9000000954,,665460.8000001907,,665470.54,8,400,,,
sequence,flow.Sequence,4_83,2023-09-09T16:15:18.708Z,,0,,,4081.7100000954233,completion,,,,,false,,,,665461.0999999046,665460.9000000954,661362.496,661378.3000001907,661379.19,665470.54,8,400,,,
trial,html.Screen,4_84_0,2023-09-09T16:15:22.933Z,,0,2,,4215.959999999963,response,ISIC_0011370.JPG,5,ISIC_8071637.JPG,ISIC_0011370.JPG,false,1,keypress(m),500,669686.5999999046,669686.5,665454.015,665461.0999999046,665470.54,669695.366,8,400,35,,ISIC_8071637.JPG
break,html.Screen,4_84_1,2023-09-09T16:15:22.934Z,,0,,,NaN,,,,,,false,,,,669687.2000002861,669687,,669686.7000002861,,669695.366,8,400,,,
break_continue,html.Screen,4_84_2,2023-09-09T16:15:22.934Z,,0,,,NaN,,,,,,false,,,,669687.5,669687.4000000954,,669687.3000001907,,669695.366,8,400,,,
sequence,flow.Sequence,4_84,2023-09-09T16:15:22.934Z,,0,,,4216.86000009533,completion,,,,,false,,,,669687.5,669687.4000000954,665454.015,665461.0999999046,665470.54,669695.366,8,400,,,
trial,html.Screen,4_85_0,2023-09-09T16:15:29.406Z,,0,2,,6463.733999904594,response,ISIC_0024918.JPG,5,ISIC_0028949.JPG,ISIC_0024918.JPG,false,1,keypress(m),500,676159.2000002861,676159.0999999046,669678.677,669687.5999999046,669695.366,676174.703,8,400,36,,ISIC_0028949.JPG
break,html.Screen,4_85_1,2023-09-09T16:15:29.406Z,,0,,,NaN,,,,,,false,,,,676159.8000001907,676159.5999999046,,676159.4000000954,,676174.703,8,400,,,
break_continue,html.Screen,4_85_2,2023-09-09T16:15:29.407Z,,0,,,NaN,,,,,,false,,,,676160.0999999046,676159.9000000954,,676159.8000001907,,676174.703,8,400,,,
sequence,flow.Sequence,4_85,2023-09-09T16:15:29.407Z,,0,,,6464.534000095329,completion,,,,,false,,,,676160.0999999046,676159.9000000954,669678.677,669687.5,669695.366,676174.703,8,400,,,
trial,html.Screen,4_86_0,2023-09-09T16:15:35.696Z,,0,2,,6274.7970000000205,response,ISIC_0033324.JPG,5,ISIC_3251773.JPG,ISIC_0033324.JPG,false,1,keypress(m),500,682449.8000001907,682449.5,676157.976,676160.3000001907,676174.703,682453.517,8,400,37,,ISIC_3251773.JPG
break,html.Screen,4_86_1,2023-09-09T16:15:35.697Z,,0,,,NaN,,,,,,false,,,,682450.7000002861,682450.4000000954,,682450,,682453.517,8,400,,,
break_continue,html.Screen,4_86_2,2023-09-09T16:15:35.698Z,,0,,,NaN,,,,,,false,,,,682451.0999999046,682451,,682450.7000002861,,682453.517,8,400,,,
sequence,flow.Sequence,4_86,2023-09-09T16:15:35.698Z,,0,,,6276.2970000000205,completion,,,,,false,,,,682451.4000000954,682451,676157.976,676160.2000002861,676174.703,682453.517,8,400,,,
trial,html.Screen,4_87_0,2023-09-09T16:15:42.231Z,,0,2,,6530.483000000007,response,ISIC_0015185.JPG,6,ISIC_9152603.JPG,ISIC_0015185.JPG,false,1,keypress(m),500,688984.2000002861,688984,682436.814,682451.7000002861,682453.517,688999.584,8,400,38,,ISIC_9152603.JPG
break,html.Screen,4_87_1,2023-09-09T16:15:42.231Z,,0,,,NaN,,,,,,false,,,,688984.7000002861,688984.5999999046,,688984.3000001907,,688999.584,8,400,,,
break_continue,html.Screen,4_87_2,2023-09-09T16:15:42.232Z,,0,,,NaN,,,,,,false,,,,688985,688984.9000000954,,688984.8000001907,,688999.584,8,400,,,
sequence,flow.Sequence,4_87,2023-09-09T16:15:42.232Z,,0,,,6531.383000095375,completion,,,,,false,,,,688985.0999999046,688984.9000000954,682436.814,682451.5999999046,682453.517,688999.584,8,400,,,
trial,html.Screen,4_88_0,2023-09-09T16:15:50.459Z,,0,2,,8212.11600028607,response,ISIC_0007084.JPG,5,ISIC_1595103.JPG,ISIC_0007084.JPG,false,1,keypress(m),500,697212,697211.7000002861,688983.017,688985.2000002861,688999.584,697232.275,8,400,39,,ISIC_1595103.JPG
break,html.Screen,4_88_1,2023-09-09T16:15:50.459Z,,0,,,NaN,,,,,,false,,,,697212.7000002861,697212.5999999046,,697212.0999999046,,697232.275,8,400,,,
break_continue,html.Screen,4_88_2,2023-09-09T16:15:50.460Z,,0,,,NaN,,,,,,false,,,,697213,697212.9000000954,,697212.9000000954,,697232.275,8,400,,,
sequence,flow.Sequence,4_88,2023-09-09T16:15:50.460Z,,0,,,8213.316000095336,completion,,,,,false,,,,697213.0999999046,697212.9000000954,688983.017,688985.0999999046,688999.584,697232.275,8,400,,,
trial,html.Screen,4_89_0,2023-09-09T16:15:55.198Z,,0,2,,4719.125000095344,response,ISIC_7839741.JPG,5,ISIC_0065748.JPG,ISIC_0065748.JPG,false,0,keypress(z),500,701951.5,701951.4000000954,697198.878,697213.2000002861,697232.275,701958.136,8,400,40,,ISIC_7839741.JPG
break,html.Screen,4_89_1,2023-09-09T16:15:55.199Z,,0,,,NaN,,,,,,false,,,,701952.0999999046,701951.9000000954,,701951.7000002861,,701958.136,8,400,,,
break_continue,html.Screen,4_89_2,2023-09-09T16:15:55.199Z,,0,,,NaN,,,,,,false,,,,701952.4000000954,701952.2000002861,,701952.0999999046,,701958.136,8,400,,,
sequence,flow.Sequence,4_89,2023-09-09T16:15:55.199Z,,0,,,4719.925000286079,completion,,,,,false,,,,701952.4000000954,701952.2000002861,697198.878,697213.0999999046,697232.275,701958.136,8,400,,,
trial,html.Screen,4_90_0,2023-09-09T16:16:00.005Z,,0,2,,4799.0640002860455,response,ISIC_0024757.JPG,6,ISIC_0072828.JPG,ISIC_0072828.JPG,false,0,keypress(z),500,706757.4000000954,706757.2000002861,701941.456,701952.5,701958.136,706767.478,8,400,41,,ISIC_0024757.JPG
break,html.Screen,4_90_1,2023-09-09T16:16:00.006Z,,0,,,NaN,,,,,,false,,,,706758.2000002861,706758,,706757.5999999046,,706767.478,8,400,,,
break_continue,html.Screen,4_90_2,2023-09-09T16:16:00.006Z,,0,,,NaN,,,,,,false,,,,706758.5,706758.4000000954,,706758.3000001907,,706767.478,8,400,,,
sequence,flow.Sequence,4_90,2023-09-09T16:16:00.006Z,,0,,,4800.264000095311,completion,,,,,false,,,,706758.5999999046,706758.4000000954,701941.456,701952.5,701958.136,706767.478,8,400,,,
trial,html.Screen,4_91_0,2023-09-09T16:16:04.764Z,,0,2,,4748.62199990463,response,ISIC_0057881.JPG,5,ISIC_0011315.JPG,ISIC_0057881.JPG,false,1,keypress(m),500,711516.0999999046,711516.0999999046,706750.786,706758.7000002861,706767.478,711526.927,8,400,42,,ISIC_0011315.JPG
break,html.Screen,4_91_1,2023-09-09T16:16:04.764Z,,0,,,NaN,,,,,,false,,,,711516.5999999046,711516.5,,711516.2000002861,,711526.927,8,400,,,
break_continue,html.Screen,4_91_2,2023-09-09T16:16:04.765Z,,0,,,NaN,,,,,,false,,,,711517,711517,,711516.8000001907,,711526.927,8,400,,,
sequence,flow.Sequence,4_91,2023-09-09T16:16:04.765Z,,0,,,4749.521999999997,completion,,,,,false,,,,711517.2000002861,711517,706750.786,706758.7000002861,706767.478,711526.927,8,400,,,
trial,html.Screen,4_92_0,2023-09-09T16:16:09.285Z,,0,2,,4510.172999904607,response,ISIC_0004564.JPG,5,ISIC_4699066.JPG,ISIC_4699066.JPG,false,0,keypress(z),500,716037.3000001907,716037.0999999046,711510.16,711517.2000002861,711526.927,716052.302,8,400,43,,ISIC_0004564.JPG
break,html.Screen,4_92_1,2023-09-09T16:16:09.285Z,,0,,,NaN,,,,,,false,,,,716037.5999999046,716037.5,,716037.4000000954,,716052.302,8,400,,,
break_continue,html.Screen,4_92_2,2023-09-09T16:16:09.285Z,,0,,,NaN,,,,,,false,,,,716037.9000000954,716037.9000000954,,716037.8000001907,,716052.302,8,400,,,
sequence,flow.Sequence,4_92,2023-09-09T16:16:09.286Z,,0,,,4510.973000095342,completion,,,,,false,,,,716038,716037.9000000954,711510.16,711517.2000002861,711526.927,716052.302,8,400,,,
trial,html.Screen,4_93_0,2023-09-09T16:16:14.172Z,,0,2,,4872.49800019071,response,ISIC_0033879.JPG,4,ISIC_0027067.JPG,ISIC_0027067.JPG,false,0,keypress(z),500,720924.9000000954,720924.8000001907,716035.619,716038,716052.302,720928.397,8,400,44,,ISIC_0033879.JPG
break,html.Screen,4_93_1,2023-09-09T16:16:14.173Z,,0,,,NaN,,,,,,false,,,,720925.4000000954,720925.2000002861,,720925,,720928.397,8,400,,,
break_continue,html.Screen,4_93_2,2023-09-09T16:16:14.173Z,,0,,,NaN,,,,,,false,,,,720925.5999999046,720925.5,,720925.5,,720928.397,8,400,,,
sequence,flow.Sequence,4_93,2023-09-09T16:16:14.173Z,,0,,,4873.197999999975,completion,,,,,false,,,,720925.7000002861,720925.5,716035.619,716038,716052.302,720928.397,8,400,,,
trial,html.Screen,4_94_0,2023-09-09T16:16:19.279Z,,0,2,,5102.803000286105,response,ISIC_0010208.JPG,4,ISIC_0056811.JPG,ISIC_0010208.JPG,false,1,keypress(m),500,726031.3000001907,726031.2000002861,720911.892,720925.8000001907,720928.397,726055.073,8,400,45,,ISIC_0056811.JPG
break,html.Screen,4_94_1,2023-09-09T16:16:19.279Z,,0,,,NaN,,,,,,false,,,,726031.8000001907,726031.7000002861,,726031.4000000954,,726055.073,8,400,,,
break_continue,html.Screen,4_94_2,2023-09-09T16:16:19.279Z,,0,,,NaN,,,,,,false,,,,726031.9000000954,726031.9000000954,,726031.8000001907,,726055.073,8,400,,,
sequence,flow.Sequence,4_94,2023-09-09T16:16:19.280Z,,0,,,5103.50300009537,completion,,,,,false,,,,726032,726031.9000000954,720911.892,720925.8000001907,720928.397,726055.073,8,400,,,
trial,html.Screen,4_95_0,2023-09-09T16:16:23.617Z,,0,2,,4314.026999904658,response,ISIC_2266857.JPG,6,ISIC_0058909.JPG,ISIC_0058909.JPG,false,0,keypress(z),500,730369.2000002861,730369.0999999046,726038.593,726032.0999999046,726055.073,730380.109,8,400,46,,ISIC_2266857.JPG
break,html.Screen,4_95_1,2023-09-09T16:16:23.617Z,,0,,,NaN,,,,,,false,,,,730369.9000000954,730369.7000002861,,730369.4000000954,,730380.109,8,400,,,
break_continue,html.Screen,4_95_2,2023-09-09T16:16:23.618Z,,0,,,NaN,,,,,,false,,,,730370.0999999046,730370.0999999046,,730369.9000000954,,730380.109,8,400,,,
sequence,flow.Sequence,4_95,2023-09-09T16:16:23.618Z,,0,,,4315.026999904658,completion,,,,,false,,,,730370.3000001907,730370.0999999046,726038.593,726032.0999999046,726055.073,730380.109,8,400,,,
trial,html.Screen,4_96_0,2023-09-09T16:16:30.471Z,,0,2,,6843.091000286047,response,ISIC_3298596.JPG,5,ISIC_8109460.JPG,ISIC_3298596.JPG,false,1,keypress(m),500,737223.3000001907,737223.2000002861,730363.401,730370.3000001907,730380.109,737226.809,8,400,47,,ISIC_8109460.JPG
break,html.Screen,4_96_1,2023-09-09T16:16:30.471Z,,0,,,NaN,,,,,,false,,,,737223.8000001907,737223.7000002861,,737223.4000000954,,737226.809,8,400,,,
break_continue,html.Screen,4_96_2,2023-09-09T16:16:30.472Z,,0,,,NaN,,,,,,false,,,,737224,737224,,737223.9000000954,,737226.809,8,400,,,
sequence,flow.Sequence,4_96,2023-09-09T16:16:30.472Z,,0,,,6843.890999999945,completion,,,,,false,,,,737224.0999999046,737224,730363.401,730370.3000001907,730380.109,737226.809,8,400,,,
trial,html.Screen,4_97_0,2023-09-09T16:16:38.063Z,,0,2,,7588.290999904624,response,ISIC_0054570.JPG,5,ISIC_9126343.JPG,ISIC_0054570.JPG,false,1,keypress(m),500,744815.3000001907,744815.0999999046,737210.164,737224.0999999046,737226.809,744824.943,8,400,48,,ISIC_9126343.JPG
break,html.Screen,4_97_1,2023-09-09T16:16:38.063Z,,0,,,NaN,,,,,,false,,,,744815.9000000954,744815.5999999046,,744815.3000001907,,744824.943,8,400,,,
break_continue,html.Screen,4_97_2,2023-09-09T16:16:38.064Z,,0,,,NaN,,,,,,false,,,,744816.3000001907,744816.3000001907,,744816.0999999046,,744824.943,8,400,,,
sequence,flow.Sequence,4_97,2023-09-09T16:16:38.064Z,,0,,,7589.4910001907265,completion,,,,,false,,,,744816.4000000954,744816.3000001907,737210.164,737224.0999999046,737226.809,744824.943,8,400,,,
trial,html.Screen,4_98_0,2023-09-09T16:16:44.081Z,,0,2,,6008.857000190765,response,ISIC_5813642.JPG,6,ISIC_0014994.JPG,ISIC_0014994.JPG,false,0,keypress(z),500,750833.9000000954,750833.8000001907,744808.231,744816.5,744824.943,750836.587,8,400,49,,ISIC_5813642.JPG
break,html.Screen,4_98_1,2023-09-09T16:16:44.082Z,,0,,,NaN,,,,,,false,,,,750834.3000001907,750834.2000002861,,750834,,750836.587,8,400,,,
break_continue,html.Screen,4_98_2,2023-09-09T16:16:44.082Z,,0,,,NaN,,,,,,false,,,,750834.5,750834.4000000954,,750834.4000000954,,750836.587,8,400,,,
sequence,flow.Sequence,4_98,2023-09-09T16:16:44.082Z,,0,,,6009.457000095397,completion,,,,,false,,,,750834.5999999046,750834.4000000954,744808.231,744816.5,744824.943,750836.587,8,400,,,
trial,html.Screen,4_99_0,2023-09-09T16:16:48.951Z,,0,2,,4866.512999904575,response,ISIC_0066430.JPG,4,ISIC_4343836.JPG,ISIC_0066430.JPG,false,1,keypress(m),500,755703.2000002861,755703.0999999046,750819.926,750834.5999999046,750836.587,755729.493,8,400,50,,ISIC_4343836.JPG
break,html.Screen,4_99_1,2023-09-09T16:16:58.964Z,,0,,,10002.815999999992,timeout,,,,,false,,,,765716.0999999046,765715.575,755712.803,755703.3000001907,755729.493,765732.309,8,400,,,
break_continue,html.Screen,4_99_2,2023-09-09T16:17:02.828Z,,0,,,3831.391000286094,response,,,,,false,continue,keypress(Space),,769579.8000001907,769563.7000002861,765715.575,765716.2000002861,765732.309,769589.847,8,400,,,
sequence,flow.Sequence,4_99,2023-09-09T16:17:02.828Z,,0,,,18727.113000286045,completion,,,,,false,,,,769580,769563.7000002861,750819.926,750834.5999999046,750836.587,769589.847,8,400,,,
trial,html.Screen,4_100_0,2023-09-09T16:17:08.449Z,,0,3,,5610.853000286152,response,ISIC_0011512.JPG,5,ISIC_5964676.JPG,ISIC_0011512.JPG,false,1,keypress(m),500,775200.9000000954,775200.7000002861,769573.024,769580.0999999046,769589.847,775217.427,8,400,1,,ISIC_5964676.JPG
break,html.Screen,4_100_1,2023-09-09T16:17:08.450Z,,0,,,NaN,,,,,,false,,,,775201.7000002861,775201.4000000954,,775201.2000002861,,775217.427,8,400,,,
break_continue,html.Screen,4_100_2,2023-09-09T16:17:08.450Z,,0,,,NaN,,,,,,false,,,,775201.9000000954,775201.9000000954,,775201.8000001907,,775217.427,8,400,,,
sequence,flow.Sequence,4_100,2023-09-09T16:17:08.450Z,,0,,,5612.053000095417,completion,,,,,false,,,,775202,775201.9000000954,769573.024,769580,769589.847,775217.427,8,400,,,
trial,html.Screen,4_101_0,2023-09-09T16:17:13.061Z,,0,3,,4595.072999999975,response,ISIC_6003500.JPG,5,ISIC_0055388.JPG,ISIC_0055388.JPG,false,0,keypress(z),500,779812.5999999046,779812.5,775200.807,775202,775217.427,779826.503,8,400,2,,ISIC_6003500.JPG
break,html.Screen,4_101_1,2023-09-09T16:17:13.061Z,,0,,,NaN,,,,,,false,,,,779813,779813,,779812.7000002861,,779826.503,8,400,,,
break_continue,html.Screen,4_101_2,2023-09-09T16:17:13.062Z,,0,,,NaN,,,,,,false,,,,779813.2000002861,779813.2000002861,,779813.0999999046,,779826.503,8,400,,,
sequence,flow.Sequence,4_101,2023-09-09T16:17:13.062Z,,0,,,4595.773000286077,completion,,,,,false,,,,779813.3000001907,779813.2000002861,775200.807,775202,775217.427,779826.503,8,400,,,
trial,html.Screen,4_102_0,2023-09-09T16:17:16.871Z,,0,3,,3796.0969999046065,response,ISIC_0000553.JPG,5,ISIC_0032596.JPG,ISIC_0000553.JPG,false,1,keypress(m),500,783622.7000002861,783622.5999999046,779809.644,779813.3000001907,779826.503,783633.832,8,400,3,,ISIC_0032596.JPG
break,html.Screen,4_102_1,2023-09-09T16:17:16.871Z,,0,,,NaN,,,,,,false,,,,783623.2000002861,783623,,783622.9000000954,,783633.832,8,400,,,
break_continue,html.Screen,4_102_2,2023-09-09T16:17:16.872Z,,0,,,NaN,,,,,,false,,,,783623.4000000954,783623.3000001907,,783623.2000002861,,783633.832,8,400,,,
sequence,flow.Sequence,4_102,2023-09-09T16:17:16.872Z,,0,,,3796.797000190709,completion,,,,,false,,,,783623.4000000954,783623.3000001907,779809.644,779813.3000001907,779826.503,783633.832,8,400,,,
trial,html.Screen,4_103_0,2023-09-09T16:17:21.965Z,,0,3,,5082.868000286049,response,ISIC_3651451.JPG,5,ISIC_0004352.JPG,ISIC_3651451.JPG,false,1,keypress(m),500,788716.9000000954,788716.7000002861,783617.066,783623.5,783633.832,788726.965,8,400,4,,ISIC_0004352.JPG
break,html.Screen,4_103_1,2023-09-09T16:17:21.966Z,,0,,,NaN,,,,,,false,,,,788717.3000001907,788717.0999999046,,788716.9000000954,,788726.965,8,400,,,
break_continue,html.Screen,4_103_2,2023-09-09T16:17:21.966Z,,0,,,NaN,,,,,,false,,,,788717.5,788717.5,,788717.4000000954,,788726.965,8,400,,,
sequence,flow.Sequence,4_103,2023-09-09T16:17:21.966Z,,0,,,5083.667999999947,completion,,,,,false,,,,788717.5999999046,788717.5,783617.066,783623.5,783633.832,788726.965,8,400,,,
trial,html.Screen,4_104_0,2023-09-09T16:17:27.471Z,,0,3,,5495.4350000954,response,ISIC_3151260.JPG,6,ISIC_2268341.JPG,ISIC_2268341.JPG,false,0,keypress(z),500,794222.5999999046,794222.4000000954,788710.292,788717.5999999046,788726.965,794237.791,8,400,5,,ISIC_3151260.JPG
break,html.Screen,4_104_1,2023-09-09T16:17:27.471Z,,0,,,NaN,,,,,,false,,,,794223,794222.9000000954,,794222.7000002861,,794237.791,8,400,,,
break_continue,html.Screen,4_104_2,2023-09-09T16:17:27.472Z,,0,,,NaN,,,,,,false,,,,794223.2000002861,794223.0999999046,,794223.0999999046,,794237.791,8,400,,,
sequence,flow.Sequence,4_104,2023-09-09T16:17:27.472Z,,0,,,5496.134999904665,completion,,,,,false,,,,794223.3000001907,794223.0999999046,788710.292,788717.5999999046,788726.965,794237.791,8,400,,,
trial,html.Screen,4_105_0,2023-09-09T16:17:31.681Z,,0,3,,4194.5090001907665,response,ISIC_0014127.JPG,5,ISIC_0053555.JPG,ISIC_0053555.JPG,false,0,keypress(z),500,798432.4000000954,798432.3000001907,794221.033,794223.4000000954,794237.791,798445.91,8,400,6,,ISIC_0014127.JPG
break,html.Screen,4_105_1,2023-09-09T16:17:31.681Z,,0,,,NaN,,,,,,false,,,,798432.9000000954,798432.7000002861,,798432.5,,798445.91,8,400,,,
break_continue,html.Screen,4_105_2,2023-09-09T16:17:31.681Z,,0,,,NaN,,,,,,false,,,,798433.0999999046,798433,,798432.9000000954,,798445.91,8,400,,,
sequence,flow.Sequence,4_105,2023-09-09T16:17:31.681Z,,0,,,4195.209000000032,completion,,,,,false,,,,798433.2000002861,798433,794221.033,794223.4000000954,794237.791,798445.91,8,400,,,
trial,html.Screen,4_106_0,2023-09-09T16:17:38.995Z,,0,3,,7300.490000095335,response,ISIC_0002862.JPG,5,ISIC_4966148.JPG,ISIC_4966148.JPG,false,0,keypress(z),500,805746.5999999046,805746.4000000954,798429.22,798433.2000002861,798445.91,805760.291,8,400,7,,ISIC_0002862.JPG
break,html.Screen,4_106_1,2023-09-09T16:17:38.996Z,,0,,,NaN,,,,,,false,,,,805747.4000000954,805747.0999999046,,805746.8000001907,,805760.291,8,400,,,
break_continue,html.Screen,4_106_2,2023-09-09T16:17:38.996Z,,0,,,NaN,,,,,,false,,,,805747.7000002861,805747.7000002861,,805747.5,,805760.291,8,400,,,
sequence,flow.Sequence,4_106,2023-09-09T16:17:38.996Z,,0,,,7301.79000028607,completion,,,,,false,,,,805747.8000001907,805747.7000002861,798429.22,798433.2000002861,798445.91,805760.291,8,400,,,
trial,html.Screen,4_107_0,2023-09-09T16:17:44.215Z,,0,3,,5206.109000095399,response,ISIC_0025778.JPG,6,ISIC_0033476.JPG,ISIC_0025778.JPG,false,1,keypress(m),500,810966.5,810966.4000000954,805743.52,805748,805760.291,810970.275,8,400,8,,ISIC_0033476.JPG
break,html.Screen,4_107_1,2023-09-09T16:17:44.216Z,,0,,,NaN,,,,,,false,,,,810967.2000002861,810967,,810966.7000002861,,810970.275,8,400,,,
break_continue,html.Screen,4_107_2,2023-09-09T16:17:44.216Z,,0,,,NaN,,,,,,false,,,,810967.5,810967.4000000954,,810967.3000001907,,810970.275,8,400,,,
sequence,flow.Sequence,4_107,2023-09-09T16:17:44.216Z,,0,,,5207.109000095399,completion,,,,,false,,,,810967.5999999046,810967.4000000954,805743.52,805747.9000000954,805760.291,810970.275,8,400,,,
trial,html.Screen,4_108_0,2023-09-09T16:17:49.537Z,,0,3,,5318.625000095344,response,ISIC_9222136.JPG,5,ISIC_4052597.JPG,ISIC_9222136.JPG,false,1,keypress(m),500,816289,816288.9000000954,810953.765,810967.5999999046,810970.275,816297.276,8,400,9,,ISIC_4052597.JPG
break,html.Screen,4_108_1,2023-09-09T16:17:49.538Z,,0,,,NaN,,,,,,false,,,,816289.4000000954,816289.3000001907,,816289.0999999046,,816297.276,8,400,,,
break_continue,html.Screen,4_108_2,2023-09-09T16:17:49.538Z,,0,,,NaN,,,,,,false,,,,816289.7000002861,816289.7000002861,,816289.5999999046,,816297.276,8,400,,,
sequence,flow.Sequence,4_108,2023-09-09T16:17:49.538Z,,0,,,5319.425000286079,completion,,,,,false,,,,816289.9000000954,816289.7000002861,810953.765,810967.5999999046,810970.275,816297.276,8,400,,,
trial,html.Screen,4_109_0,2023-09-09T16:17:54.835Z,,0,3,,5289.5240001907805,response,ISIC_2739449.JPG,5,ISIC_0998962.JPG,ISIC_2739449.JPG,false,1,keypress(m),500,821586.9000000954,821586.8000001907,816280.594,816289.9000000954,816297.276,821591.019,8,400,10,,ISIC_0998962.JPG
break,html.Screen,4_109_1,2023-09-09T16:17:54.836Z,,0,,,NaN,,,,,,false,,,,821587.4000000954,821587.3000001907,,821587.0999999046,,821591.019,8,400,,,
break_continue,html.Screen,4_109_2,2023-09-09T16:17:54.836Z,,0,,,NaN,,,,,,false,,,,821587.5,821587.5,,821587.4000000954,,821591.019,8,400,,,
sequence,flow.Sequence,4_109,2023-09-09T16:17:54.836Z,,0,,,5290.224000000046,completion,,,,,false,,,,821587.5999999046,821587.5,816280.594,816289.9000000954,816297.276,821591.019,8,400,,,
trial,html.Screen,4_110_0,2023-09-09T16:17:59.687Z,,0,3,,4846.281000190764,response,ISIC_8654660.JPG,4,ISIC_2928274.JPG,ISIC_8654660.JPG,false,1,keypress(m),500,826437.4000000954,826437.3000001907,821574.211,821587.5999999046,821591.019,826450.581,8,400,11,,ISIC_2928274.JPG
break,html.Screen,4_110_1,2023-09-09T16:17:59.687Z,,0,,,NaN,,,,,,false,,,,826437.9000000954,826437.7000002861,,826437.5,,826450.581,8,400,,,
break_continue,html.Screen,4_110_2,2023-09-09T16:17:59.688Z,,0,,,NaN,,,,,,false,,,,826438,826438,,826438,,826450.581,8,400,,,
sequence,flow.Sequence,4_110,2023-09-09T16:17:59.688Z,,0,,,4846.981000000029,completion,,,,,false,,,,826438.0999999046,826438,821574.211,821587.5999999046,821591.019,826450.581,8,400,,,
trial,html.Screen,4_111_0,2023-09-09T16:18:03.720Z,,0,3,,4020.1190002860967,response,ISIC_0013842.JPG,6,ISIC_8297563.JPG,ISIC_8297563.JPG,false,0,keypress(z),500,830470.9000000954,830470.7000002861,826433.783,826438.0999999046,826450.581,830474.887,8,400,12,,ISIC_0013842.JPG
break,html.Screen,4_111_1,2023-09-09T16:18:03.721Z,,0,,,NaN,,,,,,false,,,,830471.7000002861,830471.5,,830471.0999999046,,830474.887,8,400,,,
break_continue,html.Screen,4_111_2,2023-09-09T16:18:03.722Z,,0,,,NaN,,,,,,false,,,,830472.4000000954,830472.2000002861,,830471.9000000954,,830474.887,8,400,,,
sequence,flow.Sequence,4_111,2023-09-09T16:18:03.722Z,,0,,,4021.6190002860967,completion,,,,,false,,,,830472.5999999046,830472.2000002861,826433.783,826438.0999999046,826450.581,830474.887,8,400,,,
trial,html.Screen,4_112_0,2023-09-09T16:18:09.868Z,,0,3,,6143.413000190747,response,ISIC_8892236.JPG,5,ISIC_0010500.JPG,ISIC_0010500.JPG,false,0,keypress(z),500,836618.5,836618.3000001907,830458.383,830472.8000001907,830474.887,836620.145,8,400,13,,ISIC_8892236.JPG
break,html.Screen,4_112_1,2023-09-09T16:18:09.869Z,,0,,,NaN,,,,,,false,,,,836619.0999999046,836619,,836618.7000002861,,836620.145,8,400,,,
break_continue,html.Screen,4_112_2,2023-09-09T16:18:09.869Z,,0,,,NaN,,,,,,false,,,,836619.5,836619.4000000954,,836619.2000002861,,836620.145,8,400,,,
sequence,flow.Sequence,4_112,2023-09-09T16:18:09.869Z,,0,,,6144.5130000953795,completion,,,,,false,,,,836619.5999999046,836619.4000000954,830458.383,830472.7000002861,830474.887,836620.145,8,400,,,
trial,html.Screen,4_113_0,2023-09-09T16:18:14.532Z,,0,3,,4662.055000286084,response,ISIC_0069986.JPG,4,ISIC_0030981.JPG,ISIC_0069986.JPG,false,1,keypress(m),500,841282.2000002861,841282.2000002861,836603.481,836619.7000002861,836620.145,841296.113,8,400,14,,ISIC_0030981.JPG
break,html.Screen,4_113_1,2023-09-09T16:18:14.532Z,,0,,,NaN,,,,,,false,,,,841282.5999999046,841282.5999999046,,841282.3000001907,,841296.113,8,400,,,
break_continue,html.Screen,4_113_2,2023-09-09T16:18:14.532Z,,0,,,NaN,,,,,,false,,,,841282.8000001907,841282.8000001907,,841282.7000002861,,841296.113,8,400,,,
sequence,flow.Sequence,4_113,2023-09-09T16:18:14.532Z,,0,,,4662.655000190716,completion,,,,,false,,,,841282.8000001907,841282.8000001907,836603.481,836619.5999999046,836620.145,841296.113,8,400,,,
trial,html.Screen,4_114_0,2023-09-09T16:18:20.477Z,,0,3,,5930.9869999046205,response,ISIC_1515947.JPG,5,ISIC_0030798.JPG,ISIC_0030798.JPG,false,0,keypress(z),500,847227.2000002861,847227.0999999046,841279.268,841282.9000000954,841296.113,847240.829,8,400,15,,ISIC_1515947.JPG
break,html.Screen,4_114_1,2023-09-09T16:18:20.477Z,,0,,,NaN,,,,,,false,,,,847227.5999999046,847227.5,,847227.3000001907,,847240.829,8,400,,,
break_continue,html.Screen,4_114_2,2023-09-09T16:18:20.477Z,,0,,,NaN,,,,,,false,,,,847227.8000001907,847227.8000001907,,847227.7000002861,,847240.829,8,400,,,
sequence,flow.Sequence,4_114,2023-09-09T16:18:20.477Z,,0,,,5931.687000190723,completion,,,,,false,,,,847227.9000000954,847227.8000001907,841279.268,841282.9000000954,841296.113,847240.829,8,400,,,
trial,html.Screen,4_115_0,2023-09-09T16:18:26.913Z,,0,3,,6422.57100009534,response,ISIC_0067891.JPG,4,ISIC_4568425.JPG,ISIC_0067891.JPG,false,1,keypress(m),500,853663.5,853663.4000000954,847224.221,847227.9000000954,847240.829,853670.074,8,400,16,,ISIC_4568425.JPG
break,html.Screen,4_115_1,2023-09-09T16:18:26.913Z,,0,,,NaN,,,,,,false,,,,853663.9000000954,853663.8000001907,,853663.5999999046,,853670.074,8,400,,,
break_continue,html.Screen,4_115_2,2023-09-09T16:18:26.914Z,,0,,,NaN,,,,,,false,,,,853664.0999999046,853664.0999999046,,853664,,853670.074,8,400,,,
sequence,flow.Sequence,4_115,2023-09-09T16:18:26.914Z,,0,,,6423.270999904606,completion,,,,,false,,,,853664.2000002861,853664.0999999046,847224.221,847227.9000000954,847240.829,853670.074,8,400,,,
trial,html.Screen,4_116_0,2023-09-09T16:18:31.794Z,,0,3,,4874.7260001907125,response,ISIC_0010730.JPG,4,ISIC_2054180.JPG,ISIC_0010730.JPG,false,1,keypress(m),500,858544.9000000954,858544.8000001907,853653.38,853664.3000001907,853670.074,858546.224,8,400,17,,ISIC_2054180.JPG
break,html.Screen,4_116_1,2023-09-09T16:18:31.795Z,,0,,,NaN,,,,,,false,,,,858545.5999999046,858545.5,,858545.0999999046,,858546.224,8,400,,,
break_continue,html.Screen,4_116_2,2023-09-09T16:18:31.796Z,,0,,,NaN,,,,,,false,,,,858546.0999999046,858545.9000000954,,858545.8000001907,,858546.224,8,400,,,
sequence,flow.Sequence,4_116,2023-09-09T16:18:31.796Z,,0,,,4875.826000095345,completion,,,,,false,,,,858546.2000002861,858545.9000000954,853653.38,853664.3000001907,853670.074,858546.224,8,400,,,
trial,html.Screen,4_117_0,2023-09-09T16:18:38.572Z,,0,3,,6776.476000286057,response,ISIC_4680417.JPG,5,ISIC_8357420.JPG,ISIC_8357420.JPG,false,0,keypress(z),500,865322.8000001907,865322.7000002861,858529.671,858546.4000000954,858546.224,865326.061,8,400,18,,ISIC_4680417.JPG
break,html.Screen,4_117_1,2023-09-09T16:18:38.573Z,,0,,,NaN,,,,,,false,,,,865323.4000000954,865323.3000001907,,865322.9000000954,,865326.061,8,400,,,
break_continue,html.Screen,4_117_2,2023-09-09T16:18:38.573Z,,0,,,NaN,,,,,,false,,,,865323.8000001907,865323.7000002861,,865323.5,,865326.061,8,400,,,
sequence,flow.Sequence,4_117,2023-09-09T16:18:38.573Z,,0,,,6777.476000286057,completion,,,,,false,,,,865323.8000001907,865323.7000002861,858529.671,858546.3000001907,858546.224,865326.061,8,400,,,
trial,html.Screen,4_118_0,2023-09-09T16:18:42.039Z,,0,3,,3463.239000190748,response,ISIC_2085855.JPG,4,ISIC_0941332.JPG,ISIC_0941332.JPG,false,0,keypress(z),500,868789.4000000954,868789.3000001907,865309.432,865323.8000001907,865326.061,868799.476,8,400,19,,ISIC_2085855.JPG
break,html.Screen,4_118_1,2023-09-09T16:18:42.039Z,,0,,,NaN,,,,,,false,,,,868789.9000000954,868789.8000001907,,868789.5,,868799.476,8,400,,,
break_continue,html.Screen,4_118_2,2023-09-09T16:18:42.040Z,,0,,,NaN,,,,,,false,,,,868790.0999999046,868790.0999999046,,868790,,868799.476,8,400,,,
sequence,flow.Sequence,4_118,2023-09-09T16:18:42.040Z,,0,,,3464.0389999046456,completion,,,,,false,,,,868790.2000002861,868790.0999999046,865309.432,865323.8000001907,865326.061,868799.476,8,400,,,
trial,html.Screen,4_119_0,2023-09-09T16:18:47.134Z,,0,3,,5084.523999999976,response,ISIC_4780541.JPG,4,ISIC_4164882.JPG,ISIC_4780541.JPG,false,1,keypress(m),500,873884.0999999046,873884,868782.795,868790.3000001907,868799.476,873892.72,8,400,20,,ISIC_4164882.JPG
break,html.Screen,4_119_1,2023-09-09T16:18:47.134Z,,0,,,NaN,,,,,,false,,,,873884.4000000954,873884.4000000954,,873884.2000002861,,873892.72,8,400,,,
break_continue,html.Screen,4_119_2,2023-09-09T16:18:47.134Z,,0,,,NaN,,,,,,false,,,,873884.5999999046,873884.5,,873884.5,,873892.72,8,400,,,
sequence,flow.Sequence,4_119,2023-09-09T16:18:47.134Z,,0,,,5085.023999999976,completion,,,,,false,,,,873884.7000002861,873884.5,868782.795,868790.2000002861,868799.476,873892.72,8,400,,,
trial,html.Screen,4_120_0,2023-09-09T16:18:53.301Z,,0,3,,6158.280000000028,response,ISIC_0015167.JPG,5,ISIC_1534391.JPG,ISIC_0015167.JPG,false,1,keypress(m),500,880051.2000002861,880051,873876.054,873884.8000001907,873892.72,880054.719,8,400,21,,ISIC_1534391.JPG
break,html.Screen,4_120_1,2023-09-09T16:18:53.302Z,,0,,,NaN,,,,,,false,,,,880052.0999999046,880051.8000001907,,880051.5,,880054.719,8,400,,,
break_continue,html.Screen,4_120_2,2023-09-09T16:18:53.303Z,,0,,,NaN,,,,,,false,,,,880053.0999999046,880052.5999999046,,880052.2000002861,,880054.719,8,400,,,
sequence,flow.Sequence,4_120,2023-09-09T16:18:53.303Z,,0,,,6159.8799999046605,completion,,,,,false,,,,880053.4000000954,880052.5999999046,873876.054,873884.7000002861,873892.72,880054.719,8,400,,,
trial,html.Screen,4_121_0,2023-09-09T16:18:59.273Z,,0,3,,5967.981000286061,response,ISIC_5309572.JPG,5,ISIC_5778927.JPG,ISIC_5309572.JPG,false,1,keypress(m),500,886022.8000001907,886022.7000002861,880038.121,880053.5,880054.719,886033,8,400,22,,ISIC_5778927.JPG
break,html.Screen,4_121_1,2023-09-09T16:18:59.274Z,,0,,,NaN,,,,,,false,,,,886023.4000000954,886023.2000002861,,886023,,886033,8,400,,,
break_continue,html.Screen,4_121_2,2023-09-09T16:18:59.274Z,,0,,,NaN,,,,,,false,,,,886023.5999999046,886023.5,,886023.4000000954,,886033,8,400,,,
sequence,flow.Sequence,4_121,2023-09-09T16:18:59.274Z,,0,,,5968.780999999959,completion,,,,,false,,,,886023.5999999046,886023.5,880038.121,880053.5,880054.719,886033,8,400,,,
trial,html.Screen,4_122_0,2023-09-09T16:19:04.668Z,,0,3,,5384.5,response,ISIC_5486460.JPG,5,ISIC_0027872.JPG,ISIC_0027872.JPG,false,0,keypress(z),500,891417.5999999046,891417.5,886016.407,886023.7000002861,886033,891426.849,8,400,23,,ISIC_5486460.JPG
break,html.Screen,4_122_1,2023-09-09T16:19:04.669Z,,0,,,NaN,,,,,,false,,,,891418.2000002861,891418,,891417.7000002861,,891426.849,8,400,,,
break_continue,html.Screen,4_122_2,2023-09-09T16:19:04.669Z,,0,,,NaN,,,,,,false,,,,891418.3000001907,891418.3000001907,,891418.2000002861,,891426.849,8,400,,,
sequence,flow.Sequence,4_122,2023-09-09T16:19:04.669Z,,0,,,5385.300000190735,completion,,,,,false,,,,891418.5,891418.3000001907,886016.407,886023.7000002861,886033,891426.849,8,400,,,
trial,html.Screen,4_123_0,2023-09-09T16:19:09.105Z,,0,3,,4427.051000095322,response,ISIC_6507492.JPG,6,ISIC_0008251.JPG,ISIC_0008251.JPG,false,0,keypress(z),500,895854,895853.9000000954,891410.151,891418.5,891426.849,895868.837,8,400,24,,ISIC_6507492.JPG
break,html.Screen,4_123_1,2023-09-09T16:19:09.105Z,,0,,,NaN,,,,,,false,,,,895854.5,895854.3000001907,,895854.0999999046,,895868.837,8,400,,,
break_continue,html.Screen,4_123_2,2023-09-09T16:19:09.105Z,,0,,,NaN,,,,,,false,,,,895854.5999999046,895854.5999999046,,895854.5,,895868.837,8,400,,,
sequence,flow.Sequence,4_123,2023-09-09T16:19:09.105Z,,0,,,4427.750999904587,completion,,,,,false,,,,895854.8000001907,895854.5999999046,891410.151,891418.5,891426.849,895868.837,8,400,,,
trial,html.Screen,4_124_0,2023-09-09T16:19:16.131Z,,0,3,,7011.863000286045,response,ISIC_1948545.JPG,5,ISIC_5942564.JPG,ISIC_1948545.JPG,false,1,keypress(m),500,902880.9000000954,902880.7000002861,895852.134,895854.8000001907,895868.837,902882.457,8,400,25,,ISIC_5942564.JPG
break,html.Screen,4_124_1,2023-09-09T16:19:16.132Z,,0,,,NaN,,,,,,false,,,,902881.3000001907,902881.0999999046,,902881,,902882.457,8,400,,,
break_continue,html.Screen,4_124_2,2023-09-09T16:19:16.132Z,,0,,,NaN,,,,,,false,,,,902881.5,902881.4000000954,,902881.3000001907,,902882.457,8,400,,,
sequence,flow.Sequence,4_124,2023-09-09T16:19:16.132Z,,0,,,7012.56300009531,completion,,,,,false,,,,902881.5999999046,902881.4000000954,895852.134,895854.8000001907,895868.837,902882.457,8,400,,,
trial,html.Screen,4_125_0,2023-09-09T16:19:21.702Z,,0,3,,5569.1429999045795,response,ISIC_1744817.JPG,5,ISIC_5190484.JPG,ISIC_1744817.JPG,false,1,keypress(m),500,908451.7000002861,908451.5999999046,902865.779,902881.7000002861,902882.457,908476.658,8,400,26,,ISIC_5190484.JPG
break,html.Screen,4_125_1,2023-09-09T16:19:21.703Z,,0,,,NaN,,,,,,false,,,,908452.2000002861,908452.0999999046,,908451.9000000954,,908476.658,8,400,,,
break_continue,html.Screen,4_125_2,2023-09-09T16:19:21.703Z,,0,,,NaN,,,,,,false,,,,908452.4000000954,908452.4000000954,,908452.3000001907,,908476.658,8,400,,,
sequence,flow.Sequence,4_125,2023-09-09T16:19:21.703Z,,0,,,5569.943000095314,completion,,,,,false,,,,908452.4000000954,908452.4000000954,902865.779,902881.5999999046,902882.457,908476.658,8,400,,,
trial,html.Screen,4_126_0,2023-09-09T16:19:26.441Z,,0,3,,4713.542000286048,response,ISIC_0055136.JPG,6,ISIC_0061244.JPG,ISIC_0055136.JPG,false,1,keypress(m),500,913190.2000002861,913190.2000002861,908459.974,908452.5,908476.658,913202.535,8,400,27,,ISIC_0061244.JPG
