sender,sender_type,sender_id,timestamp,meta,,blockNo,condition,duration,ended_on,img_left,img_reveal,img_right,loser,practice,response,response_action,selection_duration,time_commit,time_end,time_render,time_run,time_show,time_switch,total_blocks,total_trials,trialNo,url,winner
informed_consent,html.Screen,0,2023-09-12T00:35:44.809Z,"{""labjs_version"":""20.2.4"",""labjs_build"":{""flavor"":""development"",""commit"":""f5b4a49f956347addd546a832a3327688c2c0fef""},""location"":""https://labjs.felixhenninger.com/api/labjs_preview/index.html"",""userAgent"":""Mozilla/5.0 (Windows NT 10.0; Win64; x64) AppleWebKit/537.36 (KHTML, like Gecko) Chrome/116.0.0.0 Safari/537.36"",""platform"":""Win32"",""language"":""en-AU"",""locale"":""en-US"",""timeZone"":""America/Chicago"",""timezoneOffset"":300,""screen_width"":1680,""screen_height"":1050,""scroll_width"":1296,""scroll_height"":688,""window_innerWidth"":1296,""window_innerHeight"":736,""devicePixelRatio"":1}",,,,105541.91399961853,response,,,,,,consent,click button,,106541.59999990463,106532.39999961853,973.623,1163.5,990.486,106345.328,,,,{},
Welcome,html.Screen,1,2023-09-12T00:35:44.972Z,,,,symmetry,358.8719998092711,response,,,,,,continue,click button,,106704.7999997139,106704.19999980927,106328.805,106541.89999961853,106345.328,106512.391,,,,,
trial,html.Screen,2_0_0,2023-09-12T00:35:52.929Z,,0,0,,8149.808999809262,response,ISIC_6997061.JPG,,ISIC_0069348.JPG,ISIC_0069348.JPG,true,0,keypress(z),500,114662.39999961853,114662.19999980927,106495.643,106704.89999961853,106512.391,114477.835,1,6,1,,ISIC_6997061.JPG
sequence,flow.Sequence,2_0,2023-09-12T00:35:52.930Z,,0,,,8149.808999809262,completion,,,,,true,,,,114662.7999997139,114662.19999980927,106495.643,106704.89999961853,106512.391,114477.835,1,6,,,
trial,html.Screen,2_1_0,2023-09-12T00:35:56.483Z,,0,0,,3737.9649997138913,response,ISIC_0009529.JPG,,ISIC_0057368.JPG,ISIC_0057368.JPG,true,0,keypress(z),500,118216,118215.7999997139,114461.117,114662.89999961853,114477.835,118018.029,1,6,2,,ISIC_0009529.JPG
sequence,flow.Sequence,2_1,2023-09-12T00:35:56.484Z,,0,,,3737.9649997138913,completion,,,,,true,,,,118216.09999990463,118215.7999997139,114461.117,114662.7999997139,114477.835,118018.029,1,6,,,
trial,html.Screen,2_2_0,2023-09-12T00:36:00.949Z,,0,0,,4663.370999618535,response,ISIC_9758671.JPG,,ISIC_0064954.JPG,ISIC_0064954.JPG,true,0,keypress(z),500,122681.5,122681.39999961853,118001.442,118216.19999980927,118018.029,122493.418,1,6,3,,ISIC_9758671.JPG
sequence,flow.Sequence,2_2,2023-09-12T00:36:00.949Z,,0,,,4663.370999618535,completion,,,,,true,,,,122681.59999990463,122681.39999961853,118001.442,118216.19999980927,118018.029,122493.418,1,6,,,
trial,html.Screen,2_3_0,2023-09-12T00:36:05.078Z,,0,0,,4317.181999904627,response,ISIC_0000080.JPG,,ISIC_0005785.JPG,ISIC_0005785.JPG,true,0,keypress(z),500,126810.69999980927,126810.59999990463,122476.703,122681.7999997139,122493.418,126618.138,1,6,4,,ISIC_0000080.JPG
sequence,flow.Sequence,2_3,2023-09-12T00:36:05.078Z,,0,,,4317.181999904627,completion,,,,,true,,,,126810.89999961853,126810.59999990463,122476.703,122681.7999997139,122493.418,126618.138,1,6,,,
trial,html.Screen,2_4_0,2023-09-12T00:36:08.956Z,,0,0,,4069.8619999999937,response,ISIC_7944028.JPG,,ISIC_5390060.JPG,ISIC_5390060.JPG,true,0,keypress(z),500,130688.19999980927,130688,126601.438,126811,126618.138,130492.325,1,6,5,,ISIC_7944028.JPG
sequence,flow.Sequence,2_4,2023-09-12T00:36:08.956Z,,0,,,4069.8619999999937,completion,,,,,true,,,,130688.2999997139,130688,126601.438,126811,126618.138,130492.325,1,6,,,
trial,html.Screen,2_5_0,2023-09-12T00:36:12.333Z,,0,0,,3572.9749997139006,response,ISIC_0010188.JPG,,ISIC_0794216.JPG,ISIC_0010188.JPG,true,1,keypress(m),500,134065.59999990463,134065.2999997139,130475.792,130688.39999961853,130492.325,133882.43,1,6,6,,ISIC_0794216.JPG
sequence,flow.Sequence,2_5,2023-09-12T00:36:12.333Z,,0,,,3572.9749997139006,completion,,,,,true,,,,134065.7999997139,134065.2999997139,130475.792,130688.2999997139,130492.325,133882.43,1,6,,,
loop,flow.Loop,2,2023-09-12T00:36:12.333Z,,,,,27552.908999713894,completion,,,,,true,,,,134065.89999961853,134065.2999997139,106495.643,106704.7999997139,106512.391,133882.43,1,6,,,
exp_instructions,html.Screen,3,2023-09-12T00:36:19.696Z,,,,,7544.869999713905,response,,,,,,continue,keypress(Space),,141428.09999990463,141427.2999997139,133865.716,134066,133882.43,141246.653,,,,,
trial,html.Screen,4_0_0,2023-09-12T00:36:25.604Z,,0,1,,6090.046999809274,response,ISIC_2743014.JPG,5,ISIC_3094758.JPG,ISIC_3094758.JPG,false,0,keypress(z),500,147336.69999980927,147336.69999980927,141229.935,141428.2999997139,141246.653,147141.409,8,400,1,,ISIC_2743014.JPG
break,html.Screen,4_0_1,2023-09-12T00:36:25.605Z,,0,,,NaN,,,,,,false,,,,147337.19999980927,147337.19999980927,,147336.7999997139,,147141.409,8,400,,,
break_continue,html.Screen,4_0_2,2023-09-12T00:36:25.605Z,,0,,,NaN,,,,,,false,,,,147337.5,147337.39999961853,,147337.39999961853,,147141.409,8,400,,,
sequence,flow.Sequence,4_0,2023-09-12T00:36:25.605Z,,0,,,6090.746999618539,completion,,,,,false,,,,147337.59999990463,147337.39999961853,141229.935,141428.2999997139,141246.653,147141.409,8,400,,,
trial,html.Screen,4_1_0,2023-09-12T00:36:30.527Z,,0,1,,5117.490999618516,response,ISIC_4793961.JPG,4,ISIC_2784686.JPG,ISIC_4793961.JPG,false,1,keypress(m),500,152258.89999961853,152258.89999961853,147124.801,147337.59999990463,147141.409,152067.721,8,400,2,,ISIC_2784686.JPG
break,html.Screen,4_1_1,2023-09-12T00:36:30.527Z,,0,,,NaN,,,,,,false,,,,152259.39999961853,152259.2999997139,,152259.09999990463,,152067.721,8,400,,,
break_continue,html.Screen,4_1_2,2023-09-12T00:36:30.527Z,,0,,,NaN,,,,,,false,,,,152259.59999990463,152259.5,,152259.39999961853,,152067.721,8,400,,,
sequence,flow.Sequence,4_1,2023-09-12T00:36:30.527Z,,0,,,5118.090999999986,completion,,,,,false,,,,152259.69999980927,152259.5,147124.801,147337.59999990463,147141.409,152067.721,8,400,,,
trial,html.Screen,4_2_0,2023-09-12T00:36:35.924Z,,0,1,,5588.17899961854,response,ISIC_0033359.JPG,4,ISIC_0054287.JPG,ISIC_0054287.JPG,false,0,keypress(z),500,157656,157655.89999961853,152051.069,152259.69999980927,152067.721,157461.524,8,400,3,,ISIC_0033359.JPG
break,html.Screen,4_2_1,2023-09-12T00:36:35.924Z,,0,,,NaN,,,,,,false,,,,157656.69999980927,157656.39999961853,,157656.09999990463,,157461.524,8,400,,,
break_continue,html.Screen,4_2_2,2023-09-12T00:36:35.924Z,,0,,,NaN,,,,,,false,,,,157657,157656.89999961853,,157656.7999997139,,157461.524,8,400,,,
sequence,flow.Sequence,4_2,2023-09-12T00:36:35.925Z,,0,,,5589.17899961854,completion,,,,,false,,,,157657,157656.89999961853,152051.069,152259.69999980927,152067.721,157461.524,8,400,,,
trial,html.Screen,4_3_0,2023-09-12T00:36:40.267Z,,0,1,,4537.575999904628,response,ISIC_1027512.JPG,5,ISIC_0033071.JPG,ISIC_0033071.JPG,false,0,keypress(z),500,161999.5,161999.09999990463,157444.756,157657.09999990463,157461.524,161803.326,8,400,4,,ISIC_1027512.JPG
break,html.Screen,4_3_1,2023-09-12T00:36:40.269Z,,0,,,NaN,,,,,,false,,,,162001.2999997139,162000.7999997139,,161999.89999961853,,161803.326,8,400,,,
break_continue,html.Screen,4_3_2,2023-09-12T00:36:40.270Z,,0,,,NaN,,,,,,false,,,,162002,162001.7999997139,,162001.5,,161803.326,8,400,,,
sequence,flow.Sequence,4_3,2023-09-12T00:36:40.270Z,,0,,,4540.275999713893,completion,,,,,false,,,,162002.2999997139,162001.7999997139,157444.756,157657,157461.524,161803.326,8,400,,,
trial,html.Screen,4_4_0,2023-09-12T00:36:44.995Z,,0,1,,4924.373999809264,response,ISIC_0005655.JPG,5,ISIC_0012081.JPG,ISIC_0012081.JPG,false,0,keypress(z),500,166727.7999997139,166727.69999980927,161786.717,162002.59999990463,161803.326,166529.147,8,400,5,,ISIC_0005655.JPG
break,html.Screen,4_4_1,2023-09-12T00:36:44.996Z,,0,,,NaN,,,,,,false,,,,166728.2999997139,166728.09999990463,,166727.7999997139,,166529.147,8,400,,,
break_continue,html.Screen,4_4_2,2023-09-12T00:36:44.996Z,,0,,,NaN,,,,,,false,,,,166728.59999990463,166728.5,,166728.39999961853,,166529.147,8,400,,,
sequence,flow.Sequence,4_4,2023-09-12T00:36:44.996Z,,0,,,4925.173999999999,completion,,,,,false,,,,166728.69999980927,166728.5,161786.717,162002.59999990463,161803.326,166529.147,8,400,,,
trial,html.Screen,4_5_0,2023-09-12T00:36:49.915Z,,0,1,,5118.353000000003,response,ISIC_1805163.JPG,5,ISIC_0032440.JPG,ISIC_0032440.JPG,false,0,keypress(z),500,171647.69999980927,171647.5,166512.615,166728.7999997139,166529.147,171455.475,8,400,6,,ISIC_1805163.JPG
break,html.Screen,4_5_1,2023-09-12T00:36:49.916Z,,0,,,NaN,,,,,,false,,,,171648.19999980927,171648,,171647.69999980927,,171455.475,8,400,,,
break_continue,html.Screen,4_5_2,2023-09-12T00:36:49.916Z,,0,,,NaN,,,,,,false,,,,171648.2999997139,171648.2999997139,,171648.19999980927,,171455.475,8,400,,,
sequence,flow.Sequence,4_5,2023-09-12T00:36:49.916Z,,0,,,5119.1529997139005,completion,,,,,false,,,,171648.39999961853,171648.2999997139,166512.615,166728.7999997139,166529.147,171455.475,8,400,,,
trial,html.Screen,4_6_0,2023-09-12T00:36:54.685Z,,0,1,,4962.124999904627,response,ISIC_1260545.JPG,5,ISIC_0490714.JPG,ISIC_1260545.JPG,false,1,keypress(m),500,176417.69999980927,176417.59999990463,171438.689,171648.39999961853,171455.475,176231.436,8,400,7,,ISIC_0490714.JPG
break,html.Screen,4_6_1,2023-09-12T00:36:54.686Z,,0,,,NaN,,,,,,false,,,,176418.09999990463,176418,,176417.7999997139,,176231.436,8,400,,,
break_continue,html.Screen,4_6_2,2023-09-12T00:36:54.686Z,,0,,,NaN,,,,,,false,,,,176418.2999997139,176418.2999997139,,176418.19999980927,,176231.436,8,400,,,
sequence,flow.Sequence,4_6,2023-09-12T00:36:54.686Z,,0,,,4962.824999713892,completion,,,,,false,,,,176418.39999961853,176418.2999997139,171438.689,171648.39999961853,171455.475,176231.436,8,400,,,
trial,html.Screen,4_7_0,2023-09-12T00:36:59.455Z,,0,1,,4955.963999618543,response,ISIC_0046537.JPG,5,ISIC_0010757.JPG,ISIC_0010757.JPG,false,0,keypress(z),500,181187.59999990463,181187.39999961853,176214.642,176418.5,176231.436,180990.612,8,400,8,,ISIC_0046537.JPG
break,html.Screen,4_7_1,2023-09-12T00:36:59.456Z,,0,,,NaN,,,,,,false,,,,181188.2999997139,181188,,181187.69999980927,,180990.612,8,400,,,
break_continue,html.Screen,4_7_2,2023-09-12T00:36:59.456Z,,0,,,NaN,,,,,,false,,,,181188.59999990463,181188.5,,181188.39999961853,,180990.612,8,400,,,
sequence,flow.Sequence,4_7,2023-09-12T00:36:59.456Z,,0,,,4957.064000000013,completion,,,,,false,,,,181188.69999980927,181188.5,176214.642,176418.39999961853,176231.436,180990.612,8,400,,,
trial,html.Screen,4_8_0,2023-09-12T00:37:03.666Z,,0,1,,4407.388000000006,response,ISIC_0059904.JPG,5,ISIC_0032017.JPG,ISIC_0032017.JPG,false,0,keypress(z),500,185398.09999990463,185398,180973.921,181188.7999997139,180990.612,185215.564,8,400,9,,ISIC_0059904.JPG
break,html.Screen,4_8_1,2023-09-12T00:37:03.667Z,,0,,,NaN,,,,,,false,,,,185399.19999980927,185399,,185398.2999997139,,185215.564,8,400,,,
break_continue,html.Screen,4_8_2,2023-09-12T00:37:03.667Z,,0,,,NaN,,,,,,false,,,,185399.39999961853,185399.2999997139,,185399.19999980927,,185215.564,8,400,,,
sequence,flow.Sequence,4_8,2023-09-12T00:37:03.667Z,,0,,,4408.687999713904,completion,,,,,false,,,,185399.39999961853,185399.2999997139,180973.921,181188.69999980927,180990.612,185215.564,8,400,,,
trial,html.Screen,4_9_0,2023-09-12T00:37:10.373Z,,0,1,,6889.635999809252,response,ISIC_5433087.JPG,5,ISIC_0026596.JPG,ISIC_0026596.JPG,false,0,keypress(z),500,192105.2999997139,192105.19999980927,185198.88,185399.5,185215.564,191911.817,8,400,10,,ISIC_5433087.JPG
break,html.Screen,4_9_1,2023-09-12T00:37:10.374Z,,0,,,NaN,,,,,,false,,,,192105.89999961853,192105.69999980927,,192105.5,,191911.817,8,400,,,
break_continue,html.Screen,4_9_2,2023-09-12T00:37:10.374Z,,0,,,NaN,,,,,,false,,,,192106.19999980927,192106.09999990463,,192106,,191911.817,8,400,,,
sequence,flow.Sequence,4_9,2023-09-12T00:37:10.374Z,,0,,,6890.5359999046195,completion,,,,,false,,,,192106.2999997139,192106.09999990463,185198.88,185399.5,185215.564,191911.817,8,400,,,
trial,html.Screen,4_10_0,2023-09-12T00:37:15.656Z,,0,1,,5475.982999713888,response,ISIC_0013341.JPG,5,ISIC_0031908.JPG,ISIC_0013341.JPG,false,1,keypress(m),500,197388,197387.7999997139,191895.259,192106.39999961853,191911.817,197205.535,8,400,11,,ISIC_0031908.JPG
break,html.Screen,4_10_1,2023-09-12T00:37:15.657Z,,0,,,NaN,,,,,,false,,,,197388.69999980927,197388.5,,197388.09999990463,,197205.535,8,400,,,
break_continue,html.Screen,4_10_2,2023-09-12T00:37:15.657Z,,0,,,NaN,,,,,,false,,,,197389.09999990463,197389,,197388.89999961853,,197205.535,8,400,,,
sequence,flow.Sequence,4_10,2023-09-12T00:37:15.657Z,,0,,,5477.18299999999,completion,,,,,false,,,,197389.19999980927,197389,191895.259,192106.2999997139,191911.817,197205.535,8,400,,,
trial,html.Screen,4_11_0,2023-09-12T00:37:22.320Z,,0,1,,6846.864999618527,response,ISIC_0033424.JPG,4,ISIC_3093026.JPG,ISIC_0033424.JPG,false,1,keypress(m),500,204052.59999990463,204052.39999961853,197188.777,197389.39999961853,197205.535,203868.581,8,400,12,,ISIC_3093026.JPG
break,html.Screen,4_11_1,2023-09-12T00:37:22.322Z,,0,,,NaN,,,,,,false,,,,204053.69999980927,204053.39999961853,,204052.69999980927,,203868.581,8,400,,,
break_continue,html.Screen,4_11_2,2023-09-12T00:37:22.322Z,,0,,,NaN,,,,,,false,,,,204054,204054,,204053.7999997139,,203868.581,8,400,,,
sequence,flow.Sequence,4_11,2023-09-12T00:37:22.322Z,,0,,,6848.4649999999965,completion,,,,,false,,,,204054.09999990463,204054,197188.777,197389.39999961853,197205.535,203868.581,8,400,,,
trial,html.Screen,4_12_0,2023-09-12T00:37:28.100Z,,0,1,,5963.518999904627,response,ISIC_0070709.JPG,4,ISIC_0063871.JPG,ISIC_0063871.JPG,false,0,keypress(z),500,209832.19999980927,209832.09999990463,203851.718,204054.19999980927,203868.581,209646.363,8,400,13,,ISIC_0070709.JPG
break,html.Screen,4_12_1,2023-09-12T00:37:28.101Z,,0,,,NaN,,,,,,false,,,,209833,209832.69999980927,,209832.39999961853,,209646.363,8,400,,,
break_continue,html.Screen,4_12_2,2023-09-12T00:37:28.101Z,,0,,,NaN,,,,,,false,,,,209833.2999997139,209833.19999980927,,209833.09999990463,,209646.363,8,400,,,
sequence,flow.Sequence,4_12,2023-09-12T00:37:28.101Z,,0,,,5964.61899980926,completion,,,,,false,,,,209833.2999997139,209833.19999980927,203851.718,204054.09999990463,203868.581,209646.363,8,400,,,
trial,html.Screen,4_13_0,2023-09-12T00:37:33.430Z,,0,1,,5516.036999618518,response,ISIC_0061735.JPG,4,ISIC_0066411.JPG,ISIC_0061735.JPG,false,1,keypress(m),500,215162.5,215162.39999961853,209629.696,209833.39999961853,209646.363,214973.402,8,400,14,,ISIC_0066411.JPG
break,html.Screen,4_13_1,2023-09-12T00:37:33.431Z,,0,,,NaN,,,,,,false,,,,215163.19999980927,215162.89999961853,,215162.69999980927,,214973.402,8,400,,,
break_continue,html.Screen,4_13_2,2023-09-12T00:37:33.431Z,,0,,,NaN,,,,,,false,,,,215163.39999961853,215163.39999961853,,215163.19999980927,,214973.402,8,400,,,
sequence,flow.Sequence,4_13,2023-09-12T00:37:33.431Z,,0,,,5517.036999618518,completion,,,,,false,,,,215163.5,215163.39999961853,209629.696,209833.39999961853,209646.363,214973.402,8,400,,,
trial,html.Screen,4_14_0,2023-09-12T00:37:38.873Z,,0,1,,5631.497999618528,response,ISIC_0055140.JPG,5,ISIC_2436560.JPG,ISIC_0055140.JPG,false,1,keypress(m),500,220605.09999990463,220604.89999961853,214956.727,215163.59999990463,214973.402,220417.42,8,400,15,,ISIC_2436560.JPG
break,html.Screen,4_14_1,2023-09-12T00:37:38.873Z,,0,,,NaN,,,,,,false,,,,220605.39999961853,220605.39999961853,,220605.19999980927,,220417.42,8,400,,,
break_continue,html.Screen,4_14_2,2023-09-12T00:37:38.873Z,,0,,,NaN,,,,,,false,,,,220605.69999980927,220605.59999990463,,220605.5,,220417.42,8,400,,,
sequence,flow.Sequence,4_14,2023-09-12T00:37:38.874Z,,0,,,5632.197999904631,completion,,,,,false,,,,220605.69999980927,220605.59999990463,214956.727,215163.59999990463,214973.402,220417.42,8,400,,,
trial,html.Screen,4_15_0,2023-09-12T00:37:44.754Z,,0,1,,6068.67999990462,response,ISIC_0010143.JPG,5,ISIC_0001057.JPG,ISIC_0010143.JPG,false,1,keypress(m),500,226486.19999980927,226486.09999990463,220400.701,220605.7999997139,220417.42,226295.518,8,400,16,,ISIC_0001057.JPG
break,html.Screen,4_15_1,2023-09-12T00:37:44.755Z,,0,,,NaN,,,,,,false,,,,226486.69999980927,226486.59999990463,,226486.2999997139,,226295.518,8,400,,,
break_continue,html.Screen,4_15_2,2023-09-12T00:37:44.755Z,,0,,,NaN,,,,,,false,,,,226486.89999961853,226486.89999961853,,226486.69999980927,,226295.518,8,400,,,
sequence,flow.Sequence,4_15,2023-09-12T00:37:44.755Z,,0,,,6069.4799996185175,completion,,,,,false,,,,226487,226486.89999961853,220400.701,220605.69999980927,220417.42,226295.518,8,400,,,
trial,html.Screen,4_16_0,2023-09-12T00:37:50.949Z,,0,1,,6385.781999713887,response,ISIC_0000151.JPG,5,ISIC_0046671.JPG,ISIC_0046671.JPG,false,0,keypress(z),500,232681.39999961853,232681.2999997139,226278.741,226487,226295.518,232490.827,8,400,17,,ISIC_0000151.JPG
break,html.Screen,4_16_1,2023-09-12T00:37:50.950Z,,0,,,NaN,,,,,,false,,,,232681.89999961853,232681.69999980927,,232681.39999961853,,232490.827,8,400,,,
break_continue,html.Screen,4_16_2,2023-09-12T00:37:50.950Z,,0,,,NaN,,,,,,false,,,,232682.09999990463,232682,,232682,,232490.827,8,400,,,
sequence,flow.Sequence,4_16,2023-09-12T00:37:50.950Z,,0,,,6386.481999999989,completion,,,,,false,,,,232682.19999980927,232682,226278.741,226487,226295.518,232490.827,8,400,,,
trial,html.Screen,4_17_0,2023-09-12T00:37:56.907Z,,0,1,,6148.17300000001,response,ISIC_0072516.JPG,6,ISIC_0071303.JPG,ISIC_0071303.JPG,false,0,keypress(z),500,238639.09999990463,238639,232474.137,232682.2999997139,232490.827,238452.437,8,400,18,,ISIC_0072516.JPG
break,html.Screen,4_17_1,2023-09-12T00:37:56.908Z,,0,,,NaN,,,,,,false,,,,238639.5,238639.39999961853,,238639.19999980927,,238452.437,8,400,,,
break_continue,html.Screen,4_17_2,2023-09-12T00:37:56.908Z,,0,,,NaN,,,,,,false,,,,238639.69999980927,238639.69999980927,,238639.59999990463,,238452.437,8,400,,,
sequence,flow.Sequence,4_17,2023-09-12T00:37:56.908Z,,0,,,6148.872999809275,completion,,,,,false,,,,238639.7999997139,238639.69999980927,232474.137,232682.19999980927,232490.827,238452.437,8,400,,,
trial,html.Screen,4_18_0,2023-09-12T00:38:01.826Z,,0,1,,5105.462999618525,response,ISIC_1460249.JPG,5,ISIC_0031800.JPG,ISIC_0031800.JPG,false,0,keypress(z),500,243558,243557.89999961853,238435.885,238639.89999961853,238452.437,243361.942,8,400,19,,ISIC_1460249.JPG
break,html.Screen,4_18_1,2023-09-12T00:38:01.827Z,,0,,,NaN,,,,,,false,,,,243558.39999961853,243558.2999997139,,243558.09999990463,,243361.942,8,400,,,
break_continue,html.Screen,4_18_2,2023-09-12T00:38:01.827Z,,0,,,NaN,,,,,,false,,,,243558.59999990463,243558.5,,243558.39999961853,,243361.942,8,400,,,
sequence,flow.Sequence,4_18,2023-09-12T00:38:01.827Z,,0,,,5106.062999999995,completion,,,,,false,,,,243558.69999980927,243558.5,238435.885,238639.89999961853,238452.437,243361.942,8,400,,,
trial,html.Screen,4_19_0,2023-09-12T00:38:08.232Z,,0,1,,6602.157999904623,response,ISIC_0025145.JPG,6,ISIC_6654619.JPG,ISIC_0025145.JPG,false,1,keypress(m),500,249964.19999980927,249964.09999990463,243345.375,243558.69999980927,243361.942,249774.418,8,400,20,,ISIC_6654619.JPG
break,html.Screen,4_19_1,2023-09-12T00:38:08.233Z,,0,,,NaN,,,,,,false,,,,249964.7999997139,249964.69999980927,,249964.39999961853,,249774.418,8,400,,,
break_continue,html.Screen,4_19_2,2023-09-12T00:38:08.233Z,,0,,,NaN,,,,,,false,,,,249965.09999990463,249965.09999990463,,249965,,249774.418,8,400,,,
sequence,flow.Sequence,4_19,2023-09-12T00:38:08.233Z,,0,,,6603.157999904623,completion,,,,,false,,,,249965.19999980927,249965.09999990463,243345.375,243558.69999980927,243361.942,249774.418,8,400,,,
trial,html.Screen,4_20_0,2023-09-12T00:38:13.963Z,,0,1,,5920.181999904627,response,ISIC_0032784.JPG,5,ISIC_0012653.JPG,ISIC_0032784.JPG,false,1,keypress(m),500,255694.7999997139,255694.59999990463,249757.758,249965.2999997139,249774.418,255502.273,8,400,21,,ISIC_0012653.JPG
break,html.Screen,4_20_1,2023-09-12T00:38:13.963Z,,0,,,NaN,,,,,,false,,,,255695.09999990463,255695,,255694.7999997139,,255502.273,8,400,,,
break_continue,html.Screen,4_20_2,2023-09-12T00:38:13.963Z,,0,,,NaN,,,,,,false,,,,255695.19999980927,255695.19999980927,,255695.19999980927,,255502.273,8,400,,,
sequence,flow.Sequence,4_20,2023-09-12T00:38:13.964Z,,0,,,5920.78199980926,completion,,,,,false,,,,255695.39999961853,255695.19999980927,249757.758,249965.2999997139,249774.418,255502.273,8,400,,,
trial,html.Screen,4_21_0,2023-09-12T00:38:18.736Z,,0,1,,4965.026999713911,response,ISIC_0062407.JPG,5,ISIC_1135213.JPG,ISIC_0062407.JPG,false,1,keypress(m),500,260467.39999961853,260467.2999997139,255485.669,255695.39999961853,255502.273,260278.33,8,400,22,,ISIC_1135213.JPG
break,html.Screen,4_21_1,2023-09-12T00:38:18.736Z,,0,,,NaN,,,,,,false,,,,260467.89999961853,260467.7999997139,,260467.59999990463,,260278.33,8,400,,,
break_continue,html.Screen,4_21_2,2023-09-12T00:38:18.736Z,,0,,,NaN,,,,,,false,,,,260468,260468,,260467.89999961853,,260278.33,8,400,,,
sequence,flow.Sequence,4_21,2023-09-12T00:38:18.736Z,,0,,,4965.7270000000135,completion,,,,,false,,,,260468.09999990463,260468,255485.669,255695.39999961853,255502.273,260278.33,8,400,,,
trial,html.Screen,4_22_0,2023-09-12T00:38:24.417Z,,0,1,,5870.769999904645,response,ISIC_7550510.JPG,5,ISIC_0059769.JPG,ISIC_7550510.JPG,false,1,keypress(m),500,266149.19999980927,266149.09999990463,260261.607,260468.19999980927,260278.33,265956.013,8,400,23,,ISIC_0059769.JPG
break,html.Screen,4_22_1,2023-09-12T00:38:24.418Z,,0,,,NaN,,,,,,false,,,,266149.69999980927,266149.5,,266149.39999961853,,265956.013,8,400,,,
break_continue,html.Screen,4_22_2,2023-09-12T00:38:24.418Z,,0,,,NaN,,,,,,false,,,,266149.7999997139,266149.7999997139,,266149.69999980927,,265956.013,8,400,,,
sequence,flow.Sequence,4_22,2023-09-12T00:38:24.418Z,,0,,,5871.4699997139105,completion,,,,,false,,,,266149.89999961853,266149.7999997139,260261.607,260468.19999980927,260278.33,265956.013,8,400,,,
trial,html.Screen,4_23_0,2023-09-12T00:38:30.340Z,,0,1,,6116.086999904655,response,ISIC_5501183.JPG,6,ISIC_1035480.JPG,ISIC_5501183.JPG,false,1,keypress(m),500,272072.19999980927,272072.09999990463,265939.272,266149.89999961853,265956.013,271884.166,8,400,24,,ISIC_1035480.JPG
break,html.Screen,4_23_1,2023-09-12T00:38:30.341Z,,0,,,NaN,,,,,,false,,,,272072.69999980927,272072.59999990463,,272072.39999961853,,271884.166,8,400,,,
break_continue,html.Screen,4_23_2,2023-09-12T00:38:30.341Z,,0,,,NaN,,,,,,false,,,,272072.7999997139,272072.7999997139,,272072.7999997139,,271884.166,8,400,,,
sequence,flow.Sequence,4_23,2023-09-12T00:38:30.341Z,,0,,,6116.7869997139205,completion,,,,,false,,,,272072.89999961853,272072.7999997139,265939.272,266149.89999961853,265956.013,271884.166,8,400,,,
trial,html.Screen,4_24_0,2023-09-12T00:38:35.564Z,,0,1,,5411.3339999999735,response,ISIC_9728003.JPG,5,ISIC_3944634.JPG,ISIC_3944634.JPG,false,0,keypress(z),500,277295.69999980927,277295.5,271867.486,272073,271884.166,277111.065,8,400,25,,ISIC_9728003.JPG
break,html.Screen,4_24_1,2023-09-12T00:38:35.564Z,,0,,,NaN,,,,,,false,,,,277296.2999997139,277296.09999990463,,277295.89999961853,,277111.065,8,400,,,
break_continue,html.Screen,4_24_2,2023-09-12T00:38:35.565Z,,0,,,NaN,,,,,,false,,,,277296.59999990463,277296.5,,277296.39999961853,,277111.065,8,400,,,
sequence,flow.Sequence,4_24,2023-09-12T00:38:35.565Z,,0,,,5412.3339999999735,completion,,,,,false,,,,277296.69999980927,277296.5,271867.486,272073,271884.166,277111.065,8,400,,,
trial,html.Screen,4_25_0,2023-09-12T00:38:40.431Z,,0,1,,5051.53499990463,response,ISIC_0060972.JPG,6,ISIC_8503961.JPG,ISIC_0060972.JPG,false,1,keypress(m),500,282162.59999990463,282162.59999990463,277094.395,277296.69999980927,277111.065,281970.439,8,400,26,,ISIC_8503961.JPG
break,html.Screen,4_25_1,2023-09-12T00:38:40.431Z,,0,,,NaN,,,,,,false,,,,282163.09999990463,282163,,282162.7999997139,,281970.439,8,400,,,
break_continue,html.Screen,4_25_2,2023-09-12T00:38:40.431Z,,0,,,NaN,,,,,,false,,,,282163.19999980927,282163.19999980927,,282163.09999990463,,281970.439,8,400,,,
sequence,flow.Sequence,4_25,2023-09-12T00:38:40.431Z,,0,,,5052.134999809263,completion,,,,,false,,,,282163.2999997139,282163.19999980927,277094.395,277296.69999980927,277111.065,281970.439,8,400,,,
trial,html.Screen,4_26_0,2023-09-12T00:38:45.825Z,,0,1,,5585.760999809252,response,ISIC_0010011.JPG,4,ISIC_0010618.JPG,ISIC_0010618.JPG,false,0,keypress(z),500,287556.5,287556.19999980927,281953.696,282163.2999997139,281970.439,287364.372,8,400,27,,ISIC_0010011.JPG
break,html.Screen,4_26_1,2023-09-12T00:38:45.825Z,,0,,,NaN,,,,,,false,,,,287557,287556.89999961853,,287556.59999990463,,287364.372,8,400,,,
break_continue,html.Screen,4_26_2,2023-09-12T00:38:45.825Z,,0,,,NaN,,,,,,false,,,,287557.2999997139,287557.19999980927,,287557.19999980927,,287364.372,8,400,,,
sequence,flow.Sequence,4_26,2023-09-12T00:38:45.826Z,,0,,,5586.760999809252,completion,,,,,false,,,,287557.39999961853,287557.19999980927,281953.696,282163.2999997139,281970.439,287364.372,8,400,,,
trial,html.Screen,4_27_0,2023-09-12T00:38:52.071Z,,0,1,,6438.527999618556,response,ISIC_0963531.JPG,4,ISIC_9612228.JPG,ISIC_0963531.JPG,false,1,keypress(m),500,293803,293802.89999961853,287347.573,287557.5,287364.372,293609.75,8,400,28,,ISIC_9612228.JPG
break,html.Screen,4_27_1,2023-09-12T00:38:52.072Z,,0,,,NaN,,,,,,false,,,,293803.59999990463,293803.39999961853,,293803.19999980927,,293609.75,8,400,,,
break_continue,html.Screen,4_27_2,2023-09-12T00:38:52.072Z,,0,,,NaN,,,,,,false,,,,293803.7999997139,293803.69999980927,,293803.59999990463,,293609.75,8,400,,,
sequence,flow.Sequence,4_27,2023-09-12T00:38:52.072Z,,0,,,6439.327999809291,completion,,,,,false,,,,293803.7999997139,293803.69999980927,287347.573,287557.5,287364.372,293609.75,8,400,,,
trial,html.Screen,4_28_0,2023-09-12T00:38:58.105Z,,0,1,,6227.75,response,ISIC_0033662.JPG,6,ISIC_0072001.JPG,ISIC_0033662.JPG,false,1,keypress(m),500,299837.69999980927,299837.5,293593.052,293804,293609.75,299654.868,8,400,29,,ISIC_0072001.JPG
break,html.Screen,4_28_1,2023-09-12T00:38:58.106Z,,0,,,NaN,,,,,,false,,,,299838.39999961853,299838.19999980927,,299837.89999961853,,299654.868,8,400,,,
break_continue,html.Screen,4_28_2,2023-09-12T00:38:58.106Z,,0,,,NaN,,,,,,false,,,,299838.69999980927,299838.59999990463,,299838.5,,299654.868,8,400,,,
sequence,flow.Sequence,4_28,2023-09-12T00:38:58.106Z,,0,,,6228.849999904633,completion,,,,,false,,,,299838.69999980927,299838.59999990463,293593.052,293804,293609.75,299654.868,8,400,,,
trial,html.Screen,4_29_0,2023-09-12T00:39:02.621Z,,0,1,,4698.5319996185135,response,ISIC_2244564.JPG,5,ISIC_0065539.JPG,ISIC_0065539.JPG,false,0,keypress(z),500,304353.59999990463,304353.39999961853,299638.202,299838.7999997139,299654.868,304163.617,8,400,30,,ISIC_2244564.JPG
break,html.Screen,4_29_1,2023-09-12T00:39:02.622Z,,0,,,NaN,,,,,,false,,,,304354.09999990463,304354,,304353.7999997139,,304163.617,8,400,,,
break_continue,html.Screen,4_29_2,2023-09-12T00:39:02.622Z,,0,,,NaN,,,,,,false,,,,304354.2999997139,304354.19999980927,,304354.19999980927,,304163.617,8,400,,,
sequence,flow.Sequence,4_29,2023-09-12T00:39:02.622Z,,0,,,4699.331999809248,completion,,,,,false,,,,304354.39999961853,304354.19999980927,299638.202,299838.69999980927,299654.868,304163.617,8,400,,,
trial,html.Screen,4_30_0,2023-09-12T00:39:07.094Z,,0,1,,4662.68299971387,response,ISIC_0001923.JPG,6,ISIC_8838753.JPG,ISIC_0001923.JPG,false,1,keypress(m),500,308826.5,308826.2999997139,304147.015,304354.39999961853,304163.617,308639.013,8,400,31,,ISIC_8838753.JPG
break,html.Screen,4_30_1,2023-09-12T00:39:07.095Z,,0,,,NaN,,,,,,false,,,,308826.89999961853,308826.89999961853,,308826.5,,308639.013,8,400,,,
break_continue,html.Screen,4_30_2,2023-09-12T00:39:07.095Z,,0,,,NaN,,,,,,false,,,,308827.09999990463,308827.09999990463,,308827.09999990463,,308639.013,8,400,,,
sequence,flow.Sequence,4_30,2023-09-12T00:39:07.095Z,,0,,,4663.482999904605,completion,,,,,false,,,,308827.19999980927,308827.09999990463,304147.015,304354.39999961853,304163.617,308639.013,8,400,,,
trial,html.Screen,4_31_0,2023-09-12T00:39:12.814Z,,0,1,,5907.386999618553,response,ISIC_0979974.JPG,6,ISIC_3372067.JPG,ISIC_0979974.JPG,false,1,keypress(m),500,314546.59999990463,314546.39999961853,308622.387,308827.2999997139,308639.013,314350.071,8,400,32,,ISIC_3372067.JPG
break,html.Screen,4_31_1,2023-09-12T00:39:12.815Z,,0,,,NaN,,,,,,false,,,,314547,314546.7999997139,,314546.69999980927,,314350.071,8,400,,,
break_continue,html.Screen,4_31_2,2023-09-12T00:39:12.815Z,,0,,,NaN,,,,,,false,,,,314547.19999980927,314547.09999990463,,314547,,314350.071,8,400,,,
sequence,flow.Sequence,4_31,2023-09-12T00:39:12.815Z,,0,,,5908.086999904655,completion,,,,,false,,,,314547.19999980927,314547.09999990463,308622.387,308827.19999980927,308639.013,314350.071,8,400,,,
trial,html.Screen,4_32_0,2023-09-12T00:39:18.038Z,,0,1,,5419.929000000004,response,ISIC_0011387.JPG,6,ISIC_0054559.JPG,ISIC_0011387.JPG,false,1,keypress(m),500,319770.39999961853,319770,314333.419,314547.2999997139,314350.071,319577.094,8,400,33,,ISIC_0054559.JPG
break,html.Screen,4_32_1,2023-09-12T00:39:18.040Z,,0,,,NaN,,,,,,false,,,,319772.39999961853,319771.7999997139,,319771.09999990463,,319577.094,8,400,,,
break_continue,html.Screen,4_32_2,2023-09-12T00:39:18.041Z,,0,,,NaN,,,,,,false,,,,319773.09999990463,319772.89999961853,,319772.59999990463,,319577.094,8,400,,,
sequence,flow.Sequence,4_32,2023-09-12T00:39:18.041Z,,0,,,5422.828999618534,completion,,,,,false,,,,319773.5,319772.89999961853,314333.419,314547.19999980927,314350.071,319577.094,8,400,,,
trial,html.Screen,4_33_0,2023-09-12T00:39:22.284Z,,0,1,,4438.8059996185475,response,ISIC_0024294.JPG,6,ISIC_1457687.JPG,ISIC_0024294.JPG,false,1,keypress(m),500,324016,324015.89999961853,319560.289,319773.69999980927,319577.094,323818.547,8,400,34,,ISIC_1457687.JPG
break,html.Screen,4_33_1,2023-09-12T00:39:22.284Z,,0,,,NaN,,,,,,false,,,,324016.39999961853,324016.2999997139,,324016.09999990463,,323818.547,8,400,,,
break_continue,html.Screen,4_33_2,2023-09-12T00:39:22.284Z,,0,,,NaN,,,,,,false,,,,324016.5,324016.5,,324016.39999961853,,323818.547,8,400,,,
sequence,flow.Sequence,4_33,2023-09-12T00:39:22.284Z,,0,,,4439.406000000017,completion,,,,,false,,,,324016.59999990463,324016.5,319560.289,319773.59999990463,319577.094,323818.547,8,400,,,
trial,html.Screen,4_34_0,2023-09-12T00:39:27.310Z,,0,1,,5223.9529999999795,response,ISIC_0032635.JPG,5,ISIC_0027432.JPG,ISIC_0027432.JPG,false,0,keypress(z),500,329042.59999990463,329042.5,323801.848,324016.7999997139,323818.547,328844.993,8,400,35,,ISIC_0032635.JPG
break,html.Screen,4_34_1,2023-09-12T00:39:27.311Z,,0,,,NaN,,,,,,false,,,,329043.19999980927,329042.89999961853,,329042.69999980927,,328844.993,8,400,,,
break_continue,html.Screen,4_34_2,2023-09-12T00:39:27.311Z,,0,,,NaN,,,,,,false,,,,329043.5,329043.5,,329043.39999961853,,328844.993,8,400,,,
sequence,flow.Sequence,4_34,2023-09-12T00:39:27.311Z,,0,,,5224.9529999999795,completion,,,,,false,,,,329043.69999980927,329043.5,323801.848,324016.69999980927,323818.547,328844.993,8,400,,,
trial,html.Screen,4_35_0,2023-09-12T00:39:33.457Z,,0,1,,6343.9069996185135,response,ISIC_1806179.JPG,5,ISIC_6069236.JPG,ISIC_1806179.JPG,false,1,keypress(m),500,335189,335188.89999961853,328828.286,329043.69999980927,328844.993,334990.313,8,400,36,,ISIC_6069236.JPG
break,html.Screen,4_35_1,2023-09-12T00:39:33.457Z,,0,,,NaN,,,,,,false,,,,335189.69999980927,335189.5,,335189.19999980927,,334990.313,8,400,,,
break_continue,html.Screen,4_35_2,2023-09-12T00:39:33.458Z,,0,,,NaN,,,,,,false,,,,335190.19999980927,335190.09999990463,,335189.7999997139,,334990.313,8,400,,,
sequence,flow.Sequence,4_35,2023-09-12T00:39:33.458Z,,0,,,6345.106999904616,completion,,,,,false,,,,335190.2999997139,335190.09999990463,328828.286,329043.69999980927,328844.993,334990.313,8,400,,,
trial,html.Screen,4_36_0,2023-09-12T00:39:38.123Z,,0,1,,4864.686999999976,response,ISIC_9030482.JPG,5,ISIC_8689583.JPG,ISIC_9030482.JPG,false,1,keypress(m),500,339855.09999990463,339855,334973.711,335190.5,334990.313,339666.061,8,400,37,,ISIC_8689583.JPG
break,html.Screen,4_36_1,2023-09-12T00:39:38.123Z,,0,,,NaN,,,,,,false,,,,339855.69999980927,339855.39999961853,,339855.19999980927,,339666.061,8,400,,,
break_continue,html.Screen,4_36_2,2023-09-12T00:39:38.124Z,,0,,,NaN,,,,,,false,,,,339856,339856,,339855.7999997139,,339666.061,8,400,,,
sequence,flow.Sequence,4_36,2023-09-12T00:39:38.124Z,,0,,,4865.686999999976,completion,,,,,false,,,,339856.09999990463,339856,334973.711,335190.39999961853,334990.313,339666.061,8,400,,,
trial,html.Screen,4_37_0,2023-09-12T00:39:43.949Z,,0,1,,6014.638999809278,response,ISIC_0032248.JPG,6,ISIC_2974214.JPG,ISIC_0032248.JPG,false,1,keypress(m),500,345680.89999961853,345680.69999980927,339649.334,339856.19999980927,339666.061,345494.041,8,400,38,,ISIC_2974214.JPG
break,html.Screen,4_37_1,2023-09-12T00:39:43.949Z,,0,,,NaN,,,,,,false,,,,345681.5,345681.2999997139,,345681,,345494.041,8,400,,,
break_continue,html.Screen,4_37_2,2023-09-12T00:39:43.950Z,,0,,,NaN,,,,,,false,,,,345681.7999997139,345681.69999980927,,345681.5,,345494.041,8,400,,,
sequence,flow.Sequence,4_37,2023-09-12T00:39:43.950Z,,0,,,6015.638999809278,completion,,,,,false,,,,345682,345681.69999980927,339649.334,339856.19999980927,339666.061,345494.041,8,400,,,
trial,html.Screen,4_38_0,2023-09-12T00:39:48.496Z,,0,1,,4734.158999809239,response,ISIC_9278685.JPG,6,ISIC_0063061.JPG,ISIC_0063061.JPG,false,0,keypress(z),500,350228.39999961853,350228.19999980927,345477.331,345682.09999990463,345494.041,350036.206,8,400,39,,ISIC_9278685.JPG
break,html.Screen,4_38_1,2023-09-12T00:39:48.496Z,,0,,,NaN,,,,,,false,,,,350228.69999980927,350228.69999980927,,350228.39999961853,,350036.206,8,400,,,
break_continue,html.Screen,4_38_2,2023-09-12T00:39:48.497Z,,0,,,NaN,,,,,,false,,,,350229,350228.89999961853,,350228.7999997139,,350036.206,8,400,,,
sequence,flow.Sequence,4_38,2023-09-12T00:39:48.497Z,,0,,,4734.858999618504,completion,,,,,false,,,,350229,350228.89999961853,345477.331,345682.09999990463,345494.041,350036.206,8,400,,,
trial,html.Screen,4_39_0,2023-09-12T00:39:54.697Z,,0,1,,6392.49399980926,response,ISIC_0026296.JPG,5,ISIC_8704668.JPG,ISIC_8704668.JPG,false,0,keypress(z),500,356428.7999997139,356428.69999980927,350019.662,350229.09999990463,350036.206,356231.631,8,400,40,,ISIC_0026296.JPG
break,html.Screen,4_39_1,2023-09-12T00:39:54.697Z,,0,,,NaN,,,,,,false,,,,356429.2999997139,356429.19999980927,,356429,,356231.631,8,400,,,
break_continue,html.Screen,4_39_2,2023-09-12T00:39:54.697Z,,0,,,NaN,,,,,,false,,,,356429.59999990463,356429.59999990463,,356429.39999961853,,356231.631,8,400,,,
sequence,flow.Sequence,4_39,2023-09-12T00:39:54.697Z,,0,,,6393.393999904627,completion,,,,,false,,,,356429.59999990463,356429.59999990463,350019.662,350229.09999990463,350036.206,356231.631,8,400,,,
trial,html.Screen,4_40_0,2023-09-12T00:39:59.326Z,,0,1,,4825.668999713904,response,ISIC_8222254.JPG,7,ISIC_0032844.JPG,ISIC_0032844.JPG,false,0,keypress(z),500,361057.59999990463,361057.2999997139,356214.914,356429.7999997139,356231.631,360873.989,8,400,41,,ISIC_8222254.JPG
break,html.Screen,4_40_1,2023-09-12T00:39:59.327Z,,0,,,NaN,,,,,,false,,,,361057.89999961853,361057.7999997139,,361057.59999990463,,360873.989,8,400,,,
break_continue,html.Screen,4_40_2,2023-09-12T00:39:59.327Z,,0,,,NaN,,,,,,false,,,,361058.09999990463,361058,,361057.89999961853,,360873.989,8,400,,,
sequence,flow.Sequence,4_40,2023-09-12T00:39:59.327Z,,0,,,4826.369000000006,completion,,,,,false,,,,361058.19999980927,361058,356214.914,356429.69999980927,356231.631,360873.989,8,400,,,
trial,html.Screen,4_41_0,2023-09-12T00:40:04.612Z,,0,1,,5469.510999999999,response,ISIC_5305288.JPG,6,ISIC_0002288.JPG,ISIC_5305288.JPG,false,1,keypress(m),500,366343.59999990463,366343.5,360857.479,361058.19999980927,360873.989,366150.999,8,400,42,,ISIC_0002288.JPG
break,html.Screen,4_41_1,2023-09-12T00:40:04.613Z,,0,,,NaN,,,,,,false,,,,366344.09999990463,366344,,366343.7999997139,,366150.999,8,400,,,
break_continue,html.Screen,4_41_2,2023-09-12T00:40:04.613Z,,0,,,NaN,,,,,,false,,,,366344.2999997139,366344.2999997139,,366344.19999980927,,366150.999,8,400,,,
sequence,flow.Sequence,4_41,2023-09-12T00:40:04.613Z,,0,,,5470.310999713896,completion,,,,,false,,,,366344.39999961853,366344.2999997139,360857.479,361058.19999980927,360873.989,366150.999,8,400,,,
trial,html.Screen,4_42_0,2023-09-12T00:40:09.335Z,,0,1,,4914.700999809254,response,ISIC_0062313.JPG,4,ISIC_9027622.JPG,ISIC_0062313.JPG,false,1,keypress(m),500,371065.7999997139,371065.69999980927,366134.375,366344.5,366150.999,370876.772,8,400,43,,ISIC_9027622.JPG
break,html.Screen,4_42_1,2023-09-12T00:40:09.335Z,,0,,,NaN,,,,,,false,,,,371066.2999997139,371066.09999990463,,371065.89999961853,,370876.772,8,400,,,
break_continue,html.Screen,4_42_2,2023-09-12T00:40:09.335Z,,0,,,NaN,,,,,,false,,,,371066.39999961853,371066.39999961853,,371066.2999997139,,370876.772,8,400,,,
sequence,flow.Sequence,4_42,2023-09-12T00:40:09.335Z,,0,,,4915.40099961852,completion,,,,,false,,,,371066.5,371066.39999961853,366134.375,366344.39999961853,366150.999,370876.772,8,400,,,
trial,html.Screen,4_43_0,2023-09-12T00:40:14.393Z,,0,1,,5247.5279997139005,response,ISIC_6588853.JPG,4,ISIC_8626941.JPG,ISIC_6588853.JPG,false,1,keypress(m),500,376124.5,376124.2999997139,370860.17,371066.5,370876.772,375936.699,8,400,44,,ISIC_8626941.JPG
break,html.Screen,4_43_1,2023-09-12T00:40:14.394Z,,0,,,NaN,,,,,,false,,,,376125,376124.7999997139,,376124.59999990463,,375936.699,8,400,,,
break_continue,html.Screen,4_43_2,2023-09-12T00:40:14.394Z,,0,,,NaN,,,,,,false,,,,376125.2999997139,376125.19999980927,,376125.09999990463,,375936.699,8,400,,,
sequence,flow.Sequence,4_43,2023-09-12T00:40:14.394Z,,0,,,5248.427999809268,completion,,,,,false,,,,376125.39999961853,376125.19999980927,370860.17,371066.5,370876.772,375936.699,8,400,,,
trial,html.Screen,4_44_0,2023-09-12T00:40:20.397Z,,0,1,,6191.300999999978,response,ISIC_0073102.JPG,5,ISIC_0003168.JPG,ISIC_0073102.JPG,false,1,keypress(m),500,382128.09999990463,382128,375920.028,376125.59999990463,375936.699,381931.616,8,400,45,,ISIC_0003168.JPG
break,html.Screen,4_44_1,2023-09-12T00:40:20.397Z,,0,,,NaN,,,,,,false,,,,382128.69999980927,382128.5,,382128.2999997139,,381931.616,8,400,,,
break_continue,html.Screen,4_44_2,2023-09-12T00:40:20.398Z,,0,,,NaN,,,,,,false,,,,382129,382129,,382128.7999997139,,381931.616,8,400,,,
sequence,flow.Sequence,4_44,2023-09-12T00:40:20.398Z,,0,,,6192.300999999978,completion,,,,,false,,,,382129.19999980927,382129,375920.028,376125.5,375936.699,381931.616,8,400,,,
trial,html.Screen,4_45_0,2023-09-12T00:40:25.413Z,,0,1,,5212.88400000002,response,ISIC_0014183.JPG,5,ISIC_2206284.JPG,ISIC_0014183.JPG,false,1,keypress(m),500,387144.59999990463,387144.5,381914.944,382129.2999997139,381931.616,386958.17,8,400,46,,ISIC_2206284.JPG
break,html.Screen,4_45_1,2023-09-12T00:40:25.414Z,,0,,,NaN,,,,,,false,,,,387145.09999990463,387145,,387144.69999980927,,386958.17,8,400,,,
break_continue,html.Screen,4_45_2,2023-09-12T00:40:25.414Z,,0,,,NaN,,,,,,false,,,,387145.39999961853,387145.2999997139,,387145.19999980927,,386958.17,8,400,,,
sequence,flow.Sequence,4_45,2023-09-12T00:40:25.414Z,,0,,,5213.683999713918,completion,,,,,false,,,,387145.5,387145.2999997139,381914.944,382129.2999997139,381931.616,386958.17,8,400,,,
trial,html.Screen,4_46_0,2023-09-12T00:40:30.331Z,,0,1,,5104.229999618547,response,ISIC_2908315.JPG,4,ISIC_0032892.JPG,ISIC_0032892.JPG,false,0,keypress(z),500,392062.59999990463,392062.39999961853,386941.472,387145.5,386958.17,391867.737,8,400,47,,ISIC_2908315.JPG
break,html.Screen,4_46_1,2023-09-12T00:40:30.332Z,,0,,,NaN,,,,,,false,,,,392063.2999997139,392063.09999990463,,392062.7999997139,,391867.737,8,400,,,
break_continue,html.Screen,4_46_2,2023-09-12T00:40:30.332Z,,0,,,NaN,,,,,,false,,,,392063.39999961853,392063.2999997139,,392063.2999997139,,391867.737,8,400,,,
sequence,flow.Sequence,4_46,2023-09-12T00:40:30.332Z,,0,,,5105.129999713914,completion,,,,,false,,,,392063.59999990463,392063.2999997139,386941.472,387145.5,386958.17,391867.737,8,400,,,
trial,html.Screen,4_47_0,2023-09-12T00:40:34.741Z,,0,1,,4604.462999809242,response,ISIC_8174881.JPG,4,ISIC_8749288.JPG,ISIC_8174881.JPG,false,1,keypress(m),500,396472.2999997139,396472.19999980927,391851.01,392063.59999990463,391867.737,396276.231,8,400,48,,ISIC_8749288.JPG
break,html.Screen,4_47_1,2023-09-12T00:40:34.742Z,,0,,,NaN,,,,,,false,,,,396472.89999961853,396472.69999980927,,396472.39999961853,,396276.231,8,400,,,
break_continue,html.Screen,4_47_2,2023-09-12T00:40:34.742Z,,0,,,NaN,,,,,,false,,,,396473.2999997139,396473.19999980927,,396473,,396276.231,8,400,,,
sequence,flow.Sequence,4_47,2023-09-12T00:40:34.742Z,,0,,,4605.462999809242,completion,,,,,false,,,,396473.2999997139,396473.19999980927,391851.01,392063.59999990463,391867.737,396276.231,8,400,,,
trial,html.Screen,4_48_0,2023-09-12T00:40:41.355Z,,0,1,,6809.968999809236,response,ISIC_9125543.JPG,5,ISIC_0011701.JPG,ISIC_0011701.JPG,false,0,keypress(z),500,403086.39999961853,403086.19999980927,396259.701,396473.39999961853,396276.231,402889.057,8,400,49,,ISIC_9125543.JPG
break,html.Screen,4_48_1,2023-09-12T00:40:41.356Z,,0,,,NaN,,,,,,false,,,,403087.09999990463,403086.89999961853,,403086.5,,402889.057,8,400,,,
break_continue,html.Screen,4_48_2,2023-09-12T00:40:41.356Z,,0,,,NaN,,,,,,false,,,,403087.39999961853,403087.2999997139,,403087.19999980927,,402889.057,8,400,,,
sequence,flow.Sequence,4_48,2023-09-12T00:40:41.356Z,,0,,,6811.068999713869,completion,,,,,false,,,,403087.5,403087.2999997139,396259.701,396473.2999997139,396276.231,402889.057,8,400,,,
trial,html.Screen,4_49_0,2023-09-12T00:40:46.895Z,,0,1,,5736.6429998092935,response,ISIC_0472513.JPG,5,ISIC_0000550.JPG,ISIC_0000550.JPG,false,0,keypress(z),500,408625.89999961853,408625.69999980927,402872.391,403087.59999990463,402889.057,408433.337,8,400,50,,ISIC_0472513.JPG
break,html.Screen,4_49_1,2023-09-12T00:40:56.736Z,,0,,,9835.810999999987,timeout,,,,,false,,,,418467.7999997139,418467.69999980927,408416.611,408626.19999980927,408433.337,418269.148,8,400,,,
break_continue,html.Screen,4_49_2,2023-09-12T00:40:59.128Z,,0,,,2569.651999713911,response,,,,,false,continue,keypress(Space),,420860.19999980927,420838.7999997139,418467.69999980927,418468,418269.148,420656.973,8,400,,,
sequence,flow.Sequence,4_49,2023-09-12T00:40:59.129Z,,0,,,17949.742999713926,completion,,,,,false,,,,420860.2999997139,420838.7999997139,402872.391,403087.59999990463,402889.057,420656.973,8,400,,,
trial,html.Screen,4_50_0,2023-09-12T00:41:04.113Z,,0,2,,5188.027000000002,response,ISIC_0073086.JPG,5,ISIC_2612661.JPG,ISIC_0073086.JPG,false,1,keypress(m),500,425845.09999990463,425845,420640.432,420860.39999961853,420656.973,425650.032,8,400,1,,ISIC_2612661.JPG
break,html.Screen,4_50_1,2023-09-12T00:41:04.114Z,,0,,,NaN,,,,,,false,,,,425845.5,425845.39999961853,,425845.19999980927,,425650.032,8,400,,,
break_continue,html.Screen,4_50_2,2023-09-12T00:41:04.114Z,,0,,,NaN,,,,,,false,,,,425845.69999980927,425845.59999990463,,425845.59999990463,,425650.032,8,400,,,
sequence,flow.Sequence,4_50,2023-09-12T00:41:04.114Z,,0,,,5188.626999904634,completion,,,,,false,,,,425845.7999997139,425845.59999990463,420640.432,420860.39999961853,420656.973,425650.032,8,400,,,
trial,html.Screen,4_51_0,2023-09-12T00:41:08.484Z,,0,2,,4565.667999809259,response,ISIC_1806179.JPG,5,ISIC_3349562.JPG,ISIC_1806179.JPG,false,1,keypress(m),500,430215.7999997139,430215.69999980927,425633.443,425845.89999961853,425650.032,430025.203,8,400,2,,ISIC_3349562.JPG
break,html.Screen,4_51_1,2023-09-12T00:41:08.485Z,,0,,,NaN,,,,,,false,,,,430216.19999980927,430216.19999980927,,430216,,430025.203,8,400,,,
break_continue,html.Screen,4_51_2,2023-09-12T00:41:08.485Z,,0,,,NaN,,,,,,false,,,,430216.39999961853,430216.39999961853,,430216.2999997139,,430025.203,8,400,,,
sequence,flow.Sequence,4_51,2023-09-12T00:41:08.485Z,,0,,,4566.367999618524,completion,,,,,false,,,,430216.5,430216.39999961853,425633.443,425845.7999997139,425650.032,430025.203,8,400,,,
trial,html.Screen,4_52_0,2023-09-12T00:41:12.663Z,,0,2,,4369.2970000000205,response,ISIC_1619470.JPG,4,ISIC_0030718.JPG,ISIC_0030718.JPG,false,0,keypress(z),500,434394.59999990463,434394.5,430008.562,430216.59999990463,430025.203,434200.017,8,400,3,,ISIC_1619470.JPG
break,html.Screen,4_52_1,2023-09-12T00:41:12.663Z,,0,,,NaN,,,,,,false,,,,434394.89999961853,434394.89999961853,,434394.59999990463,,434200.017,8,400,,,
break_continue,html.Screen,4_52_2,2023-09-12T00:41:12.663Z,,0,,,NaN,,,,,,false,,,,434395.09999990463,434395.09999990463,,434395.09999990463,,434200.017,8,400,,,
sequence,flow.Sequence,4_52,2023-09-12T00:41:12.664Z,,0,,,4369.896999904653,completion,,,,,false,,,,434395.2999997139,434395.09999990463,430008.562,430216.5,430025.203,434200.017,8,400,,,
trial,html.Screen,4_53_0,2023-09-12T00:41:17.065Z,,0,2,,4596.782999713905,response,ISIC_8051628.JPG,6,ISIC_4980656.JPG,ISIC_8051628.JPG,false,1,keypress(m),500,438796.89999961853,438796.7999997139,434183.364,434395.39999961853,434200.017,438608.547,8,400,4,,ISIC_4980656.JPG
break,html.Screen,4_53_1,2023-09-12T00:41:17.066Z,,0,,,NaN,,,,,,false,,,,438797.39999961853,438797.2999997139,,438797,,438608.547,8,400,,,
break_continue,html.Screen,4_53_2,2023-09-12T00:41:17.066Z,,0,,,NaN,,,,,,false,,,,438797.69999980927,438797.59999990463,,438797.5,,438608.547,8,400,,,
sequence,flow.Sequence,4_53,2023-09-12T00:41:17.066Z,,0,,,4597.58299990464,completion,,,,,false,,,,438797.7999997139,438797.59999990463,434183.364,434395.2999997139,434200.017,438608.547,8,400,,,
trial,html.Screen,4_54_0,2023-09-12T00:41:22.844Z,,0,2,,5967.052999904612,response,ISIC_4022621.JPG,5,ISIC_0056164.JPG,ISIC_4022621.JPG,false,1,keypress(m),500,444575.69999980927,444575.59999990463,438591.897,438797.89999961853,438608.547,444386.508,8,400,5,,ISIC_0056164.JPG
break,html.Screen,4_54_1,2023-09-12T00:41:22.844Z,,0,,,NaN,,,,,,false,,,,444576.09999990463,444576.09999990463,,444575.7999997139,,444386.508,8,400,,,
break_continue,html.Screen,4_54_2,2023-09-12T00:41:22.845Z,,0,,,NaN,,,,,,false,,,,444576.39999961853,444576.39999961853,,444576.2999997139,,444386.508,8,400,,,
sequence,flow.Sequence,4_54,2023-09-12T00:41:22.845Z,,0,,,5967.85299961851,completion,,,,,false,,,,444576.39999961853,444576.39999961853,438591.897,438797.7999997139,438608.547,444386.508,8,400,,,
trial,html.Screen,4_55_0,2023-09-12T00:41:27.376Z,,0,2,,4720.9920000000275,response,ISIC_0485417.JPG,5,ISIC_0056247.JPG,ISIC_0056247.JPG,false,0,keypress(z),500,449107.69999980927,449107.5,444369.989,444576.5,444386.508,448912.023,8,400,6,,ISIC_0485417.JPG
break,html.Screen,4_55_1,2023-09-12T00:41:27.376Z,,0,,,NaN,,,,,,false,,,,449108.09999990463,449108,,449107.7999997139,,448912.023,8,400,,,
break_continue,html.Screen,4_55_2,2023-09-12T00:41:27.377Z,,0,,,NaN,,,,,,false,,,,449108.2999997139,449108.19999980927,,449108.19999980927,,448912.023,8,400,,,
sequence,flow.Sequence,4_55,2023-09-12T00:41:27.377Z,,0,,,4721.691999809293,completion,,,,,false,,,,449108.2999997139,449108.19999980927,444369.989,444576.5,444386.508,448912.023,8,400,,,
trial,html.Screen,4_56_0,2023-09-12T00:41:32.169Z,,0,2,,4988.376999618544,response,ISIC_0059733.JPG,5,ISIC_3596877.JPG,ISIC_0059733.JPG,false,1,keypress(m),500,453900.5,453900.39999961853,448895.384,449108.5,448912.023,453704.644,8,400,7,,ISIC_3596877.JPG
break,html.Screen,4_56_1,2023-09-12T00:41:32.169Z,,0,,,NaN,,,,,,false,,,,453900.89999961853,453900.7999997139,,453900.59999990463,,453704.644,8,400,,,
break_continue,html.Screen,4_56_2,2023-09-12T00:41:32.169Z,,0,,,NaN,,,,,,false,,,,453901.09999990463,453901,,453900.89999961853,,453704.644,8,400,,,
sequence,flow.Sequence,4_56,2023-09-12T00:41:32.169Z,,0,,,4988.9770000000135,completion,,,,,false,,,,453901.19999980927,453901,448895.384,449108.5,448912.023,453704.644,8,400,,,
trial,html.Screen,4_57_0,2023-09-12T00:41:38.315Z,,0,2,,6341.955999904661,response,ISIC_8356468.JPG,5,ISIC_0009868.JPG,ISIC_0009868.JPG,false,0,keypress(z),500,460046.69999980927,460046.59999990463,453688.044,453901.19999980927,453704.644,459849.928,8,400,8,,ISIC_8356468.JPG
break,html.Screen,4_57_1,2023-09-12T00:41:38.315Z,,0,,,NaN,,,,,,false,,,,460047.19999980927,460047,,460046.7999997139,,459849.928,8,400,,,
break_continue,html.Screen,4_57_2,2023-09-12T00:41:38.316Z,,0,,,NaN,,,,,,false,,,,460047.2999997139,460047.2999997139,,460047.19999980927,,459849.928,8,400,,,
sequence,flow.Sequence,4_57,2023-09-12T00:41:38.316Z,,0,,,6342.655999713927,completion,,,,,false,,,,460047.39999961853,460047.2999997139,453688.044,453901.19999980927,453704.644,459849.928,8,400,,,
trial,html.Screen,4_58_0,2023-09-12T00:41:43.821Z,,0,2,,5703.071999999986,response,ISIC_6401657.JPG,6,ISIC_4508511.JPG,ISIC_6401657.JPG,false,1,keypress(m),500,465553.09999990463,465553,459833.229,460047.39999961853,459849.928,465360.66,8,400,9,,ISIC_4508511.JPG
break,html.Screen,4_58_1,2023-09-12T00:41:43.822Z,,0,,,NaN,,,,,,false,,,,465553.7999997139,465553.59999990463,,465553.19999980927,,465360.66,8,400,,,
break_continue,html.Screen,4_58_2,2023-09-12T00:41:43.822Z,,0,,,NaN,,,,,,false,,,,465554,465553.89999961853,,465553.7999997139,,465360.66,8,400,,,
sequence,flow.Sequence,4_58,2023-09-12T00:41:43.822Z,,0,,,5703.971999618516,completion,,,,,false,,,,465554.09999990463,465553.89999961853,459833.229,460047.39999961853,459849.928,465360.66,8,400,,,
trial,html.Screen,4_59_0,2023-09-12T00:41:47.985Z,,0,2,,4355.639999713923,response,ISIC_2999018.JPG,5,ISIC_0068234.JPG,ISIC_0068234.JPG,false,0,keypress(z),500,469716.5,469716.2999997139,465344.058,465554.19999980927,465360.66,469535.416,8,400,10,,ISIC_2999018.JPG
break,html.Screen,4_59_1,2023-09-12T00:41:47.985Z,,0,,,NaN,,,,,,false,,,,469717.09999990463,469717,,469716.69999980927,,469535.416,8,400,,,
break_continue,html.Screen,4_59_2,2023-09-12T00:41:47.986Z,,0,,,NaN,,,,,,false,,,,469717.2999997139,469717.19999980927,,469717.19999980927,,469535.416,8,400,,,
sequence,flow.Sequence,4_59,2023-09-12T00:41:47.986Z,,0,,,4356.539999809291,completion,,,,,false,,,,469717.2999997139,469717.19999980927,465344.058,465554.19999980927,465360.66,469535.416,8,400,,,
trial,html.Screen,4_60_0,2023-09-12T00:41:52.931Z,,0,2,,5127.383999713871,response,ISIC_2200924.JPG,5,ISIC_0013702.JPG,ISIC_2200924.JPG,false,1,keypress(m),500,474663,474662.7999997139,469518.74,469717.5,469535.416,474478.397,8,400,11,,ISIC_0013702.JPG
break,html.Screen,4_60_1,2023-09-12T00:41:52.932Z,,0,,,NaN,,,,,,false,,,,474663.39999961853,474663.2999997139,,474663,,474478.397,8,400,,,
break_continue,html.Screen,4_60_2,2023-09-12T00:41:52.932Z,,0,,,NaN,,,,,,false,,,,474663.59999990463,474663.5,,474663.39999961853,,474478.397,8,400,,,
sequence,flow.Sequence,4_60,2023-09-12T00:41:52.932Z,,0,,,5128.0839999999735,completion,,,,,false,,,,474663.59999990463,474663.5,469518.74,469717.39999961853,469535.416,474478.397,8,400,,,
trial,html.Screen,4_61_0,2023-09-12T00:41:57.221Z,,0,2,,4474.103000000003,response,ISIC_0063692.JPG,5,ISIC_0032862.JPG,ISIC_0063692.JPG,false,1,keypress(m),500,478952.59999990463,478952.5,474461.781,474663.69999980927,474478.397,478770.065,8,400,12,,ISIC_0032862.JPG
break,html.Screen,4_61_1,2023-09-12T00:41:57.222Z,,0,,,NaN,,,,,,false,,,,478953.2999997139,478953.09999990463,,478952.69999980927,,478770.065,8,400,,,
break_continue,html.Screen,4_61_2,2023-09-12T00:41:57.222Z,,0,,,NaN,,,,,,false,,,,478953.5,478953.5,,478953.2999997139,,478770.065,8,400,,,
sequence,flow.Sequence,4_61,2023-09-12T00:41:57.222Z,,0,,,4475.103000000003,completion,,,,,false,,,,478953.59999990463,478953.5,474461.781,474663.59999990463,474478.397,478770.065,8,400,,,
trial,html.Screen,4_62_0,2023-09-12T00:42:02.263Z,,0,2,,5224.734999713895,response,ISIC_7592920.JPG,5,ISIC_5005961.JPG,ISIC_7592920.JPG,false,1,keypress(m),500,483995,483994.7999997139,478753.464,478953.59999990463,478770.065,483796.506,8,400,13,,ISIC_5005961.JPG
break,html.Screen,4_62_1,2023-09-12T00:42:02.264Z,,0,,,NaN,,,,,,false,,,,483995.39999961853,483995.2999997139,,483995.09999990463,,483796.506,8,400,,,
break_continue,html.Screen,4_62_2,2023-09-12T00:42:02.264Z,,0,,,NaN,,,,,,false,,,,483995.69999980927,483995.59999990463,,483995.5,,483796.506,8,400,,,
sequence,flow.Sequence,4_62,2023-09-12T00:42:02.264Z,,0,,,5225.53499990463,completion,,,,,false,,,,483995.69999980927,483995.59999990463,478753.464,478953.59999990463,478770.065,483796.506,8,400,,,
trial,html.Screen,4_63_0,2023-09-12T00:42:07.790Z,,0,2,,5724.693999809271,response,ISIC_0060446.JPG,5,ISIC_9210086.JPG,ISIC_0060446.JPG,false,1,keypress(m),500,489521.2999997139,489521.19999980927,483780.013,483995.7999997139,483796.506,489323.926,8,400,14,,ISIC_9210086.JPG
break,html.Screen,4_63_1,2023-09-12T00:42:07.790Z,,0,,,NaN,,,,,,false,,,,489521.69999980927,489521.69999980927,,489521.39999961853,,489323.926,8,400,,,
break_continue,html.Screen,4_63_2,2023-09-12T00:42:07.790Z,,0,,,NaN,,,,,,false,,,,489521.89999961853,489521.89999961853,,489521.7999997139,,489323.926,8,400,,,
sequence,flow.Sequence,4_63,2023-09-12T00:42:07.791Z,,0,,,5725.393999618536,completion,,,,,false,,,,489522.09999990463,489521.89999961853,483780.013,483995.7999997139,483796.506,489323.926,8,400,,,
trial,html.Screen,4_64_0,2023-09-12T00:42:12.581Z,,0,2,,4988.2739998092875,response,ISIC_0000168.JPG,5,ISIC_0830131.JPG,ISIC_0000168.JPG,false,1,keypress(m),500,494312.2999997139,494312.19999980927,489307.203,489522.09999990463,489323.926,494116.629,8,400,15,,ISIC_0830131.JPG
break,html.Screen,4_64_1,2023-09-12T00:42:12.581Z,,0,,,NaN,,,,,,false,,,,494312.7999997139,494312.69999980927,,494312.39999961853,,494116.629,8,400,,,
break_continue,html.Screen,4_64_2,2023-09-12T00:42:12.581Z,,0,,,NaN,,,,,,false,,,,494313,494312.89999961853,,494312.89999961853,,494116.629,8,400,,,
sequence,flow.Sequence,4_64,2023-09-12T00:42:12.582Z,,0,,,4988.973999618553,completion,,,,,false,,,,494313,494312.89999961853,489307.203,489522.09999990463,489323.926,494116.629,8,400,,,
trial,html.Screen,4_65_0,2023-09-12T00:42:17.357Z,,0,2,,4971.57099980925,response,ISIC_0033664.JPG,5,ISIC_0011794.JPG,ISIC_0011794.JPG,false,0,keypress(z),500,499088.19999980927,499088.19999980927,494099.879,494313.19999980927,494116.629,498892.609,8,400,16,,ISIC_0033664.JPG
break,html.Screen,4_65_1,2023-09-12T00:42:17.357Z,,0,,,NaN,,,,,,false,,,,499088.59999990463,499088.59999990463,,499088.39999961853,,498892.609,8,400,,,
break_continue,html.Screen,4_65_2,2023-09-12T00:42:17.357Z,,0,,,NaN,,,,,,false,,,,499088.7999997139,499088.7999997139,,499088.69999980927,,498892.609,8,400,,,
sequence,flow.Sequence,4_65,2023-09-12T00:42:17.357Z,,0,,,4972.170999713882,completion,,,,,false,,,,499088.89999961853,499088.7999997139,494099.879,494313.19999980927,494116.629,498892.609,8,400,,,
trial,html.Screen,4_66_0,2023-09-12T00:42:22.404Z,,0,2,,5243.190999713901,response,ISIC_0073086.JPG,4,ISIC_0026398.JPG,ISIC_0026398.JPG,false,0,keypress(z),500,504135.89999961853,504135.7999997139,498875.97,499088.89999961853,498892.609,503952.418,8,400,17,,ISIC_0073086.JPG
break,html.Screen,4_66_1,2023-09-12T00:42:22.405Z,,0,,,NaN,,,,,,false,,,,504136.39999961853,504136.2999997139,,504136.09999990463,,503952.418,8,400,,,
break_continue,html.Screen,4_66_2,2023-09-12T00:42:22.405Z,,0,,,NaN,,,,,,false,,,,504136.5,504136.5,,504136.5,,503952.418,8,400,,,
sequence,flow.Sequence,4_66,2023-09-12T00:42:22.405Z,,0,,,5243.891000000003,completion,,,,,false,,,,504136.59999990463,504136.5,498875.97,499088.89999961853,498892.609,503952.418,8,400,,,
trial,html.Screen,4_67_0,2023-09-12T00:42:26.950Z,,0,2,,4729.381999713893,response,ISIC_0028488.JPG,5,ISIC_0000346.JPG,ISIC_0028488.JPG,false,1,keypress(m),500,508681.89999961853,508681.7999997139,503935.717,504136.69999980927,503952.418,508494.565,8,400,18,,ISIC_0000346.JPG
break,html.Screen,4_67_1,2023-09-12T00:42:26.951Z,,0,,,NaN,,,,,,false,,,,508682.5,508682.2999997139,,508682,,508494.565,8,400,,,
break_continue,html.Screen,4_67_2,2023-09-12T00:42:26.951Z,,0,,,NaN,,,,,,false,,,,508682.89999961853,508682.7999997139,,508682.59999990463,,508494.565,8,400,,,
sequence,flow.Sequence,4_67,2023-09-12T00:42:26.951Z,,0,,,4730.381999713893,completion,,,,,false,,,,508683,508682.7999997139,503935.717,504136.69999980927,503952.418,508494.565,8,400,,,
trial,html.Screen,4_68_0,2023-09-12T00:42:32.346Z,,0,2,,5582.834999618528,response,ISIC_0028394.JPG,5,ISIC_0030898.JPG,ISIC_0030898.JPG,false,0,keypress(z),500,514077.59999990463,514077.39999961853,508477.876,508683.09999990463,508494.565,513888.397,8,400,19,,ISIC_0028394.JPG
break,html.Screen,4_68_1,2023-09-12T00:42:32.347Z,,0,,,NaN,,,,,,false,,,,514078.5,514078.2999997139,,514077.89999961853,,513888.397,8,400,,,
break_continue,html.Screen,4_68_2,2023-09-12T00:42:32.347Z,,0,,,NaN,,,,,,false,,,,514078.7999997139,514078.69999980927,,514078.59999990463,,513888.397,8,400,,,
sequence,flow.Sequence,4_68,2023-09-12T00:42:32.347Z,,0,,,5584.134999809263,completion,,,,,false,,,,514079,514078.69999980927,508477.876,508683.09999990463,508494.565,513888.397,8,400,,,
trial,html.Screen,4_69_0,2023-09-12T00:42:39.326Z,,0,2,,7168.502999618533,response,ISIC_0026300.JPG,5,ISIC_0059959.JPG,ISIC_0059959.JPG,false,0,keypress(z),500,521057.09999990463,521056.89999961853,513871.726,514079,513888.397,520868.762,8,400,20,,ISIC_0026300.JPG
break,html.Screen,4_69_1,2023-09-12T00:42:39.326Z,,0,,,NaN,,,,,,false,,,,521057.39999961853,521057.39999961853,,521057.19999980927,,520868.762,8,400,,,
break_continue,html.Screen,4_69_2,2023-09-12T00:42:39.326Z,,0,,,NaN,,,,,,false,,,,521057.69999980927,521057.59999990463,,521057.5,,520868.762,8,400,,,
sequence,flow.Sequence,4_69,2023-09-12T00:42:39.326Z,,0,,,7169.202999904635,completion,,,,,false,,,,521057.7999997139,521057.59999990463,513871.726,514079,513888.397,520868.762,8,400,,,
trial,html.Screen,4_70_0,2023-09-12T00:42:43.655Z,,0,2,,4517.437999809277,response,ISIC_0025218.JPG,5,ISIC_0982855.JPG,ISIC_0025218.JPG,false,1,keypress(m),500,525386.3999996185,525386.1999998093,520851.97,521057.89999961853,520868.762,525193.826,8,400,21,,ISIC_0982855.JPG
break,html.Screen,4_70_1,2023-09-12T00:42:43.656Z,,0,,,NaN,,,,,,false,,,,525387.6999998093,525387.3999996185,,525386.6999998093,,525193.826,8,400,,,
break_continue,html.Screen,4_70_2,2023-09-12T00:42:43.657Z,,0,,,NaN,,,,,,false,,,,525388.2999997139,525388.1999998093,,525387.8999996185,,525193.826,8,400,,,
sequence,flow.Sequence,4_70,2023-09-12T00:42:43.657Z,,0,,,4519.437999809277,completion,,,,,false,,,,525388.5999999046,525388.1999998093,520851.97,521057.7999997139,520868.762,525193.826,8,400,,,
trial,html.Screen,4_71_0,2023-09-12T00:42:48.108Z,,0,2,,4645.273999904632,response,ISIC_9303849.JPG,6,ISIC_6056692.JPG,ISIC_6056692.JPG,false,0,keypress(z),500,529839.1999998093,529839.0999999046,525177.168,525388.7999997139,525193.826,529652.462,8,400,22,,ISIC_9303849.JPG
break,html.Screen,4_71_1,2023-09-12T00:42:48.108Z,,0,,,NaN,,,,,,false,,,,529839.5999999046,529839.5,,529839.2999997139,,529652.462,8,400,,,
break_continue,html.Screen,4_71_2,2023-09-12T00:42:48.109Z,,0,,,NaN,,,,,,false,,,,529840.0999999046,529840,,529839.7999997139,,529652.462,8,400,,,
sequence,flow.Sequence,4_71,2023-09-12T00:42:48.109Z,,0,,,4646.173999999999,completion,,,,,false,,,,529840.0999999046,529840,525177.168,525388.6999998093,525193.826,529652.462,8,400,,,
trial,html.Screen,4_72_0,2023-09-12T00:42:52.702Z,,0,2,,4781.137999904575,response,ISIC_0033368.JPG,5,ISIC_0003324.JPG,ISIC_0033368.JPG,false,1,keypress(m),500,534433.6999998093,534433.5999999046,529635.739,529840.0999999046,529652.462,534244.712,8,400,23,,ISIC_0003324.JPG
break,html.Screen,4_72_1,2023-09-12T00:42:52.703Z,,0,,,NaN,,,,,,false,,,,534434.0999999046,534434,,534433.7999997139,,534244.712,8,400,,,
break_continue,html.Screen,4_72_2,2023-09-12T00:42:52.703Z,,0,,,NaN,,,,,,false,,,,534434.2999997139,534434.2999997139,,534434.1999998093,,534244.712,8,400,,,
sequence,flow.Sequence,4_72,2023-09-12T00:42:52.703Z,,0,,,4781.83799971384,completion,,,,,false,,,,534434.3999996185,534434.2999997139,529635.739,529840.0999999046,529652.462,534244.712,8,400,,,
trial,html.Screen,4_73_0,2023-09-12T00:42:57.489Z,,0,2,,4975.487999809207,response,ISIC_1881133.JPG,6,ISIC_1113629.JPG,ISIC_1881133.JPG,false,1,keypress(m),500,539220.5,539220.1999998093,534228.159,534434.3999996185,534244.712,539037.417,8,400,24,,ISIC_1113629.JPG
break,html.Screen,4_73_1,2023-09-12T00:42:57.491Z,,0,,,NaN,,,,,,false,,,,539221.7999997139,539221.3999996185,,539220.6999998093,,539037.417,8,400,,,
break_continue,html.Screen,4_73_2,2023-09-12T00:42:57.491Z,,0,,,NaN,,,,,,false,,,,539222.3999996185,539222.1999998093,,539221.8999996185,,539037.417,8,400,,,
sequence,flow.Sequence,4_73,2023-09-12T00:42:57.492Z,,0,,,4977.487999809207,completion,,,,,false,,,,539222.6999998093,539222.1999998093,534228.159,534434.3999996185,534244.712,539037.417,8,400,,,
trial,html.Screen,4_74_0,2023-09-12T00:43:02.445Z,,0,2,,5138.782999809249,response,ISIC_6486856.JPG,5,ISIC_0012263.JPG,ISIC_0012263.JPG,false,0,keypress(z),500,544176.1999998093,544176.1999998093,539020.848,539223,539037.417,543980.434,8,400,25,,ISIC_6486856.JPG
break,html.Screen,4_74_1,2023-09-12T00:43:02.446Z,,0,,,NaN,,,,,,false,,,,544176.6999998093,544176.5,,544176.2999997139,,543980.434,8,400,,,
break_continue,html.Screen,4_74_2,2023-09-12T00:43:02.446Z,,0,,,NaN,,,,,,false,,,,544176.7999997139,544176.7999997139,,544176.6999998093,,543980.434,8,400,,,
sequence,flow.Sequence,4_74,2023-09-12T00:43:02.446Z,,0,,,5139.382999713882,completion,,,,,false,,,,544176.8999996185,544176.7999997139,539020.848,539223,539037.417,543980.434,8,400,,,
trial,html.Screen,4_75_0,2023-09-12T00:43:07.631Z,,0,2,,5381.265999809257,response,ISIC_8727731.JPG,5,ISIC_0055253.JPG,ISIC_0055253.JPG,false,0,keypress(z),500,549361.6999998093,549361.6999998093,543963.586,544177,543980.434,549173.751,8,400,26,,ISIC_8727731.JPG
break,html.Screen,4_75_1,2023-09-12T00:43:07.631Z,,0,,,NaN,,,,,,false,,,,549362.0999999046,549362,,549361.8999996185,,549173.751,8,400,,,
break_continue,html.Screen,4_75_2,2023-09-12T00:43:07.631Z,,0,,,NaN,,,,,,false,,,,549362.2999997139,549362.2999997139,,549362.1999998093,,549173.751,8,400,,,
sequence,flow.Sequence,4_75,2023-09-12T00:43:07.631Z,,0,,,5381.865999713889,completion,,,,,false,,,,549362.3999996185,549362.2999997139,543963.586,544176.8999996185,543980.434,549173.751,8,400,,,
trial,html.Screen,4_76_0,2023-09-12T00:43:12.449Z,,0,2,,5005.848999904585,response,ISIC_3684488.JPG,5,ISIC_0058954.JPG,ISIC_3684488.JPG,false,1,keypress(m),500,554179.6999998093,554179.5999999046,549157.167,549362.5,549173.751,553983.078,8,400,27,,ISIC_0058954.JPG
break,html.Screen,4_76_1,2023-09-12T00:43:12.449Z,,0,,,NaN,,,,,,false,,,,554180.1999998093,554180,,554179.7999997139,,553983.078,8,400,,,
break_continue,html.Screen,4_76_2,2023-09-12T00:43:12.449Z,,0,,,NaN,,,,,,false,,,,554180.2999997139,554180.2999997139,,554180.1999998093,,553983.078,8,400,,,
sequence,flow.Sequence,4_76,2023-09-12T00:43:12.449Z,,0,,,5006.54899971385,completion,,,,,false,,,,554180.2999997139,554180.2999997139,549157.167,549362.5,549173.751,553983.078,8,400,,,
trial,html.Screen,4_77_0,2023-09-12T00:43:17.171Z,,0,2,,4919.221999713918,response,ISIC_0009913.JPG,5,ISIC_0027252.JPG,ISIC_0009913.JPG,false,1,keypress(m),500,558902.5,558902.2999997139,553966.511,554180.5,553983.078,558708.966,8,400,28,,ISIC_0027252.JPG
break,html.Screen,4_77_1,2023-09-12T00:43:17.172Z,,0,,,NaN,,,,,,false,,,,558903.0999999046,558902.8999996185,,558902.5999999046,,558708.966,8,400,,,
break_continue,html.Screen,4_77_2,2023-09-12T00:43:17.172Z,,0,,,NaN,,,,,,false,,,,558903.2999997139,558903.2999997139,,558903.0999999046,,558708.966,8,400,,,
sequence,flow.Sequence,4_77,2023-09-12T00:43:17.172Z,,0,,,4920.221999713918,completion,,,,,false,,,,558903.3999996185,558903.2999997139,553966.511,554180.3999996185,553983.078,558708.966,8,400,,,
trial,html.Screen,4_78_0,2023-09-12T00:43:22.246Z,,0,2,,5267.633999904618,response,ISIC_0015258.JPG,6,ISIC_0011924.JPG,ISIC_0015258.JPG,false,1,keypress(m),500,563976.6999998093,563976.5999999046,558692.399,558903.5,558708.966,563785.589,8,400,29,,ISIC_0011924.JPG
break,html.Screen,4_78_1,2023-09-12T00:43:22.246Z,,0,,,NaN,,,,,,false,,,,563977.0999999046,563977,,563976.8999996185,,563785.589,8,400,,,
break_continue,html.Screen,4_78_2,2023-09-12T00:43:22.246Z,,0,,,NaN,,,,,,false,,,,563977.2999997139,563977.2999997139,,563977.1999998093,,563785.589,8,400,,,
sequence,flow.Sequence,4_78,2023-09-12T00:43:22.246Z,,0,,,5268.333999713883,completion,,,,,false,,,,563977.2999997139,563977.2999997139,558692.399,558903.3999996185,558708.966,563785.589,8,400,,,
trial,html.Screen,4_79_0,2023-09-12T00:43:27.114Z,,0,2,,5059.010999904596,response,ISIC_3590814.JPG,4,ISIC_6912233.JPG,ISIC_3590814.JPG,false,1,keypress(m),500,568844.7999997139,568844.5999999046,563768.837,563977.3999996185,563785.589,568661.707,8,400,30,,ISIC_6912233.JPG
break,html.Screen,4_79_1,2023-09-12T00:43:27.114Z,,0,,,NaN,,,,,,false,,,,568845.1999998093,568845,,568844.8999996185,,568661.707,8,400,,,
break_continue,html.Screen,4_79_2,2023-09-12T00:43:27.114Z,,0,,,NaN,,,,,,false,,,,568845.2999997139,568845.2999997139,,568845.2999997139,,568661.707,8,400,,,
sequence,flow.Sequence,4_79,2023-09-12T00:43:27.114Z,,0,,,5059.710999713861,completion,,,,,false,,,,568845.3999996185,568845.2999997139,563768.837,563977.3999996185,563785.589,568661.707,8,400,,,
trial,html.Screen,4_80_0,2023-09-12T00:43:32.396Z,,0,2,,5464.992999809212,response,ISIC_4967639.JPG,4,ISIC_0026470.JPG,ISIC_0026470.JPG,false,0,keypress(z),500,574126.7999997139,574126.6999998093,568645.131,568845.5,568661.707,573938.579,8,400,31,,ISIC_4967639.JPG
break,html.Screen,4_80_1,2023-09-12T00:43:32.396Z,,0,,,NaN,,,,,,false,,,,574127.2999997139,574127.1999998093,,574127,,573938.579,8,400,,,
break_continue,html.Screen,4_80_2,2023-09-12T00:43:32.397Z,,0,,,NaN,,,,,,false,,,,574127.5,574127.5,,574127.3999996185,,573938.579,8,400,,,
sequence,flow.Sequence,4_80,2023-09-12T00:43:32.397Z,,0,,,5465.792999999947,completion,,,,,false,,,,574127.5999999046,574127.5,568645.131,568845.5,568661.707,573938.579,8,400,,,
trial,html.Screen,4_81_0,2023-09-12T00:43:37.453Z,,0,2,,5245.820999618503,response,ISIC_5835765.JPG,4,ISIC_7586566.JPG,ISIC_7586566.JPG,false,0,keypress(z),500,579184.5,579184.3999996185,573922.007,574127.6999998093,573938.579,578998.536,8,400,32,,ISIC_5835765.JPG
break,html.Screen,4_81_1,2023-09-12T00:43:37.454Z,,0,,,NaN,,,,,,false,,,,579184.8999996185,579184.7999997139,,579184.5999999046,,578998.536,8,400,,,
break_continue,html.Screen,4_81_2,2023-09-12T00:43:37.454Z,,0,,,NaN,,,,,,false,,,,579185,579185,,579184.8999996185,,578998.536,8,400,,,
sequence,flow.Sequence,4_81,2023-09-12T00:43:37.454Z,,0,,,5246.420999999973,completion,,,,,false,,,,579185.0999999046,579185,573922.007,574127.6999998093,573938.579,578998.536,8,400,,,
trial,html.Screen,4_82_0,2023-09-12T00:43:42.851Z,,0,2,,5583.863999618567,response,ISIC_5491641.JPG,6,ISIC_8409262.JPG,ISIC_8409262.JPG,false,0,keypress(z),500,584582.5,584582.3999996185,578981.815,579185.1999998093,578998.536,584392.242,8,400,33,,ISIC_5491641.JPG
break,html.Screen,4_82_1,2023-09-12T00:43:42.852Z,,0,,,NaN,,,,,,false,,,,584583.0999999046,584582.8999996185,,584582.6999998093,,584392.242,8,400,,,
break_continue,html.Screen,4_82_2,2023-09-12T00:43:42.852Z,,0,,,NaN,,,,,,false,,,,584583.2999997139,584583.1999998093,,584583.0999999046,,584392.242,8,400,,,
sequence,flow.Sequence,4_82,2023-09-12T00:43:42.852Z,,0,,,5584.6639998093015,completion,,,,,false,,,,584583.2999997139,584583.1999998093,578981.815,579185.0999999046,578998.536,584392.242,8,400,,,
trial,html.Screen,4_83_0,2023-09-12T00:43:47.933Z,,0,2,,5271.258000000031,response,ISIC_0014559.JPG,4,ISIC_9086288.JPG,ISIC_0014559.JPG,false,1,keypress(m),500,589663.5999999046,589663.5,584375.734,584583.3999996185,584392.242,589468.839,8,400,34,,ISIC_9086288.JPG
break,html.Screen,4_83_1,2023-09-12T00:43:47.933Z,,0,,,NaN,,,,,,false,,,,589664.1999998093,589664,,589663.6999998093,,589468.839,8,400,,,
break_continue,html.Screen,4_83_2,2023-09-12T00:43:47.933Z,,0,,,NaN,,,,,,false,,,,589664.3999996185,589664.3999996185,,589664.2999997139,,589468.839,8,400,,,
sequence,flow.Sequence,4_83,2023-09-12T00:43:47.934Z,,0,,,5272.157999618561,completion,,,,,false,,,,589664.5,589664.3999996185,584375.734,584583.3999996185,584392.242,589468.839,8,400,,,
trial,html.Screen,4_84_0,2023-09-12T00:43:52.031Z,,0,2,,4292.560999618494,response,ISIC_0057164.JPG,5,ISIC_0003767.JPG,ISIC_0057164.JPG,false,1,keypress(m),500,593761.5999999046,593761.3999996185,589452.216,589664.5999999046,589468.839,593576.814,8,400,35,,ISIC_0003767.JPG
break,html.Screen,4_84_1,2023-09-12T00:43:52.031Z,,0,,,NaN,,,,,,false,,,,593762.1999998093,593762,,593761.6999998093,,593576.814,8,400,,,
break_continue,html.Screen,4_84_2,2023-09-12T00:43:52.031Z,,0,,,NaN,,,,,,false,,,,593762.5,593762.3999996185,,593762.2999997139,,593576.814,8,400,,,
sequence,flow.Sequence,4_84,2023-09-12T00:43:52.032Z,,0,,,4293.560999618494,completion,,,,,false,,,,593762.5999999046,593762.3999996185,589452.216,589664.5999999046,589468.839,593576.814,8,400,,,
trial,html.Screen,4_85_0,2023-09-12T00:43:56.113Z,,0,2,,4267.185999999987,response,ISIC_5611010.JPG,5,ISIC_0024265.JPG,ISIC_0024265.JPG,false,0,keypress(z),500,597844.0999999046,597844,593560.252,593762.5999999046,593576.814,597651.52,8,400,36,,ISIC_5611010.JPG
break,html.Screen,4_85_1,2023-09-12T00:43:56.114Z,,0,,,NaN,,,,,,false,,,,597844.7999997139,597844.5999999046,,597844.1999998093,,597651.52,8,400,,,
break_continue,html.Screen,4_85_2,2023-09-12T00:43:56.114Z,,0,,,NaN,,,,,,false,,,,597845.1999998093,597845.0999999046,,597845,,597651.52,8,400,,,
sequence,flow.Sequence,4_85,2023-09-12T00:43:56.114Z,,0,,,4268.2859999046195,completion,,,,,false,,,,597845.2999997139,597845.0999999046,593560.252,593762.5999999046,593576.814,597651.52,8,400,,,
trial,html.Screen,4_86_0,2023-09-12T00:44:01.429Z,,0,2,,5507.979999999981,response,ISIC_9256438.JPG,4,ISIC_0000504.JPG,ISIC_9256438.JPG,false,1,keypress(m),500,603159.5999999046,603159.5,597634.91,597845.2999997139,597651.52,602961.76,8,400,37,,ISIC_0000504.JPG
break,html.Screen,4_86_1,2023-09-12T00:44:01.429Z,,0,,,NaN,,,,,,false,,,,603160,603160,,603159.6999998093,,602961.76,8,400,,,
break_continue,html.Screen,4_86_2,2023-09-12T00:44:01.429Z,,0,,,NaN,,,,,,false,,,,603160.1999998093,603160.1999998093,,603160.0999999046,,602961.76,8,400,,,
sequence,flow.Sequence,4_86,2023-09-12T00:44:01.430Z,,0,,,5508.6799998092465,completion,,,,,false,,,,603160.2999997139,603160.1999998093,597634.91,597845.2999997139,597651.52,602961.76,8,400,,,
trial,html.Screen,4_87_0,2023-09-12T00:44:06.887Z,,0,2,,5655.539999713888,response,ISIC_0063664.JPG,4,ISIC_4884803.JPG,ISIC_0063664.JPG,false,1,keypress(m),500,608617.5999999046,608617.2999997139,602945.053,603160.2999997139,602961.76,608422.509,8,400,38,,ISIC_4884803.JPG
break,html.Screen,4_87_1,2023-09-12T00:44:06.888Z,,0,,,NaN,,,,,,false,,,,608619,608618.5999999046,,608618,,608422.509,8,400,,,
break_continue,html.Screen,4_87_2,2023-09-12T00:44:06.889Z,,0,,,NaN,,,,,,false,,,,608619.7999997139,608619.5999999046,,608619.1999998093,,608422.509,8,400,,,
sequence,flow.Sequence,4_87,2023-09-12T00:44:06.889Z,,0,,,5657.839999904623,completion,,,,,false,,,,608620.0999999046,608619.5999999046,602945.053,603160.2999997139,602961.76,608422.509,8,400,,,
trial,html.Screen,4_88_0,2023-09-12T00:44:12.863Z,,0,2,,6171.190999809303,response,ISIC_7438013.JPG,5,ISIC_5971591.JPG,ISIC_5971591.JPG,false,0,keypress(z),500,614593.7999997139,614593.6999998093,608405.639,608620.2999997139,608422.509,614400.659,8,400,39,,ISIC_7438013.JPG
break,html.Screen,4_88_1,2023-09-12T00:44:12.863Z,,0,,,NaN,,,,,,false,,,,614594.2999997139,614594.1999998093,,614593.8999996185,,614400.659,8,400,,,
break_continue,html.Screen,4_88_2,2023-09-12T00:44:12.864Z,,0,,,NaN,,,,,,false,,,,614594.5,614594.5,,614594.3999996185,,614400.659,8,400,,,
sequence,flow.Sequence,4_88,2023-09-12T00:44:12.864Z,,0,,,6171.991000000038,completion,,,,,false,,,,614594.5999999046,614594.5,608405.639,608620.2999997139,608422.509,614400.659,8,400,,,
trial,html.Screen,4_89_0,2023-09-12T00:44:18.452Z,,0,2,,5781.341000000015,response,ISIC_0031118.JPG,6,ISIC_0010649.JPG,ISIC_0031118.JPG,false,1,keypress(m),500,620182.2999997139,620182,614384.057,614594.5999999046,614400.659,619994.946,8,400,40,,ISIC_0010649.JPG
break,html.Screen,4_89_1,2023-09-12T00:44:18.453Z,,0,,,NaN,,,,,,false,,,,620184.1999998093,620183.3999996185,,620182.6999998093,,619994.946,8,400,,,
break_continue,html.Screen,4_89_2,2023-09-12T00:44:18.455Z,,0,,,NaN,,,,,,false,,,,620185.5,620185.1999998093,,620184.5999999046,,619994.946,8,400,,,
sequence,flow.Sequence,4_89,2023-09-12T00:44:18.455Z,,0,,,5784.54099980928,completion,,,,,false,,,,620186.0999999046,620185.1999998093,614384.057,614594.5999999046,614400.659,619994.946,8,400,,,
trial,html.Screen,4_90_0,2023-09-12T00:44:23.836Z,,0,2,,5572.153999904636,response,ISIC_9727132.JPG,6,ISIC_0024967.JPG,ISIC_0024967.JPG,false,0,keypress(z),500,625567.1999998093,625567.0999999046,619978.314,620186.5999999046,619994.946,625372.052,8,400,41,,ISIC_9727132.JPG
break,html.Screen,4_90_1,2023-09-12T00:44:23.837Z,,0,,,NaN,,,,,,false,,,,625568,625567.6999998093,,625567.3999996185,,625372.052,8,400,,,
break_continue,html.Screen,4_90_2,2023-09-12T00:44:23.838Z,,0,,,NaN,,,,,,false,,,,625568.3999996185,625568.2999997139,,625568.0999999046,,625372.052,8,400,,,
sequence,flow.Sequence,4_90,2023-09-12T00:44:23.838Z,,0,,,5573.353999713901,completion,,,,,false,,,,625568.5,625568.2999997139,619978.314,620186.3999996185,619994.946,625372.052,8,400,,,
trial,html.Screen,4_91_0,2023-09-12T00:44:30.853Z,,0,2,,7211.64799980924,response,ISIC_9716860.JPG,6,ISIC_0884550.JPG,ISIC_9716860.JPG,false,1,keypress(m),500,632583.7999997139,632583.6999998093,625355.481,625568.5999999046,625372.052,632385.676,8,400,42,,ISIC_0884550.JPG
break,html.Screen,4_91_1,2023-09-12T00:44:30.853Z,,0,,,NaN,,,,,,false,,,,632584.1999998093,632584.1999998093,,632584,,632385.676,8,400,,,
break_continue,html.Screen,4_91_2,2023-09-12T00:44:30.854Z,,0,,,NaN,,,,,,false,,,,632584.3999996185,632584.3999996185,,632584.2999997139,,632385.676,8,400,,,
sequence,flow.Sequence,4_91,2023-09-12T00:44:30.854Z,,0,,,7212.347999618505,completion,,,,,false,,,,632584.5,632584.3999996185,625355.481,625568.5,625372.052,632385.676,8,400,,,
trial,html.Screen,4_92_0,2023-09-12T00:44:36.780Z,,0,2,,6124.62399971392,response,ISIC_0071043.JPG,5,ISIC_5309814.JPG,ISIC_0071043.JPG,false,1,keypress(m),500,638510.5999999046,638510.2999997139,632369.077,632584.5999999046,632385.676,638314.008,8,400,43,,ISIC_5309814.JPG
break,html.Screen,4_92_1,2023-09-12T00:44:36.781Z,,0,,,NaN,,,,,,false,,,,638512.1999998093,638511.6999998093,,638511,,638314.008,8,400,,,
break_continue,html.Screen,4_92_2,2023-09-12T00:44:36.782Z,,0,,,NaN,,,,,,false,,,,638512.7999997139,638512.6999998093,,638512.3999996185,,638314.008,8,400,,,
sequence,flow.Sequence,4_92,2023-09-12T00:44:36.782Z,,0,,,6127.0239998092875,completion,,,,,false,,,,638513.0999999046,638512.6999998093,632369.077,632584.5,632385.676,638314.008,8,400,,,
trial,html.Screen,4_93_0,2023-09-12T00:44:41.764Z,,0,2,,5180.3919996184995,response,ISIC_1293403.JPG,5,ISIC_5595054.JPG,ISIC_1293403.JPG,false,1,keypress(m),500,643494.5,643494.3999996185,638297.311,638513.3999996185,638314.008,643306.963,8,400,44,,ISIC_5595054.JPG
break,html.Screen,4_93_1,2023-09-12T00:44:41.764Z,,0,,,NaN,,,,,,false,,,,643495,643494.7999997139,,643494.5999999046,,643306.963,8,400,,,
break_continue,html.Screen,4_93_2,2023-09-12T00:44:41.764Z,,0,,,NaN,,,,,,false,,,,643495.0999999046,643495.0999999046,,643495,,643306.963,8,400,,,
sequence,flow.Sequence,4_93,2023-09-12T00:44:41.764Z,,0,,,5181.091999904602,completion,,,,,false,,,,643495.1999998093,643495.0999999046,638297.311,638513.2999997139,638314.008,643306.963,8,400,,,
trial,html.Screen,4_94_0,2023-09-12T00:44:47.270Z,,0,2,,5693.436999618541,response,ISIC_0029902.JPG,4,ISIC_0055841.JPG,ISIC_0055841.JPG,false,0,keypress(z),500,649000.5999999046,649000.3999996185,643290.322,643495.2999997139,643306.963,648817.75,8,400,45,,ISIC_0029902.JPG
break,html.Screen,4_94_1,2023-09-12T00:44:47.270Z,,0,,,NaN,,,,,,false,,,,649001.1999998093,649001.0999999046,,649000.7999997139,,648817.75,8,400,,,
break_continue,html.Screen,4_94_2,2023-09-12T00:44:47.271Z,,0,,,NaN,,,,,,false,,,,649001.3999996185,649001.2999997139,,649001.1999998093,,648817.75,8,400,,,
sequence,flow.Sequence,4_94,2023-09-12T00:44:47.271Z,,0,,,5694.336999713909,completion,,,,,false,,,,649001.5,649001.2999997139,643290.322,643495.1999998093,643306.963,648817.75,8,400,,,
trial,html.Screen,4_95_0,2023-09-12T00:44:51.789Z,,0,2,,4701.64999961853,response,ISIC_5287679.JPG,5,ISIC_4649440.JPG,ISIC_4649440.JPG,false,0,keypress(z),500,653519.5,653519.3999996185,648800.959,649001.5,648817.75,653326.578,8,400,46,,ISIC_5287679.JPG
break,html.Screen,4_95_1,2023-09-12T00:44:51.789Z,,0,,,NaN,,,,,,false,,,,653520.1999998093,653520,,653519.6999998093,,653326.578,8,400,,,
break_continue,html.Screen,4_95_2,2023-09-12T00:44:51.790Z,,0,,,NaN,,,,,,false,,,,653520.5,653520.5,,653520.2999997139,,653326.578,8,400,,,
sequence,flow.Sequence,4_95,2023-09-12T00:44:51.790Z,,0,,,4702.75,completion,,,,,false,,,,653520.5999999046,653520.5,648800.959,649001.5,648817.75,653326.578,8,400,,,
trial,html.Screen,4_96_0,2023-09-12T00:44:57.698Z,,0,2,,6101.821999618551,response,ISIC_0010432.JPG,5,ISIC_3446357.JPG,ISIC_3446357.JPG,false,0,keypress(z),500,659428.6999998093,659428.3999996185,653309.819,653520.6999998093,653326.578,659237.986,8,400,47,,ISIC_0010432.JPG
break,html.Screen,4_96_1,2023-09-12T00:44:57.699Z,,0,,,NaN,,,,,,false,,,,659429.5999999046,659429.3999996185,,659428.8999996185,,659237.986,8,400,,,
break_continue,html.Screen,4_96_2,2023-09-12T00:44:57.699Z,,0,,,NaN,,,,,,false,,,,659429.8999996185,659429.8999996185,,659429.7999997139,,659237.986,8,400,,,
sequence,flow.Sequence,4_96,2023-09-12T00:44:57.700Z,,0,,,6103.321999618551,completion,,,,,false,,,,659430.1999998093,659429.8999996185,653309.819,653520.6999998093,653326.578,659237.986,8,400,,,
trial,html.Screen,4_97_0,2023-09-12T00:45:05.014Z,,0,2,,7506.313999713864,response,ISIC_5005253.JPG,5,ISIC_0058858.JPG,ISIC_0058858.JPG,false,0,keypress(z),500,666744.3999996185,666744.2999997139,659221.25,659430.2999997139,659237.986,666552.258,8,400,48,,ISIC_5005253.JPG
break,html.Screen,4_97_1,2023-09-12T00:45:05.014Z,,0,,,NaN,,,,,,false,,,,666745,666744.7999997139,,666744.5999999046,,666552.258,8,400,,,
break_continue,html.Screen,4_97_2,2023-09-12T00:45:05.015Z,,0,,,NaN,,,,,,false,,,,666745.3999996185,666745.1999998093,,666745.0999999046,,666552.258,8,400,,,
sequence,flow.Sequence,4_97,2023-09-12T00:45:05.015Z,,0,,,7507.213999809232,completion,,,,,false,,,,666745.5,666745.1999998093,659221.25,659430.1999998093,659237.986,666552.258,8,400,,,
trial,html.Screen,4_98_0,2023-09-12T00:45:10.108Z,,0,2,,5286.041999713867,response,ISIC_1698119.JPG,6,ISIC_4723378.JPG,ISIC_4723378.JPG,false,0,keypress(z),500,671838.5,671838.2999997139,666535.447,666745.5,666552.258,671645.42,8,400,49,,ISIC_1698119.JPG
break,html.Screen,4_98_1,2023-09-12T00:45:10.108Z,,0,,,NaN,,,,,,false,,,,671838.7999997139,671838.6999998093,,671838.5,,671645.42,8,400,,,
break_continue,html.Screen,4_98_2,2023-09-12T00:45:10.108Z,,0,,,NaN,,,,,,false,,,,671839.0999999046,671839,,671839,,671645.42,8,400,,,
sequence,flow.Sequence,4_98,2023-09-12T00:45:10.108Z,,0,,,5286.741999999969,completion,,,,,false,,,,671839.0999999046,671839,666535.447,666745.5,666552.258,671645.42,8,400,,,
trial,html.Screen,4_99_0,2023-09-12T00:45:14.885Z,,0,2,,4970.379999713856,response,ISIC_0034144.JPG,5,ISIC_2489504.JPG,ISIC_0034144.JPG,false,1,keypress(m),500,676616.1999998093,676615.7999997139,671628.809,671839.1999998093,671645.42,676421.596,8,400,50,,ISIC_2489504.JPG
break,html.Screen,4_99_1,2023-09-12T00:45:24.735Z,,0,,,9852.402999999933,timeout,,,,,false,,,,686465.5999999046,686465.1999998093,676404.753,676616.2999997139,676421.596,686273.999,8,400,,,
break_continue,html.Screen,4_99_2,2023-09-12T00:45:25.327Z,,0,,,775.0010000000475,response,,,,,false,continue,keypress(Space),,687057.2999997139,687049,686465.1999998093,686465.6999998093,686273.999,686875.147,8,400,,,
sequence,flow.Sequence,4_99,2023-09-12T00:45:25.327Z,,0,,,15403.579999999958,completion,,,,,false,,,,687057.3999996185,687049,671628.809,671839.1999998093,671645.42,686875.147,8,400,,,
trial,html.Screen,4_100_0,2023-09-12T00:45:30.165Z,,0,3,,5020.353000000003,response,ISIC_0013813.JPG,6,ISIC_2465895.JPG,ISIC_0013813.JPG,false,1,keypress(m),500,691895.6999998093,691895.5,686858.434,687057.5,686875.147,691701.104,8,400,1,,ISIC_2465895.JPG
break,html.Screen,4_100_1,2023-09-12T00:45:30.165Z,,0,,,NaN,,,,,,false,,,,691896.0999999046,691896,,691895.7999997139,,691701.104,8,400,,,
break_continue,html.Screen,4_100_2,2023-09-12T00:45:30.166Z,,0,,,NaN,,,,,,false,,,,691896.1999998093,691896.1999998093,,691896.0999999046,,691701.104,8,400,,,
sequence,flow.Sequence,4_100,2023-09-12T00:45:30.166Z,,0,,,5021.052999809268,completion,,,,,false,,,,691896.2999997139,691896.1999998093,686858.434,687057.3999996185,686875.147,691701.104,8,400,,,
trial,html.Screen,4_101_0,2023-09-12T00:45:34.604Z,,0,3,,4632.89599999995,response,ISIC_0072582.JPG,4,ISIC_0007678.JPG,ISIC_0007678.JPG,false,0,keypress(z),500,696334.1999998093,696334,691684.521,691896.2999997139,691701.104,696143.135,8,400,2,,ISIC_0072582.JPG
break,html.Screen,4_101_1,2023-09-12T00:45:34.605Z,,0,,,NaN,,,,,,false,,,,696335.2999997139,696334.7999997139,,696334.3999996185,,696143.135,8,400,,,
break_continue,html.Screen,4_101_2,2023-09-12T00:45:34.605Z,,0,,,NaN,,,,,,false,,,,696335.7999997139,696335.6999998093,,696335.3999996185,,696143.135,8,400,,,
sequence,flow.Sequence,4_101,2023-09-12T00:45:34.605Z,,0,,,4634.595999809215,completion,,,,,false,,,,696336,696335.6999998093,691684.521,691896.2999997139,691701.104,696143.135,8,400,,,
trial,html.Screen,4_102_0,2023-09-12T00:45:39.252Z,,0,3,,4838.964999904623,response,ISIC_0071481.JPG,5,ISIC_6634951.JPG,ISIC_6634951.JPG,false,0,keypress(z),500,700982.1999998093,700982.0999999046,696126.396,696336.2999997139,696143.135,700785.449,8,400,3,,ISIC_0071481.JPG
break,html.Screen,4_102_1,2023-09-12T00:45:39.252Z,,0,,,NaN,,,,,,false,,,,700982.6999998093,700982.5,,700982.2999997139,,700785.449,8,400,,,
break_continue,html.Screen,4_102_2,2023-09-12T00:45:39.252Z,,0,,,NaN,,,,,,false,,,,700982.7999997139,700982.6999998093,,700982.6999998093,,700785.449,8,400,,,
sequence,flow.Sequence,4_102,2023-09-12T00:45:39.252Z,,0,,,4839.564999809256,completion,,,,,false,,,,700982.8999996185,700982.6999998093,696126.396,696336.1999998093,696143.135,700785.449,8,400,,,
trial,html.Screen,4_103_0,2023-09-12T00:45:44.485Z,,0,3,,5430.550999999978,response,ISIC_0072377.JPG,5,ISIC_3009564.JPG,ISIC_0072377.JPG,false,1,keypress(m),500,706216.0999999046,706216,700768.872,700983,700785.449,706029.005,8,400,4,,ISIC_3009564.JPG
break,html.Screen,4_103_1,2023-09-12T00:45:44.486Z,,0,,,NaN,,,,,,false,,,,706216.8999996185,706216.5999999046,,706216.2999997139,,706029.005,8,400,,,
break_continue,html.Screen,4_103_2,2023-09-12T00:45:44.487Z,,0,,,NaN,,,,,,false,,,,706217.1999998093,706217.0999999046,,706217,,706029.005,8,400,,,
sequence,flow.Sequence,4_103,2023-09-12T00:45:44.487Z,,0,,,5431.65099990461,completion,,,,,false,,,,706217.1999998093,706217.0999999046,700768.872,700982.8999996185,700785.449,706029.005,8,400,,,
trial,html.Screen,4_104_0,2023-09-12T00:45:49.016Z,,0,3,,4717.894999618526,response,ISIC_0009939.JPG,5,ISIC_0008055.JPG,ISIC_0009939.JPG,false,1,keypress(m),500,710747,710746.8999996185,706012.366,706217.2999997139,706029.005,710554.515,8,400,5,,ISIC_0008055.JPG
break,html.Screen,4_104_1,2023-09-12T00:45:49.017Z,,0,,,NaN,,,,,,false,,,,710747.5999999046,710747.3999996185,,710747.1999998093,,710554.515,8,400,,,
break_continue,html.Screen,4_104_2,2023-09-12T00:45:49.017Z,,0,,,NaN,,,,,,false,,,,710747.7999997139,710747.7999997139,,710747.5999999046,,710554.515,8,400,,,
sequence,flow.Sequence,4_104,2023-09-12T00:45:49.017Z,,0,,,4718.794999713893,completion,,,,,false,,,,710747.7999997139,710747.7999997139,706012.366,706217.1999998093,706029.005,710554.515,8,400,,,
trial,html.Screen,4_105_0,2023-09-12T00:45:53.565Z,,0,3,,4740.884999618516,response,ISIC_0030457.JPG,4,ISIC_9027622.JPG,ISIC_9027622.JPG,false,0,keypress(z),500,715295.5999999046,715295.3999996185,710537.771,710747.8999996185,710554.515,715113.339,8,400,6,,ISIC_0030457.JPG
break,html.Screen,4_105_1,2023-09-12T00:45:53.566Z,,0,,,NaN,,,,,,false,,,,715296.5,715296.0999999046,,715295.6999998093,,715113.339,8,400,,,
break_continue,html.Screen,4_105_2,2023-09-12T00:45:53.566Z,,0,,,NaN,,,,,,false,,,,715296.6999998093,715296.5999999046,,715296.5,,715113.339,8,400,,,
sequence,flow.Sequence,4_105,2023-09-12T00:45:53.566Z,,0,,,4742.084999904619,completion,,,,,false,,,,715296.7999997139,715296.5999999046,710537.771,710747.8999996185,710554.515,715113.339,8,400,,,
trial,html.Screen,4_106_0,2023-09-12T00:45:59.024Z,,0,3,,5640.160999999964,response,ISIC_1233104.JPG,4,ISIC_0031155.JPG,ISIC_0031155.JPG,false,0,keypress(z),500,720753.5999999046,720753.5,715096.666,715296.8999996185,715113.339,720557.317,8,400,7,,ISIC_1233104.JPG
break,html.Screen,4_106_1,2023-09-12T00:45:59.025Z,,0,,,NaN,,,,,,false,,,,720754.0999999046,720754,,720753.7999997139,,720557.317,8,400,,,
break_continue,html.Screen,4_106_2,2023-09-12T00:45:59.025Z,,0,,,NaN,,,,,,false,,,,720754.2999997139,720754.2999997139,,720754.1999998093,,720557.317,8,400,,,
sequence,flow.Sequence,4_106,2023-09-12T00:45:59.025Z,,0,,,5640.960999713861,completion,,,,,false,,,,720754.3999996185,720754.2999997139,715096.666,715296.8999996185,715113.339,720557.317,8,400,,,
trial,html.Screen,4_107_0,2023-09-12T00:46:03.815Z,,0,3,,4987.282999904593,response,ISIC_0029163.JPG,5,ISIC_8087949.JPG,ISIC_0029163.JPG,false,1,keypress(m),500,725544.6999998093,725544.5999999046,720540.678,720754.3999996185,720557.317,725350.057,8,400,8,,ISIC_8087949.JPG
break,html.Screen,4_107_1,2023-09-12T00:46:03.816Z,,0,,,NaN,,,,,,false,,,,725545.2999997139,725545.0999999046,,725544.8999996185,,725350.057,8,400,,,
break_continue,html.Screen,4_107_2,2023-09-12T00:46:03.816Z,,0,,,NaN,,,,,,false,,,,725545.3999996185,725545.3999996185,,725545.2999997139,,725350.057,8,400,,,
sequence,flow.Sequence,4_107,2023-09-12T00:46:03.816Z,,0,,,4988.082999618491,completion,,,,,false,,,,725545.5999999046,725545.3999996185,720540.678,720754.3999996185,720557.317,725350.057,8,400,,,
trial,html.Screen,4_108_0,2023-09-12T00:46:09.871Z,,0,3,,6249.94299999997,response,ISIC_1777398.JPG,4,ISIC_0016114.JPG,ISIC_0016114.JPG,false,0,keypress(z),500,731600.1999998093,731600,725333.246,725545.6999998093,725350.057,731411.717,8,400,9,,ISIC_1777398.JPG
break,html.Screen,4_108_1,2023-09-12T00:46:09.871Z,,0,,,NaN,,,,,,false,,,,731600.7999997139,731600.5999999046,,731600.2999997139,,731411.717,8,400,,,
break_continue,html.Screen,4_108_2,2023-09-12T00:46:09.872Z,,0,,,NaN,,,,,,false,,,,731601,731600.8999996185,,731600.7999997139,,731411.717,8,400,,,
sequence,flow.Sequence,4_108,2023-09-12T00:46:09.872Z,,0,,,6250.8429996185005,completion,,,,,false,,,,731601.0999999046,731600.8999996185,725333.246,725545.6999998093,725350.057,731411.717,8,400,,,
trial,html.Screen,4_109_0,2023-09-12T00:46:15.383Z,,0,3,,5700.382999904687,response,ISIC_0031931.JPG,5,ISIC_0046449.JPG,ISIC_0046449.JPG,false,0,keypress(z),500,737112.5,737112.0999999046,731395.029,731601.0999999046,731411.717,736922.548,8,400,10,,ISIC_0031931.JPG
break,html.Screen,4_109_1,2023-09-12T00:46:15.385Z,,0,,,NaN,,,,,,false,,,,737114.0999999046,737113.5999999046,,737113,,736922.548,8,400,,,
break_continue,html.Screen,4_109_2,2023-09-12T00:46:15.386Z,,0,,,NaN,,,,,,false,,,,737115.0999999046,737114.6999998093,,737114.3999996185,,736922.548,8,400,,,
sequence,flow.Sequence,4_109,2023-09-12T00:46:15.386Z,,0,,,5702.982999809319,completion,,,,,false,,,,737115.5999999046,737114.6999998093,731395.029,731601.0999999046,731411.717,736922.548,8,400,,,
trial,html.Screen,4_110_0,2023-09-12T00:46:20.349Z,,0,3,,5155.952000000048,response,ISIC_3686329.JPG,5,ISIC_0070651.JPG,ISIC_0070651.JPG,false,0,keypress(z),500,742078.5,742078.5,736905.926,737116.0999999046,736922.548,741882.099,8,400,11,,ISIC_3686329.JPG
break,html.Screen,4_110_1,2023-09-12T00:46:20.349Z,,0,,,NaN,,,,,,false,,,,742078.8999996185,742078.8999996185,,742078.6999998093,,741882.099,8,400,,,
break_continue,html.Screen,4_110_2,2023-09-12T00:46:20.350Z,,0,,,NaN,,,,,,false,,,,742079.0999999046,742079,,742079,,741882.099,8,400,,,
sequence,flow.Sequence,4_110,2023-09-12T00:46:20.350Z,,0,,,5156.452000000048,completion,,,,,false,,,,742079.1999998093,742079,736905.926,737115.8999996185,736922.548,741882.099,8,400,,,
trial,html.Screen,4_111_0,2023-09-12T00:46:25.302Z,,0,3,,5148.900999999954,response,ISIC_3305055.JPG,5,ISIC_2772066.JPG,ISIC_3305055.JPG,false,1,keypress(m),500,747031.1999998093,747031,741865.458,742079.2999997139,741882.099,746841.771,8,400,12,,ISIC_2772066.JPG
break,html.Screen,4_111_1,2023-09-12T00:46:25.302Z,,0,,,NaN,,,,,,false,,,,747031.8999996185,747031.6999998093,,747031.3999996185,,746841.771,8,400,,,
break_continue,html.Screen,4_111_2,2023-09-12T00:46:25.303Z,,0,,,NaN,,,,,,false,,,,747032.2999997139,747032.1999998093,,747032,,746841.771,8,400,,,
sequence,flow.Sequence,4_111,2023-09-12T00:46:25.303Z,,0,,,5150.1009998092195,completion,,,,,false,,,,747032.3999996185,747032.1999998093,741865.458,742079.2999997139,741882.099,746841.771,8,400,,,
trial,html.Screen,4_112_0,2023-09-12T00:46:30.264Z,,0,3,,5151.528999713948,response,ISIC_2779787.JPG,5,ISIC_9851899.JPG,ISIC_2779787.JPG,false,1,keypress(m),500,751993.3999996185,751993.2999997139,746825.072,747032.5999999046,746841.771,751801.493,8,400,13,,ISIC_9851899.JPG
break,html.Screen,4_112_1,2023-09-12T00:46:30.264Z,,0,,,NaN,,,,,,false,,,,751993.7999997139,751993.6999998093,,751993.5,,751801.493,8,400,,,
break_continue,html.Screen,4_112_2,2023-09-12T00:46:30.264Z,,0,,,NaN,,,,,,false,,,,751994,751994,,751993.7999997139,,751801.493,8,400,,,
sequence,flow.Sequence,4_112,2023-09-12T00:46:30.265Z,,0,,,5152.22900000005,completion,,,,,false,,,,751994.0999999046,751994,746825.072,747032.5,746841.771,751801.493,8,400,,,
trial,html.Screen,4_113_0,2023-09-12T00:46:35.082Z,,0,3,,5009.706999809248,response,ISIC_0046331.JPG,5,ISIC_7208412.JPG,ISIC_7208412.JPG,false,0,keypress(z),500,756811.2999997139,756811.1999998093,751784.781,751994.0999999046,751801.493,756627.546,8,400,14,,ISIC_0046331.JPG
break,html.Screen,4_113_1,2023-09-12T00:46:35.082Z,,0,,,NaN,,,,,,false,,,,756811.7999997139,756811.6999998093,,756811.5,,756627.546,8,400,,,
break_continue,html.Screen,4_113_2,2023-09-12T00:46:35.083Z,,0,,,NaN,,,,,,false,,,,756812,756812,,756811.8999996185,,756627.546,8,400,,,
sequence,flow.Sequence,4_113,2023-09-12T00:46:35.083Z,,0,,,5010.506999999983,completion,,,,,false,,,,756812,756812,751784.781,751994.0999999046,751801.493,756627.546,8,400,,,
trial,html.Screen,4_114_0,2023-09-12T00:46:39.564Z,,0,3,,4665.853999618557,response,ISIC_0256926.JPG,5,ISIC_1348843.JPG,ISIC_0256926.JPG,false,1,keypress(m),500,761293.5,761293.3999996185,756610.769,756812.1999998093,756627.546,761102.87,8,400,15,,ISIC_1348843.JPG
break,html.Screen,4_114_1,2023-09-12T00:46:39.564Z,,0,,,NaN,,,,,,false,,,,761293.8999996185,761293.7999997139,,761293.5999999046,,761102.87,8,400,,,
break_continue,html.Screen,4_114_2,2023-09-12T00:46:39.565Z,,0,,,NaN,,,,,,false,,,,761294,761294,,761293.8999996185,,761102.87,8,400,,,
sequence,flow.Sequence,4_114,2023-09-12T00:46:39.565Z,,0,,,4666.454000000027,completion,,,,,false,,,,761294.0999999046,761294,756610.769,756812.1999998093,756627.546,761102.87,8,400,,,
trial,html.Screen,4_115_0,2023-09-12T00:46:43.872Z,,0,3,,4497.82999980927,response,ISIC_4014307.JPG,5,ISIC_9226193.JPG,ISIC_9226193.JPG,false,0,keypress(z),500,765601.1999998093,765600.6999998093,761086.297,761294.1999998093,761102.87,765411.201,8,400,16,,ISIC_4014307.JPG
break,html.Screen,4_115_1,2023-09-12T00:46:43.874Z,,0,,,NaN,,,,,,false,,,,765603.2999997139,765602.7999997139,,765601.5,,765411.201,8,400,,,
break_continue,html.Screen,4_115_2,2023-09-12T00:46:43.875Z,,0,,,NaN,,,,,,false,,,,765604.5,765604.0999999046,,765603.6999998093,,765411.201,8,400,,,
sequence,flow.Sequence,4_115,2023-09-12T00:46:43.876Z,,0,,,4501.229999904637,completion,,,,,false,,,,765605.1999998093,765604.0999999046,761086.297,761294.1999998093,761102.87,765411.201,8,400,,,
trial,html.Screen,4_116_0,2023-09-12T00:46:50.438Z,,0,3,,6755.998999809264,response,ISIC_0071869.JPG,6,ISIC_0013096.JPG,ISIC_0071869.JPG,false,1,keypress(m),500,772167.3999996185,772167.1999998093,765394.526,765605.7999997139,765411.201,771973.979,8,400,17,,ISIC_0013096.JPG
break,html.Screen,4_116_1,2023-09-12T00:46:50.438Z,,0,,,NaN,,,,,,false,,,,772167.6999998093,772167.6999998093,,772167.3999996185,,771973.979,8,400,,,
break_continue,html.Screen,4_116_2,2023-09-12T00:46:50.439Z,,0,,,NaN,,,,,,false,,,,772168,772168,,772167.8999996185,,771973.979,8,400,,,
sequence,flow.Sequence,4_116,2023-09-12T00:46:50.439Z,,0,,,6756.798999999999,completion,,,,,false,,,,772168.0999999046,772168,765394.526,765605.5999999046,765411.201,771973.979,8,400,,,
trial,html.Screen,4_117_0,2023-09-12T00:46:55.688Z,,0,3,,5443.120999904582,response,ISIC_5486460.JPG,5,ISIC_9511832.JPG,ISIC_5486460.JPG,false,1,keypress(m),500,777417.2999997139,777417.0999999046,771957.321,772168.0999999046,771973.979,777234.331,8,400,18,,ISIC_9511832.JPG
break,html.Screen,4_117_1,2023-09-12T00:46:55.689Z,,0,,,NaN,,,,,,false,,,,777418,777417.8999996185,,777417.5,,777234.331,8,400,,,
break_continue,html.Screen,4_117_2,2023-09-12T00:46:55.689Z,,0,,,NaN,,,,,,false,,,,777418.2999997139,777418.2999997139,,777418.0999999046,,777234.331,8,400,,,
sequence,flow.Sequence,4_117,2023-09-12T00:46:55.689Z,,0,,,5444.320999713847,completion,,,,,false,,,,777418.3999996185,777418.2999997139,771957.321,772168.0999999046,771973.979,777234.331,8,400,,,
trial,html.Screen,4_118_0,2023-09-12T00:47:00.556Z,,0,3,,5050.36899980926,response,ISIC_0025145.JPG,6,ISIC_0055474.JPG,ISIC_0025145.JPG,false,1,keypress(m),500,782284.8999996185,782284.6999998093,777217.51,777418.5,777234.331,782093.689,8,400,19,,ISIC_0055474.JPG
break,html.Screen,4_118_1,2023-09-12T00:47:00.556Z,,0,,,NaN,,,,,,false,,,,782285.3999996185,782285.2999997139,,782285,,782093.689,8,400,,,
break_continue,html.Screen,4_118_2,2023-09-12T00:47:00.557Z,,0,,,NaN,,,,,,false,,,,782285.7999997139,782285.6999998093,,782285.5,,782093.689,8,400,,,
sequence,flow.Sequence,4_118,2023-09-12T00:47:00.557Z,,0,,,5051.36899980926,completion,,,,,false,,,,782285.8999996185,782285.6999998093,777217.51,777418.5,777234.331,782093.689,8,400,,,
trial,html.Screen,4_119_0,2023-09-12T00:47:05.539Z,,0,3,,5174.610999713885,response,ISIC_0005639.JPG,5,ISIC_0645454.JPG,ISIC_0005639.JPG,false,1,keypress(m),500,787268.5,787268.2999997139,782076.99,782285.8999996185,782093.689,787069.984,8,400,20,,ISIC_0645454.JPG
break,html.Screen,4_119_1,2023-09-12T00:47:05.540Z,,0,,,NaN,,,,,,false,,,,787269,787268.8999996185,,787268.5999999046,,787069.984,8,400,,,
break_continue,html.Screen,4_119_2,2023-09-12T00:47:05.540Z,,0,,,NaN,,,,,,false,,,,787269.1999998093,787269.0999999046,,787269,,787069.984,8,400,,,
sequence,flow.Sequence,4_119,2023-09-12T00:47:05.540Z,,0,,,5175.4109999046195,completion,,,,,false,,,,787269.2999997139,787269.0999999046,782076.99,782285.8999996185,782093.689,787069.984,8,400,,,
trial,html.Screen,4_120_0,2023-09-12T00:47:10.870Z,,0,3,,5528.71599980921,response,ISIC_0025759.JPG,5,ISIC_3965872.JPG,ISIC_0025759.JPG,false,1,keypress(m),500,792598.7999997139,792598.6999998093,787053.336,787269.3999996185,787069.984,792413.779,8,400,21,,ISIC_3965872.JPG
break,html.Screen,4_120_1,2023-09-12T00:47:10.870Z,,0,,,NaN,,,,,,false,,,,792599.3999996185,792599.2999997139,,792598.8999996185,,792413.779,8,400,,,
break_continue,html.Screen,4_120_2,2023-09-12T00:47:10.871Z,,0,,,NaN,,,,,,false,,,,792599.7999997139,792599.7999997139,,792599.5999999046,,792413.779,8,400,,,
sequence,flow.Sequence,4_120,2023-09-12T00:47:10.871Z,,0,,,5529.815999713843,completion,,,,,false,,,,792599.8999996185,792599.7999997139,787053.336,787269.3999996185,787069.984,792413.779,8,400,,,
trial,html.Screen,4_121_0,2023-09-12T00:47:15.803Z,,0,3,,5118.420999809285,response,ISIC_1783062.JPG,5,ISIC_9944671.JPG,ISIC_1783062.JPG,false,1,keypress(m),500,797532.3999996185,797532.1999998093,792397.096,792600,792413.779,797340.101,8,400,22,,ISIC_9944671.JPG
break,html.Screen,4_121_1,2023-09-12T00:47:15.804Z,,0,,,NaN,,,,,,false,,,,797532.8999996185,797532.6999998093,,797532.3999996185,,797340.101,8,400,,,
break_continue,html.Screen,4_121_2,2023-09-12T00:47:15.804Z,,0,,,NaN,,,,,,false,,,,797533.0999999046,797533,,797533,,797340.101,8,400,,,
sequence,flow.Sequence,4_121,2023-09-12T00:47:15.804Z,,0,,,5119.22100000002,completion,,,,,false,,,,797533.0999999046,797533,792397.096,792600,792413.779,797340.101,8,400,,,
trial,html.Screen,4_122_0,2023-09-12T00:47:20.161Z,,0,3,,4549.6989997138735,response,ISIC_5361404.JPG,5,ISIC_2458609.JPG,ISIC_2458609.JPG,false,0,keypress(z),500,801890,801889.7999997139,797323.318,797533.1999998093,797340.101,801698.494,8,400,23,,ISIC_5361404.JPG
break,html.Screen,4_122_1,2023-09-12T00:47:20.161Z,,0,,,NaN,,,,,,false,,,,801890.5999999046,801890.3999996185,,801890.0999999046,,801698.494,8,400,,,
break_continue,html.Screen,4_122_2,2023-09-12T00:47:20.162Z,,0,,,NaN,,,,,,false,,,,801890.8999996185,801890.7999997139,,801890.5999999046,,801698.494,8,400,,,
sequence,flow.Sequence,4_122,2023-09-12T00:47:20.162Z,,0,,,4550.6989997138735,completion,,,,,false,,,,801890.8999996185,801890.7999997139,797323.318,797533.1999998093,797340.101,801698.494,8,400,,,
trial,html.Screen,4_123_0,2023-09-12T00:47:25.011Z,,0,3,,5042.105999904685,response,ISIC_3267196.JPG,5,ISIC_0010942.JPG,ISIC_0010942.JPG,false,0,keypress(z),500,806740.6999998093,806740.5999999046,801681.845,801891,801698.494,806558.128,8,400,24,,ISIC_3267196.JPG
break,html.Screen,4_123_1,2023-09-12T00:47:25.012Z,,0,,,NaN,,,,,,false,,,,806741.1999998093,806741.0999999046,,806740.7999997139,,806558.128,8,400,,,
break_continue,html.Screen,4_123_2,2023-09-12T00:47:25.012Z,,0,,,NaN,,,,,,false,,,,806741.5,806741.5,,806741.3999996185,,806558.128,8,400,,,
sequence,flow.Sequence,4_123,2023-09-12T00:47:25.012Z,,0,,,5043.006000000052,completion,,,,,false,,,,806741.5999999046,806741.5,801681.845,801891,801698.494,806558.128,8,400,,,
trial,html.Screen,4_124_0,2023-09-12T00:47:29.974Z,,0,3,,5144.9719999046065,response,ISIC_8671662.JPG,5,ISIC_0822238.JPG,ISIC_8671662.JPG,false,1,keypress(m),500,811703.2999997139,811703.0999999046,806541.345,806741.5999999046,806558.128,811534.295,8,400,25,,ISIC_0822238.JPG
break,html.Screen,4_124_1,2023-09-12T00:47:29.975Z,,0,,,NaN,,,,,,false,,,,811703.7999997139,811703.5999999046,,811703.3999996185,,811534.295,8,400,,,
break_continue,html.Screen,4_124_2,2023-09-12T00:47:29.975Z,,0,,,NaN,,,,,,false,,,,811704.0999999046,811703.8999996185,,811703.8999996185,,811534.295,8,400,,,
sequence,flow.Sequence,4_124,2023-09-12T00:47:29.975Z,,0,,,5145.771999618504,completion,,,,,false,,,,811704.1999998093,811703.8999996185,806541.345,806741.5999999046,806558.128,811534.295,8,400,,,
trial,html.Screen,4_125_0,2023-09-12T00:47:34.712Z,,0,3,,4907.004999713856,response,ISIC_5848892.JPG,6,ISIC_8109460.JPG,ISIC_5848892.JPG,false,1,keypress(m),500,816441.5,816441.2999997139,811517.623,811704.2999997139,811534.295,816260.284,8,400,26,,ISIC_8109460.JPG
break,html.Screen,4_125_1,2023-09-12T00:47:34.713Z,,0,,,NaN,,,,,,false,,,,816442.5,816442.1999998093,,816441.6999998093,,816260.284,8,400,,,
break_continue,html.Screen,4_125_2,2023-09-12T00:47:34.714Z,,0,,,NaN,,,,,,false,,,,816442.7999997139,816442.6999998093,,816442.5999999046,,816260.284,8,400,,,
sequence,flow.Sequence,4_125,2023-09-12T00:47:34.714Z,,0,,,4908.404999809223,completion,,,,,false,,,,816443.2999997139,816442.6999998093,811517.623,811704.2999997139,811534.295,816260.284,8,400,,,
