sender,sender_type,sender_id,timestamp,meta,,blockNo,condition,duration,ended_on,img_left,img_reveal,img_right,loser,practice,response,response_action,selection_duration,time_commit,time_end,time_render,time_run,time_show,time_switch,total_blocks,total_trials,trialNo,url,winner
informed_consent,html.Screen,0,2023-09-08T17:45:19.746Z,"{""labjs_version"":""20.2.4"",""labjs_build"":{""flavor"":""development"",""commit"":""f5b4a49f956347addd546a832a3327688c2c0fef""},""location"":""https://labjs.felixhenninger.com/api/labjs_preview/index.html"",""userAgent"":""Mozilla/5.0 (Windows NT 10.0; Win64; x64) AppleWebKit/537.36 (KHTML, like Gecko) Chrome/116.0.0.0 Safari/537.36"",""platform"":""Win32"",""language"":""en-AU"",""locale"":""en-US"",""timeZone"":""America/Chicago"",""timezoneOffset"":300,""screen_width"":1680,""screen_height"":1050,""scroll_width"":1296,""scroll_height"":688,""window_innerWidth"":1296,""window_innerHeight"":736,""devicePixelRatio"":1}",,,,27736.986000047684,response,,,,,,consent,click button,,28303.5,28302.700000047684,549.044,627,565.714,28253.072,,,,{},
Welcome,html.Screen,1,2023-09-08T17:47:45.651Z,,,,symmetry,145953.6280000477,response,,,,,,continue,click button,,174207.29999995232,174206.70000004768,28236.224,28303.799999952316,28253.072,174170.466,,,,,
trial,html.Screen,2_0_0,2023-09-08T17:47:57.172Z,,0,0,,11522.219000000012,timeout,ISIC_6997061.JPG,,ISIC_0069348.JPG,,true,,,500,185728,185727.59999990463,174153.508,174207.59999990463,174170.466,185692.685,1,6,1,,
sequence,flow.Sequence,2_0,2023-09-08T17:47:57.172Z,,0,,,11557.133999904647,completion,,,,,true,,,,185728.29999995232,185727.59999990463,174153.508,174207.5,174170.466,185692.685,1,6,,,
trial,html.Screen,2_1_0,2023-09-08T17:48:08.694Z,,0,0,,11522.350999999995,timeout,ISIC_0009529.JPG,,ISIC_0057368.JPG,,true,,,500,197250.29999995232,197250.09999990463,185675.898,185728.39999985695,185692.685,197215.036,1,6,2,,
sequence,flow.Sequence,2_1,2023-09-08T17:48:08.694Z,,0,,,11557.414999904635,completion,,,,,true,,,,197250.5,197250.09999990463,185675.898,185728.29999995232,185692.685,197215.036,1,6,,,
trial,html.Screen,2_2_0,2023-09-08T17:48:13.435Z,,0,0,,4776.164000047691,response,ISIC_9758671.JPG,,ISIC_0064954.JPG,ISIC_9758671.JPG,true,1,keypress(m),500,201991.29999995232,201991.20000004768,197198.363,197250.59999990463,197215.036,201940.976,1,6,3,,ISIC_0064954.JPG
sequence,flow.Sequence,2_2,2023-09-08T17:48:13.436Z,,0,,,4776.164000047691,completion,,,,,true,,,,201991.59999990463,201991.20000004768,197198.363,197250.59999990463,197215.036,201940.976,1,6,,,
trial,html.Screen,2_3_0,2023-09-08T17:48:24.942Z,,0,0,,11522.399000000005,timeout,ISIC_0000080.JPG,,ISIC_0005785.JPG,,true,,,500,213498,213497.79999995232,201924.273,201991.79999995232,201940.976,213463.375,1,6,4,,
sequence,flow.Sequence,2_3,2023-09-08T17:48:24.942Z,,0,,,11556.823999952321,completion,,,,,true,,,,213498.20000004768,213497.79999995232,201924.273,201991.70000004768,201940.976,213463.375,1,6,,,
trial,html.Screen,2_4_0,2023-09-08T17:48:36.465Z,,0,0,,11522.361000000004,timeout,ISIC_7944028.JPG,,ISIC_5390060.JPG,,true,,,500,225021.29999995232,225020.79999995232,213446.745,213498.29999995232,213463.375,224985.736,1,6,5,,
sequence,flow.Sequence,2_4,2023-09-08T17:48:36.466Z,,0,,,11557.424999952316,completion,,,,,true,,,,225021.79999995232,225020.79999995232,213446.745,213498.29999995232,213463.375,224985.736,1,6,,,
trial,html.Screen,2_5_0,2023-09-08T17:48:47.988Z,,0,0,,11522.592000000004,timeout,ISIC_0794216.JPG,,ISIC_0010188.JPG,,true,,,500,236542.89999985695,236542.79999995232,224969.132,225022,224985.736,236508.328,1,6,6,,
sequence,flow.Sequence,2_5,2023-09-08T17:48:47.989Z,,0,,,11557.063999952312,completion,,,,,true,,,,236543.29999995232,236542.79999995232,224969.132,225021.89999985695,224985.736,236508.328,1,6,,,
loop,flow.Loop,2,2023-09-08T17:48:47.989Z,,,,,62372.33399995233,completion,,,,,true,,,,236543.5,236542.79999995232,174153.508,174207.5,174170.466,236508.328,1,6,,,
exp_instructions,html.Screen,3,2023-09-08T17:49:46.027Z,,,,,58072.97199995231,response,,,,,,continue,keypress(Space),,294581.7999999523,294581.2999999523,236491.64,236543.59999990463,236508.328,294521.095,,,,,
trial,html.Screen,4_0_0,2023-09-08T17:49:50.911Z,,0,1,,4944.905000000028,response,ISIC_4654443.JPG,5,ISIC_3401631.JPG,ISIC_3401631.JPG,false,0,keypress(z),500,299466.2000000477,299466,294504.558,294582,294521.095,299413.877,8,400,1,,ISIC_4654443.JPG
break,html.Screen,4_0_1,2023-09-08T17:49:50.912Z,,0,,,NaN,,,,,,false,,,,299466.59999990463,299466.5,,299466.2999999523,,299413.877,8,400,,,
break_continue,html.Screen,4_0_2,2023-09-08T17:49:50.912Z,,0,,,NaN,,,,,,false,,,,299466.89999985695,299466.7999999523,,299466.7000000477,,299413.877,8,400,,,
sequence,flow.Sequence,4_0,2023-09-08T17:49:50.912Z,,0,,,4945.704999952344,completion,,,,,false,,,,299466.89999985695,299466.7999999523,294504.558,294582,294521.095,299413.877,8,400,,,
trial,html.Screen,4_1_0,2023-09-08T17:49:58.871Z,,0,1,,8011.323000047705,response,ISIC_0000725.JPG,4,ISIC_0062869.JPG,ISIC_0062869.JPG,false,0,keypress(z),500,307425.2999999523,307425.2000000477,299397.2,299467,299413.877,307362.751,8,400,2,,ISIC_0000725.JPG
break,html.Screen,4_1_1,2023-09-08T17:49:58.871Z,,0,,,NaN,,,,,,false,,,,307425.7999999523,307425.7000000477,,307425.5,,307362.751,8,400,,,
break_continue,html.Screen,4_1_2,2023-09-08T17:49:58.871Z,,0,,,NaN,,,,,,false,,,,307426.2000000477,307426,,307426,,307362.751,8,400,,,
sequence,flow.Sequence,4_1,2023-09-08T17:49:58.871Z,,0,,,8012.123000000021,completion,,,,,false,,,,307426.2999999523,307426,299397.2,299467,299413.877,307362.751,8,400,,,
trial,html.Screen,4_2_0,2023-09-08T17:50:07.086Z,,0,1,,8277.949000047694,response,ISIC_1441260.JPG,4,ISIC_0064925.JPG,ISIC_0064925.JPG,false,0,keypress(z),500,315641,315640.7000000477,307346.122,307426.39999985695,307362.751,315578.818,8,400,3,,ISIC_1441260.JPG
break,html.Screen,4_2_1,2023-09-08T17:50:07.087Z,,0,,,NaN,,,,,,false,,,,315642.2000000477,315641.89999985695,,315641.5,,315578.818,8,400,,,
break_continue,html.Screen,4_2_2,2023-09-08T17:50:07.088Z,,0,,,NaN,,,,,,false,,,,315643,315642.7999999523,,315642.59999990463,,315578.818,8,400,,,
sequence,flow.Sequence,4_2,2023-09-08T17:50:07.089Z,,0,,,8280.048999952327,completion,,,,,false,,,,315643.2999999523,315642.7999999523,307346.122,307426.39999985695,307362.751,315578.818,8,400,,,
trial,html.Screen,4_3_0,2023-09-08T17:50:15.924Z,,0,1,,8899.681999999972,response,ISIC_7025208.JPG,5,ISIC_0014469.JPG,ISIC_7025208.JPG,false,1,keypress(m),500,324478.59999990463,324478.5,315562.017,315643.89999985695,315578.818,324412.588,8,400,4,,ISIC_0014469.JPG
break,html.Screen,4_3_1,2023-09-08T17:50:15.924Z,,0,,,NaN,,,,,,false,,,,324478.89999985695,324478.7999999523,,324478.7000000477,,324412.588,8,400,,,
break_continue,html.Screen,4_3_2,2023-09-08T17:50:15.924Z,,0,,,NaN,,,,,,false,,,,324479.2000000477,324479.2000000477,,324479,,324412.588,8,400,,,
sequence,flow.Sequence,4_3,2023-09-08T17:50:15.925Z,,0,,,8900.382000047655,completion,,,,,false,,,,324479.39999985695,324479.2000000477,315562.017,315643.7000000477,315578.818,324412.588,8,400,,,
trial,html.Screen,4_4_0,2023-09-08T17:50:25.069Z,,0,1,,9211.112000047695,response,ISIC_0068627.JPG,5,ISIC_0000283.JPG,ISIC_0068627.JPG,false,1,keypress(m),500,333623.89999985695,333623.7000000477,324395.903,324479.39999985695,324412.588,333563.74,8,400,5,,ISIC_0000283.JPG
break,html.Screen,4_4_1,2023-09-08T17:50:25.069Z,,0,,,NaN,,,,,,false,,,,333624.2000000477,333624.2000000477,,333624,,333563.74,8,400,,,
break_continue,html.Screen,4_4_2,2023-09-08T17:50:25.070Z,,0,,,NaN,,,,,,false,,,,333624.5,333624.39999985695,,333624.2999999523,,333563.74,8,400,,,
sequence,flow.Sequence,4_4,2023-09-08T17:50:25.070Z,,0,,,9211.81199985696,completion,,,,,false,,,,333624.7000000477,333624.39999985695,324395.903,324479.39999985695,324412.588,333563.74,8,400,,,
trial,html.Screen,4_5_0,2023-09-08T17:50:33.364Z,,0,1,,8355.359999904642,response,ISIC_4956965.JPG,5,ISIC_3296136.JPG,ISIC_4956965.JPG,false,1,keypress(m),500,341919.2000000477,341919.09999990463,333547.034,333624.7999999523,333563.74,341863.211,8,400,6,,ISIC_3296136.JPG
break,html.Screen,4_5_1,2023-09-08T17:50:33.365Z,,0,,,NaN,,,,,,false,,,,341919.7000000477,341919.5,,341919.39999985695,,341863.211,8,400,,,
break_continue,html.Screen,4_5_2,2023-09-08T17:50:33.365Z,,0,,,NaN,,,,,,false,,,,341919.89999985695,341919.7999999523,,341919.7000000477,,341863.211,8,400,,,
sequence,flow.Sequence,4_5,2023-09-08T17:50:33.365Z,,0,,,8356.059999952326,completion,,,,,false,,,,341919.89999985695,341919.7999999523,333547.034,333624.7000000477,333563.74,341863.211,8,400,,,
trial,html.Screen,4_6_0,2023-09-08T17:50:43.806Z,,0,1,,10495.489000047673,response,ISIC_6790780.JPG,4,ISIC_0010350.JPG,ISIC_0010350.JPG,false,0,keypress(z),500,352358.89999985695,352358.7000000477,341846.548,341920.09999990463,341863.211,352300.209,8,400,7,,ISIC_6790780.JPG
break,html.Screen,4_6_1,2023-09-08T17:50:43.806Z,,0,,,NaN,,,,,,false,,,,352359.2999999523,352359.2999999523,,352359,,352300.209,8,400,,,
break_continue,html.Screen,4_6_2,2023-09-08T17:50:43.806Z,,0,,,NaN,,,,,,false,,,,352359.5,352359.39999985695,,352359.39999985695,,352300.209,8,400,,,
sequence,flow.Sequence,4_6,2023-09-08T17:50:43.806Z,,0,,,10496.188999856939,completion,,,,,false,,,,352359.7000000477,352359.39999985695,341846.548,341920,341863.211,352300.209,8,400,,,
trial,html.Screen,4_7_0,2023-09-08T17:50:50.960Z,,0,1,,7213.390999904659,response,ISIC_0030663.JPG,4,ISIC_0008774.JPG,ISIC_0030663.JPG,false,1,keypress(m),500,359513.7000000477,359513.59999990463,352283.442,352359.7999999523,352300.209,359447.438,8,400,8,,ISIC_0008774.JPG
break,html.Screen,4_7_1,2023-09-08T17:50:50.961Z,,0,,,NaN,,,,,,false,,,,359514.09999990463,359514,,359513.7999999523,,359447.438,8,400,,,
break_continue,html.Screen,4_7_2,2023-09-08T17:50:50.961Z,,0,,,NaN,,,,,,false,,,,359514.39999985695,359514.2999999523,,359514.2999999523,,359447.438,8,400,,,
sequence,flow.Sequence,4_7,2023-09-08T17:50:50.961Z,,0,,,7214.090999952343,completion,,,,,false,,,,359514.39999985695,359514.2999999523,352283.442,352359.7000000477,352300.209,359447.438,8,400,,,
trial,html.Screen,4_8_0,2023-09-08T17:51:02.452Z,,0,1,,11522.40399999998,timeout,ISIC_0072174.JPG,4,ISIC_4363398.JPG,ISIC_0072174.JPG,false,,,500,371005,371004.7999999523,359430.883,359514.5,359447.438,370969.842,8,400,9,,ISIC_4363398.JPG
break,html.Screen,4_8_1,2023-09-08T17:51:02.452Z,,0,,,NaN,,,,,,false,,,,371005.39999985695,371005.2999999523,,371005,,370969.842,8,400,,,
break_continue,html.Screen,4_8_2,2023-09-08T17:51:02.452Z,,0,,,NaN,,,,,,false,,,,371005.59999990463,371005.5,,371005.39999985695,,370969.842,8,400,,,
sequence,flow.Sequence,4_8,2023-09-08T17:51:02.452Z,,0,,,11558.061999999976,completion,,,,,false,,,,371005.7000000477,371005.5,359430.883,359514.5,359447.438,370969.842,8,400,,,
trial,html.Screen,4_9_0,2023-09-08T17:51:10.766Z,,0,1,,8349.757999904628,response,ISIC_0032922.JPG,5,ISIC_8211214.JPG,ISIC_0032922.JPG,false,1,keypress(m),500,379319.7999999523,379319.59999990463,370953.205,371005.7000000477,370969.842,379286.028,8,400,10,,ISIC_8211214.JPG
break,html.Screen,4_9_1,2023-09-08T17:51:10.767Z,,0,,,NaN,,,,,,false,,,,379320.2000000477,379320,,379319.89999985695,,379286.028,8,400,,,
break_continue,html.Screen,4_9_2,2023-09-08T17:51:10.767Z,,0,,,NaN,,,,,,false,,,,379320.7999999523,379320.7000000477,,379320.7000000477,,379286.028,8,400,,,
sequence,flow.Sequence,4_9,2023-09-08T17:51:10.767Z,,0,,,8350.85800004768,completion,,,,,false,,,,379320.89999985695,379320.7000000477,370953.205,371005.7000000477,370969.842,379286.028,8,400,,,
trial,html.Screen,4_10_0,2023-09-08T17:51:21.601Z,,0,1,,10868.472000000009,response,ISIC_0011370.JPG,5,ISIC_7575246.JPG,ISIC_0011370.JPG,false,1,keypress(m),500,390154.7000000477,390154.5,379269.361,379320.89999985695,379286.028,390107.091,8,400,11,,ISIC_7575246.JPG
break,html.Screen,4_10_1,2023-09-08T17:51:21.602Z,,0,,,NaN,,,,,,false,,,,390155,390154.89999985695,,390154.7999999523,,390107.091,8,400,,,
break_continue,html.Screen,4_10_2,2023-09-08T17:51:21.602Z,,0,,,NaN,,,,,,false,,,,390155.09999990463,390155.09999990463,,390155,,390107.091,8,400,,,
sequence,flow.Sequence,4_10,2023-09-08T17:51:21.602Z,,0,,,10869.071999904641,completion,,,,,false,,,,390155.09999990463,390155.09999990463,379269.361,379320.89999985695,379286.028,390107.091,8,400,,,
trial,html.Screen,4_11_0,2023-09-08T17:51:29.203Z,,0,1,,7649.109000047669,response,ISIC_1294049.JPG,6,ISIC_8671662.JPG,ISIC_1294049.JPG,false,1,keypress(m),500,397756.2999999523,397756.2000000477,390090.476,390155.2000000477,390107.091,397705.218,8,400,12,,ISIC_8671662.JPG
break,html.Screen,4_11_1,2023-09-08T17:51:29.203Z,,0,,,NaN,,,,,,false,,,,397756.89999985695,397756.7000000477,,397756.59999990463,,397705.218,8,400,,,
break_continue,html.Screen,4_11_2,2023-09-08T17:51:29.204Z,,0,,,NaN,,,,,,false,,,,397757.09999990463,397757,,397757,,397705.218,8,400,,,
sequence,flow.Sequence,4_11,2023-09-08T17:51:29.204Z,,0,,,7649.908999999985,completion,,,,,false,,,,397757.2999999523,397757,390090.476,390155.2000000477,390107.091,397705.218,8,400,,,
trial,html.Screen,4_12_0,2023-09-08T17:51:36.629Z,,0,1,,7476.98200004769,response,ISIC_6595186.JPG,6,ISIC_7129901.JPG,ISIC_6595186.JPG,false,1,keypress(m),500,405182.2999999523,405182.2000000477,397688.54,397757.2999999523,397705.218,405119.75,8,400,13,,ISIC_7129901.JPG
break,html.Screen,4_12_1,2023-09-08T17:51:36.629Z,,0,,,NaN,,,,,,false,,,,405182.7000000477,405182.59999990463,,405182.5,,405119.75,8,400,,,
break_continue,html.Screen,4_12_2,2023-09-08T17:51:36.629Z,,0,,,NaN,,,,,,false,,,,405182.7999999523,405182.7000000477,,405182.7000000477,,405119.75,8,400,,,
sequence,flow.Sequence,4_12,2023-09-08T17:51:36.629Z,,0,,,7477.48200004769,completion,,,,,false,,,,405182.89999985695,405182.7000000477,397688.54,397757.2999999523,397705.218,405119.75,8,400,,,
trial,html.Screen,4_13_0,2023-09-08T17:51:43.592Z,,0,1,,7024.649999856949,response,ISIC_1885174.JPG,5,ISIC_7080584.JPG,ISIC_1885174.JPG,false,1,keypress(m),500,412144.7000000477,412144.39999985695,405103.074,405182.89999985695,405119.75,412083.24,8,400,14,,ISIC_7080584.JPG
break,html.Screen,4_13_1,2023-09-08T17:51:43.592Z,,0,,,NaN,,,,,,false,,,,412145.39999985695,412145.2000000477,,412144.7999999523,,412083.24,8,400,,,
break_continue,html.Screen,4_13_2,2023-09-08T17:51:43.593Z,,0,,,NaN,,,,,,false,,,,412145.7000000477,412145.59999990463,,412145.5,,412083.24,8,400,,,
sequence,flow.Sequence,4_13,2023-09-08T17:51:43.593Z,,0,,,7025.849999904633,completion,,,,,false,,,,412145.7999999523,412145.59999990463,405103.074,405182.89999985695,405119.75,412083.24,8,400,,,
trial,html.Screen,4_14_0,2023-09-08T17:51:52.062Z,,0,1,,8531.059999952326,response,ISIC_0032232.JPG,4,ISIC_7137773.JPG,ISIC_0032232.JPG,false,1,keypress(m),500,420614.5,420614.2999999523,412066.483,412145.89999985695,412083.24,420549.711,8,400,15,,ISIC_7137773.JPG
break,html.Screen,4_14_1,2023-09-08T17:51:52.062Z,,0,,,NaN,,,,,,false,,,,420615.2000000477,420615,,420614.7000000477,,420549.711,8,400,,,
break_continue,html.Screen,4_14_2,2023-09-08T17:51:52.063Z,,0,,,NaN,,,,,,false,,,,420615.5,420615.39999985695,,420615.2999999523,,420549.711,8,400,,,
sequence,flow.Sequence,4_14,2023-09-08T17:51:52.063Z,,0,,,8532.159999856958,completion,,,,,false,,,,420615.59999990463,420615.39999985695,412066.483,412145.7999999523,412083.24,420549.711,8,400,,,
trial,html.Screen,4_15_0,2023-09-08T17:52:01.152Z,,0,1,,9155.28899999999,response,ISIC_5067317.JPG,5,ISIC_0014657.JPG,ISIC_5067317.JPG,false,1,keypress(m),500,429705.09999990463,429705,420533.033,420615.7999999523,420549.711,429650.824,8,400,16,,ISIC_0014657.JPG
break,html.Screen,4_15_1,2023-09-08T17:52:01.152Z,,0,,,NaN,,,,,,false,,,,429705.39999985695,429705.39999985695,,429705.2999999523,,429650.824,8,400,,,
break_continue,html.Screen,4_15_2,2023-09-08T17:52:01.153Z,,0,,,NaN,,,,,,false,,,,429705.59999990463,429705.5,,429705.5,,429650.824,8,400,,,
sequence,flow.Sequence,4_15,2023-09-08T17:52:01.153Z,,0,,,9155.78899999999,completion,,,,,false,,,,429705.7000000477,429705.5,420533.033,420615.7999999523,420549.711,429650.824,8,400,,,
trial,html.Screen,4_16_0,2023-09-08T17:52:10.786Z,,0,1,,9687.876000047661,response,ISIC_0071594.JPG,5,ISIC_0372902.JPG,ISIC_0372902.JPG,false,0,keypress(z),500,439338.7999999523,439338.7000000477,429634.074,429705.7000000477,429650.824,439286.175,8,400,17,,ISIC_0071594.JPG
break,html.Screen,4_16_1,2023-09-08T17:52:10.786Z,,0,,,NaN,,,,,,false,,,,439339.2000000477,439339.2000000477,,439339,,439286.175,8,400,,,
break_continue,html.Screen,4_16_2,2023-09-08T17:52:10.787Z,,0,,,NaN,,,,,,false,,,,439339.59999990463,439339.5,,439339.2999999523,,439286.175,8,400,,,
sequence,flow.Sequence,4_16,2023-09-08T17:52:10.787Z,,0,,,9688.675999999978,completion,,,,,false,,,,439339.7999999523,439339.5,429634.074,429705.7000000477,429650.824,439286.175,8,400,,,
trial,html.Screen,4_17_0,2023-09-08T17:52:19.133Z,,0,1,,8399.825000000012,response,ISIC_0001745.JPG,5,ISIC_2874218.JPG,ISIC_2874218.JPG,false,0,keypress(z),500,447686.2000000477,447686,439269.39,439339.89999985695,439286.175,447618.974,8,400,18,,ISIC_0001745.JPG
break,html.Screen,4_17_1,2023-09-08T17:52:19.134Z,,0,,,NaN,,,,,,false,,,,447686.5,447686.5,,447686.2999999523,,447618.974,8,400,,,
break_continue,html.Screen,4_17_2,2023-09-08T17:52:19.134Z,,0,,,NaN,,,,,,false,,,,447686.59999990463,447686.59999990463,,447686.59999990463,,447618.974,8,400,,,
sequence,flow.Sequence,4_17,2023-09-08T17:52:19.134Z,,0,,,8400.424999904644,completion,,,,,false,,,,447686.7000000477,447686.59999990463,439269.39,439339.89999985695,439286.175,447618.974,8,400,,,
trial,html.Screen,4_18_0,2023-09-08T17:52:26.816Z,,0,1,,7749.526000000013,response,ISIC_0030824.JPG,5,ISIC_0059632.JPG,ISIC_0059632.JPG,false,0,keypress(z),500,455368.59999990463,455368.5,447602.36,447686.7999999523,447618.974,455317.51,8,400,19,,ISIC_0030824.JPG
break,html.Screen,4_18_1,2023-09-08T17:52:26.816Z,,0,,,NaN,,,,,,false,,,,455369.39999985695,455369.2000000477,,455368.89999985695,,455317.51,8,400,,,
break_continue,html.Screen,4_18_2,2023-09-08T17:52:26.817Z,,0,,,NaN,,,,,,false,,,,455369.7000000477,455369.59999990463,,455369.5,,455317.51,8,400,,,
sequence,flow.Sequence,4_18,2023-09-08T17:52:26.817Z,,0,,,7750.625999904645,completion,,,,,false,,,,455369.7000000477,455369.59999990463,447602.36,447686.7999999523,447618.974,455317.51,8,400,,,
trial,html.Screen,4_19_0,2023-09-08T17:52:35.555Z,,0,1,,8790.190000047674,response,ISIC_9615486.JPG,4,ISIC_0031303.JPG,ISIC_0031303.JPG,false,0,keypress(z),500,464107.89999985695,464107.7000000477,455300.654,455369.7999999523,455317.51,464051.191,8,400,20,,ISIC_9615486.JPG
break,html.Screen,4_19_1,2023-09-08T17:52:35.555Z,,0,,,NaN,,,,,,false,,,,464108.39999985695,464108.2999999523,,464108.09999990463,,464051.191,8,400,,,
break_continue,html.Screen,4_19_2,2023-09-08T17:52:35.556Z,,0,,,NaN,,,,,,false,,,,464108.59999990463,464108.5,,464108.5,,464051.191,8,400,,,
sequence,flow.Sequence,4_19,2023-09-08T17:52:35.556Z,,0,,,8790.98999999999,completion,,,,,false,,,,464108.7000000477,464108.5,455300.654,455369.7999999523,455317.51,464051.191,8,400,,,
trial,html.Screen,4_20_0,2023-09-08T17:52:43.878Z,,0,1,,8378.908999904641,response,ISIC_5297660.JPG,5,ISIC_0027126.JPG,ISIC_0027126.JPG,false,0,keypress(z),500,472430.2000000477,472430.09999990463,464034.258,464108.7999999523,464051.191,472367.145,8,400,21,,ISIC_5297660.JPG
break,html.Screen,4_20_1,2023-09-08T17:52:43.878Z,,0,,,NaN,,,,,,false,,,,472430.59999990463,472430.5,,472430.39999985695,,472367.145,8,400,,,
break_continue,html.Screen,4_20_2,2023-09-08T17:52:43.879Z,,0,,,NaN,,,,,,false,,,,472430.89999985695,472430.7000000477,,472430.7000000477,,472367.145,8,400,,,
sequence,flow.Sequence,4_20,2023-09-08T17:52:43.879Z,,0,,,8379.509000047692,completion,,,,,false,,,,472430.89999985695,472430.7000000477,464034.258,464108.7999999523,464051.191,472367.145,8,400,,,
trial,html.Screen,4_21_0,2023-09-08T17:52:54.088Z,,0,1,,10273.25499985693,response,ISIC_0004679.JPG,5,ISIC_1939413.JPG,ISIC_1939413.JPG,false,0,keypress(z),500,482640.59999990463,482640.39999985695,472350.461,472431.09999990463,472367.145,482603.707,8,400,22,,ISIC_0004679.JPG
break,html.Screen,4_21_1,2023-09-08T17:52:54.089Z,,0,,,NaN,,,,,,false,,,,482641.5,482641.2999999523,,482640.89999985695,,482603.707,8,400,,,
break_continue,html.Screen,4_21_2,2023-09-08T17:52:54.090Z,,0,,,NaN,,,,,,false,,,,482642.2999999523,482642,,482641.7000000477,,482603.707,8,400,,,
sequence,flow.Sequence,4_21,2023-09-08T17:52:54.090Z,,0,,,10274.854999999981,completion,,,,,false,,,,482642.39999985695,482642,472350.461,472431,472367.145,482603.707,8,400,,,
trial,html.Screen,4_22_0,2023-09-08T17:53:01.057Z,,0,1,,7005.392999904638,response,ISIC_0025783.JPG,5,ISIC_7141153.JPG,ISIC_0025783.JPG,false,1,keypress(m),500,489609.2999999523,489609.09999990463,482587.07,482642.5,482603.707,489550.799,8,400,23,,ISIC_7141153.JPG
break,html.Screen,4_22_1,2023-09-08T17:53:01.058Z,,0,,,NaN,,,,,,false,,,,489609.89999985695,489609.7000000477,,489609.39999985695,,489550.799,8,400,,,
break_continue,html.Screen,4_22_2,2023-09-08T17:53:01.058Z,,0,,,NaN,,,,,,false,,,,489610.2000000477,489610.09999990463,,489610,,489550.799,8,400,,,
sequence,flow.Sequence,4_22,2023-09-08T17:53:01.058Z,,0,,,7006.392999904638,completion,,,,,false,,,,489610.2999999523,489610.09999990463,482587.07,482642.5,482603.707,489550.799,8,400,,,
trial,html.Screen,4_23_0,2023-09-08T17:53:09.605Z,,0,1,,8606.300999904633,response,ISIC_2183722.JPG,5,ISIC_0710431.JPG,ISIC_2183722.JPG,false,1,keypress(m),500,498157.39999985695,498157.09999990463,489533.966,489610.5,489550.799,498100.607,8,400,24,,ISIC_0710431.JPG
break,html.Screen,4_23_1,2023-09-08T17:53:09.606Z,,0,,,NaN,,,,,,false,,,,498158.5,498158.2000000477,,498157.7999999523,,498100.607,8,400,,,
break_continue,html.Screen,4_23_2,2023-09-08T17:53:09.607Z,,0,,,NaN,,,,,,false,,,,498159,498158.7999999523,,498158.59999990463,,498100.607,8,400,,,
sequence,flow.Sequence,4_23,2023-09-08T17:53:09.607Z,,0,,,8608.000999952317,completion,,,,,false,,,,498159.39999985695,498158.7999999523,489533.966,489610.5,489550.799,498100.607,8,400,,,
trial,html.Screen,4_24_0,2023-09-08T17:53:19.402Z,,0,1,,9853.892999999982,response,ISIC_0056723.JPG,5,ISIC_0000462.JPG,ISIC_0056723.JPG,false,1,keypress(m),500,507954.7999999523,507954.5,498083.844,498159.59999990463,498100.607,507919.653,8,400,25,,ISIC_0000462.JPG
break,html.Screen,4_24_1,2023-09-08T17:53:19.403Z,,0,,,NaN,,,,,,false,,,,507955.39999985695,507955.2000000477,,507954.89999985695,,507919.653,8,400,,,
break_continue,html.Screen,4_24_2,2023-09-08T17:53:19.403Z,,0,,,NaN,,,,,,false,,,,507955.7999999523,507955.7000000477,,507955.59999990463,,507919.653,8,400,,,
sequence,flow.Sequence,4_24,2023-09-08T17:53:19.404Z,,0,,,9855.093000047666,completion,,,,,false,,,,507955.89999985695,507955.7000000477,498083.844,498159.5,498100.607,507919.653,8,400,,,
trial,html.Screen,4_25_0,2023-09-08T17:53:28.738Z,,0,1,,9370.446999904641,response,ISIC_5353986.JPG,6,ISIC_0046405.JPG,ISIC_5353986.JPG,false,1,keypress(m),500,517290.2999999523,517290.09999990463,507902.937,507956,507919.653,517237.841,8,400,26,,ISIC_0046405.JPG
break,html.Screen,4_25_1,2023-09-08T17:53:28.739Z,,0,,,NaN,,,,,,false,,,,517290.7999999523,517290.7000000477,,517290.59999990463,,517237.841,8,400,,,
break_continue,html.Screen,4_25_2,2023-09-08T17:53:28.739Z,,0,,,NaN,,,,,,false,,,,517291.09999990463,517291.09999990463,,517291,,517237.841,8,400,,,
sequence,flow.Sequence,4_25,2023-09-08T17:53:28.739Z,,0,,,9371.446999904641,completion,,,,,false,,,,517291.2999999523,517291.09999990463,507902.937,507956,507919.653,517237.841,8,400,,,
trial,html.Screen,4_26_0,2023-09-08T17:53:38.437Z,,0,1,,9751.758999904618,response,ISIC_6400714.JPG,6,ISIC_0069986.JPG,ISIC_0069986.JPG,false,0,keypress(z),500,526989.7999999523,526989.5999999046,517221.311,517291.39999985695,517237.841,526923.403,8,400,27,,ISIC_6400714.JPG
break,html.Screen,4_26_1,2023-09-08T17:53:38.438Z,,0,,,NaN,,,,,,false,,,,526990.5,526990.2000000477,,526990,,526923.403,8,400,,,
break_continue,html.Screen,4_26_2,2023-09-08T17:53:38.438Z,,0,,,NaN,,,,,,false,,,,526990.7999999523,526990.7000000477,,526990.5999999046,,526923.403,8,400,,,
sequence,flow.Sequence,4_26,2023-09-08T17:53:38.438Z,,0,,,9752.859000047669,completion,,,,,false,,,,526990.899999857,526990.7000000477,517221.311,517291.39999985695,517237.841,526923.403,8,400,,,
trial,html.Screen,4_27_0,2023-09-08T17:53:45.992Z,,0,1,,7620.596999999951,response,ISIC_0033087.JPG,5,ISIC_0065022.JPG,ISIC_0065022.JPG,false,0,keypress(z),500,534544.2000000477,534544,526906.737,526991,526923.403,534488.141,8,400,28,,ISIC_0033087.JPG
break,html.Screen,4_27_1,2023-09-08T17:53:45.993Z,,0,,,NaN,,,,,,false,,,,534544.5999999046,534544.5,,534544.2999999523,,534488.141,8,400,,,
break_continue,html.Screen,4_27_2,2023-09-08T17:53:45.993Z,,0,,,NaN,,,,,,false,,,,534544.7000000477,534544.5999999046,,534544.5999999046,,534488.141,8,400,,,
sequence,flow.Sequence,4_27,2023-09-08T17:53:45.993Z,,0,,,7621.196999904583,completion,,,,,false,,,,534544.7999999523,534544.5999999046,526906.737,526991,526923.403,534488.141,8,400,,,
trial,html.Screen,4_28_0,2023-09-08T17:53:55.819Z,,0,1,,9882.658999952371,response,ISIC_0061749.JPG,5,ISIC_8664718.JPG,ISIC_8664718.JPG,false,0,keypress(z),500,544371.0999999046,544370.7999999523,534471.379,534544.7999999523,534488.141,544307.15,8,400,29,,ISIC_0061749.JPG
break,html.Screen,4_28_1,2023-09-08T17:53:55.820Z,,0,,,NaN,,,,,,false,,,,544371.7000000477,544371.5,,544371.2999999523,,544307.15,8,400,,,
break_continue,html.Screen,4_28_2,2023-09-08T17:53:55.820Z,,0,,,NaN,,,,,,false,,,,544372.0999999046,544372,,544371.899999857,,544307.15,8,400,,,
sequence,flow.Sequence,4_28,2023-09-08T17:53:55.821Z,,0,,,9883.859000000055,completion,,,,,false,,,,544372.2000000477,544372,534471.379,534544.7999999523,534488.141,544307.15,8,400,,,
trial,html.Screen,4_29_0,2023-09-08T17:54:05.121Z,,0,1,,9365.249999856926,response,ISIC_0033856.JPG,5,ISIC_6496765.JPG,ISIC_0033856.JPG,false,1,keypress(m),500,553672.5999999046,553672.399999857,544290.572,544372.399999857,544307.15,553608.604,8,400,30,,ISIC_6496765.JPG
break,html.Screen,4_29_1,2023-09-08T17:54:05.122Z,,0,,,NaN,,,,,,false,,,,553673.399999857,553673.2000000477,,553672.899999857,,553608.604,8,400,,,
break_continue,html.Screen,4_29_2,2023-09-08T17:54:05.122Z,,0,,,NaN,,,,,,false,,,,553673.7999999523,553673.5999999046,,553673.5,,553608.604,8,400,,,
sequence,flow.Sequence,4_29,2023-09-08T17:54:05.124Z,,0,,,9366.44999990461,completion,,,,,false,,,,553675.2999999523,553673.5999999046,544290.572,544372.2999999523,544307.15,553608.604,8,400,,,
trial,html.Screen,4_30_0,2023-09-08T17:54:15.453Z,,0,1,,10395.596000047633,response,ISIC_2805634.JPG,5,ISIC_9865814.JPG,ISIC_2805634.JPG,false,1,keypress(m),500,564004.2000000477,564004.2000000477,553591.851,553675.5,553608.604,563945.375,8,400,31,,ISIC_9865814.JPG
break,html.Screen,4_30_1,2023-09-08T17:54:15.453Z,,0,,,NaN,,,,,,false,,,,564004.899999857,564004.7000000477,,564004.5,,563945.375,8,400,,,
break_continue,html.Screen,4_30_2,2023-09-08T17:54:15.453Z,,0,,,NaN,,,,,,false,,,,564005.2000000477,564005.0999999046,,564005.0999999046,,563945.375,8,400,,,
sequence,flow.Sequence,4_30,2023-09-08T17:54:15.454Z,,0,,,10396.495999904582,completion,,,,,false,,,,564005.2999999523,564005.0999999046,553591.851,553675.5,553608.604,563945.375,8,400,,,
trial,html.Screen,4_31_0,2023-09-08T17:54:21.825Z,,0,1,,6431.524999856949,response,ISIC_1078854.JPG,5,ISIC_0071771.JPG,ISIC_0071771.JPG,false,0,keypress(z),500,570377.0999999046,570376.899999857,563928.69,564005.2999999523,563945.375,570324.475,8,400,32,,ISIC_1078854.JPG
break,html.Screen,4_31_1,2023-09-08T17:54:21.826Z,,0,,,NaN,,,,,,false,,,,570377.5999999046,570377.399999857,,570377.2000000477,,570324.475,8,400,,,
break_continue,html.Screen,4_31_2,2023-09-08T17:54:21.826Z,,0,,,NaN,,,,,,false,,,,570377.899999857,570377.899999857,,570377.7999999523,,570324.475,8,400,,,
sequence,flow.Sequence,4_31,2023-09-08T17:54:21.826Z,,0,,,6432.524999856949,completion,,,,,false,,,,570378,570377.899999857,563928.69,564005.2999999523,563945.375,570324.475,8,400,,,
trial,html.Screen,4_32_0,2023-09-08T17:54:31.624Z,,0,1,,9851.424999856972,response,ISIC_0026497.JPG,5,ISIC_0028465.JPG,ISIC_0028465.JPG,false,0,keypress(z),500,580176.0999999046,580175.899999857,570307.788,570378.0999999046,570324.475,580110.183,8,400,33,,ISIC_0026497.JPG
break,html.Screen,4_32_1,2023-09-08T17:54:31.625Z,,0,,,NaN,,,,,,false,,,,580176.399999857,580176.2999999523,,580176.0999999046,,580110.183,8,400,,,
break_continue,html.Screen,4_32_2,2023-09-08T17:54:31.625Z,,0,,,NaN,,,,,,false,,,,580176.5,580176.5,,580176.5,,580110.183,8,400,,,
sequence,flow.Sequence,4_32,2023-09-08T17:54:31.625Z,,0,,,9852.025000000023,completion,,,,,false,,,,580176.5,580176.5,570307.788,570378.0999999046,570324.475,580110.183,8,400,,,
trial,html.Screen,4_33_0,2023-09-08T17:54:40.107Z,,0,1,,8547.81700000004,response,ISIC_1858989.JPG,6,ISIC_0028328.JPG,ISIC_0028328.JPG,false,0,keypress(z),500,588658.2000000477,588658,580093.49,580176.7000000477,580110.183,588593.377,8,400,34,,ISIC_1858989.JPG
break,html.Screen,4_33_1,2023-09-08T17:54:40.107Z,,0,,,NaN,,,,,,false,,,,588659.0999999046,588658.899999857,,588658.5,,588593.377,8,400,,,
break_continue,html.Screen,4_33_2,2023-09-08T17:54:40.108Z,,0,,,NaN,,,,,,false,,,,588659.5,588659.399999857,,588659.2999999523,,588593.377,8,400,,,
sequence,flow.Sequence,4_33,2023-09-08T17:54:40.108Z,,0,,,8549.216999856988,completion,,,,,false,,,,588659.7000000477,588659.399999857,580093.49,580176.5999999046,580110.183,588593.377,8,400,,,
trial,html.Screen,4_34_0,2023-09-08T17:54:47.775Z,,0,1,,7732.623000000021,response,ISIC_8993666.JPG,5,ISIC_0061625.JPG,ISIC_0061625.JPG,false,0,keypress(z),500,596326.2000000477,596326,588576.783,588659.899999857,588593.377,596274.992,8,400,35,,ISIC_8993666.JPG
break,html.Screen,4_34_1,2023-09-08T17:54:47.776Z,,0,,,NaN,,,,,,false,,,,596326.7999999523,596326.5999999046,,596326.399999857,,596274.992,8,400,,,
break_continue,html.Screen,4_34_2,2023-09-08T17:54:47.776Z,,0,,,NaN,,,,,,false,,,,596327.399999857,596327.2000000477,,596327.0999999046,,596274.992,8,400,,,
sequence,flow.Sequence,4_34,2023-09-08T17:54:47.776Z,,0,,,7733.823000047705,completion,,,,,false,,,,596327.5,596327.2000000477,588576.783,588659.7999999523,588593.377,596274.992,8,400,,,
trial,html.Screen,4_35_0,2023-09-08T17:54:56.386Z,,0,1,,8662.208000047714,response,ISIC_7129901.JPG,6,ISIC_6435644.JPG,ISIC_7129901.JPG,false,1,keypress(m),500,604937.2999999523,604937.2000000477,596258.285,596327.7000000477,596274.992,604875.081,8,400,36,,ISIC_6435644.JPG
break,html.Screen,4_35_1,2023-09-08T17:54:56.387Z,,0,,,NaN,,,,,,false,,,,604937.7000000477,604937.5999999046,,604937.399999857,,604875.081,8,400,,,
break_continue,html.Screen,4_35_2,2023-09-08T17:54:56.387Z,,0,,,NaN,,,,,,false,,,,604937.899999857,604937.7999999523,,604937.7000000477,,604875.081,8,400,,,
sequence,flow.Sequence,4_35,2023-09-08T17:54:56.387Z,,0,,,8662.807999952347,completion,,,,,false,,,,604938,604937.7999999523,596258.285,596327.7000000477,596274.992,604875.081,8,400,,,
trial,html.Screen,4_36_0,2023-09-08T17:55:06.884Z,,0,1,,10560.119000047678,response,ISIC_0026890.JPG,5,ISIC_2724278.JPG,ISIC_2724278.JPG,false,0,keypress(z),500,615435.2999999523,615435.2000000477,604858.332,604938,604875.081,615378.854,8,400,37,,ISIC_0026890.JPG
break,html.Screen,4_36_1,2023-09-08T17:55:06.884Z,,0,,,NaN,,,,,,false,,,,615435.7000000477,615435.5,,615435.399999857,,615378.854,8,400,,,
break_continue,html.Screen,4_36_2,2023-09-08T17:55:06.885Z,,0,,,NaN,,,,,,false,,,,615435.7999999523,615435.7000000477,,615435.7000000477,,615378.854,8,400,,,
sequence,flow.Sequence,4_36,2023-09-08T17:55:06.885Z,,0,,,10560.619000047678,completion,,,,,false,,,,615435.7999999523,615435.7000000477,604858.332,604938,604875.081,615378.854,8,400,,,
trial,html.Screen,4_37_0,2023-09-08T17:55:13.941Z,,0,1,,7113.64599999995,response,ISIC_0029571.JPG,5,ISIC_6517082.JPG,ISIC_6517082.JPG,false,0,keypress(z),500,622492.5999999046,622492.5,615362.185,615435.899999857,615378.854,622442.727,8,400,38,,ISIC_0029571.JPG
break,html.Screen,4_37_1,2023-09-08T17:55:13.942Z,,0,,,NaN,,,,,,false,,,,622492.899999857,622492.7999999523,,622492.7000000477,,622442.727,8,400,,,
break_continue,html.Screen,4_37_2,2023-09-08T17:55:13.942Z,,0,,,NaN,,,,,,false,,,,622493.0999999046,622493,,622492.899999857,,622442.727,8,400,,,
sequence,flow.Sequence,4_37,2023-09-08T17:55:13.942Z,,0,,,7114.14599999995,completion,,,,,false,,,,622493.0999999046,622493,615362.185,615435.899999857,615378.854,622442.727,8,400,,,
trial,html.Screen,4_38_0,2023-09-08T17:55:22.123Z,,0,1,,8231.172999856994,response,ISIC_1727826.JPG,5,ISIC_0024718.JPG,ISIC_0024718.JPG,false,0,keypress(z),500,630674,630673.899999857,622425.811,622493.2000000477,622442.727,630608.435,8,400,39,,ISIC_1727826.JPG
break,html.Screen,4_38_1,2023-09-08T17:55:22.123Z,,0,,,NaN,,,,,,false,,,,630674.399999857,630674.2000000477,,630674.0999999046,,630608.435,8,400,,,
break_continue,html.Screen,4_38_2,2023-09-08T17:55:22.123Z,,0,,,NaN,,,,,,false,,,,630674.399999857,630674.399999857,,630674.399999857,,630608.435,8,400,,,
sequence,flow.Sequence,4_38,2023-09-08T17:55:22.123Z,,0,,,8231.672999856994,completion,,,,,false,,,,630674.5,630674.399999857,622425.811,622493.2000000477,622442.727,630608.435,8,400,,,
trial,html.Screen,4_39_0,2023-09-08T17:55:29.154Z,,0,1,,7096.265000047628,response,ISIC_9720044.JPG,5,ISIC_9947624.JPG,ISIC_9947624.JPG,false,0,keypress(z),500,637705,637704.7000000477,630591.732,630674.5999999046,630608.435,637638.986,8,400,40,,ISIC_9720044.JPG
break,html.Screen,4_39_1,2023-09-08T17:55:29.155Z,,0,,,NaN,,,,,,false,,,,637706.2000000477,637705.7999999523,,637705.399999857,,637638.986,8,400,,,
break_continue,html.Screen,4_39_2,2023-09-08T17:55:29.156Z,,0,,,NaN,,,,,,false,,,,637707.0999999046,637706.5999999046,,637706.399999857,,637638.986,8,400,,,
sequence,flow.Sequence,4_39,2023-09-08T17:55:29.157Z,,0,,,7098.164999904577,completion,,,,,false,,,,637707.7999999523,637706.5999999046,630591.732,630674.5999999046,630608.435,637638.986,8,400,,,
trial,html.Screen,4_40_0,2023-09-08T17:55:38.072Z,,0,1,,8984.413999856915,response,ISIC_1932064.JPG,5,ISIC_0054318.JPG,ISIC_0054318.JPG,false,0,keypress(z),500,646623.7000000477,646623.399999857,637622.101,637708.2000000477,637638.986,646572.909,8,400,41,,ISIC_1932064.JPG
break,html.Screen,4_40_1,2023-09-08T17:55:38.073Z,,0,,,NaN,,,,,,false,,,,646624.399999857,646624.0999999046,,646623.7999999523,,646572.909,8,400,,,
break_continue,html.Screen,4_40_2,2023-09-08T17:55:38.074Z,,0,,,NaN,,,,,,false,,,,646624.5999999046,646624.5999999046,,646624.5,,646572.909,8,400,,,
sequence,flow.Sequence,4_40,2023-09-08T17:55:38.074Z,,0,,,8985.613999904599,completion,,,,,false,,,,646624.899999857,646624.5999999046,637622.101,637708.0999999046,637638.986,646572.909,8,400,,,
trial,html.Screen,4_41_0,2023-09-08T17:55:47.344Z,,0,1,,9321.791000047699,response,ISIC_6442221.JPG,5,ISIC_3352962.JPG,ISIC_3352962.JPG,false,0,keypress(z),500,655895.0999999046,655894.7000000477,646556.283,646625,646572.909,655840.83,8,400,42,,ISIC_6442221.JPG
break,html.Screen,4_41_1,2023-09-08T17:55:47.345Z,,0,,,NaN,,,,,,false,,,,655895.7000000477,655895.5999999046,,655895.2999999523,,655840.83,8,400,,,
break_continue,html.Screen,4_41_2,2023-09-08T17:55:47.346Z,,0,,,NaN,,,,,,false,,,,655896.2000000477,655896,,655895.899999857,,655840.83,8,400,,,
sequence,flow.Sequence,4_41,2023-09-08T17:55:47.346Z,,0,,,9323.091000000015,completion,,,,,false,,,,655896.2999999523,655896,646556.283,646624.899999857,646572.909,655840.83,8,400,,,
trial,html.Screen,4_42_0,2023-09-08T17:55:53.620Z,,0,1,,6329.170000000042,response,ISIC_0028501.JPG,5,ISIC_0029574.JPG,ISIC_0029574.JPG,false,0,keypress(z),500,662170.0999999046,662170,655824.196,655896.5,655840.83,662119.785,8,400,43,,ISIC_0028501.JPG
break,html.Screen,4_42_1,2023-09-08T17:55:53.620Z,,0,,,NaN,,,,,,false,,,,662170.7999999523,662170.5999999046,,662170.2999999523,,662119.785,8,400,,,
break_continue,html.Screen,4_42_2,2023-09-08T17:55:53.620Z,,0,,,NaN,,,,,,false,,,,662171.0999999046,662170.899999857,,662170.899999857,,662119.785,8,400,,,
sequence,flow.Sequence,4_42,2023-09-08T17:55:53.621Z,,0,,,6330.069999856991,completion,,,,,false,,,,662171.2999999523,662170.899999857,655824.196,655896.5,655840.83,662119.785,8,400,,,
trial,html.Screen,4_43_0,2023-09-08T17:56:00.808Z,,0,1,,7238.614999856916,response,ISIC_0032149.JPG,6,ISIC_0375034.JPG,ISIC_0032149.JPG,false,1,keypress(m),500,669358.399999857,669358.399999857,662104.036,662171.899999857,662119.785,669300.391,8,400,44,,ISIC_0375034.JPG
break,html.Screen,4_43_1,2023-09-08T17:56:00.808Z,,0,,,NaN,,,,,,false,,,,669358.7999999523,669358.7000000477,,669358.5,,669300.391,8,400,,,
break_continue,html.Screen,4_43_2,2023-09-08T17:56:00.808Z,,0,,,NaN,,,,,,false,,,,669359,669358.899999857,,669358.7999999523,,669300.391,8,400,,,
sequence,flow.Sequence,4_43,2023-09-08T17:56:00.808Z,,0,,,7239.114999856916,completion,,,,,false,,,,669359,669358.899999857,662104.036,662171.5,662119.785,669300.391,8,400,,,
trial,html.Screen,4_44_0,2023-09-08T17:56:08.705Z,,0,1,,7954.809000047739,response,ISIC_0025927.JPG,5,ISIC_0182730.JPG,ISIC_0025927.JPG,false,1,keypress(m),500,677255.399999857,677255.2000000477,669283.824,669359,669300.391,677199.087,8,400,45,,ISIC_0182730.JPG
break,html.Screen,4_44_1,2023-09-08T17:56:08.705Z,,0,,,NaN,,,,,,false,,,,677256,677255.899999857,,677255.5999999046,,677199.087,8,400,,,
break_continue,html.Screen,4_44_2,2023-09-08T17:56:08.706Z,,0,,,NaN,,,,,,false,,,,677256.2999999523,677256.2000000477,,677256.2000000477,,677199.087,8,400,,,
sequence,flow.Sequence,4_44,2023-09-08T17:56:08.706Z,,0,,,7955.809000047739,completion,,,,,false,,,,677256.5,677256.2000000477,669283.824,669359,669300.391,677199.087,8,400,,,
trial,html.Screen,4_45_0,2023-09-08T17:56:20.206Z,,0,1,,11573.692999904626,timeout,ISIC_2470790.JPG,5,ISIC_5301938.JPG,ISIC_2470790.JPG,false,,,500,688756.2999999523,688756.0999999046,677182.407,677256.5999999046,677199.087,,8,400,46,,ISIC_5301938.JPG
break,html.Screen,4_45_1,2023-09-08T17:56:20.206Z,,0,,,NaN,,,,,,false,,,,688756.7000000477,688756.5999999046,,688756.5,,688721.719,8,400,,,
break_continue,html.Screen,4_45_2,2023-09-08T17:56:20.206Z,,0,,,NaN,,,,,,false,,,,688756.899999857,688756.7999999523,,688756.7999999523,,688721.719,8,400,,,
sequence,flow.Sequence,4_45,2023-09-08T17:56:20.206Z,,0,,,11557.712999952259,completion,,,,,false,,,,688757,688756.7999999523,677182.407,677256.5,677199.087,688721.719,8,400,,,
trial,html.Screen,4_45_0,2023-09-08T17:56:20.225Z,,0,1,,11576.412999999942,response,ISIC_2470790.JPG,5,ISIC_5301938.JPG,ISIC_2470790.JPG,false,1,keypress(m),500,688775.5,688775.5,677182.407,677256.5999999046,677199.087,688721.719,8,400,46,,ISIC_5301938.JPG
trial,html.Screen,4_46_0,2023-09-08T17:56:28.930Z,,0,1,,8758.580999952275,response,ISIC_0069891.JPG,5,ISIC_0030820.JPG,ISIC_0069891.JPG,false,1,keypress(m),500,697480.399999857,697480.2999999523,688704.805,688757,688721.719,697421.994,8,400,47,,ISIC_0030820.JPG
break,html.Screen,4_46_1,2023-09-08T17:56:28.930Z,,0,,,NaN,,,,,,false,,,,697480.7000000477,697480.5999999046,,697480.5999999046,,697421.994,8,400,,,
break_continue,html.Screen,4_46_2,2023-09-08T17:56:28.930Z,,0,,,NaN,,,,,,false,,,,697480.7999999523,697480.7999999523,,697480.7000000477,,697421.994,8,400,,,
sequence,flow.Sequence,4_46,2023-09-08T17:56:28.930Z,,0,,,8759.080999952275,completion,,,,,false,,,,697480.899999857,697480.7999999523,688704.805,688757,688721.719,697421.994,8,400,,,
trial,html.Screen,4_47_0,2023-09-08T17:56:35.828Z,,0,1,,6956.405999857001,response,ISIC_0702876.JPG,4,ISIC_0033452.JPG,ISIC_0033452.JPG,false,0,keypress(z),500,704378.5,704378.399999857,697405.21,697480.899999857,697421.994,704335.22,8,400,48,,ISIC_0702876.JPG
break,html.Screen,4_47_1,2023-09-08T17:56:35.828Z,,0,,,NaN,,,,,,false,,,,704378.899999857,704378.7999999523,,704378.5999999046,,704335.22,8,400,,,
break_continue,html.Screen,4_47_2,2023-09-08T17:56:35.829Z,,0,,,NaN,,,,,,false,,,,704379.2000000477,704379.0999999046,,704379,,704335.22,8,400,,,
sequence,flow.Sequence,4_47,2023-09-08T17:56:35.829Z,,0,,,6957.105999904685,completion,,,,,false,,,,704379.2000000477,704379.0999999046,697405.21,697480.899999857,697421.994,704335.22,8,400,,,
trial,html.Screen,4_48_0,2023-09-08T17:56:42.310Z,,0,1,,6525.179999856977,response,ISIC_9806131.JPG,5,ISIC_3002956.JPG,ISIC_3002956.JPG,false,0,keypress(z),500,710860.399999857,710860.399999857,704318.627,704379.2999999523,704335.22,710814.723,8,400,49,,ISIC_9806131.JPG
break,html.Screen,4_48_1,2023-09-08T17:56:42.310Z,,0,,,NaN,,,,,,false,,,,710860.7999999523,710860.7000000477,,710860.5999999046,,710814.723,8,400,,,
break_continue,html.Screen,4_48_2,2023-09-08T17:56:42.310Z,,0,,,NaN,,,,,,false,,,,710861.0999999046,710861,,710861,,710814.723,8,400,,,
sequence,flow.Sequence,4_48,2023-09-08T17:56:42.311Z,,0,,,6525.780000000028,completion,,,,,false,,,,710861.2000000477,710861,704318.627,704379.2000000477,704335.22,710814.723,8,400,,,
trial,html.Screen,4_49_0,2023-09-08T17:56:47.242Z,,0,1,,4977.376999904634,response,ISIC_0065394.JPG,6,ISIC_0029349.JPG,ISIC_0065394.JPG,false,1,keypress(m),500,715792.2999999523,715792.0999999046,710797.838,710861.2999999523,710814.723,715740.877,8,400,50,,ISIC_0029349.JPG
break,html.Screen,4_49_1,2023-09-08T17:56:57.245Z,,0,,,10002.805999999982,timeout,,,,,false,,,,725795.2999999523,725726.99,715724.046,715792.399999857,715740.877,725743.683,8,400,,,
break_continue,html.Screen,4_49_2,2023-09-08T17:57:14.890Z,,0,,,17685.517000047723,response,,,,,false,continue,keypress(Space),,743439.7999999523,743429.2000000477,725726.99,725795.399999857,725743.683,743377.895,8,400,,,
sequence,flow.Sequence,4_49,2023-09-08T17:57:14.890Z,,0,,,32614.477000047686,completion,,,,,false,,,,743439.899999857,743429.2000000477,710797.838,710861.2000000477,710814.723,743377.895,8,400,,,
trial,html.Screen,4_50_0,2023-09-08T17:57:19.053Z,,0,2,,4225.50499985693,response,ISIC_0011964.JPG,6,ISIC_0028397.JPG,ISIC_0011964.JPG,false,1,keypress(m),500,747603.5999999046,747603.399999857,743361.159,743439.899999857,743377.895,747552.689,8,400,1,,ISIC_0028397.JPG
break,html.Screen,4_50_1,2023-09-08T17:57:19.054Z,,0,,,NaN,,,,,,false,,,,747604.2999999523,747604,,747603.7000000477,,747552.689,8,400,,,
break_continue,html.Screen,4_50_2,2023-09-08T17:57:19.054Z,,0,,,NaN,,,,,,false,,,,747604.5999999046,747604.5,,747604.2999999523,,747552.689,8,400,,,
sequence,flow.Sequence,4_50,2023-09-08T17:57:19.055Z,,0,,,4226.604999999981,completion,,,,,false,,,,747604.7000000477,747604.5,743361.159,743439.899999857,743377.895,747552.689,8,400,,,
trial,html.Screen,4_51_0,2023-09-08T17:57:26.097Z,,0,2,,7094.011000047671,response,ISIC_0072173.JPG,6,ISIC_0024840.JPG,ISIC_0072173.JPG,false,1,keypress(m),500,754646.899999857,754646.7000000477,747536.067,747604.7999999523,747552.689,754583.005,8,400,2,,ISIC_0024840.JPG
break,html.Screen,4_51_1,2023-09-08T17:57:26.097Z,,0,,,NaN,,,,,,false,,,,754647.0999999046,754647,,754646.899999857,,754583.005,8,400,,,
break_continue,html.Screen,4_51_2,2023-09-08T17:57:26.097Z,,0,,,NaN,,,,,,false,,,,754647.2999999523,754647.2999999523,,754647.2000000477,,754583.005,8,400,,,
sequence,flow.Sequence,4_51,2023-09-08T17:57:26.097Z,,0,,,7094.610999952303,completion,,,,,false,,,,754647.2999999523,754647.2999999523,747536.067,747604.7999999523,747552.689,754583.005,8,400,,,
trial,html.Screen,4_52_0,2023-09-08T17:57:31.432Z,,0,2,,5398.994999999995,response,ISIC_1630301.JPG,5,ISIC_0034294.JPG,ISIC_1630301.JPG,false,1,keypress(m),500,759982.2000000477,759982,754566.439,754647.399999857,754583.005,759926.808,8,400,3,,ISIC_0034294.JPG
break,html.Screen,4_52_1,2023-09-08T17:57:31.433Z,,0,,,NaN,,,,,,false,,,,759982.7000000477,759982.5999999046,,759982.399999857,,759926.808,8,400,,,
break_continue,html.Screen,4_52_2,2023-09-08T17:57:31.433Z,,0,,,NaN,,,,,,false,,,,759983,759982.899999857,,759982.7999999523,,759926.808,8,400,,,
sequence,flow.Sequence,4_52,2023-09-08T17:57:31.433Z,,0,,,5399.894999856944,completion,,,,,false,,,,759983.0999999046,759982.899999857,754566.439,754647.399999857,754583.005,759926.808,8,400,,,
trial,html.Screen,4_53_0,2023-09-08T17:57:38.363Z,,0,2,,6986.192000000039,response,ISIC_4252285.JPG,4,ISIC_0055440.JPG,ISIC_0055440.JPG,false,0,keypress(z),500,766913,766913,759910.142,759983.0999999046,759926.808,766856.945,8,400,4,,ISIC_4252285.JPG
break,html.Screen,4_53_1,2023-09-08T17:57:38.363Z,,0,,,NaN,,,,,,false,,,,766913.5,766913.399999857,,766913.2000000477,,766856.945,8,400,,,
break_continue,html.Screen,4_53_2,2023-09-08T17:57:38.364Z,,0,,,NaN,,,,,,false,,,,766913.7000000477,766913.5999999046,,766913.5999999046,,766856.945,8,400,,,
sequence,flow.Sequence,4_53,2023-09-08T17:57:38.364Z,,0,,,6986.791999904672,completion,,,,,false,,,,766913.7999999523,766913.5999999046,759910.142,759983.0999999046,759926.808,766856.945,8,400,,,
trial,html.Screen,4_54_0,2023-09-08T17:57:46.704Z,,0,2,,8396.255000047735,response,ISIC_2822718.JPG,5,ISIC_0331389.JPG,ISIC_0331389.JPG,false,0,keypress(z),500,775253.399999857,775253.2000000477,766840.33,766913.899999857,766856.945,775189.806,8,400,5,,ISIC_2822718.JPG
break,html.Screen,4_54_1,2023-09-08T17:57:46.704Z,,0,,,NaN,,,,,,false,,,,775253.899999857,775253.7000000477,,775253.5,,775189.806,8,400,,,
break_continue,html.Screen,4_54_2,2023-09-08T17:57:46.705Z,,0,,,NaN,,,,,,false,,,,775254.2999999523,775254.2000000477,,775254.0999999046,,775189.806,8,400,,,
sequence,flow.Sequence,4_54,2023-09-08T17:57:46.705Z,,0,,,8397.255000047735,completion,,,,,false,,,,775254.5,775254.2000000477,766840.33,766913.899999857,766856.945,775189.806,8,400,,,
trial,html.Screen,4_55_0,2023-09-08T17:57:52.566Z,,0,2,,5925.694000000018,response,ISIC_0030391.JPG,5,ISIC_9087221.JPG,ISIC_0030391.JPG,false,1,keypress(m),500,781115.7000000477,781115.5,775173.198,775254.5999999046,775189.806,781067.947,8,400,6,,ISIC_9087221.JPG
break,html.Screen,4_55_1,2023-09-08T17:57:52.567Z,,0,,,NaN,,,,,,false,,,,781116.5999999046,781116.2999999523,,781116,,781067.947,8,400,,,
break_continue,html.Screen,4_55_2,2023-09-08T17:57:52.568Z,,0,,,NaN,,,,,,false,,,,781117.0999999046,781116.899999857,,781116.7000000477,,781067.947,8,400,,,
sequence,flow.Sequence,4_55,2023-09-08T17:57:52.568Z,,0,,,5927.093999856967,completion,,,,,false,,,,781117.2000000477,781116.899999857,775173.198,775254.5999999046,775189.806,781067.947,8,400,,,
trial,html.Screen,4_56_0,2023-09-08T17:57:59.610Z,,0,2,,7091.75300004764,response,ISIC_8383600.JPG,5,ISIC_9944714.JPG,ISIC_9944714.JPG,false,0,keypress(z),500,788159.899999857,788159.7000000477,781051.201,781117.2999999523,781067.947,788098.253,8,400,7,,ISIC_8383600.JPG
break,html.Screen,4_56_1,2023-09-08T17:57:59.611Z,,0,,,NaN,,,,,,false,,,,788160.399999857,788160.2999999523,,788160.0999999046,,788098.253,8,400,,,
break_continue,html.Screen,4_56_2,2023-09-08T17:57:59.611Z,,0,,,NaN,,,,,,false,,,,788160.5999999046,788160.5,,788160.5,,788098.253,8,400,,,
sequence,flow.Sequence,4_56,2023-09-08T17:57:59.611Z,,0,,,7092.552999999956,completion,,,,,false,,,,788160.899999857,788160.5,781051.201,781117.2999999523,781067.947,788098.253,8,400,,,
trial,html.Screen,4_57_0,2023-09-08T17:58:04.830Z,,0,2,,5280.947000047658,response,ISIC_4856536.JPG,4,ISIC_0060817.JPG,ISIC_0060817.JPG,false,0,keypress(z),500,793379.2999999523,793379.2000000477,788081.524,788160.899999857,788098.253,793325.081,8,400,8,,ISIC_4856536.JPG
break,html.Screen,4_57_1,2023-09-08T17:58:04.830Z,,0,,,NaN,,,,,,false,,,,793379.7000000477,793379.7000000477,,793379.5,,793325.081,8,400,,,
break_continue,html.Screen,4_57_2,2023-09-08T17:58:04.830Z,,0,,,NaN,,,,,,false,,,,793379.899999857,793379.899999857,,793379.7999999523,,793325.081,8,400,,,
sequence,flow.Sequence,4_57,2023-09-08T17:58:04.831Z,,0,,,5281.646999856923,completion,,,,,false,,,,793380.0999999046,793379.899999857,788081.524,788160.899999857,788098.253,793325.081,8,400,,,
trial,html.Screen,4_58_0,2023-09-08T17:58:11.233Z,,0,2,,6456.918999999994,response,ISIC_8714502.JPG,5,ISIC_0011409.JPG,ISIC_0011409.JPG,false,0,keypress(z),500,799782.0999999046,799782,793308.506,793380.2000000477,793325.081,799720.875,8,400,9,,ISIC_8714502.JPG
break,html.Screen,4_58_1,2023-09-08T17:58:11.233Z,,0,,,NaN,,,,,,false,,,,799782.5999999046,799782.5,,799782.2999999523,,799720.875,8,400,,,
break_continue,html.Screen,4_58_2,2023-09-08T17:58:11.233Z,,0,,,NaN,,,,,,false,,,,799782.7999999523,799782.7000000477,,799782.7000000477,,799720.875,8,400,,,
sequence,flow.Sequence,4_58,2023-09-08T17:58:11.233Z,,0,,,6457.619000047678,completion,,,,,false,,,,799782.899999857,799782.7000000477,793308.506,793380.2000000477,793325.081,799720.875,8,400,,,
trial,html.Screen,4_59_0,2023-09-08T17:58:20.198Z,,0,2,,9026.524999856949,response,ISIC_0033738.JPG,4,ISIC_0014302.JPG,ISIC_0014302.JPG,false,0,keypress(z),500,808747.5999999046,808747.399999857,799704.205,799783,799720.875,808688.314,8,400,10,,ISIC_0033738.JPG
break,html.Screen,4_59_1,2023-09-08T17:58:20.198Z,,0,,,NaN,,,,,,false,,,,808747.899999857,808747.7999999523,,808747.7000000477,,808688.314,8,400,,,
break_continue,html.Screen,4_59_2,2023-09-08T17:58:20.199Z,,0,,,NaN,,,,,,false,,,,808748.0999999046,808748.0999999046,,808748,,808688.314,8,400,,,
sequence,flow.Sequence,4_59,2023-09-08T17:58:20.199Z,,0,,,9027.224999904633,completion,,,,,false,,,,808748.2999999523,808748.0999999046,799704.205,799783,799720.875,808688.314,8,400,,,
trial,html.Screen,4_60_0,2023-09-08T17:58:25.500Z,,0,2,,5360.886000047671,response,ISIC_0061491.JPG,6,ISIC_0002900.JPG,ISIC_0061491.JPG,false,1,keypress(m),500,814049.2999999523,814049.2000000477,808671.585,808748.2999999523,808688.314,813998.867,8,400,11,,ISIC_0002900.JPG
break,html.Screen,4_60_1,2023-09-08T17:58:25.500Z,,0,,,NaN,,,,,,false,,,,814049.7999999523,814049.5,,814049.399999857,,813998.867,8,400,,,
break_continue,html.Screen,4_60_2,2023-09-08T17:58:25.500Z,,0,,,NaN,,,,,,false,,,,814050,814049.899999857,,814049.899999857,,813998.867,8,400,,,
sequence,flow.Sequence,4_60,2023-09-08T17:58:25.501Z,,0,,,5361.585999856936,completion,,,,,false,,,,814050.0999999046,814049.899999857,808671.585,808748.2999999523,808688.314,813998.867,8,400,,,
trial,html.Screen,4_61_0,2023-09-08T17:58:31.814Z,,0,2,,6364.833000047714,response,ISIC_0032134.JPG,6,ISIC_4348579.JPG,ISIC_0032134.JPG,false,1,keypress(m),500,820363.899999857,820363.7000000477,813981.959,814050.2000000477,813998.867,820311.003,8,400,12,,ISIC_4348579.JPG
break,html.Screen,4_61_1,2023-09-08T17:58:31.815Z,,0,,,NaN,,,,,,false,,,,820364.399999857,820364.2999999523,,820364.0999999046,,820311.003,8,400,,,
break_continue,html.Screen,4_61_2,2023-09-08T17:58:31.815Z,,0,,,NaN,,,,,,false,,,,820364.5999999046,820364.5999999046,,820364.5,,820311.003,8,400,,,
sequence,flow.Sequence,4_61,2023-09-08T17:58:31.815Z,,0,,,6365.732999904663,completion,,,,,false,,,,820364.7999999523,820364.5999999046,813981.959,814050.2000000477,813998.867,820311.003,8,400,,,
trial,html.Screen,4_62_0,2023-09-08T17:58:38.281Z,,0,2,,6519.697000047658,response,ISIC_0033473.JPG,5,ISIC_9155028.JPG,ISIC_0033473.JPG,false,1,keypress(m),500,826830.7000000477,826830.7000000477,820294.239,820364.899999857,820311.003,826773.527,8,400,13,,ISIC_9155028.JPG
break,html.Screen,4_62_1,2023-09-08T17:58:38.282Z,,0,,,NaN,,,,,,false,,,,826831.0999999046,826831,,826830.899999857,,826773.527,8,400,,,
break_continue,html.Screen,4_62_2,2023-09-08T17:58:38.282Z,,0,,,NaN,,,,,,false,,,,826831.2999999523,826831.2000000477,,826831.0999999046,,826773.527,8,400,,,
sequence,flow.Sequence,4_62,2023-09-08T17:58:38.282Z,,0,,,6520.197000047658,completion,,,,,false,,,,826831.399999857,826831.2000000477,820294.239,820364.899999857,820311.003,826773.527,8,400,,,
trial,html.Screen,4_63_0,2023-09-08T17:58:47.042Z,,0,2,,8817.07299990463,response,ISIC_0065537.JPG,5,ISIC_8008242.JPG,ISIC_8008242.JPG,false,0,keypress(z),500,835590.7999999523,835590.5999999046,826756.909,826831.399999857,826773.527,835523.873,8,400,14,,ISIC_0065537.JPG
break,html.Screen,4_63_1,2023-09-08T17:58:47.042Z,,0,,,NaN,,,,,,false,,,,835591.2999999523,835591.2000000477,,835591,,835523.873,8,400,,,
break_continue,html.Screen,4_63_2,2023-09-08T17:58:47.043Z,,0,,,NaN,,,,,,false,,,,835591.899999857,835591.7999999523,,835591.399999857,,835523.873,8,400,,,
sequence,flow.Sequence,4_63,2023-09-08T17:58:47.043Z,,0,,,8818.272999952314,completion,,,,,false,,,,835592,835591.7999999523,826756.909,826831.399999857,826773.527,835523.873,8,400,,,
trial,html.Screen,4_64_0,2023-09-08T17:58:53.477Z,,0,2,,6502.026999856927,response,ISIC_6105084.JPG,5,ISIC_6714082.JPG,ISIC_6105084.JPG,false,1,keypress(m),500,842026,842025.899999857,835507.163,835592.0999999046,835523.873,841969.759,8,400,15,,ISIC_6714082.JPG
break,html.Screen,4_64_1,2023-09-08T17:58:53.477Z,,0,,,NaN,,,,,,false,,,,842026.2999999523,842026.2000000477,,842026,,841969.759,8,400,,,
break_continue,html.Screen,4_64_2,2023-09-08T17:58:53.478Z,,0,,,NaN,,,,,,false,,,,842026.5,842026.399999857,,842026.2999999523,,841969.759,8,400,,,
sequence,flow.Sequence,4_64,2023-09-08T17:58:53.478Z,,0,,,6502.526999856927,completion,,,,,false,,,,842026.5,842026.399999857,835507.163,835592,835523.873,841969.759,8,400,,,
trial,html.Screen,4_65_0,2023-09-08T17:59:01.083Z,,0,2,,7662.0409999523545,response,ISIC_0008945.JPG,5,ISIC_0032892.JPG,ISIC_0032892.JPG,false,0,keypress(z),500,849632,849631.7999999523,841953.327,842026.5999999046,841969.759,849567.872,8,400,16,,ISIC_0008945.JPG
break,html.Screen,4_65_1,2023-09-08T17:59:01.083Z,,0,,,NaN,,,,,,false,,,,849632.2999999523,849632.2000000477,,849632.0999999046,,849567.872,8,400,,,
break_continue,html.Screen,4_65_2,2023-09-08T17:59:01.083Z,,0,,,NaN,,,,,,false,,,,849632.399999857,849632.399999857,,849632.2999999523,,849567.872,8,400,,,
sequence,flow.Sequence,4_65,2023-09-08T17:59:01.084Z,,0,,,7662.640999856987,completion,,,,,false,,,,849632.5,849632.399999857,841953.327,842026.5999999046,841969.759,849567.872,8,400,,,
trial,html.Screen,4_66_0,2023-09-08T17:59:06.685Z,,0,2,,5666.32800004771,response,ISIC_8835545.JPG,4,ISIC_0014181.JPG,ISIC_0014181.JPG,false,0,keypress(z),500,855234.2999999523,855234.2000000477,849551.289,849632.5,849567.872,855178.825,8,400,17,,ISIC_8835545.JPG
break,html.Screen,4_66_1,2023-09-08T17:59:06.686Z,,0,,,NaN,,,,,,false,,,,855234.7000000477,855234.5,,855234.399999857,,855178.825,8,400,,,
break_continue,html.Screen,4_66_2,2023-09-08T17:59:06.686Z,,0,,,NaN,,,,,,false,,,,855234.899999857,855234.7999999523,,855234.7999999523,,855178.825,8,400,,,
sequence,flow.Sequence,4_66,2023-09-08T17:59:06.686Z,,0,,,5666.927999952342,completion,,,,,false,,,,855235.0999999046,855234.7999999523,849551.289,849632.5,849567.872,855178.825,8,400,,,
trial,html.Screen,4_67_0,2023-09-08T17:59:12.678Z,,0,2,,6047.974999952363,response,ISIC_9412963.JPG,5,ISIC_0024735.JPG,ISIC_9412963.JPG,false,1,keypress(m),500,861226.899999857,861226.7999999523,855162.123,855235.0999999046,855178.825,861173.826,8,400,18,,ISIC_0024735.JPG
break,html.Screen,4_67_1,2023-09-08T17:59:12.678Z,,0,,,NaN,,,,,,false,,,,861227.2999999523,861227.2000000477,,861227,,861173.826,8,400,,,
break_continue,html.Screen,4_67_2,2023-09-08T17:59:12.679Z,,0,,,NaN,,,,,,false,,,,861227.5999999046,861227.5,,861227.5,,861173.826,8,400,,,
sequence,flow.Sequence,4_67,2023-09-08T17:59:12.679Z,,0,,,6048.675000000047,completion,,,,,false,,,,861227.7000000477,861227.5,855162.123,855235.0999999046,855178.825,861173.826,8,400,,,
trial,html.Screen,4_68_0,2023-09-08T17:59:19.888Z,,0,2,,7262.973999952315,response,ISIC_0033711.JPG,5,ISIC_5439597.JPG,ISIC_5439597.JPG,false,0,keypress(z),500,868436.899999857,868436.7999999523,861157.267,861227.7000000477,861173.826,868371.108,8,400,19,,ISIC_0033711.JPG
break,html.Screen,4_68_1,2023-09-08T17:59:19.888Z,,0,,,NaN,,,,,,false,,,,868437.2000000477,868437.2000000477,,868437.0999999046,,868371.108,8,400,,,
break_continue,html.Screen,4_68_2,2023-09-08T17:59:19.888Z,,0,,,NaN,,,,,,false,,,,868437.399999857,868437.399999857,,868437.2999999523,,868371.108,8,400,,,
sequence,flow.Sequence,4_68,2023-09-08T17:59:19.888Z,,0,,,7263.573999856948,completion,,,,,false,,,,868437.5,868437.399999857,861157.267,861227.7000000477,861173.826,868371.108,8,400,,,
trial,html.Screen,4_69_0,2023-09-08T17:59:26.934Z,,0,2,,7112.191999952309,response,ISIC_0004217.JPG,5,ISIC_7130929.JPG,ISIC_7130929.JPG,false,0,keypress(z),500,875483.399999857,875483.2999999523,868354.427,868437.5999999046,868371.108,875418.161,8,400,20,,ISIC_0004217.JPG
break,html.Screen,4_69_1,2023-09-08T17:59:26.935Z,,0,,,NaN,,,,,,false,,,,875483.7999999523,875483.7000000477,,875483.5,,875418.161,8,400,,,
break_continue,html.Screen,4_69_2,2023-09-08T17:59:26.935Z,,0,,,NaN,,,,,,false,,,,875483.899999857,875483.899999857,,875483.7999999523,,875418.161,8,400,,,
sequence,flow.Sequence,4_69,2023-09-08T17:59:26.935Z,,0,,,7112.791999856941,completion,,,,,false,,,,875484,875483.899999857,868354.427,868437.5999999046,868371.108,875418.161,8,400,,,
trial,html.Screen,4_70_0,2023-09-08T17:59:33.624Z,,0,2,,6754.839000000036,response,ISIC_9048507.JPG,5,ISIC_6831482.JPG,ISIC_9048507.JPG,false,1,keypress(m),500,882173.399999857,882173,875401.518,875484,875418.161,882114.543,8,400,21,,ISIC_6831482.JPG
break,html.Screen,4_70_1,2023-09-08T17:59:33.625Z,,0,,,NaN,,,,,,false,,,,882174.2999999523,882174.0999999046,,882173.5999999046,,882114.543,8,400,,,
break_continue,html.Screen,4_70_2,2023-09-08T17:59:33.626Z,,0,,,NaN,,,,,,false,,,,882174.7000000477,882174.5999999046,,882174.5,,882114.543,8,400,,,
sequence,flow.Sequence,4_70,2023-09-08T17:59:33.626Z,,0,,,6756.438999904669,completion,,,,,false,,,,882175,882174.5999999046,875401.518,875484,875418.161,882114.543,8,400,,,
trial,html.Screen,4_71_0,2023-09-08T17:59:40.797Z,,0,2,,7230.957000000053,response,ISIC_5320483.JPG,5,ISIC_6171084.JPG,ISIC_5320483.JPG,false,1,keypress(m),500,889345.7000000477,889345.5,882097.832,882175,882114.543,889295.234,8,400,22,,ISIC_6171084.JPG
break,html.Screen,4_71_1,2023-09-08T17:59:40.798Z,,0,,,NaN,,,,,,false,,,,889347.2999999523,889346.2000000477,,889345.899999857,,889295.234,8,400,,,
break_continue,html.Screen,4_71_2,2023-09-08T17:59:40.799Z,,0,,,NaN,,,,,,false,,,,889347.7000000477,889347.5999999046,,889347.399999857,,889295.234,8,400,,,
sequence,flow.Sequence,4_71,2023-09-08T17:59:40.799Z,,0,,,7233.056999904686,completion,,,,,false,,,,889347.899999857,889347.5999999046,882097.832,882175,882114.543,889295.234,8,400,,,
trial,html.Screen,4_72_0,2023-09-08T17:59:47.729Z,,0,2,,6982.466000047629,response,ISIC_0024441.JPG,5,ISIC_5564757.JPG,ISIC_5564757.JPG,false,0,keypress(z),500,896277.899999857,896277.7000000477,889278.52,889348,889295.234,896225.317,8,400,23,,ISIC_0024441.JPG
break,html.Screen,4_72_1,2023-09-08T17:59:47.730Z,,0,,,NaN,,,,,,false,,,,896278.2999999523,896278.0999999046,,896277.899999857,,896225.317,8,400,,,
break_continue,html.Screen,4_72_2,2023-09-08T17:59:47.730Z,,0,,,NaN,,,,,,false,,,,896278.5999999046,896278.5999999046,,896278.399999857,,896225.317,8,400,,,
sequence,flow.Sequence,4_72,2023-09-08T17:59:47.730Z,,0,,,6983.365999904578,completion,,,,,false,,,,896278.7999999523,896278.5999999046,889278.52,889348,889295.234,896225.317,8,400,,,
trial,html.Screen,4_73_0,2023-09-08T17:59:56.228Z,,0,2,,8550.982999952277,response,ISIC_0028152.JPG,5,ISIC_0068798.JPG,ISIC_0068798.JPG,false,0,keypress(z),500,904776.5,904776.2999999523,896208.704,896278.7999999523,896225.317,904725.287,8,400,24,,ISIC_0028152.JPG
break,html.Screen,4_73_1,2023-09-08T17:59:56.229Z,,0,,,NaN,,,,,,false,,,,904777.0999999046,904777,,904776.7000000477,,904725.287,8,400,,,
break_continue,html.Screen,4_73_2,2023-09-08T17:59:56.229Z,,0,,,NaN,,,,,,false,,,,904777.399999857,904777.2999999523,,904777.2000000477,,904725.287,8,400,,,
sequence,flow.Sequence,4_73,2023-09-08T17:59:56.229Z,,0,,,8551.982999952277,completion,,,,,false,,,,904777.5999999046,904777.2999999523,896208.704,896278.7999999523,896225.317,904725.287,8,400,,,
trial,html.Screen,4_74_0,2023-09-08T18:00:01.736Z,,0,2,,5558.812999904621,response,ISIC_2394780.JPG,5,ISIC_0010734.JPG,ISIC_2394780.JPG,false,1,keypress(m),500,910284.2000000477,910284.0999999046,904708.65,904777.7000000477,904725.287,910219.185,8,400,25,,ISIC_0010734.JPG
break,html.Screen,4_74_1,2023-09-08T18:00:01.736Z,,0,,,NaN,,,,,,false,,,,910284.5999999046,910284.5,,910284.2999999523,,910219.185,8,400,,,
break_continue,html.Screen,4_74_2,2023-09-08T18:00:01.736Z,,0,,,NaN,,,,,,false,,,,910284.7999999523,910284.7000000477,,910284.5999999046,,910219.185,8,400,,,
sequence,flow.Sequence,4_74,2023-09-08T18:00:01.736Z,,0,,,5559.4130000476725,completion,,,,,false,,,,910284.7999999523,910284.7000000477,904708.65,904777.5999999046,904725.287,910219.185,8,400,,,
trial,html.Screen,4_75_0,2023-09-08T18:00:07.743Z,,0,2,,6072.214999856893,response,ISIC_0030563.JPG,4,ISIC_5157775.JPG,ISIC_0030563.JPG,false,1,keypress(m),500,916291.5999999046,916291.399999857,910202.502,910284.899999857,910219.185,916230.954,8,400,26,,ISIC_5157775.JPG
break,html.Screen,4_75_1,2023-09-08T18:00:07.744Z,,0,,,NaN,,,,,,false,,,,916292.2000000477,916292,,916291.7999999523,,916230.954,8,400,,,
break_continue,html.Screen,4_75_2,2023-09-08T18:00:07.744Z,,0,,,NaN,,,,,,false,,,,916292.5,916292.399999857,,916292.2999999523,,916230.954,8,400,,,
sequence,flow.Sequence,4_75,2023-09-08T18:00:07.744Z,,0,,,6073.214999856893,completion,,,,,false,,,,916292.5999999046,916292.399999857,910202.502,910284.899999857,910219.185,916230.954,8,400,,,
trial,html.Screen,4_76_0,2023-09-08T18:00:15.288Z,,0,2,,7605.246000047657,response,ISIC_0032543.JPG,4,ISIC_0032774.JPG,ISIC_0032774.JPG,false,0,keypress(z),500,923836.2000000477,923836.2000000477,916214.223,916292.5999999046,916230.954,923778.916,8,400,27,,ISIC_0032543.JPG
break,html.Screen,4_76_1,2023-09-08T18:00:15.288Z,,0,,,NaN,,,,,,false,,,,923836.7000000477,923836.5,,923836.399999857,,923778.916,8,400,,,
break_continue,html.Screen,4_76_2,2023-09-08T18:00:15.288Z,,0,,,NaN,,,,,,false,,,,923836.899999857,923836.899999857,,923836.7000000477,,923778.916,8,400,,,
sequence,flow.Sequence,4_76,2023-09-08T18:00:15.288Z,,0,,,7605.945999856922,completion,,,,,false,,,,923836.899999857,923836.899999857,916214.223,916292.5999999046,916230.954,923778.916,8,400,,,
trial,html.Screen,4_77_0,2023-09-08T18:00:22.798Z,,0,2,,7567.584000000032,response,ISIC_0911264.JPG,5,ISIC_0027056.JPG,ISIC_0027056.JPG,false,0,keypress(z),500,931346.5999999046,931346.5,923762.222,923837,923778.916,931293.576,8,400,28,,ISIC_0911264.JPG
break,html.Screen,4_77_1,2023-09-08T18:00:22.798Z,,0,,,NaN,,,,,,false,,,,931347,931346.899999857,,931346.7000000477,,931293.576,8,400,,,
break_continue,html.Screen,4_77_2,2023-09-08T18:00:22.799Z,,0,,,NaN,,,,,,false,,,,931347.0999999046,931347,,931347,,931293.576,8,400,,,
sequence,flow.Sequence,4_77,2023-09-08T18:00:22.799Z,,0,,,7568.084000000032,completion,,,,,false,,,,931347.2000000477,931347,923762.222,923837,923778.916,931293.576,8,400,,,
trial,html.Screen,4_78_0,2023-09-08T18:00:29.680Z,,0,2,,6935.223999952315,response,ISIC_4175400.JPG,6,ISIC_7397447.JPG,ISIC_7397447.JPG,false,0,keypress(z),500,938229,938228.7999999523,931276.906,931347.2000000477,931293.576,938173.641,8,400,29,,ISIC_4175400.JPG
break,html.Screen,4_78_1,2023-09-08T18:00:29.681Z,,0,,,NaN,,,,,,false,,,,938229.399999857,938229.2999999523,,938229,,938173.641,8,400,,,
break_continue,html.Screen,4_78_2,2023-09-08T18:00:29.681Z,,0,,,NaN,,,,,,false,,,,938229.5999999046,938229.5,,938229.399999857,,938173.641,8,400,,,
sequence,flow.Sequence,4_78,2023-09-08T18:00:29.681Z,,0,,,6935.923999999999,completion,,,,,false,,,,938229.7000000477,938229.5,931276.906,931347.2000000477,931293.576,938173.641,8,400,,,
trial,html.Screen,4_79_0,2023-09-08T18:00:36.294Z,,0,2,,6668.158999952371,response,ISIC_0063493.JPG,6,ISIC_0028505.JPG,ISIC_0028505.JPG,false,0,keypress(z),500,944842.0999999046,944841.7999999523,938157.181,938229.7999999523,938173.641,944803.211,8,400,30,,ISIC_0063493.JPG
break,html.Screen,4_79_1,2023-09-08T18:00:36.294Z,,0,,,NaN,,,,,,false,,,,944842.7000000477,944842.5,,944842.2999999523,,944803.211,8,400,,,
break_continue,html.Screen,4_79_2,2023-09-08T18:00:36.295Z,,0,,,NaN,,,,,,false,,,,944843.2000000477,944843.0999999046,,944843,,944803.211,8,400,,,
sequence,flow.Sequence,4_79,2023-09-08T18:00:36.295Z,,0,,,6669.4589999046875,completion,,,,,false,,,,944843.2999999523,944843.0999999046,938157.181,938229.7000000477,938173.641,944803.211,8,400,,,
trial,html.Screen,4_80_0,2023-09-08T18:00:42.926Z,,0,2,,6671.688999856939,response,ISIC_0024720.JPG,5,ISIC_4614129.JPG,ISIC_0024720.JPG,false,1,keypress(m),500,951475,951474.899999857,944786.555,944843.399999857,944803.211,951416.135,8,400,31,,ISIC_4614129.JPG
break,html.Screen,4_80_1,2023-09-08T18:00:42.927Z,,0,,,NaN,,,,,,false,,,,951475.5,951475.399999857,,951475.2000000477,,951416.135,8,400,,,
break_continue,html.Screen,4_80_2,2023-09-08T18:00:42.927Z,,0,,,NaN,,,,,,false,,,,951475.899999857,951475.7999999523,,951475.5999999046,,951416.135,8,400,,,
sequence,flow.Sequence,4_80,2023-09-08T18:00:42.927Z,,0,,,6672.588999952306,completion,,,,,false,,,,951476,951475.7999999523,944786.555,944843.399999857,944803.211,951416.135,8,400,,,
trial,html.Screen,4_81_0,2023-09-08T18:00:47.825Z,,0,2,,4956.964999904623,response,ISIC_0027225.JPG,5,ISIC_7203184.JPG,ISIC_0027225.JPG,false,1,keypress(m),500,956373.2000000477,956373.0999999046,951399.509,951476.0999999046,951416.135,956325.618,8,400,32,,ISIC_7203184.JPG
break,html.Screen,4_81_1,2023-09-08T18:00:47.826Z,,0,,,NaN,,,,,,false,,,,956373.5,956373.5,,956373.2999999523,,956325.618,8,400,,,
break_continue,html.Screen,4_81_2,2023-09-08T18:00:47.826Z,,0,,,NaN,,,,,,false,,,,956373.5999999046,956373.5,,956373.5,,956325.618,8,400,,,
sequence,flow.Sequence,4_81,2023-09-08T18:00:47.826Z,,0,,,4957.364999999991,completion,,,,,false,,,,956373.5999999046,956373.5,951399.509,951476.0999999046,951416.135,956325.618,8,400,,,
trial,html.Screen,4_82_0,2023-09-08T18:00:52.979Z,,0,2,,5201.481999904616,response,ISIC_6451703.JPG,6,ISIC_0033166.JPG,ISIC_6451703.JPG,false,1,keypress(m),500,961527.2999999523,961527.0999999046,956309.013,956373.7000000477,956325.618,961469.213,8,400,33,,ISIC_0033166.JPG
break,html.Screen,4_82_1,2023-09-08T18:00:52.980Z,,0,,,NaN,,,,,,false,,,,961527.5,961527.5,,961527.399999857,,961469.213,8,400,,,
break_continue,html.Screen,4_82_2,2023-09-08T18:00:52.980Z,,0,,,NaN,,,,,,false,,,,961527.7000000477,961527.7000000477,,961527.5999999046,,961469.213,8,400,,,
sequence,flow.Sequence,4_82,2023-09-08T18:00:52.980Z,,0,,,5202.082000047667,completion,,,,,false,,,,961527.7000000477,961527.7000000477,956309.013,956373.7000000477,956325.618,961469.213,8,400,,,
trial,html.Screen,4_83_0,2023-09-08T18:00:59.205Z,,0,2,,6283.386999904644,response,ISIC_0071951.JPG,4,ISIC_2909153.JPG,ISIC_0071951.JPG,false,1,keypress(m),500,967752.7999999523,967752.5999999046,961452.421,961527.7999999523,961469.213,967697.706,8,400,34,,ISIC_2909153.JPG
break,html.Screen,4_83_1,2023-09-08T18:00:59.205Z,,0,,,NaN,,,,,,false,,,,967753.0999999046,967753,,967752.899999857,,967697.706,8,400,,,
break_continue,html.Screen,4_83_2,2023-09-08T18:00:59.205Z,,0,,,NaN,,,,,,false,,,,967753.2999999523,967753.2999999523,,967753.2000000477,,967697.706,8,400,,,
sequence,flow.Sequence,4_83,2023-09-08T18:00:59.205Z,,0,,,6284.0869999523275,completion,,,,,false,,,,967753.399999857,967753.2999999523,961452.421,961527.7999999523,961469.213,967697.706,8,400,,,
trial,html.Screen,4_84_0,2023-09-08T18:01:05.367Z,,0,2,,6217.494000047678,response,ISIC_4541530.JPG,4,ISIC_4190900.JPG,ISIC_4190900.JPG,false,0,keypress(z),500,973915.2000000477,973915.2000000477,967681.03,967753.399999857,967697.706,973859.808,8,400,35,,ISIC_4541530.JPG
break,html.Screen,4_84_1,2023-09-08T18:01:05.368Z,,0,,,NaN,,,,,,false,,,,973915.5999999046,973915.5,,973915.399999857,,973859.808,8,400,,,
break_continue,html.Screen,4_84_2,2023-09-08T18:01:05.368Z,,0,,,NaN,,,,,,false,,,,973915.7000000477,973915.7000000477,,973915.5999999046,,973859.808,8,400,,,
sequence,flow.Sequence,4_84,2023-09-08T18:01:05.368Z,,0,,,6217.994000047678,completion,,,,,false,,,,973915.7999999523,973915.7000000477,967681.03,967753.399999857,967697.706,973859.808,8,400,,,
trial,html.Screen,4_85_0,2023-09-08T18:01:11.866Z,,0,2,,6553.991999952355,response,ISIC_0032430.JPG,5,ISIC_0003664.JPG,ISIC_0032430.JPG,false,1,keypress(m),500,980413.899999857,980413.7999999523,973843.013,973915.7999999523,973859.808,980355.762,8,400,36,,ISIC_0003664.JPG
break,html.Screen,4_85_1,2023-09-08T18:01:11.866Z,,0,,,NaN,,,,,,false,,,,980414.2999999523,980414.2000000477,,980414,,980355.762,8,400,,,
break_continue,html.Screen,4_85_2,2023-09-08T18:01:11.867Z,,0,,,NaN,,,,,,false,,,,980414.5999999046,980414.5,,980414.399999857,,980355.762,8,400,,,
sequence,flow.Sequence,4_85,2023-09-08T18:01:11.867Z,,0,,,6554.692000000039,completion,,,,,false,,,,980414.7000000477,980414.5,973843.013,973915.7999999523,973859.808,980355.762,8,400,,,
trial,html.Screen,4_86_0,2023-09-08T18:01:17.759Z,,0,2,,5951.238000000012,response,ISIC_0046405.JPG,5,ISIC_0063601.JPG,ISIC_0063601.JPG,false,0,keypress(z),500,986307,986307,980339.003,980414.7000000477,980355.762,986267.303,8,400,37,,ISIC_0046405.JPG
break,html.Screen,4_86_1,2023-09-08T18:01:17.759Z,,0,,,NaN,,,,,,false,,,,986307.2999999523,986307.2999999523,,986307.2000000477,,986267.303,8,400,,,
break_continue,html.Screen,4_86_2,2023-09-08T18:01:17.760Z,,0,,,NaN,,,,,,false,,,,986307.5,986307.5,,986307.399999857,,986267.303,8,400,,,
sequence,flow.Sequence,4_86,2023-09-08T18:01:17.760Z,,0,,,5951.738000000012,completion,,,,,false,,,,986307.5,986307.5,980339.003,980414.7000000477,980355.762,986267.303,8,400,,,
trial,html.Screen,4_87_0,2023-09-08T18:01:27.537Z,,0,2,,9817.49699995236,response,ISIC_8849818.JPG,5,ISIC_0033439.JPG,ISIC_0033439.JPG,false,0,keypress(z),500,996084.899999857,996084.7999999523,986250.736,986307.5999999046,986267.303,996019.577,8,400,38,,ISIC_8849818.JPG
break,html.Screen,4_87_1,2023-09-08T18:01:27.538Z,,0,,,NaN,,,,,,false,,,,996085.5,996085.399999857,,996085.0999999046,,996019.577,8,400,,,
break_continue,html.Screen,4_87_2,2023-09-08T18:01:27.538Z,,0,,,NaN,,,,,,false,,,,996085.7999999523,996085.7999999523,,996085.5999999046,,996019.577,8,400,,,
sequence,flow.Sequence,4_87,2023-09-08T18:01:27.538Z,,0,,,9818.49699995236,completion,,,,,false,,,,996085.899999857,996085.7999999523,986250.736,986307.5999999046,986267.303,996019.577,8,400,,,
trial,html.Screen,4_88_0,2023-09-08T18:01:33.787Z,,0,2,,6315.3229998569,response,ISIC_0029995.JPG,5,ISIC_0034089.JPG,ISIC_0034089.JPG,false,0,keypress(z),500,1002335,1002334.899999857,996002.936,996086,996019.577,1002281.704,8,400,39,,ISIC_0029995.JPG
break,html.Screen,4_88_1,2023-09-08T18:01:33.788Z,,0,,,NaN,,,,,,false,,,,1002335.5,1002335.2999999523,,1002335.2000000477,,1002281.704,8,400,,,
break_continue,html.Screen,4_88_2,2023-09-08T18:01:33.788Z,,0,,,NaN,,,,,,false,,,,1002335.7999999523,1002335.7999999523,,1002335.5999999046,,1002281.704,8,400,,,
sequence,flow.Sequence,4_88,2023-09-08T18:01:33.788Z,,0,,,6316.222999952268,completion,,,,,false,,,,1002336,1002335.7999999523,996002.936,996086,996019.577,1002281.704,8,400,,,
trial,html.Screen,4_89_0,2023-09-08T18:01:40.735Z,,0,2,,7000.895999904606,response,ISIC_0069620.JPG,5,ISIC_5381712.JPG,ISIC_0069620.JPG,false,1,keypress(m),500,1009282.899999857,1009282.5999999046,1002264.992,1002336,1002281.704,1009245.438,8,400,40,,ISIC_5381712.JPG
break,html.Screen,4_89_1,2023-09-08T18:01:40.736Z,,0,,,NaN,,,,,,false,,,,1009284.0999999046,1009283.7999999523,,1009283.2000000477,,1009245.438,8,400,,,
break_continue,html.Screen,4_89_2,2023-09-08T18:01:40.736Z,,0,,,NaN,,,,,,false,,,,1009284.399999857,1009284.399999857,,1009284.2000000477,,1009245.438,8,400,,,
sequence,flow.Sequence,4_89,2023-09-08T18:01:40.737Z,,0,,,7002.695999856922,completion,,,,,false,,,,1009284.5999999046,1009284.399999857,1002264.992,1002336,1002281.704,1009245.438,8,400,,,
trial,html.Screen,4_90_0,2023-09-08T18:01:45.816Z,,0,2,,5117.961999856983,response,ISIC_0031368.JPG,5,ISIC_9764973.JPG,ISIC_0031368.JPG,false,1,keypress(m),500,1014363.5,1014363.399999857,1009229.758,1009284.7000000477,1009245.438,1014305.177,8,400,41,,ISIC_9764973.JPG
break,html.Screen,4_90_1,2023-09-08T18:01:45.816Z,,0,,,NaN,,,,,,false,,,,1014363.899999857,1014363.7999999523,,1014363.7000000477,,1014305.177,8,400,,,
break_continue,html.Screen,4_90_2,2023-09-08T18:01:45.817Z,,0,,,NaN,,,,,,false,,,,1014364,1014363.899999857,,1014363.899999857,,1014305.177,8,400,,,
sequence,flow.Sequence,4_90,2023-09-08T18:01:45.817Z,,0,,,5118.461999856983,completion,,,,,false,,,,1014364.0999999046,1014363.899999857,1009229.758,1009284.7000000477,1009245.438,1014305.177,8,400,,,
trial,html.Screen,4_91_0,2023-09-08T18:01:51.021Z,,0,2,,5262.722999856924,response,ISIC_2771979.JPG,5,ISIC_0010778.JPG,ISIC_0010778.JPG,false,0,keypress(z),500,1019568.0999999046,1019567.899999857,1014288.607,1014364.0999999046,1014305.177,1019515.27,8,400,42,,ISIC_2771979.JPG
break,html.Screen,4_91_1,2023-09-08T18:01:51.021Z,,0,,,NaN,,,,,,false,,,,1019568.5999999046,1019568.399999857,,1019568.2999999523,,1019515.27,8,400,,,
break_continue,html.Screen,4_91_2,2023-09-08T18:01:51.021Z,,0,,,NaN,,,,,,false,,,,1019568.899999857,1019568.7999999523,,1019568.7999999523,,1019515.27,8,400,,,
sequence,flow.Sequence,4_91,2023-09-08T18:01:51.022Z,,0,,,5263.622999952291,completion,,,,,false,,,,1019569.0999999046,1019568.7999999523,1014288.607,1014364.0999999046,1014305.177,1019515.27,8,400,,,
trial,html.Screen,4_92_0,2023-09-08T18:01:58.708Z,,0,2,,7739.529999952298,response,ISIC_0650126.JPG,6,ISIC_6919856.JPG,ISIC_0650126.JPG,false,1,keypress(m),500,1027255.0999999046,1027254.7999999523,1019498.56,1019569.2000000477,1019515.27,1027196.919,8,400,43,,ISIC_6919856.JPG
break,html.Screen,4_92_1,2023-09-08T18:01:58.709Z,,0,,,NaN,,,,,,false,,,,1027256.0999999046,1027255.7999999523,,1027255.5,,1027196.919,8,400,,,
break_continue,html.Screen,4_92_2,2023-09-08T18:01:58.709Z,,0,,,NaN,,,,,,false,,,,1027256.7000000477,1027256.5,,1027256.2999999523,,1027196.919,8,400,,,
sequence,flow.Sequence,4_92,2023-09-08T18:01:58.710Z,,0,,,7741.229999999981,completion,,,,,false,,,,1027257,1027256.5,1019498.56,1019569.2000000477,1019515.27,1027196.919,8,400,,,
trial,html.Screen,4_93_0,2023-09-08T18:02:05.240Z,,0,2,,6589.980999856954,response,ISIC_0413154.JPG,5,ISIC_2436560.JPG,ISIC_2436560.JPG,false,0,keypress(z),500,1033787,1033786.899999857,1027180.144,1027257.0999999046,1027196.919,1033726.22,8,400,44,,ISIC_0413154.JPG
break,html.Screen,4_93_1,2023-09-08T18:02:05.240Z,,0,,,NaN,,,,,,false,,,,1033787.2999999523,1033787.2999999523,,1033787.2000000477,,1033726.22,8,400,,,
break_continue,html.Screen,4_93_2,2023-09-08T18:02:05.240Z,,0,,,NaN,,,,,,false,,,,1033787.5,1033787.5,,1033787.399999857,,1033726.22,8,400,,,
sequence,flow.Sequence,4_93,2023-09-08T18:02:05.240Z,,0,,,6590.581000000006,completion,,,,,false,,,,1033787.5999999046,1033787.5,1027180.144,1027257,1027196.919,1033726.22,8,400,,,
trial,html.Screen,4_94_0,2023-09-08T18:02:13.693Z,,0,2,,8513.980000047712,response,ISIC_0033662.JPG,5,ISIC_4715386.JPG,ISIC_0033662.JPG,false,1,keypress(m),500,1042240.2999999523,1042240.2000000477,1033709.596,1033787.5999999046,1033726.22,1042192.743,8,400,45,,ISIC_4715386.JPG
break,html.Screen,4_94_1,2023-09-08T18:02:13.694Z,,0,,,NaN,,,,,,false,,,,1042241.0999999046,1042241.0999999046,,1042240.899999857,,1042192.743,8,400,,,
break_continue,html.Screen,4_94_2,2023-09-08T18:02:13.694Z,,0,,,NaN,,,,,,false,,,,1042241.2999999523,1042241.2999999523,,1042241.2000000477,,1042192.743,8,400,,,
sequence,flow.Sequence,4_94,2023-09-08T18:02:13.694Z,,0,,,8515.079999952344,completion,,,,,false,,,,1042241.399999857,1042241.2999999523,1033709.596,1033787.5999999046,1033726.22,1042192.743,8,400,,,
trial,html.Screen,4_95_0,2023-09-08T18:02:20.165Z,,0,2,,6519.156999856932,response,ISIC_4680417.JPG,5,ISIC_0000440.JPG,ISIC_0000440.JPG,false,0,keypress(z),500,1048712,1048711.899999857,1042176.044,1042241.399999857,1042192.743,1048655.314,8,400,46,,ISIC_4680417.JPG
break,html.Screen,4_95_1,2023-09-08T18:02:20.165Z,,0,,,NaN,,,,,,false,,,,1048712.5999999046,1048712.399999857,,1048712.0999999046,,1048655.314,8,400,,,
break_continue,html.Screen,4_95_2,2023-09-08T18:02:20.166Z,,0,,,NaN,,,,,,false,,,,1048713,1048712.7999999523,,1048712.7000000477,,1048655.314,8,400,,,
sequence,flow.Sequence,4_95,2023-09-08T18:02:20.166Z,,0,,,6520.0569999522995,completion,,,,,false,,,,1048713.0999999046,1048712.7999999523,1042176.044,1042241.399999857,1042192.743,1048655.314,8,400,,,
trial,html.Screen,4_96_0,2023-09-08T18:02:25.831Z,,0,2,,5723.085999856936,response,ISIC_0065525.JPG,5,ISIC_0024367.JPG,ISIC_0065525.JPG,false,1,keypress(m),500,1054378.5999999046,1054378.399999857,1048638.618,1048713.2999999523,1048655.314,1054316.303,8,400,47,,ISIC_0024367.JPG
break,html.Screen,4_96_1,2023-09-08T18:02:25.832Z,,0,,,NaN,,,,,,false,,,,1054379.5,1054379.2999999523,,1054378.899999857,,1054316.303,8,400,,,
break_continue,html.Screen,4_96_2,2023-09-08T18:02:25.832Z,,0,,,NaN,,,,,,false,,,,1054379.899999857,1054379.7999999523,,1054379.5999999046,,1054316.303,8,400,,,
sequence,flow.Sequence,4_96,2023-09-08T18:02:25.833Z,,0,,,5724.485999952303,completion,,,,,false,,,,1054380.0999999046,1054379.7999999523,1048638.618,1048713.2000000477,1048655.314,1054316.303,8,400,,,
trial,html.Screen,4_97_0,2023-09-08T18:02:32.475Z,,0,2,,6706.397000047611,response,ISIC_3779424.JPG,5,ISIC_7746479.JPG,ISIC_3779424.JPG,false,1,keypress(m),500,1061022.7999999523,1061022.7000000477,1054299.736,1054380.2999999523,1054316.303,1060962.699,8,400,48,,ISIC_7746479.JPG
break,html.Screen,4_97_1,2023-09-08T18:02:32.476Z,,0,,,NaN,,,,,,false,,,,1061023.2000000477,1061023.2000000477,,1061023,,1060962.699,8,400,,,
break_continue,html.Screen,4_97_2,2023-09-08T18:02:32.476Z,,0,,,NaN,,,,,,false,,,,1061023.399999857,1061023.399999857,,1061023.2999999523,,1060962.699,8,400,,,
sequence,flow.Sequence,4_97,2023-09-08T18:02:32.476Z,,0,,,6707.096999856876,completion,,,,,false,,,,1061023.5,1061023.399999857,1054299.736,1054380.2000000477,1054316.303,1060962.699,8,400,,,
trial,html.Screen,4_98_0,2023-09-08T18:02:37.678Z,,0,2,,5262.40099990461,response,ISIC_0027666.JPG,4,ISIC_0032072.JPG,ISIC_0032072.JPG,false,0,keypress(z),500,1066225.2000000477,1066225.0999999046,1060945.932,1061023.7000000477,1060962.699,1066172.842,8,400,49,,ISIC_0027666.JPG
break,html.Screen,4_98_1,2023-09-08T18:02:37.678Z,,0,,,NaN,,,,,,false,,,,1066225.5999999046,1066225.5999999046,,1066225.399999857,,1066172.842,8,400,,,
break_continue,html.Screen,4_98_2,2023-09-08T18:02:37.678Z,,0,,,NaN,,,,,,false,,,,1066225.7999999523,1066225.7999999523,,1066225.7999999523,,1066172.842,8,400,,,
sequence,flow.Sequence,4_98,2023-09-08T18:02:37.679Z,,0,,,5263.100999952294,completion,,,,,false,,,,1066225.899999857,1066225.7999999523,1060945.932,1061023.5999999046,1060962.699,1066172.842,8,400,,,
trial,html.Screen,4_99_0,2023-09-08T18:02:44.432Z,,0,2,,6806.257999904687,response,ISIC_8691327.JPG,4,ISIC_9864402.JPG,ISIC_8691327.JPG,false,1,keypress(m),500,1072979.0999999046,1072979.0999999046,1066156.043,1066226,1066172.842,1072919.149,8,400,50,,ISIC_9864402.JPG
break,html.Screen,4_99_1,2023-09-08T18:02:54.427Z,,0,,,10002.824999999953,timeout,,,,,false,,,,1082973.5999999046,1082905.279,1072902.508,1072979.2999999523,1072919.149,1082921.974,8,400,,,
break_continue,html.Screen,4_99_2,2023-09-08T18:03:04.155Z,,0,,,9763.125999904703,response,,,,,false,continue,keypress(Space),,1092701.7999999523,1092685.0999999046,1082905.279,1082973.7000000477,1082921.974,1092657.653,8,400,,,
sequence,flow.Sequence,4_99,2023-09-08T18:03:04.155Z,,0,,,26512.257999904687,completion,,,,,false,,,,1092701.899999857,1092685.0999999046,1066156.043,1066226,1066172.842,1092657.653,8,400,,,
trial,html.Screen,4_100_0,2023-09-08T18:03:07.955Z,,0,3,,3843.9469999046996,response,ISIC_6766153.JPG,6,ISIC_5518595.JPG,ISIC_6766153.JPG,false,1,keypress(m),500,1096501.7999999523,1096501.5999999046,1092640.878,1092702,1092657.653,1096465.024,8,400,1,,ISIC_5518595.JPG
break,html.Screen,4_100_1,2023-09-08T18:03:07.956Z,,0,,,NaN,,,,,,false,,,,1096502.5999999046,1096502.2999999523,,1096501.899999857,,1096465.024,8,400,,,
break_continue,html.Screen,4_100_2,2023-09-08T18:03:07.956Z,,0,,,NaN,,,,,,false,,,,1096502.899999857,1096502.7999999523,,1096502.7000000477,,1096465.024,8,400,,,
sequence,flow.Sequence,4_100,2023-09-08T18:03:07.956Z,,0,,,3845.1469999523833,completion,,,,,false,,,,1096503,1096502.7999999523,1092640.878,1092702,1092657.653,1096465.024,8,400,,,
trial,html.Screen,4_101_0,2023-09-08T18:03:13.062Z,,0,3,,5143.976000000024,response,ISIC_0862745.JPG,6,ISIC_0032722.JPG,ISIC_0862745.JPG,false,1,keypress(m),500,1101609.2000000477,1101609,1096448.42,1096503.0999999046,1096465.024,1101558.265,8,400,2,,ISIC_0032722.JPG
break,html.Screen,4_101_1,2023-09-08T18:03:13.063Z,,0,,,NaN,,,,,,false,,,,1101609.5999999046,1101609.399999857,,1101609.2000000477,,1101558.265,8,400,,,
break_continue,html.Screen,4_101_2,2023-09-08T18:03:13.063Z,,0,,,NaN,,,,,,false,,,,1101609.7000000477,1101609.7000000477,,1101609.5999999046,,1101558.265,8,400,,,
sequence,flow.Sequence,4_101,2023-09-08T18:03:13.063Z,,0,,,5144.676000047708,completion,,,,,false,,,,1101609.7999999523,1101609.7000000477,1096448.42,1096503,1096465.024,1101558.265,8,400,,,
trial,html.Screen,4_102_0,2023-09-08T18:03:17.657Z,,0,3,,4645.235000000102,response,ISIC_2440407.JPG,5,ISIC_8427534.JPG,ISIC_2440407.JPG,false,1,keypress(m),500,1106203.5999999046,1106203.5,1101541.628,1101609.899999857,1101558.265,1106150.587,8,400,3,,ISIC_8427534.JPG
break,html.Screen,4_102_1,2023-09-08T18:03:17.657Z,,0,,,NaN,,,,,,false,,,,1106203.899999857,1106203.7999999523,,1106203.7000000477,,1106150.587,8,400,,,
break_continue,html.Screen,4_102_2,2023-09-08T18:03:17.657Z,,0,,,NaN,,,,,,false,,,,1106204,1106204,,1106203.899999857,,1106150.587,8,400,,,
sequence,flow.Sequence,4_102,2023-09-08T18:03:17.657Z,,0,,,4645.735000000102,completion,,,,,false,,,,1106204.0999999046,1106204,1101541.628,1101609.899999857,1101558.265,1106150.587,8,400,,,
trial,html.Screen,4_103_0,2023-09-08T18:03:24.027Z,,0,3,,6423.012999904575,response,ISIC_0069908.JPG,6,ISIC_5552066.JPG,ISIC_5552066.JPG,false,0,keypress(z),500,1112573.7000000477,1112573.5999999046,1106133.954,1106204.0999999046,1106150.587,1112512.979,8,400,4,,ISIC_0069908.JPG
break,html.Screen,4_103_1,2023-09-08T18:03:24.027Z,,0,,,NaN,,,,,,false,,,,1112574.0999999046,1112574,,1112573.7999999523,,1112512.979,8,400,,,
break_continue,html.Screen,4_103_2,2023-09-08T18:03:24.027Z,,0,,,NaN,,,,,,false,,,,1112574.399999857,1112574.2999999523,,1112574.2000000477,,1112512.979,8,400,,,
sequence,flow.Sequence,4_103,2023-09-08T18:03:24.028Z,,0,,,6423.7129999522585,completion,,,,,false,,,,1112574.5,1112574.2999999523,1106133.954,1106204.0999999046,1106150.587,1112512.979,8,400,,,
trial,html.Screen,4_104_0,2023-09-08T18:03:31.725Z,,0,3,,7758.620999904582,response,ISIC_0032993.JPG,5,ISIC_0202119.JPG,ISIC_0032993.JPG,false,1,keypress(m),500,1120271.7999999523,1120271.5999999046,1112496.346,1112574.5999999046,1112512.979,1120211.275,8,400,5,,ISIC_0202119.JPG
break,html.Screen,4_104_1,2023-09-08T18:03:31.725Z,,0,,,NaN,,,,,,false,,,,1120272.2000000477,1120272.0999999046,,1120271.899999857,,1120211.275,8,400,,,
break_continue,html.Screen,4_104_2,2023-09-08T18:03:31.725Z,,0,,,NaN,,,,,,false,,,,1120272.399999857,1120272.2999999523,,1120272.2999999523,,1120211.275,8,400,,,
sequence,flow.Sequence,4_104,2023-09-08T18:03:31.726Z,,0,,,7759.320999952266,completion,,,,,false,,,,1120272.5,1120272.2999999523,1112496.346,1112574.5999999046,1112512.979,1120211.275,8,400,,,
trial,html.Screen,4_105_0,2023-09-08T18:03:37.727Z,,0,3,,6062.824999904726,response,ISIC_8775014.JPG,4,ISIC_3809998.JPG,ISIC_3809998.JPG,false,0,keypress(z),500,1126274.2000000477,1126274.0999999046,1120194.672,1120272.5999999046,1120211.275,1126222.985,8,400,6,,ISIC_8775014.JPG
break,html.Screen,4_105_1,2023-09-08T18:03:37.728Z,,0,,,NaN,,,,,,false,,,,1126274.7000000477,1126274.5999999046,,1126274.2999999523,,1126222.985,8,400,,,
break_continue,html.Screen,4_105_2,2023-09-08T18:03:37.728Z,,0,,,NaN,,,,,,false,,,,1126275,1126274.899999857,,1126274.7999999523,,1126222.985,8,400,,,
sequence,flow.Sequence,4_105,2023-09-08T18:03:37.728Z,,0,,,6063.624999857042,completion,,,,,false,,,,1126275.0999999046,1126274.899999857,1120194.672,1120272.5999999046,1120211.275,1126222.985,8,400,,,
trial,html.Screen,4_106_0,2023-09-08T18:03:45.718Z,,0,3,,8040.61499990453,response,ISIC_0027076.JPG,6,ISIC_7973601.JPG,ISIC_7973601.JPG,false,0,keypress(z),500,1134264,1134263.5999999046,1126206.208,1126275.0999999046,1126222.985,1134205.184,8,400,7,,ISIC_0027076.JPG
break,html.Screen,4_106_1,2023-09-08T18:03:45.719Z,,0,,,NaN,,,,,,false,,,,1134265.2000000477,1134264.899999857,,1134264.5,,1134205.184,8,400,,,
break_continue,html.Screen,4_106_2,2023-09-08T18:03:45.720Z,,0,,,NaN,,,,,,false,,,,1134265.899999857,1134265.7999999523,,1134265.5999999046,,1134205.184,8,400,,,
sequence,flow.Sequence,4_106,2023-09-08T18:03:45.720Z,,0,,,8042.814999952214,completion,,,,,false,,,,1134266.399999857,1134265.7999999523,1126206.208,1126275.0999999046,1126222.985,1134205.184,8,400,,,
trial,html.Screen,4_107_0,2023-09-08T18:03:52.315Z,,0,3,,6656.215999857057,response,ISIC_0033710.JPG,5,ISIC_0626501.JPG,ISIC_0033710.JPG,false,1,keypress(m),500,1140861.5,1140861.399999857,1134188.424,1134267,1134205.184,1140818.013,8,400,8,,ISIC_0626501.JPG
break,html.Screen,4_107_1,2023-09-08T18:03:52.316Z,,0,,,NaN,,,,,,false,,,,1140862.0999999046,1140861.899999857,,1140861.7000000477,,1140818.013,8,400,,,
break_continue,html.Screen,4_107_2,2023-09-08T18:03:52.316Z,,0,,,NaN,,,,,,false,,,,1140862.2999999523,1140862.2000000477,,1140862.0999999046,,1140818.013,8,400,,,
sequence,flow.Sequence,4_107,2023-09-08T18:03:52.316Z,,0,,,6657.016000047792,completion,,,,,false,,,,1140862.2999999523,1140862.2000000477,1134188.424,1134266.7999999523,1134205.184,1140818.013,8,400,,,
trial,html.Screen,4_108_0,2023-09-08T18:03:57.091Z,,0,3,,4819.786999952281,response,ISIC_0032244.JPG,4,ISIC_8679617.JPG,ISIC_0032244.JPG,false,1,keypress(m),500,1145637.899999857,1145637.7999999523,1140801.424,1140862.399999857,1140818.013,1145577.396,8,400,9,,ISIC_8679617.JPG
break,html.Screen,4_108_1,2023-09-08T18:03:57.092Z,,0,,,NaN,,,,,,false,,,,1145638.2000000477,1145638.0999999046,,1145638,,1145577.396,8,400,,,
break_continue,html.Screen,4_108_2,2023-09-08T18:03:57.092Z,,0,,,NaN,,,,,,false,,,,1145638.399999857,1145638.2999999523,,1145638.2000000477,,1145577.396,8,400,,,
sequence,flow.Sequence,4_108,2023-09-08T18:03:57.092Z,,0,,,4820.286999952281,completion,,,,,false,,,,1145638.399999857,1145638.2999999523,1140801.424,1140862.399999857,1140818.013,1145577.396,8,400,,,
trial,html.Screen,4_109_0,2023-09-08T18:04:04.086Z,,0,3,,7054.403999952367,response,ISIC_7108282.JPG,5,ISIC_0806138.JPG,ISIC_7108282.JPG,false,1,keypress(m),500,1152632,1152631.7999999523,1145560.536,1145638.5,1145577.396,1152574.195,8,400,10,,ISIC_0806138.JPG
break,html.Screen,4_109_1,2023-09-08T18:04:04.086Z,,0,,,NaN,,,,,,false,,,,1152632.2999999523,1152632.2000000477,,1152632,,1152574.195,8,400,,,
break_continue,html.Screen,4_109_2,2023-09-08T18:04:04.086Z,,0,,,NaN,,,,,,false,,,,1152632.399999857,1152632.399999857,,1152632.2999999523,,1152574.195,8,400,,,
sequence,flow.Sequence,4_109,2023-09-08T18:04:04.086Z,,0,,,7055.003999856999,completion,,,,,false,,,,1152632.5,1152632.399999857,1145560.536,1145638.399999857,1145577.396,1152574.195,8,400,,,
trial,html.Screen,4_110_0,2023-09-08T18:04:12.424Z,,0,3,,8396.604999952251,response,ISIC_7161069.JPG,5,ISIC_5576354.JPG,ISIC_5576354.JPG,false,0,keypress(z),500,1160970.899999857,1160970.7999999523,1152557.521,1152632.5999999046,1152574.195,1160907.059,8,400,11,,ISIC_7161069.JPG
break,html.Screen,4_110_1,2023-09-08T18:04:12.425Z,,0,,,NaN,,,,,,false,,,,1160971.2999999523,1160971.2000000477,,1160971,,1160907.059,8,400,,,
break_continue,html.Screen,4_110_2,2023-09-08T18:04:12.425Z,,0,,,NaN,,,,,,false,,,,1160971.7000000477,1160971.5,,1160971.399999857,,1160907.059,8,400,,,
sequence,flow.Sequence,4_110,2023-09-08T18:04:12.425Z,,0,,,8397.304999999935,completion,,,,,false,,,,1160971.7000000477,1160971.5,1152557.521,1152632.5999999046,1152574.195,1160907.059,8,400,,,
trial,html.Screen,4_111_0,2023-09-08T18:04:19.230Z,,0,3,,6869.540999904741,response,ISIC_0029630.JPG,4,ISIC_0015185.JPG,ISIC_0029630.JPG,false,1,keypress(m),500,1167776.7999999523,1167776.5999999046,1160890.526,1160971.7999999523,1160907.059,1167720.531,8,400,12,,ISIC_0015185.JPG
break,html.Screen,4_111_1,2023-09-08T18:04:19.231Z,,0,,,NaN,,,,,,false,,,,1167777.2999999523,1167777.2000000477,,1167777,,1167720.531,8,400,,,
break_continue,html.Screen,4_111_2,2023-09-08T18:04:19.231Z,,0,,,NaN,,,,,,false,,,,1167777.5,1167777.399999857,,1167777.399999857,,1167720.531,8,400,,,
sequence,flow.Sequence,4_111,2023-09-08T18:04:19.231Z,,0,,,6870.340999857057,completion,,,,,false,,,,1167777.5999999046,1167777.399999857,1160890.526,1160971.7000000477,1160907.059,1167720.531,8,400,,,
trial,html.Screen,4_112_0,2023-09-08T18:04:25.185Z,,0,3,,6011.268999952357,response,ISIC_0024900.JPG,6,ISIC_7562175.JPG,ISIC_0024900.JPG,false,1,keypress(m),500,1173731.899999857,1173731.7999999523,1167703.625,1167777.5999999046,1167720.531,1173681.93,8,400,13,,ISIC_7562175.JPG
break,html.Screen,4_112_1,2023-09-08T18:04:25.186Z,,0,,,NaN,,,,,,false,,,,1173732.2999999523,1173732.2000000477,,1173732.0999999046,,1173681.93,8,400,,,
break_continue,html.Screen,4_112_2,2023-09-08T18:04:25.186Z,,0,,,NaN,,,,,,false,,,,1173732.5,1173732.399999857,,1173732.2999999523,,1173681.93,8,400,,,
sequence,flow.Sequence,4_112,2023-09-08T18:04:25.186Z,,0,,,6011.86899985699,completion,,,,,false,,,,1173732.5,1173732.399999857,1167703.625,1167777.5999999046,1167720.531,1173681.93,8,400,,,
trial,html.Screen,4_113_0,2023-09-08T18:04:30.563Z,,0,3,,5427.3699999523815,response,ISIC_0305800.JPG,5,ISIC_5316803.JPG,ISIC_5316803.JPG,false,0,keypress(z),500,1179109.5999999046,1179109.2999999523,1173665.206,1173732.5999999046,1173681.93,1179059.02,8,400,14,,ISIC_0305800.JPG
break,html.Screen,4_113_1,2023-09-08T18:04:30.564Z,,0,,,NaN,,,,,,false,,,,1179110.399999857,1179110,,1179109.7999999523,,1179059.02,8,400,,,
break_continue,html.Screen,4_113_2,2023-09-08T18:04:30.564Z,,0,,,NaN,,,,,,false,,,,1179110.7000000477,1179110.5999999046,,1179110.5,,1179059.02,8,400,,,
sequence,flow.Sequence,4_113,2023-09-08T18:04:30.564Z,,0,,,5428.669999904698,completion,,,,,false,,,,1179110.899999857,1179110.5999999046,1173665.206,1173732.5,1173681.93,1179059.02,8,400,,,
trial,html.Screen,4_114_0,2023-09-08T18:04:35.926Z,,0,3,,5413.37999985693,response,ISIC_4960784.JPG,5,ISIC_3666094.JPG,ISIC_4960784.JPG,false,1,keypress(m),500,1184472.5999999046,1184472.399999857,1179042.493,1179110.899999857,1179059.02,1184419.568,8,400,15,,ISIC_3666094.JPG
break,html.Screen,4_114_1,2023-09-08T18:04:35.927Z,,0,,,NaN,,,,,,false,,,,1184473.2999999523,1184473.0999999046,,1184472.7999999523,,1184419.568,8,400,,,
break_continue,html.Screen,4_114_2,2023-09-08T18:04:35.927Z,,0,,,NaN,,,,,,false,,,,1184473.7000000477,1184473.5999999046,,1184473.5,,1184419.568,8,400,,,
sequence,flow.Sequence,4_114,2023-09-08T18:04:35.927Z,,0,,,5414.579999904614,completion,,,,,false,,,,1184473.7999999523,1184473.5999999046,1179042.493,1179110.899999857,1179059.02,1184419.568,8,400,,,
trial,html.Screen,4_115_0,2023-09-08T18:04:40.941Z,,0,3,,5067.331999856979,response,ISIC_0029732.JPG,5,ISIC_0033125.JPG,ISIC_0033125.JPG,false,0,keypress(z),500,1189487,1189486.899999857,1184402.942,1184474,1184419.568,1189429.332,8,400,16,,ISIC_0029732.JPG
break,html.Screen,4_115_1,2023-09-08T18:04:40.941Z,,0,,,NaN,,,,,,false,,,,1189487.399999857,1189487.2000000477,,1189487.0999999046,,1189429.332,8,400,,,
break_continue,html.Screen,4_115_2,2023-09-08T18:04:40.941Z,,0,,,NaN,,,,,,false,,,,1189487.5999999046,1189487.5,,1189487.5,,1189429.332,8,400,,,
sequence,flow.Sequence,4_115,2023-09-08T18:04:40.941Z,,0,,,5067.93200000003,completion,,,,,false,,,,1189487.7000000477,1189487.5,1184402.942,1184473.899999857,1184419.568,1189429.332,8,400,,,
trial,html.Screen,4_116_0,2023-09-08T18:04:47.682Z,,0,3,,6798.567999857012,response,ISIC_0029881.JPG,4,ISIC_2729109.JPG,ISIC_0029881.JPG,false,1,keypress(m),500,1196228.0999999046,1196227.899999857,1189412.541,1189487.7000000477,1189429.332,1196175.786,8,400,17,,ISIC_2729109.JPG
break,html.Screen,4_116_1,2023-09-08T18:04:47.683Z,,0,,,NaN,,,,,,false,,,,1196228.899999857,1196228.5999999046,,1196228.2999999523,,1196175.786,8,400,,,
break_continue,html.Screen,4_116_2,2023-09-08T18:04:47.683Z,,0,,,NaN,,,,,,false,,,,1196229.399999857,1196229.2000000477,,1196229,,1196175.786,8,400,,,
sequence,flow.Sequence,4_116,2023-09-08T18:04:47.684Z,,0,,,6799.868000047747,completion,,,,,false,,,,1196229.7000000477,1196229.2000000477,1189412.541,1189487.7000000477,1189429.332,1196175.786,8,400,,,
trial,html.Screen,4_117_0,2023-09-08T18:04:54.758Z,,0,3,,7128.013999952236,response,ISIC_6523459.JPG,5,ISIC_0027431.JPG,ISIC_6523459.JPG,false,1,keypress(m),500,1203304.0999999046,1203303.7999999523,1196159.176,1196229.7999999523,1196175.786,1203239.463,8,400,18,,ISIC_0027431.JPG
break,html.Screen,4_117_1,2023-09-08T18:04:54.759Z,,0,,,NaN,,,,,,false,,,,1203305,1203304.7000000477,,1203304.399999857,,1203239.463,8,400,,,
break_continue,html.Screen,4_117_2,2023-09-08T18:04:54.759Z,,0,,,NaN,,,,,,false,,,,1203305.2999999523,1203305.2000000477,,1203305,,1203239.463,8,400,,,
sequence,flow.Sequence,4_117,2023-09-08T18:04:54.760Z,,0,,,7129.414000047604,completion,,,,,false,,,,1203305.5999999046,1203305.2000000477,1196159.176,1196229.7999999523,1196175.786,1203239.463,8,400,,,
trial,html.Screen,4_118_0,2023-09-08T18:05:00.507Z,,0,3,,5813.43699985696,response,ISIC_0061491.JPG,4,ISIC_0060705.JPG,ISIC_0061491.JPG,false,1,keypress(m),500,1209053,1209052.899999857,1203222.846,1203305.7999999523,1203239.463,1209017.334,8,400,19,,ISIC_0060705.JPG
break,html.Screen,4_118_1,2023-09-08T18:05:00.507Z,,0,,,NaN,,,,,,false,,,,1209053.399999857,1209053.2999999523,,1209053.0999999046,,1209017.334,8,400,,,
break_continue,html.Screen,4_118_2,2023-09-08T18:05:00.508Z,,0,,,NaN,,,,,,false,,,,1209053.5999999046,1209053.5,,1209053.5,,1209017.334,8,400,,,
sequence,flow.Sequence,4_118,2023-09-08T18:05:00.508Z,,0,,,5814.037000000011,completion,,,,,false,,,,1209053.7000000477,1209053.5,1203222.846,1203305.7000000477,1203239.463,1209017.334,8,400,,,
trial,html.Screen,4_119_0,2023-09-08T18:05:07.614Z,,0,3,,7142.065999856917,response,ISIC_0055378.JPG,5,ISIC_0016123.JPG,ISIC_0055378.JPG,false,1,keypress(m),500,1216159.5999999046,1216159.399999857,1209000.667,1209053.7999999523,1209017.334,1216114.487,8,400,20,,ISIC_0016123.JPG
break,html.Screen,4_119_1,2023-09-08T18:05:07.614Z,,0,,,NaN,,,,,,false,,,,1216160.0999999046,1216159.899999857,,1216159.5999999046,,1216114.487,8,400,,,
break_continue,html.Screen,4_119_2,2023-09-08T18:05:07.615Z,,0,,,NaN,,,,,,false,,,,1216160.5,1216160.2999999523,,1216160.2000000477,,1216114.487,8,400,,,
sequence,flow.Sequence,4_119,2023-09-08T18:05:07.615Z,,0,,,7142.965999952285,completion,,,,,false,,,,1216160.5999999046,1216160.2999999523,1209000.667,1209053.7000000477,1209017.334,1216114.487,8,400,,,
trial,html.Screen,4_120_0,2023-09-08T18:05:15.776Z,,0,3,,8207.612999904668,response,ISIC_0061643.JPG,4,ISIC_3586824.JPG,ISIC_0061643.JPG,false,1,keypress(m),500,1224322.2999999523,1224322.0999999046,1216097.831,1216160.7000000477,1216114.487,1224263.678,8,400,21,,ISIC_3586824.JPG
break,html.Screen,4_120_1,2023-09-08T18:05:15.777Z,,0,,,NaN,,,,,,false,,,,1224322.7999999523,1224322.5999999046,,1224322.399999857,,1224263.678,8,400,,,
break_continue,html.Screen,4_120_2,2023-09-08T18:05:15.777Z,,0,,,NaN,,,,,,false,,,,1224323,1224322.899999857,,1224322.7999999523,,1224263.678,8,400,,,
sequence,flow.Sequence,4_120,2023-09-08T18:05:15.777Z,,0,,,8208.412999856984,completion,,,,,false,,,,1224323.0999999046,1224322.899999857,1216097.831,1216160.5999999046,1216114.487,1224263.678,8,400,,,
trial,html.Screen,4_121_0,2023-09-08T18:05:23.544Z,,0,3,,7825.821999999927,response,ISIC_0071289.JPG,6,ISIC_8733745.JPG,ISIC_0071289.JPG,false,1,keypress(m),500,1232089.5999999046,1232089.5,1224246.968,1224323.2000000477,1224263.678,1232028.875,8,400,22,,ISIC_8733745.JPG
break,html.Screen,4_121_1,2023-09-08T18:05:23.544Z,,0,,,NaN,,,,,,false,,,,1232090.0999999046,1232089.899999857,,1232089.7999999523,,1232028.875,8,400,,,
break_continue,html.Screen,4_121_2,2023-09-08T18:05:23.545Z,,0,,,NaN,,,,,,false,,,,1232090.5999999046,1232090.399999857,,1232090.2999999523,,1232028.875,8,400,,,
sequence,flow.Sequence,4_121,2023-09-08T18:05:23.545Z,,0,,,7826.721999856876,completion,,,,,false,,,,1232090.7000000477,1232090.399999857,1224246.968,1224323.2000000477,1224263.678,1232028.875,8,400,,,
trial,html.Screen,4_122_0,2023-09-08T18:05:29.834Z,,0,3,,6350.924999952316,response,ISIC_0058823.JPG,5,ISIC_0024232.JPG,ISIC_0024232.JPG,false,0,keypress(z),500,1238379.899999857,1238379.7999999523,1232012.143,1232090.7999999523,1232028.875,1238324.347,8,400,23,,ISIC_0058823.JPG
break,html.Screen,4_122_1,2023-09-08T18:05:29.834Z,,0,,,NaN,,,,,,false,,,,1238380.2000000477,1238380.2000000477,,1238380,,1238324.347,8,400,,,
break_continue,html.Screen,4_122_2,2023-09-08T18:05:29.834Z,,0,,,NaN,,,,,,false,,,,1238380.399999857,1238380.399999857,,1238380.2999999523,,1238324.347,8,400,,,
sequence,flow.Sequence,4_122,2023-09-08T18:05:29.835Z,,0,,,6351.524999856949,completion,,,,,false,,,,1238380.5,1238380.399999857,1232012.143,1232090.7999999523,1232028.875,1238324.347,8,400,,,
trial,html.Screen,4_123_0,2023-09-08T18:05:35.486Z,,0,3,,5707.652999999933,response,ISIC_6105084.JPG,4,ISIC_0066053.JPG,ISIC_0066053.JPG,false,0,keypress(z),500,1244032.2000000477,1244032,1238307.662,1238380.5,1238324.347,1243968.7,8,400,24,,ISIC_6105084.JPG
break,html.Screen,4_123_1,2023-09-08T18:05:35.487Z,,0,,,NaN,,,,,,false,,,,1244032.7000000477,1244032.5999999046,,1244032.399999857,,1243968.7,8,400,,,
break_continue,html.Screen,4_123_2,2023-09-08T18:05:35.487Z,,0,,,NaN,,,,,,false,,,,1244032.7999999523,1244032.7999999523,,1244032.7999999523,,1243968.7,8,400,,,
sequence,flow.Sequence,4_123,2023-09-08T18:05:35.487Z,,0,,,5708.452999952249,completion,,,,,false,,,,1244032.899999857,1244032.7999999523,1238307.662,1238380.5,1238324.347,1243968.7,8,400,,,
trial,html.Screen,4_124_0,2023-09-08T18:05:41.344Z,,0,3,,5921.199999856995,response,ISIC_0032687.JPG,5,ISIC_2123159.JPG,ISIC_0032687.JPG,false,1,keypress(m),500,1249890.0999999046,1249889.899999857,1243952.197,1244032.899999857,1243968.7,1249830.215,8,400,25,,ISIC_2123159.JPG
break,html.Screen,4_124_1,2023-09-08T18:05:41.344Z,,0,,,NaN,,,,,,false,,,,1249890.399999857,1249890.2999999523,,1249890.2000000477,,1249830.215,8,400,,,
break_continue,html.Screen,4_124_2,2023-09-08T18:05:41.345Z,,0,,,NaN,,,,,,false,,,,1249890.5,1249890.399999857,,1249890.399999857,,1249830.215,8,400,,,
sequence,flow.Sequence,4_124,2023-09-08T18:05:41.345Z,,0,,,5921.699999856995,completion,,,,,false,,,,1249890.5999999046,1249890.399999857,1243952.197,1244032.899999857,1243968.7,1249830.215,8,400,,,
trial,html.Screen,4_125_0,2023-09-08T18:05:48.979Z,,0,3,,7694.184999856865,response,ISIC_0062048.JPG,5,ISIC_4533833.JPG,ISIC_0062048.JPG,false,1,keypress(m),500,1257524.5,1257524.399999857,1249813.521,1249890.5999999046,1249830.215,1257461.657,8,400,26,,ISIC_4533833.JPG
break,html.Screen,4_125_1,2023-09-08T18:05:48.979Z,,0,,,NaN,,,,,,false,,,,1257524.899999857,1257524.899999857,,1257524.5999999046,,1257461.657,8,400,,,
break_continue,html.Screen,4_125_2,2023-09-08T18:05:48.980Z,,0,,,NaN,,,,,,false,,,,1257525.5999999046,1257525.5999999046,,1257525.5,,1257461.657,8,400,,,
sequence,flow.Sequence,4_125,2023-09-08T18:05:48.980Z,,0,,,7695.384999904549,completion,,,,,false,,,,1257525.7000000477,1257525.5999999046,1249813.521,1249890.5999999046,1249830.215,1257461.657,8,400,,,
