sender,sender_type,sender_id,timestamp,meta,,blockNo,condition,duration,ended_on,img_left,img_reveal,img_right,loser,practice,response,response_action,selection_duration,time_commit,time_end,time_render,time_run,time_show,time_switch,total_blocks,total_trials,trialNo,url,winner
informed_consent,html.Screen,0,2023-09-11T19:04:16.156Z,"{""labjs_version"":""20.2.4"",""labjs_build"":{""flavor"":""development"",""commit"":""f5b4a49f956347addd546a832a3327688c2c0fef""},""location"":""https://labjs.felixhenninger.com/api/labjs_preview/index.html"",""userAgent"":""Mozilla/5.0 (Windows NT 10.0; Win64; x64) AppleWebKit/537.36 (KHTML, like Gecko) Chrome/116.0.0.0 Safari/537.36"",""platform"":""Win32"",""language"":""en-AU"",""locale"":""en-US"",""timeZone"":""America/Chicago"",""timezoneOffset"":300,""screen_width"":1680,""screen_height"":1050,""scroll_width"":1296,""scroll_height"":688,""window_innerWidth"":1296,""window_innerHeight"":736,""devicePixelRatio"":1}",,,,3024.8700000953677,response,,,,,,consent,click button,,3581.9000000953674,3580.9000000953674,539.457,555.8000001907349,556.03,3595.346,,,,{},
Welcome,html.Screen,1,2023-09-11T19:05:05.749Z,,,,colourful,49577.354000286105,response,,,,,,continue,click button,,53173.40000009537,53172.7000002861,3578.646,3582.0999999046326,3595.346,53175.114,,,,,
trial,html.Screen,2_0_0,2023-09-11T19:05:11.241Z,,0,0,,5489.485999904631,response,ISIC_0063388.JPG,,ISIC_0025593.JPG,ISIC_0063388.JPG,true,1,keypress(m),500,58664.800000190735,58664.59999990463,53158.414,53173.59999990463,53175.114,58669.105,1,6,1,,ISIC_0025593.JPG
sequence,flow.Sequence,2_0,2023-09-11T19:05:11.241Z,,0,,,5489.485999904631,completion,,,,,true,,,,58665.09999990463,58664.59999990463,53158.414,53173.5,53175.114,58669.105,1,6,,,
trial,html.Screen,2_1_0,2023-09-11T19:05:15.740Z,,0,0,,4494.894999999997,response,ISIC_0028178.JPG,,ISIC_1309015.JPG,ISIC_1309015.JPG,true,0,keypress(z),500,63164.2000002861,63164,58652.351,58665.2000002861,58669.105,63177.971,1,6,2,,ISIC_0028178.JPG
sequence,flow.Sequence,2_1,2023-09-11T19:05:15.740Z,,0,,,4494.894999999997,completion,,,,,true,,,,63164.300000190735,63164,58652.351,58665.2000002861,58669.105,63177.971,1,6,,,
trial,html.Screen,2_2_0,2023-09-11T19:05:18.882Z,,0,0,,3127.628999904635,response,ISIC_3314853.JPG,,ISIC_0031128.JPG,ISIC_3314853.JPG,true,1,keypress(m),500,66306,66305.59999990463,63161.261,63164.40000009537,63177.971,66317.414,1,6,3,,ISIC_0031128.JPG
sequence,flow.Sequence,2_2,2023-09-11T19:05:18.882Z,,0,,,3127.628999904635,completion,,,,,true,,,,66306.30000019073,66305.59999990463,63161.261,63164.40000009537,63177.971,66317.414,1,6,,,
trial,html.Screen,2_3_0,2023-09-11T19:05:22.100Z,,0,0,,3206.486000095363,response,ISIC_0031612.JPG,,ISIC_8980141.JPG,ISIC_8980141.JPG,true,0,keypress(z),500,69524.09999990463,69523.90000009537,66300.695,66306.40000009537,66317.414,69540.291,1,6,4,,ISIC_0031612.JPG
sequence,flow.Sequence,2_3,2023-09-11T19:05:22.100Z,,0,,,3206.486000095363,completion,,,,,true,,,,69524.5,69523.90000009537,66300.695,66306.40000009537,66317.414,69540.291,1,6,,,
trial,html.Screen,2_4_0,2023-09-11T19:05:25.430Z,,0,0,,3313.308999904635,response,ISIC_1197737.JPG,,ISIC_9721604.JPG,ISIC_9721604.JPG,true,0,keypress(z),500,72853.80000019073,72853.59999990463,69523.651,69524.7000002861,69540.291,72863.367,1,6,5,,ISIC_1197737.JPG
sequence,flow.Sequence,2_4,2023-09-11T19:05:25.430Z,,0,,,3313.308999904635,completion,,,,,true,,,,72854,72853.59999990463,69523.651,69524.59999990463,69540.291,72863.367,1,6,,,
trial,html.Screen,2_5_0,2023-09-11T19:05:31.528Z,,0,0,,6088.333000286104,response,ISIC_0025346.JPG,,ISIC_0010681.JPG,ISIC_0025346.JPG,true,1,keypress(m),500,78951.90000009537,78951.7000002861,72846.772,72854.2000002861,72863.367,78958.609,1,6,6,,ISIC_0010681.JPG
sequence,flow.Sequence,2_5,2023-09-11T19:05:31.528Z,,0,,,6088.333000286104,completion,,,,,true,,,,78952.09999990463,78951.7000002861,72846.772,72854.2000002861,72863.367,78958.609,1,6,,,
loop,flow.Loop,2,2023-09-11T19:05:31.528Z,,,,,25776.5860002861,completion,,,,,true,,,,78952.2000002861,78951.7000002861,53158.414,53173.5,53175.114,78958.609,1,6,,,
exp_instructions,html.Screen,3,2023-09-11T19:05:35.291Z,,,,,3755.3910000000033,response,,,,,,continue,keypress(Space),,82715.2000002861,82714,78941.968,78952.2000002861,78958.609,82732.637,,,,,
trial,html.Screen,4_0_0,2023-09-11T19:05:42.983Z,,0,1,,7674.0630002861,response,ISIC_0205127.JPG,6,ISIC_1169724.JPG,ISIC_0205127.JPG,false,1,keypress(m),500,90406.90000009537,90406.7000002861,82716.016,82715.7000002861,82732.637,90414.193,8,400,1,,ISIC_1169724.JPG
break,html.Screen,4_0_1,2023-09-11T19:05:42.984Z,,0,,,NaN,,,,,,false,,,,90408,90407.7000002861,,90407.09999990463,,90414.193,8,400,,,
break_continue,html.Screen,4_0_2,2023-09-11T19:05:42.984Z,,0,,,NaN,,,,,,false,,,,90408.59999990463,90408.5,,90408.2000002861,,90414.193,8,400,,,
sequence,flow.Sequence,4_0,2023-09-11T19:05:42.985Z,,0,,,7675.862999999998,completion,,,,,false,,,,90408.7000002861,90408.5,82716.016,82715.7000002861,82732.637,90414.193,8,400,,,
trial,html.Screen,4_1_0,2023-09-11T19:05:47.211Z,,0,1,,4220.707000095368,response,ISIC_0015245.JPG,5,ISIC_5046340.JPG,ISIC_5046340.JPG,false,0,keypress(z),500,94635,94634.90000009537,90397.655,90408.90000009537,90414.193,94639.119,8,400,2,,ISIC_0015245.JPG
break,html.Screen,4_1_1,2023-09-11T19:05:47.212Z,,0,,,NaN,,,,,,false,,,,94635.59999990463,94635.40000009537,,94635.2000002861,,94639.119,8,400,,,
break_continue,html.Screen,4_1_2,2023-09-11T19:05:47.212Z,,0,,,NaN,,,,,,false,,,,94636,94635.90000009537,,94635.7000002861,,94639.119,8,400,,,
sequence,flow.Sequence,4_1,2023-09-11T19:05:47.212Z,,0,,,4221.707000095368,completion,,,,,false,,,,94636,94635.90000009537,90397.655,90408.90000009537,90414.193,94639.119,8,400,,,
trial,html.Screen,4_2_0,2023-09-11T19:05:52.653Z,,0,1,,5438.181000190729,response,ISIC_0065943.JPG,6,ISIC_5240387.JPG,ISIC_0065943.JPG,false,1,keypress(m),500,100077.59999990463,100077.30000019073,94622.614,94636.2000002861,94639.119,100083.069,8,400,3,,ISIC_5240387.JPG
break,html.Screen,4_2_1,2023-09-11T19:05:52.655Z,,0,,,NaN,,,,,,false,,,,100078.7000002861,100078.40000009537,,100077.90000009537,,100083.069,8,400,,,
break_continue,html.Screen,4_2_2,2023-09-11T19:05:52.655Z,,0,,,NaN,,,,,,false,,,,100079.30000019073,100079.2000002861,,100078.90000009537,,100083.069,8,400,,,
sequence,flow.Sequence,4_2,2023-09-11T19:05:52.655Z,,0,,,5440.081000286096,completion,,,,,false,,,,100079.40000009537,100079.2000002861,94622.614,94636.09999990463,94639.119,100083.069,8,400,,,
trial,html.Screen,4_3_0,2023-09-11T19:05:57.041Z,,0,1,,4382.131000286099,response,ISIC_3084322.JPG,5,ISIC_0070782.JPG,ISIC_3084322.JPG,false,1,keypress(m),500,104465.5,104465.2000002861,100066.324,100079.5,100083.069,104474.982,8,400,4,,ISIC_0070782.JPG
break,html.Screen,4_3_1,2023-09-11T19:05:57.042Z,,0,,,NaN,,,,,,false,,,,104466.09999990463,104466,,104465.59999990463,,104474.982,8,400,,,
break_continue,html.Screen,4_3_2,2023-09-11T19:05:57.042Z,,0,,,NaN,,,,,,false,,,,104466.40000009537,104466.40000009537,,104466.2000002861,,104474.982,8,400,,,
sequence,flow.Sequence,4_3,2023-09-11T19:05:57.042Z,,0,,,4383.331000095364,completion,,,,,false,,,,104466.59999990463,104466.40000009537,100066.324,100079.5,100083.069,104474.982,8,400,,,
trial,html.Screen,4_4_0,2023-09-11T19:06:01.707Z,,0,1,,4654.818000190731,response,ISIC_1254469.JPG,6,ISIC_0033655.JPG,ISIC_1254469.JPG,false,1,keypress(m),500,109129.90000009537,109129.80000019073,104458.324,104466.59999990463,104474.982,109134.009,8,400,5,,ISIC_0033655.JPG
break,html.Screen,4_4_1,2023-09-11T19:06:01.708Z,,0,,,NaN,,,,,,false,,,,109130.7000002861,109130.40000009537,,109130.09999990463,,109134.009,8,400,,,
break_continue,html.Screen,4_4_2,2023-09-11T19:06:01.708Z,,0,,,NaN,,,,,,false,,,,109130.90000009537,109130.90000009537,,109130.7000002861,,109134.009,8,400,,,
sequence,flow.Sequence,4_4,2023-09-11T19:06:01.708Z,,0,,,4655.918000095364,completion,,,,,false,,,,109131.09999990463,109130.90000009537,104458.324,104466.59999990463,104474.982,109134.009,8,400,,,
trial,html.Screen,4_5_0,2023-09-11T19:06:06.431Z,,0,1,,4719.590999904627,response,ISIC_0057539.JPG,5,ISIC_9555580.JPG,ISIC_9555580.JPG,false,0,keypress(z),500,113853.7000002861,113853.59999990463,109117.381,109131.2000002861,109134.009,113859.813,8,400,6,,ISIC_0057539.JPG
break,html.Screen,4_5_1,2023-09-11T19:06:06.432Z,,0,,,NaN,,,,,,false,,,,113854.30000019073,113854.09999990463,,113853.80000019073,,113859.813,8,400,,,
break_continue,html.Screen,4_5_2,2023-09-11T19:06:06.432Z,,0,,,NaN,,,,,,false,,,,113854.7000002861,113854.59999990463,,113854.5,,113859.813,8,400,,,
sequence,flow.Sequence,4_5,2023-09-11T19:06:06.432Z,,0,,,4720.590999904627,completion,,,,,false,,,,113854.80000019073,113854.59999990463,109117.381,109131.09999990463,109134.009,113859.813,8,400,,,
trial,html.Screen,4_6_0,2023-09-11T19:06:14.067Z,,0,1,,7629.98700019074,response,ISIC_0046659.JPG,4,ISIC_5765854.JPG,ISIC_5765854.JPG,false,0,keypress(z),500,121490.2000002861,121489.80000019073,113843.24,113854.80000019073,113859.813,121491.609,8,400,7,,ISIC_0046659.JPG
break,html.Screen,4_6_1,2023-09-11T19:06:14.070Z,,0,,,NaN,,,,,,false,,,,121492.7000002861,121491.5,,121490.59999990463,,121491.609,8,400,,,
break_continue,html.Screen,4_6_2,2023-09-11T19:06:14.072Z,,0,,,NaN,,,,,,false,,,,121495.09999990463,121494.59999990463,,121493.09999990463,,121491.609,8,400,,,
sequence,flow.Sequence,4_6,2023-09-11T19:06:14.073Z,,0,,,7634.786999904638,completion,,,,,false,,,,121496,121494.59999990463,113843.24,113854.80000019073,113859.813,121491.609,8,400,,,
trial,html.Screen,4_7_0,2023-09-11T19:06:18.988Z,,0,1,,4919.391000000003,response,ISIC_0030087.JPG,5,ISIC_2801008.JPG,ISIC_2801008.JPG,false,0,keypress(z),500,126411.09999990463,126411,121474.712,121496.5,121491.609,126417.586,8,400,8,,ISIC_0030087.JPG
break,html.Screen,4_7_1,2023-09-11T19:06:18.989Z,,0,,,NaN,,,,,,false,,,,126411.7000002861,126411.5,,126411.2000002861,,126417.586,8,400,,,
break_continue,html.Screen,4_7_2,2023-09-11T19:06:18.989Z,,0,,,NaN,,,,,,false,,,,126412,126411.90000009537,,126411.80000019073,,126417.586,8,400,,,
sequence,flow.Sequence,4_7,2023-09-11T19:06:18.989Z,,0,,,4920.291000095371,completion,,,,,false,,,,126412.2000002861,126411.90000009537,121474.712,121496.30000019073,121491.609,126417.586,8,400,,,
trial,html.Screen,4_8_0,2023-09-11T19:06:24.704Z,,0,1,,5709.114000286107,response,ISIC_0003345.JPG,6,ISIC_7806612.JPG,ISIC_0003345.JPG,false,1,keypress(m),500,132126.80000019073,132126.7000002861,126401.02,126412.30000019073,126417.586,132128.742,8,400,9,,ISIC_7806612.JPG
break,html.Screen,4_8_1,2023-09-11T19:06:24.705Z,,0,,,NaN,,,,,,false,,,,132127.40000009537,132127.2000002861,,132127,,132128.742,8,400,,,
break_continue,html.Screen,4_8_2,2023-09-11T19:06:24.705Z,,0,,,NaN,,,,,,false,,,,132127.5,132127.5,,132127.40000009537,,132128.742,8,400,,,
sequence,flow.Sequence,4_8,2023-09-11T19:06:24.705Z,,0,,,5709.914000000004,completion,,,,,false,,,,132127.7000002861,132127.5,126401.02,126412.30000019073,126417.586,132128.742,8,400,,,
trial,html.Screen,4_9_0,2023-09-11T19:06:29.910Z,,0,1,,5203.958000286104,response,ISIC_0422299.JPG,5,ISIC_0029017.JPG,ISIC_0422299.JPG,false,1,keypress(m),500,137332.80000019073,137332.7000002861,132112.13,132127.80000019073,132128.742,137338.883,8,400,10,,ISIC_0029017.JPG
break,html.Screen,4_9_1,2023-09-11T19:06:29.911Z,,0,,,NaN,,,,,,false,,,,137333.30000019073,137333.2000002861,,137332.90000009537,,137338.883,8,400,,,
break_continue,html.Screen,4_9_2,2023-09-11T19:06:29.911Z,,0,,,NaN,,,,,,false,,,,137333.59999990463,137333.5,,137333.40000009537,,137338.883,8,400,,,
sequence,flow.Sequence,4_9,2023-09-11T19:06:29.911Z,,0,,,5204.758000000002,completion,,,,,false,,,,137333.59999990463,137333.5,132112.13,132127.80000019073,132128.742,137338.883,8,400,,,
trial,html.Screen,4_10_0,2023-09-11T19:06:34.972Z,,0,1,,5056.017000095366,response,ISIC_5383064.JPG,5,ISIC_0057169.JPG,ISIC_5383064.JPG,false,1,keypress(m),500,142395,142394.90000009537,137322.276,137333.7000002861,137338.883,142398.779,8,400,11,,ISIC_0057169.JPG
break,html.Screen,4_10_1,2023-09-11T19:06:34.973Z,,0,,,NaN,,,,,,false,,,,142395.40000009537,142395.30000019073,,142395.09999990463,,142398.779,8,400,,,
break_continue,html.Screen,4_10_2,2023-09-11T19:06:34.973Z,,0,,,NaN,,,,,,false,,,,142395.59999990463,142395.59999990463,,142395.5,,142398.779,8,400,,,
sequence,flow.Sequence,4_10,2023-09-11T19:06:34.973Z,,0,,,5056.716999904631,completion,,,,,false,,,,142395.7000002861,142395.59999990463,137322.276,137333.7000002861,137338.883,142398.779,8,400,,,
trial,html.Screen,4_11_0,2023-09-11T19:06:40.959Z,,0,1,,5983.22099999999,response,ISIC_0028041.JPG,5,ISIC_4088444.JPG,ISIC_4088444.JPG,false,0,keypress(z),500,148382.2000002861,148382,142382.127,142395.7000002861,142398.779,148393.698,8,400,12,,ISIC_0028041.JPG
break,html.Screen,4_11_1,2023-09-11T19:06:40.960Z,,0,,,NaN,,,,,,false,,,,148382.59999990463,148382.5,,148382.2000002861,,148393.698,8,400,,,
break_continue,html.Screen,4_11_2,2023-09-11T19:06:40.960Z,,0,,,NaN,,,,,,false,,,,148382.90000009537,148382.80000019073,,148382.80000019073,,148393.698,8,400,,,
sequence,flow.Sequence,4_11,2023-09-11T19:06:40.960Z,,0,,,5984.021000190725,completion,,,,,false,,,,148383,148382.80000019073,142382.127,142395.7000002861,142398.779,148393.698,8,400,,,
trial,html.Screen,4_12_0,2023-09-11T19:06:46.346Z,,0,1,,5374.7020000953635,response,ISIC_9294799.JPG,5,ISIC_5223280.JPG,ISIC_9294799.JPG,false,1,keypress(m),500,153768.5,153768.40000009537,148377.111,148383.09999990463,148393.698,153770.864,8,400,13,,ISIC_5223280.JPG
break,html.Screen,4_12_1,2023-09-11T19:06:46.346Z,,0,,,NaN,,,,,,false,,,,153768.90000009537,153768.80000019073,,153768.59999990463,,153770.864,8,400,,,
break_continue,html.Screen,4_12_2,2023-09-11T19:06:46.346Z,,0,,,NaN,,,,,,false,,,,153769.09999990463,153769.09999990463,,153768.90000009537,,153770.864,8,400,,,
sequence,flow.Sequence,4_12,2023-09-11T19:06:46.346Z,,0,,,5375.401999904629,completion,,,,,false,,,,153769.09999990463,153769.09999990463,148377.111,148383.09999990463,148393.698,153770.864,8,400,,,
trial,html.Screen,4_13_0,2023-09-11T19:06:51.996Z,,0,1,,5647.235999904631,response,ISIC_0201767.JPG,5,ISIC_0033569.JPG,ISIC_0201767.JPG,false,1,keypress(m),500,159418.5,159418.09999990463,153754.24,153769.2000002861,153770.864,159431.915,8,400,14,,ISIC_0033569.JPG
break,html.Screen,4_13_1,2023-09-11T19:06:51.997Z,,0,,,NaN,,,,,,false,,,,159419.80000019073,159419.5,,159418.90000009537,,159431.915,8,400,,,
break_continue,html.Screen,4_13_2,2023-09-11T19:06:51.998Z,,0,,,NaN,,,,,,false,,,,159420.40000009537,159420.30000019073,,159420.09999990463,,159431.915,8,400,,,
sequence,flow.Sequence,4_13,2023-09-11T19:06:51.998Z,,0,,,5649.4360001907335,completion,,,,,false,,,,159420.59999990463,159420.30000019073,153754.24,153769.2000002861,153770.864,159431.915,8,400,,,
trial,html.Screen,4_14_0,2023-09-11T19:06:57.233Z,,0,1,,5223.285000286094,response,ISIC_1722909.JPG,5,ISIC_6024335.JPG,ISIC_1722909.JPG,false,1,keypress(m),500,164655.2000002861,164655.2000002861,159415.226,159420.80000019073,159431.915,164658.681,8,400,15,,ISIC_6024335.JPG
break,html.Screen,4_14_1,2023-09-11T19:06:57.233Z,,0,,,NaN,,,,,,false,,,,164655.90000009537,164655.7000002861,,164655.40000009537,,164658.681,8,400,,,
break_continue,html.Screen,4_14_2,2023-09-11T19:06:57.233Z,,0,,,NaN,,,,,,false,,,,164656.2000002861,164656.2000002861,,164656,,164658.681,8,400,,,
sequence,flow.Sequence,4_14,2023-09-11T19:06:57.234Z,,0,,,5224.285000286094,completion,,,,,false,,,,164656.30000019073,164656.2000002861,159415.226,159420.7000002861,159431.915,164658.681,8,400,,,
trial,html.Screen,4_15_0,2023-09-11T19:07:01.300Z,,0,1,,4062.918999904621,response,ISIC_8899350.JPG,5,ISIC_0014629.JPG,ISIC_0014629.JPG,false,0,keypress(z),500,168721.80000019073,168721.59999990463,164642.08,164656.30000019073,164658.681,168733.291,8,400,16,,ISIC_8899350.JPG
break,html.Screen,4_15_1,2023-09-11T19:07:01.301Z,,0,,,NaN,,,,,,false,,,,168722.40000009537,168722.09999990463,,168721.80000019073,,168733.291,8,400,,,
break_continue,html.Screen,4_15_2,2023-09-11T19:07:01.301Z,,0,,,NaN,,,,,,false,,,,168722.90000009537,168722.7000002861,,168722.59999990463,,168733.291,8,400,,,
sequence,flow.Sequence,4_15,2023-09-11T19:07:01.301Z,,0,,,4064.019000286091,completion,,,,,false,,,,168722.90000009537,168722.7000002861,164642.08,164656.30000019073,164658.681,168733.291,8,400,,,
trial,html.Screen,4_16_0,2023-09-11T19:07:07.464Z,,0,1,,6152.209000000003,response,ISIC_0010690.JPG,5,ISIC_0025535.JPG,ISIC_0025535.JPG,false,0,keypress(z),500,174885.59999990463,174885.5,168716.73,168723,168733.291,174895.253,8,400,17,,ISIC_0010690.JPG
break,html.Screen,4_16_1,2023-09-11T19:07:07.465Z,,0,,,NaN,,,,,,false,,,,174886.2000002861,174886,,174885.7000002861,,174895.253,8,400,,,
break_continue,html.Screen,4_16_2,2023-09-11T19:07:07.465Z,,0,,,NaN,,,,,,false,,,,174886.40000009537,174886.40000009537,,174886.2000002861,,174895.253,8,400,,,
sequence,flow.Sequence,4_16,2023-09-11T19:07:07.465Z,,0,,,6153.10900009537,completion,,,,,false,,,,174886.59999990463,174886.40000009537,168716.73,168723,168733.291,174895.253,8,400,,,
trial,html.Screen,4_17_0,2023-09-11T19:07:11.178Z,,0,1,,3704.1470000953705,response,ISIC_0028225.JPG,5,ISIC_8835545.JPG,ISIC_8835545.JPG,false,0,keypress(z),500,178599.40000009537,178599.40000009537,174878.638,174886.59999990463,174895.253,178619.166,8,400,18,,ISIC_0028225.JPG
break,html.Screen,4_17_1,2023-09-11T19:07:11.179Z,,0,,,NaN,,,,,,false,,,,178600.09999990463,178600,,178599.7000002861,,178619.166,8,400,,,
break_continue,html.Screen,4_17_2,2023-09-11T19:07:11.179Z,,0,,,NaN,,,,,,false,,,,178600.40000009537,178600.30000019073,,178600.2000002861,,178619.166,8,400,,,
sequence,flow.Sequence,4_17,2023-09-11T19:07:11.179Z,,0,,,3705.047000190738,completion,,,,,false,,,,178600.59999990463,178600.30000019073,174878.638,174886.59999990463,174895.253,178619.166,8,400,,,
trial,html.Screen,4_18_0,2023-09-11T19:07:15.933Z,,0,1,,4735.134000190737,response,ISIC_3301933.JPG,5,ISIC_8265105.JPG,ISIC_8265105.JPG,false,0,keypress(z),500,183354.5,183354.30000019073,178602.513,178600.80000019073,178619.166,183361.735,8,400,19,,ISIC_3301933.JPG
break,html.Screen,4_18_1,2023-09-11T19:07:15.933Z,,0,,,NaN,,,,,,false,,,,183354.90000009537,183354.80000019073,,183354.59999990463,,183361.735,8,400,,,
break_continue,html.Screen,4_18_2,2023-09-11T19:07:15.934Z,,0,,,NaN,,,,,,false,,,,183355.09999990463,183355.09999990463,,183355,,183361.735,8,400,,,
sequence,flow.Sequence,4_18,2023-09-11T19:07:15.934Z,,0,,,4735.933999904635,completion,,,,,false,,,,183355.2000002861,183355.09999990463,178602.513,178600.7000002861,178619.166,183361.735,8,400,,,
trial,html.Screen,4_19_0,2023-09-11T19:07:21.007Z,,0,1,,5066.565000190749,response,ISIC_3459981.JPG,4,ISIC_0331124.JPG,ISIC_3459981.JPG,false,1,keypress(m),500,188428.40000009537,188428.30000019073,183345.2,183355.2000002861,183361.735,188455.085,8,400,20,,ISIC_0331124.JPG
break,html.Screen,4_19_1,2023-09-11T19:07:21.007Z,,0,,,NaN,,,,,,false,,,,188428.90000009537,188428.7000002861,,188428.5,,188455.085,8,400,,,
break_continue,html.Screen,4_19_2,2023-09-11T19:07:21.008Z,,0,,,NaN,,,,,,false,,,,188429.09999990463,188429,,188428.90000009537,,188455.085,8,400,,,
sequence,flow.Sequence,4_19,2023-09-11T19:07:21.008Z,,0,,,5067.265000000014,completion,,,,,false,,,,188429.09999990463,188429,183345.2,183355.2000002861,183361.735,188455.085,8,400,,,
trial,html.Screen,4_20_0,2023-09-11T19:07:24.913Z,,0,1,,3879.6150002861104,response,ISIC_0031010.JPG,5,ISIC_4220326.JPG,ISIC_4220326.JPG,false,0,keypress(z),500,192334.90000009537,192334.7000002861,188438.509,188429.2000002861,188455.085,192345.959,8,400,21,,ISIC_0031010.JPG
break,html.Screen,4_20_1,2023-09-11T19:07:24.914Z,,0,,,NaN,,,,,,false,,,,192335.59999990463,192335.30000019073,,192335,,192345.959,8,400,,,
break_continue,html.Screen,4_20_2,2023-09-11T19:07:24.914Z,,0,,,NaN,,,,,,false,,,,192336,192335.90000009537,,192335.59999990463,,192345.959,8,400,,,
sequence,flow.Sequence,4_20,2023-09-11T19:07:24.914Z,,0,,,3880.8150000953756,completion,,,,,false,,,,192336.09999990463,192335.90000009537,188438.509,188429.2000002861,188455.085,192345.959,8,400,,,
trial,html.Screen,4_21_0,2023-09-11T19:07:30.005Z,,0,1,,5080.441000095365,response,ISIC_0256715.JPG,5,ISIC_0032940.JPG,ISIC_0256715.JPG,false,1,keypress(m),500,197426.5,197426.40000009537,192329.219,192336.09999990463,192345.959,197439.159,8,400,22,,ISIC_0032940.JPG
break,html.Screen,4_21_1,2023-09-11T19:07:30.006Z,,0,,,NaN,,,,,,false,,,,197427,197426.90000009537,,197426.7000002861,,197439.159,8,400,,,
break_continue,html.Screen,4_21_2,2023-09-11T19:07:30.006Z,,0,,,NaN,,,,,,false,,,,197427.30000019073,197427.30000019073,,197427.2000002861,,197439.159,8,400,,,
sequence,flow.Sequence,4_21,2023-09-11T19:07:30.006Z,,0,,,5081.341000190732,completion,,,,,false,,,,197427.40000009537,197427.30000019073,192329.219,192336.09999990463,192345.959,197439.159,8,400,,,
trial,html.Screen,4_22_0,2023-09-11T19:07:34.185Z,,0,1,,4167.440999904618,response,ISIC_4984668.JPG,5,ISIC_0067905.JPG,ISIC_4984668.JPG,false,1,keypress(m),500,201606.80000019073,201606.59999990463,197422.414,197427.5,197439.159,201630.76,8,400,23,,ISIC_0067905.JPG
break,html.Screen,4_22_1,2023-09-11T19:07:34.186Z,,0,,,NaN,,,,,,false,,,,201607.40000009537,201607.2000002861,,201606.90000009537,,201630.76,8,400,,,
break_continue,html.Screen,4_22_2,2023-09-11T19:07:34.186Z,,0,,,NaN,,,,,,false,,,,201607.7000002861,201607.59999990463,,201607.5,,201630.76,8,400,,,
sequence,flow.Sequence,4_22,2023-09-11T19:07:34.186Z,,0,,,4168.440999904618,completion,,,,,false,,,,201607.7000002861,201607.59999990463,197422.414,197427.40000009537,197439.159,201630.76,8,400,,,
trial,html.Screen,4_23_0,2023-09-11T19:07:39.039Z,,0,1,,4829.239999999991,response,ISIC_7959386.JPG,5,ISIC_0073173.JPG,ISIC_7959386.JPG,false,1,keypress(m),500,206460.09999990463,206460,201614.042,201607.80000019073,201630.76,206473.413,8,400,24,,ISIC_0073173.JPG
break,html.Screen,4_23_1,2023-09-11T19:07:39.039Z,,0,,,NaN,,,,,,false,,,,206460.80000019073,206460.7000002861,,206460.2000002861,,206473.413,8,400,,,
break_continue,html.Screen,4_23_2,2023-09-11T19:07:39.040Z,,0,,,NaN,,,,,,false,,,,206461.30000019073,206461.2000002861,,206461.09999990463,,206473.413,8,400,,,
sequence,flow.Sequence,4_23,2023-09-11T19:07:39.040Z,,0,,,4830.440000286093,completion,,,,,false,,,,206461.40000009537,206461.2000002861,201614.042,201607.80000019073,201630.76,206473.413,8,400,,,
trial,html.Screen,4_24_0,2023-09-11T19:07:43.623Z,,0,1,,4571.487000095367,response,ISIC_1292607.JPG,6,ISIC_0061359.JPG,ISIC_0061359.JPG,false,0,keypress(z),500,211045,211044.90000009537,206456.807,206461.5,206473.413,211065.797,8,400,25,,ISIC_1292607.JPG
break,html.Screen,4_24_1,2023-09-11T19:07:43.624Z,,0,,,NaN,,,,,,false,,,,211045.40000009537,211045.2000002861,,211045,,211065.797,8,400,,,
break_continue,html.Screen,4_24_2,2023-09-11T19:07:43.624Z,,0,,,NaN,,,,,,false,,,,211045.59999990463,211045.5,,211045.40000009537,,211065.797,8,400,,,
sequence,flow.Sequence,4_24,2023-09-11T19:07:43.624Z,,0,,,4572.0869999999995,completion,,,,,false,,,,211045.59999990463,211045.5,206456.807,206461.5,206473.413,211065.797,8,400,,,
trial,html.Screen,4_25_0,2023-09-11T19:07:47.343Z,,0,1,,3699.103000095376,response,ISIC_4734950.JPG,5,ISIC_0033689.JPG,ISIC_4734950.JPG,false,1,keypress(m),500,214765,214764.90000009537,211049.079,211045.59999990463,211065.797,214772.89,8,400,26,,ISIC_0033689.JPG
break,html.Screen,4_25_1,2023-09-11T19:07:47.344Z,,0,,,NaN,,,,,,false,,,,214765.5,214765.30000019073,,214765.2000002861,,214772.89,8,400,,,
break_continue,html.Screen,4_25_2,2023-09-11T19:07:47.344Z,,0,,,NaN,,,,,,false,,,,214765.59999990463,214765.59999990463,,214765.5,,214772.89,8,400,,,
sequence,flow.Sequence,4_25,2023-09-11T19:07:47.344Z,,0,,,3699.802999904641,completion,,,,,false,,,,214765.7000002861,214765.59999990463,211049.079,211045.59999990463,211065.797,214772.89,8,400,,,
trial,html.Screen,4_26_0,2023-09-11T19:07:52.071Z,,0,1,,4719.910000190721,response,ISIC_0030171.JPG,4,ISIC_0032586.JPG,ISIC_0030171.JPG,false,1,keypress(m),500,219493,219492.80000019073,214756.319,214765.80000019073,214772.89,219515.544,8,400,27,,ISIC_0032586.JPG
break,html.Screen,4_26_1,2023-09-11T19:07:52.072Z,,0,,,NaN,,,,,,false,,,,219493.59999990463,219493.5,,219493.09999990463,,219515.544,8,400,,,
break_continue,html.Screen,4_26_2,2023-09-11T19:07:52.072Z,,0,,,NaN,,,,,,false,,,,219493.80000019073,219493.80000019073,,219493.7000002861,,219515.544,8,400,,,
sequence,flow.Sequence,4_26,2023-09-11T19:07:52.072Z,,0,,,4720.910000190721,completion,,,,,false,,,,219493.90000009537,219493.80000019073,214756.319,214765.80000019073,214772.89,219515.544,8,400,,,
trial,html.Screen,4_27_0,2023-09-11T19:07:57.083Z,,0,1,,4988.456000000006,response,ISIC_0070666.JPG,5,ISIC_8906583.JPG,ISIC_8906583.JPG,false,0,keypress(z),500,224504.2000002861,224504,219498.877,219494,219515.544,224508.559,8,400,28,,ISIC_0070666.JPG
break,html.Screen,4_27_1,2023-09-11T19:07:57.083Z,,0,,,NaN,,,,,,false,,,,224504.80000019073,224504.59999990463,,224504.40000009537,,224508.559,8,400,,,
break_continue,html.Screen,4_27_2,2023-09-11T19:07:57.084Z,,0,,,NaN,,,,,,false,,,,224505.2000002861,224505.09999990463,,224504.90000009537,,224508.559,8,400,,,
sequence,flow.Sequence,4_27,2023-09-11T19:07:57.084Z,,0,,,4989.555999904638,completion,,,,,false,,,,224505.2000002861,224505.09999990463,219498.877,219494,219515.544,224508.559,8,400,,,
trial,html.Screen,4_28_0,2023-09-11T19:08:01.182Z,,0,1,,4093.9409999999916,response,ISIC_0055731.JPG,5,ISIC_0032718.JPG,ISIC_0055731.JPG,false,1,keypress(m),500,228602.7000002861,228602.5,224491.91,224505.30000019073,224508.559,228616.634,8,400,29,,ISIC_0032718.JPG
break,html.Screen,4_28_1,2023-09-11T19:08:01.183Z,,0,,,NaN,,,,,,false,,,,228603.40000009537,228603.2000002861,,228602.80000019073,,228616.634,8,400,,,
break_continue,html.Screen,4_28_2,2023-09-11T19:08:01.183Z,,0,,,NaN,,,,,,false,,,,228603.7000002861,228603.59999990463,,228603.5,,228616.634,8,400,,,
sequence,flow.Sequence,4_28,2023-09-11T19:08:01.183Z,,0,,,4095.040999904624,completion,,,,,false,,,,228603.80000019073,228603.59999990463,224491.91,224505.30000019073,224508.559,228616.634,8,400,,,
trial,html.Screen,4_29_0,2023-09-11T19:08:06.113Z,,0,1,,4916.965999904642,response,ISIC_0887792.JPG,5,ISIC_7448231.JPG,ISIC_0887792.JPG,false,1,keypress(m),500,233533.7000002861,233533.59999990463,228599.854,228603.90000009537,228616.634,233542.718,8,400,30,,ISIC_7448231.JPG
break,html.Screen,4_29_1,2023-09-11T19:08:06.114Z,,0,,,NaN,,,,,,false,,,,233534.2000002861,233534,,233533.80000019073,,233542.718,8,400,,,
break_continue,html.Screen,4_29_2,2023-09-11T19:08:06.114Z,,0,,,NaN,,,,,,false,,,,233534.59999990463,233534.5,,233534.40000009537,,233542.718,8,400,,,
sequence,flow.Sequence,4_29,2023-09-11T19:08:06.114Z,,0,,,4917.866000000009,completion,,,,,false,,,,233534.7000002861,233534.5,228599.854,228603.90000009537,228616.634,233542.718,8,400,,,
trial,html.Screen,4_30_0,2023-09-11T19:08:11.928Z,,0,1,,5805.381999904639,response,ISIC_0014027.JPG,6,ISIC_0028320.JPG,ISIC_0014027.JPG,false,1,keypress(m),500,239348.40000009537,239348.09999990463,233526.143,233534.7000002861,233542.718,239354.069,8,400,31,,ISIC_0028320.JPG
break,html.Screen,4_30_1,2023-09-11T19:08:11.929Z,,0,,,NaN,,,,,,false,,,,239349.59999990463,239349.2000002861,,239348.7000002861,,239354.069,8,400,,,
break_continue,html.Screen,4_30_2,2023-09-11T19:08:11.930Z,,0,,,NaN,,,,,,false,,,,239350.2000002861,239350,,239349.7000002861,,239354.069,8,400,,,
sequence,flow.Sequence,4_30,2023-09-11T19:08:11.930Z,,0,,,5807.2820000000065,completion,,,,,false,,,,239350.40000009537,239350,233526.143,233534.7000002861,233542.718,239354.069,8,400,,,
trial,html.Screen,4_31_0,2023-09-11T19:08:17.613Z,,0,1,,5679.431000000011,response,ISIC_5207050.JPG,5,ISIC_0010397.JPG,ISIC_5207050.JPG,false,1,keypress(m),500,245033.59999990463,245033.5,239337.533,239350.59999990463,239354.069,245048.544,8,400,32,,ISIC_0010397.JPG
break,html.Screen,4_31_1,2023-09-11T19:08:17.614Z,,0,,,NaN,,,,,,false,,,,245034.09999990463,245033.90000009537,,245033.80000019073,,245048.544,8,400,,,
break_continue,html.Screen,4_31_2,2023-09-11T19:08:17.614Z,,0,,,NaN,,,,,,false,,,,245034.2000002861,245034.2000002861,,245034.09999990463,,245048.544,8,400,,,
sequence,flow.Sequence,4_31,2023-09-11T19:08:17.614Z,,0,,,5680.131000286114,completion,,,,,false,,,,245034.30000019073,245034.2000002861,239337.533,239350.59999990463,239354.069,245048.544,8,400,,,
trial,html.Screen,4_32_0,2023-09-11T19:08:24.528Z,,0,1,,6899.356000095373,response,ISIC_0011752.JPG,5,ISIC_0010322.JPG,ISIC_0010322.JPG,false,0,keypress(z),500,251948.09999990463,251947.90000009537,245031.893,245034.40000009537,245048.544,251962.025,8,400,33,,ISIC_0011752.JPG
break,html.Screen,4_32_1,2023-09-11T19:08:24.528Z,,0,,,NaN,,,,,,false,,,,251948.5,251948.40000009537,,251948.2000002861,,251962.025,8,400,,,
break_continue,html.Screen,4_32_2,2023-09-11T19:08:24.528Z,,0,,,NaN,,,,,,false,,,,251948.59999990463,251948.59999990463,,251948.5,,251962.025,8,400,,,
sequence,flow.Sequence,4_32,2023-09-11T19:08:24.528Z,,0,,,6900.055999904638,completion,,,,,false,,,,251948.7000002861,251948.59999990463,245031.893,245034.30000019073,245048.544,251962.025,8,400,,,
trial,html.Screen,4_33_0,2023-09-11T19:08:31.762Z,,0,1,,7220.375000095373,response,ISIC_6533176.JPG,5,ISIC_0030970.JPG,ISIC_6533176.JPG,false,1,keypress(m),500,259182.59999990463,259182.40000009537,251945.329,251948.80000019073,251962.025,259192.668,8,400,34,,ISIC_0030970.JPG
break,html.Screen,4_33_1,2023-09-11T19:08:31.763Z,,0,,,NaN,,,,,,false,,,,259183.2000002861,259183,,259182.7000002861,,259192.668,8,400,,,
break_continue,html.Screen,4_33_2,2023-09-11T19:08:31.763Z,,0,,,NaN,,,,,,false,,,,259183.40000009537,259183.40000009537,,259183.30000019073,,259192.668,8,400,,,
sequence,flow.Sequence,4_33,2023-09-11T19:08:31.763Z,,0,,,7221.375000095373,completion,,,,,false,,,,259183.59999990463,259183.40000009537,251945.329,251948.80000019073,251962.025,259192.668,8,400,,,
trial,html.Screen,4_34_0,2023-09-11T19:08:37.524Z,,0,1,,5752.032000286097,response,ISIC_0000429.JPG,5,ISIC_0012512.JPG,ISIC_0012512.JPG,false,0,keypress(z),500,264944.80000019073,264944.7000002861,259176.198,259183.59999990463,259192.668,264953.868,8,400,35,,ISIC_0000429.JPG
break,html.Screen,4_34_1,2023-09-11T19:08:37.525Z,,0,,,NaN,,,,,,false,,,,264945.2000002861,264945.2000002861,,264944.90000009537,,264953.868,8,400,,,
break_continue,html.Screen,4_34_2,2023-09-11T19:08:37.525Z,,0,,,NaN,,,,,,false,,,,264945.40000009537,264945.40000009537,,264945.30000019073,,264953.868,8,400,,,
sequence,flow.Sequence,4_34,2023-09-11T19:08:37.525Z,,0,,,5752.732000095362,completion,,,,,false,,,,264945.5,264945.40000009537,259176.198,259183.59999990463,259192.668,264953.868,8,400,,,
trial,html.Screen,4_35_0,2023-09-11T19:08:44.071Z,,0,1,,6537.032000095351,response,ISIC_0010734.JPG,5,ISIC_1470250.JPG,ISIC_1470250.JPG,false,0,keypress(z),500,271491,271490.90000009537,264937.234,264945.5,264953.868,271500.13,8,400,36,,ISIC_0010734.JPG
break,html.Screen,4_35_1,2023-09-11T19:08:44.071Z,,0,,,NaN,,,,,,false,,,,271491.7000002861,271491.5,,271491.2000002861,,271500.13,8,400,,,
break_continue,html.Screen,4_35_2,2023-09-11T19:08:44.072Z,,0,,,NaN,,,,,,false,,,,271492,271492,,271491.7000002861,,271500.13,8,400,,,
sequence,flow.Sequence,4_35,2023-09-11T19:08:44.072Z,,0,,,6538.131999999983,completion,,,,,false,,,,271492,271492,264937.234,264945.5,264953.868,271500.13,8,400,,,
trial,html.Screen,4_36_0,2023-09-11T19:08:49.344Z,,0,1,,5263.67000019073,response,ISIC_4524488.JPG,6,ISIC_0014110.JPG,ISIC_0014110.JPG,false,0,keypress(z),500,276764,276763.80000019073,271483.353,271492.09999990463,271500.13,276776.933,8,400,37,,ISIC_4524488.JPG
break,html.Screen,4_36_1,2023-09-11T19:08:49.345Z,,0,,,NaN,,,,,,false,,,,276765.40000009537,276764.90000009537,,276764.30000019073,,276776.933,8,400,,,
break_continue,html.Screen,4_36_2,2023-09-11T19:08:49.346Z,,0,,,NaN,,,,,,false,,,,276766.30000019073,276766,,276765.80000019073,,276776.933,8,400,,,
sequence,flow.Sequence,4_36,2023-09-11T19:08:49.346Z,,0,,,5265.869999999995,completion,,,,,false,,,,276766.5,276766,271483.353,271492.09999990463,271500.13,276776.933,8,400,,,
trial,html.Screen,4_37_0,2023-09-11T19:08:53.348Z,,0,1,,3991.3670001907158,response,ISIC_4453506.JPG,6,ISIC_5414609.JPG,ISIC_5414609.JPG,false,0,keypress(z),500,280768.5,280768.30000019073,276760.253,276766.80000019073,276776.933,280784.68,8,400,38,,ISIC_4453506.JPG
break,html.Screen,4_37_1,2023-09-11T19:08:53.349Z,,0,,,NaN,,,,,,false,,,,280768.90000009537,280768.90000009537,,280768.59999990463,,280784.68,8,400,,,
break_continue,html.Screen,4_37_2,2023-09-11T19:08:53.349Z,,0,,,NaN,,,,,,false,,,,280769.2000002861,280769.2000002861,,280769,,280784.68,8,400,,,
sequence,flow.Sequence,4_37,2023-09-11T19:08:53.349Z,,0,,,3992.267000286083,completion,,,,,false,,,,280769.30000019073,280769.2000002861,276760.253,276766.7000002861,276776.933,280784.68,8,400,,,
trial,html.Screen,4_38_0,2023-09-11T19:08:58.894Z,,0,1,,5528.41999990464,response,ISIC_6298726.JPG,6,ISIC_0010965.JPG,ISIC_6298726.JPG,false,1,keypress(m),500,286314.09999990463,286313.09999990463,280768.109,280769.30000019073,280784.68,286328.81,8,400,39,,ISIC_0010965.JPG
break,html.Screen,4_38_1,2023-09-11T19:08:58.897Z,,0,,,NaN,,,,,,false,,,,286316.59999990463,286316,,286314.90000009537,,286328.81,8,400,,,
break_continue,html.Screen,4_38_2,2023-09-11T19:08:58.897Z,,0,,,NaN,,,,,,false,,,,286316.90000009537,286316.90000009537,,286316.80000019073,,286328.81,8,400,,,
sequence,flow.Sequence,4_38,2023-09-11T19:08:58.897Z,,0,,,5532.220000095374,completion,,,,,false,,,,286317,286316.90000009537,280768.109,280769.30000019073,280784.68,286328.81,8,400,,,
trial,html.Screen,4_39_0,2023-09-11T19:09:03.924Z,,0,1,,5014.789999904635,response,ISIC_7100755.JPG,6,ISIC_9572761.JPG,ISIC_9572761.JPG,false,0,keypress(z),500,291343.7000002861,291343.59999990463,286312.171,286317.09999990463,286328.81,291355.332,8,400,40,,ISIC_7100755.JPG
break,html.Screen,4_39_1,2023-09-11T19:09:03.924Z,,0,,,NaN,,,,,,false,,,,291344.2000002861,291344.09999990463,,291343.80000019073,,291355.332,8,400,,,
break_continue,html.Screen,4_39_2,2023-09-11T19:09:03.925Z,,0,,,NaN,,,,,,false,,,,291344.5,291344.5,,291344.40000009537,,291355.332,8,400,,,
sequence,flow.Sequence,4_39,2023-09-11T19:09:03.925Z,,0,,,5015.690000000002,completion,,,,,false,,,,291344.7000002861,291344.5,286312.171,286317.09999990463,286328.81,291355.332,8,400,,,
trial,html.Screen,4_40_0,2023-09-11T19:09:10.236Z,,0,1,,6300.868000286107,response,ISIC_0046729.JPG,5,ISIC_0010023.JPG,ISIC_0046729.JPG,false,1,keypress(m),500,297656.30000019073,297656.2000002861,291338.673,291344.80000019073,291355.332,297667.62,8,400,41,,ISIC_0010023.JPG
break,html.Screen,4_40_1,2023-09-11T19:09:10.237Z,,0,,,NaN,,,,,,false,,,,297656.7000002861,297656.5,,297656.40000009537,,297667.62,8,400,,,
break_continue,html.Screen,4_40_2,2023-09-11T19:09:10.237Z,,0,,,NaN,,,,,,false,,,,297656.80000019073,297656.80000019073,,297656.7000002861,,297667.62,8,400,,,
sequence,flow.Sequence,4_40,2023-09-11T19:09:10.237Z,,0,,,6301.46800019074,completion,,,,,false,,,,297656.90000009537,297656.80000019073,291338.673,291344.80000019073,291355.332,297667.62,8,400,,,
trial,html.Screen,4_41_0,2023-09-11T19:09:16.513Z,,0,1,,6264.780000095372,response,ISIC_5576354.JPG,5,ISIC_0028477.JPG,ISIC_0028477.JPG,false,0,keypress(z),500,303932.59999990463,303932.40000009537,297650.813,297656.90000009537,297667.62,303946.576,8,400,42,,ISIC_5576354.JPG
break,html.Screen,4_41_1,2023-09-11T19:09:16.514Z,,0,,,NaN,,,,,,false,,,,303933.59999990463,303933.40000009537,,303932.80000019073,,303946.576,8,400,,,
break_continue,html.Screen,4_41_2,2023-09-11T19:09:16.514Z,,0,,,NaN,,,,,,false,,,,303934.09999990463,303934,,303933.80000019073,,303946.576,8,400,,,
sequence,flow.Sequence,4_41,2023-09-11T19:09:16.514Z,,0,,,6266.380000000005,completion,,,,,false,,,,303934.2000002861,303934,297650.813,297656.90000009537,297667.62,303946.576,8,400,,,
trial,html.Screen,4_42_0,2023-09-11T19:09:21.812Z,,0,1,,5285.423999999999,response,ISIC_0069193.JPG,6,ISIC_5714285.JPG,ISIC_5714285.JPG,false,0,keypress(z),500,309232.2000002861,309232,303929.944,303934.5,303946.576,309240.079,8,400,43,,ISIC_0069193.JPG
break,html.Screen,4_42_1,2023-09-11T19:09:21.813Z,,0,,,NaN,,,,,,false,,,,309233,309232.59999990463,,309232.30000019073,,309240.079,8,400,,,
break_continue,html.Screen,4_42_2,2023-09-11T19:09:21.813Z,,0,,,NaN,,,,,,false,,,,309233.2000002861,309233.2000002861,,309233.09999990463,,309240.079,8,400,,,
sequence,flow.Sequence,4_42,2023-09-11T19:09:21.814Z,,0,,,5286.624000286101,completion,,,,,false,,,,309233.30000019073,309233.2000002861,303929.944,303934.5,303946.576,309240.079,8,400,,,
trial,html.Screen,4_43_0,2023-09-11T19:09:26.056Z,,0,1,,4235.221000190708,response,ISIC_3260571.JPG,5,ISIC_5149162.JPG,ISIC_5149162.JPG,false,0,keypress(z),500,313475.5,313475.30000019073,309223.463,309233.40000009537,309240.079,313481.675,8,400,44,,ISIC_3260571.JPG
break,html.Screen,4_43_1,2023-09-11T19:09:26.056Z,,0,,,NaN,,,,,,false,,,,313476.2000002861,313476,,313475.7000002861,,313481.675,8,400,,,
break_continue,html.Screen,4_43_2,2023-09-11T19:09:26.057Z,,0,,,NaN,,,,,,false,,,,313476.5,313476.5,,313476.30000019073,,313481.675,8,400,,,
sequence,flow.Sequence,4_43,2023-09-11T19:09:26.057Z,,0,,,4236.420999999973,completion,,,,,false,,,,313476.7000002861,313476.5,309223.463,309233.30000019073,309240.079,313481.675,8,400,,,
trial,html.Screen,4_44_0,2023-09-11T19:09:29.403Z,,0,1,,3340.725000095379,response,ISIC_4259290.JPG,5,ISIC_0060096.JPG,ISIC_4259290.JPG,false,1,keypress(m),500,316822.59999990463,316822.40000009537,313465.05,313476.80000019073,313481.675,316838.183,8,400,45,,ISIC_0060096.JPG
break,html.Screen,4_44_1,2023-09-11T19:09:29.403Z,,0,,,NaN,,,,,,false,,,,316823.30000019073,316823,,316822.7000002861,,316838.183,8,400,,,
break_continue,html.Screen,4_44_2,2023-09-11T19:09:29.404Z,,0,,,NaN,,,,,,false,,,,316823.5,316823.40000009537,,316823.30000019073,,316838.183,8,400,,,
sequence,flow.Sequence,4_44,2023-09-11T19:09:29.404Z,,0,,,3341.725000095379,completion,,,,,false,,,,316823.7000002861,316823.40000009537,313465.05,313476.80000019073,313481.675,316838.183,8,400,,,
trial,html.Screen,4_45_0,2023-09-11T19:09:32.622Z,,0,1,,3203.6170001907158,response,ISIC_0069635.JPG,5,ISIC_0028859.JPG,ISIC_0028859.JPG,false,0,keypress(z),500,320041.90000009537,320041.80000019073,316821.604,316823.7000002861,316838.183,320044.385,8,400,46,,ISIC_0069635.JPG
break,html.Screen,4_45_1,2023-09-11T19:09:32.623Z,,0,,,NaN,,,,,,false,,,,320042.30000019073,320042.2000002861,,320042,,320044.385,8,400,,,
break_continue,html.Screen,4_45_2,2023-09-11T19:09:32.623Z,,0,,,NaN,,,,,,false,,,,320042.5,320042.5,,320042.40000009537,,320044.385,8,400,,,
sequence,flow.Sequence,4_45,2023-09-11T19:09:32.623Z,,0,,,3204.316999999981,completion,,,,,false,,,,320042.7000002861,320042.5,316821.604,316823.7000002861,316838.183,320044.385,8,400,,,
trial,html.Screen,4_46_0,2023-09-11T19:09:36.881Z,,0,1,,4256.015000095358,response,ISIC_0068447.JPG,5,ISIC_0010409.JPG,ISIC_0068447.JPG,false,1,keypress(m),500,324300.5,324300.40000009537,320027.683,320042.7000002861,320044.385,324302.718,8,400,47,,ISIC_0010409.JPG
break,html.Screen,4_46_1,2023-09-11T19:09:36.881Z,,0,,,NaN,,,,,,false,,,,324301,324300.90000009537,,324300.59999990463,,324302.718,8,400,,,
break_continue,html.Screen,4_46_2,2023-09-11T19:09:36.881Z,,0,,,NaN,,,,,,false,,,,324301.2000002861,324301.2000002861,,324301.09999990463,,324302.718,8,400,,,
sequence,flow.Sequence,4_46,2023-09-11T19:09:36.882Z,,0,,,4256.815000286093,completion,,,,,false,,,,324301.30000019073,324301.2000002861,320027.683,320042.7000002861,320044.385,324302.718,8,400,,,
trial,html.Screen,4_47_0,2023-09-11T19:09:43.155Z,,0,1,,6271.881999904639,response,ISIC_0069933.JPG,5,ISIC_0025735.JPG,ISIC_0069933.JPG,false,1,keypress(m),500,330574.7000002861,330574.59999990463,324286.12,324301.40000009537,324302.718,330581.661,8,400,48,,ISIC_0025735.JPG
break,html.Screen,4_47_1,2023-09-11T19:09:43.156Z,,0,,,NaN,,,,,,false,,,,330575.30000019073,330575.09999990463,,330574.90000009537,,330581.661,8,400,,,
break_continue,html.Screen,4_47_2,2023-09-11T19:09:43.156Z,,0,,,NaN,,,,,,false,,,,330575.59999990463,330575.5,,330575.40000009537,,330581.661,8,400,,,
sequence,flow.Sequence,4_47,2023-09-11T19:09:43.156Z,,0,,,6272.7820000000065,completion,,,,,false,,,,330575.7000002861,330575.5,324286.12,324301.40000009537,324302.718,330581.661,8,400,,,
trial,html.Screen,4_48_0,2023-09-11T19:09:50.216Z,,0,1,,7054.338999999978,response,ISIC_0032447.JPG,4,ISIC_5073160.JPG,ISIC_5073160.JPG,false,0,keypress(z),500,337636.09999990463,337636,330565.012,330575.80000019073,330581.661,337645.4,8,400,49,,ISIC_0032447.JPG
break,html.Screen,4_48_1,2023-09-11T19:09:50.217Z,,0,,,NaN,,,,,,false,,,,337636.5,337636.40000009537,,337636.09999990463,,337645.4,8,400,,,
break_continue,html.Screen,4_48_2,2023-09-11T19:09:50.217Z,,0,,,NaN,,,,,,false,,,,337636.80000019073,337636.7000002861,,337636.59999990463,,337645.4,8,400,,,
sequence,flow.Sequence,4_48,2023-09-11T19:09:50.217Z,,0,,,7055.03900028608,completion,,,,,false,,,,337636.90000009537,337636.7000002861,330565.012,330575.7000002861,330581.661,337645.4,8,400,,,
trial,html.Screen,4_49_0,2023-09-11T19:09:54.235Z,,0,1,,4009.4000001907116,response,ISIC_6634951.JPG,6,ISIC_5787312.JPG,ISIC_5787312.JPG,false,0,keypress(z),500,341655.09999990463,341654.80000019073,337628.754,337636.90000009537,337645.4,341669.977,8,400,50,,ISIC_6634951.JPG
break,html.Screen,4_49_1,2023-09-11T19:10:04.238Z,,0,,,10002.774999999965,timeout,,,,,false,,,,351656.80000019073,351656.06,341653.236,341655.5,341669.977,351672.752,8,400,,,
break_continue,html.Screen,4_49_2,2023-09-11T19:10:07.060Z,,0,,,2802.2480000000214,response,,,,,false,continue,keypress(Space),,354478.5,354475,351656.06,351656.90000009537,351672.752,354494.769,8,400,,,
sequence,flow.Sequence,4_49,2023-09-11T19:10:07.060Z,,0,,,16829.599999999977,completion,,,,,false,,,,354478.59999990463,354475,337628.754,337636.90000009537,337645.4,354494.769,8,400,,,
trial,html.Screen,4_50_0,2023-09-11T19:10:10.758Z,,0,2,,3681.931000286131,response,ISIC_0010040.JPG,4,ISIC_0016094.JPG,ISIC_0010040.JPG,false,1,keypress(m),500,358176.80000019073,358176.7000002861,354478.261,354478.7000002861,354494.769,358185.292,8,400,1,,ISIC_0016094.JPG
break,html.Screen,4_50_1,2023-09-11T19:10:10.759Z,,0,,,NaN,,,,,,false,,,,358177.5,358177.2000002861,,358176.90000009537,,358185.292,8,400,,,
break_continue,html.Screen,4_50_2,2023-09-11T19:10:10.759Z,,0,,,NaN,,,,,,false,,,,358177.7000002861,358177.59999990463,,358177.5,,358185.292,8,400,,,
sequence,flow.Sequence,4_50,2023-09-11T19:10:10.759Z,,0,,,3682.8309999046614,completion,,,,,false,,,,358177.7000002861,358177.59999990463,354478.261,354478.7000002861,354494.769,358185.292,8,400,,,
trial,html.Screen,4_51_0,2023-09-11T19:10:14.794Z,,0,2,,4027.508000190719,response,ISIC_0067985.JPG,6,ISIC_3590167.JPG,ISIC_3590167.JPG,false,0,keypress(z),500,362212.90000009537,362212.80000019073,358168.572,358177.80000019073,358185.292,362227.653,8,400,2,,ISIC_0067985.JPG
break,html.Screen,4_51_1,2023-09-11T19:10:14.795Z,,0,,,NaN,,,,,,false,,,,362213.59999990463,362213.5,,362213.2000002861,,362227.653,8,400,,,
break_continue,html.Screen,4_51_2,2023-09-11T19:10:14.795Z,,0,,,NaN,,,,,,false,,,,362214.09999990463,362214,,362213.80000019073,,362227.653,8,400,,,
sequence,flow.Sequence,4_51,2023-09-11T19:10:14.795Z,,0,,,4028.707999999984,completion,,,,,false,,,,362214.2000002861,362214,358168.572,358177.80000019073,358185.292,362227.653,8,400,,,
trial,html.Screen,4_52_0,2023-09-11T19:10:18.846Z,,0,2,,4036.7470000953763,response,ISIC_1115013.JPG,5,ISIC_3948754.JPG,ISIC_3948754.JPG,false,0,keypress(z),500,366264.59999990463,366264.40000009537,362209.914,362214.30000019073,362227.653,366267.74,8,400,3,,ISIC_1115013.JPG
break,html.Screen,4_52_1,2023-09-11T19:10:18.847Z,,0,,,NaN,,,,,,false,,,,366265.5,366265.2000002861,,366264.90000009537,,366267.74,8,400,,,
break_continue,html.Screen,4_52_2,2023-09-11T19:10:18.847Z,,0,,,NaN,,,,,,false,,,,366265.90000009537,366265.80000019073,,366265.59999990463,,366267.74,8,400,,,
sequence,flow.Sequence,4_52,2023-09-11T19:10:18.847Z,,0,,,4038.1470001907437,completion,,,,,false,,,,366266.09999990463,366265.80000019073,362209.914,362214.30000019073,362227.653,366267.74,8,400,,,
trial,html.Screen,4_53_0,2023-09-11T19:10:22.836Z,,0,2,,3986.4600002861116,response,ISIC_4116224.JPG,4,ISIC_0061516.JPG,ISIC_4116224.JPG,false,1,keypress(m),500,370254.40000009537,370254.2000002861,366251.096,366266.09999990463,366267.74,370258.817,8,400,4,,ISIC_0061516.JPG
break,html.Screen,4_53_1,2023-09-11T19:10:22.836Z,,0,,,NaN,,,,,,false,,,,370255,370254.80000019073,,370254.5,,370258.817,8,400,,,
break_continue,html.Screen,4_53_2,2023-09-11T19:10:22.837Z,,0,,,NaN,,,,,,false,,,,370255.30000019073,370255.30000019073,,370255.2000002861,,370258.817,8,400,,,
sequence,flow.Sequence,4_53,2023-09-11T19:10:22.837Z,,0,,,3987.560000190744,completion,,,,,false,,,,370255.5,370255.30000019073,366251.096,366266.09999990463,366267.74,370258.817,8,400,,,
trial,html.Screen,4_54_0,2023-09-11T19:10:27.975Z,,0,2,,5134.782999904652,response,ISIC_2192973.JPG,6,ISIC_8575769.JPG,ISIC_2192973.JPG,false,1,keypress(m),500,375393.7000002861,375393.59999990463,370242.285,370255.5,370258.817,375402.124,8,400,5,,ISIC_8575769.JPG
break,html.Screen,4_54_1,2023-09-11T19:10:27.975Z,,0,,,NaN,,,,,,false,,,,375394.2000002861,375394.09999990463,,375393.80000019073,,375402.124,8,400,,,
break_continue,html.Screen,4_54_2,2023-09-11T19:10:27.975Z,,0,,,NaN,,,,,,false,,,,375394.30000019073,375394.2000002861,,375394.2000002861,,375402.124,8,400,,,
sequence,flow.Sequence,4_54,2023-09-11T19:10:27.976Z,,0,,,5135.383000286121,completion,,,,,false,,,,375394.40000009537,375394.2000002861,370242.285,370255.5,370258.817,375402.124,8,400,,,
trial,html.Screen,4_55_0,2023-09-11T19:10:33.404Z,,0,2,,5421.076000286092,response,ISIC_0067891.JPG,4,ISIC_4132082.JPG,ISIC_4132082.JPG,false,0,keypress(z),500,380823.30000019073,380823.2000002861,375385.578,375394.40000009537,375402.124,380829.381,8,400,6,,ISIC_0067891.JPG
break,html.Screen,4_55_1,2023-09-11T19:10:33.405Z,,0,,,NaN,,,,,,false,,,,380823.80000019073,380823.7000002861,,380823.40000009537,,380829.381,8,400,,,
break_continue,html.Screen,4_55_2,2023-09-11T19:10:33.405Z,,0,,,NaN,,,,,,false,,,,380824,380824,,380823.90000009537,,380829.381,8,400,,,
sequence,flow.Sequence,4_55,2023-09-11T19:10:33.405Z,,0,,,5421.875999999989,completion,,,,,false,,,,380824.09999990463,380824,375385.578,375394.40000009537,375402.124,380829.381,8,400,,,
trial,html.Screen,4_56_0,2023-09-11T19:10:39.247Z,,0,2,,5835.919000190741,response,ISIC_0066109.JPG,5,ISIC_1514401.JPG,ISIC_0066109.JPG,false,1,keypress(m),500,386665.40000009537,386665.30000019073,380812.785,380824.2000002861,380829.381,386674.103,8,400,7,,ISIC_1514401.JPG
break,html.Screen,4_56_1,2023-09-11T19:10:39.247Z,,0,,,NaN,,,,,,false,,,,386666.2000002861,386666,,386665.59999990463,,386674.103,8,400,,,
break_continue,html.Screen,4_56_2,2023-09-11T19:10:39.248Z,,0,,,NaN,,,,,,false,,,,386666.59999990463,386666.5,,386666.40000009537,,386674.103,8,400,,,
sequence,flow.Sequence,4_56,2023-09-11T19:10:39.248Z,,0,,,5837.119000000006,completion,,,,,false,,,,386666.7000002861,386666.5,380812.785,380824.2000002861,380829.381,386674.103,8,400,,,
trial,html.Screen,4_57_0,2023-09-11T19:10:44.834Z,,0,2,,5578.797000095365,response,ISIC_1479949.JPG,4,ISIC_0026655.JPG,ISIC_1479949.JPG,false,1,keypress(m),500,392253,392252.90000009537,386657.486,386666.80000019073,386674.103,392268.367,8,400,8,,ISIC_0026655.JPG
break,html.Screen,4_57_1,2023-09-11T19:10:44.835Z,,0,,,NaN,,,,,,false,,,,392254,392253.80000019073,,392253.2000002861,,392268.367,8,400,,,
break_continue,html.Screen,4_57_2,2023-09-11T19:10:44.836Z,,0,,,NaN,,,,,,false,,,,392254.40000009537,392254.30000019073,,392254.09999990463,,392268.367,8,400,,,
sequence,flow.Sequence,4_57,2023-09-11T19:10:44.836Z,,0,,,5580.197000190732,completion,,,,,false,,,,392254.5,392254.30000019073,386657.486,386666.80000019073,386674.103,392268.367,8,400,,,
trial,html.Screen,4_58_0,2023-09-11T19:10:50.141Z,,0,2,,5291.232999904605,response,ISIC_9141817.JPG,4,ISIC_0066749.JPG,ISIC_9141817.JPG,false,1,keypress(m),500,397559.7000002861,397559.59999990463,392251.788,392254.7000002861,392268.367,397561.93,8,400,9,,ISIC_0066749.JPG
break,html.Screen,4_58_1,2023-09-11T19:10:50.141Z,,0,,,NaN,,,,,,false,,,,397560.2000002861,397560.09999990463,,397559.90000009537,,397561.93,8,400,,,
break_continue,html.Screen,4_58_2,2023-09-11T19:10:50.142Z,,0,,,NaN,,,,,,false,,,,397560.40000009537,397560.30000019073,,397560.30000019073,,397561.93,8,400,,,
sequence,flow.Sequence,4_58,2023-09-11T19:10:50.142Z,,0,,,5291.933000190707,completion,,,,,false,,,,397560.40000009537,397560.30000019073,392251.788,392254.59999990463,392268.367,397561.93,8,400,,,
trial,html.Screen,4_59_0,2023-09-11T19:10:56.127Z,,0,2,,5983.470000095374,response,ISIC_0012018.JPG,5,ISIC_3410193.JPG,ISIC_3410193.JPG,false,0,keypress(z),500,403545.59999990463,403545.40000009537,397545.202,397560.5,397561.93,403556.897,8,400,10,,ISIC_0012018.JPG
break,html.Screen,4_59_1,2023-09-11T19:10:56.128Z,,0,,,NaN,,,,,,false,,,,403546.5,403546.2000002861,,403545.80000019073,,403556.897,8,400,,,
break_continue,html.Screen,4_59_2,2023-09-11T19:10:56.128Z,,0,,,NaN,,,,,,false,,,,403546.80000019073,403546.80000019073,,403546.59999990463,,403556.897,8,400,,,
sequence,flow.Sequence,4_59,2023-09-11T19:10:56.128Z,,0,,,5984.870000190742,completion,,,,,false,,,,403546.90000009537,403546.80000019073,397545.202,397560.5,397561.93,403556.897,8,400,,,
trial,html.Screen,4_60_0,2023-09-11T19:11:02.346Z,,0,2,,6205.803000286105,response,ISIC_6882080.JPG,5,ISIC_0067733.JPG,ISIC_6882080.JPG,false,1,keypress(m),500,409762.80000019073,409762.7000002861,403540.316,403547.09999990463,403556.897,409769.105,8,400,11,,ISIC_0067733.JPG
break,html.Screen,4_60_1,2023-09-11T19:11:02.346Z,,0,,,NaN,,,,,,false,,,,409763.30000019073,409763.2000002861,,409762.90000009537,,409769.105,8,400,,,
break_continue,html.Screen,4_60_2,2023-09-11T19:11:02.347Z,,0,,,NaN,,,,,,false,,,,409763.5,409763.5,,409763.40000009537,,409769.105,8,400,,,
sequence,flow.Sequence,4_60,2023-09-11T19:11:02.347Z,,0,,,6206.603000000003,completion,,,,,false,,,,409763.59999990463,409763.5,403540.316,403547.09999990463,403556.897,409769.105,8,400,,,
trial,html.Screen,4_61_0,2023-09-11T19:11:07.121Z,,0,2,,4768.895000000019,response,ISIC_0011994.JPG,6,ISIC_4001990.JPG,ISIC_4001990.JPG,false,0,keypress(z),500,414538.30000019073,414538,409752.359,409763.59999990463,409769.105,414544.966,8,400,12,,ISIC_0011994.JPG
break,html.Screen,4_61_1,2023-09-11T19:11:07.122Z,,0,,,NaN,,,,,,false,,,,414539.30000019073,414539.09999990463,,414538.59999990463,,414544.966,8,400,,,
break_continue,html.Screen,4_61_2,2023-09-11T19:11:07.123Z,,0,,,NaN,,,,,,false,,,,414539.80000019073,414539.59999990463,,414539.5,,414544.966,8,400,,,
sequence,flow.Sequence,4_61,2023-09-11T19:11:07.123Z,,0,,,4770.494999904651,completion,,,,,false,,,,414540,414539.59999990463,409752.359,409763.59999990463,409769.105,414544.966,8,400,,,
trial,html.Screen,4_62_0,2023-09-11T19:11:11.718Z,,0,2,,4589.734000286087,response,ISIC_9640145.JPG,5,ISIC_6228963.JPG,ISIC_9640145.JPG,false,1,keypress(m),500,419134.90000009537,419134.7000002861,414528.423,414540.09999990463,414544.966,419137.277,8,400,13,,ISIC_6228963.JPG
break,html.Screen,4_62_1,2023-09-11T19:11:11.719Z,,0,,,NaN,,,,,,false,,,,419135.5,419135.2000002861,,419135,,419137.277,8,400,,,
break_continue,html.Screen,4_62_2,2023-09-11T19:11:11.719Z,,0,,,NaN,,,,,,false,,,,419135.7000002861,419135.7000002861,,419135.5,,419137.277,8,400,,,
sequence,flow.Sequence,4_62,2023-09-11T19:11:11.719Z,,0,,,4590.734000286087,completion,,,,,false,,,,419135.90000009537,419135.7000002861,414528.423,414540.09999990463,414544.966,419137.277,8,400,,,
trial,html.Screen,4_63_0,2023-09-11T19:11:16.333Z,,0,2,,4612.9230002861,response,ISIC_8388593.JPG,6,ISIC_0034042.JPG,ISIC_8388593.JPG,false,1,keypress(m),500,423750.40000009537,423750.2000002861,419120.799,419135.90000009537,419137.277,423762.905,8,400,14,,ISIC_0034042.JPG
break,html.Screen,4_63_1,2023-09-11T19:11:16.334Z,,0,,,NaN,,,,,,false,,,,423750.90000009537,423750.80000019073,,423750.40000009537,,423762.905,8,400,,,
break_continue,html.Screen,4_63_2,2023-09-11T19:11:16.334Z,,0,,,NaN,,,,,,false,,,,423751.2000002861,423751.2000002861,,423751.09999990463,,423762.905,8,400,,,
sequence,flow.Sequence,4_63,2023-09-11T19:11:16.334Z,,0,,,4613.9230002861,completion,,,,,false,,,,423751.40000009537,423751.2000002861,419120.799,419135.90000009537,419137.277,423762.905,8,400,,,
trial,html.Screen,4_64_0,2023-09-11T19:11:21.878Z,,0,2,,5531.4950000953395,response,ISIC_7246852.JPG,4,ISIC_0028969.JPG,ISIC_7246852.JPG,false,1,keypress(m),500,429294.59999990463,429294.40000009537,423746.331,423751.40000009537,423762.905,429307.035,8,400,15,,ISIC_0028969.JPG
break,html.Screen,4_64_1,2023-09-11T19:11:21.879Z,,0,,,NaN,,,,,,false,,,,429295.7000002861,429295.40000009537,,429295,,429307.035,8,400,,,
break_continue,html.Screen,4_64_2,2023-09-11T19:11:21.879Z,,0,,,NaN,,,,,,false,,,,429296.09999990463,429296,,429295.80000019073,,429307.035,8,400,,,
sequence,flow.Sequence,4_64,2023-09-11T19:11:21.879Z,,0,,,5533.094999999972,completion,,,,,false,,,,429296.30000019073,429296,423746.331,423751.40000009537,423762.905,429307.035,8,400,,,
trial,html.Screen,4_65_0,2023-09-11T19:11:27.962Z,,0,2,,6071.365000095393,response,ISIC_0024496.JPG,5,ISIC_0010094.JPG,ISIC_0024496.JPG,false,1,keypress(m),500,435378.5,435378.40000009537,429290.402,429296.5,429307.035,435385.535,8,400,16,,ISIC_0010094.JPG
break,html.Screen,4_65_1,2023-09-11T19:11:27.962Z,,0,,,NaN,,,,,,false,,,,435379,435378.90000009537,,435378.7000002861,,435385.535,8,400,,,
break_continue,html.Screen,4_65_2,2023-09-11T19:11:27.962Z,,0,,,NaN,,,,,,false,,,,435379.2000002861,435379.09999990463,,435379,,435385.535,8,400,,,
sequence,flow.Sequence,4_65,2023-09-11T19:11:27.962Z,,0,,,6072.064999904658,completion,,,,,false,,,,435379.30000019073,435379.09999990463,429290.402,429296.40000009537,429307.035,435385.535,8,400,,,
trial,html.Screen,4_66_0,2023-09-11T19:11:32.108Z,,0,2,,4139.2650001907605,response,ISIC_0056717.JPG,5,ISIC_0640770.JPG,ISIC_0640770.JPG,false,0,keypress(z),500,439525.2000002861,439524.80000019073,435368.791,435379.40000009537,435385.535,439527.025,8,400,17,,ISIC_0056717.JPG
break,html.Screen,4_66_1,2023-09-11T19:11:32.110Z,,0,,,NaN,,,,,,false,,,,439527.09999990463,439526.40000009537,,439525.5,,439527.025,8,400,,,
break_continue,html.Screen,4_66_2,2023-09-11T19:11:32.112Z,,0,,,NaN,,,,,,false,,,,439529,439528.40000009537,,439527.80000019073,,439527.025,8,400,,,
sequence,flow.Sequence,4_66,2023-09-11T19:11:32.113Z,,0,,,4142.865000095393,completion,,,,,false,,,,439529.59999990463,439528.40000009537,435368.791,435379.40000009537,435385.535,439527.025,8,400,,,
trial,html.Screen,4_67_0,2023-09-11T19:11:39.702Z,,0,2,,7592.175000286079,response,ISIC_0063061.JPG,5,ISIC_0032736.JPG,ISIC_0032736.JPG,false,0,keypress(z),500,447119.40000009537,447119.2000002861,439510.2,439530,439527.025,447125.032,8,400,18,,ISIC_0063061.JPG
break,html.Screen,4_67_1,2023-09-11T19:11:39.703Z,,0,,,NaN,,,,,,false,,,,447120.2000002861,447120,,447119.59999990463,,447125.032,8,400,,,
break_continue,html.Screen,4_67_2,2023-09-11T19:11:39.704Z,,0,,,NaN,,,,,,false,,,,447120.7000002861,447120.5,,447120.30000019073,,447125.032,8,400,,,
sequence,flow.Sequence,4_67,2023-09-11T19:11:39.704Z,,0,,,7593.474999999977,completion,,,,,false,,,,447120.7000002861,447120.5,439510.2,439530,439527.025,447125.032,8,400,,,
trial,html.Screen,4_68_0,2023-09-11T19:11:45.452Z,,0,2,,5743.368000095361,response,ISIC_0000411.JPG,5,ISIC_0070009.JPG,ISIC_0000411.JPG,false,1,keypress(m),500,452868.40000009537,452868.40000009537,447108.324,447120.90000009537,447125.032,452886.347,8,400,19,,ISIC_0070009.JPG
break,html.Screen,4_68_1,2023-09-11T19:11:45.452Z,,0,,,NaN,,,,,,false,,,,452868.80000019073,452868.80000019073,,452868.5,,452886.347,8,400,,,
break_continue,html.Screen,4_68_2,2023-09-11T19:11:45.452Z,,0,,,NaN,,,,,,false,,,,452869,452868.90000009537,,452868.80000019073,,452886.347,8,400,,,
sequence,flow.Sequence,4_68,2023-09-11T19:11:45.452Z,,0,,,5743.868000095361,completion,,,,,false,,,,452869,452868.90000009537,447108.324,447120.90000009537,447125.032,452886.347,8,400,,,
trial,html.Screen,4_69_0,2023-09-11T19:11:50.349Z,,0,2,,4879.652999999991,response,ISIC_4394524.JPG,5,ISIC_3060248.JPG,ISIC_4394524.JPG,false,1,keypress(m),500,457766.09999990463,457766,452869.665,452869.09999990463,452886.347,457779.102,8,400,20,,ISIC_3060248.JPG
break,html.Screen,4_69_1,2023-09-11T19:11:50.350Z,,0,,,NaN,,,,,,false,,,,457766.59999990463,457766.5,,457766.2000002861,,457779.102,8,400,,,
break_continue,html.Screen,4_69_2,2023-09-11T19:11:50.350Z,,0,,,NaN,,,,,,false,,,,457766.90000009537,457766.90000009537,,457766.7000002861,,457779.102,8,400,,,
sequence,flow.Sequence,4_69,2023-09-11T19:11:50.350Z,,0,,,4880.553000095359,completion,,,,,false,,,,457767.09999990463,457766.90000009537,452869.665,452869.09999990463,452886.347,457779.102,8,400,,,
trial,html.Screen,4_70_0,2023-09-11T19:11:53.953Z,,0,2,,3591.1980001907214,response,ISIC_0031293.JPG,5,ISIC_0072377.JPG,ISIC_0031293.JPG,false,1,keypress(m),500,461370.40000009537,461370.30000019073,457762.626,457767.2000002861,457779.102,461386.219,8,400,21,,ISIC_0072377.JPG
break,html.Screen,4_70_1,2023-09-11T19:11:53.954Z,,0,,,NaN,,,,,,false,,,,461370.80000019073,461370.7000002861,,461370.5,,461386.219,8,400,,,
break_continue,html.Screen,4_70_2,2023-09-11T19:11:53.954Z,,0,,,NaN,,,,,,false,,,,461371,461370.90000009537,,461370.90000009537,,461386.219,8,400,,,
sequence,flow.Sequence,4_70,2023-09-11T19:11:53.954Z,,0,,,3591.798000095354,completion,,,,,false,,,,461371.09999990463,461370.90000009537,457762.626,457767.09999990463,457779.102,461386.219,8,400,,,
trial,html.Screen,4_71_0,2023-09-11T19:11:58.356Z,,0,2,,4386.88099990465,response,ISIC_0028061.JPG,4,ISIC_2858419.JPG,ISIC_2858419.JPG,false,0,keypress(z),500,465773.2000002861,465773.09999990463,461369.438,461371.09999990463,461386.219,465777.991,8,400,22,,ISIC_0028061.JPG
break,html.Screen,4_71_1,2023-09-11T19:11:58.357Z,,0,,,NaN,,,,,,false,,,,465773.7000002861,465773.59999990463,,465773.30000019073,,465777.991,8,400,,,
break_continue,html.Screen,4_71_2,2023-09-11T19:11:58.357Z,,0,,,NaN,,,,,,false,,,,465773.90000009537,465773.80000019073,,465773.80000019073,,465777.991,8,400,,,
sequence,flow.Sequence,4_71,2023-09-11T19:11:58.357Z,,0,,,4387.581000190752,completion,,,,,false,,,,465774,465773.80000019073,461369.438,461371.09999990463,461386.219,465777.991,8,400,,,
trial,html.Screen,4_72_0,2023-09-11T19:12:05.800Z,,0,2,,7438.00900000002,response,ISIC_2433965.JPG,4,ISIC_0034039.JPG,ISIC_0034039.JPG,false,0,keypress(z),500,473216.2000002861,473216,465761.371,465774.09999990463,465777.991,473225.788,8,400,23,,ISIC_2433965.JPG
break,html.Screen,4_72_1,2023-09-11T19:12:05.801Z,,0,,,NaN,,,,,,false,,,,473216.80000019073,473216.59999990463,,473216.40000009537,,473225.788,8,400,,,
break_continue,html.Screen,4_72_2,2023-09-11T19:12:05.801Z,,0,,,NaN,,,,,,false,,,,473217,473216.90000009537,,473216.80000019073,,473225.788,8,400,,,
sequence,flow.Sequence,4_72,2023-09-11T19:12:05.801Z,,0,,,7438.9090000953875,completion,,,,,false,,,,473217.09999990463,473216.90000009537,465761.371,465774,465777.991,473225.788,8,400,,,
trial,html.Screen,4_73_0,2023-09-11T19:12:10.883Z,,0,2,,5072.612000095367,response,ISIC_4303228.JPG,5,ISIC_7340926.JPG,ISIC_7340926.JPG,false,0,keypress(z),500,478298.40000009537,478298.40000009537,473209.13,473217.09999990463,473225.788,478302.342,8,400,24,,ISIC_4303228.JPG
break,html.Screen,4_73_1,2023-09-11T19:12:10.883Z,,0,,,NaN,,,,,,false,,,,478298.90000009537,478298.90000009537,,478298.59999990463,,478302.342,8,400,,,
break_continue,html.Screen,4_73_2,2023-09-11T19:12:10.883Z,,0,,,NaN,,,,,,false,,,,478299.2000002861,478299.09999990463,,478299,,478302.342,8,400,,,
sequence,flow.Sequence,4_73,2023-09-11T19:12:10.883Z,,0,,,5073.311999904632,completion,,,,,false,,,,478299.2000002861,478299.09999990463,473209.13,473217.09999990463,473225.788,478302.342,8,400,,,
trial,html.Screen,4_74_0,2023-09-11T19:12:15.975Z,,0,2,,5088.458000190731,response,ISIC_1850674.JPG,5,ISIC_0066314.JPG,ISIC_1850674.JPG,false,1,keypress(m),500,483391.2000002861,483390.80000019073,478285.791,478299.30000019073,478302.342,483395.676,8,400,25,,ISIC_0066314.JPG
break,html.Screen,4_74_1,2023-09-11T19:12:15.977Z,,0,,,NaN,,,,,,false,,,,483392.80000019073,483392.2000002861,,483391.59999990463,,483395.676,8,400,,,
break_continue,html.Screen,4_74_2,2023-09-11T19:12:15.978Z,,0,,,NaN,,,,,,false,,,,483393.59999990463,483393.30000019073,,483393.09999990463,,483395.676,8,400,,,
sequence,flow.Sequence,4_74,2023-09-11T19:12:15.978Z,,0,,,5090.958000190731,completion,,,,,false,,,,483393.90000009537,483393.30000019073,478285.791,478299.30000019073,478302.342,483395.676,8,400,,,
trial,html.Screen,4_75_0,2023-09-11T19:12:20.959Z,,0,2,,4978.124000190757,response,ISIC_1597566.JPG,6,ISIC_8892236.JPG,ISIC_1597566.JPG,false,1,keypress(m),500,488374.30000019073,488373.80000019073,483379.003,483394.09999990463,483395.676,488405.487,8,400,26,,ISIC_8892236.JPG
break,html.Screen,4_75_1,2023-09-11T19:12:20.960Z,,0,,,NaN,,,,,,false,,,,488375.80000019073,488375,,488374.5,,488405.487,8,400,,,
break_continue,html.Screen,4_75_2,2023-09-11T19:12:20.961Z,,0,,,NaN,,,,,,false,,,,488376.40000009537,488376.2000002861,,488375.90000009537,,488405.487,8,400,,,
sequence,flow.Sequence,4_75,2023-09-11T19:12:20.961Z,,0,,,4980.524000286125,completion,,,,,false,,,,488376.59999990463,488376.2000002861,483379.003,483394,483395.676,488405.487,8,400,,,
trial,html.Screen,4_76_0,2023-09-11T19:12:26.547Z,,0,2,,5556.61299990461,response,ISIC_0010194.JPG,5,ISIC_0033129.JPG,ISIC_0010194.JPG,false,1,keypress(m),500,493962.30000019073,493962.09999990463,488388.79,488376.80000019073,488405.487,493966.238,8,400,27,,ISIC_0033129.JPG
break,html.Screen,4_76_1,2023-09-11T19:12:26.547Z,,0,,,NaN,,,,,,false,,,,493963,493962.80000019073,,493962.40000009537,,493966.238,8,400,,,
break_continue,html.Screen,4_76_2,2023-09-11T19:12:26.547Z,,0,,,NaN,,,,,,false,,,,493963.2000002861,493963.09999990463,,493963,,493966.238,8,400,,,
sequence,flow.Sequence,4_76,2023-09-11T19:12:26.548Z,,0,,,5557.61299990461,completion,,,,,false,,,,493963.30000019073,493963.09999990463,488388.79,488376.7000002861,488405.487,493966.238,8,400,,,
trial,html.Screen,4_77_0,2023-09-11T19:12:30.999Z,,0,2,,4448.562000190723,response,ISIC_7528996.JPG,5,ISIC_5611010.JPG,ISIC_7528996.JPG,false,1,keypress(m),500,498414.90000009537,498414.80000019073,493949.552,493963.40000009537,493966.238,498425.015,8,400,28,,ISIC_5611010.JPG
break,html.Screen,4_77_1,2023-09-11T19:12:31.000Z,,0,,,NaN,,,,,,false,,,,498415.40000009537,498415.30000019073,,498415.09999990463,,498425.015,8,400,,,
break_continue,html.Screen,4_77_2,2023-09-11T19:12:31.000Z,,0,,,NaN,,,,,,false,,,,498415.7000002861,498415.59999990463,,498415.5,,498425.015,8,400,,,
sequence,flow.Sequence,4_77,2023-09-11T19:12:31.000Z,,0,,,4449.3619999046205,completion,,,,,false,,,,498415.80000019073,498415.59999990463,493949.552,493963.40000009537,493966.238,498425.015,8,400,,,
trial,html.Screen,4_78_0,2023-09-11T19:12:36.827Z,,0,2,,5817.984999999986,response,ISIC_9525136.JPG,5,ISIC_0061141.JPG,ISIC_9525136.JPG,false,1,keypress(m),500,504243.09999990463,504243,498408.314,498415.90000009537,498425.015,504252.86,8,400,29,,ISIC_0061141.JPG
break,html.Screen,4_78_1,2023-09-11T19:12:36.828Z,,0,,,NaN,,,,,,false,,,,504243.5,504243.40000009537,,504243.30000019073,,504252.86,8,400,,,
break_continue,html.Screen,4_78_2,2023-09-11T19:12:36.828Z,,0,,,NaN,,,,,,false,,,,504243.7000002861,504243.59999990463,,504243.59999990463,,504252.86,8,400,,,
sequence,flow.Sequence,4_78,2023-09-11T19:12:36.828Z,,0,,,5818.584999904619,completion,,,,,false,,,,504243.80000019073,504243.59999990463,498408.314,498415.90000009537,498425.015,504252.86,8,400,,,
trial,html.Screen,4_79_0,2023-09-11T19:12:41.125Z,,0,2,,4287.940000190749,response,ISIC_0026890.JPG,6,ISIC_8007849.JPG,ISIC_0026890.JPG,false,1,keypress(m),500,508540.90000009537,508540.80000019073,504236.157,504243.80000019073,504252.86,508544.622,8,400,30,,ISIC_8007849.JPG
break,html.Screen,4_79_1,2023-09-11T19:12:41.126Z,,0,,,NaN,,,,,,false,,,,508541.40000009537,508541.30000019073,,508541.09999990463,,508544.622,8,400,,,
break_continue,html.Screen,4_79_2,2023-09-11T19:12:41.126Z,,0,,,NaN,,,,,,false,,,,508541.5,508541.5,,508541.40000009537,,508544.622,8,400,,,
sequence,flow.Sequence,4_79,2023-09-11T19:12:41.126Z,,0,,,4288.640000000014,completion,,,,,false,,,,508541.59999990463,508541.5,504236.157,504243.80000019073,504252.86,508544.622,8,400,,,
trial,html.Screen,4_80_0,2023-09-11T19:12:47.415Z,,0,2,,6286.378000000026,response,ISIC_0065735.JPG,6,ISIC_2736880.JPG,ISIC_2736880.JPG,false,0,keypress(z),500,514831.09999990463,514831,508527.931,508541.7000002861,508544.622,514840.244,8,400,31,,ISIC_0065735.JPG
break,html.Screen,4_80_1,2023-09-11T19:12:47.416Z,,0,,,NaN,,,,,,false,,,,514831.59999990463,514831.5,,514831.30000019073,,514840.244,8,400,,,
break_continue,html.Screen,4_80_2,2023-09-11T19:12:47.416Z,,0,,,NaN,,,,,,false,,,,514831.80000019073,514831.7000002861,,514831.7000002861,,514840.244,8,400,,,
sequence,flow.Sequence,4_80,2023-09-11T19:12:47.416Z,,0,,,6287.078000286128,completion,,,,,false,,,,514831.90000009537,514831.7000002861,508527.931,508541.7000002861,508544.622,514840.244,8,400,,,
trial,html.Screen,4_81_0,2023-09-11T19:12:51.018Z,,0,2,,3593.056000190729,response,ISIC_5771106.JPG,4,ISIC_0011460.JPG,ISIC_5771106.JPG,false,1,keypress(m),500,518433.40000009537,518433.30000019073,514823.507,514831.90000009537,514840.244,518463.863,8,400,32,,ISIC_0011460.JPG
break,html.Screen,4_81_1,2023-09-11T19:12:51.019Z,,0,,,NaN,,,,,,false,,,,518434.5,518434.2000002861,,518433.7000002861,,518463.863,8,400,,,
break_continue,html.Screen,4_81_2,2023-09-11T19:12:51.019Z,,0,,,NaN,,,,,,false,,,,518435.09999990463,518435,,518434.80000019073,,518463.863,8,400,,,
sequence,flow.Sequence,4_81,2023-09-11T19:12:51.020Z,,0,,,3594.755999999994,completion,,,,,false,,,,518435.40000009537,518435,514823.507,514831.90000009537,514840.244,518463.863,8,400,,,
trial,html.Screen,4_82_0,2023-09-11T19:12:55.215Z,,0,2,,4166.33700028609,response,ISIC_8773962.JPG,5,ISIC_0056444.JPG,ISIC_8773962.JPG,false,1,keypress(m),500,522630.30000019073,522630.2000002861,518447.172,518435.5,518463.863,522638.629,8,400,33,,ISIC_0056444.JPG
break,html.Screen,4_82_1,2023-09-11T19:12:55.215Z,,0,,,NaN,,,,,,false,,,,522630.80000019073,522630.59999990463,,522630.5,,522638.629,8,400,,,
break_continue,html.Screen,4_82_2,2023-09-11T19:12:55.215Z,,0,,,NaN,,,,,,false,,,,522631.09999990463,522631,,522630.90000009537,,522638.629,8,400,,,
sequence,flow.Sequence,4_82,2023-09-11T19:12:55.215Z,,0,,,4167.136999999988,completion,,,,,false,,,,522631.2000002861,522631,518447.172,518435.40000009537,518463.863,522638.629,8,400,,,
trial,html.Screen,4_83_0,2023-09-11T19:13:01.874Z,,0,2,,6649.970999904617,response,ISIC_0032806.JPG,5,ISIC_0010971.JPG,ISIC_0010971.JPG,false,0,keypress(z),500,529288.5999999046,529288.5999999046,522622.088,522631.30000019073,522638.629,529301.754,8,400,34,,ISIC_0032806.JPG
break,html.Screen,4_83_1,2023-09-11T19:13:01.875Z,,0,,,NaN,,,,,,false,,,,529289.3000001907,529289.0999999046,,529288.8000001907,,529301.754,8,400,,,
break_continue,html.Screen,4_83_2,2023-09-11T19:13:01.875Z,,0,,,NaN,,,,,,false,,,,529289.5999999046,529289.5,,529289.3000001907,,529301.754,8,400,,,
sequence,flow.Sequence,4_83,2023-09-11T19:13:01.875Z,,0,,,6650.870999999985,completion,,,,,false,,,,529289.5999999046,529289.5,522622.088,522631.30000019073,522638.629,529301.754,8,400,,,
trial,html.Screen,4_84_0,2023-09-11T19:13:07.448Z,,0,2,,5561.046000190778,response,ISIC_0059357.JPG,5,ISIC_7988794.JPG,ISIC_7988794.JPG,false,0,keypress(z),500,534863,534862.8000001907,529285.058,529289.7000002861,529301.754,534879.284,8,400,35,,ISIC_0059357.JPG
break,html.Screen,4_84_1,2023-09-11T19:13:07.449Z,,0,,,NaN,,,,,,false,,,,534863.5,534863.3000001907,,534863.0999999046,,534879.284,8,400,,,
break_continue,html.Screen,4_84_2,2023-09-11T19:13:07.449Z,,0,,,NaN,,,,,,false,,,,534863.5999999046,534863.5999999046,,534863.5,,534879.284,8,400,,,
sequence,flow.Sequence,4_84,2023-09-11T19:13:07.449Z,,0,,,5561.845999904675,completion,,,,,false,,,,534863.8000001907,534863.5999999046,529285.058,529289.7000002861,529301.754,534879.284,8,400,,,
trial,html.Screen,4_85_0,2023-09-11T19:13:13.946Z,,0,2,,6481.216000000015,response,ISIC_0025648.JPG,5,ISIC_0030769.JPG,ISIC_0025648.JPG,false,1,keypress(m),500,541360.7000002861,541360.5,534862.554,534863.9000000954,534879.284,541375.096,8,400,36,,ISIC_0030769.JPG
break,html.Screen,4_85_1,2023-09-11T19:13:13.947Z,,0,,,NaN,,,,,,false,,,,541361.5,541361.3000001907,,541360.8000001907,,541375.096,8,400,,,
break_continue,html.Screen,4_85_2,2023-09-11T19:13:13.947Z,,0,,,NaN,,,,,,false,,,,541361.8000001907,541361.7000002861,,541361.5999999046,,541375.096,8,400,,,
sequence,flow.Sequence,4_85,2023-09-11T19:13:13.947Z,,0,,,6482.416000286117,completion,,,,,false,,,,541361.9000000954,541361.7000002861,534862.554,534863.9000000954,534879.284,541375.096,8,400,,,
trial,html.Screen,4_86_0,2023-09-11T19:13:21.313Z,,0,2,,7352.40399999998,response,ISIC_0058723.JPG,4,ISIC_0032424.JPG,ISIC_0058723.JPG,false,1,keypress(m),500,548727.5999999046,548727.5,541358.536,541362,541375.096,548739.457,8,400,37,,ISIC_0032424.JPG
break,html.Screen,4_86_1,2023-09-11T19:13:21.313Z,,0,,,NaN,,,,,,false,,,,548728.0999999046,548728,,548727.7000002861,,548739.457,8,400,,,
break_continue,html.Screen,4_86_2,2023-09-11T19:13:21.314Z,,0,,,NaN,,,,,,false,,,,548728.4000000954,548728.4000000954,,548728.2000002861,,548739.457,8,400,,,
sequence,flow.Sequence,4_86,2023-09-11T19:13:21.314Z,,0,,,7353.304000095348,completion,,,,,false,,,,548728.5999999046,548728.4000000954,541358.536,541362,541375.096,548739.457,8,400,,,
trial,html.Screen,4_87_0,2023-09-11T19:13:26.309Z,,0,2,,4984.243000286049,response,ISIC_9226193.JPG,5,ISIC_6533176.JPG,ISIC_9226193.JPG,false,1,keypress(m),500,553724.0999999046,553723.7000002861,548722.85,548728.5999999046,548739.457,553732.59,8,400,38,,ISIC_6533176.JPG
break,html.Screen,4_87_1,2023-09-11T19:13:26.311Z,,0,,,NaN,,,,,,false,,,,553725.9000000954,553725.4000000954,,553724.5,,553732.59,8,400,,,
break_continue,html.Screen,4_87_2,2023-09-11T19:13:26.312Z,,0,,,NaN,,,,,,false,,,,553726.9000000954,553726.5999999046,,553726.2000002861,,553732.59,8,400,,,
sequence,flow.Sequence,4_87,2023-09-11T19:13:26.312Z,,0,,,4987.1429999045795,completion,,,,,false,,,,553727.2000002861,553726.5999999046,548722.85,548728.5999999046,548739.457,553732.59,8,400,,,
trial,html.Screen,4_88_0,2023-09-11T19:13:34.139Z,,0,2,,7821.3100000954,response,ISIC_0033655.JPG,5,ISIC_0029290.JPG,ISIC_0033655.JPG,false,1,keypress(m),500,561553.9000000954,561553.9000000954,553715.824,553727.4000000954,553732.59,561564.574,8,400,39,,ISIC_0029290.JPG
break,html.Screen,4_88_1,2023-09-11T19:13:34.140Z,,0,,,NaN,,,,,,false,,,,561554.3000001907,561554.3000001907,,561554.0999999046,,561564.574,8,400,,,
break_continue,html.Screen,4_88_2,2023-09-11T19:13:34.140Z,,0,,,NaN,,,,,,false,,,,561554.5,561554.5,,561554.4000000954,,561564.574,8,400,,,
sequence,flow.Sequence,4_88,2023-09-11T19:13:34.140Z,,0,,,7821.910000000033,completion,,,,,false,,,,561554.5,561554.5,553715.824,553727.3000001907,553732.59,561564.574,8,400,,,
trial,html.Screen,4_89_0,2023-09-11T19:13:39.521Z,,0,2,,5370.925999999978,response,ISIC_0024962.JPG,6,ISIC_0010883.JPG,ISIC_0010883.JPG,false,0,keypress(z),500,566935.7000002861,566935.5,561547.769,561554.7000002861,561564.574,566941.53,8,400,40,,ISIC_0024962.JPG
break,html.Screen,4_89_1,2023-09-11T19:13:39.522Z,,0,,,NaN,,,,,,false,,,,566936.7000002861,566936.3000001907,,566936,,566941.53,8,400,,,
break_continue,html.Screen,4_89_2,2023-09-11T19:13:39.522Z,,0,,,NaN,,,,,,false,,,,566937,566936.9000000954,,566936.7000002861,,566941.53,8,400,,,
sequence,flow.Sequence,4_89,2023-09-11T19:13:39.522Z,,0,,,5372.326000095345,completion,,,,,false,,,,566937.0999999046,566936.9000000954,561547.769,561554.5999999046,561564.574,566941.53,8,400,,,
trial,html.Screen,4_90_0,2023-09-11T19:13:44.967Z,,0,2,,5440.069999904605,response,ISIC_2753279.JPG,4,ISIC_0069193.JPG,ISIC_2753279.JPG,false,1,keypress(m),500,572381.9000000954,572381.5999999046,566925.002,566937.2000002861,566941.53,572385.457,8,400,41,,ISIC_0069193.JPG
break,html.Screen,4_90_1,2023-09-11T19:13:44.968Z,,0,,,NaN,,,,,,false,,,,572382.5,572382.3000001907,,572382,,572385.457,8,400,,,
break_continue,html.Screen,4_90_2,2023-09-11T19:13:44.968Z,,0,,,NaN,,,,,,false,,,,572382.9000000954,572382.7000002861,,572382.5999999046,,572385.457,8,400,,,
sequence,flow.Sequence,4_90,2023-09-11T19:13:44.968Z,,0,,,5441.170000286074,completion,,,,,false,,,,572383,572382.7000002861,566925.002,566937.2000002861,566941.53,572385.457,8,400,,,
trial,html.Screen,4_91_0,2023-09-11T19:13:48.811Z,,0,2,,3839.843000190682,response,ISIC_0029868.JPG,5,ISIC_0015185.JPG,ISIC_0029868.JPG,false,1,keypress(m),500,576225.5,576225.3000001907,572368.959,572383,572385.457,576242.954,8,400,42,,ISIC_0015185.JPG
break,html.Screen,4_91_1,2023-09-11T19:13:48.812Z,,0,,,NaN,,,,,,false,,,,576226.7000002861,576226.3000001907,,576225.8000001907,,576242.954,8,400,,,
break_continue,html.Screen,4_91_2,2023-09-11T19:13:48.812Z,,0,,,NaN,,,,,,false,,,,576227.0999999046,576226.9000000954,,576226.8000001907,,576242.954,8,400,,,
sequence,flow.Sequence,4_91,2023-09-11T19:13:48.813Z,,0,,,3841.4430000953143,completion,,,,,false,,,,576227.4000000954,576226.9000000954,572368.959,572383,572385.457,576242.954,8,400,,,
trial,html.Screen,4_92_0,2023-09-11T19:13:52.911Z,,0,2,,4082.545999999973,response,ISIC_0011329.JPG,5,ISIC_0013572.JPG,ISIC_0013572.JPG,false,0,keypress(z),500,580325.5999999046,580325.5,576209.857,576227.5,576242.954,580334.226,8,400,43,,ISIC_0011329.JPG
break,html.Screen,4_92_1,2023-09-11T19:13:52.912Z,,0,,,NaN,,,,,,false,,,,580326.3000001907,580326,,580325.8000001907,,580334.226,8,400,,,
break_continue,html.Screen,4_92_2,2023-09-11T19:13:52.912Z,,0,,,NaN,,,,,,false,,,,580326.5,580326.5,,580326.3000001907,,580334.226,8,400,,,
sequence,flow.Sequence,4_92,2023-09-11T19:13:52.912Z,,0,,,4083.545999999973,completion,,,,,false,,,,580326.7000002861,580326.5,576209.857,576227.5,576242.954,580334.226,8,400,,,
trial,html.Screen,4_93_0,2023-09-11T19:13:58.006Z,,0,2,,5086.373999904608,response,ISIC_8007849.JPG,6,ISIC_0054973.JPG,ISIC_8007849.JPG,false,1,keypress(m),500,585420.8000001907,585420.5999999046,580317.679,580326.7000002861,580334.226,585427.625,8,400,44,,ISIC_0054973.JPG
break,html.Screen,4_93_1,2023-09-11T19:13:58.007Z,,0,,,NaN,,,,,,false,,,,585421.4000000954,585421.2000002861,,585420.9000000954,,585427.625,8,400,,,
break_continue,html.Screen,4_93_2,2023-09-11T19:13:58.007Z,,0,,,NaN,,,,,,false,,,,585421.7000002861,585421.5999999046,,585421.5999999046,,585427.625,8,400,,,
sequence,flow.Sequence,4_93,2023-09-11T19:13:58.007Z,,0,,,5087.373999904608,completion,,,,,false,,,,585421.8000001907,585421.5999999046,580317.679,580326.7000002861,580334.226,585427.625,8,400,,,
trial,html.Screen,4_94_0,2023-09-11T19:14:02.777Z,,0,2,,4762.775000095367,response,ISIC_0046706.JPG,4,ISIC_0013565.JPG,ISIC_0013565.JPG,false,0,keypress(z),500,590190.5999999046,590190.4000000954,585410.943,585421.8000001907,585427.625,590220.26,8,400,45,,ISIC_0046706.JPG
break,html.Screen,4_94_1,2023-09-11T19:14:02.778Z,,0,,,NaN,,,,,,false,,,,590191.0999999046,590191,,590190.7000002861,,590220.26,8,400,,,
break_continue,html.Screen,4_94_2,2023-09-11T19:14:02.778Z,,0,,,NaN,,,,,,false,,,,590191.3000001907,590191.2000002861,,590191.0999999046,,590220.26,8,400,,,
sequence,flow.Sequence,4_94,2023-09-11T19:14:02.778Z,,0,,,4763.575000286102,completion,,,,,false,,,,590191.4000000954,590191.2000002861,585410.943,585421.8000001907,585427.625,590220.26,8,400,,,
trial,html.Screen,4_95_0,2023-09-11T19:14:06.912Z,,0,2,,4105.339999904623,response,ISIC_0024256.JPG,5,ISIC_0030860.JPG,ISIC_0030860.JPG,false,0,keypress(z),500,594325.9000000954,594325.5999999046,590203.587,590191.4000000954,590220.26,594328.177,8,400,46,,ISIC_0024256.JPG
break,html.Screen,4_95_1,2023-09-11T19:14:06.913Z,,0,,,NaN,,,,,,false,,,,594326.7000002861,594326.5,,594326.0999999046,,594328.177,8,400,,,
break_continue,html.Screen,4_95_2,2023-09-11T19:14:06.913Z,,0,,,NaN,,,,,,false,,,,594327,594326.9000000954,,594326.8000001907,,594328.177,8,400,,,
sequence,flow.Sequence,4_95,2023-09-11T19:14:06.914Z,,0,,,4106.640000095358,completion,,,,,false,,,,594327.2000002861,594326.9000000954,590203.587,590191.4000000954,590220.26,594328.177,8,400,,,
trial,html.Screen,4_96_0,2023-09-11T19:14:12.853Z,,0,2,,5938.322999999975,response,ISIC_0059836.JPG,6,ISIC_1685962.JPG,ISIC_1685962.JPG,false,0,keypress(z),500,600266.5,600266.5,594311.56,594327.3000001907,594328.177,600273.078,8,400,47,,ISIC_0059836.JPG
break,html.Screen,4_96_1,2023-09-11T19:14:12.853Z,,0,,,NaN,,,,,,false,,,,600267,600266.9000000954,,600266.7000002861,,600273.078,8,400,,,
break_continue,html.Screen,4_96_2,2023-09-11T19:14:12.854Z,,0,,,NaN,,,,,,false,,,,600267.0999999046,600267.0999999046,,600267,,600273.078,8,400,,,
sequence,flow.Sequence,4_96,2023-09-11T19:14:12.854Z,,0,,,5938.922999904607,completion,,,,,false,,,,600267.2000002861,600267.0999999046,594311.56,594327.2000002861,594328.177,600273.078,8,400,,,
trial,html.Screen,4_97_0,2023-09-11T19:14:18.535Z,,0,2,,5675.521999904653,response,ISIC_0029017.JPG,4,ISIC_7162343.JPG,ISIC_0029017.JPG,false,1,keypress(m),500,605948.7000002861,605948.5999999046,600256.451,600267.3000001907,600273.078,605950.821,8,400,48,,ISIC_7162343.JPG
break,html.Screen,4_97_1,2023-09-11T19:14:18.536Z,,0,,,NaN,,,,,,false,,,,605949.4000000954,605949.3000001907,,605948.8000001907,,605950.821,8,400,,,
break_continue,html.Screen,4_97_2,2023-09-11T19:14:18.536Z,,0,,,NaN,,,,,,false,,,,605949.7000002861,605949.5999999046,,605949.5,,605950.821,8,400,,,
sequence,flow.Sequence,4_97,2023-09-11T19:14:18.536Z,,0,,,5676.521999904653,completion,,,,,false,,,,605949.8000001907,605949.5999999046,600256.451,600267.3000001907,600273.078,605950.821,8,400,,,
trial,html.Screen,4_98_0,2023-09-11T19:14:24.336Z,,0,2,,5798.379000286106,response,ISIC_8882374.JPG,5,ISIC_0033578.JPG,ISIC_0033578.JPG,false,0,keypress(z),500,611749.3000001907,611749.2000002861,605934.167,605949.9000000954,605950.821,611762.119,8,400,49,,ISIC_8882374.JPG
break,html.Screen,4_98_1,2023-09-11T19:14:24.337Z,,0,,,NaN,,,,,,false,,,,611750.2000002861,611750,,611749.5,,611762.119,8,400,,,
break_continue,html.Screen,4_98_2,2023-09-11T19:14:24.337Z,,0,,,NaN,,,,,,false,,,,611750.7000002861,611750.5,,611750.3000001907,,611762.119,8,400,,,
sequence,flow.Sequence,4_98,2023-09-11T19:14:24.337Z,,0,,,5799.679000000004,completion,,,,,false,,,,611750.8000001907,611750.5,605934.167,605949.9000000954,605950.821,611762.119,8,400,,,
trial,html.Screen,4_99_0,2023-09-11T19:14:28.787Z,,0,2,,4438.681000190787,response,ISIC_0032844.JPG,5,ISIC_0013141.JPG,ISIC_0032844.JPG,false,1,keypress(m),500,616200.9000000954,616200.8000001907,611745.602,611751,611762.119,616204.188,8,400,50,,ISIC_0013141.JPG
break,html.Screen,4_99_1,2023-09-11T19:14:38.777Z,,0,,,10002.80700000003,timeout,,,,,false,,,,626190.8000001907,626190.307,616187.524,616201,616204.188,626206.995,8,400,,,
break_continue,html.Screen,4_99_2,2023-09-11T19:14:40.818Z,,0,,,2016.405000095372,response,,,,,false,continue,keypress(Space),,628231.2000002861,628223.4000000954,626190.307,626191,626206.995,628244.199,8,400,,,
sequence,flow.Sequence,4_99,2023-09-11T19:14:40.818Z,,0,,,16461.28100009542,completion,,,,,false,,,,628231.7000002861,628223.4000000954,611745.602,611751,611762.119,628244.199,8,400,,,
trial,html.Screen,4_100_0,2023-09-11T19:14:45.844Z,,0,3,,5012.90099990461,response,ISIC_6507492.JPG,5,ISIC_0058063.JPG,ISIC_6507492.JPG,false,1,keypress(m),500,633257.4000000954,633257.0999999046,628227.423,628231.8000001907,628244.199,633270.699,8,400,1,,ISIC_0058063.JPG
break,html.Screen,4_100_1,2023-09-11T19:14:45.845Z,,0,,,NaN,,,,,,false,,,,633258.5999999046,633258.2000002861,,633257.5999999046,,633270.699,8,400,,,
break_continue,html.Screen,4_100_2,2023-09-11T19:14:45.846Z,,0,,,NaN,,,,,,false,,,,633259.2000002861,633259.0999999046,,633258.8000001907,,633270.699,8,400,,,
sequence,flow.Sequence,4_100,2023-09-11T19:14:45.846Z,,0,,,5014.90099990461,completion,,,,,false,,,,633259.3000001907,633259.0999999046,628227.423,628231.8000001907,628244.199,633270.699,8,400,,,
trial,html.Screen,4_101_0,2023-09-11T19:14:50.711Z,,0,3,,4854.201000095345,response,ISIC_0014973.JPG,5,ISIC_0010869.JPG,ISIC_0010869.JPG,false,0,keypress(z),500,638125,638124.9000000954,633253.909,633259.4000000954,633270.699,638130.085,8,400,2,,ISIC_0014973.JPG
break,html.Screen,4_101_1,2023-09-11T19:14:50.712Z,,0,,,NaN,,,,,,false,,,,638125.4000000954,638125.3000001907,,638125.0999999046,,638130.085,8,400,,,
break_continue,html.Screen,4_101_2,2023-09-11T19:14:50.712Z,,0,,,NaN,,,,,,false,,,,638125.5999999046,638125.5999999046,,638125.5,,638130.085,8,400,,,
sequence,flow.Sequence,4_101,2023-09-11T19:14:50.712Z,,0,,,4854.90099990461,completion,,,,,false,,,,638125.7000002861,638125.5999999046,633253.909,633259.4000000954,633270.699,638130.085,8,400,,,
trial,html.Screen,4_102_0,2023-09-11T19:14:54.602Z,,0,3,,3885.6150002861395,response,ISIC_0029982.JPG,5,ISIC_0071367.JPG,ISIC_0029982.JPG,false,1,keypress(m),500,642015.7000002861,642015.7000002861,638113.474,638125.8000001907,638130.085,642020.958,8,400,3,,ISIC_0071367.JPG
break,html.Screen,4_102_1,2023-09-11T19:14:54.603Z,,0,,,NaN,,,,,,false,,,,642016.3000001907,642016.0999999046,,642015.9000000954,,642020.958,8,400,,,
break_continue,html.Screen,4_102_2,2023-09-11T19:14:54.603Z,,0,,,NaN,,,,,,false,,,,642016.5999999046,642016.5,,642016.4000000954,,642020.958,8,400,,,
sequence,flow.Sequence,4_102,2023-09-11T19:14:54.603Z,,0,,,3886.4150000000373,completion,,,,,false,,,,642016.5999999046,642016.5,638113.474,638125.7000002861,638130.085,642020.958,8,400,,,
trial,html.Screen,4_103_0,2023-09-11T19:14:58.718Z,,0,3,,4109.942000095383,response,ISIC_8603734.JPG,5,ISIC_0028361.JPG,ISIC_8603734.JPG,false,1,keypress(m),500,646131,646130.9000000954,642004.396,642016.8000001907,642020.958,646145.76,8,400,4,,ISIC_0028361.JPG
break,html.Screen,4_103_1,2023-09-11T19:14:58.718Z,,0,,,NaN,,,,,,false,,,,646131.4000000954,646131.3000001907,,646131.0999999046,,646145.76,8,400,,,
break_continue,html.Screen,4_103_2,2023-09-11T19:14:58.718Z,,0,,,NaN,,,,,,false,,,,646131.7000002861,646131.7000002861,,646131.5999999046,,646145.76,8,400,,,
sequence,flow.Sequence,4_103,2023-09-11T19:14:58.718Z,,0,,,4110.742000286118,completion,,,,,false,,,,646131.8000001907,646131.7000002861,642004.396,642016.8000001907,642020.958,646145.76,8,400,,,
trial,html.Screen,4_104_0,2023-09-11T19:15:02.900Z,,0,3,,4166.440000286093,response,ISIC_0182020.JPG,6,ISIC_3152541.JPG,ISIC_0182020.JPG,false,1,keypress(m),500,650312.3000001907,650312.2000002861,646129.107,646131.8000001907,646145.76,650320.53,8,400,5,,ISIC_3152541.JPG
break,html.Screen,4_104_1,2023-09-11T19:15:02.900Z,,0,,,NaN,,,,,,false,,,,650312.7000002861,650312.5999999046,,650312.4000000954,,650320.53,8,400,,,
break_continue,html.Screen,4_104_2,2023-09-11T19:15:02.900Z,,0,,,NaN,,,,,,false,,,,650312.8000001907,650312.8000001907,,650312.7000002861,,650320.53,8,400,,,
sequence,flow.Sequence,4_104,2023-09-11T19:15:02.901Z,,0,,,4167.040000190726,completion,,,,,false,,,,650312.9000000954,650312.8000001907,646129.107,646131.8000001907,646145.76,650320.53,8,400,,,
trial,html.Screen,4_105_0,2023-09-11T19:15:06.711Z,,0,3,,3802.5699999046046,response,ISIC_7342636.JPG,5,ISIC_0014987.JPG,ISIC_7342636.JPG,false,1,keypress(m),500,654123.2000002861,654123.0999999046,650303.87,650313,650320.53,654127.88,8,400,6,,ISIC_0014987.JPG
break,html.Screen,4_105_1,2023-09-11T19:15:06.711Z,,0,,,NaN,,,,,,false,,,,654123.5999999046,654123.5,,654123.4000000954,,654127.88,8,400,,,
break_continue,html.Screen,4_105_2,2023-09-11T19:15:06.711Z,,0,,,NaN,,,,,,false,,,,654123.8000001907,654123.8000001907,,654123.7000002861,,654127.88,8,400,,,
sequence,flow.Sequence,4_105,2023-09-11T19:15:06.712Z,,0,,,3803.270000190707,completion,,,,,false,,,,654123.9000000954,654123.8000001907,650303.87,650313,650320.53,654127.88,8,400,,,
trial,html.Screen,4_106_0,2023-09-11T19:15:11.980Z,,0,3,,5264.719999904628,response,ISIC_0072943.JPG,4,ISIC_7781213.JPG,ISIC_7781213.JPG,false,0,keypress(z),500,659392.8000001907,659392.5999999046,654111.195,654124,654127.88,659404.862,8,400,7,,ISIC_0072943.JPG
break,html.Screen,4_106_1,2023-09-11T19:15:11.981Z,,0,,,NaN,,,,,,false,,,,659393.8000001907,659393.5999999046,,659393.0999999046,,659404.862,8,400,,,
break_continue,html.Screen,4_106_2,2023-09-11T19:15:11.982Z,,0,,,NaN,,,,,,false,,,,659394.2000002861,659394.0999999046,,659393.9000000954,,659404.862,8,400,,,
sequence,flow.Sequence,4_106,2023-09-11T19:15:11.982Z,,0,,,5266.219999904628,completion,,,,,false,,,,659394.3000001907,659394.0999999046,654111.195,654124,654127.88,659404.862,8,400,,,
trial,html.Screen,4_107_0,2023-09-11T19:15:16.464Z,,0,3,,4471.838000286138,response,ISIC_9859873.JPG,5,ISIC_5642824.JPG,ISIC_9859873.JPG,false,1,keypress(m),500,663876.8000001907,663876.7000002861,659388.136,659394.5,659404.862,663880.179,8,400,8,,ISIC_5642824.JPG
break,html.Screen,4_107_1,2023-09-11T19:15:16.465Z,,0,,,NaN,,,,,,false,,,,663877.5999999046,663877.3000001907,,663877,,663880.179,8,400,,,
break_continue,html.Screen,4_107_2,2023-09-11T19:15:16.465Z,,0,,,NaN,,,,,,false,,,,663877.9000000954,663877.8000001907,,663877.7000002861,,663880.179,8,400,,,
sequence,flow.Sequence,4_107,2023-09-11T19:15:16.466Z,,0,,,4472.93800019077,completion,,,,,false,,,,663878,663877.8000001907,659388.136,659394.4000000954,659404.862,663880.179,8,400,,,
trial,html.Screen,4_108_0,2023-09-11T19:15:21.156Z,,0,3,,4687.820999999996,response,ISIC_0033416.JPG,6,ISIC_0014846.JPG,ISIC_0033416.JPG,false,1,keypress(m),500,668568.3000001907,668568,663863.586,663878,663880.179,668572.75,8,400,9,,ISIC_0014846.JPG
break,html.Screen,4_108_1,2023-09-11T19:15:21.157Z,,0,,,NaN,,,,,,false,,,,668569.3000001907,668568.8000001907,,668568.4000000954,,668572.75,8,400,,,
break_continue,html.Screen,4_108_2,2023-09-11T19:15:21.157Z,,0,,,NaN,,,,,,false,,,,668569.7000002861,668569.5999999046,,668569.4000000954,,668572.75,8,400,,,
sequence,flow.Sequence,4_108,2023-09-11T19:15:21.157Z,,0,,,4689.420999904629,completion,,,,,false,,,,668569.9000000954,668569.5999999046,663863.586,663878,663880.179,668572.75,8,400,,,
trial,html.Screen,4_109_0,2023-09-11T19:15:24.957Z,,0,3,,3796.1500000953674,response,ISIC_4984668.JPG,5,ISIC_0033678.JPG,ISIC_4984668.JPG,false,1,keypress(m),500,672369.0999999046,672368.9000000954,668556.096,668570,668572.75,672380.081,8,400,10,,ISIC_0033678.JPG
break,html.Screen,4_109_1,2023-09-11T19:15:24.958Z,,0,,,NaN,,,,,,false,,,,672369.8000001907,672369.5999999046,,672369.3000001907,,672380.081,8,400,,,
break_continue,html.Screen,4_109_2,2023-09-11T19:15:24.958Z,,0,,,NaN,,,,,,false,,,,672370.2000002861,672370.0999999046,,672370,,672380.081,8,400,,,
sequence,flow.Sequence,4_109,2023-09-11T19:15:24.958Z,,0,,,3797.3499999046326,completion,,,,,false,,,,672370.4000000954,672370.0999999046,668556.096,668570,668572.75,672380.081,8,400,,,
trial,html.Screen,4_110_0,2023-09-11T19:15:28.785Z,,0,3,,3817.6190002860967,response,ISIC_4803943.JPG,5,ISIC_2106823.JPG,ISIC_4803943.JPG,false,1,keypress(m),500,676197.8000001907,676197.7000002861,672363.466,672370.5,672380.081,676204.142,8,400,11,,ISIC_2106823.JPG
break,html.Screen,4_110_1,2023-09-11T19:15:28.786Z,,0,,,NaN,,,,,,false,,,,676198.3000001907,676198.0999999046,,676197.9000000954,,676204.142,8,400,,,
break_continue,html.Screen,4_110_2,2023-09-11T19:15:28.786Z,,0,,,NaN,,,,,,false,,,,676198.4000000954,676198.4000000954,,676198.3000001907,,676204.142,8,400,,,
sequence,flow.Sequence,4_110,2023-09-11T19:15:28.786Z,,0,,,3818.319000095362,completion,,,,,false,,,,676198.5,676198.4000000954,672363.466,672370.5,672380.081,676204.142,8,400,,,
trial,html.Screen,4_111_0,2023-09-11T19:15:33.475Z,,0,3,,4683.258000095375,response,ISIC_5390932.JPG,4,ISIC_0011495.JPG,ISIC_5390932.JPG,false,1,keypress(m),500,680887.5,680887.4000000954,676187.586,676198.5,676204.142,680896.623,8,400,12,,ISIC_0011495.JPG
break,html.Screen,4_111_1,2023-09-11T19:15:33.476Z,,0,,,NaN,,,,,,false,,,,680887.9000000954,680887.9000000954,,680887.7000002861,,680896.623,8,400,,,
break_continue,html.Screen,4_111_2,2023-09-11T19:15:33.476Z,,0,,,NaN,,,,,,false,,,,680888.0999999046,680888,,680888,,680896.623,8,400,,,
sequence,flow.Sequence,4_111,2023-09-11T19:15:33.476Z,,0,,,4683.858000000007,completion,,,,,false,,,,680888.2000002861,680888,676187.586,676198.5,676204.142,680896.623,8,400,,,
trial,html.Screen,4_112_0,2023-09-11T19:15:38.781Z,,0,3,,5296.876999999979,response,ISIC_7641956.JPG,6,ISIC_5585279.JPG,ISIC_7641956.JPG,false,1,keypress(m),500,686193.7000002861,686193.5,680880.03,680888.2000002861,680896.623,686223.817,8,400,13,,ISIC_5585279.JPG
break,html.Screen,4_112_1,2023-09-11T19:15:38.782Z,,0,,,NaN,,,,,,false,,,,686194.3000001907,686194.2000002861,,686193.8000001907,,686223.817,8,400,,,
break_continue,html.Screen,4_112_2,2023-09-11T19:15:38.782Z,,0,,,NaN,,,,,,false,,,,686194.7000002861,686194.5999999046,,686194.4000000954,,686223.817,8,400,,,
sequence,flow.Sequence,4_112,2023-09-11T19:15:38.782Z,,0,,,5297.976999904611,completion,,,,,false,,,,686194.7000002861,686194.5999999046,680880.03,680888.2000002861,680896.623,686223.817,8,400,,,
trial,html.Screen,4_113_0,2023-09-11T19:15:43.584Z,,0,3,,4772.282999904593,response,ISIC_9668514.JPG,5,ISIC_0010267.JPG,ISIC_9668514.JPG,false,1,keypress(m),500,690996.3000001907,690996.0999999046,686207.119,686194.8000001907,686223.817,690999.63,8,400,14,,ISIC_0010267.JPG
break,html.Screen,4_113_1,2023-09-11T19:15:43.584Z,,0,,,NaN,,,,,,false,,,,690996.8000001907,690996.7000002861,,690996.4000000954,,690999.63,8,400,,,
break_continue,html.Screen,4_113_2,2023-09-11T19:15:43.585Z,,0,,,NaN,,,,,,false,,,,690997,690996.9000000954,,690996.8000001907,,690999.63,8,400,,,
sequence,flow.Sequence,4_113,2023-09-11T19:15:43.585Z,,0,,,4773.083000095328,completion,,,,,false,,,,690997.0999999046,690996.9000000954,686207.119,686194.8000001907,686223.817,690999.63,8,400,,,
trial,html.Screen,4_114_0,2023-09-11T19:15:47.959Z,,0,3,,4371.67000019073,response,ISIC_0182020.JPG,5,ISIC_8152423.JPG,ISIC_0182020.JPG,false,1,keypress(m),500,695371.4000000954,695371.3000001907,690982.905,690997.0999999046,690999.63,695374.823,8,400,15,,ISIC_8152423.JPG
break,html.Screen,4_114_1,2023-09-11T19:15:47.959Z,,0,,,NaN,,,,,,false,,,,695371.8000001907,695371.7000002861,,695371.5,,695374.823,8,400,,,
break_continue,html.Screen,4_114_2,2023-09-11T19:15:47.960Z,,0,,,NaN,,,,,,false,,,,695372,695371.9000000954,,695371.9000000954,,695374.823,8,400,,,
sequence,flow.Sequence,4_114,2023-09-11T19:15:47.960Z,,0,,,4372.270000095363,completion,,,,,false,,,,695372,695371.9000000954,690982.905,690997.0999999046,690999.63,695374.823,8,400,,,
trial,html.Screen,4_115_0,2023-09-11T19:15:55.548Z,,0,3,,7585.077000095393,response,ISIC_0071133.JPG,5,ISIC_0057655.JPG,ISIC_0057655.JPG,false,0,keypress(z),500,702960.2000002861,702959.9000000954,695358.211,695372.0999999046,695374.823,702972.957,8,400,16,,ISIC_0071133.JPG
break,html.Screen,4_115_1,2023-09-11T19:15:55.549Z,,0,,,NaN,,,,,,false,,,,702961.5,702961.0999999046,,702960.5,,702972.957,8,400,,,
break_continue,html.Screen,4_115_2,2023-09-11T19:15:55.550Z,,0,,,NaN,,,,,,false,,,,702962.0999999046,702961.9000000954,,702961.5999999046,,702972.957,8,400,,,
sequence,flow.Sequence,4_115,2023-09-11T19:15:55.550Z,,0,,,7587.077000095393,completion,,,,,false,,,,702962.2000002861,702961.9000000954,695358.211,695372.0999999046,695374.823,702972.957,8,400,,,
trial,html.Screen,4_116_0,2023-09-11T19:16:02.488Z,,0,3,,6926.343000190682,response,ISIC_4174592.JPG,5,ISIC_7415335.JPG,ISIC_4174592.JPG,false,1,keypress(m),500,709899.5999999046,709899.3000001907,702956.252,702962.4000000954,702972.957,709903.083,8,400,17,,ISIC_7415335.JPG
break,html.Screen,4_116_1,2023-09-11T19:16:02.488Z,,0,,,NaN,,,,,,false,,,,709900.5,709900.2000002861,,709899.8000001907,,709903.083,8,400,,,
break_continue,html.Screen,4_116_2,2023-09-11T19:16:02.489Z,,0,,,NaN,,,,,,false,,,,709901,709900.8000001907,,709900.7000002861,,709903.083,8,400,,,
sequence,flow.Sequence,4_116,2023-09-11T19:16:02.489Z,,0,,,6927.843000190682,completion,,,,,false,,,,709901.3000001907,709900.8000001907,702956.252,702962.4000000954,702972.957,709903.083,8,400,,,
trial,html.Screen,4_117_0,2023-09-11T19:16:06.657Z,,0,3,,4165.617000286118,response,ISIC_7580408.JPG,5,ISIC_0033287.JPG,ISIC_0033287.JPG,false,0,keypress(z),500,714068.9000000954,714068.7000002861,709886.494,709901.3000001907,709903.083,714077.926,8,400,18,,ISIC_7580408.JPG
break,html.Screen,4_117_1,2023-09-11T19:16:06.658Z,,0,,,NaN,,,,,,false,,,,714069.7000002861,714069.5,,714069.0999999046,,714077.926,8,400,,,
break_continue,html.Screen,4_117_2,2023-09-11T19:16:06.658Z,,0,,,NaN,,,,,,false,,,,714070.0999999046,714070,,714069.9000000954,,714077.926,8,400,,,
sequence,flow.Sequence,4_117,2023-09-11T19:16:06.658Z,,0,,,4166.917000000016,completion,,,,,false,,,,714070.2000002861,714070,709886.494,709901.3000001907,709903.083,714077.926,8,400,,,
trial,html.Screen,4_118_0,2023-09-11T19:16:10.676Z,,0,3,,4010.173999904655,response,ISIC_9116323.JPG,5,ISIC_0026738.JPG,ISIC_9116323.JPG,false,1,keypress(m),500,718088.2000002861,718088.0999999046,714061.319,714070.4000000954,714077.926,718102.38,8,400,19,,ISIC_0026738.JPG
break,html.Screen,4_118_1,2023-09-11T19:16:10.677Z,,0,,,NaN,,,,,,false,,,,718088.7000002861,718088.5999999046,,718088.3000001907,,718102.38,8,400,,,
break_continue,html.Screen,4_118_2,2023-09-11T19:16:10.677Z,,0,,,NaN,,,,,,false,,,,718089.0999999046,718088.9000000954,,718088.9000000954,,718102.38,8,400,,,
sequence,flow.Sequence,4_118,2023-09-11T19:16:10.677Z,,0,,,4010.97400009539,completion,,,,,false,,,,718089.2000002861,718088.9000000954,714061.319,714070.3000001907,714077.926,718102.38,8,400,,,
trial,html.Screen,4_119_0,2023-09-11T19:16:15.292Z,,0,3,,4601.320000286098,response,ISIC_0032424.JPG,5,ISIC_2275181.JPG,ISIC_2275181.JPG,false,0,keypress(z),500,722703.9000000954,722703.7000002861,718085.812,718089.2000002861,718102.38,722711.38,8,400,20,,ISIC_0032424.JPG
break,html.Screen,4_119_1,2023-09-11T19:16:15.293Z,,0,,,NaN,,,,,,false,,,,722704.7000002861,722704.3000001907,,722704.0999999046,,722711.38,8,400,,,
break_continue,html.Screen,4_119_2,2023-09-11T19:16:15.293Z,,0,,,NaN,,,,,,false,,,,722705.0999999046,722705,,722704.9000000954,,722711.38,8,400,,,
sequence,flow.Sequence,4_119,2023-09-11T19:16:15.293Z,,0,,,4602.619999999995,completion,,,,,false,,,,722705.2000002861,722705,718085.812,718089.2000002861,718102.38,722711.38,8,400,,,
trial,html.Screen,4_120_0,2023-09-11T19:16:21.632Z,,0,3,,6332.42000019073,response,ISIC_0031553.JPG,5,ISIC_2260249.JPG,ISIC_2260249.JPG,false,0,keypress(z),500,729044,729043.8000001907,722694.634,722705.2000002861,722711.38,729057.072,8,400,21,,ISIC_0031553.JPG
break,html.Screen,4_120_1,2023-09-11T19:16:21.632Z,,0,,,NaN,,,,,,false,,,,729044.4000000954,729044.3000001907,,729044.0999999046,,729057.072,8,400,,,
break_continue,html.Screen,4_120_2,2023-09-11T19:16:21.633Z,,0,,,NaN,,,,,,false,,,,729044.5999999046,729044.5999999046,,729044.5,,729057.072,8,400,,,
sequence,flow.Sequence,4_120,2023-09-11T19:16:21.633Z,,0,,,6333.219999904628,completion,,,,,false,,,,729044.8000001907,729044.5999999046,722694.634,722705.2000002861,722711.38,729057.072,8,400,,,
trial,html.Screen,4_121_0,2023-09-11T19:16:27.048Z,,0,3,,5403.027999904589,response,ISIC_1169724.JPG,6,ISIC_4446385.JPG,ISIC_1169724.JPG,false,1,keypress(m),500,734460.3000001907,734460.0999999046,729040.323,729044.8000001907,729057.072,734467.567,8,400,22,,ISIC_4446385.JPG
break,html.Screen,4_121_1,2023-09-11T19:16:27.049Z,,0,,,NaN,,,,,,false,,,,734460.9000000954,734460.7000002861,,734460.5,,734467.567,8,400,,,
break_continue,html.Screen,4_121_2,2023-09-11T19:16:27.049Z,,0,,,NaN,,,,,,false,,,,734461.0999999046,734461,,734460.9000000954,,734467.567,8,400,,,
sequence,flow.Sequence,4_121,2023-09-11T19:16:27.049Z,,0,,,5403.927999999956,completion,,,,,false,,,,734461.2000002861,734461,729040.323,729044.8000001907,729057.072,734467.567,8,400,,,
trial,html.Screen,4_122_0,2023-09-11T19:16:31.546Z,,0,3,,4490.633000286063,response,ISIC_0024537.JPG,4,ISIC_4119029.JPG,ISIC_4119029.JPG,false,0,keypress(z),500,738958.4000000954,738958.2000002861,734450.854,734461.3000001907,734467.567,738976.432,8,400,23,,ISIC_0024537.JPG
break,html.Screen,4_122_1,2023-09-11T19:16:31.547Z,,0,,,NaN,,,,,,false,,,,738959,738958.9000000954,,738958.5,,738976.432,8,400,,,
break_continue,html.Screen,4_122_2,2023-09-11T19:16:31.547Z,,0,,,NaN,,,,,,false,,,,738959.4000000954,738959.3000001907,,738959.0999999046,,738976.432,8,400,,,
sequence,flow.Sequence,4_122,2023-09-11T19:16:31.547Z,,0,,,4491.733000190696,completion,,,,,false,,,,738959.5,738959.3000001907,734450.854,734461.3000001907,734467.567,738976.432,8,400,,,
trial,html.Screen,4_123_0,2023-09-11T19:16:35.730Z,,0,3,,4165.667999904603,response,ISIC_3039880.JPG,5,ISIC_0011726.JPG,ISIC_3039880.JPG,false,1,keypress(m),500,743142.2000002861,743142.0999999046,738959.667,738959.5,738976.432,743151.225,8,400,24,,ISIC_0011726.JPG
break,html.Screen,4_123_1,2023-09-11T19:16:35.731Z,,0,,,NaN,,,,,,false,,,,743142.7000002861,743142.5999999046,,743142.2000002861,,743151.225,8,400,,,
break_continue,html.Screen,4_123_2,2023-09-11T19:16:35.731Z,,0,,,NaN,,,,,,false,,,,743142.9000000954,743142.8000001907,,743142.8000001907,,743151.225,8,400,,,
sequence,flow.Sequence,4_123,2023-09-11T19:16:35.731Z,,0,,,4166.368000190705,completion,,,,,false,,,,743143,743142.8000001907,738959.667,738959.5,738976.432,743151.225,8,400,,,
trial,html.Screen,4_124_0,2023-09-11T19:16:42.149Z,,0,3,,6409.475000286126,response,ISIC_8959410.JPG,5,ISIC_3425388.JPG,ISIC_8959410.JPG,false,1,keypress(m),500,749560.8000001907,749560.7000002861,743134.463,743143.0999999046,743151.225,749563.574,8,400,25,,ISIC_3425388.JPG
break,html.Screen,4_124_1,2023-09-11T19:16:42.150Z,,0,,,NaN,,,,,,false,,,,749561.7000002861,749561.5,,749561.0999999046,,749563.574,8,400,,,
break_continue,html.Screen,4_124_2,2023-09-11T19:16:42.150Z,,0,,,NaN,,,,,,false,,,,749562,749562,,749561.9000000954,,749563.574,8,400,,,
sequence,flow.Sequence,4_124,2023-09-11T19:16:42.150Z,,0,,,6410.775000000023,completion,,,,,false,,,,749562.2000002861,749562,743134.463,743143,743151.225,749563.574,8,400,,,
trial,html.Screen,4_125_0,2023-09-11T19:16:46.856Z,,0,3,,4704.7260001907125,response,ISIC_0046315.JPG,5,ISIC_5247383.JPG,ISIC_5247383.JPG,false,0,keypress(z),500,754268.5,754268.3000001907,749547.144,749562.3000001907,749563.574,754272.834,8,400,26,,ISIC_0046315.JPG
break,html.Screen,4_125_1,2023-09-11T19:16:46.857Z,,0,,,NaN,,,,,,false,,,,754269.0999999046,754268.9000000954,,754268.5999999046,,754272.834,8,400,,,
break_continue,html.Screen,4_125_2,2023-09-11T19:16:46.857Z,,0,,,NaN,,,,,,false,,,,754269.2000002861,754269.0999999046,,754269.0999999046,,754272.834,8,400,,,
sequence,flow.Sequence,4_125,2023-09-11T19:16:46.857Z,,0,,,4705.52599990461,completion,,,,,false,,,,754269.2000002861,754269.0999999046,749547.144,749562.3000001907,749563.574,754272.834,8,400,,,
