sender,sender_type,sender_id,timestamp,meta,,blockNo,condition,duration,ended_on,img_left,img_reveal,img_right,loser,practice,response,response_action,selection_duration,time_commit,time_end,time_render,time_run,time_show,time_switch,total_blocks,total_trials,trialNo,url,winner
informed_consent,html.Screen,0,2023-09-13T15:45:45.245Z,"{""labjs_version"":""20.2.4"",""labjs_build"":{""flavor"":""development"",""commit"":""f5b4a49f956347addd546a832a3327688c2c0fef""},""location"":""https://labjs.felixhenninger.com/api/labjs_preview/index.html"",""userAgent"":""Mozilla/5.0 (Windows NT 10.0; Win64; x64) AppleWebKit/537.36 (KHTML, like Gecko) Chrome/116.0.0.0 Safari/537.36"",""platform"":""Win32"",""language"":""en-AU"",""locale"":""en-US"",""timeZone"":""America/Chicago"",""timezoneOffset"":300,""screen_width"":2560,""screen_height"":1440,""scroll_width"":1296,""scroll_height"":688,""window_innerWidth"":1296,""window_innerHeight"":736,""devicePixelRatio"":1}",,,,4488.701,response,,,,,,consent,click button,,5180,5179,673.617,658.8999996185303,690.299,5182.425,,,,{},
Welcome,html.Screen,1,2023-09-13T15:45:45.693Z,,,,asymmetry,444.77499980926495,response,,,,,,continue,click button,,5627.799999713898,5627.199999809265,5165.73,5180.299999713898,5182.425,5633.35,,,,,
trial,html.Screen,2_0_0,2023-09-13T15:45:57.188Z,,0,0,,11522.334,timeout,ISIC_0069348.JPG,,ISIC_6997061.JPG,,true,,,500,17123,17122.699999809265,5616.596,5628,5633.35,17155.684,1,6,1,,
sequence,flow.Sequence,2_0,2023-09-13T15:45:57.188Z,,0,,,11489.349999809265,completion,,,,,true,,,,17123.299999713898,17122.699999809265,5616.596,5628,5633.35,17155.684,1,6,,,
trial,html.Screen,2_1_0,2023-09-13T15:46:08.710Z,,0,0,,11522.415999999997,timeout,ISIC_0009529.JPG,,ISIC_0057368.JPG,,true,,,500,28645.099999904633,28644.89999961853,17139.065,17123.299999713898,17155.684,28678.1,1,6,2,,
sequence,flow.Sequence,2_1,2023-09-13T15:46:08.710Z,,0,,,11489.21599961853,completion,,,,,true,,,,28645.299999713898,28644.89999961853,17139.065,17123.299999713898,17155.684,28678.1,1,6,,,
trial,html.Screen,2_2_0,2023-09-13T15:46:20.233Z,,0,0,,11522.440000000002,timeout,ISIC_0064954.JPG,,ISIC_9758671.JPG,,true,,,500,40167.699999809265,40167.39999961853,28661.438,28645.39999961853,28678.1,40200.54,1,6,3,,
sequence,flow.Sequence,2_2,2023-09-13T15:46:20.233Z,,0,,,11489.299999618532,completion,,,,,true,,,,40167.89999961853,40167.39999961853,28661.438,28645.39999961853,28678.1,40200.54,1,6,,,
trial,html.Screen,2_3_0,2023-09-13T15:46:31.758Z,,0,0,,11522.610999999997,timeout,ISIC_0005785.JPG,,ISIC_0000080.JPG,,true,,,500,51691,51690.699999809265,40183.831,40168.09999990463,40200.54,51723.151,1,6,4,,
sequence,flow.Sequence,2_3,2023-09-13T15:46:31.759Z,,0,,,11490.159999809264,completion,,,,,true,,,,51691.89999961853,51690.699999809265,40183.831,40168.09999990463,40200.54,51723.151,1,6,,,
trial,html.Screen,2_4_0,2023-09-13T15:46:43.280Z,,0,0,,11522.409,timeout,ISIC_5390060.JPG,,ISIC_7944028.JPG,,true,,,500,63212.699999809265,63212.5,51706.359,51692.199999809265,51723.151,63245.56,1,6,5,,
sequence,flow.Sequence,2_4,2023-09-13T15:46:43.280Z,,0,,,11489.349000000002,completion,,,,,true,,,,63213,63212.5,51706.359,51692.199999809265,51723.151,63245.56,1,6,,,
trial,html.Screen,2_5_0,2023-09-13T15:46:54.802Z,,0,0,,11522.354000000007,timeout,ISIC_0794216.JPG,,ISIC_0010188.JPG,,true,,,500,74735.19999980927,74734.89999961853,63228.864,63213,63245.56,74767.914,1,6,6,,
sequence,flow.Sequence,2_5,2023-09-13T15:46:54.802Z,,0,,,11489.339999618533,completion,,,,,true,,,,74735.39999961853,74734.89999961853,63228.864,63213,63245.56,74767.914,1,6,,,
loop,flow.Loop,2,2023-09-13T15:46:54.802Z,,,,,69101.54999961852,completion,,,,,true,,,,74735.59999990463,74734.89999961853,5616.596,5628,5633.35,74767.914,1,6,,,
exp_instructions,html.Screen,3,2023-09-13T15:47:27.878Z,,,,,33026.085999999996,response,,,,,,continue,keypress(Space),,107810.5,107794,74751.109,74735.59999990463,74767.914,107798.772,,,,,
trial,html.Screen,4_0_0,2023-09-13T15:47:32.043Z,,0,1,,4176.127999618533,response,ISIC_0054239.JPG,5,ISIC_0033119.JPG,ISIC_0054239.JPG,false,1,keypress(m),500,111975,111974.89999961853,107782.233,107810.69999980927,107798.772,111990.233,8,400,1,,ISIC_0033119.JPG
break,html.Screen,4_0_1,2023-09-13T15:47:32.043Z,,0,,,NaN,,,,,,false,,,,111975.69999980927,111975.59999990463,,111975.19999980927,,111990.233,8,400,,,
break_continue,html.Screen,4_0_2,2023-09-13T15:47:32.044Z,,0,,,NaN,,,,,,false,,,,111976.09999990463,111976,,111975.89999961853,,111990.233,8,400,,,
sequence,flow.Sequence,4_0,2023-09-13T15:47:32.044Z,,0,,,4177.228000000003,completion,,,,,false,,,,111976.09999990463,111976,107782.233,107810.69999980927,107798.772,111990.233,8,400,,,
trial,html.Screen,4_1_0,2023-09-13T15:47:39.053Z,,0,1,,6994.767000000007,response,ISIC_0067205.JPG,5,ISIC_0064014.JPG,ISIC_0064014.JPG,false,0,keypress(z),500,118985.19999980927,118985,111973.55,111976.19999980927,111990.233,118987.232,8,400,2,,ISIC_0067205.JPG
break,html.Screen,4_1_1,2023-09-13T15:47:39.053Z,,0,,,NaN,,,,,,false,,,,118985.59999990463,118985.5,,118985.2999997139,,118987.232,8,400,,,
break_continue,html.Screen,4_1_2,2023-09-13T15:47:39.053Z,,0,,,NaN,,,,,,false,,,,118985.89999961853,118985.7999997139,,118985.69999980927,,118987.232,8,400,,,
sequence,flow.Sequence,4_1,2023-09-13T15:47:39.054Z,,0,,,6995.566999713905,completion,,,,,false,,,,118985.89999961853,118985.7999997139,111973.55,111976.19999980927,111990.233,118987.232,8,400,,,
trial,html.Screen,4_2_0,2023-09-13T15:47:45.247Z,,0,1,,6192.067999713894,response,ISIC_0032784.JPG,5,ISIC_0034002.JPG,ISIC_0032784.JPG,false,1,keypress(m),500,125179.39999961853,125179.2999997139,118970.526,118985.89999961853,118987.232,125182.569,8,400,3,,ISIC_0034002.JPG
break,html.Screen,4_2_1,2023-09-13T15:47:45.248Z,,0,,,NaN,,,,,,false,,,,125180,125179.7999997139,,125179.59999990463,,125182.569,8,400,,,
break_continue,html.Screen,4_2_2,2023-09-13T15:47:45.248Z,,0,,,NaN,,,,,,false,,,,125180.09999990463,125180.09999990463,,125180,,125182.569,8,400,,,
sequence,flow.Sequence,4_2,2023-09-13T15:47:45.248Z,,0,,,6192.867999904629,completion,,,,,false,,,,125180.19999980927,125180.09999990463,118970.526,118985.89999961853,118987.232,125182.569,8,400,,,
trial,html.Screen,4_3_0,2023-09-13T15:47:52.049Z,,0,1,,6799.030999904629,response,ISIC_5383064.JPG,5,ISIC_7682938.JPG,ISIC_7682938.JPG,false,0,keypress(z),500,131981.69999980927,131981.59999990463,125165.971,125180.2999997139,125182.569,131995.861,8,400,4,,ISIC_5383064.JPG
break,html.Screen,4_3_1,2023-09-13T15:47:52.050Z,,0,,,NaN,,,,,,false,,,,131982.09999990463,131982,,131981.7999997139,,131995.861,8,400,,,
break_continue,html.Screen,4_3_2,2023-09-13T15:47:52.050Z,,0,,,NaN,,,,,,false,,,,131982.39999961853,131982.2999997139,,131982.19999980927,,131995.861,8,400,,,
sequence,flow.Sequence,4_3,2023-09-13T15:47:52.050Z,,0,,,6799.730999713895,completion,,,,,false,,,,131982.39999961853,131982.2999997139,125165.971,125180.19999980927,125182.569,131995.861,8,400,,,
trial,html.Screen,4_4_0,2023-09-13T15:47:59.892Z,,0,1,,7828.038999618526,response,ISIC_0004482.JPG,5,ISIC_9401187.JPG,ISIC_0004482.JPG,false,1,keypress(m),500,139824.19999980927,139823.89999961853,131979.173,131982.5,131995.861,139827.773,8,400,5,,ISIC_9401187.JPG
break,html.Screen,4_4_1,2023-09-13T15:47:59.893Z,,0,,,NaN,,,,,,false,,,,139825.19999980927,139824.89999961853,,139824.39999961853,,139827.773,8,400,,,
break_continue,html.Screen,4_4_2,2023-09-13T15:47:59.893Z,,0,,,NaN,,,,,,false,,,,139825.59999990463,139825.39999961853,,139825.2999997139,,139827.773,8,400,,,
sequence,flow.Sequence,4_4,2023-09-13T15:47:59.893Z,,0,,,7829.538999618526,completion,,,,,false,,,,139825.7999997139,139825.39999961853,131979.173,131982.39999961853,131995.861,139827.773,8,400,,,
trial,html.Screen,4_5_0,2023-09-13T15:48:06.312Z,,0,1,,6415.926999809279,response,ISIC_1809444.JPG,5,ISIC_9719936.JPG,ISIC_9719936.JPG,false,0,keypress(z),500,146243.89999961853,146243.69999980927,139811.058,139825.89999961853,139827.773,146256.944,8,400,6,,ISIC_1809444.JPG
break,html.Screen,4_5_1,2023-09-13T15:48:06.312Z,,0,,,NaN,,,,,,false,,,,146244.39999961853,146244.2999997139,,146244,,146256.944,8,400,,,
break_continue,html.Screen,4_5_2,2023-09-13T15:48:06.312Z,,0,,,NaN,,,,,,false,,,,146244.59999990463,146244.59999990463,,146244.5,,146256.944,8,400,,,
sequence,flow.Sequence,4_5,2023-09-13T15:48:06.312Z,,0,,,6416.826999904646,completion,,,,,false,,,,146244.69999980927,146244.59999990463,139811.058,139825.89999961853,139827.773,146256.944,8,400,,,
trial,html.Screen,4_6_0,2023-09-13T15:48:13.068Z,,0,1,,6742.955999618542,response,ISIC_0046725.JPG,5,ISIC_0450295.JPG,ISIC_0450295.JPG,false,0,keypress(z),500,153000,152999.89999961853,146240.344,146244.7999997139,146256.944,153003.375,8,400,7,,ISIC_0046725.JPG
break,html.Screen,4_6_1,2023-09-13T15:48:13.069Z,,0,,,NaN,,,,,,false,,,,153001,153000.69999980927,,153000.2999997139,,153003.375,8,400,,,
break_continue,html.Screen,4_6_2,2023-09-13T15:48:13.069Z,,0,,,NaN,,,,,,false,,,,153001.2999997139,153001.19999980927,,153001,,153003.375,8,400,,,
sequence,flow.Sequence,4_6,2023-09-13T15:48:13.069Z,,0,,,6744.255999809277,completion,,,,,false,,,,153001.39999961853,153001.19999980927,146240.344,146244.7999997139,146256.944,153003.375,8,400,,,
trial,html.Screen,4_7_0,2023-09-13T15:48:19.203Z,,0,1,,6131.625,response,ISIC_6609379.JPG,4,ISIC_5110133.JPG,ISIC_6609379.JPG,false,1,keypress(m),500,159135.09999990463,159135,152986.698,153001.5,153003.375,159148.777,8,400,8,,ISIC_5110133.JPG
break,html.Screen,4_7_1,2023-09-13T15:48:19.203Z,,0,,,NaN,,,,,,false,,,,159135.5,159135.39999961853,,159135.19999980927,,159148.777,8,400,,,
break_continue,html.Screen,4_7_2,2023-09-13T15:48:19.203Z,,0,,,NaN,,,,,,false,,,,159135.69999980927,159135.69999980927,,159135.59999990463,,159148.777,8,400,,,
sequence,flow.Sequence,4_7,2023-09-13T15:48:19.203Z,,0,,,6132.324999809265,completion,,,,,false,,,,159135.89999961853,159135.69999980927,152986.698,153001.5,153003.375,159148.777,8,400,,,
trial,html.Screen,4_8_0,2023-09-13T15:48:25.144Z,,0,1,,5925.522999713896,response,ISIC_0026348.JPG,5,ISIC_0014325.JPG,ISIC_0014325.JPG,false,0,keypress(z),500,165074.39999961853,165074.2999997139,159132.108,159136,159148.777,165076.894,8,400,9,,ISIC_0026348.JPG
break,html.Screen,4_8_1,2023-09-13T15:48:25.145Z,,0,,,NaN,,,,,,false,,,,165075,165074.7999997139,,165074.59999990463,,165076.894,8,400,,,
break_continue,html.Screen,4_8_2,2023-09-13T15:48:25.145Z,,0,,,NaN,,,,,,false,,,,165075.09999990463,165075,,165075,,165076.894,8,400,,,
sequence,flow.Sequence,4_8,2023-09-13T15:48:25.145Z,,0,,,5926.222999999998,completion,,,,,false,,,,165075.19999980927,165075,159132.108,159135.89999961853,159148.777,165076.894,8,400,,,
trial,html.Screen,4_9_0,2023-09-13T15:48:31.088Z,,0,1,,5941.305999809265,response,ISIC_4136663.JPG,6,ISIC_0024546.JPG,ISIC_4136663.JPG,false,1,keypress(m),500,171018.2999997139,171018.19999980927,165060.187,165075.2999997139,165076.894,171021.798,8,400,10,,ISIC_0024546.JPG
break,html.Screen,4_9_1,2023-09-13T15:48:31.089Z,,0,,,NaN,,,,,,false,,,,171018.69999980927,171018.69999980927,,171018.5,,171021.798,8,400,,,
break_continue,html.Screen,4_9_2,2023-09-13T15:48:31.089Z,,0,,,NaN,,,,,,false,,,,171019,171018.89999961853,,171018.89999961853,,171021.798,8,400,,,
sequence,flow.Sequence,4_9,2023-09-13T15:48:31.089Z,,0,,,5942.00599961853,completion,,,,,false,,,,171019,171018.89999961853,165060.187,165075.2999997139,165076.894,171021.798,8,400,,,
trial,html.Screen,4_10_0,2023-09-13T15:48:36.338Z,,0,1,,5246.501999713888,response,ISIC_0031546.JPG,5,ISIC_0030107.JPG,ISIC_0031546.JPG,false,1,keypress(m),500,176268.39999961853,176268.2999997139,171005.235,171019.19999980927,171021.798,176282.232,8,400,11,,ISIC_0030107.JPG
break,html.Screen,4_10_1,2023-09-13T15:48:36.339Z,,0,,,NaN,,,,,,false,,,,176269,176268.7999997139,,176268.5,,176282.232,8,400,,,
break_continue,html.Screen,4_10_2,2023-09-13T15:48:36.339Z,,0,,,NaN,,,,,,false,,,,176269.2999997139,176269.19999980927,,176269.09999990463,,176282.232,8,400,,,
sequence,flow.Sequence,4_10,2023-09-13T15:48:36.339Z,,0,,,5247.401999809255,completion,,,,,false,,,,176269.39999961853,176269.19999980927,171005.235,171019.19999980927,171021.798,176282.232,8,400,,,
trial,html.Screen,4_11_0,2023-09-13T15:48:43.172Z,,0,1,,6819.967999809276,response,ISIC_0028061.JPG,4,ISIC_3779424.JPG,ISIC_3779424.JPG,false,0,keypress(z),500,183102.39999961853,183102.19999980927,176265.298,176269.39999961853,176282.232,183112.089,8,400,12,,ISIC_0028061.JPG
break,html.Screen,4_11_1,2023-09-13T15:48:43.173Z,,0,,,NaN,,,,,,false,,,,183102.89999961853,183102.7999997139,,183102.39999961853,,183112.089,8,400,,,
break_continue,html.Screen,4_11_2,2023-09-13T15:48:43.173Z,,0,,,NaN,,,,,,false,,,,183103.09999990463,183103,,183102.89999961853,,183112.089,8,400,,,
sequence,flow.Sequence,4_11,2023-09-13T15:48:43.173Z,,0,,,6820.768000000011,completion,,,,,false,,,,183103.09999990463,183103,176265.298,176269.39999961853,176282.232,183112.089,8,400,,,
trial,html.Screen,4_12_0,2023-09-13T15:48:48.230Z,,0,1,,5048.310999618523,response,ISIC_4419686.JPG,5,ISIC_0011717.JPG,ISIC_4419686.JPG,false,1,keypress(m),500,188160.59999990463,188160.39999961853,183095.3,183103.19999980927,183112.089,188171.808,8,400,13,,ISIC_0011717.JPG
break,html.Screen,4_12_1,2023-09-13T15:48:48.231Z,,0,,,NaN,,,,,,false,,,,188161.39999961853,188161.2999997139,,188160.69999980927,,188171.808,8,400,,,
break_continue,html.Screen,4_12_2,2023-09-13T15:48:48.232Z,,0,,,NaN,,,,,,false,,,,188161.69999980927,188161.69999980927,,188161.59999990463,,188171.808,8,400,,,
sequence,flow.Sequence,4_12,2023-09-13T15:48:48.232Z,,0,,,5049.610999809258,completion,,,,,false,,,,188161.89999961853,188161.69999980927,183095.3,183103.19999980927,183112.089,188171.808,8,400,,,
trial,html.Screen,4_13_0,2023-09-13T15:48:55.659Z,,0,1,,7417.09199961854,response,ISIC_0060535.JPG,6,ISIC_2922104.JPG,ISIC_0060535.JPG,false,1,keypress(m),500,195589,195588.89999961853,188155.222,188162.19999980927,188171.808,195602.982,8,400,14,,ISIC_2922104.JPG
break,html.Screen,4_13_1,2023-09-13T15:48:55.659Z,,0,,,NaN,,,,,,false,,,,195589.5,195589.39999961853,,195589.09999990463,,195602.982,8,400,,,
break_continue,html.Screen,4_13_2,2023-09-13T15:48:55.660Z,,0,,,NaN,,,,,,false,,,,195589.7999997139,195589.69999980927,,195589.59999990463,,195602.982,8,400,,,
sequence,flow.Sequence,4_13,2023-09-13T15:48:55.660Z,,0,,,7417.891999809275,completion,,,,,false,,,,195589.89999961853,195589.69999980927,188155.222,188162.19999980927,188171.808,195602.982,8,400,,,
trial,html.Screen,4_14_0,2023-09-13T15:49:03.013Z,,0,1,,7339.518000000011,response,ISIC_0060341.JPG,5,ISIC_7959386.JPG,ISIC_7959386.JPG,false,0,keypress(z),500,202942.59999990463,202942.5,195586.288,195590,195602.982,202950.581,8,400,15,,ISIC_0060341.JPG
break,html.Screen,4_14_1,2023-09-13T15:49:03.013Z,,0,,,NaN,,,,,,false,,,,202943.19999980927,202943,,202942.7999997139,,202950.581,8,400,,,
break_continue,html.Screen,4_14_2,2023-09-13T15:49:03.013Z,,0,,,NaN,,,,,,false,,,,202943.59999990463,202943.39999961853,,202943.2999997139,,202950.581,8,400,,,
sequence,flow.Sequence,4_14,2023-09-13T15:49:03.014Z,,0,,,7340.417999618541,completion,,,,,false,,,,202943.59999990463,202943.39999961853,195586.288,195590,195602.982,202950.581,8,400,,,
trial,html.Screen,4_15_0,2023-09-13T15:49:09.038Z,,0,1,,6017.418999999994,response,ISIC_0034317.JPG,5,ISIC_0033643.JPG,ISIC_0033643.JPG,false,0,keypress(z),500,208968.09999990463,208968,202934.015,202943.69999980927,202950.581,208979,8,400,16,,ISIC_0034317.JPG
break,html.Screen,4_15_1,2023-09-13T15:49:09.039Z,,0,,,NaN,,,,,,false,,,,208969,208968.69999980927,,208968.2999997139,,208979,8,400,,,
break_continue,html.Screen,4_15_2,2023-09-13T15:49:09.039Z,,0,,,NaN,,,,,,false,,,,208969.19999980927,208969.19999980927,,208969,,208979,8,400,,,
sequence,flow.Sequence,4_15,2023-09-13T15:49:09.039Z,,0,,,6018.61899980926,completion,,,,,false,,,,208969.2999997139,208969.19999980927,202934.015,202943.59999990463,202950.581,208979,8,400,,,
trial,html.Screen,4_16_0,2023-09-13T15:49:15.104Z,,0,1,,6055.299999713898,response,ISIC_0000434.JPG,5,ISIC_4924690.JPG,ISIC_4924690.JPG,false,0,keypress(z),500,215034.39999961853,215034.2999997139,208962.365,208969.2999997139,208979,215040.962,8,400,17,,ISIC_0000434.JPG
break,html.Screen,4_16_1,2023-09-13T15:49:15.105Z,,0,,,NaN,,,,,,false,,,,215035,215034.69999980927,,215034.5,,215040.962,8,400,,,
break_continue,html.Screen,4_16_2,2023-09-13T15:49:15.105Z,,0,,,NaN,,,,,,false,,,,215035.19999980927,215035.19999980927,,215035.09999990463,,215040.962,8,400,,,
sequence,flow.Sequence,4_16,2023-09-13T15:49:15.105Z,,0,,,6056.199999809265,completion,,,,,false,,,,215035.2999997139,215035.19999980927,208962.365,208969.2999997139,208979,215040.962,8,400,,,
trial,html.Screen,4_17_0,2023-09-13T15:49:21.194Z,,0,1,,6082.637999904633,response,ISIC_9754098.JPG,5,ISIC_0056047.JPG,ISIC_0056047.JPG,false,0,keypress(z),500,221123.69999980927,221123.59999990463,215024.06,215035.39999961853,215040.962,221136.082,8,400,18,,ISIC_9754098.JPG
break,html.Screen,4_17_1,2023-09-13T15:49:21.194Z,,0,,,NaN,,,,,,false,,,,221124.19999980927,221124.09999990463,,221123.89999961853,,221136.082,8,400,,,
break_continue,html.Screen,4_17_2,2023-09-13T15:49:21.194Z,,0,,,NaN,,,,,,false,,,,221124.2999997139,221124.2999997139,,221124.19999980927,,221136.082,8,400,,,
sequence,flow.Sequence,4_17,2023-09-13T15:49:21.194Z,,0,,,6083.337999713898,completion,,,,,false,,,,221124.5,221124.2999997139,215024.06,215035.39999961853,215040.962,221136.082,8,400,,,
trial,html.Screen,4_18_0,2023-09-13T15:49:26.304Z,,0,1,,5096.517999904638,response,ISIC_0024310.JPG,5,ISIC_0005377.JPG,ISIC_0005377.JPG,false,0,keypress(z),500,226232.69999980927,226232.59999990463,221119.523,221124.59999990463,221136.082,226245.92,8,400,19,,ISIC_0024310.JPG
break,html.Screen,4_18_1,2023-09-13T15:49:26.305Z,,0,,,NaN,,,,,,false,,,,226233.09999990463,226233,,226232.69999980927,,226245.92,8,400,,,
break_continue,html.Screen,4_18_2,2023-09-13T15:49:26.305Z,,0,,,NaN,,,,,,false,,,,226233.19999980927,226233.19999980927,,226233.09999990463,,226245.92,8,400,,,
sequence,flow.Sequence,4_18,2023-09-13T15:49:26.305Z,,0,,,5097.11799980927,completion,,,,,false,,,,226233.2999997139,226233.19999980927,221119.523,221124.5,221136.082,226245.92,8,400,,,
trial,html.Screen,4_19_0,2023-09-13T15:49:32.819Z,,0,1,,6500.9799996185175,response,ISIC_7567699.JPG,4,ISIC_9927221.JPG,ISIC_9927221.JPG,false,0,keypress(z),500,232747.09999990463,232746.89999961853,226229.301,226233.39999961853,226245.92,232758.651,8,400,20,,ISIC_7567699.JPG
break,html.Screen,4_19_1,2023-09-13T15:49:32.819Z,,0,,,NaN,,,,,,false,,,,232747.89999961853,232747.59999990463,,232747.2999997139,,232758.651,8,400,,,
break_continue,html.Screen,4_19_2,2023-09-13T15:49:32.820Z,,0,,,NaN,,,,,,false,,,,232748.2999997139,232748.19999980927,,232748.09999990463,,232758.651,8,400,,,
sequence,flow.Sequence,4_19,2023-09-13T15:49:32.820Z,,0,,,6502.279999809252,completion,,,,,false,,,,232748.39999961853,232748.19999980927,226229.301,226233.39999961853,226245.92,232758.651,8,400,,,
trial,html.Screen,4_20_0,2023-09-13T15:49:39.319Z,,0,1,,6488.848999999987,response,ISIC_0033959.JPG,6,ISIC_0055388.JPG,ISIC_0033959.JPG,false,1,keypress(m),500,239247.69999980927,239247.5,232742.07,232748.39999961853,232758.651,239254.554,8,400,21,,ISIC_0055388.JPG
break,html.Screen,4_20_1,2023-09-13T15:49:39.320Z,,0,,,NaN,,,,,,false,,,,239248.5,239248.2999997139,,239247.89999961853,,239254.554,8,400,,,
break_continue,html.Screen,4_20_2,2023-09-13T15:49:39.320Z,,0,,,NaN,,,,,,false,,,,239249,239248.7999997139,,239248.69999980927,,239254.554,8,400,,,
sequence,flow.Sequence,4_20,2023-09-13T15:49:39.321Z,,0,,,6490.148999713885,completion,,,,,false,,,,239249.09999990463,239248.7999997139,232742.07,232748.39999961853,232758.651,239254.554,8,400,,,
trial,html.Screen,4_21_0,2023-09-13T15:49:46.011Z,,0,1,,6684.645999809261,response,ISIC_0015969.JPG,5,ISIC_0016127.JPG,ISIC_0015969.JPG,false,1,keypress(m),500,245939.2999997139,245939.19999980927,239237.875,239249.19999980927,239254.554,245950.933,8,400,22,,ISIC_0016127.JPG
break,html.Screen,4_21_1,2023-09-13T15:49:46.011Z,,0,,,NaN,,,,,,false,,,,245940,245939.59999990463,,245939.39999961853,,245950.933,8,400,,,
break_continue,html.Screen,4_21_2,2023-09-13T15:49:46.012Z,,0,,,NaN,,,,,,false,,,,245940.2999997139,245940.19999980927,,245940.09999990463,,245950.933,8,400,,,
sequence,flow.Sequence,4_21,2023-09-13T15:49:46.012Z,,0,,,6685.645999809261,completion,,,,,false,,,,245940.2999997139,245940.19999980927,239237.875,239249.19999980927,239254.554,245950.933,8,400,,,
trial,html.Screen,4_22_0,2023-09-13T15:49:51.316Z,,0,1,,5293.46699961854,response,ISIC_1108204.JPG,4,ISIC_3857463.JPG,ISIC_3857463.JPG,false,0,keypress(z),500,251244.5,251244.39999961853,245934.329,245940.2999997139,245950.933,251261.29,8,400,23,,ISIC_1108204.JPG
break,html.Screen,4_22_1,2023-09-13T15:49:51.317Z,,0,,,NaN,,,,,,false,,,,251245.69999980927,251245.39999961853,,251244.69999980927,,251261.29,8,400,,,
break_continue,html.Screen,4_22_2,2023-09-13T15:49:51.318Z,,0,,,NaN,,,,,,false,,,,251246.09999990463,251245.89999961853,,251245.7999997139,,251261.29,8,400,,,
sequence,flow.Sequence,4_22,2023-09-13T15:49:51.318Z,,0,,,5294.96699961854,completion,,,,,false,,,,251246.19999980927,251245.89999961853,245934.329,245940.2999997139,245950.933,251261.29,8,400,,,
trial,html.Screen,4_23_0,2023-09-13T15:49:57.739Z,,0,1,,6405.609999618522,response,ISIC_8462070.JPG,4,ISIC_3786075.JPG,ISIC_8462070.JPG,false,1,keypress(m),500,257667,257666.89999961853,251244.636,251246.2999997139,251261.29,257673.775,8,400,24,,ISIC_3786075.JPG
break,html.Screen,4_23_1,2023-09-13T15:49:57.739Z,,0,,,NaN,,,,,,false,,,,257667.5,257667.39999961853,,257667.19999980927,,257673.775,8,400,,,
break_continue,html.Screen,4_23_2,2023-09-13T15:49:57.739Z,,0,,,NaN,,,,,,false,,,,257667.69999980927,257667.59999990463,,257667.59999990463,,257673.775,8,400,,,
sequence,flow.Sequence,4_23,2023-09-13T15:49:57.739Z,,0,,,6406.309999904624,completion,,,,,false,,,,257667.7999997139,257667.59999990463,251244.636,251246.2999997139,251261.29,257673.775,8,400,,,
trial,html.Screen,4_24_0,2023-09-13T15:50:04.781Z,,0,1,,7035.225000000006,response,ISIC_4312841.JPG,4,ISIC_9008026.JPG,ISIC_9008026.JPG,false,0,keypress(z),500,264709.19999980927,264709,257657.072,257667.7999997139,257673.775,264720.918,8,400,25,,ISIC_4312841.JPG
break,html.Screen,4_24_1,2023-09-13T15:50:04.781Z,,0,,,NaN,,,,,,false,,,,264709.89999961853,264709.69999980927,,264709.2999997139,,264720.918,8,400,,,
break_continue,html.Screen,4_24_2,2023-09-13T15:50:04.782Z,,0,,,NaN,,,,,,false,,,,264710.39999961853,264710.19999980927,,264710.09999990463,,264720.918,8,400,,,
sequence,flow.Sequence,4_24,2023-09-13T15:50:04.782Z,,0,,,7036.424999809271,completion,,,,,false,,,,264710.59999990463,264710.19999980927,257657.072,257667.7999997139,257673.775,264720.918,8,400,,,
trial,html.Screen,4_25_0,2023-09-13T15:50:09.958Z,,0,1,,5165.381999713893,response,ISIC_6406517.JPG,5,ISIC_0030873.JPG,ISIC_6406517.JPG,false,1,keypress(m),500,269886.59999990463,269886.2999997139,264704.189,264710.69999980927,264720.918,269897.62,8,400,26,,ISIC_0030873.JPG
break,html.Screen,4_25_1,2023-09-13T15:50:09.959Z,,0,,,NaN,,,,,,false,,,,269887.19999980927,269886.89999961853,,269886.69999980927,,269897.62,8,400,,,
break_continue,html.Screen,4_25_2,2023-09-13T15:50:09.959Z,,0,,,NaN,,,,,,false,,,,269887.5,269887.39999961853,,269887.2999997139,,269897.62,8,400,,,
sequence,flow.Sequence,4_25,2023-09-13T15:50:09.959Z,,0,,,5166.481999618525,completion,,,,,false,,,,269887.5,269887.39999961853,264704.189,264710.69999980927,264720.918,269897.62,8,400,,,
trial,html.Screen,4_26_0,2023-09-13T15:50:15.273Z,,0,1,,5303.380000000005,response,ISIC_0034187.JPG,5,ISIC_0363130.JPG,ISIC_0034187.JPG,false,1,keypress(m),500,275201.09999990463,275201,269881.028,269887.59999990463,269897.62,275207.918,8,400,27,,ISIC_0363130.JPG
break,html.Screen,4_26_1,2023-09-13T15:50:15.273Z,,0,,,NaN,,,,,,false,,,,275201.69999980927,275201.5,,275201.19999980927,,275207.918,8,400,,,
break_continue,html.Screen,4_26_2,2023-09-13T15:50:15.274Z,,0,,,NaN,,,,,,false,,,,275202.09999990463,275202,,275201.89999961853,,275207.918,8,400,,,
sequence,flow.Sequence,4_26,2023-09-13T15:50:15.274Z,,0,,,5304.380000000005,completion,,,,,false,,,,275202.09999990463,275202,269881.028,269887.59999990463,269897.62,275207.918,8,400,,,
trial,html.Screen,4_27_0,2023-09-13T15:50:22.203Z,,0,1,,6923.681999904627,response,ISIC_0006757.JPG,5,ISIC_0016085.JPG,ISIC_0006757.JPG,false,1,keypress(m),500,282131.7999997139,282131.59999990463,275191.194,275202.19999980927,275207.918,282138.017,8,400,28,,ISIC_0016085.JPG
break,html.Screen,4_27_1,2023-09-13T15:50:22.204Z,,0,,,NaN,,,,,,false,,,,282132.7999997139,282132.39999961853,,282132,,282138.017,8,400,,,
break_continue,html.Screen,4_27_2,2023-09-13T15:50:22.205Z,,0,,,NaN,,,,,,false,,,,282133.39999961853,282133.19999980927,,282132.89999961853,,282138.017,8,400,,,
sequence,flow.Sequence,4_27,2023-09-13T15:50:22.205Z,,0,,,6925.28199980926,completion,,,,,false,,,,282133.59999990463,282133.19999980927,275191.194,275202.19999980927,275207.918,282138.017,8,400,,,
trial,html.Screen,4_28_0,2023-09-13T15:50:27.238Z,,0,1,,5026.483000000007,response,ISIC_4620425.JPG,7,ISIC_0054185.JPG,ISIC_4620425.JPG,false,1,keypress(m),500,287164.69999980927,287164.5,282121.333,282133.59999990463,282138.017,287197.903,8,400,29,,ISIC_0054185.JPG
break,html.Screen,4_28_1,2023-09-13T15:50:27.239Z,,0,,,NaN,,,,,,false,,,,287165.69999980927,287165.2999997139,,287164.89999961853,,287197.903,8,400,,,
break_continue,html.Screen,4_28_2,2023-09-13T15:50:27.239Z,,0,,,NaN,,,,,,false,,,,287166.19999980927,287166.19999980927,,287165.89999961853,,287197.903,8,400,,,
sequence,flow.Sequence,4_28,2023-09-13T15:50:27.239Z,,0,,,5028.182999809273,completion,,,,,false,,,,287166.39999961853,287166.19999980927,282121.333,282133.59999990463,282138.017,287197.903,8,400,,,
trial,html.Screen,4_29_0,2023-09-13T15:50:32.633Z,,0,1,,5362.196999904641,response,ISIC_0004075.JPG,5,ISIC_0024650.JPG,ISIC_0004075.JPG,false,1,keypress(m),500,292560.19999980927,292560.09999990463,287181.339,287166.59999990463,287197.903,292574.967,8,400,30,,ISIC_0024650.JPG
break,html.Screen,4_29_1,2023-09-13T15:50:32.634Z,,0,,,NaN,,,,,,false,,,,292561,292560.7999997139,,292560.39999961853,,292574.967,8,400,,,
break_continue,html.Screen,4_29_2,2023-09-13T15:50:32.634Z,,0,,,NaN,,,,,,false,,,,292561.2999997139,292561.19999980927,,292561.09999990463,,292574.967,8,400,,,
sequence,flow.Sequence,4_29,2023-09-13T15:50:32.634Z,,0,,,5363.296999809274,completion,,,,,false,,,,292561.39999961853,292561.19999980927,287181.339,287166.5,287197.903,292574.967,8,400,,,
trial,html.Screen,4_30_0,2023-09-13T15:50:37.154Z,,0,1,,4505.932999618526,response,ISIC_0013678.JPG,5,ISIC_0063493.JPG,ISIC_0013678.JPG,false,1,keypress(m),500,297081,297080.89999961853,292558.31,292561.5,292574.967,297100.495,8,400,31,,ISIC_0063493.JPG
break,html.Screen,4_30_1,2023-09-13T15:50:37.154Z,,0,,,NaN,,,,,,false,,,,297081.5,297081.39999961853,,297081.19999980927,,297100.495,8,400,,,
break_continue,html.Screen,4_30_2,2023-09-13T15:50:37.155Z,,0,,,NaN,,,,,,false,,,,297081.7999997139,297081.69999980927,,297081.59999990463,,297100.495,8,400,,,
sequence,flow.Sequence,4_30,2023-09-13T15:50:37.155Z,,0,,,4506.732999809261,completion,,,,,false,,,,297081.89999961853,297081.69999980927,292558.31,292561.39999961853,292574.967,297100.495,8,400,,,
trial,html.Screen,4_31_0,2023-09-13T15:50:42.904Z,,0,1,,5730.70499980927,response,ISIC_4864523.JPG,6,ISIC_1042960.JPG,ISIC_1042960.JPG,false,0,keypress(z),500,302831.39999961853,302831.19999980927,297083.847,297081.89999961853,297100.495,302861.834,8,400,32,,ISIC_4864523.JPG
break,html.Screen,4_31_1,2023-09-13T15:50:42.905Z,,0,,,NaN,,,,,,false,,,,302831.7999997139,302831.7999997139,,302831.59999990463,,302861.834,8,400,,,
break_continue,html.Screen,4_31_2,2023-09-13T15:50:42.905Z,,0,,,NaN,,,,,,false,,,,302832,302832,,302831.89999961853,,302861.834,8,400,,,
sequence,flow.Sequence,4_31,2023-09-13T15:50:42.905Z,,0,,,5731.505000000005,completion,,,,,false,,,,302832.19999980927,302832,297083.847,297081.89999961853,297100.495,302861.834,8,400,,,
trial,html.Screen,4_32_0,2023-09-13T15:50:47.452Z,,0,1,,4516.865999809292,response,ISIC_0000173.JPG,5,ISIC_0624498.JPG,ISIC_0624498.JPG,false,0,keypress(z),500,307378.89999961853,307378.69999980927,302845.049,302832.2999997139,302861.834,307387.238,8,400,33,,ISIC_0000173.JPG
break,html.Screen,4_32_1,2023-09-13T15:50:47.453Z,,0,,,NaN,,,,,,false,,,,307379.59999990463,307379.2999997139,,307379,,307387.238,8,400,,,
break_continue,html.Screen,4_32_2,2023-09-13T15:50:47.453Z,,0,,,NaN,,,,,,false,,,,307379.89999961853,307379.89999961853,,307379.69999980927,,307387.238,8,400,,,
sequence,flow.Sequence,4_32,2023-09-13T15:50:47.453Z,,0,,,4518.065999618557,completion,,,,,false,,,,307380,307379.89999961853,302845.049,302832.19999980927,302861.834,307387.238,8,400,,,
trial,html.Screen,4_33_0,2023-09-13T15:50:53.488Z,,0,1,,6027.661999618518,response,ISIC_1175291.JPG,5,ISIC_8139762.JPG,ISIC_8139762.JPG,false,0,keypress(z),500,313415,313414.89999961853,307370.683,307380,307387.238,313415.51,8,400,34,,ISIC_1175291.JPG
break,html.Screen,4_33_1,2023-09-13T15:50:53.488Z,,0,,,NaN,,,,,,false,,,,313415.39999961853,313415.2999997139,,313415.09999990463,,313415.51,8,400,,,
break_continue,html.Screen,4_33_2,2023-09-13T15:50:53.489Z,,0,,,NaN,,,,,,false,,,,313415.59999990463,313415.5,,313415.39999961853,,313415.51,8,400,,,
sequence,flow.Sequence,4_33,2023-09-13T15:50:53.489Z,,0,,,6028.261999999988,completion,,,,,false,,,,313415.69999980927,313415.5,307370.683,307380,307387.238,313415.51,8,400,,,
trial,html.Screen,4_34_0,2023-09-13T15:51:00.915Z,,0,1,,7426.589999904623,response,ISIC_8374889.JPG,5,ISIC_9782083.JPG,ISIC_8374889.JPG,false,1,keypress(m),500,320842.2999997139,320842.09999990463,313398.931,313415.7999997139,313415.51,320846.655,8,400,35,,ISIC_9782083.JPG
break,html.Screen,4_34_1,2023-09-13T15:51:00.916Z,,0,,,NaN,,,,,,false,,,,320843,320842.7999997139,,320842.39999961853,,320846.655,8,400,,,
break_continue,html.Screen,4_34_2,2023-09-13T15:51:00.916Z,,0,,,NaN,,,,,,false,,,,320843.19999980927,320843.19999980927,,320843.09999990463,,320846.655,8,400,,,
sequence,flow.Sequence,4_34,2023-09-13T15:51:00.916Z,,0,,,7427.689999809256,completion,,,,,false,,,,320843.39999961853,320843.19999980927,313398.931,313415.7999997139,313415.51,320846.655,8,400,,,
trial,html.Screen,4_35_0,2023-09-13T15:51:07.405Z,,0,1,,6485.744999618502,response,ISIC_4141315.JPG,5,ISIC_5980439.JPG,ISIC_4141315.JPG,false,1,keypress(m),500,327332.5,327332.39999961853,320830.001,320843.39999961853,320846.655,327359.362,8,400,36,,ISIC_5980439.JPG
break,html.Screen,4_35_1,2023-09-13T15:51:07.406Z,,0,,,NaN,,,,,,false,,,,327332.89999961853,327332.7999997139,,327332.59999990463,,327359.362,8,400,,,
break_continue,html.Screen,4_35_2,2023-09-13T15:51:07.406Z,,0,,,NaN,,,,,,false,,,,327333,327333,,327332.89999961853,,327359.362,8,400,,,
sequence,flow.Sequence,4_35,2023-09-13T15:51:07.406Z,,0,,,6486.344999999972,completion,,,,,false,,,,327333.09999990463,327333,320830.001,320843.39999961853,320846.655,327359.362,8,400,,,
trial,html.Screen,4_36_0,2023-09-13T15:51:11.904Z,,0,1,,4471.837999809242,response,ISIC_0053555.JPG,6,ISIC_0031553.JPG,ISIC_0031553.JPG,false,0,keypress(z),500,331831.39999961853,331831.19999980927,327342.789,327333.19999980927,327359.362,331834.789,8,400,37,,ISIC_0053555.JPG
break,html.Screen,4_36_1,2023-09-13T15:51:11.905Z,,0,,,NaN,,,,,,false,,,,331831.89999961853,331831.69999980927,,331831.39999961853,,331834.789,8,400,,,
break_continue,html.Screen,4_36_2,2023-09-13T15:51:11.905Z,,0,,,NaN,,,,,,false,,,,331832.09999990463,331832.09999990463,,331831.89999961853,,331834.789,8,400,,,
sequence,flow.Sequence,4_36,2023-09-13T15:51:11.905Z,,0,,,4472.73799990461,completion,,,,,false,,,,331832.09999990463,331832.09999990463,327342.789,327333.19999980927,327359.362,331834.789,8,400,,,
trial,html.Screen,4_37_0,2023-09-13T15:51:18.982Z,,0,1,,7074.010999713908,response,ISIC_0061199.JPG,5,ISIC_3493866.JPG,ISIC_3493866.JPG,false,0,keypress(z),500,338908.89999961853,338908.7999997139,331818.132,331832.19999980927,331834.789,338915.154,8,400,38,,ISIC_0061199.JPG
break,html.Screen,4_37_1,2023-09-13T15:51:18.982Z,,0,,,NaN,,,,,,false,,,,338909.5,338909.2999997139,,338909,,338915.154,8,400,,,
break_continue,html.Screen,4_37_2,2023-09-13T15:51:18.983Z,,0,,,NaN,,,,,,false,,,,338909.89999961853,338909.7999997139,,338909.59999990463,,338915.154,8,400,,,
sequence,flow.Sequence,4_37,2023-09-13T15:51:18.983Z,,0,,,7075.010999713908,completion,,,,,false,,,,338910,338909.7999997139,331818.132,331832.19999980927,331834.789,338915.154,8,400,,,
trial,html.Screen,4_38_0,2023-09-13T15:51:25.114Z,,0,1,,6123.945999904652,response,ISIC_0053791.JPG,6,ISIC_0268187.JPG,ISIC_0268187.JPG,false,0,keypress(z),500,345039.2999997139,345039.09999990463,338898.64,338910.09999990463,338915.154,345043.841,8,400,39,,ISIC_0053791.JPG
break,html.Screen,4_38_1,2023-09-13T15:51:25.114Z,,0,,,NaN,,,,,,false,,,,345040,345039.69999980927,,345039.39999961853,,345043.841,8,400,,,
break_continue,html.Screen,4_38_2,2023-09-13T15:51:25.115Z,,0,,,NaN,,,,,,false,,,,345040.2999997139,345040.19999980927,,345040.09999990463,,345043.841,8,400,,,
sequence,flow.Sequence,4_38,2023-09-13T15:51:25.115Z,,0,,,6125.045999809285,completion,,,,,false,,,,345040.39999961853,345040.19999980927,338898.64,338910,338915.154,345043.841,8,400,,,
trial,html.Screen,4_39_0,2023-09-13T15:51:30.882Z,,0,1,,5763.458999713883,response,ISIC_0024513.JPG,5,ISIC_0027514.JPG,ISIC_0024513.JPG,false,1,keypress(m),500,350807.69999980927,350807.2999997139,345027.084,345040.39999961853,345043.841,350821.712,8,400,40,,ISIC_0027514.JPG
break,html.Screen,4_39_1,2023-09-13T15:51:30.885Z,,0,,,NaN,,,,,,false,,,,350810.69999980927,350810.09999990463,,350808.5,,350821.712,8,400,,,
break_continue,html.Screen,4_39_2,2023-09-13T15:51:30.887Z,,0,,,NaN,,,,,,false,,,,350812.09999990463,350811.59999990463,,350811,,350821.712,8,400,,,
sequence,flow.Sequence,4_39,2023-09-13T15:51:30.887Z,,0,,,5767.758999904618,completion,,,,,false,,,,350812.7999997139,350811.59999990463,345027.084,345040.39999961853,345043.841,350821.712,8,400,,,
trial,html.Screen,4_40_0,2023-09-13T15:51:35.738Z,,0,1,,4841.187999618531,response,ISIC_0062639.JPG,5,ISIC_4607215.JPG,ISIC_4607215.JPG,false,0,keypress(z),500,355663,355662.89999961853,350804.943,350813.2999997139,350821.712,355664.417,8,400,41,,ISIC_0062639.JPG
break,html.Screen,4_40_1,2023-09-13T15:51:35.738Z,,0,,,NaN,,,,,,false,,,,355663.39999961853,355663.2999997139,,355663.09999990463,,355664.417,8,400,,,
break_continue,html.Screen,4_40_2,2023-09-13T15:51:35.738Z,,0,,,NaN,,,,,,false,,,,355663.69999980927,355663.59999990463,,355663.5,,355664.417,8,400,,,
sequence,flow.Sequence,4_40,2023-09-13T15:51:35.738Z,,0,,,4841.887999904633,completion,,,,,false,,,,355663.7999997139,355663.59999990463,350804.943,350813.2999997139,350821.712,355664.417,8,400,,,
trial,html.Screen,4_41_0,2023-09-13T15:51:41.723Z,,0,1,,5984.182999904617,response,ISIC_7114660.JPG,5,ISIC_0033526.JPG,ISIC_7114660.JPG,false,1,keypress(m),500,361648.7999997139,361648.59999990463,355647.892,355663.89999961853,355664.417,361659.459,8,400,42,,ISIC_0033526.JPG
break,html.Screen,4_41_1,2023-09-13T15:51:41.724Z,,0,,,NaN,,,,,,false,,,,361649.69999980927,361649.39999961853,,361649,,361659.459,8,400,,,
break_continue,html.Screen,4_41_2,2023-09-13T15:51:41.725Z,,0,,,NaN,,,,,,false,,,,361650.09999990463,361650,,361649.89999961853,,361659.459,8,400,,,
sequence,flow.Sequence,4_41,2023-09-13T15:51:41.725Z,,0,,,5985.582999999984,completion,,,,,false,,,,361650.2999997139,361650,355647.892,355663.89999961853,355664.417,361659.459,8,400,,,
trial,html.Screen,4_42_0,2023-09-13T15:51:47.710Z,,0,1,,5975.940999618557,response,ISIC_0061300.JPG,5,ISIC_8463871.JPG,ISIC_8463871.JPG,false,0,keypress(z),500,367635.5,367635.39999961853,361642.769,361650.39999961853,361659.459,367637.718,8,400,43,,ISIC_0061300.JPG
break,html.Screen,4_42_1,2023-09-13T15:51:47.710Z,,0,,,NaN,,,,,,false,,,,367636,367635.7999997139,,367635.59999990463,,367637.718,8,400,,,
break_continue,html.Screen,4_42_2,2023-09-13T15:51:47.711Z,,0,,,NaN,,,,,,false,,,,367636.09999990463,367636.09999990463,,367636,,367637.718,8,400,,,
sequence,flow.Sequence,4_42,2023-09-13T15:51:47.711Z,,0,,,5976.640999904659,completion,,,,,false,,,,367636.19999980927,367636.09999990463,361642.769,361650.2999997139,361659.459,367637.718,8,400,,,
trial,html.Screen,4_43_0,2023-09-13T15:51:52.456Z,,0,1,,4743.2820000000065,response,ISIC_0071740.JPG,5,ISIC_0327225.JPG,ISIC_0327225.JPG,false,0,keypress(z),500,372381.2999997139,372381,367621.152,367636.2999997139,367637.718,372397.009,8,400,44,,ISIC_0071740.JPG
break,html.Screen,4_43_1,2023-09-13T15:51:52.457Z,,0,,,NaN,,,,,,false,,,,372382.09999990463,372381.89999961853,,372381.39999961853,,372397.009,8,400,,,
break_continue,html.Screen,4_43_2,2023-09-13T15:51:52.457Z,,0,,,NaN,,,,,,false,,,,372382.2999997139,372382.2999997139,,372382.19999980927,,372397.009,8,400,,,
sequence,flow.Sequence,4_43,2023-09-13T15:51:52.457Z,,0,,,4744.581999713904,completion,,,,,false,,,,372382.39999961853,372382.2999997139,367621.152,367636.2999997139,367637.718,372397.009,8,400,,,
trial,html.Screen,4_44_0,2023-09-13T15:51:57.823Z,,0,1,,5351.690999809245,response,ISIC_2670619.JPG,5,ISIC_3086579.JPG,ISIC_3086579.JPG,false,0,keypress(z),500,377748.7999997139,377748.69999980927,372380.265,372382.39999961853,372397.009,377774.125,8,400,45,,ISIC_2670619.JPG
break,html.Screen,4_44_1,2023-09-13T15:51:57.824Z,,0,,,NaN,,,,,,false,,,,377749.2999997139,377749.19999980927,,377748.89999961853,,377774.125,8,400,,,
break_continue,html.Screen,4_44_2,2023-09-13T15:51:57.824Z,,0,,,NaN,,,,,,false,,,,377749.39999961853,377749.39999961853,,377749.2999997139,,377774.125,8,400,,,
sequence,flow.Sequence,4_44,2023-09-13T15:51:57.824Z,,0,,,5352.39099961851,completion,,,,,false,,,,377749.5,377749.39999961853,372380.265,372382.39999961853,372397.009,377774.125,8,400,,,
trial,html.Screen,4_45_0,2023-09-13T15:52:02.567Z,,0,1,,4718.074999809265,response,ISIC_6553579.JPG,6,ISIC_9556334.JPG,ISIC_6553579.JPG,false,1,keypress(m),500,382492.39999961853,382492.19999980927,377757.429,377749.59999990463,377774.125,382516.73,8,400,46,,ISIC_9556334.JPG
break,html.Screen,4_45_1,2023-09-13T15:52:02.567Z,,0,,,NaN,,,,,,false,,,,382492.89999961853,382492.7999997139,,382492.5,,382516.73,8,400,,,
break_continue,html.Screen,4_45_2,2023-09-13T15:52:02.568Z,,0,,,NaN,,,,,,false,,,,382493.09999990463,382493.09999990463,,382492.89999961853,,382516.73,8,400,,,
sequence,flow.Sequence,4_45,2023-09-13T15:52:02.568Z,,0,,,4718.974999904633,completion,,,,,false,,,,382493.19999980927,382493.09999990463,377757.429,377749.59999990463,377774.125,382516.73,8,400,,,
trial,html.Screen,4_46_0,2023-09-13T15:52:06.717Z,,0,1,,4125.169999618549,response,ISIC_3493866.JPG,6,ISIC_9030482.JPG,ISIC_3493866.JPG,false,1,keypress(m),500,386642,386641.89999961853,382500.008,382493.2999997139,382516.73,386658.063,8,400,47,,ISIC_9030482.JPG
break,html.Screen,4_46_1,2023-09-13T15:52:06.717Z,,0,,,NaN,,,,,,false,,,,386642.7999997139,386642.69999980927,,386642.2999997139,,386658.063,8,400,,,
break_continue,html.Screen,4_46_2,2023-09-13T15:52:06.718Z,,0,,,NaN,,,,,,false,,,,386643.09999990463,386643,,386642.89999961853,,386658.063,8,400,,,
sequence,flow.Sequence,4_46,2023-09-13T15:52:06.718Z,,0,,,4126.270000000019,completion,,,,,false,,,,386643.19999980927,386643,382500.008,382493.2999997139,382516.73,386658.063,8,400,,,
trial,html.Screen,4_47_0,2023-09-13T15:52:13.814Z,,0,1,,7081.736999713874,response,ISIC_0015041.JPG,5,ISIC_0030994.JPG,ISIC_0030994.JPG,false,0,keypress(z),500,393740,393739.7999997139,386641.45,386643.19999980927,386658.063,393755.318,8,400,48,,ISIC_0015041.JPG
break,html.Screen,4_47_1,2023-09-13T15:52:13.815Z,,0,,,NaN,,,,,,false,,,,393740.2999997139,393740.2999997139,,393740.09999990463,,393755.318,8,400,,,
break_continue,html.Screen,4_47_2,2023-09-13T15:52:13.815Z,,0,,,NaN,,,,,,false,,,,393740.5,393740.5,,393740.39999961853,,393755.318,8,400,,,
sequence,flow.Sequence,4_47,2023-09-13T15:52:13.815Z,,0,,,7082.436999999976,completion,,,,,false,,,,393740.69999980927,393740.5,386641.45,386643.19999980927,386658.063,393755.318,8,400,,,
trial,html.Screen,4_48_0,2023-09-13T15:52:20.792Z,,0,1,,6962.381999809237,response,ISIC_6709052.JPG,4,ISIC_0000473.JPG,ISIC_0000473.JPG,false,0,keypress(z),500,400717.89999961853,400717.69999980927,393738.695,393740.69999980927,393755.318,400718.737,8,400,49,,ISIC_6709052.JPG
break,html.Screen,4_48_1,2023-09-13T15:52:20.793Z,,0,,,NaN,,,,,,false,,,,400718.39999961853,400718.2999997139,,400717.89999961853,,400718.737,8,400,,,
break_continue,html.Screen,4_48_2,2023-09-13T15:52:20.793Z,,0,,,NaN,,,,,,false,,,,400718.59999990463,400718.59999990463,,400718.5,,400718.737,8,400,,,
sequence,flow.Sequence,4_48,2023-09-13T15:52:20.793Z,,0,,,6963.281999904604,completion,,,,,false,,,,400718.7999997139,400718.59999990463,393738.695,393740.69999980927,393755.318,400718.737,8,400,,,
trial,html.Screen,4_49_0,2023-09-13T15:52:26.316Z,,0,1,,5521.562999713875,response,ISIC_0806140.JPG,6,ISIC_0012067.JPG,ISIC_0806140.JPG,false,1,keypress(m),500,406240.39999961853,406240.2999997139,400702.088,400718.89999961853,400718.737,406246.374,8,400,50,,ISIC_0012067.JPG
break,html.Screen,4_49_1,2023-09-13T15:52:36.309Z,,0,,,10002.853000000003,timeout,,,,,false,,,,416233.19999980927,416232.46,406229.568,406240.5,406246.374,416249.227,8,400,,,
break_continue,html.Screen,4_49_2,2023-09-13T15:54:43.510Z,,0,,,127153.77299999999,response,,,,,false,continue,keypress(Space),,543431.6999998093,543403,416232.46,416233.5,416249.227,543446.512,8,400,,,
sequence,flow.Sequence,4_49,2023-09-13T15:54:43.510Z,,0,,,142684.26299999998,completion,,,,,false,,,,543431.8999996185,543403,400702.088,400718.89999961853,400718.737,543446.512,8,400,,,
trial,html.Screen,4_50_0,2023-09-13T15:54:47.819Z,,0,2,,4294.488000000012,response,ISIC_1745731.JPG,4,ISIC_0065463.JPG,ISIC_1745731.JPG,false,1,keypress(m),500,547741.0999999046,547741,543429.858,543431.8999996185,543446.512,547754.887,8,400,1,,ISIC_0065463.JPG
break,html.Screen,4_50_1,2023-09-13T15:54:47.820Z,,0,,,NaN,,,,,,false,,,,547741.5,547741.3999996185,,547741.1999998093,,547754.887,8,400,,,
break_continue,html.Screen,4_50_2,2023-09-13T15:54:47.820Z,,0,,,NaN,,,,,,false,,,,547741.6999998093,547741.6999998093,,547741.5999999046,,547754.887,8,400,,,
sequence,flow.Sequence,4_50,2023-09-13T15:54:47.820Z,,0,,,4295.187999809277,completion,,,,,false,,,,547741.8999996185,547741.6999998093,543429.858,543431.8999996185,543446.512,547754.887,8,400,,,
trial,html.Screen,4_51_0,2023-09-13T15:54:52.947Z,,0,2,,5114.41299971391,response,ISIC_0032029.JPG,5,ISIC_0010400.JPG,ISIC_0032029.JPG,false,1,keypress(m),500,552869.3999996185,552869.2999997139,547738.223,547741.8999996185,547754.887,552881.531,8,400,2,,ISIC_0010400.JPG
break,html.Screen,4_51_1,2023-09-13T15:54:52.948Z,,0,,,NaN,,,,,,false,,,,552870.0999999046,552870,,552869.5999999046,,552881.531,8,400,,,
break_continue,html.Screen,4_51_2,2023-09-13T15:54:52.948Z,,0,,,NaN,,,,,,false,,,,552870.2999997139,552870.2999997139,,552870.1999998093,,552881.531,8,400,,,
sequence,flow.Sequence,4_51,2023-09-13T15:54:52.948Z,,0,,,5115.41299971391,completion,,,,,false,,,,552870.3999996185,552870.2999997139,547738.223,547741.8999996185,547754.887,552881.531,8,400,,,
trial,html.Screen,4_52_0,2023-09-13T15:54:58.636Z,,0,2,,5676.768999713939,response,ISIC_0026889.JPG,5,ISIC_0033802.JPG,ISIC_0026889.JPG,false,1,keypress(m),500,558558.5,558558.2999997139,552865.002,552870.5,552881.531,558559.237,8,400,3,,ISIC_0033802.JPG
break,html.Screen,4_52_1,2023-09-13T15:54:58.637Z,,0,,,NaN,,,,,,false,,,,558559,558558.8999996185,,558558.5999999046,,558559.237,8,400,,,
break_continue,html.Screen,4_52_2,2023-09-13T15:54:58.637Z,,0,,,NaN,,,,,,false,,,,558559.2999997139,558559.1999998093,,558559.0999999046,,558559.237,8,400,,,
sequence,flow.Sequence,4_52,2023-09-13T15:54:58.637Z,,0,,,5677.668999809306,completion,,,,,false,,,,558559.5,558559.1999998093,552865.002,552870.5,552881.531,558559.237,8,400,,,
trial,html.Screen,4_53_0,2023-09-13T15:55:04.661Z,,0,2,,6023.562999713933,response,ISIC_6529819.JPG,6,ISIC_3277722.JPG,ISIC_6529819.JPG,false,1,keypress(m),500,564582.8999996185,564582.7999997139,558542.601,558559.5999999046,558559.237,564587.644,8,400,4,,ISIC_3277722.JPG
break,html.Screen,4_53_1,2023-09-13T15:55:04.662Z,,0,,,NaN,,,,,,false,,,,564583.6999998093,564583.5,,564583.0999999046,,564587.644,8,400,,,
break_continue,html.Screen,4_53_2,2023-09-13T15:55:04.662Z,,0,,,NaN,,,,,,false,,,,564584,564583.8999996185,,564583.7999997139,,564587.644,8,400,,,
sequence,flow.Sequence,4_53,2023-09-13T15:55:04.662Z,,0,,,6024.662999618566,completion,,,,,false,,,,564584.1999998093,564583.8999996185,558542.601,558559.5999999046,558559.237,564587.644,8,400,,,
trial,html.Screen,4_54_0,2023-09-13T15:55:09.385Z,,0,2,,4718.955999904661,response,ISIC_0197584.JPG,5,ISIC_0033957.JPG,ISIC_0197584.JPG,false,1,keypress(m),500,569306.7999997139,569306.5999999046,564570.965,564584.1999998093,564587.644,569313.501,8,400,5,,ISIC_0033957.JPG
break,html.Screen,4_54_1,2023-09-13T15:55:09.385Z,,0,,,NaN,,,,,,false,,,,569307.2999997139,569307.0999999046,,569306.7999997139,,569313.501,8,400,,,
break_continue,html.Screen,4_54_2,2023-09-13T15:55:09.385Z,,0,,,NaN,,,,,,false,,,,569307.5,569307.5,,569307.2999997139,,569313.501,8,400,,,
sequence,flow.Sequence,4_54,2023-09-13T15:55:09.386Z,,0,,,4719.856000000029,completion,,,,,false,,,,569307.5999999046,569307.5,564570.965,564584.1999998093,564587.644,569313.501,8,400,,,
trial,html.Screen,4_55_0,2023-09-13T15:55:14.141Z,,0,2,,4747.598999904585,response,ISIC_0010400.JPG,6,ISIC_8462364.JPG,ISIC_8462364.JPG,false,0,keypress(z),500,574061.1999998093,574061.0999999046,569296.863,569307.5999999046,569313.501,574089.516,8,400,6,,ISIC_0010400.JPG
break,html.Screen,4_55_1,2023-09-13T15:55:14.142Z,,0,,,NaN,,,,,,false,,,,574061.5999999046,574061.5,,574061.2999997139,,574089.516,8,400,,,
break_continue,html.Screen,4_55_2,2023-09-13T15:55:14.142Z,,0,,,NaN,,,,,,false,,,,574061.7999997139,574061.7999997139,,574061.5999999046,,574089.516,8,400,,,
sequence,flow.Sequence,4_55,2023-09-13T15:55:14.142Z,,0,,,4748.29899971385,completion,,,,,false,,,,574061.8999996185,574061.7999997139,569296.863,569307.5999999046,569313.501,574089.516,8,400,,,
trial,html.Screen,4_56_0,2023-09-13T15:55:19.279Z,,0,2,,5109.383999618585,response,ISIC_0056152.JPG,4,ISIC_0047008.JPG,ISIC_0047008.JPG,false,0,keypress(z),500,579199,579198.8999996185,574072.898,574061.8999996185,574089.516,579216.11,8,400,7,,ISIC_0056152.JPG
break,html.Screen,4_56_1,2023-09-13T15:55:19.280Z,,0,,,NaN,,,,,,false,,,,579199.5999999046,579199.3999996185,,579199.0999999046,,579216.11,8,400,,,
break_continue,html.Screen,4_56_2,2023-09-13T15:55:19.280Z,,0,,,NaN,,,,,,false,,,,579200,579199.8999996185,,579199.6999998093,,579216.11,8,400,,,
sequence,flow.Sequence,4_56,2023-09-13T15:55:19.280Z,,0,,,5110.383999618585,completion,,,,,false,,,,579200.1999998093,579199.8999996185,574072.898,574061.8999996185,574089.516,579216.11,8,400,,,
trial,html.Screen,4_57_0,2023-09-13T15:55:24.231Z,,0,2,,4934.589999809279,response,ISIC_9407667.JPG,6,ISIC_0046450.JPG,ISIC_9407667.JPG,false,1,keypress(m),500,584150.6999998093,584150.6999998093,579199.421,579200.3999996185,579216.11,584159.098,8,400,8,,ISIC_0046450.JPG
break,html.Screen,4_57_1,2023-09-13T15:55:24.231Z,,0,,,NaN,,,,,,false,,,,584151.1999998093,584151.0999999046,,584150.8999996185,,584159.098,8,400,,,
break_continue,html.Screen,4_57_2,2023-09-13T15:55:24.232Z,,0,,,NaN,,,,,,false,,,,584151.3999996185,584151.2999997139,,584151.2999997139,,584159.098,8,400,,,
sequence,flow.Sequence,4_57,2023-09-13T15:55:24.232Z,,0,,,4935.189999713912,completion,,,,,false,,,,584151.5,584151.2999997139,579199.421,579200.2999997139,579216.11,584159.098,8,400,,,
trial,html.Screen,4_58_0,2023-09-13T15:55:29.249Z,,0,2,,5009.301999618532,response,ISIC_2776906.JPG,5,ISIC_0032357.JPG,ISIC_0032357.JPG,false,0,keypress(z),500,589168.5999999046,589168.3999996185,584142.366,584151.6999998093,584159.098,589185.716,8,400,9,,ISIC_2776906.JPG
break,html.Screen,4_58_1,2023-09-13T15:55:29.250Z,,0,,,NaN,,,,,,false,,,,589169.7999997139,589169.3999996185,,589168.8999996185,,589185.716,8,400,,,
break_continue,html.Screen,4_58_2,2023-09-13T15:55:29.250Z,,0,,,NaN,,,,,,false,,,,589170.1999998093,589170.0999999046,,589169.8999996185,,589185.716,8,400,,,
sequence,flow.Sequence,4_58,2023-09-13T15:55:29.251Z,,0,,,5011.001999904634,completion,,,,,false,,,,589170.3999996185,589170.0999999046,584142.366,584151.5999999046,584159.098,589185.716,8,400,,,
trial,html.Screen,4_59_0,2023-09-13T15:55:34.343Z,,0,2,,5076.383999904618,response,ISIC_0033725.JPG,6,ISIC_0014181.JPG,ISIC_0033725.JPG,false,1,keypress(m),500,594262.2999997139,594262.0999999046,589168.873,589170.7999997139,589185.716,594278.783,8,400,10,,ISIC_0014181.JPG
break,html.Screen,4_59_1,2023-09-13T15:55:34.344Z,,0,,,NaN,,,,,,false,,,,594263.6999998093,594263.3999996185,,594262.7999997139,,594278.783,8,400,,,
break_continue,html.Screen,4_59_2,2023-09-13T15:55:34.345Z,,0,,,NaN,,,,,,false,,,,594264.6999998093,594264.5,,594263.7999997139,,594278.783,8,400,,,
sequence,flow.Sequence,4_59,2023-09-13T15:55:34.345Z,,0,,,5078.783999999985,completion,,,,,false,,,,594265.0999999046,594264.5,589168.873,589170.6999998093,589185.716,594278.783,8,400,,,
trial,html.Screen,4_60_0,2023-09-13T15:55:39.852Z,,0,2,,5493.116999618476,response,ISIC_0205127.JPG,4,ISIC_1197584.JPG,ISIC_1197584.JPG,false,0,keypress(z),500,599772,599771.8999996185,594262.225,594265.3999996185,594278.783,599772.791,8,400,11,,ISIC_0205127.JPG
break,html.Screen,4_60_1,2023-09-13T15:55:39.853Z,,0,,,NaN,,,,,,false,,,,599772.3999996185,599772.2999997139,,599772.0999999046,,599772.791,8,400,,,
break_continue,html.Screen,4_60_2,2023-09-13T15:55:39.853Z,,0,,,NaN,,,,,,false,,,,599772.5999999046,599772.5,,599772.3999996185,,599772.791,8,400,,,
sequence,flow.Sequence,4_60,2023-09-13T15:55:39.853Z,,0,,,5493.716999999946,completion,,,,,false,,,,599772.6999998093,599772.5,594262.225,594265.2999997139,594278.783,599772.791,8,400,,,
trial,html.Screen,4_61_0,2023-09-13T15:55:44.678Z,,0,2,,4825.108999618562,response,ISIC_0028692.JPG,5,ISIC_0066053.JPG,ISIC_0028692.JPG,false,1,keypress(m),500,604598,604597.8999996185,599756.104,599772.6999998093,599772.791,604598.893,8,400,12,,ISIC_0066053.JPG
break,html.Screen,4_61_1,2023-09-13T15:55:44.679Z,,0,,,NaN,,,,,,false,,,,604598.3999996185,604598.2999997139,,604598.0999999046,,604598.893,8,400,,,
break_continue,html.Screen,4_61_2,2023-09-13T15:55:44.679Z,,0,,,NaN,,,,,,false,,,,604598.5999999046,604598.5,,604598.3999996185,,604598.893,8,400,,,
sequence,flow.Sequence,4_61,2023-09-13T15:55:44.679Z,,0,,,4825.709000000032,completion,,,,,false,,,,604598.5999999046,604598.5,599756.104,599772.6999998093,599772.791,604598.893,8,400,,,
trial,html.Screen,4_62_0,2023-09-13T15:55:49.792Z,,0,2,,5112.906999713858,response,ISIC_3428523.JPG,5,ISIC_0011869.JPG,ISIC_3428523.JPG,false,1,keypress(m),500,609711.8999996185,609711.7999997139,604582.214,604598.6999998093,604598.893,609742.212,8,400,13,,ISIC_0011869.JPG
break,html.Screen,4_62_1,2023-09-13T15:55:49.793Z,,0,,,NaN,,,,,,false,,,,609712.3999996185,609712.2999997139,,609712,,609742.212,8,400,,,
break_continue,html.Screen,4_62_2,2023-09-13T15:55:49.793Z,,0,,,NaN,,,,,,false,,,,609712.6999998093,609712.5999999046,,609712.5,,609742.212,8,400,,,
sequence,flow.Sequence,4_62,2023-09-13T15:55:49.793Z,,0,,,5113.7069999045925,completion,,,,,false,,,,609712.6999998093,609712.5999999046,604582.214,604598.6999998093,604598.893,609742.212,8,400,,,
trial,html.Screen,4_63_0,2023-09-13T15:55:54.580Z,,0,2,,4756.987999809207,response,ISIC_0068616.JPG,5,ISIC_0073075.JPG,ISIC_0073075.JPG,false,0,keypress(z),500,614499.2999997139,614499.1999998093,609725.528,609712.7999997139,609742.212,614518.13,8,400,14,,ISIC_0068616.JPG
break,html.Screen,4_63_1,2023-09-13T15:55:54.580Z,,0,,,NaN,,,,,,false,,,,614499.7999997139,614499.5999999046,,614499.3999996185,,614518.13,8,400,,,
break_continue,html.Screen,4_63_2,2023-09-13T15:55:54.580Z,,0,,,NaN,,,,,,false,,,,614500,614499.8999996185,,614499.7999997139,,614518.13,8,400,,,
sequence,flow.Sequence,4_63,2023-09-13T15:55:54.580Z,,0,,,4757.6879996184725,completion,,,,,false,,,,614500,614499.8999996185,609725.528,609712.7999997139,609742.212,614518.13,8,400,,,
trial,html.Screen,4_64_0,2023-09-13T15:55:59.800Z,,0,2,,5201.469999904628,response,ISIC_0066750.JPG,4,ISIC_2805573.JPG,ISIC_2805573.JPG,false,0,keypress(z),500,619719.6999998093,619719.5999999046,614501.442,614500.0999999046,614518.13,619745.013,8,400,15,,ISIC_0066750.JPG
break,html.Screen,4_64_1,2023-09-13T15:55:59.800Z,,0,,,NaN,,,,,,false,,,,619720.1999998093,619720.0999999046,,619719.7999997139,,619745.013,8,400,,,
break_continue,html.Screen,4_64_2,2023-09-13T15:55:59.800Z,,0,,,NaN,,,,,,false,,,,619720.2999997139,619720.2999997139,,619720.1999998093,,619745.013,8,400,,,
sequence,flow.Sequence,4_64,2023-09-13T15:55:59.801Z,,0,,,5202.169999713893,completion,,,,,false,,,,619720.3999996185,619720.2999997139,614501.442,614500.0999999046,614518.13,619745.013,8,400,,,
trial,html.Screen,4_65_0,2023-09-13T15:56:05.626Z,,0,2,,5800.486999999965,response,ISIC_6227397.JPG,5,ISIC_6718969.JPG,ISIC_6718969.JPG,false,0,keypress(z),500,625545.6999998093,625545.5,619728.399,619720.3999996185,619745.013,625556.581,8,400,16,,ISIC_6227397.JPG
break,html.Screen,4_65_1,2023-09-13T15:56:05.627Z,,0,,,NaN,,,,,,false,,,,625546.2999997139,625546.1999998093,,625545.8999996185,,625556.581,8,400,,,
break_continue,html.Screen,4_65_2,2023-09-13T15:56:05.627Z,,0,,,NaN,,,,,,false,,,,625546.6999998093,625546.5999999046,,625546.5,,625556.581,8,400,,,
sequence,flow.Sequence,4_65,2023-09-13T15:56:05.627Z,,0,,,5801.586999904597,completion,,,,,false,,,,625546.8999996185,625546.5999999046,619728.399,619720.3999996185,619745.013,625556.581,8,400,,,
trial,html.Screen,4_66_0,2023-09-13T15:56:10.753Z,,0,2,,5116.318999618525,response,ISIC_0056915.JPG,4,ISIC_0028520.JPG,ISIC_0056915.JPG,false,1,keypress(m),500,630673,630672.8999996185,625539.721,625547,625556.581,630682.938,8,400,17,,ISIC_0028520.JPG
break,html.Screen,4_66_1,2023-09-13T15:56:10.754Z,,0,,,NaN,,,,,,false,,,,630673.5,630673.2999997139,,630673,,630682.938,8,400,,,
break_continue,html.Screen,4_66_2,2023-09-13T15:56:10.754Z,,0,,,NaN,,,,,,false,,,,630673.6999998093,630673.5999999046,,630673.5,,630682.938,8,400,,,
sequence,flow.Sequence,4_66,2023-09-13T15:56:10.754Z,,0,,,5117.018999904627,completion,,,,,false,,,,630673.6999998093,630673.5999999046,625539.721,625547,625556.581,630682.938,8,400,,,
trial,html.Screen,4_67_0,2023-09-13T15:56:15.525Z,,0,2,,4759.961999618565,response,ISIC_3591332.JPG,6,ISIC_5005253.JPG,ISIC_5005253.JPG,false,0,keypress(z),500,635443,635442.8999996185,630666.347,630673.7999997139,630682.938,635475.706,8,400,18,,ISIC_3591332.JPG
break,html.Screen,4_67_1,2023-09-13T15:56:15.525Z,,0,,,NaN,,,,,,false,,,,635443.5999999046,635443.5,,635443.1999998093,,635475.706,8,400,,,
break_continue,html.Screen,4_67_2,2023-09-13T15:56:15.525Z,,0,,,NaN,,,,,,false,,,,635443.8999996185,635443.7999997139,,635443.6999998093,,635475.706,8,400,,,
sequence,flow.Sequence,4_67,2023-09-13T15:56:15.526Z,,0,,,4760.861999713932,completion,,,,,false,,,,635443.8999996185,635443.7999997139,630666.347,630673.7999997139,630682.938,635475.706,8,400,,,
trial,html.Screen,4_68_0,2023-09-13T15:56:21.240Z,,0,2,,5682.193999618525,response,ISIC_0006850.JPG,5,ISIC_0030932.JPG,ISIC_0006850.JPG,false,1,keypress(m),500,641158.0999999046,641157.8999996185,635458.942,635444,635475.706,641170.059,8,400,19,,ISIC_0030932.JPG
break,html.Screen,4_68_1,2023-09-13T15:56:21.240Z,,0,,,NaN,,,,,,false,,,,641158.5,641158.5,,641158.1999998093,,641170.059,8,400,,,
break_continue,html.Screen,4_68_2,2023-09-13T15:56:21.240Z,,0,,,NaN,,,,,,false,,,,641158.6999998093,641158.5999999046,,641158.5999999046,,641170.059,8,400,,,
sequence,flow.Sequence,4_68,2023-09-13T15:56:21.240Z,,0,,,5682.893999904627,completion,,,,,false,,,,641158.7999997139,641158.5999999046,635458.942,635444,635475.706,641170.059,8,400,,,
trial,html.Screen,4_69_0,2023-09-13T15:56:27.117Z,,0,2,,5865.640999809257,response,ISIC_6635699.JPG,6,ISIC_0009883.JPG,ISIC_6635699.JPG,false,1,keypress(m),500,647035.7999997139,647035.6999998093,641153.352,641158.7999997139,641170.059,647048.223,8,400,20,,ISIC_0009883.JPG
break,html.Screen,4_69_1,2023-09-13T15:56:27.118Z,,0,,,NaN,,,,,,false,,,,647036.1999998093,647036.0999999046,,647035.8999996185,,647048.223,8,400,,,
break_continue,html.Screen,4_69_2,2023-09-13T15:56:27.118Z,,0,,,NaN,,,,,,false,,,,647036.3999996185,647036.3999996185,,647036.2999997139,,647048.223,8,400,,,
sequence,flow.Sequence,4_69,2023-09-13T15:56:27.118Z,,0,,,5866.340999618522,completion,,,,,false,,,,647036.5,647036.3999996185,641153.352,641158.7999997139,641170.059,647048.223,8,400,,,
trial,html.Screen,4_70_0,2023-09-13T15:56:31.888Z,,0,2,,4758.277000000002,response,ISIC_2644988.JPG,5,ISIC_2844085.JPG,ISIC_2644988.JPG,false,1,keypress(m),500,651806.8999996185,651806.5,647031.44,647036.5,647048.223,651824.327,8,400,21,,ISIC_2844085.JPG
break,html.Screen,4_70_1,2023-09-13T15:56:31.890Z,,0,,,NaN,,,,,,false,,,,651808.7999997139,651808.1999998093,,651807.2999997139,,651824.327,8,400,,,
break_continue,html.Screen,4_70_2,2023-09-13T15:56:31.891Z,,0,,,NaN,,,,,,false,,,,651809.7999997139,651809.5,,651809.1999998093,,651824.327,8,400,,,
sequence,flow.Sequence,4_70,2023-09-13T15:56:31.892Z,,0,,,4761.277000000002,completion,,,,,false,,,,651810,651809.5,647031.44,647036.5,647048.223,651824.327,8,400,,,
trial,html.Screen,4_71_0,2023-09-13T15:56:38.349Z,,0,2,,6443.072999618482,response,ISIC_1258986.JPG,5,ISIC_7340112.JPG,ISIC_1258986.JPG,false,1,keypress(m),500,658267.5999999046,658267.3999996185,651807.512,651810.1999998093,651824.327,658286.704,8,400,22,,ISIC_7340112.JPG
break,html.Screen,4_71_1,2023-09-13T15:56:38.350Z,,0,,,NaN,,,,,,false,,,,658268.1999998093,658268.0999999046,,658267.7999997139,,658286.704,8,400,,,
break_continue,html.Screen,4_71_2,2023-09-13T15:56:38.350Z,,0,,,NaN,,,,,,false,,,,658268.2999997139,658268.2999997139,,658268.2999997139,,658286.704,8,400,,,
sequence,flow.Sequence,4_71,2023-09-13T15:56:38.350Z,,0,,,6443.972999713849,completion,,,,,false,,,,658268.5,658268.2999997139,651807.512,651810.0999999046,651824.327,658286.704,8,400,,,
trial,html.Screen,4_72_0,2023-09-13T15:56:44.064Z,,0,2,,5694.995999809238,response,ISIC_0830131.JPG,6,ISIC_0031045.JPG,ISIC_0830131.JPG,false,1,keypress(m),500,663982,663981.6999998093,658269.958,658268.5,658286.704,663997.855,8,400,23,,ISIC_0031045.JPG
break,html.Screen,4_72_1,2023-09-13T15:56:44.065Z,,0,,,NaN,,,,,,false,,,,663983.0999999046,663982.6999998093,,663982.1999998093,,663997.855,8,400,,,
break_continue,html.Screen,4_72_2,2023-09-13T15:56:44.065Z,,0,,,NaN,,,,,,false,,,,663983.5999999046,663983.3999996185,,663983.1999998093,,663997.855,8,400,,,
sequence,flow.Sequence,4_72,2023-09-13T15:56:44.065Z,,0,,,5696.695999618503,completion,,,,,false,,,,663983.6999998093,663983.3999996185,658269.958,658268.5,658286.704,663997.855,8,400,,,
trial,html.Screen,4_73_0,2023-09-13T15:56:48.547Z,,0,2,,4467.645000000019,response,ISIC_0069918.JPG,5,ISIC_0027276.JPG,ISIC_0027276.JPG,false,0,keypress(z),500,668465.5999999046,668465.5,663981.253,663983.7999997139,663997.855,668473.338,8,400,24,,ISIC_0069918.JPG
break,html.Screen,4_73_1,2023-09-13T15:56:48.548Z,,0,,,NaN,,,,,,false,,,,668466,668465.8999996185,,668465.6999998093,,668473.338,8,400,,,
break_continue,html.Screen,4_73_2,2023-09-13T15:56:48.548Z,,0,,,NaN,,,,,,false,,,,668466.1999998093,668466.0999999046,,668466.0999999046,,668473.338,8,400,,,
sequence,flow.Sequence,4_73,2023-09-13T15:56:48.548Z,,0,,,4468.244999904651,completion,,,,,false,,,,668466.2999997139,668466.0999999046,663981.253,663983.7999997139,663997.855,668473.338,8,400,,,
trial,html.Screen,4_74_0,2023-09-13T15:56:55.006Z,,0,2,,6450.561999618541,response,ISIC_9943579.JPG,5,ISIC_6529073.JPG,ISIC_6529073.JPG,false,0,keypress(z),500,674924,674923.8999996185,668456.474,668466.2999997139,668473.338,674935.732,8,400,25,,ISIC_9943579.JPG
break,html.Screen,4_74_1,2023-09-13T15:56:55.006Z,,0,,,NaN,,,,,,false,,,,674924.5,674924.2999997139,,674924.0999999046,,674935.732,8,400,,,
break_continue,html.Screen,4_74_2,2023-09-13T15:56:55.006Z,,0,,,NaN,,,,,,false,,,,674924.5999999046,674924.5999999046,,674924.5999999046,,674935.732,8,400,,,
sequence,flow.Sequence,4_74,2023-09-13T15:56:55.006Z,,0,,,6451.261999904644,completion,,,,,false,,,,674924.7999997139,674924.5999999046,668456.474,668466.2999997139,668473.338,674935.732,8,400,,,
trial,html.Screen,4_75_0,2023-09-13T15:57:00.959Z,,0,2,,5941.867999904673,response,ISIC_0011288.JPG,4,ISIC_0010655.JPG,ISIC_0010655.JPG,false,0,keypress(z),500,680877.5999999046,680877.5999999046,674919.21,674924.7999997139,674935.732,680880.643,8,400,26,,ISIC_0011288.JPG
break,html.Screen,4_75_1,2023-09-13T15:57:00.960Z,,0,,,NaN,,,,,,false,,,,680878.0999999046,680878,,680877.7999997139,,680880.643,8,400,,,
break_continue,html.Screen,4_75_2,2023-09-13T15:57:00.960Z,,0,,,NaN,,,,,,false,,,,680878.1999998093,680878.1999998093,,680878.0999999046,,680880.643,8,400,,,
sequence,flow.Sequence,4_75,2023-09-13T15:57:00.960Z,,0,,,5942.467999809305,completion,,,,,false,,,,680878.3999996185,680878.1999998093,674919.21,674924.7999997139,674935.732,680880.643,8,400,,,
trial,html.Screen,4_76_0,2023-09-13T15:57:05.544Z,,0,2,,4582.056999809225,response,ISIC_0027620.JPG,5,ISIC_0060355.JPG,ISIC_0027620.JPG,false,1,keypress(m),500,685462.7999997139,685462.6999998093,680863.925,680878.3999996185,680880.643,685472.919,8,400,27,,ISIC_0060355.JPG
break,html.Screen,4_76_1,2023-09-13T15:57:05.545Z,,0,,,NaN,,,,,,false,,,,685463.2999997139,685463.0999999046,,685462.8999996185,,685472.919,8,400,,,
break_continue,html.Screen,4_76_2,2023-09-13T15:57:05.545Z,,0,,,NaN,,,,,,false,,,,685463.3999996185,685463.3999996185,,685463.2999997139,,685472.919,8,400,,,
sequence,flow.Sequence,4_76,2023-09-13T15:57:05.545Z,,0,,,4582.75699961849,completion,,,,,false,,,,685463.5,685463.3999996185,680863.925,680878.3999996185,680880.643,685472.919,8,400,,,
trial,html.Screen,4_77_0,2023-09-13T15:57:11.229Z,,0,2,,5674.081000000006,response,ISIC_4654443.JPG,5,ISIC_0527350.JPG,ISIC_0527350.JPG,false,0,keypress(z),500,691147.1999998093,691147,685456.392,685463.5999999046,685472.919,691150.588,8,400,28,,ISIC_4654443.JPG
break,html.Screen,4_77_1,2023-09-13T15:57:11.229Z,,0,,,NaN,,,,,,false,,,,691147.7999997139,691147.5,,691147.1999998093,,691150.588,8,400,,,
break_continue,html.Screen,4_77_2,2023-09-13T15:57:11.230Z,,0,,,NaN,,,,,,false,,,,691148.0999999046,691148.0999999046,,691147.7999997139,,691150.588,8,400,,,
sequence,flow.Sequence,4_77,2023-09-13T15:57:11.230Z,,0,,,5675.180999904638,completion,,,,,false,,,,691148.1999998093,691148.0999999046,685456.392,685463.5999999046,685472.919,691150.588,8,400,,,
trial,html.Screen,4_78_0,2023-09-13T15:57:18.497Z,,0,2,,7263.311999618541,response,ISIC_2203247.JPG,6,ISIC_3513367.JPG,ISIC_2203247.JPG,false,1,keypress(m),500,698414,698413.8999996185,691133.939,691148.1999998093,691150.588,698414.765,8,400,29,,ISIC_3513367.JPG
break,html.Screen,4_78_1,2023-09-13T15:57:18.498Z,,0,,,NaN,,,,,,false,,,,698414.5,698414.3999996185,,698414.0999999046,,698414.765,8,400,,,
break_continue,html.Screen,4_78_2,2023-09-13T15:57:18.498Z,,0,,,NaN,,,,,,false,,,,698414.8999996185,698414.7999997139,,698414.5,,698414.765,8,400,,,
sequence,flow.Sequence,4_78,2023-09-13T15:57:18.498Z,,0,,,7264.211999713909,completion,,,,,false,,,,698415.0999999046,698414.7999997139,691133.939,691148.1999998093,691150.588,698414.765,8,400,,,
trial,html.Screen,4_79_0,2023-09-13T15:57:22.659Z,,0,2,,4161.434999809251,response,ISIC_6552552.JPG,5,ISIC_8708106.JPG,ISIC_6552552.JPG,false,1,keypress(m),500,702576.2999997139,702576.1999998093,698398.142,698415.1999998093,698414.765,702589.519,8,400,30,,ISIC_8708106.JPG
break,html.Screen,4_79_1,2023-09-13T15:57:22.660Z,,0,,,NaN,,,,,,false,,,,702576.7999997139,702576.6999998093,,702576.3999996185,,702589.519,8,400,,,
break_continue,html.Screen,4_79_2,2023-09-13T15:57:22.660Z,,0,,,NaN,,,,,,false,,,,702576.8999996185,702576.8999996185,,702576.7999997139,,702589.519,8,400,,,
sequence,flow.Sequence,4_79,2023-09-13T15:57:22.660Z,,0,,,4162.134999618516,completion,,,,,false,,,,702577,702576.8999996185,698398.142,698415.1999998093,698414.765,702589.519,8,400,,,
trial,html.Screen,4_80_0,2023-09-13T15:57:27.912Z,,0,2,,5239.481000000029,response,ISIC_7844825.JPG,5,ISIC_8504492.JPG,ISIC_7844825.JPG,false,1,keypress(m),500,707829.0999999046,707829,702572.863,702577,702589.519,707849.8,8,400,31,,ISIC_8504492.JPG
break,html.Screen,4_80_1,2023-09-13T15:57:27.913Z,,0,,,NaN,,,,,,false,,,,707829.5999999046,707829.3999996185,,707829.1999998093,,707849.8,8,400,,,
break_continue,html.Screen,4_80_2,2023-09-13T15:57:27.913Z,,0,,,NaN,,,,,,false,,,,707829.8999996185,707829.7999997139,,707829.5999999046,,707849.8,8,400,,,
sequence,flow.Sequence,4_80,2023-09-13T15:57:27.913Z,,0,,,5240.280999713927,completion,,,,,false,,,,707830.0999999046,707829.7999997139,702572.863,702577,702589.519,707849.8,8,400,,,
trial,html.Screen,4_81_0,2023-09-13T15:57:32.080Z,,0,2,,4146.999999713851,response,ISIC_0064107.JPG,5,ISIC_7249063.JPG,ISIC_7249063.JPG,false,0,keypress(z),500,711997.0999999046,711996.7999997139,707833.094,707830.1999998093,707849.8,712007.978,8,400,32,,ISIC_0064107.JPG
break,html.Screen,4_81_1,2023-09-13T15:57:32.082Z,,0,,,NaN,,,,,,false,,,,711998.7999997139,711998.3999996185,,711997.6999998093,,712007.978,8,400,,,
break_continue,html.Screen,4_81_2,2023-09-13T15:57:32.083Z,,0,,,NaN,,,,,,false,,,,711999.5,711999.2999997139,,711999,,712007.978,8,400,,,
sequence,flow.Sequence,4_81,2023-09-13T15:57:32.083Z,,0,,,4149.499999713851,completion,,,,,false,,,,711999.8999996185,711999.2999997139,707833.094,707830.0999999046,707849.8,712007.978,8,400,,,
trial,html.Screen,4_82_0,2023-09-13T15:57:36.316Z,,0,2,,4224.721999809262,response,ISIC_0057696.JPG,6,ISIC_0057815.JPG,ISIC_0057696.JPG,false,1,keypress(m),500,716232.7999997139,716232.6999998093,711991.146,712000.0999999046,712007.978,716249.541,8,400,33,,ISIC_0057815.JPG
break,html.Screen,4_82_1,2023-09-13T15:57:36.317Z,,0,,,NaN,,,,,,false,,,,716233.6999998093,716233.5,,716233,,716249.541,8,400,,,
break_continue,html.Screen,4_82_2,2023-09-13T15:57:36.317Z,,0,,,NaN,,,,,,false,,,,716234.0999999046,716233.8999996185,,716233.7999997139,,716249.541,8,400,,,
sequence,flow.Sequence,4_82,2023-09-13T15:57:36.317Z,,0,,,4225.9219996185275,completion,,,,,false,,,,716234.1999998093,716233.8999996185,711991.146,712000,712007.978,716249.541,8,400,,,
trial,html.Screen,4_83_0,2023-09-13T15:57:41.679Z,,0,2,,5346.358999618562,response,ISIC_5123817.JPG,5,ISIC_0014110.JPG,ISIC_5123817.JPG,false,1,keypress(m),500,721596.0999999046,721595.8999996185,716232.838,716234.2999997139,716249.541,721609.947,8,400,34,,ISIC_0014110.JPG
break,html.Screen,4_83_1,2023-09-13T15:57:41.680Z,,0,,,NaN,,,,,,false,,,,721596.5,721596.3999996185,,721596.1999998093,,721609.947,8,400,,,
break_continue,html.Screen,4_83_2,2023-09-13T15:57:41.680Z,,0,,,NaN,,,,,,false,,,,721596.5999999046,721596.5999999046,,721596.5999999046,,721609.947,8,400,,,
sequence,flow.Sequence,4_83,2023-09-13T15:57:41.680Z,,0,,,5347.058999904664,completion,,,,,false,,,,721596.6999998093,721596.5999999046,716232.838,716234.2999997139,716249.541,721609.947,8,400,,,
trial,html.Screen,4_84_0,2023-09-13T15:57:46.519Z,,0,2,,4826.152999904589,response,ISIC_9134453.JPG,5,ISIC_6019374.JPG,ISIC_9134453.JPG,false,1,keypress(m),500,726436.1999998093,726436.0999999046,721593.178,721596.7999997139,721609.947,726452.679,8,400,35,,ISIC_6019374.JPG
break,html.Screen,4_84_1,2023-09-13T15:57:46.520Z,,0,,,NaN,,,,,,false,,,,726437.1999998093,726436.8999996185,,726436.3999996185,,726452.679,8,400,,,
break_continue,html.Screen,4_84_2,2023-09-13T15:57:46.521Z,,0,,,NaN,,,,,,false,,,,726437.6999998093,726437.5,,726437.2999997139,,726452.679,8,400,,,
sequence,flow.Sequence,4_84,2023-09-13T15:57:46.521Z,,0,,,4827.552999999956,completion,,,,,false,,,,726437.8999996185,726437.5,721593.178,721596.7999997139,721609.947,726452.679,8,400,,,
trial,html.Screen,4_85_0,2023-09-13T15:57:52.349Z,,0,2,,5812.720999618527,response,ISIC_2778131.JPG,5,ISIC_5923430.JPG,ISIC_2778131.JPG,false,1,keypress(m),500,732265.5,732265.3999996185,726436.132,726438,726452.679,732280.778,8,400,36,,ISIC_5923430.JPG
break,html.Screen,4_85_1,2023-09-13T15:57:52.349Z,,0,,,NaN,,,,,,false,,,,732265.8999996185,732265.7999997139,,732265.5999999046,,732280.778,8,400,,,
break_continue,html.Screen,4_85_2,2023-09-13T15:57:52.349Z,,0,,,NaN,,,,,,false,,,,732266.0999999046,732266.0999999046,,732265.8999996185,,732280.778,8,400,,,
sequence,flow.Sequence,4_85,2023-09-13T15:57:52.349Z,,0,,,5813.420999904629,completion,,,,,false,,,,732266.1999998093,732266.0999999046,726436.132,726437.8999996185,726452.679,732280.778,8,400,,,
trial,html.Screen,4_86_0,2023-09-13T15:57:58.494Z,,0,2,,6130.421999809216,response,ISIC_5087951.JPG,5,ISIC_0046635.JPG,ISIC_5087951.JPG,false,1,keypress(m),500,738411.3999996185,738411.1999998093,732263.931,732266.2999997139,732280.778,738426.055,8,400,37,,ISIC_0046635.JPG
break,html.Screen,4_86_1,2023-09-13T15:57:58.495Z,,0,,,NaN,,,,,,false,,,,738412.0999999046,738411.7999997139,,738411.5999999046,,738426.055,8,400,,,
break_continue,html.Screen,4_86_2,2023-09-13T15:57:58.495Z,,0,,,NaN,,,,,,false,,,,738412.3999996185,738412.1999998093,,738412.0999999046,,738426.055,8,400,,,
sequence,flow.Sequence,4_86,2023-09-13T15:57:58.496Z,,0,,,6131.421999809216,completion,,,,,false,,,,738412.5,738412.1999998093,732263.931,732266.2999997139,732280.778,738426.055,8,400,,,
trial,html.Screen,4_87_0,2023-09-13T15:58:05.575Z,,0,2,,7066.044999904581,response,ISIC_0057821.JPG,4,ISIC_0009713.JPG,ISIC_0009713.JPG,false,0,keypress(z),500,745492.1999998093,745492.0999999046,738409.429,738412.5999999046,738426.055,745506.429,8,400,38,,ISIC_0057821.JPG
break,html.Screen,4_87_1,2023-09-13T15:58:05.576Z,,0,,,NaN,,,,,,false,,,,745492.8999996185,745492.6999998093,,745492.2999997139,,745506.429,8,400,,,
break_continue,html.Screen,4_87_2,2023-09-13T15:58:05.576Z,,0,,,NaN,,,,,,false,,,,745493.1999998093,745493.0999999046,,745493,,745506.429,8,400,,,
sequence,flow.Sequence,4_87,2023-09-13T15:58:05.576Z,,0,,,7067.044999904581,completion,,,,,false,,,,745493.2999997139,745493.0999999046,738409.429,738412.5999999046,738426.055,745506.429,8,400,,,
trial,html.Screen,4_88_0,2023-09-13T15:58:12.354Z,,0,2,,6764.070999999996,response,ISIC_0000475.JPG,4,ISIC_2386961.JPG,ISIC_2386961.JPG,false,0,keypress(z),500,752270.6999998093,752270.5,745489.7,745493.2999997139,745506.429,752286.426,8,400,39,,ISIC_0000475.JPG
break,html.Screen,4_88_1,2023-09-13T15:58:12.354Z,,0,,,NaN,,,,,,false,,,,752271.0999999046,752271,,752270.7999997139,,752286.426,8,400,,,
break_continue,html.Screen,4_88_2,2023-09-13T15:58:12.354Z,,0,,,NaN,,,,,,false,,,,752271.2999997139,752271.2999997139,,752271.1999998093,,752286.426,8,400,,,
sequence,flow.Sequence,4_88,2023-09-13T15:58:12.355Z,,0,,,6764.870999713894,completion,,,,,false,,,,752271.3999996185,752271.2999997139,745489.7,745493.2999997139,745506.429,752286.426,8,400,,,
trial,html.Screen,4_89_0,2023-09-13T15:58:17.766Z,,0,2,,5395.37399971392,response,ISIC_0778327.JPG,7,ISIC_8024841.JPG,ISIC_8024841.JPG,false,0,keypress(z),500,757681.8999996185,757681.7999997139,752269.6,752271.5,752286.426,757696.844,8,400,40,,ISIC_0778327.JPG
break,html.Screen,4_89_1,2023-09-13T15:58:17.767Z,,0,,,NaN,,,,,,false,,,,757682.3999996185,757682.2999997139,,757682,,757696.844,8,400,,,
break_continue,html.Screen,4_89_2,2023-09-13T15:58:17.767Z,,0,,,NaN,,,,,,false,,,,757682.5999999046,757682.5999999046,,757682.5,,757696.844,8,400,,,
sequence,flow.Sequence,4_89,2023-09-13T15:58:17.767Z,,0,,,5396.173999904655,completion,,,,,false,,,,757682.7999997139,757682.5999999046,752269.6,752271.5,752286.426,757696.844,8,400,,,
trial,html.Screen,4_90_0,2023-09-13T15:58:24.345Z,,0,2,,6562.855999809224,response,ISIC_0011922.JPG,5,ISIC_0010532.JPG,ISIC_0010532.JPG,false,0,keypress(z),500,764259.8999996185,764259.6999998093,757680.146,757682.7999997139,757696.844,764276.297,8,400,41,,ISIC_0011922.JPG
break,html.Screen,4_90_1,2023-09-13T15:58:24.345Z,,0,,,NaN,,,,,,false,,,,764260.6999998093,764260.3999996185,,764260.0999999046,,764276.297,8,400,,,
break_continue,html.Screen,4_90_2,2023-09-13T15:58:24.346Z,,0,,,NaN,,,,,,false,,,,764261.0999999046,764261,,764260.7999997139,,764276.297,8,400,,,
sequence,flow.Sequence,4_90,2023-09-13T15:58:24.346Z,,0,,,6564.155999999959,completion,,,,,false,,,,764261.1999998093,764261,757680.146,757682.7999997139,757696.844,764276.297,8,400,,,
trial,html.Screen,4_91_0,2023-09-13T15:58:30.588Z,,0,2,,6226.7029999999795,response,ISIC_0000441.JPG,5,ISIC_0027063.JPG,ISIC_0027063.JPG,false,0,keypress(z),500,770503.0999999046,770503,764259.574,764261.1999998093,764276.297,770505.041,8,400,42,,ISIC_0000441.JPG
break,html.Screen,4_91_1,2023-09-13T15:58:30.588Z,,0,,,NaN,,,,,,false,,,,770503.5999999046,770503.5,,770503.1999998093,,770505.041,8,400,,,
break_continue,html.Screen,4_91_2,2023-09-13T15:58:30.588Z,,0,,,NaN,,,,,,false,,,,770503.6999998093,770503.6999998093,,770503.6999998093,,770505.041,8,400,,,
sequence,flow.Sequence,4_91,2023-09-13T15:58:30.588Z,,0,,,6227.402999809245,completion,,,,,false,,,,770503.7999997139,770503.6999998093,764259.574,764261.1999998093,764276.297,770505.041,8,400,,,
trial,html.Screen,4_92_0,2023-09-13T15:58:36.611Z,,0,2,,6021.258999713929,response,ISIC_0016123.JPG,5,ISIC_2371495.JPG,ISIC_2371495.JPG,false,0,keypress(z),500,776526.2999997139,776526.2999997139,770488.368,770503.8999996185,770505.041,776533.44,8,400,43,,ISIC_0016123.JPG
break,html.Screen,4_92_1,2023-09-13T15:58:36.611Z,,0,,,NaN,,,,,,false,,,,776526.8999996185,776526.6999998093,,776526.5,,776533.44,8,400,,,
break_continue,html.Screen,4_92_2,2023-09-13T15:58:36.612Z,,0,,,NaN,,,,,,false,,,,776527.1999998093,776527.0999999046,,776527,,776533.44,8,400,,,
sequence,flow.Sequence,4_92,2023-09-13T15:58:36.612Z,,0,,,6022.058999904664,completion,,,,,false,,,,776527.1999998093,776527.0999999046,770488.368,770503.8999996185,770505.041,776533.44,8,400,,,
trial,html.Screen,4_93_0,2023-09-13T15:58:42.279Z,,0,2,,5660.959999618586,response,ISIC_0058138.JPG,6,ISIC_0032160.JPG,ISIC_0032160.JPG,false,0,keypress(z),500,782194.5999999046,782194.3999996185,776516.748,776527.2999997139,776533.44,782211.156,8,400,44,,ISIC_0058138.JPG
break,html.Screen,4_93_1,2023-09-13T15:58:42.280Z,,0,,,NaN,,,,,,false,,,,782195.1999998093,782195.0999999046,,782194.7999997139,,782211.156,8,400,,,
break_continue,html.Screen,4_93_2,2023-09-13T15:58:42.280Z,,0,,,NaN,,,,,,false,,,,782195.5,782195.3999996185,,782195.1999998093,,782211.156,8,400,,,
sequence,flow.Sequence,4_93,2023-09-13T15:58:42.280Z,,0,,,5661.959999618586,completion,,,,,false,,,,782195.6999998093,782195.3999996185,776516.748,776527.2999997139,776533.44,782211.156,8,400,,,
trial,html.Screen,4_94_0,2023-09-13T15:58:47.531Z,,0,2,,5235.043999809306,response,ISIC_8626787.JPG,5,ISIC_0010664.JPG,ISIC_8626787.JPG,false,1,keypress(m),500,787446.2999997139,787446.1999998093,782194.445,782195.7999997139,782211.156,787454.679,8,400,45,,ISIC_0010664.JPG
break,html.Screen,4_94_1,2023-09-13T15:58:47.531Z,,0,,,NaN,,,,,,false,,,,787446.7999997139,787446.6999998093,,787446.5,,787454.679,8,400,,,
break_continue,html.Screen,4_94_2,2023-09-13T15:58:47.532Z,,0,,,NaN,,,,,,false,,,,787447,787447,,787446.8999996185,,787454.679,8,400,,,
sequence,flow.Sequence,4_94,2023-09-13T15:58:47.532Z,,0,,,5235.844000000041,completion,,,,,false,,,,787447.0999999046,787447,782194.445,782195.7999997139,782211.156,787454.679,8,400,,,
trial,html.Screen,4_95_0,2023-09-13T15:58:53.133Z,,0,2,,5593.220999618527,response,ISIC_0027742.JPG,4,ISIC_9741917.JPG,ISIC_9741917.JPG,false,0,keypress(z),500,793048,793047.8999996185,787438.011,787447.1999998093,787454.679,793048.908,8,400,46,,ISIC_0027742.JPG
break,html.Screen,4_95_1,2023-09-13T15:58:53.133Z,,0,,,NaN,,,,,,false,,,,793048.6999998093,793048.3999996185,,793048.0999999046,,793048.908,8,400,,,
break_continue,html.Screen,4_95_2,2023-09-13T15:58:53.134Z,,0,,,NaN,,,,,,false,,,,793049.1999998093,793049,,793048.6999998093,,793048.908,8,400,,,
sequence,flow.Sequence,4_95,2023-09-13T15:58:53.134Z,,0,,,5594.320999999996,completion,,,,,false,,,,793049.3999996185,793049,787438.011,787447.0999999046,787454.679,793048.908,8,400,,,
trial,html.Screen,4_96_0,2023-09-13T15:58:58.632Z,,0,2,,5498.791999809211,response,ISIC_4640293.JPG,4,ISIC_0015443.JPG,ISIC_0015443.JPG,false,0,keypress(z),500,798547.7999997139,798547.6999998093,793032.256,793049.5999999046,793048.908,798576.357,8,400,47,,ISIC_4640293.JPG
break,html.Screen,4_96_1,2023-09-13T15:58:58.633Z,,0,,,NaN,,,,,,false,,,,798548.1999998093,798548.0999999046,,798547.7999997139,,798576.357,8,400,,,
break_continue,html.Screen,4_96_2,2023-09-13T15:58:58.633Z,,0,,,NaN,,,,,,false,,,,798548.3999996185,798548.3999996185,,798548.2999997139,,798576.357,8,400,,,
sequence,flow.Sequence,4_96,2023-09-13T15:58:58.633Z,,0,,,5499.491999618476,completion,,,,,false,,,,798548.5999999046,798548.3999996185,793032.256,793049.5,793048.908,798576.357,8,400,,,
trial,html.Screen,4_97_0,2023-09-13T15:59:04.736Z,,0,2,,6075.242999904673,response,ISIC_0028070.JPG,5,ISIC_0033232.JPG,ISIC_0028070.JPG,false,1,keypress(m),500,804651.7999997139,804651.5999999046,798559.642,798548.6999998093,798576.357,804654.806,8,400,48,,ISIC_0033232.JPG
break,html.Screen,4_97_1,2023-09-13T15:59:04.737Z,,0,,,NaN,,,,,,false,,,,804652.2999997139,804652.1999998093,,804651.8999996185,,804654.806,8,400,,,
break_continue,html.Screen,4_97_2,2023-09-13T15:59:04.737Z,,0,,,NaN,,,,,,false,,,,804652.5,804652.5,,804652.3999996185,,804654.806,8,400,,,
sequence,flow.Sequence,4_97,2023-09-13T15:59:04.737Z,,0,,,6076.14300000004,completion,,,,,false,,,,804652.5999999046,804652.5,798559.642,798548.5999999046,798576.357,804654.806,8,400,,,
trial,html.Screen,4_98_0,2023-09-13T15:59:10.039Z,,0,2,,5299.29399990465,response,ISIC_0033664.JPG,4,ISIC_1403974.JPG,ISIC_1403974.JPG,false,0,keypress(z),500,809954.1999998093,809954.0999999046,804638.164,804652.6999998093,804654.806,809965.195,8,400,49,,ISIC_0033664.JPG
break,html.Screen,4_98_1,2023-09-13T15:59:10.039Z,,0,,,NaN,,,,,,false,,,,809954.6999998093,809954.5999999046,,809954.2999997139,,809965.195,8,400,,,
break_continue,html.Screen,4_98_2,2023-09-13T15:59:10.040Z,,0,,,NaN,,,,,,false,,,,809954.8999996185,809954.8999996185,,809954.7999997139,,809965.195,8,400,,,
sequence,flow.Sequence,4_98,2023-09-13T15:59:10.040Z,,0,,,5300.093999618548,completion,,,,,false,,,,809955,809954.8999996185,804638.164,804652.6999998093,804654.806,809965.195,8,400,,,
trial,html.Screen,4_99_0,2023-09-13T15:59:15.010Z,,0,2,,4958.504999809316,response,ISIC_2587955.JPG,5,ISIC_0008055.JPG,ISIC_0008055.JPG,false,0,keypress(z),500,814923.7999997139,814923.6999998093,809948.513,809955.1999998093,809965.195,814924.791,8,400,50,,ISIC_2587955.JPG
break,html.Screen,4_99_1,2023-09-13T15:59:24.998Z,,0,,,10002.967999999993,timeout,,,,,false,,,,824911.5999999046,824911.053,814908.136,814923.8999996185,814924.791,824927.759,8,400,,,
break_continue,html.Screen,4_99_2,2023-09-13T16:00:22.360Z,,0,,,57323.540999713936,response,,,,,false,continue,keypress(Space),,882272.7999997139,882251.2999997139,824911.053,824911.7999997139,824927.759,882289.259,8,400,,,
sequence,flow.Sequence,4_99,2023-09-13T16:00:22.360Z,,0,,,72286.10499971395,completion,,,,,false,,,,882273,882251.2999997139,809948.513,809955.1999998093,809965.195,882289.259,8,400,,,
trial,html.Screen,4_100_0,2023-09-13T16:00:27.194Z,,0,3,,4817.1409996185685,response,ISIC_2293230.JPG,5,ISIC_0061334.JPG,ISIC_2293230.JPG,false,1,keypress(m),500,887106.5999999046,887106.3999996185,882272.737,882273,882289.259,887115.331,8,400,1,,ISIC_0061334.JPG
break,html.Screen,4_100_1,2023-09-13T16:00:27.195Z,,0,,,NaN,,,,,,false,,,,887107.2999997139,887107.0999999046,,887106.7999997139,,887115.331,8,400,,,
break_continue,html.Screen,4_100_2,2023-09-13T16:00:27.195Z,,0,,,NaN,,,,,,false,,,,887107.5999999046,887107.5999999046,,887107.3999996185,,887115.331,8,400,,,
sequence,flow.Sequence,4_100,2023-09-13T16:00:27.195Z,,0,,,4818.340999904671,completion,,,,,false,,,,887107.7999997139,887107.5999999046,882272.737,882273,882289.259,887115.331,8,400,,,
trial,html.Screen,4_101_0,2023-09-13T16:00:34.573Z,,0,3,,7369.668999999994,response,ISIC_1315123.JPG,5,ISIC_0032610.JPG,ISIC_0032610.JPG,false,0,keypress(z),500,894485.0999999046,894485,887098.771,887107.8999996185,887115.331,894513.147,8,400,2,,ISIC_1315123.JPG
break,html.Screen,4_101_1,2023-09-13T16:00:34.573Z,,0,,,NaN,,,,,,false,,,,894485.5,894485.3999996185,,894485.1999998093,,894513.147,8,400,,,
break_continue,html.Screen,4_101_2,2023-09-13T16:00:34.573Z,,0,,,NaN,,,,,,false,,,,894485.6999998093,894485.6999998093,,894485.5,,894513.147,8,400,,,
sequence,flow.Sequence,4_101,2023-09-13T16:00:34.573Z,,0,,,7370.36899980926,completion,,,,,false,,,,894485.6999998093,894485.6999998093,887098.771,887107.7999997139,887115.331,894513.147,8,400,,,
trial,html.Screen,4_102_0,2023-09-13T16:00:40.944Z,,0,3,,6343.252999618533,response,ISIC_1957685.JPG,5,ISIC_7066723.JPG,ISIC_1957685.JPG,false,1,keypress(m),500,900856.5999999046,900856.3999996185,894496.435,894485.7999997139,894513.147,900858.705,8,400,3,,ISIC_7066723.JPG
break,html.Screen,4_102_1,2023-09-13T16:00:40.944Z,,0,,,NaN,,,,,,false,,,,900856.8999996185,900856.8999996185,,900856.6999998093,,900858.705,8,400,,,
break_continue,html.Screen,4_102_2,2023-09-13T16:00:40.945Z,,0,,,NaN,,,,,,false,,,,900857.0999999046,900857.0999999046,,900857,,900858.705,8,400,,,
sequence,flow.Sequence,4_102,2023-09-13T16:00:40.945Z,,0,,,6343.952999904635,completion,,,,,false,,,,900857.1999998093,900857.0999999046,894496.435,894485.7999997139,894513.147,900858.705,8,400,,,
trial,html.Screen,4_103_0,2023-09-13T16:00:46.150Z,,0,3,,5203.59499971394,response,ISIC_0058224.JPG,5,ISIC_0071916.JPG,ISIC_0071916.JPG,false,0,keypress(z),500,906062.3999996185,906062.2999997139,900842.08,900857.2999997139,900858.705,906069.079,8,400,4,,ISIC_0058224.JPG
break,html.Screen,4_103_1,2023-09-13T16:00:46.151Z,,0,,,NaN,,,,,,false,,,,906063,906062.7999997139,,906062.5999999046,,906069.079,8,400,,,
break_continue,html.Screen,4_103_2,2023-09-13T16:00:46.151Z,,0,,,NaN,,,,,,false,,,,906063.3999996185,906063.2999997139,,906063.1999998093,,906069.079,8,400,,,
sequence,flow.Sequence,4_103,2023-09-13T16:00:46.151Z,,0,,,5204.59499971394,completion,,,,,false,,,,906063.5,906063.2999997139,900842.08,900857.2999997139,900858.705,906069.079,8,400,,,
trial,html.Screen,4_104_0,2023-09-13T16:00:52.140Z,,0,3,,5983.320999618503,response,ISIC_1805163.JPG,5,ISIC_1805602.JPG,ISIC_1805163.JPG,false,1,keypress(m),500,912052.5,912052.3999996185,906052.272,906063.5,906069.079,912063.959,8,400,5,,ISIC_1805602.JPG
break,html.Screen,4_104_1,2023-09-13T16:00:52.140Z,,0,,,NaN,,,,,,false,,,,912053,912052.8999996185,,912052.5999999046,,912063.959,8,400,,,
break_continue,html.Screen,4_104_2,2023-09-13T16:00:52.141Z,,0,,,NaN,,,,,,false,,,,912053.0999999046,912053.0999999046,,912053,,912063.959,8,400,,,
sequence,flow.Sequence,4_104,2023-09-13T16:00:52.141Z,,0,,,5984.020999904606,completion,,,,,false,,,,912053.1999998093,912053.0999999046,906052.272,906063.5,906069.079,912063.959,8,400,,,
trial,html.Screen,4_105_0,2023-09-13T16:01:00.789Z,,0,3,,8637.740999809233,response,ISIC_1894133.JPG,5,ISIC_7900295.JPG,ISIC_7900295.JPG,false,0,keypress(z),500,920701.7999997139,920701.6999998093,912047.144,912053.1999998093,912063.959,920714.096,8,400,6,,ISIC_1894133.JPG
break,html.Screen,4_105_1,2023-09-13T16:01:00.790Z,,0,,,NaN,,,,,,false,,,,920702.3999996185,920702.1999998093,,920702,,920714.096,8,400,,,
break_continue,html.Screen,4_105_2,2023-09-13T16:01:00.790Z,,0,,,NaN,,,,,,false,,,,920702.6999998093,920702.6999998093,,920702.5999999046,,920714.096,8,400,,,
sequence,flow.Sequence,4_105,2023-09-13T16:01:00.790Z,,0,,,8638.740999809233,completion,,,,,false,,,,920702.8999996185,920702.6999998093,912047.144,912053.1999998093,912063.959,920714.096,8,400,,,
trial,html.Screen,4_106_0,2023-09-13T16:01:06.665Z,,0,3,,5863.003999904613,response,ISIC_0066382.JPG,5,ISIC_0068525.JPG,ISIC_0068525.JPG,false,0,keypress(z),500,926577.2999997139,926577.0999999046,920697.464,920702.8999996185,920714.096,926592.16,8,400,7,,ISIC_0066382.JPG
break,html.Screen,4_106_1,2023-09-13T16:01:06.666Z,,0,,,NaN,,,,,,false,,,,926578.0999999046,926577.7999997139,,926577.5,,926592.16,8,400,,,
break_continue,html.Screen,4_106_2,2023-09-13T16:01:06.666Z,,0,,,NaN,,,,,,false,,,,926578.5,926578.3999996185,,926578.2999997139,,926592.16,8,400,,,
sequence,flow.Sequence,4_106,2023-09-13T16:01:06.666Z,,0,,,5864.303999618511,completion,,,,,false,,,,926578.5999999046,926578.3999996185,920697.464,920702.8999996185,920714.096,926592.16,8,400,,,
trial,html.Screen,4_107_0,2023-09-13T16:01:11.965Z,,0,3,,5285.139999713865,response,ISIC_2509304.JPG,4,ISIC_9527051.JPG,ISIC_2509304.JPG,false,1,keypress(m),500,931877.3999996185,931877.2999997139,926575.53,926578.7999997139,926592.16,931902.449,8,400,8,,ISIC_9527051.JPG
break,html.Screen,4_107_1,2023-09-13T16:01:11.965Z,,0,,,NaN,,,,,,false,,,,931877.8999996185,931877.7999997139,,931877.5,,931902.449,8,400,,,
break_continue,html.Screen,4_107_2,2023-09-13T16:01:11.966Z,,0,,,NaN,,,,,,false,,,,931878,931878,,931877.8999996185,,931902.449,8,400,,,
sequence,flow.Sequence,4_107,2023-09-13T16:01:11.966Z,,0,,,5285.839999999967,completion,,,,,false,,,,931878.1999998093,931878,926575.53,926578.7999997139,926592.16,931902.449,8,400,,,
trial,html.Screen,4_108_0,2023-09-13T16:01:17.615Z,,0,3,,5625.15099990461,response,ISIC_0011546.JPG,5,ISIC_3310625.JPG,ISIC_3310625.JPG,false,0,keypress(z),500,937527.8999996185,937527.5999999046,931885.788,931878.1999998093,931902.449,937530.124,8,400,9,,ISIC_0011546.JPG
break,html.Screen,4_108_1,2023-09-13T16:01:17.616Z,,0,,,NaN,,,,,,false,,,,937528.6999998093,937528.5,,937528,,937530.124,8,400,,,
break_continue,html.Screen,4_108_2,2023-09-13T16:01:17.617Z,,0,,,NaN,,,,,,false,,,,937529.1999998093,937529.1999998093,,937528.8999996185,,937530.124,8,400,,,
sequence,flow.Sequence,4_108,2023-09-13T16:01:17.617Z,,0,,,5626.750999809243,completion,,,,,false,,,,937529.5999999046,937529.1999998093,931885.788,931878.1999998093,931902.449,937530.124,8,400,,,
trial,html.Screen,4_109_0,2023-09-13T16:01:22.987Z,,0,3,,5367.3760000000475,response,ISIC_0030901.JPG,6,ISIC_0010785.JPG,ISIC_0010785.JPG,false,0,keypress(z),500,942897.5999999046,942897.5,937513.516,937529.7999997139,937530.124,942907.303,8,400,10,,ISIC_0030901.JPG
break,html.Screen,4_109_1,2023-09-13T16:01:22.987Z,,0,,,NaN,,,,,,false,,,,942898.0999999046,942897.8999996185,,942897.6999998093,,942907.303,8,400,,,
break_continue,html.Screen,4_109_2,2023-09-13T16:01:22.987Z,,0,,,NaN,,,,,,false,,,,942898.1999998093,942898.1999998093,,942898.0999999046,,942907.303,8,400,,,
sequence,flow.Sequence,4_109,2023-09-13T16:01:22.987Z,,0,,,5368.075999809313,completion,,,,,false,,,,942898.3999996185,942898.1999998093,937513.516,937529.6999998093,937530.124,942907.303,8,400,,,
trial,html.Screen,4_110_0,2023-09-13T16:01:28.397Z,,0,3,,5400.096999618574,response,ISIC_0073136.JPG,4,ISIC_2633745.JPG,ISIC_2633745.JPG,false,0,keypress(z),500,948307.3999996185,948307.3999996185,942890.557,942898.3999996185,942907.303,948317.835,8,400,11,,ISIC_0073136.JPG
break,html.Screen,4_110_1,2023-09-13T16:01:28.397Z,,0,,,NaN,,,,,,false,,,,948307.8999996185,948307.7999997139,,948307.5,,948317.835,8,400,,,
break_continue,html.Screen,4_110_2,2023-09-13T16:01:28.397Z,,0,,,NaN,,,,,,false,,,,948308,948307.8999996185,,948307.8999996185,,948317.835,8,400,,,
sequence,flow.Sequence,4_110,2023-09-13T16:01:28.397Z,,0,,,5400.596999618574,completion,,,,,false,,,,948308.0999999046,948307.8999996185,942890.557,942898.3999996185,942907.303,948317.835,8,400,,,
trial,html.Screen,4_111_0,2023-09-13T16:01:32.894Z,,0,3,,4487.0649996185675,response,ISIC_0422299.JPG,4,ISIC_0054599.JPG,ISIC_0422299.JPG,false,1,keypress(m),500,952805.0999999046,952804.8999996185,948301.111,948308.1999998093,948317.835,952826.56,8,400,12,,ISIC_0054599.JPG
break,html.Screen,4_111_1,2023-09-13T16:01:32.895Z,,0,,,NaN,,,,,,false,,,,952805.7999997139,952805.5999999046,,952805.1999998093,,952826.56,8,400,,,
break_continue,html.Screen,4_111_2,2023-09-13T16:01:32.895Z,,0,,,NaN,,,,,,false,,,,952806.1999998093,952806.0999999046,,952806,,952826.56,8,400,,,
sequence,flow.Sequence,4_111,2023-09-13T16:01:32.895Z,,0,,,4488.26499990467,completion,,,,,false,,,,952806.2999997139,952806.0999999046,948301.111,948308.1999998093,948317.835,952826.56,8,400,,,
trial,html.Screen,4_112_0,2023-09-13T16:01:37.609Z,,0,3,,4693.639999809209,response,ISIC_1434141.JPG,4,ISIC_7896667.JPG,ISIC_7896667.JPG,false,0,keypress(z),500,957520.2999997139,957520.1999998093,952809.827,952806.3999996185,952826.56,957535.794,8,400,13,,ISIC_1434141.JPG
break,html.Screen,4_112_1,2023-09-13T16:01:37.610Z,,0,,,NaN,,,,,,false,,,,957521.0999999046,957520.8999996185,,957520.5,,957535.794,8,400,,,
break_continue,html.Screen,4_112_2,2023-09-13T16:01:37.611Z,,0,,,NaN,,,,,,false,,,,957521.5,957521.2999997139,,957521.1999998093,,957535.794,8,400,,,
sequence,flow.Sequence,4_112,2023-09-13T16:01:37.611Z,,0,,,4694.739999713842,completion,,,,,false,,,,957521.6999998093,957521.2999997139,952809.827,952806.3999996185,952826.56,957535.794,8,400,,,
trial,html.Screen,4_113_0,2023-09-13T16:01:42.785Z,,0,3,,5159.706000000006,response,ISIC_0744870.JPG,5,ISIC_9112747.JPG,ISIC_0744870.JPG,false,1,keypress(m),500,962695.5999999046,962695.5,957519.161,957521.7999997139,957535.794,962712.519,8,400,14,,ISIC_9112747.JPG
break,html.Screen,4_113_1,2023-09-13T16:01:42.785Z,,0,,,NaN,,,,,,false,,,,962696.0999999046,962696,,962695.7999997139,,962712.519,8,400,,,
break_continue,html.Screen,4_113_2,2023-09-13T16:01:42.785Z,,0,,,NaN,,,,,,false,,,,962696.2999997139,962696.1999998093,,962696.0999999046,,962712.519,8,400,,,
sequence,flow.Sequence,4_113,2023-09-13T16:01:42.785Z,,0,,,5160.405999809271,completion,,,,,false,,,,962696.3999996185,962696.1999998093,957519.161,957521.6999998093,957535.794,962712.519,8,400,,,
trial,html.Screen,4_114_0,2023-09-13T16:01:48.308Z,,0,3,,5506.481000000029,response,ISIC_6668197.JPG,5,ISIC_0013610.JPG,ISIC_6668197.JPG,false,1,keypress(m),500,968219,968219,962695.723,962696.5,962712.519,968223.192,8,400,15,,ISIC_0013610.JPG
break,html.Screen,4_114_1,2023-09-13T16:01:48.309Z,,0,,,NaN,,,,,,false,,,,968219.5,968219.3999996185,,968219.0999999046,,968223.192,8,400,,,
break_continue,html.Screen,4_114_2,2023-09-13T16:01:48.309Z,,0,,,NaN,,,,,,false,,,,968219.6999998093,968219.5999999046,,968219.5,,968223.192,8,400,,,
sequence,flow.Sequence,4_114,2023-09-13T16:01:48.309Z,,0,,,5507.080999904661,completion,,,,,false,,,,968220,968219.5999999046,962695.723,962696.5,962712.519,968223.192,8,400,,,
trial,html.Screen,4_115_0,2023-09-13T16:01:55.174Z,,0,3,,6861.707999618491,response,ISIC_7599444.JPG,5,ISIC_8990907.JPG,ISIC_7599444.JPG,false,1,keypress(m),500,975085,975084.8999996185,968206.465,968220,968223.192,975086.504,8,400,16,,ISIC_8990907.JPG
break,html.Screen,4_115_1,2023-09-13T16:01:55.175Z,,0,,,NaN,,,,,,false,,,,975085.5999999046,975085.3999996185,,975085.1999998093,,975086.504,8,400,,,
break_continue,html.Screen,4_115_2,2023-09-13T16:01:55.175Z,,0,,,NaN,,,,,,false,,,,975085.7999997139,975085.6999998093,,975085.5999999046,,975086.504,8,400,,,
sequence,flow.Sequence,4_115,2023-09-13T16:01:55.175Z,,0,,,6862.507999809226,completion,,,,,false,,,,975086,975085.6999998093,968206.465,968220,968223.192,975086.504,8,400,,,
trial,html.Screen,4_116_0,2023-09-13T16:02:01.800Z,,0,3,,6624.496000000043,response,ISIC_4680417.JPG,6,ISIC_0268187.JPG,ISIC_0268187.JPG,false,0,keypress(z),500,981711.1999998093,981711,975069.829,975086,975086.504,981716.117,8,400,17,,ISIC_4680417.JPG
break,html.Screen,4_116_1,2023-09-13T16:02:01.801Z,,0,,,NaN,,,,,,false,,,,981711.5999999046,981711.5,,981711.2999997139,,981716.117,8,400,,,
break_continue,html.Screen,4_116_2,2023-09-13T16:02:01.801Z,,0,,,NaN,,,,,,false,,,,981712,981711.7999997139,,981711.6999998093,,981716.117,8,400,,,
sequence,flow.Sequence,4_116,2023-09-13T16:02:01.801Z,,0,,,6625.295999713941,completion,,,,,false,,,,981712.0999999046,981711.7999997139,975069.829,975086,975086.504,981716.117,8,400,,,
trial,html.Screen,4_117_0,2023-09-13T16:02:07.436Z,,0,3,,5630.883000000031,response,ISIC_0952221.JPG,5,ISIC_0030235.JPG,ISIC_0952221.JPG,false,1,keypress(m),500,987347,987347,981699.459,981712.1999998093,981716.117,987377.205,8,400,18,,ISIC_0030235.JPG
break,html.Screen,4_117_1,2023-09-13T16:02:07.437Z,,0,,,NaN,,,,,,false,,,,987347.3999996185,987347.3999996185,,987347.0999999046,,987377.205,8,400,,,
break_continue,html.Screen,4_117_2,2023-09-13T16:02:07.437Z,,0,,,NaN,,,,,,false,,,,987347.5999999046,987347.5999999046,,987347.5,,987377.205,8,400,,,
sequence,flow.Sequence,4_117,2023-09-13T16:02:07.437Z,,0,,,5631.482999904663,completion,,,,,false,,,,987347.6999998093,987347.5999999046,981699.459,981712.1999998093,981716.117,987377.205,8,400,,,
trial,html.Screen,4_118_0,2023-09-13T16:02:12.126Z,,0,3,,4659.694999618572,response,ISIC_0029609.JPG,5,ISIC_9161898.JPG,ISIC_9161898.JPG,false,0,keypress(z),500,992037,992036.8999996185,987360.488,987347.6999998093,987377.205,992052.873,8,400,19,,ISIC_0029609.JPG
break,html.Screen,4_118_1,2023-09-13T16:02:12.127Z,,0,,,NaN,,,,,,false,,,,992037.6999998093,992037.5999999046,,992037.1999998093,,992052.873,8,400,,,
break_continue,html.Screen,4_118_2,2023-09-13T16:02:12.127Z,,0,,,NaN,,,,,,false,,,,992038.0999999046,992038,,992037.7999997139,,992052.873,8,400,,,
sequence,flow.Sequence,4_118,2023-09-13T16:02:12.127Z,,0,,,4660.795000000042,completion,,,,,false,,,,992038.1999998093,992038,987360.488,987347.6999998093,987377.205,992052.873,8,400,,,
trial,html.Screen,4_119_0,2023-09-13T16:02:17.718Z,,0,3,,5575.926999713876,response,ISIC_0064060.JPG,5,ISIC_4958006.JPG,ISIC_0064060.JPG,false,1,keypress(m),500,997628.8999996185,997628.7999997139,992036.254,992038.1999998093,992052.873,997630.382,8,400,20,,ISIC_4958006.JPG
break,html.Screen,4_119_1,2023-09-13T16:02:17.719Z,,0,,,NaN,,,,,,false,,,,997629.5999999046,997629.5,,997629.0999999046,,997630.382,8,400,,,
break_continue,html.Screen,4_119_2,2023-09-13T16:02:17.719Z,,0,,,NaN,,,,,,false,,,,997630,997629.8999996185,,997629.7999997139,,997630.382,8,400,,,
sequence,flow.Sequence,4_119,2023-09-13T16:02:17.719Z,,0,,,5577.026999618509,completion,,,,,false,,,,997630.0999999046,997629.8999996185,992036.254,992038.1999998093,992052.873,997630.382,8,400,,,
trial,html.Screen,4_120_0,2023-09-13T16:02:24.429Z,,0,3,,6707.817999809282,response,ISIC_9510497.JPG,6,ISIC_8428097.JPG,ISIC_9510497.JPG,false,1,keypress(m),500,1004338.5,1004338.1999998093,997613.756,997630.0999999046,997630.382,1004343.498,8,400,21,,ISIC_8428097.JPG
break,html.Screen,4_120_1,2023-09-13T16:02:24.430Z,,0,,,NaN,,,,,,false,,,,1004339.5,1004339.1999998093,,1004338.6999998093,,1004343.498,8,400,,,
break_continue,html.Screen,4_120_2,2023-09-13T16:02:24.431Z,,0,,,NaN,,,,,,false,,,,1004340.1999998093,1004339.8999996185,,1004339.5999999046,,1004343.498,8,400,,,
sequence,flow.Sequence,4_120,2023-09-13T16:02:24.431Z,,0,,,6709.517999618547,completion,,,,,false,,,,1004340.5,1004339.8999996185,997613.756,997630.0999999046,997630.382,1004343.498,8,400,,,
trial,html.Screen,4_121_0,2023-09-13T16:02:30.465Z,,0,3,,6031.201999809244,response,ISIC_8423326.JPG,5,ISIC_7583134.JPG,ISIC_7583134.JPG,false,0,keypress(z),500,1010374.8999996185,1010374.6999998093,1004326.727,1004340.5999999046,1004343.498,1010388.692,8,400,22,,ISIC_8423326.JPG
break,html.Screen,4_121_1,2023-09-13T16:02:30.466Z,,0,,,NaN,,,,,,false,,,,1010375.6999998093,1010375.5,,1010375.0999999046,,1010388.692,8,400,,,
break_continue,html.Screen,4_121_2,2023-09-13T16:02:30.466Z,,0,,,NaN,,,,,,false,,,,1010376,1010376,,1010375.7999997139,,1010388.692,8,400,,,
sequence,flow.Sequence,4_121,2023-09-13T16:02:30.467Z,,0,,,6032.501999999979,completion,,,,,false,,,,1010376.1999998093,1010376,1004326.727,1004340.5999999046,1004343.498,1010388.692,8,400,,,
trial,html.Screen,4_122_0,2023-09-13T16:02:38.836Z,,0,3,,8356.707999618491,response,ISIC_0027247.JPG,5,ISIC_0031208.JPG,ISIC_0031208.JPG,false,0,keypress(z),500,1018745.3999996185,1018745.3999996185,1010371.891,1010376.2999997139,1010388.692,1018754.826,8,400,23,,ISIC_0027247.JPG
break,html.Screen,4_122_1,2023-09-13T16:02:38.836Z,,0,,,NaN,,,,,,false,,,,1018745.8999996185,1018745.7999997139,,1018745.5,,1018754.826,8,400,,,
break_continue,html.Screen,4_122_2,2023-09-13T16:02:38.836Z,,0,,,NaN,,,,,,false,,,,1018746,1018746,,1018745.8999996185,,1018754.826,8,400,,,
sequence,flow.Sequence,4_122,2023-09-13T16:02:38.837Z,,0,,,8357.30799999996,completion,,,,,false,,,,1018746.0999999046,1018746,1010371.891,1010376.1999998093,1010388.692,1018754.826,8,400,,,
trial,html.Screen,4_123_0,2023-09-13T16:02:44.555Z,,0,3,,5709.573999618529,response,ISIC_0000569.JPG,5,ISIC_4538207.JPG,ISIC_0000569.JPG,false,1,keypress(m),500,1024464.5999999046,1024464.3999996185,1018738.287,1018746.0999999046,1018754.826,1024465.923,8,400,24,,ISIC_4538207.JPG
break,html.Screen,4_123_1,2023-09-13T16:02:44.556Z,,0,,,NaN,,,,,,false,,,,1024465.0999999046,1024465,,1024464.6999998093,,1024465.923,8,400,,,
break_continue,html.Screen,4_123_2,2023-09-13T16:02:44.556Z,,0,,,NaN,,,,,,false,,,,1024465.5,1024465.3999996185,,1024465.2999997139,,1024465.923,8,400,,,
sequence,flow.Sequence,4_123,2023-09-13T16:02:44.556Z,,0,,,5710.573999618529,completion,,,,,false,,,,1024465.5999999046,1024465.3999996185,1018738.287,1018746.0999999046,1018754.826,1024465.923,8,400,,,
trial,html.Screen,4_124_0,2023-09-13T16:02:50.782Z,,0,3,,6225.376999713946,response,ISIC_0272509.JPG,4,ISIC_6352730.JPG,ISIC_6352730.JPG,false,0,keypress(z),500,1030691.3999996185,1030691.2999997139,1024449.27,1024465.6999998093,1024465.923,1030694.682,8,400,25,,ISIC_0272509.JPG
break,html.Screen,4_124_1,2023-09-13T16:02:50.782Z,,0,,,NaN,,,,,,false,,,,1030691.8999996185,1030691.6999998093,,1030691.5,,1030694.682,8,400,,,
break_continue,html.Screen,4_124_2,2023-09-13T16:02:50.783Z,,0,,,NaN,,,,,,false,,,,1030692.0999999046,1030692,,1030692,,1030694.682,8,400,,,
sequence,flow.Sequence,4_124,2023-09-13T16:02:50.783Z,,0,,,6226.077000000048,completion,,,,,false,,,,1030692.1999998093,1030692,1024449.27,1024465.5999999046,1024465.923,1030694.682,8,400,,,
trial,html.Screen,4_125_0,2023-09-13T16:02:59.044Z,,0,3,,8258.417999904603,response,ISIC_0058909.JPG,4,ISIC_0068080.JPG,ISIC_0068080.JPG,false,0,keypress(z),500,1038953.1999998093,1038953.0999999046,1030678.021,1030692.1999998093,1030694.682,1038960.885,8,400,26,,ISIC_0058909.JPG
break,html.Screen,4_125_1,2023-09-13T16:02:59.044Z,,0,,,NaN,,,,,,false,,,,1038953.5999999046,1038953.5,,1038953.2999997139,,1038960.885,8,400,,,
break_continue,html.Screen,4_125_2,2023-09-13T16:02:59.044Z,,0,,,NaN,,,,,,false,,,,1038953.7999997139,1038953.7999997139,,1038953.5999999046,,1038960.885,8,400,,,
sequence,flow.Sequence,4_125,2023-09-13T16:02:59.044Z,,0,,,8259.117999713868,completion,,,,,false,,,,1038953.8999996185,1038953.7999997139,1030678.021,1030692.1999998093,1030694.682,1038960.885,8,400,,,
trial,html.Screen,4_126_0,2023-09-13T16:03:03.463Z,,0,3,,4411.014999618521,response,ISIC_0198331.JPG,5,ISIC_7339533.JPG,ISIC_0198331.JPG,false,1,keypress(m),500,1043372.0999999046,1043371.8999996185,1038944.297,1038953.8999996185,1038960.885,1043386.118,8,400,27,,ISIC_7339533.JPG
break,html.Screen,4_126_1,2023-09-13T16:03:03.464Z,,0,,,NaN,,,,,,false,,,,1043373.5,1043373.0999999046,,1043372.5,,1043386.118,8,400,,,
