sender,sender_type,sender_id,timestamp,meta,,blockNo,condition,duration,ended_on,img_left,img_reveal,img_right,loser,practice,response,response_action,selection_duration,time_commit,time_end,time_render,time_run,time_show,time_switch,total_blocks,total_trials,trialNo,url,winner
informed_consent,html.Screen,0,2023-09-08T19:48:18.540Z,"{""labjs_version"":""20.2.4"",""labjs_build"":{""flavor"":""development"",""commit"":""f5b4a49f956347addd546a832a3327688c2c0fef""},""location"":""https://labjs.felixhenninger.com/api/labjs_preview/index.html"",""userAgent"":""Mozilla/5.0 (Windows NT 10.0; Win64; x64) AppleWebKit/537.36 (KHTML, like Gecko) Chrome/116.0.0.0 Safari/537.36"",""platform"":""Win32"",""language"":""en-AU"",""locale"":""en-US"",""timeZone"":""America/Chicago"",""timezoneOffset"":300,""screen_width"":1680,""screen_height"":1050,""scroll_width"":1296,""scroll_height"":688,""window_innerWidth"":1296,""window_innerHeight"":736,""devicePixelRatio"":1}",,,,2095.7310000476837,response,,,,,,consent,click button,,2521.4000000953674,2520.7000000476837,57.575,481.80000019073486,424.969,2479.063,,,,{},
Welcome,html.Screen,1,2023-09-08T19:49:12.419Z,,,,symmetry,53919.837000095366,response,,,,,,continue,click button,,56399.90000009537,56398.90000009537,2462.445,2521.600000143051,2479.063,56350.448,,,,,
trial,html.Screen,2_0_0,2023-09-08T19:49:20.629Z,,0,0,,8259.352000190738,response,ISIC_6997061.JPG,,ISIC_0069348.JPG,ISIC_0069348.JPG,true,0,keypress(z),500,64610.200000047684,64609.800000190735,56333.863,56400,56350.448,64566.46,1,6,1,,ISIC_6997061.JPG
sequence,flow.Sequence,2_0,2023-09-08T19:49:20.630Z,,0,,,8259.352000190738,completion,,,,,true,,,,64610.800000190735,64609.800000190735,56333.863,56400,56350.448,64566.46,1,6,,,
trial,html.Screen,2_1_0,2023-09-08T19:49:24.266Z,,0,0,,3680.8400001907357,response,ISIC_0009529.JPG,,ISIC_0057368.JPG,ISIC_0009529.JPG,true,1,keypress(m),500,68247.5,68247.30000019073,64549.754,64611,64566.46,68206.87,1,6,2,,ISIC_0057368.JPG
sequence,flow.Sequence,2_1,2023-09-08T19:49:24.267Z,,0,,,3680.8400001907357,completion,,,,,true,,,,68247.60000014305,68247.30000019073,64549.754,64611,64566.46,68206.87,1,6,,,
trial,html.Screen,2_2_0,2023-09-08T19:49:27.372Z,,0,0,,3145.9300001907395,response,ISIC_9758671.JPG,,ISIC_0064954.JPG,ISIC_0064954.JPG,true,0,keypress(z),500,71353,71352.80000019073,68190.196,68247.70000004768,68206.87,71312.993,1,6,3,,ISIC_9758671.JPG
sequence,flow.Sequence,2_2,2023-09-08T19:49:27.372Z,,0,,,3145.9300001907395,completion,,,,,true,,,,71353.20000004768,71352.80000019073,68190.196,68247.60000014305,68206.87,71312.993,1,6,,,
trial,html.Screen,2_3_0,2023-09-08T19:49:31.362Z,,0,0,,4029.607000143049,response,ISIC_0000080.JPG,,ISIC_0005785.JPG,ISIC_0000080.JPG,true,1,keypress(m),500,75342.90000009537,75342.60000014305,71296.198,71353.30000019073,71312.993,75304.06,1,6,4,,ISIC_0005785.JPG
sequence,flow.Sequence,2_3,2023-09-08T19:49:31.362Z,,0,,,4029.607000143049,completion,,,,,true,,,,75343,75342.60000014305,71296.198,71353.30000019073,71312.993,75304.06,1,6,,,
trial,html.Screen,2_4_0,2023-09-08T19:49:34.792Z,,0,0,,3468.3400000953698,response,ISIC_5390060.JPG,,ISIC_7944028.JPG,ISIC_5390060.JPG,true,1,keypress(m),500,78772.5,78772.40000009537,75287.394,75343.10000014305,75304.06,78727.318,1,6,5,,ISIC_7944028.JPG
sequence,flow.Sequence,2_4,2023-09-08T19:49:34.792Z,,0,,,3468.3400000953698,completion,,,,,true,,,,78772.70000004768,78772.40000009537,75287.394,75343.10000014305,75304.06,78727.318,1,6,,,
trial,html.Screen,2_5_0,2023-09-08T19:49:38.510Z,,0,0,,3763.582000095368,response,ISIC_0010188.JPG,,ISIC_0794216.JPG,ISIC_0010188.JPG,true,1,keypress(m),500,82491.20000004768,82490.90000009537,78710.639,78772.90000009537,78727.318,82451.295,1,6,6,,ISIC_0794216.JPG
sequence,flow.Sequence,2_5,2023-09-08T19:49:38.511Z,,0,,,3763.582000095368,completion,,,,,true,,,,82491.5,82490.90000009537,78710.639,78772.80000019073,78727.318,82451.295,1,6,,,
loop,flow.Loop,2,2023-09-08T19:49:38.511Z,,,,,26140.45200009537,completion,,,,,true,,,,82491.70000004768,82490.90000009537,56333.863,56400,56350.448,82451.295,1,6,,,
exp_instructions,html.Screen,3,2023-09-08T19:49:42.447Z,,,,,3976.0050001907366,response,,,,,,continue,keypress(Space),,86427.70000004768,86427.30000019073,82434.625,82491.80000019073,82451.295,86409.06,,,,,
trial,html.Screen,4_0_0,2023-09-08T19:49:49.954Z,,0,1,,7525.5400001430535,response,ISIC_0025523.JPG,5,ISIC_6255494.JPG,ISIC_6255494.JPG,false,0,keypress(z),500,93934.90000009537,93934.60000014305,86392.239,86427.90000009537,86409.06,93890.258,8,400,1,,ISIC_0025523.JPG
break,html.Screen,4_0_1,2023-09-08T19:49:49.955Z,,0,,,NaN,,,,,,false,,,,93935.40000009537,93935.10000014305,,93934.90000009537,,93890.258,8,400,,,
break_continue,html.Screen,4_0_2,2023-09-08T19:49:49.955Z,,0,,,NaN,,,,,,false,,,,93935.70000004768,93935.5,,93935.5,,93890.258,8,400,,,
sequence,flow.Sequence,4_0,2023-09-08T19:49:49.955Z,,0,,,7526.440000000002,completion,,,,,false,,,,93935.70000004768,93935.5,86392.239,86427.90000009537,86409.06,93890.258,8,400,,,
trial,html.Screen,4_1_0,2023-09-08T19:49:54.773Z,,0,1,,4863.241999999998,response,ISIC_0069373.JPG,6,ISIC_0072837.JPG,ISIC_0069373.JPG,false,1,keypress(m),500,98753.80000019073,98753.5,93873.652,93935.80000019073,93890.258,98716.264,8,400,2,,ISIC_0072837.JPG
break,html.Screen,4_1_1,2023-09-08T19:49:54.774Z,,0,,,NaN,,,,,,false,,,,98754.70000004768,98754.40000009537,,98754.10000014305,,98716.264,8,400,,,
break_continue,html.Screen,4_1_2,2023-09-08T19:49:54.774Z,,0,,,NaN,,,,,,false,,,,98755.10000014305,98755,,98754.80000019073,,98716.264,8,400,,,
sequence,flow.Sequence,4_1,2023-09-08T19:49:54.774Z,,0,,,4864.741999999998,completion,,,,,false,,,,98755.30000019073,98755,93873.652,93935.80000019073,93890.258,98716.264,8,400,,,
trial,html.Screen,4_2_0,2023-09-08T19:50:01.501Z,,0,1,,6765.036000190739,response,ISIC_8727731.JPG,5,ISIC_0071133.JPG,ISIC_0071133.JPG,false,0,keypress(z),500,105481.40000009537,105481.30000019073,98699.533,98755.30000019073,98716.264,105446.12,8,400,3,,ISIC_8727731.JPG
break,html.Screen,4_2_1,2023-09-08T19:50:01.501Z,,0,,,NaN,,,,,,false,,,,105481.70000004768,105481.60000014305,,105481.5,,105446.12,8,400,,,
break_continue,html.Screen,4_2_2,2023-09-08T19:50:01.501Z,,0,,,NaN,,,,,,false,,,,105481.90000009537,105481.90000009537,,105481.80000019073,,105446.12,8,400,,,
sequence,flow.Sequence,4_2,2023-09-08T19:50:01.501Z,,0,,,6765.636000095372,completion,,,,,false,,,,105482,105481.90000009537,98699.533,98755.30000019073,98716.264,105446.12,8,400,,,
trial,html.Screen,4_3_0,2023-09-08T19:50:06.464Z,,0,1,,4998.080000047688,response,ISIC_3950753.JPG,5,ISIC_0033344.JPG,ISIC_0033344.JPG,false,0,keypress(z),500,110444.30000019073,110444.20000004768,105429.606,105482.10000014305,105446.12,110405.656,8,400,4,,ISIC_3950753.JPG
break,html.Screen,4_3_1,2023-09-08T19:50:06.464Z,,0,,,NaN,,,,,,false,,,,110444.70000004768,110444.60000014305,,110444.40000009537,,110405.656,8,400,,,
break_continue,html.Screen,4_3_2,2023-09-08T19:50:06.464Z,,0,,,NaN,,,,,,false,,,,110445,110444.90000009537,,110444.80000019073,,110405.656,8,400,,,
sequence,flow.Sequence,4_3,2023-09-08T19:50:06.464Z,,0,,,4998.780000095372,completion,,,,,false,,,,110445,110444.90000009537,105429.606,105482.10000014305,105446.12,110405.656,8,400,,,
trial,html.Screen,4_4_0,2023-09-08T19:50:12.439Z,,0,1,,6013.644000190732,response,ISIC_2089231.JPG,4,ISIC_8967786.JPG,ISIC_2089231.JPG,false,1,keypress(m),500,116419.5,116419.30000019073,110388.974,110445.10000014305,110405.656,116383.956,8,400,5,,ISIC_8967786.JPG
break,html.Screen,4_4_1,2023-09-08T19:50:12.439Z,,0,,,NaN,,,,,,false,,,,116419.80000019073,116419.70000004768,,116419.60000014305,,116383.956,8,400,,,
break_continue,html.Screen,4_4_2,2023-09-08T19:50:12.439Z,,0,,,NaN,,,,,,false,,,,116420,116419.90000009537,,116419.90000009537,,116383.956,8,400,,,
sequence,flow.Sequence,4_4,2023-09-08T19:50:12.439Z,,0,,,6014.244000095365,completion,,,,,false,,,,116420.10000014305,116419.90000009537,110388.974,110445.10000014305,110405.656,116383.956,8,400,,,
trial,html.Screen,4_5_0,2023-09-08T19:50:18.570Z,,0,1,,6166.344000190729,response,ISIC_7697022.JPG,4,ISIC_1369967.JPG,ISIC_1369967.JPG,false,0,keypress(z),500,122550.40000009537,122550.30000019073,116367.296,116420.10000014305,116383.956,122512.518,8,400,6,,ISIC_7697022.JPG
break,html.Screen,4_5_1,2023-09-08T19:50:18.570Z,,0,,,NaN,,,,,,false,,,,122550.70000004768,122550.70000004768,,122550.5,,122512.518,8,400,,,
break_continue,html.Screen,4_5_2,2023-09-08T19:50:18.570Z,,0,,,NaN,,,,,,false,,,,122550.90000009537,122550.80000019073,,122550.70000004768,,122512.518,8,400,,,
sequence,flow.Sequence,4_5,2023-09-08T19:50:18.570Z,,0,,,6166.844000190729,completion,,,,,false,,,,122550.90000009537,122550.80000019073,116367.296,116420.10000014305,116383.956,122512.518,8,400,,,
trial,html.Screen,4_6_0,2023-09-08T19:50:27.308Z,,0,1,,8776.082000143055,response,ISIC_0012538.JPG,5,ISIC_0032875.JPG,ISIC_0032875.JPG,false,0,keypress(z),500,131288.70000004768,131288.60000014305,122496.027,122551,122512.518,131246.29,8,400,7,,ISIC_0012538.JPG
break,html.Screen,4_6_1,2023-09-08T19:50:27.308Z,,0,,,NaN,,,,,,false,,,,131289,131289,,131288.80000019073,,131246.29,8,400,,,
break_continue,html.Screen,4_6_2,2023-09-08T19:50:27.308Z,,0,,,NaN,,,,,,false,,,,131289.20000004768,131289.10000014305,,131289.10000014305,,131246.29,8,400,,,
sequence,flow.Sequence,4_6,2023-09-08T19:50:27.308Z,,0,,,8776.582000143055,completion,,,,,false,,,,131289.30000019073,131289.10000014305,122496.027,122550.90000009537,122512.518,131246.29,8,400,,,
trial,html.Screen,4_7_0,2023-09-08T19:50:33.791Z,,0,1,,6525.209999999992,response,ISIC_0033229.JPG,4,ISIC_0031310.JPG,ISIC_0031310.JPG,false,0,keypress(z),500,137771.70000004768,137771.5,131229.477,131289.30000019073,131246.29,137725.474,8,400,8,,ISIC_0033229.JPG
break,html.Screen,4_7_1,2023-09-08T19:50:33.791Z,,0,,,NaN,,,,,,false,,,,137772,137771.90000009537,,137771.80000019073,,137725.474,8,400,,,
break_continue,html.Screen,4_7_2,2023-09-08T19:50:33.792Z,,0,,,NaN,,,,,,false,,,,137772.30000019073,137772.30000019073,,137772.20000004768,,137725.474,8,400,,,
sequence,flow.Sequence,4_7,2023-09-08T19:50:33.792Z,,0,,,6526.010000190727,completion,,,,,false,,,,137772.5,137772.30000019073,131229.477,131289.30000019073,131246.29,137725.474,8,400,,,
trial,html.Screen,4_8_0,2023-09-08T19:50:39.169Z,,0,1,,5424.226000047696,response,ISIC_1578399.JPG,5,ISIC_4414811.JPG,ISIC_4414811.JPG,false,0,keypress(z),500,143149.90000009537,143149.70000004768,137708.839,137772.5,137725.474,143102.684,8,400,9,,ISIC_1578399.JPG
break,html.Screen,4_8_1,2023-09-08T19:50:39.169Z,,0,,,NaN,,,,,,false,,,,143150.20000004768,143150.10000014305,,143150,,143102.684,8,400,,,
break_continue,html.Screen,4_8_2,2023-09-08T19:50:39.170Z,,0,,,NaN,,,,,,false,,,,143150.30000019073,143150.30000019073,,143150.20000004768,,143102.684,8,400,,,
sequence,flow.Sequence,4_8,2023-09-08T19:50:39.170Z,,0,,,5424.826000190747,completion,,,,,false,,,,143150.40000009537,143150.30000019073,137708.839,137772.5,137725.474,143102.684,8,400,,,
trial,html.Screen,4_9_0,2023-09-08T19:50:45.639Z,,0,1,,6516.716000095359,response,ISIC_8363069.JPG,5,ISIC_0010978.JPG,ISIC_0010978.JPG,false,0,keypress(z),500,149619.60000014305,149619.40000009537,143085.935,143150.5,143102.684,149581.913,8,400,10,,ISIC_8363069.JPG
break,html.Screen,4_9_1,2023-09-08T19:50:45.640Z,,0,,,NaN,,,,,,false,,,,149620.40000009537,149620.10000014305,,149619.80000019073,,149581.913,8,400,,,
break_continue,html.Screen,4_9_2,2023-09-08T19:50:45.641Z,,0,,,NaN,,,,,,false,,,,149621.5,149621.10000014305,,149620.70000004768,,149581.913,8,400,,,
sequence,flow.Sequence,4_9,2023-09-08T19:50:45.641Z,,0,,,6518.416000143043,completion,,,,,false,,,,149622,149621.10000014305,143085.935,143150.5,143102.684,149581.913,8,400,,,
trial,html.Screen,4_10_0,2023-09-08T19:50:52.093Z,,0,1,,6491.387000190734,response,ISIC_4322954.JPG,5,ISIC_0070163.JPG,ISIC_0070163.JPG,false,0,keypress(z),500,156073.5,156073.30000019073,149565.156,149622.20000004768,149581.913,156027.788,8,400,11,,ISIC_4322954.JPG
break,html.Screen,4_10_1,2023-09-08T19:50:52.094Z,,0,,,NaN,,,,,,false,,,,156074.10000014305,156074,,156073.70000004768,,156027.788,8,400,,,
break_continue,html.Screen,4_10_2,2023-09-08T19:50:52.094Z,,0,,,NaN,,,,,,false,,,,156074.60000014305,156074.40000009537,,156074.40000009537,,156027.788,8,400,,,
sequence,flow.Sequence,4_10,2023-09-08T19:50:52.094Z,,0,,,6492.487000095367,completion,,,,,false,,,,156074.70000004768,156074.40000009537,149565.156,149622.10000014305,149581.913,156027.788,8,400,,,
trial,html.Screen,4_11_0,2023-09-08T19:50:58.304Z,,0,1,,6256.512000190734,response,ISIC_7800706.JPG,4,ISIC_0028018.JPG,ISIC_7800706.JPG,false,1,keypress(m),500,162284.60000014305,162284.30000019073,156011.079,156074.80000019073,156027.788,162239.886,8,400,12,,ISIC_0028018.JPG
break,html.Screen,4_11_1,2023-09-08T19:50:58.305Z,,0,,,NaN,,,,,,false,,,,162285.40000009537,162285.20000004768,,162284.80000019073,,162239.886,8,400,,,
break_continue,html.Screen,4_11_2,2023-09-08T19:50:58.305Z,,0,,,NaN,,,,,,false,,,,162285.80000019073,162285.60000014305,,162285.60000014305,,162239.886,8,400,,,
sequence,flow.Sequence,4_11,2023-09-08T19:50:58.305Z,,0,,,6257.812000143051,completion,,,,,false,,,,162286.10000014305,162285.60000014305,156011.079,156074.80000019073,156027.788,162239.886,8,400,,,
trial,html.Screen,4_12_0,2023-09-08T19:51:04.792Z,,0,1,,6532.414000190736,response,ISIC_4936662.JPG,5,ISIC_9160614.JPG,ISIC_4936662.JPG,false,1,keypress(m),500,168772.40000009537,168772.30000019073,162223.328,162286.30000019073,162239.886,168735.876,8,400,13,,ISIC_9160614.JPG
break,html.Screen,4_12_1,2023-09-08T19:51:04.792Z,,0,,,NaN,,,,,,false,,,,168772.80000019073,168772.70000004768,,168772.5,,168735.876,8,400,,,
break_continue,html.Screen,4_12_2,2023-09-08T19:51:04.793Z,,0,,,NaN,,,,,,false,,,,168773,168773,,168772.80000019073,,168735.876,8,400,,,
sequence,flow.Sequence,4_12,2023-09-08T19:51:04.793Z,,0,,,6533.114000000001,completion,,,,,false,,,,168773.20000004768,168773,162223.328,162286.10000014305,162239.886,168735.876,8,400,,,
trial,html.Screen,4_13_0,2023-09-08T19:51:10.427Z,,0,1,,5671.724000143062,response,ISIC_0015166.JPG,5,ISIC_0031914.JPG,ISIC_0015166.JPG,false,1,keypress(m),500,174407.70000004768,174407.60000014305,168719.329,168773.20000004768,168735.876,174363.474,8,400,14,,ISIC_0031914.JPG
break,html.Screen,4_13_1,2023-09-08T19:51:10.428Z,,0,,,NaN,,,,,,false,,,,174408,174407.90000009537,,174407.80000019073,,174363.474,8,400,,,
break_continue,html.Screen,4_13_2,2023-09-08T19:51:10.428Z,,0,,,NaN,,,,,,false,,,,174408.30000019073,174408.30000019073,,174408.20000004768,,174363.474,8,400,,,
sequence,flow.Sequence,4_13,2023-09-08T19:51:10.428Z,,0,,,5672.424000190746,completion,,,,,false,,,,174408.30000019073,174408.30000019073,168719.329,168773.20000004768,168735.876,174363.474,8,400,,,
trial,html.Screen,4_14_0,2023-09-08T19:51:16.341Z,,0,1,,5957.526000000013,response,ISIC_6184891.JPG,5,ISIC_4248013.JPG,ISIC_6184891.JPG,false,1,keypress(m),500,180321.20000004768,180321,174346.942,174408.40000009537,174363.474,180274.923,8,400,15,,ISIC_4248013.JPG
break,html.Screen,4_14_1,2023-09-08T19:51:16.341Z,,0,,,NaN,,,,,,false,,,,180322,180321.70000004768,,180321.5,,180274.923,8,400,,,
break_continue,html.Screen,4_14_2,2023-09-08T19:51:16.342Z,,0,,,NaN,,,,,,false,,,,180322.40000009537,180322.30000019073,,180322.10000014305,,180274.923,8,400,,,
sequence,flow.Sequence,4_14,2023-09-08T19:51:16.342Z,,0,,,5958.826000190747,completion,,,,,false,,,,180322.60000014305,180322.30000019073,174346.942,174408.40000009537,174363.474,180274.923,8,400,,,
trial,html.Screen,4_15_0,2023-09-08T19:51:22.864Z,,0,1,,6569.07699999999,response,ISIC_6033222.JPG,5,ISIC_0054070.JPG,ISIC_0054070.JPG,false,0,keypress(z),500,186844.20000004768,186844,180258.284,180322.70000004768,180274.923,186804.411,8,400,16,,ISIC_6033222.JPG
break,html.Screen,4_15_1,2023-09-08T19:51:22.864Z,,0,,,NaN,,,,,,false,,,,186844.5,186844.40000009537,,186844.30000019073,,186804.411,8,400,,,
break_continue,html.Screen,4_15_2,2023-09-08T19:51:22.864Z,,0,,,NaN,,,,,,false,,,,186844.70000004768,186844.60000014305,,186844.60000014305,,186804.411,8,400,,,
sequence,flow.Sequence,4_15,2023-09-08T19:51:22.864Z,,0,,,6569.677000143041,completion,,,,,false,,,,186844.70000004768,186844.60000014305,180258.284,180322.60000014305,180274.923,186804.411,8,400,,,
trial,html.Screen,4_16_0,2023-09-08T19:51:28.486Z,,0,1,,5661.489000095375,response,ISIC_3761253.JPG,5,ISIC_1885174.JPG,ISIC_3761253.JPG,false,1,keypress(m),500,192466.10000014305,192465.90000009537,186787.789,186844.80000019073,186804.411,192415.269,8,400,17,,ISIC_1885174.JPG
break,html.Screen,4_16_1,2023-09-08T19:51:28.486Z,,0,,,NaN,,,,,,false,,,,192466.5,192466.40000009537,,192466.20000004768,,192415.269,8,400,,,
break_continue,html.Screen,4_16_2,2023-09-08T19:51:28.486Z,,0,,,NaN,,,,,,false,,,,192466.80000019073,192466.70000004768,,192466.60000014305,,192415.269,8,400,,,
sequence,flow.Sequence,4_16,2023-09-08T19:51:28.486Z,,0,,,5662.289000047691,completion,,,,,false,,,,192466.90000009537,192466.70000004768,186787.789,186844.80000019073,186804.411,192415.269,8,400,,,
trial,html.Screen,4_17_0,2023-09-08T19:51:34.025Z,,0,1,,5589.9310000476835,response,ISIC_9801917.JPG,4,ISIC_3481133.JPG,ISIC_9801917.JPG,false,1,keypress(m),500,198005.60000014305,198005.20000004768,192398.767,192467,192415.269,197959.431,8,400,18,,ISIC_3481133.JPG
break,html.Screen,4_17_1,2023-09-08T19:51:34.026Z,,0,,,NaN,,,,,,false,,,,198006.80000019073,198006.5,,198006.10000014305,,197959.431,8,400,,,
break_continue,html.Screen,4_17_2,2023-09-08T19:51:34.027Z,,0,,,NaN,,,,,,false,,,,198007.60000014305,198007.5,,198007.20000004768,,197959.431,8,400,,,
sequence,flow.Sequence,4_17,2023-09-08T19:51:34.027Z,,0,,,5592.231,completion,,,,,false,,,,198007.80000019073,198007.5,192398.767,192466.90000009537,192415.269,197959.431,8,400,,,
trial,html.Screen,4_18_0,2023-09-08T19:51:42.805Z,,0,1,,8825.769000047672,response,ISIC_1922084.JPG,4,ISIC_2275181.JPG,ISIC_1922084.JPG,false,1,keypress(m),500,206785.40000009537,206785.20000004768,197942.844,198008.10000014305,197959.431,206743.164,8,400,19,,ISIC_2275181.JPG
break,html.Screen,4_18_1,2023-09-08T19:51:42.805Z,,0,,,NaN,,,,,,false,,,,206785.90000009537,206785.80000019073,,206785.60000014305,,206743.164,8,400,,,
break_continue,html.Screen,4_18_2,2023-09-08T19:51:42.806Z,,0,,,NaN,,,,,,false,,,,206786.20000004768,206786.10000014305,,206786.10000014305,,206743.164,8,400,,,
sequence,flow.Sequence,4_18,2023-09-08T19:51:42.806Z,,0,,,8826.66900014304,completion,,,,,false,,,,206786.40000009537,206786.10000014305,197942.844,198008,197959.431,206743.164,8,400,,,
trial,html.Screen,4_19_0,2023-09-08T19:51:49.801Z,,0,1,,7037.636000190745,response,ISIC_0060700.JPG,6,ISIC_0057978.JPG,ISIC_0057978.JPG,false,0,keypress(z),500,213781,213780.80000019073,206726.537,206786.5,206743.164,213740.135,8,400,20,,ISIC_0060700.JPG
break,html.Screen,4_19_1,2023-09-08T19:51:49.801Z,,0,,,NaN,,,,,,false,,,,213781.40000009537,213781.30000019073,,213781.10000014305,,213740.135,8,400,,,
break_continue,html.Screen,4_19_2,2023-09-08T19:51:49.801Z,,0,,,NaN,,,,,,false,,,,213781.5,213781.5,,213781.5,,213740.135,8,400,,,
sequence,flow.Sequence,4_19,2023-09-08T19:51:49.801Z,,0,,,7038.33600000001,completion,,,,,false,,,,213781.70000004768,213781.5,206726.537,206786.5,206743.164,213740.135,8,400,,,
trial,html.Screen,4_20_0,2023-09-08T19:51:56.123Z,,0,1,,6363.165000190726,response,ISIC_3857463.JPG,5,ISIC_0055039.JPG,ISIC_0055039.JPG,false,0,keypress(z),500,220103.5,220103.30000019073,213723.36,213781.80000019073,213740.135,220052.372,8,400,21,,ISIC_3857463.JPG
break,html.Screen,4_20_1,2023-09-08T19:51:56.124Z,,0,,,NaN,,,,,,false,,,,220103.90000009537,220103.80000019073,,220103.60000014305,,220052.372,8,400,,,
break_continue,html.Screen,4_20_2,2023-09-08T19:51:56.124Z,,0,,,NaN,,,,,,false,,,,220104.10000014305,220104,,220103.90000009537,,220052.372,8,400,,,
sequence,flow.Sequence,4_20,2023-09-08T19:51:56.124Z,,0,,,6363.864999999991,completion,,,,,false,,,,220104.5,220104,213723.36,213781.80000019073,213740.135,220052.372,8,400,,,
trial,html.Screen,4_21_0,2023-09-08T19:52:02.798Z,,0,1,,6725.728000143048,response,ISIC_0028215.JPG,5,ISIC_3730327.JPG,ISIC_0028215.JPG,false,1,keypress(m),500,226778.20000004768,226778.10000014305,220052.331,220104.5,220052.372,226732.019,8,400,22,,ISIC_3730327.JPG
break,html.Screen,4_21_1,2023-09-08T19:52:02.799Z,,0,,,NaN,,,,,,false,,,,226778.90000009537,226778.70000004768,,226778.60000014305,,226732.019,8,400,,,
break_continue,html.Screen,4_21_2,2023-09-08T19:52:02.799Z,,0,,,NaN,,,,,,false,,,,226779.30000019073,226779.20000004768,,226779.10000014305,,226732.019,8,400,,,
sequence,flow.Sequence,4_21,2023-09-08T19:52:02.799Z,,0,,,6726.828000047681,completion,,,,,false,,,,226779.40000009537,226779.20000004768,220052.331,220104.5,220052.372,226732.019,8,400,,,
trial,html.Screen,4_22_0,2023-09-08T19:52:09.105Z,,0,1,,6353.481,response,ISIC_0067160.JPG,5,ISIC_0059891.JPG,ISIC_0059891.JPG,false,0,keypress(z),500,233085.60000014305,233085.5,226715.372,226779.5,226732.019,233044.332,8,400,23,,ISIC_0067160.JPG
break,html.Screen,4_22_1,2023-09-08T19:52:09.106Z,,0,,,NaN,,,,,,false,,,,233086,233085.80000019073,,233085.70000004768,,233044.332,8,400,,,
break_continue,html.Screen,4_22_2,2023-09-08T19:52:09.106Z,,0,,,NaN,,,,,,false,,,,233086.10000014305,233086,,233086,,233044.332,8,400,,,
sequence,flow.Sequence,4_22,2023-09-08T19:52:09.106Z,,0,,,6353.981,completion,,,,,false,,,,233086.10000014305,233086,226715.372,226779.40000009537,226732.019,233044.332,8,400,,,
trial,html.Screen,4_23_0,2023-09-08T19:52:15.772Z,,0,1,,6707.46800019074,response,ISIC_9751601.JPG,4,ISIC_0073075.JPG,ISIC_0073075.JPG,false,0,keypress(z),500,239752.20000004768,239751.80000019073,233027.638,233086.20000004768,233044.332,239707.305,8,400,24,,ISIC_9751601.JPG
break,html.Screen,4_23_1,2023-09-08T19:52:15.773Z,,0,,,NaN,,,,,,false,,,,239753.40000009537,239753.10000014305,,239752.60000014305,,239707.305,8,400,,,
break_continue,html.Screen,4_23_2,2023-09-08T19:52:15.774Z,,0,,,NaN,,,,,,false,,,,239754,239753.90000009537,,239753.70000004768,,239707.305,8,400,,,
sequence,flow.Sequence,4_23,2023-09-08T19:52:15.774Z,,0,,,6709.568000095373,completion,,,,,false,,,,239754.30000019073,239753.90000009537,233027.638,233086.20000004768,233044.332,239707.305,8,400,,,
trial,html.Screen,4_24_0,2023-09-08T19:52:23.091Z,,0,1,,7363.495000190742,response,ISIC_0046645.JPG,5,ISIC_0014557.JPG,ISIC_0046645.JPG,false,1,keypress(m),500,247070.80000019073,247070.80000019073,239690.593,239754.60000014305,239707.305,247021.547,8,400,25,,ISIC_0014557.JPG
break,html.Screen,4_24_1,2023-09-08T19:52:23.091Z,,0,,,NaN,,,,,,false,,,,247071.30000019073,247071.10000014305,,247071,,247021.547,8,400,,,
break_continue,html.Screen,4_24_2,2023-09-08T19:52:23.091Z,,0,,,NaN,,,,,,false,,,,247071.40000009537,247071.40000009537,,247071.30000019073,,247021.547,8,400,,,
sequence,flow.Sequence,4_24,2023-09-08T19:52:23.091Z,,0,,,7364.095000095374,completion,,,,,false,,,,247071.5,247071.40000009537,239690.593,239754.5,239707.305,247021.547,8,400,,,
trial,html.Screen,4_25_0,2023-09-08T19:52:27.659Z,,0,1,,4617.453000000009,response,ISIC_5476463.JPG,5,ISIC_0027964.JPG,ISIC_0027964.JPG,false,0,keypress(z),500,251639.10000014305,251639,247004.816,247071.60000014305,247021.547,251597.082,8,400,26,,ISIC_5476463.JPG
break,html.Screen,4_25_1,2023-09-08T19:52:27.659Z,,0,,,NaN,,,,,,false,,,,251639.40000009537,251639.30000019073,,251639.20000004768,,251597.082,8,400,,,
break_continue,html.Screen,4_25_2,2023-09-08T19:52:27.659Z,,0,,,NaN,,,,,,false,,,,251639.5,251639.5,,251639.40000009537,,251597.082,8,400,,,
sequence,flow.Sequence,4_25,2023-09-08T19:52:27.659Z,,0,,,4617.953000000009,completion,,,,,false,,,,251639.60000014305,251639.5,247004.816,247071.60000014305,247021.547,251597.082,8,400,,,
trial,html.Screen,4_26_0,2023-09-08T19:52:33.868Z,,0,1,,6251.418000000005,response,ISIC_0060660.JPG,5,ISIC_5156491.JPG,ISIC_5156491.JPG,false,0,keypress(z),500,257848.5,257848.5,251580.473,251639.70000004768,251597.082,257809.25,8,400,27,,ISIC_0060660.JPG
break,html.Screen,4_26_1,2023-09-08T19:52:33.869Z,,0,,,NaN,,,,,,false,,,,257849.10000014305,257849,,257848.70000004768,,257809.25,8,400,,,
break_continue,html.Screen,4_26_2,2023-09-08T19:52:33.869Z,,0,,,NaN,,,,,,false,,,,257849.30000019073,257849.20000004768,,257849.10000014305,,257809.25,8,400,,,
sequence,flow.Sequence,4_26,2023-09-08T19:52:33.869Z,,0,,,6252.118000047689,completion,,,,,false,,,,257849.40000009537,257849.20000004768,251580.473,251639.70000004768,251597.082,257809.25,8,400,,,
trial,html.Screen,4_27_0,2023-09-08T19:52:40.069Z,,0,1,,6240.050000190735,response,ISIC_0029150.JPG,6,ISIC_0011728.JPG,ISIC_0011728.JPG,false,0,keypress(z),500,264049.40000009537,264049.30000019073,257792.447,257849.5,257809.25,264004.62,8,400,28,,ISIC_0029150.JPG
break,html.Screen,4_27_1,2023-09-08T19:52:40.069Z,,0,,,NaN,,,,,,false,,,,264049.80000019073,264049.7000000477,,264049.5,,264004.62,8,400,,,
break_continue,html.Screen,4_27_2,2023-09-08T19:52:40.070Z,,0,,,NaN,,,,,,false,,,,264049.90000009537,264049.90000009537,,264049.90000009537,,264004.62,8,400,,,
sequence,flow.Sequence,4_27,2023-09-08T19:52:40.070Z,,0,,,6240.650000095367,completion,,,,,false,,,,264050,264049.90000009537,257792.447,257849.5,257809.25,264004.62,8,400,,,
trial,html.Screen,4_28_0,2023-09-08T19:52:44.663Z,,0,1,,4638.580000047688,response,ISIC_0065324.JPG,5,ISIC_6558697.JPG,ISIC_0065324.JPG,false,1,keypress(m),500,268643.40000009537,268643.2000000477,263988.145,264050.10000014305,264004.62,268596.861,8,400,29,,ISIC_6558697.JPG
break,html.Screen,4_28_1,2023-09-08T19:52:44.663Z,,0,,,NaN,,,,,,false,,,,268643.60000014305,268643.60000014305,,268643.40000009537,,268596.861,8,400,,,
break_continue,html.Screen,4_28_2,2023-09-08T19:52:44.664Z,,0,,,NaN,,,,,,false,,,,268643.80000019073,268643.7000000477,,268643.7000000477,,268596.861,8,400,,,
sequence,flow.Sequence,4_28,2023-09-08T19:52:44.664Z,,0,,,4639.080000047688,completion,,,,,false,,,,268643.90000009537,268643.7000000477,263988.145,264050.10000014305,264004.62,268596.861,8,400,,,
trial,html.Screen,4_29_0,2023-09-08T19:52:52.233Z,,0,1,,7616.539000095392,response,ISIC_9058340.JPG,5,ISIC_2072219.JPG,ISIC_9058340.JPG,false,1,keypress(m),500,276213.40000009537,276213.40000009537,268580.106,268643.90000009537,268596.861,276178.251,8,400,30,,ISIC_2072219.JPG
break,html.Screen,4_29_1,2023-09-08T19:52:52.234Z,,0,,,NaN,,,,,,false,,,,276213.80000019073,276213.7000000477,,276213.60000014305,,276178.251,8,400,,,
break_continue,html.Screen,4_29_2,2023-09-08T19:52:52.234Z,,0,,,NaN,,,,,,false,,,,276213.90000009537,276213.90000009537,,276213.80000019073,,276178.251,8,400,,,
sequence,flow.Sequence,4_29,2023-09-08T19:52:52.234Z,,0,,,7617.039000095392,completion,,,,,false,,,,276214,276213.90000009537,268580.106,268643.90000009537,268596.861,276178.251,8,400,,,
trial,html.Screen,4_30_0,2023-09-08T19:52:57.791Z,,0,1,,5592.649000095378,response,ISIC_0067805.JPG,5,ISIC_3077674.JPG,ISIC_0067805.JPG,false,1,keypress(m),500,281771.10000014305,281770.90000009537,276161.727,276214.10000014305,276178.251,281722.365,8,400,31,,ISIC_3077674.JPG
break,html.Screen,4_30_1,2023-09-08T19:52:57.791Z,,0,,,NaN,,,,,,false,,,,281771.40000009537,281771.30000019073,,281771.2000000477,,281722.365,8,400,,,
break_continue,html.Screen,4_30_2,2023-09-08T19:52:57.791Z,,0,,,NaN,,,,,,false,,,,281771.60000014305,281771.5,,281771.40000009537,,281722.365,8,400,,,
sequence,flow.Sequence,4_30,2023-09-08T19:52:57.791Z,,0,,,5593.249000000011,completion,,,,,false,,,,281771.60000014305,281771.5,276161.727,276214,276178.251,281722.365,8,400,,,
trial,html.Screen,4_31_0,2023-09-08T19:53:04.577Z,,0,1,,6834.2350001430605,response,ISIC_6761269.JPG,5,ISIC_0006983.JPG,ISIC_6761269.JPG,false,1,keypress(m),500,288556.7000000477,288556.60000014305,281705.744,281771.7000000477,281722.365,288518.941,8,400,32,,ISIC_0006983.JPG
break,html.Screen,4_31_1,2023-09-08T19:53:04.577Z,,0,,,NaN,,,,,,false,,,,288557.10000014305,288557.10000014305,,288556.90000009537,,288518.941,8,400,,,
break_continue,html.Screen,4_31_2,2023-09-08T19:53:04.577Z,,0,,,NaN,,,,,,false,,,,288557.40000009537,288557.30000019073,,288557.2000000477,,288518.941,8,400,,,
sequence,flow.Sequence,4_31,2023-09-08T19:53:04.577Z,,0,,,6834.935000190744,completion,,,,,false,,,,288557.5,288557.30000019073,281705.744,281771.7000000477,281722.365,288518.941,8,400,,,
trial,html.Screen,4_32_0,2023-09-08T19:53:10.019Z,,0,1,,5480.259000047692,response,ISIC_6712342.JPG,5,ISIC_0000176.JPG,ISIC_6712342.JPG,false,1,keypress(m),500,293999.30000019073,293999.2000000477,288502.288,288557.5,288518.941,293962.874,8,400,33,,ISIC_0000176.JPG
break,html.Screen,4_32_1,2023-09-08T19:53:10.020Z,,0,,,NaN,,,,,,false,,,,293999.7000000477,293999.60000014305,,293999.40000009537,,293962.874,8,400,,,
break_continue,html.Screen,4_32_2,2023-09-08T19:53:10.020Z,,0,,,NaN,,,,,,false,,,,294000,293999.90000009537,,293999.80000019073,,293962.874,8,400,,,
sequence,flow.Sequence,4_32,2023-09-08T19:53:10.020Z,,0,,,5480.959000095376,completion,,,,,false,,,,294000,293999.90000009537,288502.288,288557.5,288518.941,293962.874,8,400,,,
trial,html.Screen,4_33_0,2023-09-08T19:53:16.391Z,,0,1,,6408.026000095357,response,ISIC_4796100.JPG,5,ISIC_0257447.JPG,ISIC_0257447.JPG,false,0,keypress(z),500,300371.10000014305,300370.90000009537,293946.122,294000.2000000477,293962.874,300325.249,8,400,34,,ISIC_4796100.JPG
break,html.Screen,4_33_1,2023-09-08T19:53:16.391Z,,0,,,NaN,,,,,,false,,,,300371.60000014305,300371.5,,300371.30000019073,,300325.249,8,400,,,
break_continue,html.Screen,4_33_2,2023-09-08T19:53:16.392Z,,0,,,NaN,,,,,,false,,,,300372,300372,,300371.80000019073,,300325.249,8,400,,,
sequence,flow.Sequence,4_33,2023-09-08T19:53:16.392Z,,0,,,6409.125999999989,completion,,,,,false,,,,300372.2000000477,300372,293946.122,294000.2000000477,293962.874,300325.249,8,400,,,
trial,html.Screen,4_34_0,2023-09-08T19:53:22.494Z,,0,1,,6149.051000190724,response,ISIC_5182148.JPG,5,ISIC_9448281.JPG,ISIC_5182148.JPG,false,1,keypress(m),500,306474.40000009537,306474.30000019073,300308.646,300372.30000019073,300325.249,306437.238,8,400,35,,ISIC_9448281.JPG
break,html.Screen,4_34_1,2023-09-08T19:53:22.495Z,,0,,,NaN,,,,,,false,,,,306474.7000000477,306474.60000014305,,306474.5,,306437.238,8,400,,,
break_continue,html.Screen,4_34_2,2023-09-08T19:53:22.495Z,,0,,,NaN,,,,,,false,,,,306474.80000019073,306474.80000019073,,306474.7000000477,,306437.238,8,400,,,
sequence,flow.Sequence,4_34,2023-09-08T19:53:22.495Z,,0,,,6149.551000190724,completion,,,,,false,,,,306474.90000009537,306474.80000019073,300308.646,300372.30000019073,300325.249,306437.238,8,400,,,
trial,html.Screen,4_35_0,2023-09-08T19:53:28.481Z,,0,1,,6023.562000190723,response,ISIC_6952773.JPG,6,ISIC_3234899.JPG,ISIC_6952773.JPG,false,1,keypress(m),500,312460.90000009537,312460.80000019073,306420.583,306475,306437.238,312415.512,8,400,36,,ISIC_3234899.JPG
break,html.Screen,4_35_1,2023-09-08T19:53:28.481Z,,0,,,NaN,,,,,,false,,,,312461.30000019073,312461.30000019073,,312461,,312415.512,8,400,,,
break_continue,html.Screen,4_35_2,2023-09-08T19:53:28.481Z,,0,,,NaN,,,,,,false,,,,312461.60000014305,312461.5,,312461.40000009537,,312415.512,8,400,,,
sequence,flow.Sequence,4_35,2023-09-08T19:53:28.482Z,,0,,,6024.261999999988,completion,,,,,false,,,,312461.7000000477,312461.5,306420.583,306475,306437.238,312415.512,8,400,,,
trial,html.Screen,4_36_0,2023-09-08T19:53:35.267Z,,0,1,,6831.788000190747,response,ISIC_2456538.JPG,4,ISIC_4684860.JPG,ISIC_2456538.JPG,false,1,keypress(m),500,319247.5,319247.30000019073,312398.758,312461.80000019073,312415.512,319212.044,8,400,37,,ISIC_4684860.JPG
break,html.Screen,4_36_1,2023-09-08T19:53:35.268Z,,0,,,NaN,,,,,,false,,,,319248,319247.80000019073,,319247.7000000477,,319212.044,8,400,,,
break_continue,html.Screen,4_36_2,2023-09-08T19:53:35.268Z,,0,,,NaN,,,,,,false,,,,319248.2000000477,319248.2000000477,,319248,,319212.044,8,400,,,
sequence,flow.Sequence,4_36,2023-09-08T19:53:35.268Z,,0,,,6832.688000047696,completion,,,,,false,,,,319248.30000019073,319248.2000000477,312398.758,312461.7000000477,312415.512,319212.044,8,400,,,
trial,html.Screen,4_37_0,2023-09-08T19:53:42.934Z,,0,1,,7701.856000095373,response,ISIC_3877643.JPG,5,ISIC_0610849.JPG,ISIC_0610849.JPG,false,0,keypress(z),500,326914.10000014305,326913.90000009537,319195.281,319248.30000019073,319212.044,326877.085,8,400,38,,ISIC_3877643.JPG
break,html.Screen,4_37_1,2023-09-08T19:53:42.934Z,,0,,,NaN,,,,,,false,,,,326914.40000009537,326914.40000009537,,326914.10000014305,,326877.085,8,400,,,
break_continue,html.Screen,4_37_2,2023-09-08T19:53:42.934Z,,0,,,NaN,,,,,,false,,,,326914.60000014305,326914.60000014305,,326914.60000014305,,326877.085,8,400,,,
sequence,flow.Sequence,4_37,2023-09-08T19:53:42.935Z,,0,,,7702.556000143057,completion,,,,,false,,,,326914.90000009537,326914.60000014305,319195.281,319248.30000019073,319212.044,326877.085,8,400,,,
trial,html.Screen,4_38_0,2023-09-08T19:53:47.854Z,,0,1,,4957.215000190714,response,ISIC_0011404.JPG,5,ISIC_0033051.JPG,ISIC_0011404.JPG,false,1,keypress(m),500,331834.40000009537,331834.30000019073,326860.319,326915,326877.085,331786.443,8,400,39,,ISIC_0033051.JPG
break,html.Screen,4_38_1,2023-09-08T19:53:47.855Z,,0,,,NaN,,,,,,false,,,,331834.7000000477,331834.60000014305,,331834.5,,331786.443,8,400,,,
break_continue,html.Screen,4_38_2,2023-09-08T19:53:47.855Z,,0,,,NaN,,,,,,false,,,,331834.80000019073,331834.7000000477,,331834.7000000477,,331786.443,8,400,,,
sequence,flow.Sequence,4_38,2023-09-08T19:53:47.855Z,,0,,,4957.615000047663,completion,,,,,false,,,,331834.80000019073,331834.7000000477,326860.319,326914.90000009537,326877.085,331786.443,8,400,,,
trial,html.Screen,4_39_0,2023-09-08T19:53:55.765Z,,0,1,,7958.8570001907065,response,ISIC_7768567.JPG,5,ISIC_0061158.JPG,ISIC_0061158.JPG,false,0,keypress(z),500,339745.40000009537,339745.30000019073,331769.751,331834.90000009537,331786.443,339701.893,8,400,40,,ISIC_7768567.JPG
break,html.Screen,4_39_1,2023-09-08T19:53:55.766Z,,0,,,NaN,,,,,,false,,,,339745.80000019073,339745.60000014305,,339745.5,,339701.893,8,400,,,
break_continue,html.Screen,4_39_2,2023-09-08T19:53:55.766Z,,0,,,NaN,,,,,,false,,,,339745.80000019073,339745.80000019073,,339745.80000019073,,339701.893,8,400,,,
sequence,flow.Sequence,4_39,2023-09-08T19:53:55.766Z,,0,,,7959.3570001907065,completion,,,,,false,,,,339745.90000009537,339745.80000019073,331769.751,331834.90000009537,331786.443,339701.893,8,400,,,
trial,html.Screen,4_40_0,2023-09-08T19:54:00.440Z,,0,1,,4718.307000047702,response,ISIC_0034172.JPG,5,ISIC_0068580.JPG,ISIC_0068580.JPG,false,0,keypress(z),500,344420.40000009537,344420.2000000477,339685.291,339746,339701.893,344377.593,8,400,41,,ISIC_0034172.JPG
break,html.Screen,4_40_1,2023-09-08T19:54:00.441Z,,0,,,NaN,,,,,,false,,,,344420.7000000477,344420.60000014305,,344420.5,,344377.593,8,400,,,
break_continue,html.Screen,4_40_2,2023-09-08T19:54:00.441Z,,0,,,NaN,,,,,,false,,,,344420.90000009537,344420.80000019073,,344420.80000019073,,344377.593,8,400,,,
sequence,flow.Sequence,4_40,2023-09-08T19:54:00.441Z,,0,,,4718.907000190753,completion,,,,,false,,,,344421,344420.80000019073,339685.291,339745.90000009537,339701.893,344377.593,8,400,,,
trial,html.Screen,4_41_0,2023-09-08T19:54:09.098Z,,0,1,,8700.307000095374,response,ISIC_6284012.JPG,5,ISIC_6731470.JPG,ISIC_6284012.JPG,false,1,keypress(m),500,353078,353077.90000009537,344360.931,344421.10000014305,344377.593,353027.781,8,400,42,,ISIC_6731470.JPG
break,html.Screen,4_41_1,2023-09-08T19:54:09.098Z,,0,,,NaN,,,,,,false,,,,353078.40000009537,353078.30000019073,,353078.2000000477,,353027.781,8,400,,,
break_continue,html.Screen,4_41_2,2023-09-08T19:54:09.099Z,,0,,,NaN,,,,,,false,,,,353078.5,353078.5,,353078.40000009537,,353027.781,8,400,,,
sequence,flow.Sequence,4_41,2023-09-08T19:54:09.099Z,,0,,,8700.907000000007,completion,,,,,false,,,,353078.60000014305,353078.5,344360.931,344421.10000014305,344377.593,353027.781,8,400,,,
trial,html.Screen,4_42_0,2023-09-08T19:54:16.339Z,,0,1,,7291.218999999983,response,ISIC_0055438.JPG,4,ISIC_0014127.JPG,ISIC_0055438.JPG,false,1,keypress(m),500,360319.10000014305,360319,353011.079,353078.60000014305,353027.781,360275.198,8,400,43,,ISIC_0014127.JPG
break,html.Screen,4_42_1,2023-09-08T19:54:16.340Z,,0,,,NaN,,,,,,false,,,,360319.60000014305,360319.5,,360319.30000019073,,360275.198,8,400,,,
break_continue,html.Screen,4_42_2,2023-09-08T19:54:16.340Z,,0,,,NaN,,,,,,false,,,,360320,360319.90000009537,,360319.80000019073,,360275.198,8,400,,,
sequence,flow.Sequence,4_42,2023-09-08T19:54:16.340Z,,0,,,7292.11900009535,completion,,,,,false,,,,360320.10000014305,360319.90000009537,353011.079,353078.60000014305,353027.781,360275.198,8,400,,,
trial,html.Screen,4_43_0,2023-09-08T19:54:21.224Z,,0,1,,4928.10200019076,response,ISIC_0010280.JPG,4,ISIC_0032121.JPG,ISIC_0010280.JPG,false,1,keypress(m),500,365203.5,365203.30000019073,360258.699,360320.2000000477,360275.198,365168.101,8,400,44,,ISIC_0032121.JPG
break,html.Screen,4_43_1,2023-09-08T19:54:21.224Z,,0,,,NaN,,,,,,false,,,,365203.90000009537,365203.80000019073,,365203.7000000477,,365168.101,8,400,,,
break_continue,html.Screen,4_43_2,2023-09-08T19:54:21.224Z,,0,,,NaN,,,,,,false,,,,365204.10000014305,365204,,365204,,365168.101,8,400,,,
sequence,flow.Sequence,4_43,2023-09-08T19:54:21.224Z,,0,,,4928.802000000025,completion,,,,,false,,,,365204.2000000477,365204,360258.699,360320.2000000477,360275.198,365168.101,8,400,,,
trial,html.Screen,4_44_0,2023-09-08T19:54:28.745Z,,0,1,,7556.999000143027,response,ISIC_2100640.JPG,5,ISIC_0001137.JPG,ISIC_0001137.JPG,false,0,keypress(z),500,372725.2000000477,372725.10000014305,365151.395,365204.2000000477,365168.101,372682.722,8,400,45,,ISIC_2100640.JPG
break,html.Screen,4_44_1,2023-09-08T19:54:28.746Z,,0,,,NaN,,,,,,false,,,,372725.60000014305,372725.5,,372725.30000019073,,372682.722,8,400,,,
break_continue,html.Screen,4_44_2,2023-09-08T19:54:28.746Z,,0,,,NaN,,,,,,false,,,,372725.7000000477,372725.60000014305,,372725.60000014305,,372682.722,8,400,,,
sequence,flow.Sequence,4_44,2023-09-08T19:54:28.746Z,,0,,,7557.499000143027,completion,,,,,false,,,,372725.80000019073,372725.60000014305,365151.395,365204.2000000477,365168.101,372682.722,8,400,,,
trial,html.Screen,4_45_0,2023-09-08T19:54:33.661Z,,0,1,,4958.178000095359,response,ISIC_5100319.JPG,5,ISIC_0058164.JPG,ISIC_0058164.JPG,false,0,keypress(z),500,377641,377640.90000009537,372666.092,372725.90000009537,372682.722,377592.251,8,400,46,,ISIC_5100319.JPG
break,html.Screen,4_45_1,2023-09-08T19:54:33.661Z,,0,,,NaN,,,,,,false,,,,377641.30000019073,377641.2000000477,,377641.10000014305,,377592.251,8,400,,,
break_continue,html.Screen,4_45_2,2023-09-08T19:54:33.662Z,,0,,,NaN,,,,,,false,,,,377641.5,377641.40000009537,,377641.40000009537,,377592.251,8,400,,,
sequence,flow.Sequence,4_45,2023-09-08T19:54:33.662Z,,0,,,4958.678000095359,completion,,,,,false,,,,377641.5,377641.40000009537,372666.092,372725.80000019073,372682.722,377592.251,8,400,,,
trial,html.Screen,4_46_0,2023-09-08T19:54:41.457Z,,0,1,,7844.249000000011,response,ISIC_0024961.JPG,5,ISIC_0028874.JPG,ISIC_0024961.JPG,false,1,keypress(m),500,385436.60000014305,385436.5,377575.723,377641.60000014305,377592.251,385390.801,8,400,47,,ISIC_0028874.JPG
break,html.Screen,4_46_1,2023-09-08T19:54:41.457Z,,0,,,NaN,,,,,,false,,,,385437,385436.90000009537,,385436.80000019073,,385390.801,8,400,,,
break_continue,html.Screen,4_46_2,2023-09-08T19:54:41.457Z,,0,,,NaN,,,,,,false,,,,385437.2000000477,385437.2000000477,,385437.10000014305,,385390.801,8,400,,,
sequence,flow.Sequence,4_46,2023-09-08T19:54:41.457Z,,0,,,7844.949000047694,completion,,,,,false,,,,385437.40000009537,385437.2000000477,377575.723,377641.60000014305,377592.251,385390.801,8,400,,,
trial,html.Screen,4_47_0,2023-09-08T19:54:47.284Z,,0,1,,5872.59900009539,response,ISIC_2884038.JPG,4,ISIC_2858419.JPG,ISIC_2884038.JPG,false,1,keypress(m),500,391263.60000014305,391263.40000009537,385374.275,385437.5,385390.801,391218.794,8,400,48,,ISIC_2858419.JPG
break,html.Screen,4_47_1,2023-09-08T19:54:47.284Z,,0,,,NaN,,,,,,false,,,,391264.10000014305,391264,,391263.80000019073,,391218.794,8,400,,,
break_continue,html.Screen,4_47_2,2023-09-08T19:54:47.285Z,,0,,,NaN,,,,,,false,,,,391264.30000019073,391264.30000019073,,391264.10000014305,,391218.794,8,400,,,
sequence,flow.Sequence,4_47,2023-09-08T19:54:47.285Z,,0,,,5873.499000190757,completion,,,,,false,,,,391264.5,391264.30000019073,385374.275,385437.5,385390.801,391218.794,8,400,,,
trial,html.Screen,4_48_0,2023-09-08T19:54:53.478Z,,0,1,,6238.906000047689,response,ISIC_6982386.JPG,5,ISIC_0010156.JPG,ISIC_6982386.JPG,false,1,keypress(m),500,397457.80000019073,397457.7000000477,391202.254,391264.5,391218.794,397414.246,8,400,49,,ISIC_0010156.JPG
break,html.Screen,4_48_1,2023-09-08T19:54:53.478Z,,0,,,NaN,,,,,,false,,,,397458,397458,,397457.80000019073,,397414.246,8,400,,,
break_continue,html.Screen,4_48_2,2023-09-08T19:54:53.478Z,,0,,,NaN,,,,,,false,,,,397458.2000000477,397458.2000000477,,397458.10000014305,,397414.246,8,400,,,
sequence,flow.Sequence,4_48,2023-09-08T19:54:53.479Z,,0,,,6239.406000047689,completion,,,,,false,,,,397458.2000000477,397458.2000000477,391202.254,391264.5,391218.794,397414.246,8,400,,,
trial,html.Screen,4_49_0,2023-09-08T19:54:59.272Z,,0,1,,5837.3540001430665,response,ISIC_1389141.JPG,5,ISIC_4532303.JPG,ISIC_4532303.JPG,false,0,keypress(z),500,403251.90000009537,403251.60000014305,397397.585,397458.30000019073,397414.246,403208.795,8,400,50,,ISIC_1389141.JPG
break,html.Screen,4_49_1,2023-09-08T19:55:09.268Z,,0,,,10002.88300000003,timeout,,,,,false,,,,413247.2000000477,413194.984,403192.124,403252.2000000477,403208.795,413211.678,8,400,,,
break_continue,html.Screen,4_49_2,2023-09-08T19:55:09.842Z,,0,,,606.0220000476693,response,,,,,false,continue,keypress(Space),,413821.7000000477,413817.7000000477,413194.984,413247.40000009537,413211.678,413779.356,8,400,,,
sequence,flow.Sequence,4_49,2023-09-08T19:55:09.842Z,,0,,,16403.4540000477,completion,,,,,false,,,,413821.80000019073,413817.7000000477,397397.585,397458.30000019073,397414.246,413779.356,8,400,,,
trial,html.Screen,4_50_0,2023-09-08T19:55:15.507Z,,0,2,,5707.643999999971,response,ISIC_8530010.JPG,5,ISIC_6609379.JPG,ISIC_8530010.JPG,false,1,keypress(m),500,419487.2000000477,419487,413762.713,413821.80000019073,413779.356,419440.357,8,400,1,,ISIC_6609379.JPG
break,html.Screen,4_50_1,2023-09-08T19:55:15.508Z,,0,,,NaN,,,,,,false,,,,419487.5,419487.40000009537,,419487.30000019073,,419440.357,8,400,,,
break_continue,html.Screen,4_50_2,2023-09-08T19:55:15.508Z,,0,,,NaN,,,,,,false,,,,419487.7000000477,419487.60000014305,,419487.60000014305,,419440.357,8,400,,,
sequence,flow.Sequence,4_50,2023-09-08T19:55:15.508Z,,0,,,5708.244000143022,completion,,,,,false,,,,419487.7000000477,419487.60000014305,413762.713,413821.80000019073,413779.356,419440.357,8,400,,,
trial,html.Screen,4_51_0,2023-09-08T19:55:19.241Z,,0,2,,3779.8430000476656,response,ISIC_6297317.JPG,5,ISIC_0069558.JPG,ISIC_0069558.JPG,false,0,keypress(z),500,423220.30000019073,423220.2000000477,419423.692,419487.80000019073,419440.357,423181.071,8,400,2,,ISIC_6297317.JPG
break,html.Screen,4_51_1,2023-09-08T19:55:19.241Z,,0,,,NaN,,,,,,false,,,,423220.60000014305,423220.5,,423220.30000019073,,423181.071,8,400,,,
break_continue,html.Screen,4_51_2,2023-09-08T19:55:19.241Z,,0,,,NaN,,,,,,false,,,,423220.7000000477,423220.7000000477,,423220.60000014305,,423181.071,8,400,,,
sequence,flow.Sequence,4_51,2023-09-08T19:55:19.241Z,,0,,,3780.3430000476656,completion,,,,,false,,,,423220.80000019073,423220.7000000477,419423.692,419487.80000019073,419440.357,423181.071,8,400,,,
trial,html.Screen,4_52_0,2023-09-08T19:55:23.946Z,,0,2,,4744.629000047687,response,ISIC_7899041.JPG,6,ISIC_0010631.JPG,ISIC_7899041.JPG,false,1,keypress(m),500,427926.10000014305,427925.7000000477,423164.444,423220.80000019073,423181.071,427890.297,8,400,3,,ISIC_0010631.JPG
break,html.Screen,4_52_1,2023-09-08T19:55:23.948Z,,0,,,NaN,,,,,,false,,,,427927.60000014305,427927.2000000477,,427926.60000014305,,427890.297,8,400,,,
break_continue,html.Screen,4_52_2,2023-09-08T19:55:23.949Z,,0,,,NaN,,,,,,false,,,,427928.40000009537,427928.2000000477,,427928,,427890.297,8,400,,,
sequence,flow.Sequence,4_52,2023-09-08T19:55:23.949Z,,0,,,4747.129000047687,completion,,,,,false,,,,427928.80000019073,427928.2000000477,423164.444,423220.80000019073,423181.071,427890.297,8,400,,,
trial,html.Screen,4_53_0,2023-09-08T19:55:29.222Z,,0,2,,5310.803000143031,response,ISIC_0067808.JPG,5,ISIC_9112747.JPG,ISIC_0067808.JPG,false,1,keypress(m),500,433201.2000000477,433201.10000014305,427873.533,427929.10000014305,427890.297,433167.182,8,400,4,,ISIC_9112747.JPG
break,html.Screen,4_53_1,2023-09-08T19:55:29.222Z,,0,,,NaN,,,,,,false,,,,433201.5,433201.5,,433201.40000009537,,433167.182,8,400,,,
break_continue,html.Screen,4_53_2,2023-09-08T19:55:29.222Z,,0,,,NaN,,,,,,false,,,,433201.7000000477,433201.60000014305,,433201.60000014305,,433167.182,8,400,,,
sequence,flow.Sequence,4_53,2023-09-08T19:55:29.222Z,,0,,,5311.303000143031,completion,,,,,false,,,,433201.80000019073,433201.60000014305,427873.533,427929.10000014305,427890.297,433167.182,8,400,,,
trial,html.Screen,4_54_0,2023-09-08T19:55:33.131Z,,0,2,,3943.218000095396,response,ISIC_3493866.JPG,5,ISIC_5501183.JPG,ISIC_3493866.JPG,false,1,keypress(m),500,437110.60000014305,437110.40000009537,433150.387,433201.80000019073,433167.182,437074.821,8,400,5,,ISIC_5501183.JPG
break,html.Screen,4_54_1,2023-09-08T19:55:33.131Z,,0,,,NaN,,,,,,false,,,,437111.2000000477,437110.90000009537,,437110.7000000477,,437074.821,8,400,,,
break_continue,html.Screen,4_54_2,2023-09-08T19:55:33.132Z,,0,,,NaN,,,,,,false,,,,437111.5,437111.40000009537,,437111.30000019073,,437074.821,8,400,,,
sequence,flow.Sequence,4_54,2023-09-08T19:55:33.132Z,,0,,,3944.218000095396,completion,,,,,false,,,,437111.7000000477,437111.40000009537,433150.387,433201.80000019073,433167.182,437074.821,8,400,,,
trial,html.Screen,4_55_0,2023-09-08T19:55:38.286Z,,0,2,,5190.679000000004,response,ISIC_2742786.JPG,6,ISIC_0014092.JPG,ISIC_2742786.JPG,false,1,keypress(m),500,442265.7000000477,442265.5,437058.085,437111.80000019073,437074.821,442218.034,8,400,6,,ISIC_0014092.JPG
break,html.Screen,4_55_1,2023-09-08T19:55:38.286Z,,0,,,NaN,,,,,,false,,,,442266.10000014305,442266,,442265.80000019073,,442218.034,8,400,,,
break_continue,html.Screen,4_55_2,2023-09-08T19:55:38.287Z,,0,,,NaN,,,,,,false,,,,442266.5,442266.40000009537,,442266.30000019073,,442218.034,8,400,,,
sequence,flow.Sequence,4_55,2023-09-08T19:55:38.287Z,,0,,,5191.579000095371,completion,,,,,false,,,,442266.7000000477,442266.40000009537,437058.085,437111.7000000477,437074.821,442218.034,8,400,,,
trial,html.Screen,4_56_0,2023-09-08T19:55:45.265Z,,0,2,,7026.26600019075,response,ISIC_0025941.JPG,4,ISIC_9458746.JPG,ISIC_9458746.JPG,false,0,keypress(z),500,449244.40000009537,449244.30000019073,442201.525,442266.80000019073,442218.034,449198.264,8,400,7,,ISIC_0025941.JPG
break,html.Screen,4_56_1,2023-09-08T19:55:45.265Z,,0,,,NaN,,,,,,false,,,,449244.7000000477,449244.7000000477,,449244.60000014305,,449198.264,8,400,,,
break_continue,html.Screen,4_56_2,2023-09-08T19:55:45.265Z,,0,,,NaN,,,,,,false,,,,449244.90000009537,449244.90000009537,,449244.80000019073,,449198.264,8,400,,,
sequence,flow.Sequence,4_56,2023-09-08T19:55:45.265Z,,0,,,7026.866000095382,completion,,,,,false,,,,449245,449244.90000009537,442201.525,442266.80000019073,442218.034,449198.264,8,400,,,
trial,html.Screen,4_57_0,2023-09-08T19:55:49.876Z,,0,2,,4656.936000047659,response,ISIC_6093728.JPG,6,ISIC_0011459.JPG,ISIC_0011459.JPG,false,0,keypress(z),500,453855.2000000477,453855.2000000477,449181.76,449245.10000014305,449198.264,453807.203,8,400,8,,ISIC_6093728.JPG
break,html.Screen,4_57_1,2023-09-08T19:55:49.876Z,,0,,,NaN,,,,,,false,,,,453855.60000014305,453855.5,,453855.40000009537,,453807.203,8,400,,,
break_continue,html.Screen,4_57_2,2023-09-08T19:55:49.876Z,,0,,,NaN,,,,,,false,,,,453855.7000000477,453855.60000014305,,453855.60000014305,,453807.203,8,400,,,
sequence,flow.Sequence,4_57,2023-09-08T19:55:49.876Z,,0,,,4657.3360001430265,completion,,,,,false,,,,453855.7000000477,453855.60000014305,449181.76,449245.10000014305,449198.264,453807.203,8,400,,,
trial,html.Screen,4_58_0,2023-09-08T19:55:54.725Z,,0,2,,4897.397000143072,response,ISIC_0026559.JPG,6,ISIC_9470020.JPG,ISIC_0026559.JPG,false,1,keypress(m),500,458704.7000000477,458704.60000014305,453790.654,453855.80000019073,453807.203,458666.725,8,400,9,,ISIC_9470020.JPG
break,html.Screen,4_58_1,2023-09-08T19:55:54.725Z,,0,,,NaN,,,,,,false,,,,458705,458705,,458704.90000009537,,458666.725,8,400,,,
break_continue,html.Screen,4_58_2,2023-09-08T19:55:54.726Z,,0,,,NaN,,,,,,false,,,,458705.2000000477,458705.2000000477,,458705.10000014305,,458666.725,8,400,,,
sequence,flow.Sequence,4_58,2023-09-08T19:55:54.726Z,,0,,,4897.997000047704,completion,,,,,false,,,,458705.30000019073,458705.2000000477,453790.654,453855.80000019073,453807.203,458666.725,8,400,,,
trial,html.Screen,4_59_0,2023-09-08T19:56:02.073Z,,0,2,,7385.975000047707,response,ISIC_9685928.JPG,6,ISIC_0054906.JPG,ISIC_0054906.JPG,false,0,keypress(z),500,466053.10000014305,466052.7000000477,458650.02,458705.40000009537,458666.725,466014.386,8,400,10,,ISIC_9685928.JPG
break,html.Screen,4_59_1,2023-09-08T19:56:02.074Z,,0,,,NaN,,,,,,false,,,,466054.10000014305,466053.7000000477,,466053.40000009537,,466014.386,8,400,,,
break_continue,html.Screen,4_59_2,2023-09-08T19:56:02.075Z,,0,,,NaN,,,,,,false,,,,466054.80000019073,466054.60000014305,,466054.30000019073,,466014.386,8,400,,,
sequence,flow.Sequence,4_59,2023-09-08T19:56:02.076Z,,0,,,7387.875000143074,completion,,,,,false,,,,466055.10000014305,466054.60000014305,458650.02,458705.30000019073,458666.725,466014.386,8,400,,,
trial,html.Screen,4_60_0,2023-09-08T19:56:06.448Z,,0,2,,4413.314000047685,response,ISIC_0015938.JPG,5,ISIC_8167374.JPG,ISIC_8167374.JPG,false,0,keypress(z),500,470427.80000019073,470427.7000000477,465997.643,466056.80000019073,466014.386,470389.522,8,400,11,,ISIC_0015938.JPG
break,html.Screen,4_60_1,2023-09-08T19:56:06.449Z,,0,,,NaN,,,,,,false,,,,470428.10000014305,470428,,470427.90000009537,,470389.522,8,400,,,
break_continue,html.Screen,4_60_2,2023-09-08T19:56:06.449Z,,0,,,NaN,,,,,,false,,,,470428.30000019073,470428.30000019073,,470428.2000000477,,470389.522,8,400,,,
sequence,flow.Sequence,4_60,2023-09-08T19:56:06.449Z,,0,,,4413.914000190736,completion,,,,,false,,,,470428.40000009537,470428.30000019073,465997.643,466056.7000000477,466014.386,470389.522,8,400,,,
trial,html.Screen,4_61_0,2023-09-08T19:56:11.250Z,,0,2,,4839.778000190738,response,ISIC_0031784.JPG,6,ISIC_6780662.JPG,ISIC_0031784.JPG,false,1,keypress(m),500,475229.7000000477,475229.30000019073,470372.822,470428.5,470389.522,475182.229,8,400,12,,ISIC_6780662.JPG
break,html.Screen,4_61_1,2023-09-08T19:56:11.252Z,,0,,,NaN,,,,,,false,,,,475231.30000019073,475230.60000014305,,475230.10000014305,,475182.229,8,400,,,
break_continue,html.Screen,4_61_2,2023-09-08T19:56:11.253Z,,0,,,NaN,,,,,,false,,,,475232.30000019073,475231.90000009537,,475231.60000014305,,475182.229,8,400,,,
sequence,flow.Sequence,4_61,2023-09-08T19:56:11.253Z,,0,,,4842.37800009537,completion,,,,,false,,,,475232.7000000477,475231.90000009537,470372.822,470428.5,470389.522,475182.229,8,400,,,
trial,html.Screen,4_62_0,2023-09-08T19:56:17.503Z,,0,2,,6300.571000190743,response,ISIC_0056440.JPG,5,ISIC_5789052.JPG,ISIC_0056440.JPG,false,1,keypress(m),500,481482.90000009537,481482.80000019073,475165.662,475232.80000019073,475182.229,481444.437,8,400,13,,ISIC_5789052.JPG
break,html.Screen,4_62_1,2023-09-08T19:56:17.504Z,,0,,,NaN,,,,,,false,,,,481483.2000000477,481483.2000000477,,481483,,481444.437,8,400,,,
break_continue,html.Screen,4_62_2,2023-09-08T19:56:17.504Z,,0,,,NaN,,,,,,false,,,,481483.30000019073,481483.30000019073,,481483.30000019073,,481444.437,8,400,,,
sequence,flow.Sequence,4_62,2023-09-08T19:56:17.504Z,,0,,,6301.071000190743,completion,,,,,false,,,,481483.40000009537,481483.30000019073,475165.662,475232.80000019073,475182.229,481444.437,8,400,,,
trial,html.Screen,4_63_0,2023-09-08T19:56:22.881Z,,0,2,,5416.363000190759,response,ISIC_0008251.JPG,5,ISIC_9779803.JPG,ISIC_0008251.JPG,false,1,keypress(m),500,486861,486860.80000019073,481427.671,481483.40000009537,481444.437,486821.714,8,400,14,,ISIC_9779803.JPG
break,html.Screen,4_63_1,2023-09-08T19:56:22.882Z,,0,,,NaN,,,,,,false,,,,486861.60000014305,486861.5,,486861.2000000477,,486821.714,8,400,,,
break_continue,html.Screen,4_63_2,2023-09-08T19:56:22.883Z,,0,,,NaN,,,,,,false,,,,486862.10000014305,486862,,486862,,486821.714,8,400,,,
sequence,flow.Sequence,4_63,2023-09-08T19:56:22.883Z,,0,,,5417.563000000024,completion,,,,,false,,,,486862.40000009537,486862,481427.671,481483.40000009537,481444.437,486821.714,8,400,,,
trial,html.Screen,4_64_0,2023-09-08T19:56:28.840Z,,0,2,,5997.886000143073,response,ISIC_3291765.JPG,5,ISIC_4533833.JPG,ISIC_3291765.JPG,false,1,keypress(m),500,492819.7000000477,492819.60000014305,486804.835,486862.5,486821.714,492783.144,8,400,15,,ISIC_4533833.JPG
break,html.Screen,4_64_1,2023-09-08T19:56:28.840Z,,0,,,NaN,,,,,,false,,,,492820.10000014305,492820,,492819.80000019073,,492783.144,8,400,,,
break_continue,html.Screen,4_64_2,2023-09-08T19:56:28.841Z,,0,,,NaN,,,,,,false,,,,492820.2000000477,492820.10000014305,,492820.10000014305,,492783.144,8,400,,,
sequence,flow.Sequence,4_64,2023-09-08T19:56:28.841Z,,0,,,5998.386000143073,completion,,,,,false,,,,492820.30000019073,492820.10000014305,486804.835,486862.40000009537,486821.714,492783.144,8,400,,,
trial,html.Screen,4_65_0,2023-09-08T19:56:34.144Z,,0,2,,5340.856000000029,response,ISIC_8685259.JPG,4,ISIC_6334958.JPG,ISIC_8685259.JPG,false,1,keypress(m),500,498124.10000014305,498124,492766.544,492820.30000019073,492783.144,498076.823,8,400,16,,ISIC_6334958.JPG
break,html.Screen,4_65_1,2023-09-08T19:56:34.145Z,,0,,,NaN,,,,,,false,,,,498124.40000009537,498124.30000019073,,498124.2000000477,,498076.823,8,400,,,
break_continue,html.Screen,4_65_2,2023-09-08T19:56:34.145Z,,0,,,NaN,,,,,,false,,,,498124.5,498124.5,,498124.5,,498076.823,8,400,,,
sequence,flow.Sequence,4_65,2023-09-08T19:56:34.145Z,,0,,,5341.356000000029,completion,,,,,false,,,,498124.7000000477,498124.5,492766.544,492820.30000019073,492783.144,498076.823,8,400,,,
trial,html.Screen,4_66_0,2023-09-08T19:56:43.715Z,,0,2,,9617.577000095393,response,ISIC_9655520.JPG,5,ISIC_0026115.JPG,ISIC_0026115.JPG,false,0,keypress(z),500,507694.5,507694.40000009537,498060.106,498124.7000000477,498076.823,507645.326,8,400,17,,ISIC_9655520.JPG
break,html.Screen,4_66_1,2023-09-08T19:56:43.715Z,,0,,,NaN,,,,,,false,,,,507695,507694.80000019073,,507694.7000000477,,507645.326,8,400,,,
break_continue,html.Screen,4_66_2,2023-09-08T19:56:43.716Z,,0,,,NaN,,,,,,false,,,,507695.2000000477,507695.2000000477,,507695,,507645.326,8,400,,,
sequence,flow.Sequence,4_66,2023-09-08T19:56:43.716Z,,0,,,9618.377000047709,completion,,,,,false,,,,507695.30000019073,507695.2000000477,498060.106,498124.7000000477,498076.823,507645.326,8,400,,,
trial,html.Screen,4_67_0,2023-09-08T19:56:48.326Z,,0,2,,4660.374000047683,response,ISIC_0014826.JPG,5,ISIC_0031705.JPG,ISIC_0014826.JPG,false,1,keypress(m),500,512305.90000009537,512305.7000000477,507628.773,507695.40000009537,507645.326,512270.997,8,400,18,,ISIC_0031705.JPG
break,html.Screen,4_67_1,2023-09-08T19:56:48.327Z,,0,,,NaN,,,,,,false,,,,512306.60000014305,512306.2000000477,,512306.10000014305,,512270.997,8,400,,,
break_continue,html.Screen,4_67_2,2023-09-08T19:56:48.327Z,,0,,,NaN,,,,,,false,,,,512306.90000009537,512306.80000019073,,512306.7000000477,,512270.997,8,400,,,
sequence,flow.Sequence,4_67,2023-09-08T19:56:48.327Z,,0,,,4661.474000190734,completion,,,,,false,,,,512306.90000009537,512306.80000019073,507628.773,507695.40000009537,507645.326,512270.997,8,400,,,
trial,html.Screen,4_68_0,2023-09-08T19:56:53.657Z,,0,2,,5365.103000143077,response,ISIC_0479264.JPG,4,ISIC_0053493.JPG,ISIC_0053493.JPG,false,0,keypress(z),500,517636.30000019073,517636.10000014305,512254.327,512307,512270.997,517614.755,8,400,19,,ISIC_0479264.JPG
break,html.Screen,4_68_1,2023-09-08T19:56:53.658Z,,0,,,NaN,,,,,,false,,,,517637.10000014305,517636.90000009537,,517636.60000014305,,517614.755,8,400,,,
break_continue,html.Screen,4_68_2,2023-09-08T19:56:53.658Z,,0,,,NaN,,,,,,false,,,,517637.40000009537,517637.30000019073,,517637.2000000477,,517614.755,8,400,,,
sequence,flow.Sequence,4_68,2023-09-08T19:56:53.658Z,,0,,,5366.303000190761,completion,,,,,false,,,,517637.7000000477,517637.30000019073,512254.327,512307,512270.997,517614.755,8,400,,,
trial,html.Screen,4_69_0,2023-09-08T19:56:57.555Z,,0,2,,3919.645000095363,response,ISIC_0009971.JPG,4,ISIC_6959281.JPG,ISIC_6959281.JPG,false,0,keypress(z),500,521534.5,521534.40000009537,517598.113,517637.90000009537,517614.755,521505.759,8,400,20,,ISIC_0009971.JPG
break,html.Screen,4_69_1,2023-09-08T19:56:57.555Z,,0,,,NaN,,,,,,false,,,,521534.90000009537,521534.80000019073,,521534.60000014305,,521505.759,8,400,,,
break_continue,html.Screen,4_69_2,2023-09-08T19:56:57.556Z,,0,,,NaN,,,,,,false,,,,521535.10000014305,521535,,521534.90000009537,,521505.759,8,400,,,
sequence,flow.Sequence,4_69,2023-09-08T19:56:57.556Z,,0,,,3920.2449999999953,completion,,,,,false,,,,521535.30000019073,521535,517598.113,517637.80000019073,517614.755,521505.759,8,400,,,
trial,html.Screen,4_70_0,2023-09-08T19:57:02.634Z,,0,2,,5107.341000143031,response,ISIC_0000346.JPG,4,ISIC_9353514.JPG,ISIC_0000346.JPG,false,1,keypress(m),500,526613.2000000477,526613.100000143,521489.139,521535.30000019073,521505.759,526582.363,8,400,21,,ISIC_9353514.JPG
break,html.Screen,4_70_1,2023-09-08T19:57:02.634Z,,0,,,NaN,,,,,,false,,,,526613.600000143,526613.4000000954,,526613.3000001907,,526582.363,8,400,,,
break_continue,html.Screen,4_70_2,2023-09-08T19:57:02.634Z,,0,,,NaN,,,,,,false,,,,526613.8000001907,526613.7000000477,,526613.7000000477,,526582.363,8,400,,,
sequence,flow.Sequence,4_70,2023-09-08T19:57:02.634Z,,0,,,5107.941000047664,completion,,,,,false,,,,526613.9000000954,526613.7000000477,521489.139,521535.30000019073,521505.759,526582.363,8,400,,,
trial,html.Screen,4_71_0,2023-09-08T19:57:10.780Z,,0,2,,8177.037000095355,response,ISIC_0068246.JPG,5,ISIC_8835545.JPG,ISIC_8835545.JPG,false,0,keypress(z),500,534759.5,534759.4000000954,526565.707,526614,526582.363,534714.736,8,400,22,,ISIC_0068246.JPG
break,html.Screen,4_71_1,2023-09-08T19:57:10.780Z,,0,,,NaN,,,,,,false,,,,534759.9000000954,534759.8000001907,,534759.600000143,,534714.736,8,400,,,
break_continue,html.Screen,4_71_2,2023-09-08T19:57:10.781Z,,0,,,NaN,,,,,,false,,,,534760.100000143,534760,,534760,,534714.736,8,400,,,
sequence,flow.Sequence,4_71,2023-09-08T19:57:10.781Z,,0,,,8177.636999999988,completion,,,,,false,,,,534760.100000143,534760,526565.707,526614,526582.363,534714.736,8,400,,,
trial,html.Screen,4_72_0,2023-09-08T19:57:16.430Z,,0,2,,5694.564000190701,response,ISIC_1628539.JPG,5,ISIC_0063241.JPG,ISIC_1628539.JPG,false,1,keypress(m),500,540409.5,540409.3000001907,534697.98,534760.2000000477,534714.736,540359.013,8,400,23,,ISIC_0063241.JPG
break,html.Screen,4_72_1,2023-09-08T19:57:16.430Z,,0,,,NaN,,,,,,false,,,,540410,540409.8000001907,,540409.600000143,,540359.013,8,400,,,
break_continue,html.Screen,4_72_2,2023-09-08T19:57:16.431Z,,0,,,NaN,,,,,,false,,,,540410.3000001907,540410.100000143,,540410.100000143,,540359.013,8,400,,,
sequence,flow.Sequence,4_72,2023-09-08T19:57:16.431Z,,0,,,5695.364000143018,completion,,,,,false,,,,540410.4000000954,540410.100000143,534697.98,534760.100000143,534714.736,540359.013,8,400,,,
trial,html.Screen,4_73_0,2023-09-08T19:57:22.438Z,,0,2,,6058.387000095332,response,ISIC_7415335.JPG,4,ISIC_1152559.JPG,ISIC_1152559.JPG,false,0,keypress(z),500,546417.5,546417.4000000954,540342.466,540410.5,540359.013,546370.742,8,400,24,,ISIC_7415335.JPG
break,html.Screen,4_73_1,2023-09-08T19:57:22.438Z,,0,,,NaN,,,,,,false,,,,546417.8000001907,546417.8000001907,,546417.600000143,,546370.742,8,400,,,
break_continue,html.Screen,4_73_2,2023-09-08T19:57:22.438Z,,0,,,NaN,,,,,,false,,,,546417.9000000954,546417.9000000954,,546417.9000000954,,546370.742,8,400,,,
sequence,flow.Sequence,4_73,2023-09-08T19:57:22.439Z,,0,,,6058.887000095332,completion,,,,,false,,,,546418,546417.9000000954,540342.466,540410.5,540359.013,546370.742,8,400,,,
trial,html.Screen,4_74_0,2023-09-08T19:57:27.629Z,,0,2,,5237.458000047714,response,ISIC_0030994.JPG,5,ISIC_0029481.JPG,ISIC_0030994.JPG,false,1,keypress(m),500,551608.4000000954,551608.2000000477,546354.038,546418.100000143,546370.742,551580.922,8,400,25,,ISIC_0029481.JPG
break,html.Screen,4_74_1,2023-09-08T19:57:27.629Z,,0,,,NaN,,,,,,false,,,,551608.7000000477,551608.600000143,,551608.4000000954,,551580.922,8,400,,,
break_continue,html.Screen,4_74_2,2023-09-08T19:57:27.629Z,,0,,,NaN,,,,,,false,,,,551608.8000001907,551608.7000000477,,551608.7000000477,,551580.922,8,400,,,
sequence,flow.Sequence,4_74,2023-09-08T19:57:27.629Z,,0,,,5237.958000047714,completion,,,,,false,,,,551608.8000001907,551608.7000000477,546354.038,546418.100000143,546370.742,551580.922,8,400,,,
trial,html.Screen,4_75_0,2023-09-08T19:57:33.542Z,,0,2,,5940.678000143031,response,ISIC_0069050.JPG,4,ISIC_5932383.JPG,ISIC_5932383.JPG,false,0,keypress(z),500,557521.8000001907,557521.600000143,551564.325,551608.9000000954,551580.922,557492.407,8,400,26,,ISIC_0069050.JPG
break,html.Screen,4_75_1,2023-09-08T19:57:33.543Z,,0,,,NaN,,,,,,false,,,,557522.100000143,557522.100000143,,557521.9000000954,,557492.407,8,400,,,
break_continue,html.Screen,4_75_2,2023-09-08T19:57:33.543Z,,0,,,NaN,,,,,,false,,,,557522.3000001907,557522.2000000477,,557522.2000000477,,557492.407,8,400,,,
sequence,flow.Sequence,4_75,2023-09-08T19:57:33.543Z,,0,,,5941.278000047663,completion,,,,,false,,,,557522.3000001907,557522.2000000477,551564.325,551608.9000000954,551580.922,557492.407,8,400,,,
trial,html.Screen,4_76_0,2023-09-08T19:57:41.611Z,,0,2,,8097.793000047677,response,ISIC_0010283.JPG,5,ISIC_5614446.JPG,ISIC_5614446.JPG,false,0,keypress(z),500,565590.3000001907,565590.2000000477,557475.728,557522.4000000954,557492.407,565541.334,8,400,27,,ISIC_0010283.JPG
break,html.Screen,4_76_1,2023-09-08T19:57:41.611Z,,0,,,NaN,,,,,,false,,,,565590.600000143,565590.600000143,,565590.4000000954,,565541.334,8,400,,,
break_continue,html.Screen,4_76_2,2023-09-08T19:57:41.611Z,,0,,,NaN,,,,,,false,,,,565590.8000001907,565590.7000000477,,565590.600000143,,565541.334,8,400,,,
sequence,flow.Sequence,4_76,2023-09-08T19:57:41.611Z,,0,,,8098.293000047677,completion,,,,,false,,,,565590.8000001907,565590.7000000477,557475.728,557522.4000000954,557492.407,565541.334,8,400,,,
trial,html.Screen,4_77_0,2023-09-08T19:57:46.654Z,,0,2,,5091.2660001430195,response,ISIC_0032152.JPG,5,ISIC_0054528.JPG,ISIC_0032152.JPG,false,1,keypress(m),500,570633.100000143,570632.600000143,565524.752,565590.9000000954,565541.334,570584.601,8,400,28,,ISIC_0054528.JPG
break,html.Screen,4_77_1,2023-09-08T19:57:46.655Z,,0,,,NaN,,,,,,false,,,,570634.3000001907,570633.9000000954,,570633.5,,570584.601,8,400,,,
break_continue,html.Screen,4_77_2,2023-09-08T19:57:46.656Z,,0,,,NaN,,,,,,false,,,,570635,570634.7000000477,,570634.4000000954,,570584.601,8,400,,,
sequence,flow.Sequence,4_77,2023-09-08T19:57:46.656Z,,0,,,5093.366000047652,completion,,,,,false,,,,570635.2000000477,570634.7000000477,565524.752,565590.9000000954,565541.334,570584.601,8,400,,,
trial,html.Screen,4_78_0,2023-09-08T19:57:52.023Z,,0,2,,5417.898999999976,response,ISIC_1211506.JPG,5,ISIC_0914168.JPG,ISIC_0914168.JPG,false,0,keypress(z),500,576002.600000143,576002.5,570567.895,570635.5,570584.601,575961.769,8,400,29,,ISIC_1211506.JPG
break,html.Screen,4_78_1,2023-09-08T19:57:52.024Z,,0,,,NaN,,,,,,false,,,,576003,576002.9000000954,,576002.7000000477,,575961.769,8,400,,,
break_continue,html.Screen,4_78_2,2023-09-08T19:57:52.024Z,,0,,,NaN,,,,,,false,,,,576003.2000000477,576003.2000000477,,576003.100000143,,575961.769,8,400,,,
sequence,flow.Sequence,4_78,2023-09-08T19:57:52.024Z,,0,,,5418.5990000476595,completion,,,,,false,,,,576003.4000000954,576003.2000000477,570567.895,570635.4000000954,570584.601,575961.769,8,400,,,
trial,html.Screen,4_79_0,2023-09-08T19:57:59.217Z,,0,2,,7234.431000047713,response,ISIC_0033392.JPG,5,ISIC_0057059.JPG,ISIC_0033392.JPG,false,1,keypress(m),500,583196.3000001907,583196.2000000477,575944.907,576003.4000000954,575961.769,583158.986,8,400,30,,ISIC_0057059.JPG
break,html.Screen,4_79_1,2023-09-08T19:57:59.218Z,,0,,,NaN,,,,,,false,,,,583196.8000001907,583196.600000143,,583196.5,,583158.986,8,400,,,
break_continue,html.Screen,4_79_2,2023-09-08T19:57:59.218Z,,0,,,NaN,,,,,,false,,,,583197.100000143,583197,,583197,,583158.986,8,400,,,
sequence,flow.Sequence,4_79,2023-09-08T19:57:59.218Z,,0,,,7235.231000000029,completion,,,,,false,,,,583197.2000000477,583197,575944.907,576003.4000000954,575961.769,583158.986,8,400,,,
trial,html.Screen,4_80_0,2023-09-08T19:58:04.820Z,,0,2,,5640.414000095334,response,ISIC_0032265.JPG,6,ISIC_3211915.JPG,ISIC_0032265.JPG,false,1,keypress(m),500,588799.600000143,588799.4000000954,583142.37,583197.3000001907,583158.986,588753.212,8,400,31,,ISIC_3211915.JPG
break,html.Screen,4_80_1,2023-09-08T19:58:04.821Z,,0,,,NaN,,,,,,false,,,,588800.5,588800.2000000477,,588799.8000001907,,588753.212,8,400,,,
break_continue,html.Screen,4_80_2,2023-09-08T19:58:04.822Z,,0,,,NaN,,,,,,false,,,,588801,588800.7000000477,,588800.600000143,,588753.212,8,400,,,
sequence,flow.Sequence,4_80,2023-09-08T19:58:04.822Z,,0,,,5641.71400004765,completion,,,,,false,,,,588801.2000000477,588800.7000000477,583142.37,583197.3000001907,583158.986,588753.212,8,400,,,
trial,html.Screen,4_81_0,2023-09-08T19:58:09.624Z,,0,2,,4850.088000190677,response,ISIC_8712559.JPG,5,ISIC_9615486.JPG,ISIC_9615486.JPG,false,0,keypress(z),500,593603.7000000477,593603.3000001907,588736.592,588801.5,588753.212,593562.697,8,400,32,,ISIC_8712559.JPG
break,html.Screen,4_81_1,2023-09-08T19:58:09.625Z,,0,,,NaN,,,,,,false,,,,593604.7000000477,593604.5,,593604.100000143,,593562.697,8,400,,,
break_continue,html.Screen,4_81_2,2023-09-08T19:58:09.626Z,,0,,,NaN,,,,,,false,,,,593605.3000001907,593605.100000143,,593604.9000000954,,593562.697,8,400,,,
sequence,flow.Sequence,4_81,2023-09-08T19:58:09.626Z,,0,,,4851.888000142993,completion,,,,,false,,,,593605.600000143,593605.100000143,588736.592,588801.5,588753.212,593562.697,8,400,,,
trial,html.Screen,4_82_0,2023-09-08T19:58:14.243Z,,0,2,,4659.50300004764,response,ISIC_0027271.JPG,4,ISIC_5619654.JPG,ISIC_0027271.JPG,false,1,keypress(m),500,598222.7000000477,598222.2000000477,593545.919,593605.8000001907,593562.697,598188.201,8,400,33,,ISIC_5619654.JPG
break,html.Screen,4_82_1,2023-09-08T19:58:14.245Z,,0,,,NaN,,,,,,false,,,,598224.2000000477,598223.8000001907,,598223.3000001907,,598188.201,8,400,,,
break_continue,html.Screen,4_82_2,2023-09-08T19:58:14.246Z,,0,,,NaN,,,,,,false,,,,598225,598224.7000000477,,598224.4000000954,,598188.201,8,400,,,
sequence,flow.Sequence,4_82,2023-09-08T19:58:14.246Z,,0,,,4662.00300004764,completion,,,,,false,,,,598225.3000001907,598224.7000000477,593545.919,593605.8000001907,593562.697,598188.201,8,400,,,
trial,html.Screen,4_83_0,2023-09-08T19:58:19.534Z,,0,2,,5324.499000047683,response,ISIC_0060585.JPG,6,ISIC_0055024.JPG,ISIC_0055024.JPG,false,0,keypress(z),500,603513,603512.7000000477,598171.591,598225.600000143,598188.201,603481.86,8,400,34,,ISIC_0060585.JPG
break,html.Screen,4_83_1,2023-09-08T19:58:19.535Z,,0,,,NaN,,,,,,false,,,,603514,603513.7000000477,,603513.4000000954,,603481.86,8,400,,,
break_continue,html.Screen,4_83_2,2023-09-08T19:58:19.535Z,,0,,,NaN,,,,,,false,,,,603514.4000000954,603514.3000001907,,603514.100000143,,603481.86,8,400,,,
sequence,flow.Sequence,4_83,2023-09-08T19:58:19.535Z,,0,,,5326.099000190734,completion,,,,,false,,,,603514.600000143,603514.3000001907,598171.591,598225.5,598188.201,603481.86,8,400,,,
trial,html.Screen,4_84_0,2023-09-08T19:58:25.826Z,,0,2,,6323.540000095381,response,ISIC_0014795.JPG,6,ISIC_5642824.JPG,ISIC_0014795.JPG,false,1,keypress(m),500,609805.7000000477,609805.4000000954,603465.241,603514.8000001907,603481.86,609760.952,8,400,35,,ISIC_5642824.JPG
break,html.Screen,4_84_1,2023-09-08T19:58:25.827Z,,0,,,NaN,,,,,,false,,,,609806.7000000477,609806.4000000954,,609806,,609760.952,8,400,,,
break_continue,html.Screen,4_84_2,2023-09-08T19:58:25.828Z,,0,,,NaN,,,,,,false,,,,609807.3000001907,609807.100000143,,609807,,609760.952,8,400,,,
sequence,flow.Sequence,4_84,2023-09-08T19:58:25.828Z,,0,,,6325.240000143065,completion,,,,,false,,,,609807.600000143,609807.100000143,603465.241,603514.8000001907,603481.86,609760.952,8,400,,,
trial,html.Screen,4_85_0,2023-09-08T19:58:31.934Z,,0,2,,6152.648000143003,response,ISIC_0033323.JPG,5,ISIC_1189461.JPG,ISIC_0033323.JPG,false,1,keypress(m),500,615913.600000143,615913.600000143,609744.133,609807.8000001907,609760.952,615872.656,8,400,36,,ISIC_1189461.JPG
break,html.Screen,4_85_1,2023-09-08T19:58:31.935Z,,0,,,NaN,,,,,,false,,,,615914,615913.9000000954,,615913.7000000477,,615872.656,8,400,,,
break_continue,html.Screen,4_85_2,2023-09-08T19:58:31.935Z,,0,,,NaN,,,,,,false,,,,615914.2000000477,615914.100000143,,615914,,615872.656,8,400,,,
sequence,flow.Sequence,4_85,2023-09-08T19:58:31.935Z,,0,,,6153.148000143003,completion,,,,,false,,,,615914.3000001907,615914.100000143,609744.133,609807.7000000477,609760.952,615872.656,8,400,,,
trial,html.Screen,4_86_0,2023-09-08T19:58:37.905Z,,0,2,,6011.544000047725,response,ISIC_0201767.JPG,5,ISIC_0010213.JPG,ISIC_0010213.JPG,false,0,keypress(z),500,621884.4000000954,621884.2000000477,615855.992,615914.3000001907,615872.656,621834.257,8,400,37,,ISIC_0201767.JPG
break,html.Screen,4_86_1,2023-09-08T19:58:37.905Z,,0,,,NaN,,,,,,false,,,,621884.8000001907,621884.600000143,,621884.4000000954,,621834.257,8,400,,,
break_continue,html.Screen,4_86_2,2023-09-08T19:58:37.906Z,,0,,,NaN,,,,,,false,,,,621885,621884.9000000954,,621884.8000001907,,621834.257,8,400,,,
sequence,flow.Sequence,4_86,2023-09-08T19:58:37.906Z,,0,,,6012.244000095408,completion,,,,,false,,,,621885.100000143,621884.9000000954,615855.992,615914.3000001907,615872.656,621834.257,8,400,,,
trial,html.Screen,4_87_0,2023-09-08T19:58:45.494Z,,0,2,,7638.843000143068,response,ISIC_1985436.JPG,5,ISIC_3361955.JPG,ISIC_1985436.JPG,false,1,keypress(m),500,629473.2000000477,629473.100000143,621817.564,621885.100000143,621834.257,629432.381,8,400,38,,ISIC_3361955.JPG
break,html.Screen,4_87_1,2023-09-08T19:58:45.495Z,,0,,,NaN,,,,,,false,,,,629473.600000143,629473.5,,629473.3000001907,,629432.381,8,400,,,
break_continue,html.Screen,4_87_2,2023-09-08T19:58:45.495Z,,0,,,NaN,,,,,,false,,,,629473.9000000954,629473.8000001907,,629473.7000000477,,629432.381,8,400,,,
sequence,flow.Sequence,4_87,2023-09-08T19:58:45.495Z,,0,,,7639.543000190752,completion,,,,,false,,,,629474,629473.8000001907,621817.564,621885.100000143,621834.257,629432.381,8,400,,,
trial,html.Screen,4_88_0,2023-09-08T19:58:52.120Z,,0,2,,6666.819000047632,response,ISIC_0011460.JPG,5,ISIC_0033202.JPG,ISIC_0011460.JPG,false,1,keypress(m),500,636099.4000000954,636099.2000000477,629415.856,629474,629432.381,636061.98,8,400,39,,ISIC_0033202.JPG
break,html.Screen,4_88_1,2023-09-08T19:58:52.121Z,,0,,,NaN,,,,,,false,,,,636099.7000000477,636099.7000000477,,636099.5,,636061.98,8,400,,,
break_continue,html.Screen,4_88_2,2023-09-08T19:58:52.121Z,,0,,,NaN,,,,,,false,,,,636099.8000001907,636099.8000001907,,636099.8000001907,,636061.98,8,400,,,
sequence,flow.Sequence,4_88,2023-09-08T19:58:52.121Z,,0,,,6667.419000190683,completion,,,,,false,,,,636099.9000000954,636099.8000001907,629415.856,629474,629432.381,636061.98,8,400,,,
trial,html.Screen,4_89_0,2023-09-08T19:58:57.530Z,,0,2,,5447.220000047702,response,ISIC_7956417.JPG,5,ISIC_0034183.JPG,ISIC_0034183.JPG,false,0,keypress(z),500,641509.4000000954,641509.2000000477,636045.263,636099.9000000954,636061.98,641472.512,8,400,40,,ISIC_7956417.JPG
break,html.Screen,4_89_1,2023-09-08T19:58:57.531Z,,0,,,NaN,,,,,,false,,,,641509.8000001907,641509.600000143,,641509.5,,641472.512,8,400,,,
break_continue,html.Screen,4_89_2,2023-09-08T19:58:57.531Z,,0,,,NaN,,,,,,false,,,,641509.9000000954,641509.9000000954,,641509.8000001907,,641472.512,8,400,,,
sequence,flow.Sequence,4_89,2023-09-08T19:58:57.531Z,,0,,,5447.920000095386,completion,,,,,false,,,,641509.9000000954,641509.9000000954,636045.263,636099.9000000954,636061.98,641472.512,8,400,,,
trial,html.Screen,4_90_0,2023-09-08T19:59:01.501Z,,0,2,,4007.288000190747,response,ISIC_4563766.JPG,4,ISIC_1337726.JPG,ISIC_4563766.JPG,false,1,keypress(m),500,645479.9000000954,645479.8000001907,641455.731,641510,641472.512,645430.122,8,400,41,,ISIC_1337726.JPG
break,html.Screen,4_90_1,2023-09-08T19:59:01.501Z,,0,,,NaN,,,,,,false,,,,645480.2000000477,645480.100000143,,645480,,645430.122,8,400,,,
break_continue,html.Screen,4_90_2,2023-09-08T19:59:01.501Z,,0,,,NaN,,,,,,false,,,,645480.4000000954,645480.3000001907,,645480.3000001907,,645430.122,8,400,,,
sequence,flow.Sequence,4_90,2023-09-08T19:59:01.501Z,,0,,,4007.788000190747,completion,,,,,false,,,,645480.4000000954,645480.3000001907,641455.731,641510,641472.512,645430.122,8,400,,,
trial,html.Screen,4_91_0,2023-09-08T19:59:06.127Z,,0,2,,4675.2780000953935,response,ISIC_1745182.JPG,5,ISIC_9053910.JPG,ISIC_9053910.JPG,false,0,keypress(z),500,650105.5,650105.4000000954,645413.432,645480.5,645430.122,650055.808,8,400,42,,ISIC_1745182.JPG
break,html.Screen,4_91_1,2023-09-08T19:59:06.127Z,,0,,,NaN,,,,,,false,,,,650106,650105.9000000954,,650105.600000143,,650055.808,8,400,,,
break_continue,html.Screen,4_91_2,2023-09-08T19:59:06.127Z,,0,,,NaN,,,,,,false,,,,650106.2000000477,650106.100000143,,650106,,650055.808,8,400,,,
sequence,flow.Sequence,4_91,2023-09-08T19:59:06.127Z,,0,,,4675.978000143077,completion,,,,,false,,,,650106.2000000477,650106.100000143,645413.432,645480.5,645430.122,650055.808,8,400,,,
trial,html.Screen,4_92_0,2023-09-08T19:59:13.697Z,,0,2,,7619.892000047723,response,ISIC_0024516.JPG,5,ISIC_0071208.JPG,ISIC_0071208.JPG,false,0,keypress(z),500,657675.8000001907,657675.7000000477,650039.133,650106.3000001907,650055.808,657637.265,8,400,43,,ISIC_0024516.JPG
break,html.Screen,4_92_1,2023-09-08T19:59:13.697Z,,0,,,NaN,,,,,,false,,,,657676.2000000477,657676.100000143,,657675.9000000954,,657637.265,8,400,,,
break_continue,html.Screen,4_92_2,2023-09-08T19:59:13.697Z,,0,,,NaN,,,,,,false,,,,657676.4000000954,657676.3000001907,,657676.3000001907,,657637.265,8,400,,,
sequence,flow.Sequence,4_92,2023-09-08T19:59:13.698Z,,0,,,7620.492000190774,completion,,,,,false,,,,657676.5,657676.3000001907,650039.133,650106.3000001907,650055.808,657637.265,8,400,,,
trial,html.Screen,4_93_0,2023-09-08T19:59:18.533Z,,0,2,,4874.93500004767,response,ISIC_4103653.JPG,4,ISIC_4397068.JPG,ISIC_4397068.JPG,false,0,keypress(z),500,662512.4000000954,662512.2000000477,657620.612,657676.600000143,657637.265,662463.352,8,400,44,,ISIC_4103653.JPG
break,html.Screen,4_93_1,2023-09-08T19:59:18.534Z,,0,,,NaN,,,,,,false,,,,662513,662512.8000001907,,662512.600000143,,662463.352,8,400,,,
break_continue,html.Screen,4_93_2,2023-09-08T19:59:18.534Z,,0,,,NaN,,,,,,false,,,,662513.4000000954,662513.3000001907,,662513.100000143,,662463.352,8,400,,,
sequence,flow.Sequence,4_93,2023-09-08T19:59:18.535Z,,0,,,4876.035000190721,completion,,,,,false,,,,662513.5,662513.3000001907,657620.612,657676.600000143,657637.265,662463.352,8,400,,,
trial,html.Screen,4_94_0,2023-09-08T19:59:24.731Z,,0,2,,6246.148000000045,response,ISIC_0034059.JPG,5,ISIC_1584535.JPG,ISIC_0034059.JPG,false,1,keypress(m),500,668709.7000000477,668709.5,662446.615,662513.600000143,662463.352,668658.665,8,400,45,,ISIC_1584535.JPG
break,html.Screen,4_94_1,2023-09-08T19:59:24.731Z,,0,,,NaN,,,,,,false,,,,668710.2000000477,668710.100000143,,668709.8000001907,,668658.665,8,400,,,
break_continue,html.Screen,4_94_2,2023-09-08T19:59:24.732Z,,0,,,NaN,,,,,,false,,,,668710.7000000477,668710.600000143,,668710.4000000954,,668658.665,8,400,,,
sequence,flow.Sequence,4_94,2023-09-08T19:59:24.732Z,,0,,,6247.248000143096,completion,,,,,false,,,,668710.8000001907,668710.600000143,662446.615,662513.5,662463.352,668658.665,8,400,,,
trial,html.Screen,4_95_0,2023-09-08T19:59:32.419Z,,0,2,,7739.5350000476465,response,ISIC_2395624.JPG,5,ISIC_6860222.JPG,ISIC_2395624.JPG,false,1,keypress(m),500,676398.3000001907,676398.2000000477,668642.014,668710.9000000954,668658.665,676357.005,8,400,46,,ISIC_6860222.JPG
break,html.Screen,4_95_1,2023-09-08T19:59:32.420Z,,0,,,NaN,,,,,,false,,,,676398.7000000477,676398.5,,676398.4000000954,,676357.005,8,400,,,
break_continue,html.Screen,4_95_2,2023-09-08T19:59:32.420Z,,0,,,NaN,,,,,,false,,,,676398.9000000954,676398.9000000954,,676398.8000001907,,676357.005,8,400,,,
sequence,flow.Sequence,4_95,2023-09-08T19:59:32.420Z,,0,,,7740.23500009533,completion,,,,,false,,,,676399,676398.9000000954,668642.014,668710.8000001907,668658.665,676357.005,8,400,,,
trial,html.Screen,4_96_0,2023-09-08T19:59:38.744Z,,0,2,,6365.395000095363,response,ISIC_0029322.JPG,5,ISIC_6512653.JPG,ISIC_6512653.JPG,false,0,keypress(z),500,682722.7000000477,682722.4000000954,676340.316,676399.100000143,676357.005,682685.995,8,400,47,,ISIC_0029322.JPG
break,html.Screen,4_96_1,2023-09-08T19:59:38.744Z,,0,,,NaN,,,,,,false,,,,682722.9000000954,682722.9000000954,,682722.7000000477,,682685.995,8,400,,,
break_continue,html.Screen,4_96_2,2023-09-08T19:59:38.744Z,,0,,,NaN,,,,,,false,,,,682723.100000143,682723.100000143,,682723,,682685.995,8,400,,,
sequence,flow.Sequence,4_96,2023-09-08T19:59:38.744Z,,0,,,6366.0950001430465,completion,,,,,false,,,,682723.3000001907,682723.100000143,676340.316,676399,676357.005,682685.995,8,400,,,
trial,html.Screen,4_97_0,2023-09-08T19:59:44.587Z,,0,2,,5879.105000143056,response,ISIC_0000139.JPG,4,ISIC_0064557.JPG,ISIC_0064557.JPG,false,0,keypress(z),500,688565.2000000477,688565.100000143,682669.306,682723.3000001907,682685.995,688530.729,8,400,48,,ISIC_0000139.JPG
break,html.Screen,4_97_1,2023-09-08T19:59:44.587Z,,0,,,NaN,,,,,,false,,,,688565.9000000954,688565.5,,688565.4000000954,,688530.729,8,400,,,
break_continue,html.Screen,4_97_2,2023-09-08T19:59:44.588Z,,0,,,NaN,,,,,,false,,,,688566.3000001907,688566.2000000477,,688566.100000143,,688530.729,8,400,,,
sequence,flow.Sequence,4_97,2023-09-08T19:59:44.588Z,,0,,,5880.205000047688,completion,,,,,false,,,,688566.4000000954,688566.2000000477,682669.306,682723.3000001907,682685.995,688530.729,8,400,,,
trial,html.Screen,4_98_0,2023-09-08T19:59:50.099Z,,0,2,,5546.27099999995,response,ISIC_5170766.JPG,4,ISIC_7903838.JPG,ISIC_5170766.JPG,false,1,keypress(m),500,694077.5,694077,688514.004,688566.5,688530.729,694041.511,8,400,49,,ISIC_7903838.JPG
break,html.Screen,4_98_1,2023-09-08T19:59:50.100Z,,0,,,NaN,,,,,,false,,,,694079.2000000477,694078.7000000477,,694078.2000000477,,694041.511,8,400,,,
break_continue,html.Screen,4_98_2,2023-09-08T19:59:50.101Z,,0,,,NaN,,,,,,false,,,,694080.100000143,694079.8000001907,,694079.5,,694041.511,8,400,,,
sequence,flow.Sequence,4_98,2023-09-08T19:59:50.102Z,,0,,,5549.071000190685,completion,,,,,false,,,,694080.600000143,694079.8000001907,688514.004,688566.5,688530.729,694041.511,8,400,,,
trial,html.Screen,4_99_0,2023-09-08T19:59:53.982Z,,0,2,,3918.8890000953106,response,ISIC_0651114.JPG,5,ISIC_0001157.JPG,ISIC_0001157.JPG,false,0,keypress(z),500,697960.600000143,697960.4000000954,694024.72,694080.9000000954,694041.511,697915.702,8,400,50,,ISIC_0651114.JPG
break,html.Screen,4_99_1,2023-09-08T20:00:03.975Z,,0,,,10002.722999999998,timeout,,,,,false,,,,707953.8000001907,707901.808,697898.95,697960.8000001907,697915.702,707918.425,8,400,,,
break_continue,html.Screen,4_99_2,2023-09-08T20:00:05.548Z,,0,,,1586.0749999999534,response,,,,,false,continue,keypress(Space),,709526.600000143,709504.5,707901.808,707953.9000000954,707918.425,709504.934,8,400,,,
sequence,flow.Sequence,4_99,2023-09-08T20:00:05.548Z,,0,,,15462.988999999943,completion,,,,,false,,,,709526.8000001907,709504.5,694024.72,694080.9000000954,694041.511,709504.934,8,400,,,
trial,html.Screen,4_100_0,2023-09-08T20:00:15.550Z,,0,3,,10023.766000047675,response,ISIC_1470245.JPG,6,ISIC_5491641.JPG,ISIC_1470245.JPG,false,1,keypress(m),500,719528.9000000954,719528.7000000477,709488.152,709526.8000001907,709504.934,719491.042,8,400,1,,ISIC_5491641.JPG
break,html.Screen,4_100_1,2023-09-08T20:00:15.551Z,,0,,,NaN,,,,,,false,,,,719529.3000001907,719529.100000143,,719529,,719491.042,8,400,,,
break_continue,html.Screen,4_100_2,2023-09-08T20:00:15.551Z,,0,,,NaN,,,,,,false,,,,719529.4000000954,719529.3000001907,,719529.3000001907,,719491.042,8,400,,,
sequence,flow.Sequence,4_100,2023-09-08T20:00:15.551Z,,0,,,10024.366000190726,completion,,,,,false,,,,719529.5,719529.3000001907,709488.152,709526.8000001907,709504.934,719491.042,8,400,,,
trial,html.Screen,4_101_0,2023-09-08T20:00:21.266Z,,0,3,,5753.957999999984,response,ISIC_2864893.JPG,5,ISIC_0032130.JPG,ISIC_0032130.JPG,false,0,keypress(z),500,725245.2000000477,725245,719474.237,719529.600000143,719491.042,725202.118,8,400,2,,ISIC_2864893.JPG
break,html.Screen,4_101_1,2023-09-08T20:00:21.267Z,,0,,,NaN,,,,,,false,,,,725245.5,725245.5,,725245.3000001907,,725202.118,8,400,,,
break_continue,html.Screen,4_101_2,2023-09-08T20:00:21.267Z,,0,,,NaN,,,,,,false,,,,725245.8000001907,725245.7000000477,,725245.600000143,,725202.118,8,400,,,
sequence,flow.Sequence,4_101,2023-09-08T20:00:21.267Z,,0,,,5754.658000047668,completion,,,,,false,,,,725245.8000001907,725245.7000000477,719474.237,719529.5,719491.042,725202.118,8,400,,,
trial,html.Screen,4_102_0,2023-09-08T20:00:26.631Z,,0,3,,5407.982000143034,response,ISIC_0003550.JPG,5,ISIC_2122488.JPG,ISIC_2122488.JPG,false,0,keypress(z),500,730610.2000000477,730610.100000143,725185.373,725246,725202.118,730562.423,8,400,3,,ISIC_0003550.JPG
break,html.Screen,4_102_1,2023-09-08T20:00:26.632Z,,0,,,NaN,,,,,,false,,,,730610.5,730610.5,,730610.3000001907,,730562.423,8,400,,,
break_continue,html.Screen,4_102_2,2023-09-08T20:00:26.632Z,,0,,,NaN,,,,,,false,,,,730610.7000000477,730610.600000143,,730610.5,,730562.423,8,400,,,
sequence,flow.Sequence,4_102,2023-09-08T20:00:26.632Z,,0,,,5408.482000143034,completion,,,,,false,,,,730610.7000000477,730610.600000143,725185.373,725245.9000000954,725202.118,730562.423,8,400,,,
trial,html.Screen,4_103_0,2023-09-08T20:00:32.876Z,,0,3,,6291.777000047732,response,ISIC_6507640.JPG,6,ISIC_4153687.JPG,ISIC_4153687.JPG,false,0,keypress(z),500,736854.3000001907,736854.2000000477,730545.863,730610.8000001907,730562.423,736807.995,8,400,4,,ISIC_6507640.JPG
break,html.Screen,4_103_1,2023-09-08T20:00:32.876Z,,0,,,NaN,,,,,,false,,,,736854.600000143,736854.5,,736854.3000001907,,736807.995,8,400,,,
break_continue,html.Screen,4_103_2,2023-09-08T20:00:32.876Z,,0,,,NaN,,,,,,false,,,,736854.7000000477,736854.7000000477,,736854.600000143,,736807.995,8,400,,,
sequence,flow.Sequence,4_103,2023-09-08T20:00:32.876Z,,0,,,6292.277000047732,completion,,,,,false,,,,736854.8000001907,736854.7000000477,730545.863,730610.8000001907,730562.423,736807.995,8,400,,,
trial,html.Screen,4_104_0,2023-09-08T20:00:37.521Z,,0,3,,4692.005000000005,response,ISIC_6942437.JPG,5,ISIC_8764927.JPG,ISIC_8764927.JPG,false,0,keypress(z),500,741500.2000000477,741500,736791.387,736854.9000000954,736807.995,741450.323,8,400,5,,ISIC_6942437.JPG
break,html.Screen,4_104_1,2023-09-08T20:00:37.522Z,,0,,,NaN,,,,,,false,,,,741500.7000000477,741500.5,,741500.2000000477,,741450.323,8,400,,,
break_continue,html.Screen,4_104_2,2023-09-08T20:00:37.522Z,,0,,,NaN,,,,,,false,,,,741500.9000000954,741500.9000000954,,741500.7000000477,,741450.323,8,400,,,
sequence,flow.Sequence,4_104,2023-09-08T20:00:37.522Z,,0,,,4692.905000095372,completion,,,,,false,,,,741501,741500.9000000954,736791.387,736854.9000000954,736807.995,741450.323,8,400,,,
trial,html.Screen,4_105_0,2023-09-08T20:00:42.740Z,,0,3,,5268.777000143076,response,ISIC_0003052.JPG,5,ISIC_5550263.JPG,ISIC_5550263.JPG,false,0,keypress(z),500,746719.2000000477,746719.100000143,741433.679,741501.100000143,741450.323,746693.996,8,400,6,,ISIC_0003052.JPG
break,html.Screen,4_105_1,2023-09-08T20:00:42.741Z,,0,,,NaN,,,,,,false,,,,746719.600000143,746719.5,,746719.3000001907,,746693.996,8,400,,,
break_continue,html.Screen,4_105_2,2023-09-08T20:00:42.741Z,,0,,,NaN,,,,,,false,,,,746719.8000001907,746719.8000001907,,746719.7000000477,,746693.996,8,400,,,
sequence,flow.Sequence,4_105,2023-09-08T20:00:42.741Z,,0,,,5269.47700019076,completion,,,,,false,,,,746719.9000000954,746719.8000001907,741433.679,741501.100000143,741450.323,746693.996,8,400,,,
trial,html.Screen,4_106_0,2023-09-08T20:00:49.806Z,,0,3,,7090.104000143008,response,ISIC_0012081.JPG,5,ISIC_0884550.JPG,ISIC_0012081.JPG,false,1,keypress(m),500,753784.4000000954,753784.100000143,746677.291,746720,746693.996,753740.937,8,400,7,,ISIC_0884550.JPG
break,html.Screen,4_106_1,2023-09-08T20:00:49.807Z,,0,,,NaN,,,,,,false,,,,753785.3000001907,753784.9000000954,,753784.600000143,,753740.937,8,400,,,
break_continue,html.Screen,4_106_2,2023-09-08T20:00:49.807Z,,0,,,NaN,,,,,,false,,,,753785.600000143,753785.600000143,,753785.3000001907,,753740.937,8,400,,,
sequence,flow.Sequence,4_106,2023-09-08T20:00:49.807Z,,0,,,7091.604000143008,completion,,,,,false,,,,753785.8000001907,753785.600000143,746677.291,746720,746693.996,753740.937,8,400,,,
trial,html.Screen,4_107_0,2023-09-08T20:00:55.654Z,,0,3,,5891.463000095333,response,ISIC_0034071.JPG,5,ISIC_4249893.JPG,ISIC_0034071.JPG,false,1,keypress(m),500,759632.600000143,759632.4000000954,753724.195,753785.9000000954,753740.937,759585.612,8,400,8,,ISIC_4249893.JPG
break,html.Screen,4_107_1,2023-09-08T20:00:55.655Z,,0,,,NaN,,,,,,false,,,,759633.100000143,759633,,759632.8000001907,,759585.612,8,400,,,
break_continue,html.Screen,4_107_2,2023-09-08T20:00:55.655Z,,0,,,NaN,,,,,,false,,,,759633.3000001907,759633.2000000477,,759633.2000000477,,759585.612,8,400,,,
sequence,flow.Sequence,4_107,2023-09-08T20:00:55.655Z,,0,,,5892.263000047649,completion,,,,,false,,,,759633.4000000954,759633.2000000477,753724.195,753785.8000001907,753740.937,759585.612,8,400,,,
trial,html.Screen,4_108_0,2023-09-08T20:01:01.642Z,,0,3,,6034.388000000035,response,ISIC_4723378.JPG,5,ISIC_0016080.JPG,ISIC_0016080.JPG,false,0,keypress(z),500,765620.600000143,765620,759569.109,759633.5,759585.612,765597.484,8,400,9,,ISIC_4723378.JPG
break,html.Screen,4_108_1,2023-09-08T20:01:01.644Z,,0,,,NaN,,,,,,false,,,,765622.3000001907,765622,,765621.2000000477,,765597.484,8,400,,,
break_continue,html.Screen,4_108_2,2023-09-08T20:01:01.645Z,,0,,,NaN,,,,,,false,,,,765623.2000000477,765622.9000000954,,765622.600000143,,765597.484,8,400,,,
sequence,flow.Sequence,4_108,2023-09-08T20:01:01.645Z,,0,,,6037.288000095403,completion,,,,,false,,,,765623.4000000954,765622.9000000954,759569.109,759633.5,759585.612,765597.484,8,400,,,
trial,html.Screen,4_109_0,2023-09-08T20:01:07.300Z,,0,3,,5680.716000047629,response,ISIC_0004000.JPG,5,ISIC_0005572.JPG,ISIC_0005572.JPG,false,0,keypress(z),500,771278.3000001907,771278.2000000477,765580.759,765623.7000000477,765597.484,771241.662,8,400,10,,ISIC_0004000.JPG
break,html.Screen,4_109_1,2023-09-08T20:01:07.300Z,,0,,,NaN,,,,,,false,,,,771278.600000143,771278.5,,771278.4000000954,,771241.662,8,400,,,
break_continue,html.Screen,4_109_2,2023-09-08T20:01:07.300Z,,0,,,NaN,,,,,,false,,,,771278.8000001907,771278.8000001907,,771278.8000001907,,771241.662,8,400,,,
sequence,flow.Sequence,4_109,2023-09-08T20:01:07.300Z,,0,,,5681.31600019068,completion,,,,,false,,,,771278.9000000954,771278.8000001907,765580.759,765623.600000143,765597.484,771241.662,8,400,,,
trial,html.Screen,4_110_0,2023-09-08T20:01:12.246Z,,0,3,,4982.43800014304,response,ISIC_0061918.JPG,4,ISIC_3763984.JPG,ISIC_3763984.JPG,false,0,keypress(z),500,776224.100000143,776224.100000143,771224.971,771278.9000000954,771241.662,776184.601,8,400,11,,ISIC_0061918.JPG
break,html.Screen,4_110_1,2023-09-08T20:01:12.246Z,,0,,,NaN,,,,,,false,,,,776224.5,776224.4000000954,,776224.3000001907,,776184.601,8,400,,,
break_continue,html.Screen,4_110_2,2023-09-08T20:01:12.246Z,,0,,,NaN,,,,,,false,,,,776224.600000143,776224.600000143,,776224.5,,776184.601,8,400,,,
sequence,flow.Sequence,4_110,2023-09-08T20:01:12.246Z,,0,,,4982.93800014304,completion,,,,,false,,,,776224.7000000477,776224.600000143,771224.971,771278.9000000954,771241.662,776184.601,8,400,,,
trial,html.Screen,4_111_0,2023-09-08T20:01:20.700Z,,0,3,,8493.499000143027,response,ISIC_0030417.JPG,5,ISIC_4980656.JPG,ISIC_0030417.JPG,false,1,keypress(m),500,784678.2000000477,784678.100000143,776167.89,776224.7000000477,776184.601,784634.416,8,400,12,,ISIC_4980656.JPG
break,html.Screen,4_111_1,2023-09-08T20:01:20.700Z,,0,,,NaN,,,,,,false,,,,784678.600000143,784678.5,,784678.3000001907,,784634.416,8,400,,,
break_continue,html.Screen,4_111_2,2023-09-08T20:01:20.700Z,,0,,,NaN,,,,,,false,,,,784678.8000001907,784678.7000000477,,784678.600000143,,784634.416,8,400,,,
sequence,flow.Sequence,4_111,2023-09-08T20:01:20.700Z,,0,,,8494.09900004766,completion,,,,,false,,,,784678.9000000954,784678.7000000477,776167.89,776224.7000000477,776184.601,784634.416,8,400,,,
trial,html.Screen,4_112_0,2023-09-08T20:01:24.911Z,,0,3,,4254.684000143083,response,ISIC_0030443.JPG,5,ISIC_8325260.JPG,ISIC_0030443.JPG,false,1,keypress(m),500,788889.4000000954,788889.100000143,784617.864,784679,784634.416,788842.584,8,400,13,,ISIC_8325260.JPG
break,html.Screen,4_112_1,2023-09-08T20:01:24.911Z,,0,,,NaN,,,,,,false,,,,788889.9000000954,788889.7000000477,,788889.5,,788842.584,8,400,,,
break_continue,html.Screen,4_112_2,2023-09-08T20:01:24.912Z,,0,,,NaN,,,,,,false,,,,788890.100000143,788890,,788890,,788842.584,8,400,,,
sequence,flow.Sequence,4_112,2023-09-08T20:01:24.912Z,,0,,,4255.584000000032,completion,,,,,false,,,,788890.2000000477,788890,784617.864,784679,784634.416,788842.584,8,400,,,
trial,html.Screen,4_113_0,2023-09-08T20:01:31.640Z,,0,3,,6776.316000095336,response,ISIC_5400609.JPG,5,ISIC_4851652.JPG,ISIC_5400609.JPG,false,1,keypress(m),500,795619,795618.9000000954,788826.05,788890.3000001907,788842.584,795572.311,8,400,14,,ISIC_4851652.JPG
break,html.Screen,4_113_1,2023-09-08T20:01:31.641Z,,0,,,NaN,,,,,,false,,,,795619.4000000954,795619.3000001907,,795619.100000143,,795572.311,8,400,,,
break_continue,html.Screen,4_113_2,2023-09-08T20:01:31.641Z,,0,,,NaN,,,,,,false,,,,795619.7000000477,795619.7000000477,,795619.5,,795572.311,8,400,,,
sequence,flow.Sequence,4_113,2023-09-08T20:01:31.641Z,,0,,,6777.116000047652,completion,,,,,false,,,,795619.8000001907,795619.7000000477,788826.05,788890.3000001907,788842.584,795572.311,8,400,,,
trial,html.Screen,4_114_0,2023-09-08T20:01:36.091Z,,0,3,,4497.389000047697,response,ISIC_0072041.JPG,6,ISIC_0014541.JPG,ISIC_0014541.JPG,false,0,keypress(z),500,800069.8000001907,800069.7000000477,795555.611,795619.9000000954,795572.311,800031.003,8,400,15,,ISIC_0072041.JPG
break,html.Screen,4_114_1,2023-09-08T20:01:36.092Z,,0,,,NaN,,,,,,false,,,,800070.2000000477,800070.100000143,,800070,,800031.003,8,400,,,
break_continue,html.Screen,4_114_2,2023-09-08T20:01:36.092Z,,0,,,NaN,,,,,,false,,,,800070.5,800070.4000000954,,800070.4000000954,,800031.003,8,400,,,
sequence,flow.Sequence,4_114,2023-09-08T20:01:36.092Z,,0,,,4498.0890000953805,completion,,,,,false,,,,800070.7000000477,800070.4000000954,795555.611,795619.9000000954,795572.311,800031.003,8,400,,,
trial,html.Screen,4_115_0,2023-09-08T20:01:40.498Z,,0,3,,4445.297000190709,response,ISIC_3352799.JPG,4,ISIC_3743283.JPG,ISIC_3352799.JPG,false,1,keypress(m),500,804476.600000143,804476.3000001907,800014.328,800070.7000000477,800031.003,804439.668,8,400,16,,ISIC_3743283.JPG
break,html.Screen,4_115_1,2023-09-08T20:01:40.499Z,,0,,,NaN,,,,,,false,,,,804477.5,804477.2000000477,,804476.9000000954,,804439.668,8,400,,,
break_continue,html.Screen,4_115_2,2023-09-08T20:01:40.499Z,,0,,,NaN,,,,,,false,,,,804477.9000000954,804477.600000143,,804477.5,,804439.668,8,400,,,
sequence,flow.Sequence,4_115,2023-09-08T20:01:40.499Z,,0,,,4446.597000143025,completion,,,,,false,,,,804478,804477.600000143,800014.328,800070.7000000477,800031.003,804439.668,8,400,,,
trial,html.Screen,4_116_0,2023-09-08T20:01:48.168Z,,0,3,,7706.832000000053,response,ISIC_0026781.JPG,6,ISIC_0033986.JPG,ISIC_0026781.JPG,false,1,keypress(m),500,812146.7000000477,812146.5,804423.146,804478.2000000477,804439.668,812104.611,8,400,17,,ISIC_0033986.JPG
break,html.Screen,4_116_1,2023-09-08T20:01:48.169Z,,0,,,NaN,,,,,,false,,,,812147.600000143,812147.4000000954,,812147,,812104.611,8,400,,,
break_continue,html.Screen,4_116_2,2023-09-08T20:01:48.170Z,,0,,,NaN,,,,,,false,,,,812148.100000143,812147.9000000954,,812147.7000000477,,812104.611,8,400,,,
sequence,flow.Sequence,4_116,2023-09-08T20:01:48.170Z,,0,,,7708.2320000954205,completion,,,,,false,,,,812148.4000000954,812147.9000000954,804423.146,804478.100000143,804439.668,812104.611,8,400,,,
trial,html.Screen,4_117_0,2023-09-08T20:01:54.943Z,,0,3,,6816.58900004765,response,ISIC_6685513.JPG,5,ISIC_0026544.JPG,ISIC_6685513.JPG,false,1,keypress(m),500,818921.3000001907,818921.2000000477,812087.918,812148.5,812104.611,818884.389,8,400,18,,ISIC_0026544.JPG
break,html.Screen,4_117_1,2023-09-08T20:01:54.943Z,,0,,,NaN,,,,,,false,,,,818921.600000143,818921.5,,818921.4000000954,,818884.389,8,400,,,
break_continue,html.Screen,4_117_2,2023-09-08T20:01:54.943Z,,0,,,NaN,,,,,,false,,,,818921.7000000477,818921.7000000477,,818921.600000143,,818884.389,8,400,,,
sequence,flow.Sequence,4_117,2023-09-08T20:01:54.943Z,,0,,,6817.08900004765,completion,,,,,false,,,,818921.8000001907,818921.7000000477,812087.918,812148.5,812104.611,818884.389,8,400,,,
trial,html.Screen,4_118_0,2023-09-08T20:01:59.617Z,,0,3,,4711.011000095401,response,ISIC_1607865.JPG,5,ISIC_0061085.JPG,ISIC_0061085.JPG,false,0,keypress(z),500,823595.5,823595.4000000954,818867.678,818921.9000000954,818884.389,823560.09,8,400,19,,ISIC_1607865.JPG
break,html.Screen,4_118_1,2023-09-08T20:01:59.617Z,,0,,,NaN,,,,,,false,,,,823595.9000000954,823595.9000000954,,823595.7000000477,,823560.09,8,400,,,
break_continue,html.Screen,4_118_2,2023-09-08T20:01:59.618Z,,0,,,NaN,,,,,,false,,,,823596,823596,,823596,,823560.09,8,400,,,
sequence,flow.Sequence,4_118,2023-09-08T20:01:59.618Z,,0,,,4711.6110000000335,completion,,,,,false,,,,823596.100000143,823596,818867.678,818921.9000000954,818884.389,823560.09,8,400,,,
trial,html.Screen,4_119_0,2023-09-08T20:02:07.203Z,,0,3,,7621.610000047716,response,ISIC_0070003.JPG,5,ISIC_0010629.JPG,ISIC_0010629.JPG,false,0,keypress(z),500,831181.9000000954,831181.7000000477,823543.456,823596.100000143,823560.09,831141.571,8,400,20,,ISIC_0070003.JPG
break,html.Screen,4_119_1,2023-09-08T20:02:07.204Z,,0,,,NaN,,,,,,false,,,,831182.2000000477,831182.100000143,,831181.9000000954,,831141.571,8,400,,,
break_continue,html.Screen,4_119_2,2023-09-08T20:02:07.204Z,,0,,,NaN,,,,,,false,,,,831182.600000143,831182.4000000954,,831182.3000001907,,831141.571,8,400,,,
sequence,flow.Sequence,4_119,2023-09-08T20:02:07.204Z,,0,,,7622.3100000954,completion,,,,,false,,,,831182.7000000477,831182.4000000954,823543.456,823596.100000143,823560.09,831141.571,8,400,,,
trial,html.Screen,4_120_0,2023-09-08T20:02:13.803Z,,0,3,,6639.929000000004,response,ISIC_0010262.JPG,5,ISIC_6644659.JPG,ISIC_0010262.JPG,false,1,keypress(m),500,837781.600000143,837781.5,831124.846,831182.7000000477,831141.571,837737.732,8,400,21,,ISIC_6644659.JPG
break,html.Screen,4_120_1,2023-09-08T20:02:13.804Z,,0,,,NaN,,,,,,false,,,,837782.100000143,837782,,837781.7000000477,,837737.732,8,400,,,
break_continue,html.Screen,4_120_2,2023-09-08T20:02:13.804Z,,0,,,NaN,,,,,,false,,,,837782.4000000954,837782.3000001907,,837782.2000000477,,837737.732,8,400,,,
sequence,flow.Sequence,4_120,2023-09-08T20:02:13.804Z,,0,,,6640.729000190739,completion,,,,,false,,,,837782.5,837782.3000001907,831124.846,831182.7000000477,831141.571,837737.732,8,400,,,
trial,html.Screen,4_121_0,2023-09-08T20:02:19.117Z,,0,3,,5357.368000143091,response,ISIC_0027764.JPG,6,ISIC_3979826.JPG,ISIC_0027764.JPG,false,1,keypress(m),500,843095.3000001907,843095.100000143,837721.111,837782.600000143,837737.732,843048.056,8,400,22,,ISIC_3979826.JPG
break,html.Screen,4_121_1,2023-09-08T20:02:19.117Z,,0,,,NaN,,,,,,false,,,,843095.7000000477,843095.5,,843095.4000000954,,843048.056,8,400,,,
break_continue,html.Screen,4_121_2,2023-09-08T20:02:19.117Z,,0,,,NaN,,,,,,false,,,,843095.9000000954,843095.9000000954,,843095.8000001907,,843048.056,8,400,,,
sequence,flow.Sequence,4_121,2023-09-08T20:02:19.118Z,,0,,,5358.1680000954075,completion,,,,,false,,,,843096,843095.9000000954,837721.111,837782.5,837737.732,843048.056,8,400,,,
trial,html.Screen,4_122_0,2023-09-08T20:02:25.061Z,,0,3,,5990.744000190753,response,ISIC_0009713.JPG,5,ISIC_0071944.JPG,ISIC_0071944.JPG,false,0,keypress(z),500,849039.100000143,849038.8000001907,843031.392,843096.100000143,843048.056,848992.967,8,400,23,,ISIC_0009713.JPG
break,html.Screen,4_122_1,2023-09-08T20:02:25.062Z,,0,,,NaN,,,,,,false,,,,849040.5,849040.100000143,,849039.600000143,,848992.967,8,400,,,
break_continue,html.Screen,4_122_2,2023-09-08T20:02:25.063Z,,0,,,NaN,,,,,,false,,,,849041.2000000477,849041,,849040.8000001907,,848992.967,8,400,,,
sequence,flow.Sequence,4_122,2023-09-08T20:02:25.063Z,,0,,,5992.944000000018,completion,,,,,false,,,,849041.9000000954,849041,843031.392,843096.100000143,843048.056,848992.967,8,400,,,
trial,html.Screen,4_123_0,2023-09-08T20:02:33.866Z,,0,3,,8851.033000000054,response,ISIC_0014542.JPG,6,ISIC_0064742.JPG,ISIC_0014542.JPG,false,1,keypress(m),500,857844.3000001907,857844,848976.304,849042.3000001907,848992.967,857810.099,8,400,24,,ISIC_0064742.JPG
break,html.Screen,4_123_1,2023-09-08T20:02:33.867Z,,0,,,NaN,,,,,,false,,,,857845.5,857845.2000000477,,857844.7000000477,,857810.099,8,400,,,
break_continue,html.Screen,4_123_2,2023-09-08T20:02:33.868Z,,0,,,NaN,,,,,,false,,,,857846.100000143,857845.9000000954,,857845.7000000477,,857810.099,8,400,,,
sequence,flow.Sequence,4_123,2023-09-08T20:02:33.868Z,,0,,,8852.933000095421,completion,,,,,false,,,,857846.4000000954,857845.9000000954,848976.304,849042.100000143,848992.967,857810.099,8,400,,,
trial,html.Screen,4_124_0,2023-09-08T20:02:37.634Z,,0,3,,3802.7010001906892,response,ISIC_1937197.JPG,5,ISIC_9828053.JPG,ISIC_1937197.JPG,false,1,keypress(m),500,861612.9000000954,861612.8000001907,857793.449,857846.600000143,857810.099,861567.396,8,400,25,,ISIC_9828053.JPG
break,html.Screen,4_124_1,2023-09-08T20:02:37.635Z,,0,,,NaN,,,,,,false,,,,861613.3000001907,861613.2000000477,,861613,,861567.396,8,400,,,
break_continue,html.Screen,4_124_2,2023-09-08T20:02:37.635Z,,0,,,NaN,,,,,,false,,,,861613.5,861613.4000000954,,861613.4000000954,,861567.396,8,400,,,
sequence,flow.Sequence,4_124,2023-09-08T20:02:37.635Z,,0,,,3803.301000095322,completion,,,,,false,,,,861613.5,861613.4000000954,857793.449,857846.5,857810.099,861567.396,8,400,,,
trial,html.Screen,4_125_0,2023-09-08T20:02:45.574Z,,0,3,,7984.204000143101,response,ISIC_3576066.JPG,5,ISIC_0021442.JPG,ISIC_0021442.JPG,false,0,keypress(z),500,869551.9000000954,869551.600000143,861550.719,861613.600000143,861567.396,869516.307,8,400,26,,ISIC_3576066.JPG
break,html.Screen,4_125_1,2023-09-08T20:02:45.574Z,,0,,,NaN,,,,,,false,,,,869552.5,869552.3000001907,,869552,,869516.307,8,400,,,
break_continue,html.Screen,4_125_2,2023-09-08T20:02:45.575Z,,0,,,NaN,,,,,,false,,,,869552.8000001907,869552.7000000477,,869552.7000000477,,869516.307,8,400,,,
sequence,flow.Sequence,4_125,2023-09-08T20:02:45.575Z,,0,,,7985.304000047734,completion,,,,,false,,,,869553,869552.7000000477,861550.719,861613.600000143,861567.396,869516.307,8,400,,,
trial,html.Screen,4_126_0,2023-09-08T20:02:50.953Z,,0,3,,5414.69299999997,response,ISIC_2987630.JPG,5,ISIC_0006118.JPG,ISIC_2987630.JPG,false,1,keypress(m),500,874931.100000143,874931,869499.58,869553.100000143,869516.307,874893.346,8,400,27,,ISIC_0006118.JPG
