sender,sender_type,sender_id,timestamp,meta,,blockNo,condition,duration,ended_on,img_left,img_reveal,img_right,loser,practice,response,response_action,selection_duration,time_commit,time_end,time_render,time_run,time_show,time_switch,total_blocks,total_trials,trialNo,url,winner
informed_consent,html.Screen,0,2023-09-01T20:59:27.841Z,"{""labjs_version"":""20.2.4"",""labjs_build"":{""flavor"":""development"",""commit"":""f5b4a49f956347addd546a832a3327688c2c0fef""},""location"":""https://labjs.felixhenninger.com/api/labjs_preview/index.html"",""userAgent"":""Mozilla/5.0 (Windows NT 10.0; Win64; x64; rv:108.0) Gecko/20100101 Firefox/108.0"",""platform"":""Win32"",""language"":""en-US"",""locale"":""en-US"",""timeZone"":""America/Chicago"",""timezoneOffset"":300,""screen_width"":2560,""screen_height"":1440,""scroll_width"":2560,""scroll_height"":1288,""window_innerWidth"":2560,""window_innerHeight"":1336,""devicePixelRatio"":1}",,,,7445,response,,,,,,consent,click button,,7837,7820,358.32,357,375,7847.52,,,,{},
Welcome,html.Screen,1,2023-09-01T20:59:35.922Z,,,,symmetry,8066.48,response,,,,,,continue,click button,,15918,15914,7836.4,7837,7847.52,15921.32,,,,,
trial,html.Screen,2_0_0,2023-09-01T20:59:42.142Z,,0,0,,6215.68,response,ISIC_6997061.JPG,,ISIC_0069348.JPG,ISIC_0069348.JPG,true,0,keypress(z),500,22138,22137,15916.74,15919,15921.32,22138.78,1,6,1,,ISIC_6997061.JPG
sequence,flow.Sequence,2_0,2023-09-01T20:59:42.142Z,,0,,,6215.68,completion,,,,,true,,,,22139,22137,15916.74,15919,15921.32,22138.78,1,6,,,
trial,html.Screen,2_1_0,2023-09-01T20:59:47.310Z,,0,0,,5165.220000000001,response,ISIC_0009529.JPG,,ISIC_0057368.JPG,ISIC_0057368.JPG,true,0,keypress(z),500,27305,27304,22138.62,22139,22138.78,27308.8,1,6,2,,ISIC_0009529.JPG
sequence,flow.Sequence,2_1,2023-09-01T20:59:47.311Z,,0,,,5165.220000000001,completion,,,,,true,,,,27307,27304,22138.62,22139,22138.78,27308.8,1,6,,,
trial,html.Screen,2_2_0,2023-09-01T20:59:51.469Z,,0,0,,4156.200000000001,response,ISIC_0064954.JPG,,ISIC_9758671.JPG,ISIC_9758671.JPG,true,0,keypress(z),500,31465,31465,27308.24,27308,27308.8,31466.44,1,6,3,,ISIC_0064954.JPG
sequence,flow.Sequence,2_2,2023-09-01T20:59:51.469Z,,0,,,4156.200000000001,completion,,,,,true,,,,31466,31465,27308.24,27308,27308.8,31466.44,1,6,,,
trial,html.Screen,2_3_0,2023-09-01T20:59:55.426Z,,0,0,,3956.5600000000013,response,ISIC_0005785.JPG,,ISIC_0000080.JPG,ISIC_0005785.JPG,true,1,keypress(m),500,35423,35423,31466.06,31466,31466.44,35423.14,1,6,4,,ISIC_0000080.JPG
sequence,flow.Sequence,2_3,2023-09-01T20:59:55.427Z,,0,,,3956.5600000000013,completion,,,,,true,,,,35423,35423,31466.06,31466,31466.44,35423.14,1,6,,,
trial,html.Screen,2_4_0,2023-09-01T20:59:59.337Z,,0,0,,3909.8600000000006,response,ISIC_5390060.JPG,,ISIC_7944028.JPG,ISIC_5390060.JPG,true,1,keypress(m),500,39333,39333,35422.96,35423,35423.14,39334.28,1,6,5,,ISIC_7944028.JPG
sequence,flow.Sequence,2_4,2023-09-01T20:59:59.338Z,,0,,,3909.8600000000006,completion,,,,,true,,,,39333,39333,35422.96,35423,35423.14,39334.28,1,6,,,
trial,html.Screen,2_5_0,2023-09-01T21:00:02.619Z,,0,0,,3280.720000000001,response,ISIC_0010188.JPG,,ISIC_0794216.JPG,ISIC_0794216.JPG,true,0,keypress(z),500,42615,42615,39333.96,39334,39334.28,42617.74,1,6,6,,ISIC_0010188.JPG
sequence,flow.Sequence,2_5,2023-09-01T21:00:02.620Z,,0,,,3280.720000000001,completion,,,,,true,,,,42616,42615,39333.96,39334,39334.28,42617.74,1,6,,,
loop,flow.Loop,2,2023-09-01T21:00:02.621Z,,,,,26693.68,completion,,,,,true,,,,42617,42615,15916.74,15919,15921.32,42617.74,1,6,,,
exp_instructions,html.Screen,3,2023-09-01T21:00:29.375Z,,,,,26732.260000000002,response,,,,,,continue,keypress(Space),,69371,69350,42617.3,42617,42617.74,69372.96,,,,,
trial,html.Screen,4_0_0,2023-09-01T21:00:34.050Z,,0,1,,4672.039999999994,response,ISIC_9059311.JPG,15,ISIC_0058661.JPG,ISIC_9059311.JPG,false,1,keypress(m),500,74046,74045,69372.7,69373,69372.96,74046.7,8,400,1,,ISIC_0058661.JPG
break,html.Screen,4_0_1,2023-09-01T21:00:34.051Z,,0,,,NaN,,,,,,false,,,,74047,74046,,74046,,74046.7,8,400,,,
break_continue,html.Screen,4_0_2,2023-09-01T21:00:34.052Z,,0,,,NaN,,,,,,false,,,,74047,74047,,74047,,74046.7,8,400,,,
sequence,flow.Sequence,4_0,2023-09-01T21:00:34.052Z,,0,,,4674.039999999994,completion,,,,,false,,,,74049,74047,69372.7,69373,69372.96,74046.7,8,400,,,
trial,html.Screen,4_1_0,2023-09-01T21:00:37.495Z,,0,1,,3444.300000000003,response,ISIC_7240424.JPG,13,ISIC_0001792.JPG,ISIC_0001792.JPG,false,0,keypress(z),500,77491,77491,74046.58,74049,74046.7,77491.58,8,400,2,,ISIC_7240424.JPG
break,html.Screen,4_1_1,2023-09-01T21:00:37.496Z,,0,,,NaN,,,,,,false,,,,77491,77491,,77491,,77491.58,8,400,,,
break_continue,html.Screen,4_1_2,2023-09-01T21:00:37.496Z,,0,,,NaN,,,,,,false,,,,77492,77492,,77492,,77491.58,8,400,,,
sequence,flow.Sequence,4_1,2023-09-01T21:00:37.496Z,,0,,,3445.300000000003,completion,,,,,false,,,,77492,77492,74046.58,74049,74046.7,77491.58,8,400,,,
trial,html.Screen,4_2_0,2023-09-01T21:00:42.019Z,,0,1,,4522.419999999998,response,ISIC_4907595.JPG,3,ISIC_0010752.JPG,ISIC_4907595.JPG,false,1,keypress(m),500,82014,82014,77491.3,77492,77491.58,82015.08,8,400,3,,ISIC_0010752.JPG
break,html.Screen,4_2_1,2023-09-01T21:00:42.020Z,,0,,,NaN,,,,,,false,,,,82016,82015,,82014,,82015.08,8,400,,,
break_continue,html.Screen,4_2_2,2023-09-01T21:00:42.021Z,,0,,,NaN,,,,,,false,,,,82017,82017,,82016,,82015.08,8,400,,,
sequence,flow.Sequence,4_2,2023-09-01T21:00:42.022Z,,0,,,4525.419999999998,completion,,,,,false,,,,82018,82017,77491.3,77492,77491.58,82015.08,8,400,,,
trial,html.Screen,4_3_0,2023-09-01T21:00:45.100Z,,0,1,,3080.9199999999983,response,ISIC_0010510.JPG,20,ISIC_0012137.JPG,ISIC_0010510.JPG,false,1,keypress(m),500,85097,85096,82014.9,82018,82015.08,85097.72,8,400,4,,ISIC_0012137.JPG
break,html.Screen,4_3_1,2023-09-01T21:00:45.102Z,,0,,,NaN,,,,,,false,,,,85097,85097,,85097,,85097.72,8,400,,,
break_continue,html.Screen,4_3_2,2023-09-01T21:00:45.102Z,,0,,,NaN,,,,,,false,,,,85098,85098,,85098,,85097.72,8,400,,,
sequence,flow.Sequence,4_3,2023-09-01T21:00:45.102Z,,0,,,3082.9199999999983,completion,,,,,false,,,,85098,85098,82014.9,82018,82015.08,85097.72,8,400,,,
trial,html.Screen,4_4_0,2023-09-01T21:00:48.542Z,,0,1,,3440.279999999999,response,ISIC_0024865.JPG,6,ISIC_7297078.JPG,ISIC_0024865.JPG,false,1,keypress(m),500,88538,88538,85097.2,85098,85097.72,88538.98,8,400,5,,ISIC_7297078.JPG
break,html.Screen,4_4_1,2023-09-01T21:00:48.542Z,,0,,,NaN,,,,,,false,,,,88538,88538,,88538,,88538.98,8,400,,,
break_continue,html.Screen,4_4_2,2023-09-01T21:00:48.542Z,,0,,,NaN,,,,,,false,,,,88538,88538,,88538,,88538.98,8,400,,,
sequence,flow.Sequence,4_4,2023-09-01T21:00:48.544Z,,0,,,3440.279999999999,completion,,,,,false,,,,88539,88538,85097.2,85098,85097.72,88538.98,8,400,,,
trial,html.Screen,4_5_0,2023-09-01T21:00:52.363Z,,0,1,,3820.020000000004,response,ISIC_7642591.JPG,8,ISIC_9358630.JPG,ISIC_9358630.JPG,false,0,keypress(z),500,92359,92359,88538.5,88539,88538.98,92360.44,8,400,6,,ISIC_7642591.JPG
break,html.Screen,4_5_1,2023-09-01T21:00:52.365Z,,0,,,NaN,,,,,,false,,,,92361,92361,,92360,,92360.44,8,400,,,
break_continue,html.Screen,4_5_2,2023-09-01T21:00:52.367Z,,0,,,NaN,,,,,,false,,,,92362,92362,,92362,,92360.44,8,400,,,
sequence,flow.Sequence,4_5,2023-09-01T21:00:52.367Z,,0,,,3823.020000000004,completion,,,,,false,,,,92362,92362,88538.5,88539,88538.98,92360.44,8,400,,,
trial,html.Screen,4_6_0,2023-09-01T21:00:55.781Z,,0,1,,3414.5599999999977,response,ISIC_0031985.JPG,8,ISIC_0301568.JPG,ISIC_0301568.JPG,false,0,keypress(z),500,95776,95775,92359.96,92363,92360.44,95778.84,8,400,7,,ISIC_0031985.JPG
break,html.Screen,4_6_1,2023-09-01T21:00:55.783Z,,0,,,NaN,,,,,,false,,,,95778,95777,,95777,,95778.84,8,400,,,
break_continue,html.Screen,4_6_2,2023-09-01T21:00:55.784Z,,0,,,NaN,,,,,,false,,,,95779,95779,,95779,,95778.84,8,400,,,
sequence,flow.Sequence,4_6,2023-09-01T21:00:55.784Z,,0,,,3418.5599999999977,completion,,,,,false,,,,95780,95779,92359.96,92363,92360.44,95778.84,8,400,,,
trial,html.Screen,4_7_0,2023-09-01T21:00:59.421Z,,0,1,,3637.1600000000035,response,ISIC_0029581.JPG,18,ISIC_0011095.JPG,ISIC_0011095.JPG,false,0,keypress(z),500,99416,99416,95777.1,95780,95778.84,99416.92,8,400,8,,ISIC_0029581.JPG
break,html.Screen,4_7_1,2023-09-01T21:00:59.422Z,,0,,,NaN,,,,,,false,,,,99417,99417,,99417,,99416.92,8,400,,,
break_continue,html.Screen,4_7_2,2023-09-01T21:00:59.422Z,,0,,,NaN,,,,,,false,,,,99418,99418,,99417,,99416.92,8,400,,,
sequence,flow.Sequence,4_7,2023-09-01T21:00:59.422Z,,0,,,3639.1600000000035,completion,,,,,false,,,,99418,99418,95777.1,95780,95778.84,99416.92,8,400,,,
trial,html.Screen,4_8_0,2023-09-01T21:01:03.205Z,,0,1,,3782.0800000000017,response,ISIC_3281565.JPG,22,ISIC_0054006.JPG,ISIC_3281565.JPG,false,1,keypress(m),500,103200,103199,99416.54,99418,99416.92,103202.2,8,400,9,,ISIC_0054006.JPG
break,html.Screen,4_8_1,2023-09-01T21:01:03.207Z,,0,,,NaN,,,,,,false,,,,103203,103203,,103201,,103202.2,8,400,,,
break_continue,html.Screen,4_8_2,2023-09-01T21:01:03.208Z,,0,,,NaN,,,,,,false,,,,103204,103204,,103204,,103202.2,8,400,,,
sequence,flow.Sequence,4_8,2023-09-01T21:01:03.209Z,,0,,,3787.0800000000017,completion,,,,,false,,,,103205,103204,99416.54,99418,99416.92,103202.2,8,400,,,
trial,html.Screen,4_9_0,2023-09-01T21:01:07.469Z,,0,1,,4261.800000000003,response,ISIC_6644659.JPG,27,ISIC_0055393.JPG,ISIC_6644659.JPG,false,1,keypress(m),500,107465,107464,103201.56,103206,103202.2,107465.88,8,400,10,,ISIC_0055393.JPG
break,html.Screen,4_9_1,2023-09-01T21:01:07.470Z,,0,,,NaN,,,,,,false,,,,107466,107466,,107465,,107465.88,8,400,,,
break_continue,html.Screen,4_9_2,2023-09-01T21:01:07.471Z,,0,,,NaN,,,,,,false,,,,107466,107466,,107466,,107465.88,8,400,,,
sequence,flow.Sequence,4_9,2023-09-01T21:01:07.471Z,,0,,,4263.800000000003,completion,,,,,false,,,,107467,107466,103201.56,103206,103202.2,107465.88,8,400,,,
trial,html.Screen,4_10_0,2023-09-01T21:01:11.271Z,,0,1,,3800.1199999999953,response,ISIC_0057997.JPG,4,ISIC_4960784.JPG,ISIC_4960784.JPG,false,0,keypress(z),500,111267,111266,107465.54,107467,107465.88,111268.38,8,400,11,,ISIC_0057997.JPG
break,html.Screen,4_10_1,2023-09-01T21:01:11.273Z,,0,,,NaN,,,,,,false,,,,111269,111268,,111267,,111268.38,8,400,,,
break_continue,html.Screen,4_10_2,2023-09-01T21:01:11.274Z,,0,,,NaN,,,,,,false,,,,111270,111269,,111269,,111268.38,8,400,,,
sequence,flow.Sequence,4_10,2023-09-01T21:01:11.274Z,,0,,,3803.1199999999953,completion,,,,,false,,,,111270,111269,107465.54,107467,107465.88,111268.38,8,400,,,
trial,html.Screen,4_11_0,2023-09-01T21:01:15.373Z,,0,1,,4100.619999999995,response,ISIC_2518672.JPG,0,ISIC_0032797.JPG,ISIC_2518672.JPG,false,1,keypress(m),500,115370,115369,111268.02,111271,111268.38,115371.08,8,400,12,,ISIC_0032797.JPG
break,html.Screen,4_11_1,2023-09-01T21:01:15.376Z,,0,,,NaN,,,,,,false,,,,115371,115371,,115370,,115371.08,8,400,,,
break_continue,html.Screen,4_11_2,2023-09-01T21:01:15.376Z,,0,,,NaN,,,,,,false,,,,115373,115373,,115373,,115371.08,8,400,,,
sequence,flow.Sequence,4_11,2023-09-01T21:01:15.377Z,,0,,,4104.619999999995,completion,,,,,false,,,,115373,115373,111268.02,111271,111268.38,115371.08,8,400,,,
trial,html.Screen,4_12_0,2023-09-01T21:01:20.274Z,,0,1,,4896.919999999998,response,ISIC_7935989.JPG,16,ISIC_0016128.JPG,ISIC_0016128.JPG,false,0,keypress(z),500,120269,120268,115370.46,115374,115371.08,120270.76,8,400,13,,ISIC_7935989.JPG
break,html.Screen,4_12_1,2023-09-01T21:01:20.276Z,,0,,,NaN,,,,,,false,,,,120272,120271,,120270,,120270.76,8,400,,,
break_continue,html.Screen,4_12_2,2023-09-01T21:01:20.277Z,,0,,,NaN,,,,,,false,,,,120273,120272,,120272,,120270.76,8,400,,,
sequence,flow.Sequence,4_12,2023-09-01T21:01:20.277Z,,0,,,4900.919999999998,completion,,,,,false,,,,120273,120272,115370.46,115373,115371.08,120270.76,8,400,,,
trial,html.Screen,4_13_0,2023-09-01T21:01:24.371Z,,0,1,,4096.240000000005,response,ISIC_0013525.JPG,10,ISIC_0026780.JPG,ISIC_0013525.JPG,false,1,keypress(m),500,124367,124367,120270.26,120273,120270.76,124368.64,8,400,14,,ISIC_0026780.JPG
break,html.Screen,4_13_1,2023-09-01T21:01:24.373Z,,0,,,NaN,,,,,,false,,,,124369,124368,,124368,,124368.64,8,400,,,
break_continue,html.Screen,4_13_2,2023-09-01T21:01:24.375Z,,0,,,NaN,,,,,,false,,,,124371,124370,,124370,,124368.64,8,400,,,
sequence,flow.Sequence,4_13,2023-09-01T21:01:24.375Z,,0,,,4099.240000000005,completion,,,,,false,,,,124371,124370,120270.26,120273,120270.76,124368.64,8,400,,,
trial,html.Screen,4_14_0,2023-09-01T21:01:27.659Z,,0,1,,3285.3600000000006,response,ISIC_0061751.JPG,2,ISIC_0066213.JPG,ISIC_0066213.JPG,false,0,keypress(z),500,127655,127654,124368.08,124371,124368.64,127656.54,8,400,15,,ISIC_0061751.JPG
break,html.Screen,4_14_1,2023-09-01T21:01:27.661Z,,0,,,NaN,,,,,,false,,,,127657,127656,,127656,,127656.54,8,400,,,
break_continue,html.Screen,4_14_2,2023-09-01T21:01:27.662Z,,0,,,NaN,,,,,,false,,,,127658,127658,,127657,,127656.54,8,400,,,
sequence,flow.Sequence,4_14,2023-09-01T21:01:27.663Z,,0,,,3289.3600000000006,completion,,,,,false,,,,127658,127658,124368.08,124371,124368.64,127656.54,8,400,,,
trial,html.Screen,4_15_0,2023-09-01T21:01:30.892Z,,0,1,,3230.4600000000064,response,ISIC_3519679.JPG,10,ISIC_0056689.JPG,ISIC_3519679.JPG,false,1,keypress(m),500,130887,130887,127656,127660,127656.54,130888.74,8,400,16,,ISIC_0056689.JPG
break,html.Screen,4_15_1,2023-09-01T21:01:30.894Z,,0,,,NaN,,,,,,false,,,,130890,130889,,130888,,130888.74,8,400,,,
break_continue,html.Screen,4_15_2,2023-09-01T21:01:30.894Z,,0,,,NaN,,,,,,false,,,,130891,130890,,130890,,130888.74,8,400,,,
sequence,flow.Sequence,4_15,2023-09-01T21:01:30.895Z,,0,,,3233.4600000000064,completion,,,,,false,,,,130891,130890,127656,127659,127656.54,130888.74,8,400,,,
trial,html.Screen,4_16_0,2023-09-01T21:01:34.995Z,,0,1,,4102.259999999995,response,ISIC_0009868.JPG,8,ISIC_5581931.JPG,ISIC_0009868.JPG,false,1,keypress(m),500,134991,134991,130888.16,130891,130888.74,134992.96,8,400,17,,ISIC_5581931.JPG
break,html.Screen,4_16_1,2023-09-01T21:01:34.997Z,,0,,,NaN,,,,,,false,,,,134993,134993,,134992,,134992.96,8,400,,,
break_continue,html.Screen,4_16_2,2023-09-01T21:01:34.998Z,,0,,,NaN,,,,,,false,,,,134994,134994,,134994,,134992.96,8,400,,,
sequence,flow.Sequence,4_16,2023-09-01T21:01:34.999Z,,0,,,4105.259999999995,completion,,,,,false,,,,134995,134994,130888.16,130891,130888.74,134992.96,8,400,,,
trial,html.Screen,4_17_0,2023-09-01T21:01:38.843Z,,0,1,,3845.040000000008,response,ISIC_0070992.JPG,21,ISIC_0028788.JPG,ISIC_0070992.JPG,false,1,keypress(m),500,138838,138838,134992.4,134995,134992.96,138839.9,8,400,18,,ISIC_0028788.JPG
break,html.Screen,4_17_1,2023-09-01T21:01:38.846Z,,0,,,NaN,,,,,,false,,,,138841,138840,,138839,,138839.9,8,400,,,
break_continue,html.Screen,4_17_2,2023-09-01T21:01:38.847Z,,0,,,NaN,,,,,,false,,,,138842,138842,,138841,,138839.9,8,400,,,
sequence,flow.Sequence,4_17,2023-09-01T21:01:38.847Z,,0,,,3849.040000000008,completion,,,,,false,,,,138843,138842,134992.4,134995,134992.96,138839.9,8,400,,,
trial,html.Screen,4_18_0,2023-09-01T21:01:43.196Z,,0,1,,4352.100000000006,response,ISIC_6617840.JPG,5,ISIC_0072215.JPG,ISIC_0072215.JPG,false,0,keypress(z),500,143192,143192,138839.34,138843,138839.9,143192.98,8,400,19,,ISIC_6617840.JPG
break,html.Screen,4_18_1,2023-09-01T21:01:43.197Z,,0,,,NaN,,,,,,false,,,,143193,143193,,143193,,143192.98,8,400,,,
break_continue,html.Screen,4_18_2,2023-09-01T21:01:43.198Z,,0,,,NaN,,,,,,false,,,,143194,143193,,143193,,143192.98,8,400,,,
sequence,flow.Sequence,4_18,2023-09-01T21:01:43.198Z,,0,,,4353.100000000006,completion,,,,,false,,,,143194,143193,138839.34,138843,138839.9,143192.98,8,400,,,
trial,html.Screen,4_19_0,2023-09-01T21:01:47.073Z,,0,1,,3875.0199999999895,response,ISIC_2070595.JPG,30,ISIC_0004099.JPG,ISIC_2070595.JPG,false,1,keypress(m),500,147069,147068,143192.5,143194,143192.98,147070.24,8,400,20,,ISIC_0004099.JPG
break,html.Screen,4_19_1,2023-09-01T21:01:47.075Z,,0,,,NaN,,,,,,false,,,,147071,147071,,147070,,147070.24,8,400,,,
break_continue,html.Screen,4_19_2,2023-09-01T21:01:47.077Z,,0,,,NaN,,,,,,false,,,,147073,147073,,147073,,147070.24,8,400,,,
sequence,flow.Sequence,4_19,2023-09-01T21:01:47.078Z,,0,,,3880.0199999999895,completion,,,,,false,,,,147074,147073,143192.5,143194,143192.98,147070.24,8,400,,,
trial,html.Screen,4_20_0,2023-09-01T21:01:50.526Z,,0,1,,3450.7600000000093,response,ISIC_4943797.JPG,17,ISIC_0065775.JPG,ISIC_0065775.JPG,false,0,keypress(z),500,150522,150521,147069.46,147074,147070.24,150523.64,8,400,21,,ISIC_4943797.JPG
break,html.Screen,4_20_1,2023-09-01T21:01:50.528Z,,0,,,NaN,,,,,,false,,,,150524,150524,,150523,,150523.64,8,400,,,
break_continue,html.Screen,4_20_2,2023-09-01T21:01:50.529Z,,0,,,NaN,,,,,,false,,,,150524,150524,,150524,,150523.64,8,400,,,
sequence,flow.Sequence,4_20,2023-09-01T21:01:50.529Z,,0,,,3453.7600000000093,completion,,,,,false,,,,150525,150524,147069.46,147074,147070.24,150523.64,8,400,,,
trial,html.Screen,4_21_0,2023-09-01T21:01:54.385Z,,0,1,,3854.359999999986,response,ISIC_0071681.JPG,25,ISIC_0068884.JPG,ISIC_0071681.JPG,false,1,keypress(m),500,154380,154378,150523.1,150526,150523.64,154381.74,8,400,22,,ISIC_0068884.JPG
break,html.Screen,4_21_1,2023-09-01T21:01:54.387Z,,0,,,NaN,,,,,,false,,,,154383,154382,,154381,,154381.74,8,400,,,
break_continue,html.Screen,4_21_2,2023-09-01T21:01:54.388Z,,0,,,NaN,,,,,,false,,,,154384,154384,,154384,,154381.74,8,400,,,
sequence,flow.Sequence,4_21,2023-09-01T21:01:54.388Z,,0,,,3860.359999999986,completion,,,,,false,,,,154384,154384,150523.1,150525,150523.64,154381.74,8,400,,,
trial,html.Screen,4_22_0,2023-09-01T21:01:57.833Z,,0,1,,3445.2600000000093,response,ISIC_1910158.JPG,9,ISIC_0030660.JPG,ISIC_0030660.JPG,false,0,keypress(z),500,157829,157827,154381.24,154385,154381.74,157829.84,8,400,23,,ISIC_1910158.JPG
break,html.Screen,4_22_1,2023-09-01T21:01:57.834Z,,0,,,NaN,,,,,,false,,,,157830,157830,,157829,,157829.84,8,400,,,
break_continue,html.Screen,4_22_2,2023-09-01T21:01:57.836Z,,0,,,NaN,,,,,,false,,,,157832,157831,,157831,,157829.84,8,400,,,
sequence,flow.Sequence,4_22,2023-09-01T21:01:57.837Z,,0,,,3449.2600000000093,completion,,,,,false,,,,157833,157831,154381.24,154385,154381.74,157829.84,8,400,,,
trial,html.Screen,4_23_0,2023-09-01T21:02:02.971Z,,0,1,,5136.1600000000035,response,ISIC_0069273.JPG,5,ISIC_0000129.JPG,ISIC_0069273.JPG,false,1,keypress(m),500,162966,162966,157829.18,157834,157829.84,162968.08,8,400,24,,ISIC_0000129.JPG
break,html.Screen,4_23_1,2023-09-01T21:02:02.973Z,,0,,,NaN,,,,,,false,,,,162969,162968,,162967,,162968.08,8,400,,,
break_continue,html.Screen,4_23_2,2023-09-01T21:02:02.974Z,,0,,,NaN,,,,,,false,,,,162971,162970,,162970,,162968.08,8,400,,,
sequence,flow.Sequence,4_23,2023-09-01T21:02:02.975Z,,0,,,5140.1600000000035,completion,,,,,false,,,,162971,162970,157829.18,157833,157829.84,162968.08,8,400,,,
trial,html.Screen,4_24_0,2023-09-01T21:02:09.743Z,,0,1,,6769.920000000013,response,ISIC_0031517.JPG,5,ISIC_8588957.JPG,ISIC_0031517.JPG,false,1,keypress(m),500,169740,169738,162967.4,162972,162968.08,169741.5,8,400,25,,ISIC_8588957.JPG
break,html.Screen,4_24_1,2023-09-01T21:02:09.746Z,,0,,,NaN,,,,,,false,,,,169742,169742,,169741,,169741.5,8,400,,,
break_continue,html.Screen,4_24_2,2023-09-01T21:02:09.747Z,,0,,,NaN,,,,,,false,,,,169743,169743,,169743,,169741.5,8,400,,,
sequence,flow.Sequence,4_24,2023-09-01T21:02:09.748Z,,0,,,6774.920000000013,completion,,,,,false,,,,169744,169743,162967.4,162971,162968.08,169741.5,8,400,,,
trial,html.Screen,4_25_0,2023-09-01T21:02:12.755Z,,0,1,,3007.5,response,ISIC_0058040.JPG,5,ISIC_0072382.JPG,ISIC_0058040.JPG,false,1,keypress(m),500,172750,172749,169740.56,169744,169741.5,172751.74,8,400,26,,ISIC_0072382.JPG
break,html.Screen,4_25_1,2023-09-01T21:02:12.757Z,,0,,,NaN,,,,,,false,,,,172752,172752,,172751,,172751.74,8,400,,,
break_continue,html.Screen,4_25_2,2023-09-01T21:02:12.758Z,,0,,,NaN,,,,,,false,,,,172754,172754,,172753,,172751.74,8,400,,,
sequence,flow.Sequence,4_25,2023-09-01T21:02:12.758Z,,0,,,3012.5,completion,,,,,false,,,,172754,172754,169740.56,169744,169741.5,172751.74,8,400,,,
trial,html.Screen,4_26_0,2023-09-01T21:02:16.849Z,,0,1,,4093.2600000000093,response,ISIC_0034218.JPG,8,ISIC_3633306.JPG,ISIC_0034218.JPG,false,1,keypress(m),500,176845,176845,172751.12,172755,172751.74,176846.52,8,400,27,,ISIC_3633306.JPG
break,html.Screen,4_26_1,2023-09-01T21:02:16.851Z,,0,,,NaN,,,,,,false,,,,176847,176847,,176846,,176846.52,8,400,,,
break_continue,html.Screen,4_26_2,2023-09-01T21:02:16.852Z,,0,,,NaN,,,,,,false,,,,176848,176848,,176848,,176846.52,8,400,,,
sequence,flow.Sequence,4_26,2023-09-01T21:02:16.853Z,,0,,,4096.260000000009,completion,,,,,false,,,,176849,176848,172751.12,172755,172751.74,176846.52,8,400,,,
trial,html.Screen,4_27_0,2023-09-01T21:02:24.031Z,,0,1,,7179.4800000000105,response,ISIC_4404772.JPG,24,ISIC_0011500.JPG,ISIC_4404772.JPG,false,1,keypress(m),500,184027,184026,176845.82,176849,176846.52,184027.92,8,400,28,,ISIC_0011500.JPG
break,html.Screen,4_27_1,2023-09-01T21:02:24.032Z,,0,,,NaN,,,,,,false,,,,184029,184028,,184027,,184027.92,8,400,,,
break_continue,html.Screen,4_27_2,2023-09-01T21:02:24.034Z,,0,,,NaN,,,,,,false,,,,184030,184029,,184029,,184027.92,8,400,,,
sequence,flow.Sequence,4_27,2023-09-01T21:02:24.034Z,,0,,,7182.4800000000105,completion,,,,,false,,,,184031,184029,176845.82,176849,176846.52,184027.92,8,400,,,
trial,html.Screen,4_28_0,2023-09-01T21:02:27.906Z,,0,1,,3874.079999999987,response,ISIC_3239813.JPG,19,ISIC_9472209.JPG,ISIC_9472209.JPG,false,0,keypress(z),500,187902,187902,184027.26,184031,184027.92,187902.84,8,400,29,,ISIC_3239813.JPG
break,html.Screen,4_28_1,2023-09-01T21:02:27.907Z,,0,,,NaN,,,,,,false,,,,187903,187903,,187902,,187902.84,8,400,,,
break_continue,html.Screen,4_28_2,2023-09-01T21:02:27.907Z,,0,,,NaN,,,,,,false,,,,187903,187903,,187903,,187902.84,8,400,,,
sequence,flow.Sequence,4_28,2023-09-01T21:02:27.907Z,,0,,,3875.079999999987,completion,,,,,false,,,,187903,187903,184027.26,184031,184027.92,187902.84,8,400,,,
trial,html.Screen,4_29_0,2023-09-01T21:02:31.567Z,,0,1,,3659.1600000000035,response,ISIC_0061580.JPG,0,ISIC_0010067.JPG,ISIC_0061580.JPG,false,1,keypress(m),500,191563,191562,187902.54,187903,187902.84,191567.46,8,400,30,,ISIC_0010067.JPG
break,html.Screen,4_29_1,2023-09-01T21:02:31.569Z,,0,,,NaN,,,,,,false,,,,191565,191564,,191564,,191567.46,8,400,,,
break_continue,html.Screen,4_29_2,2023-09-01T21:02:31.570Z,,0,,,NaN,,,,,,false,,,,191566,191565,,191565,,191567.46,8,400,,,
sequence,flow.Sequence,4_29,2023-09-01T21:02:31.570Z,,0,,,3662.1600000000035,completion,,,,,false,,,,191566,191565,187902.54,187903,187902.84,191567.46,8,400,,,
trial,html.Screen,4_30_0,2023-09-01T21:02:36.083Z,,0,1,,4511.540000000008,response,ISIC_0028126.JPG,12,ISIC_0033578.JPG,ISIC_0028126.JPG,false,1,keypress(m),500,196079,196079,191563.78,191567,191567.46,196079.9,8,400,31,,ISIC_0033578.JPG
break,html.Screen,4_30_1,2023-09-01T21:02:36.085Z,,0,,,NaN,,,,,,false,,,,196080,196080,,196080,,196079.9,8,400,,,
break_continue,html.Screen,4_30_2,2023-09-01T21:02:36.085Z,,0,,,NaN,,,,,,false,,,,196082,196081,,196081,,196079.9,8,400,,,
sequence,flow.Sequence,4_30,2023-09-01T21:02:36.086Z,,0,,,4513.540000000008,completion,,,,,false,,,,196082,196081,191563.78,191567,191567.46,196079.9,8,400,,,
trial,html.Screen,4_31_0,2023-09-01T21:02:40.285Z,,0,1,,4200.100000000006,response,ISIC_0010143.JPG,26,ISIC_0027304.JPG,ISIC_0010143.JPG,false,1,keypress(m),500,200281,200280,196079.36,196083,196079.9,200282.1,8,400,32,,ISIC_0027304.JPG
break,html.Screen,4_31_1,2023-09-01T21:02:40.288Z,,0,,,NaN,,,,,,false,,,,200283,200283,,200281,,200282.1,8,400,,,
break_continue,html.Screen,4_31_2,2023-09-01T21:02:40.289Z,,0,,,NaN,,,,,,false,,,,200285,200284,,200284,,200282.1,8,400,,,
sequence,flow.Sequence,4_31,2023-09-01T21:02:40.290Z,,0,,,4204.100000000006,completion,,,,,false,,,,200286,200284,196079.36,196083,196079.9,200282.1,8,400,,,
trial,html.Screen,4_32_0,2023-09-01T21:02:44.981Z,,0,1,,4694.899999999994,response,ISIC_3183782.JPG,6,ISIC_0027764.JPG,ISIC_0027764.JPG,false,0,keypress(z),500,204977,204977,200281.34,200286,200282.1,204978.72,8,400,33,,ISIC_3183782.JPG
break,html.Screen,4_32_1,2023-09-01T21:02:44.983Z,,0,,,NaN,,,,,,false,,,,204979,204978,,204978,,204978.72,8,400,,,
break_continue,html.Screen,4_32_2,2023-09-01T21:02:44.984Z,,0,,,NaN,,,,,,false,,,,204980,204979,,204979,,204978.72,8,400,,,
sequence,flow.Sequence,4_32,2023-09-01T21:02:44.984Z,,0,,,4696.899999999994,completion,,,,,false,,,,204980,204979,200281.34,200286,200282.1,204978.72,8,400,,,
trial,html.Screen,4_33_0,2023-09-01T21:02:50.585Z,,0,1,,5601.279999999999,response,ISIC_0070948.JPG,21,ISIC_6756517.JPG,ISIC_6756517.JPG,false,0,keypress(z),500,210581,210580,204978.1,204980,204978.72,210582.5,8,400,34,,ISIC_0070948.JPG
break,html.Screen,4_33_1,2023-09-01T21:02:50.588Z,,0,,,NaN,,,,,,false,,,,210584,210583,,210581,,210582.5,8,400,,,
break_continue,html.Screen,4_33_2,2023-09-01T21:02:50.589Z,,0,,,NaN,,,,,,false,,,,210584,210584,,210584,,210582.5,8,400,,,
sequence,flow.Sequence,4_33,2023-09-01T21:02:50.589Z,,0,,,5605.279999999999,completion,,,,,false,,,,210585,210584,204978.1,204980,204978.72,210582.5,8,400,,,
trial,html.Screen,4_34_0,2023-09-01T21:02:54.795Z,,0,1,,4208.5,response,ISIC_0025379.JPG,13,ISIC_5403296.JPG,ISIC_5403296.JPG,false,0,keypress(z),500,214791,214791,210581.84,210585,210582.5,214792.66,8,400,35,,ISIC_0025379.JPG
break,html.Screen,4_34_1,2023-09-01T21:02:54.797Z,,0,,,NaN,,,,,,false,,,,214793,214793,,214791,,214792.66,8,400,,,
break_continue,html.Screen,4_34_2,2023-09-01T21:02:54.799Z,,0,,,NaN,,,,,,false,,,,214794,214794,,214793,,214792.66,8,400,,,
sequence,flow.Sequence,4_34,2023-09-01T21:02:54.799Z,,0,,,4211.5,completion,,,,,false,,,,214795,214794,210581.84,210585,210582.5,214792.66,8,400,,,
trial,html.Screen,4_35_0,2023-09-01T21:02:59.146Z,,0,1,,4348.3399999999965,response,ISIC_4468129.JPG,12,ISIC_0012425.JPG,ISIC_4468129.JPG,false,1,keypress(m),500,219142,219141,214792,214796,214792.66,219143.26,8,400,36,,ISIC_0012425.JPG
break,html.Screen,4_35_1,2023-09-01T21:02:59.148Z,,0,,,NaN,,,,,,false,,,,219144,219144,,219143,,219143.26,8,400,,,
break_continue,html.Screen,4_35_2,2023-09-01T21:02:59.149Z,,0,,,NaN,,,,,,false,,,,219145,219145,,219144,,219143.26,8,400,,,
sequence,flow.Sequence,4_35,2023-09-01T21:02:59.149Z,,0,,,4352.3399999999965,completion,,,,,false,,,,219146,219145,214792,214796,214792.66,219143.26,8,400,,,
trial,html.Screen,4_36_0,2023-09-01T21:03:03.864Z,,0,1,,4715.739999999991,response,ISIC_6959281.JPG,12,ISIC_4548995.JPG,ISIC_4548995.JPG,false,0,keypress(z),500,223861,223859,219142.78,219146,219143.26,223861.36,8,400,37,,ISIC_6959281.JPG
break,html.Screen,4_36_1,2023-09-01T21:03:03.866Z,,0,,,NaN,,,,,,false,,,,223861,223861,,223861,,223861.36,8,400,,,
break_continue,html.Screen,4_36_2,2023-09-01T21:03:03.867Z,,0,,,NaN,,,,,,false,,,,223863,223863,,223862,,223861.36,8,400,,,
sequence,flow.Sequence,4_36,2023-09-01T21:03:03.867Z,,0,,,4719.739999999991,completion,,,,,false,,,,223863,223863,219142.78,219146,219143.26,223861.36,8,400,,,
trial,html.Screen,4_37_0,2023-09-01T21:03:07.532Z,,0,1,,3666.640000000014,response,ISIC_0644590.JPG,9,ISIC_0015631.JPG,ISIC_0015631.JPG,false,0,keypress(z),500,227528,227528,223860.78,223864,223861.36,227528.88,8,400,38,,ISIC_0644590.JPG
break,html.Screen,4_37_1,2023-09-01T21:03:07.533Z,,0,,,NaN,,,,,,false,,,,227529,227529,,227528,,227528.88,8,400,,,
break_continue,html.Screen,4_37_2,2023-09-01T21:03:07.534Z,,0,,,NaN,,,,,,false,,,,227530,227529,,227529,,227528.88,8,400,,,
sequence,flow.Sequence,4_37,2023-09-01T21:03:07.535Z,,0,,,3667.640000000014,completion,,,,,false,,,,227530,227529,223860.78,223864,223861.36,227528.88,8,400,,,
trial,html.Screen,4_38_0,2023-09-01T21:03:13.089Z,,0,1,,5556.119999999995,response,ISIC_0031425.JPG,1,ISIC_5646706.JPG,ISIC_5646706.JPG,false,0,keypress(z),500,233085,233085,227528.36,227530,227528.88,233086.58,8,400,39,,ISIC_0031425.JPG
break,html.Screen,4_38_1,2023-09-01T21:03:13.091Z,,0,,,NaN,,,,,,false,,,,233087,233087,,233086,,233086.58,8,400,,,
break_continue,html.Screen,4_38_2,2023-09-01T21:03:13.092Z,,0,,,NaN,,,,,,false,,,,233088,233088,,233087,,233086.58,8,400,,,
sequence,flow.Sequence,4_38,2023-09-01T21:03:13.092Z,,0,,,5559.119999999995,completion,,,,,false,,,,233088,233088,227528.36,227530,227528.88,233086.58,8,400,,,
trial,html.Screen,4_39_0,2023-09-01T21:03:16.462Z,,0,1,,3370.420000000013,response,ISIC_0030434.JPG,8,ISIC_0033258.JPG,ISIC_0033258.JPG,false,0,keypress(z),500,236458,236457,233086.24,233088,233086.58,236459.4,8,400,40,,ISIC_0030434.JPG
break,html.Screen,4_39_1,2023-09-01T21:03:16.464Z,,0,,,NaN,,,,,,false,,,,236460,236459,,236459,,236459.4,8,400,,,
break_continue,html.Screen,4_39_2,2023-09-01T21:03:16.465Z,,0,,,NaN,,,,,,false,,,,236461,236461,,236460,,236459.4,8,400,,,
sequence,flow.Sequence,4_39,2023-09-01T21:03:16.466Z,,0,,,3374.420000000013,completion,,,,,false,,,,236462,236461,233086.24,233088,233086.58,236459.4,8,400,,,
trial,html.Screen,4_40_0,2023-09-01T21:03:19.515Z,,0,1,,3051.600000000006,response,ISIC_0030616.JPG,6,ISIC_5008399.JPG,ISIC_0030616.JPG,false,1,keypress(m),500,239511,239511,236458.64,236462,236459.4,239511.28,8,400,41,,ISIC_5008399.JPG
break,html.Screen,4_40_1,2023-09-01T21:03:19.515Z,,0,,,NaN,,,,,,false,,,,239512,239511,,239511,,239511.28,8,400,,,
break_continue,html.Screen,4_40_2,2023-09-01T21:03:19.515Z,,0,,,NaN,,,,,,false,,,,239512,239512,,239512,,239511.28,8,400,,,
sequence,flow.Sequence,4_40,2023-09-01T21:03:19.516Z,,0,,,3052.600000000006,completion,,,,,false,,,,239512,239512,236458.64,236462,236459.4,239511.28,8,400,,,
trial,html.Screen,4_41_0,2023-09-01T21:03:22.895Z,,0,1,,3378.720000000001,response,ISIC_0033216.JPG,25,ISIC_6569060.JPG,ISIC_6569060.JPG,false,0,keypress(z),500,242891,242890,239511.08,239512,239511.28,242892.54,8,400,42,,ISIC_0033216.JPG
break,html.Screen,4_41_1,2023-09-01T21:03:22.897Z,,0,,,NaN,,,,,,false,,,,242893,242893,,242892,,242892.54,8,400,,,
break_continue,html.Screen,4_41_2,2023-09-01T21:03:22.898Z,,0,,,NaN,,,,,,false,,,,242894,242894,,242893,,242892.54,8,400,,,
sequence,flow.Sequence,4_41,2023-09-01T21:03:22.898Z,,0,,,3382.720000000001,completion,,,,,false,,,,242894,242894,239511.08,239512,239511.28,242892.54,8,400,,,
trial,html.Screen,4_42_0,2023-09-01T21:03:26.358Z,,0,1,,3462.459999999992,response,ISIC_0084086.JPG,22,ISIC_8504492.JPG,ISIC_0084086.JPG,false,1,keypress(m),500,246355,246355,242891.96,242895,242892.54,246379.4,8,400,43,,ISIC_8504492.JPG
break,html.Screen,4_42_1,2023-09-01T21:03:26.359Z,,0,,,NaN,,,,,,false,,,,246355,246355,,246355,,246379.4,8,400,,,
break_continue,html.Screen,4_42_2,2023-09-01T21:03:26.359Z,,0,,,NaN,,,,,,false,,,,246355,246355,,246355,,246379.4,8,400,,,
sequence,flow.Sequence,4_42,2023-09-01T21:03:26.359Z,,0,,,3462.459999999992,completion,,,,,false,,,,246356,246355,242891.96,242895,242892.54,246379.4,8,400,,,
trial,html.Screen,4_43_0,2023-09-01T21:03:30.175Z,,0,1,,3791.600000000006,response,ISIC_0057487.JPG,7,ISIC_3767325.JPG,ISIC_0057487.JPG,false,1,keypress(m),500,250172,250171,246362.72,246356,246379.4,250172.76,8,400,44,,ISIC_3767325.JPG
break,html.Screen,4_43_1,2023-09-01T21:03:30.178Z,,0,,,NaN,,,,,,false,,,,250173,250173,,250172,,250172.76,8,400,,,
break_continue,html.Screen,4_43_2,2023-09-01T21:03:30.178Z,,0,,,NaN,,,,,,false,,,,250174,250174,,250174,,250172.76,8,400,,,
sequence,flow.Sequence,4_43,2023-09-01T21:03:30.179Z,,0,,,3794.600000000006,completion,,,,,false,,,,250175,250174,246362.72,246356,246379.4,250172.76,8,400,,,
trial,html.Screen,4_44_0,2023-09-01T21:03:35.776Z,,0,1,,5598.239999999991,response,ISIC_5988539.JPG,18,ISIC_2795397.JPG,ISIC_5988539.JPG,false,1,keypress(m),500,255772,255771,250172.12,250175,250172.76,255772.7,8,400,45,,ISIC_2795397.JPG
break,html.Screen,4_44_1,2023-09-01T21:03:35.777Z,,0,,,NaN,,,,,,false,,,,255773,255773,,255772,,255772.7,8,400,,,
break_continue,html.Screen,4_44_2,2023-09-01T21:03:35.778Z,,0,,,NaN,,,,,,false,,,,255774,255774,,255774,,255772.7,8,400,,,
sequence,flow.Sequence,4_44,2023-09-01T21:03:35.778Z,,0,,,5601.239999999991,completion,,,,,false,,,,255775,255774,250172.12,250175,250172.76,255772.7,8,400,,,
trial,html.Screen,4_45_0,2023-09-01T21:03:40.863Z,,0,1,,5085.299999999988,response,ISIC_0066203.JPG,22,ISIC_3067885.JPG,ISIC_3067885.JPG,false,0,keypress(z),500,260858,260858,255772.12,255775,255772.7,260859.72,8,400,46,,ISIC_0066203.JPG
break,html.Screen,4_45_1,2023-09-01T21:03:40.865Z,,0,,,NaN,,,,,,false,,,,260861,260859,,260859,,260859.72,8,400,,,
break_continue,html.Screen,4_45_2,2023-09-01T21:03:40.865Z,,0,,,NaN,,,,,,false,,,,260862,260862,,260861,,260859.72,8,400,,,
sequence,flow.Sequence,4_45,2023-09-01T21:03:40.866Z,,0,,,5089.299999999988,completion,,,,,false,,,,260862,260862,255772.12,255775,255772.7,260859.72,8,400,,,
trial,html.Screen,4_46_0,2023-09-01T21:03:44.815Z,,0,1,,3950.279999999999,response,ISIC_0033368.JPG,9,ISIC_0028239.JPG,ISIC_0033368.JPG,false,1,keypress(m),500,264811,264810,260859.06,260862,260859.72,264812.04,8,400,47,,ISIC_0028239.JPG
break,html.Screen,4_46_1,2023-09-01T21:03:44.817Z,,0,,,NaN,,,,,,false,,,,264813,264812,,264811,,264812.04,8,400,,,
break_continue,html.Screen,4_46_2,2023-09-01T21:03:44.818Z,,0,,,NaN,,,,,,false,,,,264814,264814,,264813,,264812.04,8,400,,,
sequence,flow.Sequence,4_46,2023-09-01T21:03:44.819Z,,0,,,3954.279999999999,completion,,,,,false,,,,264815,264814,260859.06,260862,260859.72,264812.04,8,400,,,
trial,html.Screen,4_47_0,2023-09-01T21:03:49.370Z,,0,1,,4553.960000000021,response,ISIC_0026278.JPG,20,ISIC_0015109.JPG,ISIC_0015109.JPG,false,0,keypress(z),500,269366,269366,264811.36,264815,264812.04,269365.94,8,400,48,,ISIC_0026278.JPG
break,html.Screen,4_47_1,2023-09-01T21:03:49.370Z,,0,,,NaN,,,,,,false,,,,269366,269366,,269366,,269365.94,8,400,,,
break_continue,html.Screen,4_47_2,2023-09-01T21:03:49.370Z,,0,,,NaN,,,,,,false,,,,269366,269366,,269366,,269365.94,8,400,,,
sequence,flow.Sequence,4_47,2023-09-01T21:03:49.370Z,,0,,,4553.960000000021,completion,,,,,false,,,,269366,269366,264811.36,264815,264812.04,269365.94,8,400,,,
trial,html.Screen,4_48_0,2023-09-01T21:03:58.190Z,,0,1,,8820.059999999998,response,ISIC_2094429.JPG,20,ISIC_0054941.JPG,ISIC_0054941.JPG,false,0,keypress(z),500,278186,278186,269365.72,269366,269365.94,278186.12,8,400,49,,ISIC_2094429.JPG
break,html.Screen,4_48_1,2023-09-01T21:03:58.190Z,,0,,,NaN,,,,,,false,,,,278187,278187,,278186,,278186.12,8,400,,,
break_continue,html.Screen,4_48_2,2023-09-01T21:03:58.190Z,,0,,,NaN,,,,,,false,,,,278187,278187,,278187,,278186.12,8,400,,,
sequence,flow.Sequence,4_48,2023-09-01T21:03:58.190Z,,0,,,8821.059999999998,completion,,,,,false,,,,278187,278187,269365.72,269366,269365.94,278186.12,8,400,,,
trial,html.Screen,4_49_0,2023-09-01T21:04:03.240Z,,0,1,,5049.880000000005,response,ISIC_2999018.JPG,4,ISIC_3653492.JPG,ISIC_3653492.JPG,false,0,keypress(z),500,283236,283236,278186,278187,278186.12,283236.46,8,400,50,,ISIC_2999018.JPG
break,html.Screen,4_49_1,2023-09-01T21:04:13.223Z,,0,,,9996.820000000007,timeout,,,,,false,,,,293219,293216.6,283236.18,283236,283236.46,293233.28,8,400,,,
break_continue,html.Screen,4_49_2,2023-09-01T21:04:14.943Z,,0,,,1695.719999999972,response,,,,,false,continue,keypress(Space),,294940,294929,293216.6,293219,293233.28,294939.86,8,400,,,
sequence,flow.Sequence,4_49,2023-09-01T21:04:14.943Z,,0,,,16742.880000000005,completion,,,,,false,,,,294940,294929,278186,278187,278186.12,294939.86,8,400,,,
trial,html.Screen,4_50_0,2023-09-01T21:04:18.541Z,,0,2,,3597.140000000014,response,ISIC_0055876.JPG,6,ISIC_5410481.JPG,ISIC_5410481.JPG,false,0,keypress(z),500,298537,298537,294939.64,294940,294939.86,298538.86,8,400,1,,ISIC_0055876.JPG
break,html.Screen,4_50_1,2023-09-01T21:04:18.544Z,,0,,,NaN,,,,,,false,,,,298539,298539,,298538,,298538.86,8,400,,,
break_continue,html.Screen,4_50_2,2023-09-01T21:04:18.544Z,,0,,,NaN,,,,,,false,,,,298540,298540,,298540,,298538.86,8,400,,,
sequence,flow.Sequence,4_50,2023-09-01T21:04:18.545Z,,0,,,3600.140000000014,completion,,,,,false,,,,298541,298540,294939.64,294940,294939.86,298538.86,8,400,,,
trial,html.Screen,4_51_0,2023-09-01T21:04:21.440Z,,0,2,,2897.140000000014,response,ISIC_7592920.JPG,3,ISIC_6033222.JPG,ISIC_7592920.JPG,false,1,keypress(m),500,301436,301436,298538.1,298541,298538.86,301437.68,8,400,2,,ISIC_6033222.JPG
break,html.Screen,4_51_1,2023-09-01T21:04:21.442Z,,0,,,NaN,,,,,,false,,,,301438,301438,,301437,,301437.68,8,400,,,
break_continue,html.Screen,4_51_2,2023-09-01T21:04:21.442Z,,0,,,NaN,,,,,,false,,,,301438,301438,,301438,,301437.68,8,400,,,
sequence,flow.Sequence,4_51,2023-09-01T21:04:21.442Z,,0,,,2899.140000000014,completion,,,,,false,,,,301438,301438,298538.1,298541,298538.86,301437.68,8,400,,,
trial,html.Screen,4_52_0,2023-09-01T21:04:25.129Z,,0,2,,3686.320000000007,response,ISIC_5501795.JPG,14,ISIC_0070048.JPG,ISIC_0070048.JPG,false,0,keypress(z),500,305125,305124,301437.18,301439,301437.68,305125.86,8,400,3,,ISIC_5501795.JPG
break,html.Screen,4_52_1,2023-09-01T21:04:25.130Z,,0,,,NaN,,,,,,false,,,,305126,305126,,305125,,305125.86,8,400,,,
break_continue,html.Screen,4_52_2,2023-09-01T21:04:25.132Z,,0,,,NaN,,,,,,false,,,,305128,305127,,305127,,305125.86,8,400,,,
sequence,flow.Sequence,4_52,2023-09-01T21:04:25.132Z,,0,,,3689.320000000007,completion,,,,,false,,,,305128,305127,301437.18,301439,301437.68,305125.86,8,400,,,
trial,html.Screen,4_53_0,2023-09-01T21:04:29.504Z,,0,2,,4374.140000000014,response,ISIC_5888212.JPG,15,ISIC_1092432.JPG,ISIC_5888212.JPG,false,1,keypress(m),500,309500,309500,305125.12,305128,305125.86,309500.32,8,400,4,,ISIC_1092432.JPG
break,html.Screen,4_53_1,2023-09-01T21:04:29.504Z,,0,,,NaN,,,,,,false,,,,309500,309500,,309500,,309500.32,8,400,,,
break_continue,html.Screen,4_53_2,2023-09-01T21:04:29.504Z,,0,,,NaN,,,,,,false,,,,309501,309500,,309500,,309500.32,8,400,,,
sequence,flow.Sequence,4_53,2023-09-01T21:04:29.504Z,,0,,,4374.140000000014,completion,,,,,false,,,,309501,309500,305125.12,305128,305125.86,309500.32,8,400,,,
trial,html.Screen,4_54_0,2023-09-01T21:04:32.580Z,,0,2,,3075.679999999993,response,ISIC_6754835.JPG,7,ISIC_3046905.JPG,ISIC_6754835.JPG,false,1,keypress(m),500,312576,312576,309500.12,309501,309500.32,312576.04,8,400,5,,ISIC_3046905.JPG
break,html.Screen,4_54_1,2023-09-01T21:04:32.580Z,,0,,,NaN,,,,,,false,,,,312576,312576,,312576,,312576.04,8,400,,,
break_continue,html.Screen,4_54_2,2023-09-01T21:04:32.580Z,,0,,,NaN,,,,,,false,,,,312576,312576,,312576,,312576.04,8,400,,,
sequence,flow.Sequence,4_54,2023-09-01T21:04:32.580Z,,0,,,3075.679999999993,completion,,,,,false,,,,312577,312576,309500.12,309501,309500.32,312576.04,8,400,,,
trial,html.Screen,4_55_0,2023-09-01T21:04:36.093Z,,0,2,,3512.960000000021,response,ISIC_1008609.JPG,6,ISIC_0198331.JPG,ISIC_1008609.JPG,false,1,keypress(m),500,316089,316089,312575.8,312577,312576.04,316089.82,8,400,6,,ISIC_0198331.JPG
break,html.Screen,4_55_1,2023-09-01T21:04:36.094Z,,0,,,NaN,,,,,,false,,,,316090,316089,,316089,,316089.82,8,400,,,
break_continue,html.Screen,4_55_2,2023-09-01T21:04:36.094Z,,0,,,NaN,,,,,,false,,,,316090,316090,,316090,,316089.82,8,400,,,
sequence,flow.Sequence,4_55,2023-09-01T21:04:36.094Z,,0,,,3513.960000000021,completion,,,,,false,,,,316090,316090,312575.8,312577,312576.04,316089.82,8,400,,,
trial,html.Screen,4_56_0,2023-09-01T21:04:39.933Z,,0,2,,3840.179999999993,response,ISIC_0012222.JPG,23,ISIC_3598244.JPG,ISIC_0012222.JPG,false,1,keypress(m),500,319930,319930,316089.56,316090,316089.82,319930.18,8,400,7,,ISIC_3598244.JPG
break,html.Screen,4_56_1,2023-09-01T21:04:39.935Z,,0,,,NaN,,,,,,false,,,,319930,319930,,319930,,319930.18,8,400,,,
break_continue,html.Screen,4_56_2,2023-09-01T21:04:39.935Z,,0,,,NaN,,,,,,false,,,,319931,319930,,319930,,319930.18,8,400,,,
sequence,flow.Sequence,4_56,2023-09-01T21:04:39.935Z,,0,,,3840.179999999993,completion,,,,,false,,,,319931,319930,316089.56,316090,316089.82,319930.18,8,400,,,
trial,html.Screen,4_57_0,2023-09-01T21:04:43.600Z,,0,2,,3664.820000000007,response,ISIC_0064102.JPG,13,ISIC_0032339.JPG,ISIC_0064102.JPG,false,1,keypress(m),500,323595,323595,319930.04,319931,319930.18,323595.76,8,400,8,,ISIC_0032339.JPG
break,html.Screen,4_57_1,2023-09-01T21:04:43.600Z,,0,,,NaN,,,,,,false,,,,323595,323595,,323595,,323595.76,8,400,,,
break_continue,html.Screen,4_57_2,2023-09-01T21:04:43.600Z,,0,,,NaN,,,,,,false,,,,323596,323596,,323596,,323595.76,8,400,,,
sequence,flow.Sequence,4_57,2023-09-01T21:04:43.600Z,,0,,,3665.820000000007,completion,,,,,false,,,,323596,323596,319930.04,319931,319930.18,323595.76,8,400,,,
trial,html.Screen,4_58_0,2023-09-01T21:04:47.311Z,,0,2,,3711.2399999999907,response,ISIC_0027234.JPG,21,ISIC_6207688.JPG,ISIC_0027234.JPG,false,1,keypress(m),500,327307,327307,323595.52,323596,323595.76,327307.7,8,400,9,,ISIC_6207688.JPG
break,html.Screen,4_58_1,2023-09-01T21:04:47.311Z,,0,,,NaN,,,,,,false,,,,327307,327307,,327307,,327307.7,8,400,,,
break_continue,html.Screen,4_58_2,2023-09-01T21:04:47.311Z,,0,,,NaN,,,,,,false,,,,327307,327307,,327307,,327307.7,8,400,,,
sequence,flow.Sequence,4_58,2023-09-01T21:04:47.311Z,,0,,,3711.2399999999907,completion,,,,,false,,,,327307,327307,323595.52,323596,323595.76,327307.7,8,400,,,
trial,html.Screen,4_59_0,2023-09-01T21:04:51.880Z,,0,2,,4568.299999999988,response,ISIC_0033299.JPG,16,ISIC_1685962.JPG,ISIC_1685962.JPG,false,0,keypress(z),500,331877,331876,327307.4,327307,327307.7,331876.98,8,400,10,,ISIC_0033299.JPG
break,html.Screen,4_59_1,2023-09-01T21:04:51.881Z,,0,,,NaN,,,,,,false,,,,331877,331877,,331877,,331876.98,8,400,,,
break_continue,html.Screen,4_59_2,2023-09-01T21:04:51.881Z,,0,,,NaN,,,,,,false,,,,331877,331877,,331877,,331876.98,8,400,,,
sequence,flow.Sequence,4_59,2023-09-01T21:04:51.881Z,,0,,,4569.299999999988,completion,,,,,false,,,,331877,331877,327307.4,327307,327307.7,331876.98,8,400,,,
trial,html.Screen,4_60_0,2023-09-01T21:04:56.336Z,,0,2,,4456.020000000019,response,ISIC_9182285.JPG,7,ISIC_5647554.JPG,ISIC_9182285.JPG,false,1,keypress(m),500,336333,336333,331876.6,331877,331876.98,336333.12,8,400,11,,ISIC_5647554.JPG
break,html.Screen,4_60_1,2023-09-01T21:04:56.337Z,,0,,,NaN,,,,,,false,,,,336333,336333,,336333,,336333.12,8,400,,,
break_continue,html.Screen,4_60_2,2023-09-01T21:04:56.337Z,,0,,,NaN,,,,,,false,,,,336334,336334,,336334,,336333.12,8,400,,,
sequence,flow.Sequence,4_60,2023-09-01T21:04:56.337Z,,0,,,4457.020000000019,completion,,,,,false,,,,336334,336334,331876.6,331877,331876.98,336333.12,8,400,,,
trial,html.Screen,4_61_0,2023-09-01T21:04:59.888Z,,0,2,,3550.8800000000047,response,ISIC_4070687.JPG,12,ISIC_9094080.JPG,ISIC_9094080.JPG,false,0,keypress(z),500,339884,339884,336332.74,336334,336333.12,339884.76,8,400,12,,ISIC_4070687.JPG
break,html.Screen,4_61_1,2023-09-01T21:04:59.889Z,,0,,,NaN,,,,,,false,,,,339885,339885,,339884,,339884.76,8,400,,,
break_continue,html.Screen,4_61_2,2023-09-01T21:04:59.889Z,,0,,,NaN,,,,,,false,,,,339885,339885,,339885,,339884.76,8,400,,,
sequence,flow.Sequence,4_61,2023-09-01T21:04:59.889Z,,0,,,3551.8800000000047,completion,,,,,false,,,,339885,339885,336332.74,336334,336333.12,339884.76,8,400,,,
trial,html.Screen,4_62_0,2023-09-01T21:05:05.981Z,,0,2,,6092.239999999991,response,ISIC_0027673.JPG,9,ISIC_6613150.JPG,ISIC_6613150.JPG,false,0,keypress(z),500,345977,345977,339884.5,339885,339884.76,345977.52,8,400,13,,ISIC_0027673.JPG
break,html.Screen,4_62_1,2023-09-01T21:05:05.982Z,,0,,,NaN,,,,,,false,,,,345978,345978,,345977,,345977.52,8,400,,,
break_continue,html.Screen,4_62_2,2023-09-01T21:05:05.982Z,,0,,,NaN,,,,,,false,,,,345978,345978,,345978,,345977.52,8,400,,,
sequence,flow.Sequence,4_62,2023-09-01T21:05:05.982Z,,0,,,6093.239999999991,completion,,,,,false,,,,345978,345978,339884.5,339885,339884.76,345977.52,8,400,,,
trial,html.Screen,4_63_0,2023-09-01T21:05:10.357Z,,0,2,,4375.479999999981,response,ISIC_9034574.JPG,10,ISIC_8325226.JPG,ISIC_9034574.JPG,false,1,keypress(m),500,350353,350353,345977.26,345978,345977.52,350353.3,8,400,14,,ISIC_8325226.JPG
break,html.Screen,4_63_1,2023-09-01T21:05:10.357Z,,0,,,NaN,,,,,,false,,,,350353,350353,,350353,,350353.3,8,400,,,
break_continue,html.Screen,4_63_2,2023-09-01T21:05:10.357Z,,0,,,NaN,,,,,,false,,,,350353,350353,,350353,,350353.3,8,400,,,
sequence,flow.Sequence,4_63,2023-09-01T21:05:10.357Z,,0,,,4375.479999999981,completion,,,,,false,,,,350353,350353,345977.26,345978,345977.52,350353.3,8,400,,,
trial,html.Screen,4_64_0,2023-09-01T21:05:13.331Z,,0,2,,2973.7000000000116,response,ISIC_6646939.JPG,17,ISIC_0026655.JPG,ISIC_0026655.JPG,false,0,keypress(z),500,353327,353327,350353.06,350353,350353.3,353327.46,8,400,15,,ISIC_6646939.JPG
break,html.Screen,4_64_1,2023-09-01T21:05:13.332Z,,0,,,NaN,,,,,,false,,,,353327,353327,,353327,,353327.46,8,400,,,
break_continue,html.Screen,4_64_2,2023-09-01T21:05:13.332Z,,0,,,NaN,,,,,,false,,,,353327,353327,,353327,,353327.46,8,400,,,
sequence,flow.Sequence,4_64,2023-09-01T21:05:13.332Z,,0,,,2973.7000000000116,completion,,,,,false,,,,353327,353327,350353.06,350353,350353.3,353327.46,8,400,,,
trial,html.Screen,4_65_0,2023-09-01T21:05:17.057Z,,0,2,,3724.539999999979,response,ISIC_3637551.JPG,16,ISIC_6892286.JPG,ISIC_6892286.JPG,false,0,keypress(z),500,357053,357052,353327.2,353327,353327.46,357053.34,8,400,16,,ISIC_3637551.JPG
break,html.Screen,4_65_1,2023-09-01T21:05:17.058Z,,0,,,NaN,,,,,,false,,,,357053,357053,,357053,,357053.34,8,400,,,
break_continue,html.Screen,4_65_2,2023-09-01T21:05:17.058Z,,0,,,NaN,,,,,,false,,,,357054,357054,,357053,,357053.34,8,400,,,
sequence,flow.Sequence,4_65,2023-09-01T21:05:17.058Z,,0,,,3726.539999999979,completion,,,,,false,,,,357054,357054,353327.2,353327,353327.46,357053.34,8,400,,,
trial,html.Screen,4_66_0,2023-09-01T21:05:19.962Z,,0,2,,2903.6599999999744,response,ISIC_0027263.JPG,0,ISIC_3751090.JPG,ISIC_0027263.JPG,false,1,keypress(m),500,359958,359957,357053.08,357054,357053.34,359958.08,8,400,17,,ISIC_3751090.JPG
break,html.Screen,4_66_1,2023-09-01T21:05:19.962Z,,0,,,NaN,,,,,,false,,,,359958,359958,,359958,,359958.08,8,400,,,
break_continue,html.Screen,4_66_2,2023-09-01T21:05:19.963Z,,0,,,NaN,,,,,,false,,,,359958,359958,,359958,,359958.08,8,400,,,
sequence,flow.Sequence,4_66,2023-09-01T21:05:19.963Z,,0,,,2904.6599999999744,completion,,,,,false,,,,359959,359958,357053.08,357054,357053.34,359958.08,8,400,,,
trial,html.Screen,4_67_0,2023-09-01T21:05:25.287Z,,0,2,,5324.919999999984,response,ISIC_0054025.JPG,7,ISIC_6785680.JPG,ISIC_0054025.JPG,false,1,keypress(m),500,365283,365283,359957.82,359959,359958.08,365283.5,8,400,18,,ISIC_6785680.JPG
break,html.Screen,4_67_1,2023-09-01T21:05:25.287Z,,0,,,NaN,,,,,,false,,,,365283,365283,,365283,,365283.5,8,400,,,
break_continue,html.Screen,4_67_2,2023-09-01T21:05:25.287Z,,0,,,NaN,,,,,,false,,,,365283,365283,,365283,,365283.5,8,400,,,
sequence,flow.Sequence,4_67,2023-09-01T21:05:25.287Z,,0,,,5324.919999999984,completion,,,,,false,,,,365283,365283,359957.82,359959,359958.08,365283.5,8,400,,,
trial,html.Screen,4_68_0,2023-09-01T21:05:28.062Z,,0,2,,2774.5,response,ISIC_2232442.JPG,23,ISIC_0071972.JPG,ISIC_2232442.JPG,false,1,keypress(m),500,368058,368058,365283.26,365284,365283.5,368058.2,8,400,19,,ISIC_0071972.JPG
break,html.Screen,4_68_1,2023-09-01T21:05:28.062Z,,0,,,NaN,,,,,,false,,,,368058,368058,,368058,,368058.2,8,400,,,
break_continue,html.Screen,4_68_2,2023-09-01T21:05:28.062Z,,0,,,NaN,,,,,,false,,,,368058,368058,,368058,,368058.2,8,400,,,
sequence,flow.Sequence,4_68,2023-09-01T21:05:28.063Z,,0,,,2774.5,completion,,,,,false,,,,368059,368058,365283.26,365284,365283.5,368058.2,8,400,,,
trial,html.Screen,4_69_0,2023-09-01T21:05:31.457Z,,0,2,,3394.7999999999884,response,ISIC_6025721.JPG,2,ISIC_0073136.JPG,ISIC_0073136.JPG,false,0,keypress(z),500,371453,371453,368057.98,368059,368058.2,371453.58,8,400,20,,ISIC_6025721.JPG
break,html.Screen,4_69_1,2023-09-01T21:05:31.458Z,,0,,,NaN,,,,,,false,,,,371454,371454,,371453,,371453.58,8,400,,,
break_continue,html.Screen,4_69_2,2023-09-01T21:05:31.458Z,,0,,,NaN,,,,,,false,,,,371454,371454,,371454,,371453.58,8,400,,,
sequence,flow.Sequence,4_69,2023-09-01T21:05:31.458Z,,0,,,3395.7999999999884,completion,,,,,false,,,,371454,371454,368057.98,368059,368058.2,371453.58,8,400,,,
trial,html.Screen,4_70_0,2023-09-01T21:05:34.922Z,,0,2,,3464.4199999999837,response,ISIC_0272509.JPG,8,ISIC_9048507.JPG,ISIC_9048507.JPG,false,0,keypress(z),500,374918,374918,371453.32,371454,371453.58,374918.2,8,400,21,,ISIC_0272509.JPG
break,html.Screen,4_70_1,2023-09-01T21:05:34.922Z,,0,,,NaN,,,,,,false,,,,374918,374918,,374918,,374918.2,8,400,,,
break_continue,html.Screen,4_70_2,2023-09-01T21:05:34.922Z,,0,,,NaN,,,,,,false,,,,374918,374918,,374918,,374918.2,8,400,,,
sequence,flow.Sequence,4_70,2023-09-01T21:05:34.922Z,,0,,,3464.4199999999837,completion,,,,,false,,,,374918,374918,371453.32,371454,371453.58,374918.2,8,400,,,
trial,html.Screen,4_71_0,2023-09-01T21:05:38.357Z,,0,2,,3434.7999999999884,response,ISIC_3447331.JPG,8,ISIC_4732684.JPG,ISIC_3447331.JPG,false,1,keypress(m),500,378353,378353,374917.76,374918,374918.2,378353.84,8,400,22,,ISIC_4732684.JPG
break,html.Screen,4_71_1,2023-09-01T21:05:38.358Z,,0,,,NaN,,,,,,false,,,,378354,378354,,378354,,378353.84,8,400,,,
break_continue,html.Screen,4_71_2,2023-09-01T21:05:38.358Z,,0,,,NaN,,,,,,false,,,,378354,378354,,378354,,378353.84,8,400,,,
sequence,flow.Sequence,4_71,2023-09-01T21:05:38.358Z,,0,,,3435.7999999999884,completion,,,,,false,,,,378354,378354,374917.76,374918,374918.2,378353.84,8,400,,,
trial,html.Screen,4_72_0,2023-09-01T21:05:42.262Z,,0,2,,3904.1599999999744,response,ISIC_0062235.JPG,4,ISIC_0029944.JPG,ISIC_0062235.JPG,false,1,keypress(m),500,382258,382258,378353.56,378354,378353.84,382258.18,8,400,23,,ISIC_0029944.JPG
break,html.Screen,4_72_1,2023-09-01T21:05:42.263Z,,0,,,NaN,,,,,,false,,,,382258,382258,,382258,,382258.18,8,400,,,
break_continue,html.Screen,4_72_2,2023-09-01T21:05:42.263Z,,0,,,NaN,,,,,,false,,,,382258,382258,,382258,,382258.18,8,400,,,
sequence,flow.Sequence,4_72,2023-09-01T21:05:42.263Z,,0,,,3904.1599999999744,completion,,,,,false,,,,382258,382258,378353.56,378354,378353.84,382258.18,8,400,,,
trial,html.Screen,4_73_0,2023-09-01T21:05:45.998Z,,0,2,,3735.820000000007,response,ISIC_0033885.JPG,15,ISIC_0029843.JPG,ISIC_0029843.JPG,false,0,keypress(z),500,385994,385994,382257.96,382258,382258.18,385994.5,8,400,24,,ISIC_0033885.JPG
break,html.Screen,4_73_1,2023-09-01T21:05:45.998Z,,0,,,NaN,,,,,,false,,,,385994,385994,,385994,,385994.5,8,400,,,
break_continue,html.Screen,4_73_2,2023-09-01T21:05:45.998Z,,0,,,NaN,,,,,,false,,,,385995,385995,,385994,,385994.5,8,400,,,
sequence,flow.Sequence,4_73,2023-09-01T21:05:45.998Z,,0,,,3736.820000000007,completion,,,,,false,,,,385995,385995,382257.96,382258,382258.18,385994.5,8,400,,,
trial,html.Screen,4_74_0,2023-09-01T21:05:49.394Z,,0,2,,3394.5,response,ISIC_4943797.JPG,14,ISIC_0015436.JPG,ISIC_0015436.JPG,false,0,keypress(z),500,389389,389389,385994.18,385995,385994.5,389390.98,8,400,25,,ISIC_4943797.JPG
break,html.Screen,4_74_1,2023-09-01T21:05:49.396Z,,0,,,NaN,,,,,,false,,,,389391,389391,,389390,,389390.98,8,400,,,
break_continue,html.Screen,4_74_2,2023-09-01T21:05:49.397Z,,0,,,NaN,,,,,,false,,,,389392,389392,,389392,,389390.98,8,400,,,
sequence,flow.Sequence,4_74,2023-09-01T21:05:49.397Z,,0,,,3397.5,completion,,,,,false,,,,389393,389392,385994.18,385995,385994.5,389390.98,8,400,,,
trial,html.Screen,4_75_0,2023-09-01T21:05:52.513Z,,0,2,,3118.0200000000186,response,ISIC_0057821.JPG,14,ISIC_0060154.JPG,ISIC_0057821.JPG,false,1,keypress(m),500,392509,392509,389390.38,389394,389390.98,392510.28,8,400,26,,ISIC_0060154.JPG
break,html.Screen,4_75_1,2023-09-01T21:05:52.514Z,,0,,,NaN,,,,,,false,,,,392510,392510,,392509,,392510.28,8,400,,,
break_continue,html.Screen,4_75_2,2023-09-01T21:05:52.514Z,,0,,,NaN,,,,,,false,,,,392510,392510,,392510,,392510.28,8,400,,,
sequence,flow.Sequence,4_75,2023-09-01T21:05:52.514Z,,0,,,3119.0200000000186,completion,,,,,false,,,,392510,392510,389390.38,389393,389390.98,392510.28,8,400,,,
trial,html.Screen,4_76_0,2023-09-01T21:05:55.685Z,,0,2,,3170.719999999972,response,ISIC_5620802.JPG,3,ISIC_3391254.JPG,ISIC_5620802.JPG,false,1,keypress(m),500,395681,395681,392509.54,392510,392510.28,395686.26,8,400,27,,ISIC_3391254.JPG
break,html.Screen,4_76_1,2023-09-01T21:05:55.687Z,,0,,,NaN,,,,,,false,,,,395683,395682,,395682,,395686.26,8,400,,,
break_continue,html.Screen,4_76_2,2023-09-01T21:05:55.688Z,,0,,,NaN,,,,,,false,,,,395684,395684,,395683,,395686.26,8,400,,,
sequence,flow.Sequence,4_76,2023-09-01T21:05:55.689Z,,0,,,3173.719999999972,completion,,,,,false,,,,395684,395684,392509.54,392510,392510.28,395686.26,8,400,,,
trial,html.Screen,4_77_0,2023-09-01T21:05:59.797Z,,0,2,,4105.739999999991,response,ISIC_0032492.JPG,7,ISIC_0062318.JPG,ISIC_0062318.JPG,false,0,keypress(z),500,399793,399792,395682.08,395684,395686.26,399794.44,8,400,28,,ISIC_0032492.JPG
break,html.Screen,4_77_1,2023-09-01T21:05:59.799Z,,0,,,NaN,,,,,,false,,,,399795,399795,,399794,,399794.44,8,400,,,
break_continue,html.Screen,4_77_2,2023-09-01T21:05:59.800Z,,0,,,NaN,,,,,,false,,,,399796,399796,,399796,,399794.44,8,400,,,
sequence,flow.Sequence,4_77,2023-09-01T21:05:59.801Z,,0,,,4109.739999999991,completion,,,,,false,,,,399797,399796,395682.08,395684,395686.26,399794.44,8,400,,,
trial,html.Screen,4_78_0,2023-09-01T21:06:03.518Z,,0,2,,3720.5599999999977,response,ISIC_0025783.JPG,9,ISIC_0014598.JPG,ISIC_0014598.JPG,false,0,keypress(z),500,403515,403515,399793.82,399797,399794.44,403514.86,8,400,29,,ISIC_0025783.JPG
break,html.Screen,4_78_1,2023-09-01T21:06:03.519Z,,0,,,NaN,,,,,,false,,,,403515,403515,,403515,,403514.86,8,400,,,
break_continue,html.Screen,4_78_2,2023-09-01T21:06:03.519Z,,0,,,NaN,,,,,,false,,,,403515,403515,,403515,,403514.86,8,400,,,
sequence,flow.Sequence,4_78,2023-09-01T21:06:03.519Z,,0,,,3720.5599999999977,completion,,,,,false,,,,403515,403515,399793.82,399797,399794.44,403514.86,8,400,,,
trial,html.Screen,4_79_0,2023-09-01T21:06:09.539Z,,0,2,,6020.140000000014,response,ISIC_0007740.JPG,31,ISIC_0069488.JPG,ISIC_0069488.JPG,false,0,keypress(z),500,409535,409535,403514.6,403515,403514.86,409535.32,8,400,30,,ISIC_0007740.JPG
break,html.Screen,4_79_1,2023-09-01T21:06:09.540Z,,0,,,NaN,,,,,,false,,,,409536,409536,,409535,,409535.32,8,400,,,
break_continue,html.Screen,4_79_2,2023-09-01T21:06:09.540Z,,0,,,NaN,,,,,,false,,,,409536,409536,,409536,,409535.32,8,400,,,
sequence,flow.Sequence,4_79,2023-09-01T21:06:09.540Z,,0,,,6021.140000000014,completion,,,,,false,,,,409536,409536,403514.6,403515,403514.86,409535.32,8,400,,,
trial,html.Screen,4_80_0,2023-09-01T21:06:13.114Z,,0,2,,3574.679999999993,response,ISIC_0015298.JPG,8,ISIC_0031221.JPG,ISIC_0031221.JPG,false,0,keypress(z),500,413111,413110,409534.96,409536,409535.32,413117.06,8,400,31,,ISIC_0015298.JPG
break,html.Screen,4_80_1,2023-09-01T21:06:13.117Z,,0,,,NaN,,,,,,false,,,,413112,413112,,413111,,413117.06,8,400,,,
break_continue,html.Screen,4_80_2,2023-09-01T21:06:13.118Z,,0,,,NaN,,,,,,false,,,,413114,413113,,413113,,413117.06,8,400,,,
sequence,flow.Sequence,4_80,2023-09-01T21:06:13.118Z,,0,,,3577.679999999993,completion,,,,,false,,,,413114,413113,409534.96,409536,409535.32,413117.06,8,400,,,
trial,html.Screen,4_81_0,2023-09-01T21:06:20.824Z,,0,2,,7701.940000000002,response,ISIC_0010591.JPG,6,ISIC_0030860.JPG,ISIC_0010591.JPG,false,1,keypress(m),500,420820,420819,413111.1,413114,413117.06,420823.64,8,400,32,,ISIC_0030860.JPG
break,html.Screen,4_81_1,2023-09-01T21:06:20.825Z,,0,,,NaN,,,,,,false,,,,420821,420821,,420820,,420823.64,8,400,,,
break_continue,html.Screen,4_81_2,2023-09-01T21:06:20.826Z,,0,,,NaN,,,,,,false,,,,420822,420822,,420822,,420823.64,8,400,,,
sequence,flow.Sequence,4_81,2023-09-01T21:06:20.827Z,,0,,,7704.940000000002,completion,,,,,false,,,,420822,420822,413111.1,413114,413117.06,420823.64,8,400,,,
trial,html.Screen,4_82_0,2023-09-01T21:06:23.720Z,,0,2,,2892.359999999986,response,ISIC_1020968.JPG,8,ISIC_8025644.JPG,ISIC_8025644.JPG,false,0,keypress(z),500,423716,423716,420819.96,420822,420823.64,423717.26,8,400,33,,ISIC_1020968.JPG
break,html.Screen,4_82_1,2023-09-01T21:06:23.722Z,,0,,,NaN,,,,,,false,,,,423718,423717,,423717,,423717.26,8,400,,,
break_continue,html.Screen,4_82_2,2023-09-01T21:06:23.722Z,,0,,,NaN,,,,,,false,,,,423718,423718,,423718,,423717.26,8,400,,,
sequence,flow.Sequence,4_82,2023-09-01T21:06:23.723Z,,0,,,2894.359999999986,completion,,,,,false,,,,423718,423718,420819.96,420822,420823.64,423717.26,8,400,,,
trial,html.Screen,4_83_0,2023-09-01T21:06:27.182Z,,0,2,,3459.7399999999907,response,ISIC_0029744.JPG,11,ISIC_8451869.JPG,ISIC_0029744.JPG,false,1,keypress(m),500,427178,427177,423716.72,423719,423717.26,427179.12,8,400,34,,ISIC_8451869.JPG
break,html.Screen,4_83_1,2023-09-01T21:06:27.184Z,,0,,,NaN,,,,,,false,,,,427180,427180,,427178,,427179.12,8,400,,,
break_continue,html.Screen,4_83_2,2023-09-01T21:06:27.185Z,,0,,,NaN,,,,,,false,,,,427181,427181,,427181,,427179.12,8,400,,,
sequence,flow.Sequence,4_83,2023-09-01T21:06:27.186Z,,0,,,3463.7399999999907,completion,,,,,false,,,,427182,427181,423716.72,423719,423717.26,427179.12,8,400,,,
trial,html.Screen,4_84_0,2023-09-01T21:06:30.189Z,,0,2,,3004.8800000000047,response,ISIC_0054886.JPG,19,ISIC_0065378.JPG,ISIC_0054886.JPG,false,1,keypress(m),500,430184,430184,427178.44,427182,427179.12,430185.42,8,400,35,,ISIC_0065378.JPG
break,html.Screen,4_84_1,2023-09-01T21:06:30.190Z,,0,,,NaN,,,,,,false,,,,430186,430185,,430185,,430185.42,8,400,,,
break_continue,html.Screen,4_84_2,2023-09-01T21:06:30.191Z,,0,,,NaN,,,,,,false,,,,430187,430187,,430186,,430185.42,8,400,,,
sequence,flow.Sequence,4_84,2023-09-01T21:06:30.191Z,,0,,,3007.8800000000047,completion,,,,,false,,,,430187,430187,427178.44,427182,427179.12,430185.42,8,400,,,
trial,html.Screen,4_85_0,2023-09-01T21:06:33.311Z,,0,2,,3120.5800000000163,response,ISIC_0071300.JPG,10,ISIC_0026296.JPG,ISIC_0071300.JPG,false,1,keypress(m),500,433307,433306,430184.82,430187,430185.42,433308.54,8,400,36,,ISIC_0026296.JPG
break,html.Screen,4_85_1,2023-09-01T21:06:33.313Z,,0,,,NaN,,,,,,false,,,,433309,433308,,433308,,433308.54,8,400,,,
break_continue,html.Screen,4_85_2,2023-09-01T21:06:33.314Z,,0,,,NaN,,,,,,false,,,,433310,433309,,433309,,433308.54,8,400,,,
sequence,flow.Sequence,4_85,2023-09-01T21:06:33.314Z,,0,,,3123.5800000000163,completion,,,,,false,,,,433310,433309,430184.82,430187,430185.42,433308.54,8,400,,,
trial,html.Screen,4_86_0,2023-09-01T21:06:36.833Z,,0,2,,3520.460000000021,response,ISIC_8747095.JPG,20,ISIC_0031575.JPG,ISIC_0031575.JPG,false,0,keypress(z),500,436829,436829,433307.92,433310,433308.54,436829.48,8,400,37,,ISIC_8747095.JPG
break,html.Screen,4_86_1,2023-09-01T21:06:36.833Z,,0,,,NaN,,,,,,false,,,,436830,436829,,436829,,436829.48,8,400,,,
break_continue,html.Screen,4_86_2,2023-09-01T21:06:36.834Z,,0,,,NaN,,,,,,false,,,,436830,436830,,436830,,436829.48,8,400,,,
sequence,flow.Sequence,4_86,2023-09-01T21:06:36.834Z,,0,,,3521.460000000021,completion,,,,,false,,,,436830,436830,433307.92,433310,433308.54,436829.48,8,400,,,
trial,html.Screen,4_87_0,2023-09-01T21:06:40.386Z,,0,2,,3552.5200000000186,response,ISIC_0641480.JPG,13,ISIC_6806124.JPG,ISIC_6806124.JPG,false,0,keypress(z),500,440383,440382,436829.18,436830,436829.48,440389.72,8,400,38,,ISIC_0641480.JPG
break,html.Screen,4_87_1,2023-09-01T21:06:40.388Z,,0,,,NaN,,,,,,false,,,,440385,440384,,440383,,440389.72,8,400,,,
break_continue,html.Screen,4_87_2,2023-09-01T21:06:40.389Z,,0,,,NaN,,,,,,false,,,,440385,440385,,440385,,440389.72,8,400,,,
sequence,flow.Sequence,4_87,2023-09-01T21:06:40.390Z,,0,,,3555.5200000000186,completion,,,,,false,,,,440386,440385,436829.18,436830,436829.48,440389.72,8,400,,,
trial,html.Screen,4_88_0,2023-09-01T21:06:43.656Z,,0,2,,3261.280000000028,response,ISIC_8174951.JPG,12,ISIC_0027061.JPG,ISIC_8174951.JPG,false,1,keypress(m),500,443651,443651,440383.04,440386,440389.72,443653.02,8,400,39,,ISIC_0027061.JPG
break,html.Screen,4_88_1,2023-09-01T21:06:43.658Z,,0,,,NaN,,,,,,false,,,,443654,443653,,443652,,443653.02,8,400,,,
break_continue,html.Screen,4_88_2,2023-09-01T21:06:43.658Z,,0,,,NaN,,,,,,false,,,,443655,443655,,443654,,443653.02,8,400,,,
sequence,flow.Sequence,4_88,2023-09-01T21:06:43.659Z,,0,,,3265.280000000028,completion,,,,,false,,,,443655,443655,440383.04,440386,440389.72,443653.02,8,400,,,
trial,html.Screen,4_89_0,2023-09-01T21:06:50.779Z,,0,2,,7121.979999999981,response,ISIC_0822116.JPG,9,ISIC_0000452.JPG,ISIC_0000452.JPG,false,0,keypress(z),500,450776,450775,443652.38,443655,443653.02,450781.32,8,400,40,,ISIC_0822116.JPG
break,html.Screen,4_89_1,2023-09-01T21:06:50.781Z,,0,,,NaN,,,,,,false,,,,450778,450777,,450776,,450781.32,8,400,,,
break_continue,html.Screen,4_89_2,2023-09-01T21:06:50.783Z,,0,,,NaN,,,,,,false,,,,450778,450778,,450778,,450781.32,8,400,,,
sequence,flow.Sequence,4_89,2023-09-01T21:06:50.784Z,,0,,,7124.979999999981,completion,,,,,false,,,,450780,450778,443652.38,443655,443653.02,450781.32,8,400,,,
trial,html.Screen,4_90_0,2023-09-01T21:06:56.492Z,,0,2,,5705.679999999993,response,ISIC_7936755.JPG,28,ISIC_0058858.JPG,ISIC_0058858.JPG,false,0,keypress(z),500,456487,456487,450776.02,450780,450781.32,456488.92,8,400,41,,ISIC_7936755.JPG
break,html.Screen,4_90_1,2023-09-01T21:06:56.494Z,,0,,,NaN,,,,,,false,,,,456489,456489,,456488,,456488.92,8,400,,,
break_continue,html.Screen,4_90_2,2023-09-01T21:06:56.495Z,,0,,,NaN,,,,,,false,,,,456490,456490,,456490,,456488.92,8,400,,,
sequence,flow.Sequence,4_90,2023-09-01T21:06:56.495Z,,0,,,5708.679999999993,completion,,,,,false,,,,456491,456490,450776.02,450780,450781.32,456488.92,8,400,,,
trial,html.Screen,4_91_0,2023-09-01T21:07:00.380Z,,0,2,,3950.0800000000163,response,ISIC_0032130.JPG,11,ISIC_0069210.JPG,ISIC_0069210.JPG,false,0,keypress(z),500,460440,460439,456488.2,456492,456488.92,460441.24,8,400,42,,ISIC_0032130.JPG
break,html.Screen,4_91_1,2023-09-01T21:07:00.382Z,,0,,,NaN,,,,,,false,,,,460442,460441,,460440,,460441.24,8,400,,,
break_continue,html.Screen,4_91_2,2023-09-01T21:07:00.383Z,,0,,,NaN,,,,,,false,,,,460443,460443,,460442,,460441.24,8,400,,,
sequence,flow.Sequence,4_91,2023-09-01T21:07:00.384Z,,0,,,3954.0800000000163,completion,,,,,false,,,,460444,460443,456488.2,456492,456488.92,460441.24,8,400,,,
trial,html.Screen,4_92_0,2023-09-01T21:07:04.024Z,,0,2,,3780.7600000000093,response,ISIC_0024683.JPG,10,ISIC_0006328.JPG,ISIC_0006328.JPG,false,0,keypress(z),500,464222,464222,460440.52,460444,460441.24,464225.92,8,400,43,,ISIC_0024683.JPG
break,html.Screen,4_92_1,2023-09-01T21:07:04.025Z,,0,,,NaN,,,,,,false,,,,464224,464224,,464223,,464225.92,8,400,,,
break_continue,html.Screen,4_92_2,2023-09-01T21:07:04.026Z,,0,,,NaN,,,,,,false,,,,464225,464225,,464224,,464225.92,8,400,,,
sequence,flow.Sequence,4_92,2023-09-01T21:07:04.027Z,,0,,,3783.7600000000093,completion,,,,,false,,,,464225,464225,460440.52,460444,460441.24,464225.92,8,400,,,
trial,html.Screen,4_93_0,2023-09-01T21:07:08.355Z,,0,2,,4491.080000000016,response,ISIC_5360921.JPG,9,ISIC_0057155.JPG,ISIC_0057155.JPG,false,0,keypress(z),500,468718,468717,464222.98,464225,464225.92,468719.22,8,400,44,,ISIC_5360921.JPG
break,html.Screen,4_93_1,2023-09-01T21:07:08.357Z,,0,,,NaN,,,,,,false,,,,468720,468720,,468719,,468719.22,8,400,,,
break_continue,html.Screen,4_93_2,2023-09-01T21:07:08.358Z,,0,,,NaN,,,,,,false,,,,468721,468721,,468721,,468719.22,8,400,,,
sequence,flow.Sequence,4_93,2023-09-01T21:07:08.359Z,,0,,,4495.080000000016,completion,,,,,false,,,,468722,468721,464222.98,464225,464225.92,468719.22,8,400,,,
trial,html.Screen,4_94_0,2023-09-01T21:07:11.414Z,,0,2,,3173.780000000028,response,ISIC_0062827.JPG,13,ISIC_0060222.JPG,ISIC_0060222.JPG,false,0,keypress(z),500,471894,471893,468718.5,468722,468719.22,471894.28,8,400,45,,ISIC_0062827.JPG
break,html.Screen,4_94_1,2023-09-01T21:07:11.416Z,,0,,,NaN,,,,,,false,,,,471895,471894,,471894,,471894.28,8,400,,,
break_continue,html.Screen,4_94_2,2023-09-01T21:07:11.417Z,,0,,,NaN,,,,,,false,,,,471895,471895,,471895,,471894.28,8,400,,,
sequence,flow.Sequence,4_94,2023-09-01T21:07:11.417Z,,0,,,3175.780000000028,completion,,,,,false,,,,471896,471895,468718.5,468722,468719.22,471894.28,8,400,,,
trial,html.Screen,4_95_0,2023-09-01T21:07:14.390Z,,0,2,,3086.719999999972,response,ISIC_0028086.JPG,15,ISIC_0034075.JPG,ISIC_0028086.JPG,false,1,keypress(m),500,474982,474981,471893.76,471896,471894.28,474982.8,8,400,46,,ISIC_0034075.JPG
break,html.Screen,4_95_1,2023-09-01T21:07:14.392Z,,0,,,NaN,,,,,,false,,,,474983,474983,,474982,,474982.8,8,400,,,
break_continue,html.Screen,4_95_2,2023-09-01T21:07:14.392Z,,0,,,NaN,,,,,,false,,,,474984,474984,,474984,,474982.8,8,400,,,
sequence,flow.Sequence,4_95,2023-09-01T21:07:14.393Z,,0,,,3089.719999999972,completion,,,,,false,,,,474984,474984,471893.76,471896,471894.28,474982.8,8,400,,,
trial,html.Screen,4_96_0,2023-09-01T21:07:18.163Z,,0,2,,3915.2000000000116,response,ISIC_7642142.JPG,26,ISIC_0033800.JPG,ISIC_0033800.JPG,false,0,keypress(z),500,478898,478898,474982.2,474985,474982.8,478897.76,8,400,47,,ISIC_7642142.JPG
break,html.Screen,4_96_1,2023-09-01T21:07:18.163Z,,0,,,NaN,,,,,,false,,,,478898,478898,,478898,,478897.76,8,400,,,
break_continue,html.Screen,4_96_2,2023-09-01T21:07:18.163Z,,0,,,NaN,,,,,,false,,,,478898,478898,,478898,,478897.76,8,400,,,
sequence,flow.Sequence,4_96,2023-09-01T21:07:18.163Z,,0,,,3915.2000000000116,completion,,,,,false,,,,478898,478898,474982.2,474985,474982.8,478897.76,8,400,,,
trial,html.Screen,4_97_0,2023-09-01T21:07:21.178Z,,0,2,,3128.2399999999907,response,ISIC_2209697.JPG,6,ISIC_0068895.JPG,ISIC_0068895.JPG,false,0,keypress(z),500,482027,482026,478897.48,478898,478897.76,482028.44,8,400,48,,ISIC_2209697.JPG
break,html.Screen,4_97_1,2023-09-01T21:07:21.179Z,,0,,,NaN,,,,,,false,,,,482029,482028,,482028,,482028.44,8,400,,,
break_continue,html.Screen,4_97_2,2023-09-01T21:07:21.180Z,,0,,,NaN,,,,,,false,,,,482030,482030,,482029,,482028.44,8,400,,,
sequence,flow.Sequence,4_97,2023-09-01T21:07:21.181Z,,0,,,3132.2399999999907,completion,,,,,false,,,,482031,482030,478897.48,478898,478897.76,482028.44,8,400,,,
trial,html.Screen,4_98_0,2023-09-01T21:07:25.296Z,,0,2,,4272.559999999998,response,ISIC_0063180.JPG,4,ISIC_0011699.JPG,ISIC_0011699.JPG,false,0,keypress(z),500,486302,486301,482027.88,482031,482028.44,486303.06,8,400,49,,ISIC_0063180.JPG
break,html.Screen,4_98_1,2023-09-01T21:07:25.298Z,,0,,,NaN,,,,,,false,,,,486304,486304,,486303,,486303.06,8,400,,,
break_continue,html.Screen,4_98_2,2023-09-01T21:07:25.299Z,,0,,,NaN,,,,,,false,,,,486305,486305,,486305,,486303.06,8,400,,,
sequence,flow.Sequence,4_98,2023-09-01T21:07:25.300Z,,0,,,4276.559999999998,completion,,,,,false,,,,486306,486305,482027.88,482031,482028.44,486303.06,8,400,,,
trial,html.Screen,4_99_0,2023-09-01T21:07:28.755Z,,0,2,,3588.9400000000023,response,ISIC_3926019.JPG,0,ISIC_0029441.JPG,ISIC_0029441.JPG,false,0,keypress(z),500,489893,489892,486302.32,486306,486303.06,489893.58,8,400,50,,ISIC_3926019.JPG
break,html.Screen,4_99_1,2023-09-01T21:07:38.370Z,,0,,,9993.719999999972,timeout,,,,,false,,,,499872,499870.62,489893.12,489893,489893.58,499887.3,8,400,,,
break_continue,html.Screen,4_99_2,2023-09-01T21:07:40.328Z,,0,,,1994.7000000000116,response,,,,,false,continue,keypress(Space),,501904,501882,499870.62,499873,499887.3,501905.26,8,400,,,
sequence,flow.Sequence,4_99,2023-09-01T21:07:40.328Z,,0,,,15578.940000000002,completion,,,,,false,,,,501904,501882,486302.32,486306,486303.06,501905.26,8,400,,,
trial,html.Screen,4_100_0,2023-09-01T21:07:43.554Z,,0,3,,3345.7399999999907,response,ISIC_7779155.JPG,12,ISIC_0034094.JPG,ISIC_0034094.JPG,false,0,keypress(z),500,505252,505251,501904.98,501905,501905.26,505260.02,8,400,1,,ISIC_7779155.JPG
break,html.Screen,4_100_1,2023-09-01T21:07:43.555Z,,0,,,NaN,,,,,,false,,,,505255,505253,,505252,,505260.02,8,400,,,
break_continue,html.Screen,4_100_2,2023-09-01T21:07:43.556Z,,0,,,NaN,,,,,,false,,,,505256,505255,,505255,,505260.02,8,400,,,
sequence,flow.Sequence,4_100,2023-09-01T21:07:43.556Z,,0,,,3349.7399999999907,completion,,,,,false,,,,505256,505255,501904.98,501905,501905.26,505260.02,8,400,,,
trial,html.Screen,4_101_0,2023-09-01T21:07:47.440Z,,0,3,,4026.9799999999814,response,ISIC_0027170.JPG,26,ISIC_0015969.JPG,ISIC_0027170.JPG,false,1,keypress(m),500,509287,509287,505253,505257,505260.02,509288.78,8,400,2,,ISIC_0015969.JPG
break,html.Screen,4_101_1,2023-09-01T21:07:47.443Z,,0,,,NaN,,,,,,false,,,,509289,509289,,509288,,509288.78,8,400,,,
break_continue,html.Screen,4_101_2,2023-09-01T21:07:47.444Z,,0,,,NaN,,,,,,false,,,,509290,509290,,509290,,509288.78,8,400,,,
sequence,flow.Sequence,4_101,2023-09-01T21:07:47.445Z,,0,,,4029.9799999999814,completion,,,,,false,,,,509292,509290,505253,505256,505260.02,509288.78,8,400,,,
trial,html.Screen,4_102_0,2023-09-01T21:07:52.026Z,,0,3,,4757.219999999972,response,ISIC_0072516.JPG,13,ISIC_0070888.JPG,ISIC_0072516.JPG,false,1,keypress(m),500,514046,514046,509288.02,509292,509288.78,514050.44,8,400,3,,ISIC_0070888.JPG
break,html.Screen,4_102_1,2023-09-01T21:07:52.027Z,,0,,,NaN,,,,,,false,,,,514048,514047,,514046,,514050.44,8,400,,,
break_continue,html.Screen,4_102_2,2023-09-01T21:07:52.028Z,,0,,,NaN,,,,,,false,,,,514048,514048,,514048,,514050.44,8,400,,,
sequence,flow.Sequence,4_102,2023-09-01T21:07:52.028Z,,0,,,4759.219999999972,completion,,,,,false,,,,514050,514048,509288.02,509292,509288.78,514050.44,8,400,,,
trial,html.Screen,4_103_0,2023-09-01T21:07:55.814Z,,0,3,,3927.5599999999977,response,ISIC_3466769.JPG,23,ISIC_0010734.JPG,ISIC_0010734.JPG,false,0,keypress(z),500,517979,517978,514046.78,514050,514050.44,517979.78,8,400,4,,ISIC_3466769.JPG
break,html.Screen,4_103_1,2023-09-01T21:07:55.816Z,,0,,,NaN,,,,,,false,,,,517980,517980,,517979,,517979.78,8,400,,,
break_continue,html.Screen,4_103_2,2023-09-01T21:07:55.817Z,,0,,,NaN,,,,,,false,,,,517981,517981,,517980,,517979.78,8,400,,,
sequence,flow.Sequence,4_103,2023-09-01T21:07:55.817Z,,0,,,3930.5599999999977,completion,,,,,false,,,,517981,517981,514046.78,514050,514050.44,517979.78,8,400,,,
trial,html.Screen,4_104_0,2023-09-01T21:07:59.448Z,,0,3,,3770.219999999972,response,ISIC_8794567.JPG,26,ISIC_0034090.JPG,ISIC_0034090.JPG,false,0,keypress(z),500,521750,521750,517979.28,517981,517979.78,521756.92,8,400,5,,ISIC_8794567.JPG
break,html.Screen,4_104_1,2023-09-01T21:07:59.450Z,,0,,,NaN,,,,,,false,,,,521753,521752,,521751,,521756.92,8,400,,,
break_continue,html.Screen,4_104_2,2023-09-01T21:07:59.452Z,,0,,,NaN,,,,,,false,,,,521754,521754,,521753,,521756.92,8,400,,,
sequence,flow.Sequence,4_104,2023-09-01T21:07:59.452Z,,0,,,3774.219999999972,completion,,,,,false,,,,521754,521754,517979.28,517981,517979.78,521756.92,8,400,,,
trial,html.Screen,4_105_0,2023-09-01T21:08:03.212Z,,0,3,,3901.0800000000163,response,ISIC_0028705.JPG,14,ISIC_2241388.JPG,ISIC_2241388.JPG,false,0,keypress(z),500,525658,525658,521751.4,521755,521756.92,525659.16,8,400,6,,ISIC_0028705.JPG
break,html.Screen,4_105_1,2023-09-01T21:08:03.214Z,,0,,,NaN,,,,,,false,,,,525660,525659,,525659,,525659.16,8,400,,,
break_continue,html.Screen,4_105_2,2023-09-01T21:08:03.216Z,,0,,,NaN,,,,,,false,,,,525661,525660,,525660,,525659.16,8,400,,,
sequence,flow.Sequence,4_105,2023-09-01T21:08:03.216Z,,0,,,3903.0800000000163,completion,,,,,false,,,,525662,525660,521751.4,521755,521756.92,525659.16,8,400,,,
trial,html.Screen,4_106_0,2023-09-01T21:08:06.808Z,,0,3,,3730.8399999999674,response,ISIC_6891226.JPG,22,ISIC_0026244.JPG,ISIC_6891226.JPG,false,1,keypress(m),500,529390,529390,525658.5,525662,525659.16,529396.42,8,400,7,,ISIC_0026244.JPG
break,html.Screen,4_106_1,2023-09-01T21:08:06.811Z,,0,,,NaN,,,,,,false,,,,529393,529392,,529391,,529396.42,8,400,,,
break_continue,html.Screen,4_106_2,2023-09-01T21:08:06.813Z,,0,,,NaN,,,,,,false,,,,529394,529394,,529393,,529396.42,8,400,,,
sequence,flow.Sequence,4_106,2023-09-01T21:08:06.813Z,,0,,,3734.8399999999674,completion,,,,,false,,,,529395,529394,525658.5,525662,525659.16,529396.42,8,400,,,
trial,html.Screen,4_107_0,2023-09-01T21:08:09.647Z,,0,3,,2939.579999999958,response,ISIC_0011463.JPG,8,ISIC_0033166.JPG,ISIC_0011463.JPG,false,1,keypress(m),500,532337,532336,529391.22,529395,529396.42,532337.54,8,400,8,,ISIC_0033166.JPG
break,html.Screen,4_107_1,2023-09-01T21:08:09.649Z,,0,,,NaN,,,,,,false,,,,532338,532338,,532337,,532337.54,8,400,,,
break_continue,html.Screen,4_107_2,2023-09-01T21:08:09.649Z,,0,,,NaN,,,,,,false,,,,532339,532339,,532339,,532337.54,8,400,,,
sequence,flow.Sequence,4_107,2023-09-01T21:08:09.650Z,,0,,,2942.579999999958,completion,,,,,false,,,,532339,532339,529391.22,529395,529396.42,532337.54,8,400,,,
trial,html.Screen,4_108_0,2023-09-01T21:08:13.666Z,,0,3,,4170.459999999963,response,ISIC_3305153.JPG,12,ISIC_8357415.JPG,ISIC_3305153.JPG,false,1,keypress(m),500,536509,536508,532337.02,532340,532337.54,536510.38,8,400,9,,ISIC_8357415.JPG
break,html.Screen,4_108_1,2023-09-01T21:08:13.669Z,,0,,,NaN,,,,,,false,,,,536511,536511,,536510,,536510.38,8,400,,,
break_continue,html.Screen,4_108_2,2023-09-01T21:08:13.670Z,,0,,,NaN,,,,,,false,,,,536513,536513,,536511,,536510.38,8,400,,,
sequence,flow.Sequence,4_108,2023-09-01T21:08:13.671Z,,0,,,4175.459999999963,completion,,,,,false,,,,536513,536513,532337.02,532340,532337.54,536510.38,8,400,,,
trial,html.Screen,4_109_0,2023-09-01T21:08:17.642Z,,0,3,,4123.619999999995,response,ISIC_5028203.JPG,8,ISIC_0061918.JPG,ISIC_5028203.JPG,false,1,keypress(m),500,540635,540634,536509.54,536514,536510.38,540638.92,8,400,10,,ISIC_0061918.JPG
break,html.Screen,4_109_1,2023-09-01T21:08:17.643Z,,0,,,NaN,,,,,,false,,,,540636,540636,,540635,,540638.92,8,400,,,
break_continue,html.Screen,4_109_2,2023-09-01T21:08:17.644Z,,0,,,NaN,,,,,,false,,,,540637,540637,,540637,,540638.92,8,400,,,
sequence,flow.Sequence,4_109,2023-09-01T21:08:17.644Z,,0,,,4126.619999999995,completion,,,,,false,,,,540637,540637,536509.54,536514,536510.38,540638.92,8,400,,,
trial,html.Screen,4_110_0,2023-09-01T21:08:20.924Z,,0,3,,3402.079999999958,response,ISIC_2741583.JPG,16,ISIC_3736075.JPG,ISIC_2741583.JPG,false,1,keypress(m),500,544041,544041,540635,540638,540638.92,544041.58,8,400,11,,ISIC_3736075.JPG
break,html.Screen,4_110_1,2023-09-01T21:08:20.925Z,,0,,,NaN,,,,,,false,,,,544042,544042,,544042,,544041.58,8,400,,,
break_continue,html.Screen,4_110_2,2023-09-01T21:08:20.925Z,,0,,,NaN,,,,,,false,,,,544043,544042,,544042,,544041.58,8,400,,,
sequence,flow.Sequence,4_110,2023-09-01T21:08:20.925Z,,0,,,3403.079999999958,completion,,,,,false,,,,544043,544042,540635,540638,540638.92,544041.58,8,400,,,
trial,html.Screen,4_111_0,2023-09-01T21:08:24.456Z,,0,3,,3666.420000000042,response,ISIC_0046921.JPG,1,ISIC_0033998.JPG,ISIC_0046921.JPG,false,1,keypress(m),500,547708,547708,544041.32,544043,544041.58,547727.72,8,400,12,,ISIC_0033998.JPG
break,html.Screen,4_111_1,2023-09-01T21:08:24.457Z,,0,,,NaN,,,,,,false,,,,547709,547709,,547708,,547727.72,8,400,,,
break_continue,html.Screen,4_111_2,2023-09-01T21:08:24.457Z,,0,,,NaN,,,,,,false,,,,547710,547709,,547709,,547727.72,8,400,,,
sequence,flow.Sequence,4_111,2023-09-01T21:08:24.458Z,,0,,,3667.420000000042,completion,,,,,false,,,,547710,547709,544041.32,544043,544041.58,547727.72,8,400,,,
trial,html.Screen,4_112_0,2023-09-01T21:08:28.320Z,,0,3,,3990.280000000028,response,ISIC_0033977.JPG,10,ISIC_2535382.JPG,ISIC_0033977.JPG,false,1,keypress(m),500,551718,551718,547711.04,547710,547727.72,551719.42,8,400,13,,ISIC_2535382.JPG
break,html.Screen,4_112_1,2023-09-01T21:08:28.322Z,,0,,,NaN,,,,,,false,,,,551720,551720,,551718,,551719.42,8,400,,,
break_continue,html.Screen,4_112_2,2023-09-01T21:08:28.323Z,,0,,,NaN,,,,,,false,,,,551721,551721,,551721,,551719.42,8,400,,,
sequence,flow.Sequence,4_112,2023-09-01T21:08:28.323Z,,0,,,3993.280000000028,completion,,,,,false,,,,551722,551721,547711.04,547710,547727.72,551719.42,8,400,,,
trial,html.Screen,4_113_0,2023-09-01T21:08:32.788Z,,0,3,,4635.579999999958,response,ISIC_0026103.JPG,11,ISIC_0070860.JPG,ISIC_0070860.JPG,false,0,keypress(z),500,556355,556355,551718.8,551722,551719.42,556356.32,8,400,14,,ISIC_0026103.JPG
break,html.Screen,4_113_1,2023-09-01T21:08:32.788Z,,0,,,NaN,,,,,,false,,,,556356,556355,,556355,,556356.32,8,400,,,
break_continue,html.Screen,4_113_2,2023-09-01T21:08:32.789Z,,0,,,NaN,,,,,,false,,,,556356,556356,,556356,,556356.32,8,400,,,
sequence,flow.Sequence,4_113,2023-09-01T21:08:32.789Z,,0,,,4636.579999999958,completion,,,,,false,,,,556356,556356,551718.8,551722,551719.42,556356.32,8,400,,,
trial,html.Screen,4_114_0,2023-09-01T21:08:36.486Z,,0,3,,3836.680000000051,response,ISIC_2021321.JPG,11,ISIC_0008162.JPG,ISIC_2021321.JPG,false,1,keypress(m),500,560194,560193,556355.7,556356,556356.32,560194.72,8,400,15,,ISIC_0008162.JPG
break,html.Screen,4_114_1,2023-09-01T21:08:36.487Z,,0,,,NaN,,,,,,false,,,,560195,560195,,560194,,560194.72,8,400,,,
break_continue,html.Screen,4_114_2,2023-09-01T21:08:36.487Z,,0,,,NaN,,,,,,false,,,,560196,560195,,560195,,560194.72,8,400,,,
sequence,flow.Sequence,4_114,2023-09-01T21:08:36.487Z,,0,,,3838.680000000051,completion,,,,,false,,,,560196,560195,556355.7,556356,556356.32,560194.72,8,400,,,
trial,html.Screen,4_115_0,2023-09-01T21:08:40.148Z,,0,3,,3799.280000000028,response,ISIC_0024900.JPG,14,ISIC_0068950.JPG,ISIC_0024900.JPG,false,1,keypress(m),500,563995,563994,560194.32,560196,560194.72,563996.6,8,400,16,,ISIC_0068950.JPG
break,html.Screen,4_115_1,2023-09-01T21:08:40.150Z,,0,,,NaN,,,,,,false,,,,563997,563997,,563996,,563996.6,8,400,,,
break_continue,html.Screen,4_115_2,2023-09-01T21:08:40.150Z,,0,,,NaN,,,,,,false,,,,563998,563998,,563998,,563996.6,8,400,,,
sequence,flow.Sequence,4_115,2023-09-01T21:08:40.151Z,,0,,,3803.280000000028,completion,,,,,false,,,,563999,563998,560194.32,560196,560194.72,563996.6,8,400,,,
trial,html.Screen,4_116_0,2023-09-01T21:08:43.935Z,,0,3,,3927.4000000000233,response,ISIC_0046622.JPG,2,ISIC_8147189.JPG,ISIC_0046622.JPG,false,1,keypress(m),500,567925,567924,563996.02,564000,563996.6,567928.38,8,400,17,,ISIC_8147189.JPG
break,html.Screen,4_116_1,2023-09-01T21:08:43.935Z,,0,,,NaN,,,,,,false,,,,567927,567926,,567925,,567928.38,8,400,,,
break_continue,html.Screen,4_116_2,2023-09-01T21:08:43.936Z,,0,,,NaN,,,,,,false,,,,567927,567927,,567927,,567928.38,8,400,,,
sequence,flow.Sequence,4_116,2023-09-01T21:08:43.936Z,,0,,,3930.4000000000233,completion,,,,,false,,,,567928,567927,563996.02,563999,563996.6,567928.38,8,400,,,
trial,html.Screen,4_117_0,2023-09-01T21:08:47.921Z,,0,3,,4135.619999999995,response,ISIC_0066798.JPG,10,ISIC_0006118.JPG,ISIC_0006118.JPG,false,0,keypress(z),500,572064,572064,567925.68,567928,567928.38,572064.3,8,400,18,,ISIC_0066798.JPG
break,html.Screen,4_117_1,2023-09-01T21:08:47.922Z,,0,,,NaN,,,,,,false,,,,572065,572065,,572065,,572064.3,8,400,,,
break_continue,html.Screen,4_117_2,2023-09-01T21:08:47.922Z,,0,,,NaN,,,,,,false,,,,572065,572065,,572065,,572064.3,8,400,,,
sequence,flow.Sequence,4_117,2023-09-01T21:08:47.922Z,,0,,,4136.619999999995,completion,,,,,false,,,,572065,572065,567925.68,567928,567928.38,572064.3,8,400,,,
trial,html.Screen,4_118_0,2023-09-01T21:08:51.489Z,,0,3,,3702.6999999999534,response,ISIC_2072219.JPG,13,ISIC_3328295.JPG,ISIC_2072219.JPG,false,1,keypress(m),500,575767,575767,572064.18,572065,572064.3,575767.4,8,400,19,,ISIC_3328295.JPG
break,html.Screen,4_118_1,2023-09-01T21:08:51.489Z,,0,,,NaN,,,,,,false,,,,575767,575767,,575767,,575767.4,8,400,,,
break_continue,html.Screen,4_118_2,2023-09-01T21:08:51.489Z,,0,,,NaN,,,,,,false,,,,575767,575767,,575767,,575767.4,8,400,,,
sequence,flow.Sequence,4_118,2023-09-01T21:08:51.489Z,,0,,,3702.6999999999534,completion,,,,,false,,,,575767,575767,572064.18,572065,572064.3,575767.4,8,400,,,
trial,html.Screen,4_119_0,2023-09-01T21:08:54.861Z,,0,3,,3499.5999999999767,response,ISIC_0010401.JPG,4,ISIC_7600621.JPG,ISIC_0010401.JPG,false,1,keypress(m),500,579267,579267,575767,575767,575767.4,579270.06,8,400,20,,ISIC_7600621.JPG
break,html.Screen,4_119_1,2023-09-01T21:08:54.862Z,,0,,,NaN,,,,,,false,,,,579268,579268,,579267,,579270.06,8,400,,,
break_continue,html.Screen,4_119_2,2023-09-01T21:08:54.862Z,,0,,,NaN,,,,,,false,,,,579268,579268,,579268,,579270.06,8,400,,,
sequence,flow.Sequence,4_119,2023-09-01T21:08:54.862Z,,0,,,3500.5999999999767,completion,,,,,false,,,,579268,579268,575767,575767,575767.4,579270.06,8,400,,,
trial,html.Screen,4_120_0,2023-09-01T21:09:00.043Z,,0,3,,5375.939999999944,response,ISIC_4141898.JPG,2,ISIC_4419686.JPG,ISIC_4141898.JPG,false,1,keypress(m),500,584646,584646,579267.16,579268,579270.06,584646.7,8,400,21,,ISIC_4419686.JPG
break,html.Screen,4_120_1,2023-09-01T21:09:00.044Z,,0,,,NaN,,,,,,false,,,,584646,584646,,584646,,584646.7,8,400,,,
break_continue,html.Screen,4_120_2,2023-09-01T21:09:00.044Z,,0,,,NaN,,,,,,false,,,,584647,584647,,584647,,584646.7,8,400,,,
sequence,flow.Sequence,4_120,2023-09-01T21:09:00.044Z,,0,,,5376.939999999944,completion,,,,,false,,,,584647,584647,579267.16,579268,579270.06,584646.7,8,400,,,
trial,html.Screen,4_121_0,2023-09-01T21:09:03.823Z,,0,3,,3922.3000000000466,response,ISIC_4231346.JPG,19,ISIC_0033638.JPG,ISIC_0033638.JPG,false,0,keypress(z),500,588569,588569,584646.02,584647,584646.7,588569.74,8,400,22,,ISIC_4231346.JPG
break,html.Screen,4_121_1,2023-09-01T21:09:03.823Z,,0,,,NaN,,,,,,false,,,,588569,588569,,588569,,588569.74,8,400,,,
break_continue,html.Screen,4_121_2,2023-09-01T21:09:03.824Z,,0,,,NaN,,,,,,false,,,,588570,588569,,588569,,588569.74,8,400,,,
sequence,flow.Sequence,4_121,2023-09-01T21:09:03.824Z,,0,,,3922.3000000000466,completion,,,,,false,,,,588570,588569,584646.02,584647,584646.7,588569.74,8,400,,,
trial,html.Screen,4_122_0,2023-09-01T21:09:07.356Z,,0,3,,3667.2600000000093,response,ISIC_8749288.JPG,18,ISIC_0011370.JPG,ISIC_0011370.JPG,false,0,keypress(z),500,592237,592237,588569.38,588570,588569.74,592237.7,8,400,23,,ISIC_8749288.JPG
break,html.Screen,4_122_1,2023-09-01T21:09:07.357Z,,0,,,NaN,,,,,,false,,,,592237,592237,,592237,,592237.7,8,400,,,
break_continue,html.Screen,4_122_2,2023-09-01T21:09:07.357Z,,0,,,NaN,,,,,,false,,,,592237,592237,,592237,,592237.7,8,400,,,
sequence,flow.Sequence,4_122,2023-09-01T21:09:07.357Z,,0,,,3667.2600000000093,completion,,,,,false,,,,592237,592237,588569.38,588570,588569.74,592237.7,8,400,,,
trial,html.Screen,4_123_0,2023-09-01T21:09:11.714Z,,0,3,,4521.300000000047,response,ISIC_7134821.JPG,21,ISIC_3352962.JPG,ISIC_7134821.JPG,false,1,keypress(m),500,596759,596759,592236.9,592237,592237.7,596759.98,8,400,24,,ISIC_3352962.JPG
break,html.Screen,4_123_1,2023-09-01T21:09:11.714Z,,0,,,NaN,,,,,,false,,,,596759,596759,,596759,,596759.98,8,400,,,
break_continue,html.Screen,4_123_2,2023-09-01T21:09:11.715Z,,0,,,NaN,,,,,,false,,,,596760,596760,,596760,,596759.98,8,400,,,
sequence,flow.Sequence,4_123,2023-09-01T21:09:11.715Z,,0,,,4522.300000000047,completion,,,,,false,,,,596760,596760,592236.9,592237,592237.7,596759.98,8,400,,,
trial,html.Screen,4_124_0,2023-09-01T21:09:14.549Z,,0,3,,2943.0200000000186,response,ISIC_6038355.JPG,4,ISIC_9977672.JPG,ISIC_6038355.JPG,false,1,keypress(m),500,599703,599703,596759.4,596760,596759.98,599703.82,8,400,25,,ISIC_9977672.JPG
break,html.Screen,4_124_1,2023-09-01T21:09:14.550Z,,0,,,NaN,,,,,,false,,,,599703,599703,,599703,,599703.82,8,400,,,
break_continue,html.Screen,4_124_2,2023-09-01T21:09:14.550Z,,0,,,NaN,,,,,,false,,,,599703,599703,,599703,,599703.82,8,400,,,
sequence,flow.Sequence,4_124,2023-09-01T21:09:14.550Z,,0,,,2943.0200000000186,completion,,,,,false,,,,599703,599703,596759.4,596760,596759.98,599703.82,8,400,,,
trial,html.Screen,4_125_0,2023-09-01T21:09:17.861Z,,0,3,,3435.180000000051,response,ISIC_0009883.JPG,21,ISIC_0010433.JPG,ISIC_0010433.JPG,false,0,keypress(z),500,603140,603139,599703.28,599703,599703.82,603141.68,8,400,26,,ISIC_0009883.JPG
break,html.Screen,4_125_1,2023-09-01T21:09:17.864Z,,0,,,NaN,,,,,,false,,,,603143,603142,,603141,,603141.68,8,400,,,
break_continue,html.Screen,4_125_2,2023-09-01T21:09:17.865Z,,0,,,NaN,,,,,,false,,,,603144,603144,,603143,,603141.68,8,400,,,
sequence,flow.Sequence,4_125,2023-09-01T21:09:17.865Z,,0,,,3440.180000000051,completion,,,,,false,,,,603144,603144,599703.28,599703,599703.82,603141.68,8,400,,,
trial,html.Screen,4_126_0,2023-09-01T21:09:21.436Z,,0,3,,3707.319999999949,response,ISIC_9540825.JPG,3,ISIC_2506200.JPG,ISIC_9540825.JPG,false,1,keypress(m),500,606850,606849,603141.02,603145,603141.68,606851.72,8,400,27,,ISIC_2506200.JPG
break,html.Screen,4_126_1,2023-09-01T21:09:21.438Z,,0,,,NaN,,,,,,false,,,,606852,606851,,606850,,606851.72,8,400,,,
break_continue,html.Screen,4_126_2,2023-09-01T21:09:21.439Z,,0,,,NaN,,,,,,false,,,,606854,606853,,606853,,606851.72,8,400,,,
sequence,flow.Sequence,4_126,2023-09-01T21:09:21.439Z,,0,,,3711.319999999949,completion,,,,,false,,,,606855,606853,603141.02,603145,603141.68,606851.72,8,400,,,
trial,html.Screen,4_127_0,2023-09-01T21:09:24.633Z,,0,3,,3317.280000000028,response,ISIC_0025324.JPG,2,ISIC_0026407.JPG,ISIC_0025324.JPG,false,1,keypress(m),500,610169,610169,606851.04,606855,606851.72,610169.06,8,400,28,,ISIC_0026407.JPG
break,html.Screen,4_127_1,2023-09-01T21:09:24.633Z,,0,,,NaN,,,,,,false,,,,610170,610169,,610169,,610169.06,8,400,,,
break_continue,html.Screen,4_127_2,2023-09-01T21:09:24.634Z,,0,,,NaN,,,,,,false,,,,610170,610170,,610170,,610169.06,8,400,,,
sequence,flow.Sequence,4_127,2023-09-01T21:09:24.634Z,,0,,,3318.280000000028,completion,,,,,false,,,,610170,610170,606851.04,606855,606851.72,610169.06,8,400,,,
trial,html.Screen,4_128_0,2023-09-01T21:09:28.351Z,,0,3,,3858.939999999944,response,ISIC_0579562.JPG,5,ISIC_0010879.JPG,ISIC_0010879.JPG,false,0,keypress(z),500,614028,614028,610168.86,610170,610169.06,614032.76,8,400,29,,ISIC_0579562.JPG
break,html.Screen,4_128_1,2023-09-01T21:09:28.352Z,,0,,,NaN,,,,,,false,,,,614029,614029,,614028,,614032.76,8,400,,,
break_continue,html.Screen,4_128_2,2023-09-01T21:09:28.353Z,,0,,,NaN,,,,,,false,,,,614030,614030,,614030,,614032.76,8,400,,,
sequence,flow.Sequence,4_128,2023-09-01T21:09:28.354Z,,0,,,3860.939999999944,completion,,,,,false,,,,614031,614030,610168.86,610170,610169.06,614032.76,8,400,,,
trial,html.Screen,4_129_0,2023-09-01T21:09:32.391Z,,0,3,,4188.239999999991,response,ISIC_0030417.JPG,11,ISIC_0024275.JPG,ISIC_0030417.JPG,false,1,keypress(m),500,618221,618221,614028.86,614031,614032.76,618221.52,8,400,30,,ISIC_0024275.JPG
break,html.Screen,4_129_1,2023-09-01T21:09:32.391Z,,0,,,NaN,,,,,,false,,,,618222,618222,,618221,,618221.52,8,400,,,
break_continue,html.Screen,4_129_2,2023-09-01T21:09:32.391Z,,0,,,NaN,,,,,,false,,,,618222,618222,,618222,,618221.52,8,400,,,
sequence,flow.Sequence,4_129,2023-09-01T21:09:32.391Z,,0,,,4189.239999999991,completion,,,,,false,,,,618222,618222,614028.86,614031,614032.76,618221.52,8,400,,,
trial,html.Screen,4_130_0,2023-09-01T21:09:35.352Z,,0,3,,3073.4799999999814,response,ISIC_0011855.JPG,14,ISIC_2141003.JPG,ISIC_2141003.JPG,false,0,keypress(z),500,621296,621295,618221.1,618222,618221.52,621296.48,8,400,31,,ISIC_0011855.JPG
break,html.Screen,4_130_1,2023-09-01T21:09:35.354Z,,0,,,NaN,,,,,,false,,,,621297,621297,,621296,,621296.48,8,400,,,
break_continue,html.Screen,4_130_2,2023-09-01T21:09:35.354Z,,0,,,NaN,,,,,,false,,,,621297,621297,,621297,,621296.48,8,400,,,
sequence,flow.Sequence,4_130,2023-09-01T21:09:35.355Z,,0,,,3075.4799999999814,completion,,,,,false,,,,621298,621297,618221.1,618222,618221.52,621296.48,8,400,,,
trial,html.Screen,4_131_0,2023-09-01T21:09:39.270Z,,0,3,,4064.5200000000186,response,ISIC_5854552.JPG,6,ISIC_3067522.JPG,ISIC_3067522.JPG,false,0,keypress(z),500,625362,625361,621295.98,621298,621296.48,625363.02,8,400,32,,ISIC_5854552.JPG
break,html.Screen,4_131_1,2023-09-01T21:09:39.271Z,,0,,,NaN,,,,,,false,,,,625362,625362,,625362,,625363.02,8,400,,,
break_continue,html.Screen,4_131_2,2023-09-01T21:09:39.271Z,,0,,,NaN,,,,,,false,,,,625363,625362,,625362,,625363.02,8,400,,,
sequence,flow.Sequence,4_131,2023-09-01T21:09:39.271Z,,0,,,4065.5200000000186,completion,,,,,false,,,,625363,625362,621295.98,621298,621296.48,625363.02,8,400,,,
trial,html.Screen,4_132_0,2023-09-01T21:09:42.467Z,,0,3,,3316.9799999999814,response,ISIC_0013898.JPG,16,ISIC_0055191.JPG,ISIC_0055191.JPG,false,0,keypress(z),500,628680,628680,625362.36,625363,625363.02,628680.66,8,400,33,,ISIC_0013898.JPG
break,html.Screen,4_132_1,2023-09-01T21:09:42.467Z,,0,,,NaN,,,,,,false,,,,628681,628681,,628680,,628680.66,8,400,,,
break_continue,html.Screen,4_132_2,2023-09-01T21:09:42.467Z,,0,,,NaN,,,,,,false,,,,628681,628681,,628681,,628680.66,8,400,,,
sequence,flow.Sequence,4_132,2023-09-01T21:09:42.468Z,,0,,,3317.9799999999814,completion,,,,,false,,,,628681,628681,625362.36,625363,625363.02,628680.66,8,400,,,
trial,html.Screen,4_133_0,2023-09-01T21:09:45.712Z,,0,3,,3366.3399999999674,response,ISIC_8709211.JPG,15,ISIC_5503634.JPG,ISIC_8709211.JPG,false,1,keypress(m),500,632048,632047,628680.02,628681,628680.66,632048.92,8,400,34,,ISIC_5503634.JPG
break,html.Screen,4_133_1,2023-09-01T21:09:45.713Z,,0,,,NaN,,,,,,false,,,,632049,632049,,632048,,632048.92,8,400,,,
break_continue,html.Screen,4_133_2,2023-09-01T21:09:45.715Z,,0,,,NaN,,,,,,false,,,,632051,632051,,632050,,632048.92,8,400,,,
sequence,flow.Sequence,4_133,2023-09-01T21:09:45.715Z,,0,,,3370.3399999999674,completion,,,,,false,,,,632052,632051,628680.02,628681,628680.66,632048.92,8,400,,,
trial,html.Screen,4_134_0,2023-09-01T21:09:48.853Z,,0,3,,3260.079999999958,response,ISIC_6754835.JPG,11,ISIC_0029198.JPG,ISIC_0029198.JPG,false,0,keypress(z),500,635309,635309,632048.16,632052,632048.92,635332.66,8,400,35,,ISIC_6754835.JPG
break,html.Screen,4_134_1,2023-09-01T21:09:48.854Z,,0,,,NaN,,,,,,false,,,,635310,635310,,635310,,635332.66,8,400,,,
break_continue,html.Screen,4_134_2,2023-09-01T21:09:48.854Z,,0,,,NaN,,,,,,false,,,,635310,635310,,635310,,635332.66,8,400,,,
sequence,flow.Sequence,4_134,2023-09-01T21:09:48.854Z,,0,,,3261.079999999958,completion,,,,,false,,,,635311,635310,632048.16,632052,632048.92,635332.66,8,400,,,
trial,html.Screen,4_135_0,2023-09-01T21:09:51.896Z,,0,3,,3134.3399999999674,response,ISIC_2517072.JPG,18,ISIC_0207268.JPG,ISIC_2517072.JPG,false,1,keypress(m),500,638467,638467,635315.98,635311,635332.66,638466.88,8,400,36,,ISIC_0207268.JPG
break,html.Screen,4_135_1,2023-09-01T21:09:51.896Z,,0,,,NaN,,,,,,false,,,,638467,638467,,638467,,638466.88,8,400,,,
break_continue,html.Screen,4_135_2,2023-09-01T21:09:51.896Z,,0,,,NaN,,,,,,false,,,,638467,638467,,638467,,638466.88,8,400,,,
sequence,flow.Sequence,4_135,2023-09-01T21:09:51.896Z,,0,,,3134.3399999999674,completion,,,,,false,,,,638467,638467,635315.98,635311,635332.66,638466.88,8,400,,,
trial,html.Screen,4_136_0,2023-09-01T21:09:55.065Z,,0,3,,3289.1199999999953,response,ISIC_9644813.JPG,5,ISIC_8922893.JPG,ISIC_8922893.JPG,false,0,keypress(z),500,641756,641756,638466.6,638467,638466.88,641756.56,8,400,37,,ISIC_9644813.JPG
break,html.Screen,4_136_1,2023-09-01T21:09:55.065Z,,0,,,NaN,,,,,,false,,,,641757,641756,,641756,,641756.56,8,400,,,
break_continue,html.Screen,4_136_2,2023-09-01T21:09:55.066Z,,0,,,NaN,,,,,,false,,,,641757,641757,,641757,,641756.56,8,400,,,
sequence,flow.Sequence,4_136,2023-09-01T21:09:55.066Z,,0,,,3290.1199999999953,completion,,,,,false,,,,641757,641757,638466.6,638467,638466.88,641756.56,8,400,,,
trial,html.Screen,4_137_0,2023-09-01T21:09:58.811Z,,0,3,,3887.439999999944,response,ISIC_7759376.JPG,3,ISIC_0011032.JPG,ISIC_0011032.JPG,false,0,keypress(z),500,645644,645644,641756.3,641757,641756.56,645644.26,8,400,38,,ISIC_7759376.JPG
break,html.Screen,4_137_1,2023-09-01T21:09:58.811Z,,0,,,NaN,,,,,,false,,,,645644,645644,,645644,,645644.26,8,400,,,
break_continue,html.Screen,4_137_2,2023-09-01T21:09:58.811Z,,0,,,NaN,,,,,,false,,,,645645,645644,,645644,,645644.26,8,400,,,
sequence,flow.Sequence,4_137,2023-09-01T21:09:58.811Z,,0,,,3887.439999999944,completion,,,,,false,,,,645645,645644,641756.3,641757,641756.56,645644.26,8,400,,,
trial,html.Screen,4_138_0,2023-09-01T21:10:01.915Z,,0,3,,3221.7399999999907,response,ISIC_7915065.JPG,6,ISIC_0028317.JPG,ISIC_0028317.JPG,false,0,keypress(z),500,648866,648866,645644.06,645645,645644.26,648865.98,8,400,39,,ISIC_7915065.JPG
break,html.Screen,4_138_1,2023-09-01T21:10:01.915Z,,0,,,NaN,,,,,,false,,,,648866,648866,,648866,,648865.98,8,400,,,
break_continue,html.Screen,4_138_2,2023-09-01T21:10:01.915Z,,0,,,NaN,,,,,,false,,,,648867,648866,,648866,,648865.98,8,400,,,
sequence,flow.Sequence,4_138,2023-09-01T21:10:01.915Z,,0,,,3221.7399999999907,completion,,,,,false,,,,648867,648866,645644.06,645645,645644.26,648865.98,8,400,,,
trial,html.Screen,4_139_0,2023-09-01T21:10:04.902Z,,0,3,,3101.0200000000186,response,ISIC_0032586.JPG,4,ISIC_5576250.JPG,ISIC_0032586.JPG,false,1,keypress(m),500,651968,651967,648865.86,648867,648865.98,651968.22,8,400,40,,ISIC_5576250.JPG
break,html.Screen,4_139_1,2023-09-01T21:10:04.904Z,,0,,,NaN,,,,,,false,,,,651969,651969,,651968,,651968.22,8,400,,,
break_continue,html.Screen,4_139_2,2023-09-01T21:10:04.904Z,,0,,,NaN,,,,,,false,,,,651969,651969,,651969,,651968.22,8,400,,,
sequence,flow.Sequence,4_139,2023-09-01T21:10:04.905Z,,0,,,3103.0200000000186,completion,,,,,false,,,,651969,651969,648865.86,648867,648865.98,651968.22,8,400,,,
trial,html.Screen,4_140_0,2023-09-01T21:10:08.456Z,,0,3,,3687.780000000028,response,ISIC_0029843.JPG,24,ISIC_0063930.JPG,ISIC_0063930.JPG,false,0,keypress(z),500,655656,655656,651967.78,651970,651968.22,655665.94,8,400,41,,ISIC_0029843.JPG
break,html.Screen,4_140_1,2023-09-01T21:10:08.456Z,,0,,,NaN,,,,,,false,,,,655656,655656,,655656,,655665.94,8,400,,,
break_continue,html.Screen,4_140_2,2023-09-01T21:10:08.456Z,,0,,,NaN,,,,,,false,,,,655657,655657,,655656,,655665.94,8,400,,,
sequence,flow.Sequence,4_140,2023-09-01T21:10:08.457Z,,0,,,3688.780000000028,completion,,,,,false,,,,655657,655657,651967.78,651970,651968.22,655665.94,8,400,,,
trial,html.Screen,4_141_0,2023-09-01T21:10:12.529Z,,0,3,,4217.060000000056,response,ISIC_0002119.JPG,14,ISIC_0008621.JPG,ISIC_0002119.JPG,false,1,keypress(m),500,659883,659883,655655.92,655657,655665.94,659883.38,8,400,42,,ISIC_0008621.JPG
break,html.Screen,4_141_1,2023-09-01T21:10:12.529Z,,0,,,NaN,,,,,,false,,,,659883,659883,,659883,,659883.38,8,400,,,
break_continue,html.Screen,4_141_2,2023-09-01T21:10:12.529Z,,0,,,NaN,,,,,,false,,,,659883,659883,,659883,,659883.38,8,400,,,
sequence,flow.Sequence,4_141,2023-09-01T21:10:12.529Z,,0,,,4217.060000000056,completion,,,,,false,,,,659883,659883,655655.92,655657,655665.94,659883.38,8,400,,,
trial,html.Screen,4_142_0,2023-09-01T21:10:15.973Z,,0,3,,3574.6199999999953,response,ISIC_9646599.JPG,3,ISIC_2854610.JPG,ISIC_9646599.JPG,false,1,keypress(m),500,663458,663458,659883.08,659883,659883.38,663458.16,8,400,43,,ISIC_2854610.JPG
break,html.Screen,4_142_1,2023-09-01T21:10:15.973Z,,0,,,NaN,,,,,,false,,,,663459,663458,,663458,,663458.16,8,400,,,
break_continue,html.Screen,4_142_2,2023-09-01T21:10:15.973Z,,0,,,NaN,,,,,,false,,,,663459,663459,,663459,,663458.16,8,400,,,
sequence,flow.Sequence,4_142,2023-09-01T21:10:15.973Z,,0,,,3575.6199999999953,completion,,,,,false,,,,663459,663459,659883.08,659883,659883.38,663458.16,8,400,,,
trial,html.Screen,4_143_0,2023-09-01T21:10:22.150Z,,0,3,,6410.839999999967,response,ISIC_6373500.JPG,3,ISIC_0009894.JPG,ISIC_0009894.JPG,false,0,keypress(z),500,669869,669869,663458.1,663459,663458.16,669894.4,8,400,44,,ISIC_6373500.JPG
break,html.Screen,4_143_1,2023-09-01T21:10:22.150Z,,0,,,NaN,,,,,,false,,,,669869,669869,,669869,,669894.4,8,400,,,
break_continue,html.Screen,4_143_2,2023-09-01T21:10:22.150Z,,0,,,NaN,,,,,,false,,,,669869,669869,,669869,,669894.4,8,400,,,
sequence,flow.Sequence,4_143,2023-09-01T21:10:22.150Z,,0,,,6410.839999999967,completion,,,,,false,,,,669869,669869,663458.1,663459,663458.16,669894.4,8,400,,,
trial,html.Screen,4_144_0,2023-09-01T21:10:28.540Z,,0,3,,6607.599999999977,response,ISIC_8340256.JPG,8,ISIC_7283084.JPG,ISIC_8340256.JPG,false,1,keypress(m),500,676502,676502,669877.72,669869,669894.4,676502.56,8,400,45,,ISIC_7283084.JPG
break,html.Screen,4_144_1,2023-09-01T21:10:28.540Z,,0,,,NaN,,,,,,false,,,,676502,676502,,676502,,676502.56,8,400,,,
break_continue,html.Screen,4_144_2,2023-09-01T21:10:28.540Z,,0,,,NaN,,,,,,false,,,,676503,676502,,676502,,676502.56,8,400,,,
sequence,flow.Sequence,4_144,2023-09-01T21:10:28.540Z,,0,,,6607.599999999977,completion,,,,,false,,,,676503,676502,669877.72,669869,669894.4,676502.56,8,400,,,
trial,html.Screen,4_145_0,2023-09-01T21:10:31.589Z,,0,3,,3164.439999999944,response,ISIC_0024990.JPG,14,ISIC_1650523.JPG,ISIC_1650523.JPG,false,0,keypress(z),500,679667,679667,676502.42,676503,676502.56,679667.94,8,400,46,,ISIC_0024990.JPG
break,html.Screen,4_145_1,2023-09-01T21:10:31.590Z,,0,,,NaN,,,,,,false,,,,679668,679667,,679667,,679667.94,8,400,,,
break_continue,html.Screen,4_145_2,2023-09-01T21:10:31.590Z,,0,,,NaN,,,,,,false,,,,679668,679668,,679668,,679667.94,8,400,,,
sequence,flow.Sequence,4_145,2023-09-01T21:10:31.590Z,,0,,,3165.439999999944,completion,,,,,false,,,,679668,679668,676502.42,676503,676502.56,679667.94,8,400,,,
trial,html.Screen,4_146_0,2023-09-01T21:10:34.635Z,,0,3,,3161.060000000056,response,ISIC_0010251.JPG,5,ISIC_0028910.JPG,ISIC_0010251.JPG,false,1,keypress(m),500,682829,682829,679667.64,679668,679667.94,682829.68,8,400,47,,ISIC_0028910.JPG
break,html.Screen,4_146_1,2023-09-01T21:10:34.636Z,,0,,,NaN,,,,,,false,,,,682830,682830,,682829,,682829.68,8,400,,,
break_continue,html.Screen,4_146_2,2023-09-01T21:10:34.636Z,,0,,,NaN,,,,,,false,,,,682830,682830,,682830,,682829.68,8,400,,,
sequence,flow.Sequence,4_146,2023-09-01T21:10:34.636Z,,0,,,3162.060000000056,completion,,,,,false,,,,682830,682830,679667.64,679668,679667.94,682829.68,8,400,,,
trial,html.Screen,4_147_0,2023-09-01T21:10:39.921Z,,0,3,,5485.319999999949,response,ISIC_2253931.JPG,1,ISIC_0068152.JPG,ISIC_0068152.JPG,false,0,keypress(z),500,688315,688315,682829.56,682830,682829.68,688315.76,8,400,48,,ISIC_2253931.JPG
break,html.Screen,4_147_1,2023-09-01T21:10:39.921Z,,0,,,NaN,,,,,,false,,,,688316,688315,,688315,,688315.76,8,400,,,
break_continue,html.Screen,4_147_2,2023-09-01T21:10:39.921Z,,0,,,NaN,,,,,,false,,,,688316,688316,,688316,,688315.76,8,400,,,
sequence,flow.Sequence,4_147,2023-09-01T21:10:39.921Z,,0,,,5486.319999999949,completion,,,,,false,,,,688316,688316,682829.56,682830,682829.68,688315.76,8,400,,,
trial,html.Screen,4_148_0,2023-09-01T21:10:43.132Z,,0,3,,3332.2399999999907,response,ISIC_0065882.JPG,24,ISIC_8901371.JPG,ISIC_8901371.JPG,false,0,keypress(z),500,691648,691648,688315.58,688316,688315.76,691648.6,8,400,49,,ISIC_0065882.JPG
break,html.Screen,4_148_1,2023-09-01T21:10:43.133Z,,0,,,NaN,,,,,,false,,,,691648,691648,,691648,,691648.6,8,400,,,
break_continue,html.Screen,4_148_2,2023-09-01T21:10:43.133Z,,0,,,NaN,,,,,,false,,,,691648,691648,,691648,,691648.6,8,400,,,
sequence,flow.Sequence,4_148,2023-09-01T21:10:43.133Z,,0,,,3332.2399999999907,completion,,,,,false,,,,691648,691648,688315.58,688316,688315.76,691648.6,8,400,,,
trial,html.Screen,4_149_0,2023-09-01T21:10:46.843Z,,0,3,,3850.4000000000233,response,ISIC_4610600.JPG,4,ISIC_9406275.JPG,ISIC_4610600.JPG,false,1,keypress(m),500,695500,695499,691648.4,691648,691648.6,695500.24,8,400,50,,ISIC_9406275.JPG
break,html.Screen,4_149_1,2023-09-01T21:10:56.469Z,,0,,,10006.800000000047,timeout,,,,,false,,,,705491,705490.36,695500.08,695500,695500.24,705507.04,8,400,,,
break_continue,html.Screen,4_149_2,2023-09-01T21:10:58.543Z,,0,,,2125.9599999999627,response,,,,,false,continue,keypress(Space),,707645,707633,705490.36,705491,705507.04,707645.8,8,400,,,
sequence,flow.Sequence,4_149,2023-09-01T21:10:58.544Z,,0,,,15984.400000000023,completion,,,,,false,,,,707645,707633,691648.4,691648,691648.6,707645.8,8,400,,,
trial,html.Screen,4_150_0,2023-09-01T21:11:02.332Z,,0,4,,3930.1999999999534,response,ISIC_8692950.JPG,28,ISIC_1396573.JPG,ISIC_8692950.JPG,false,1,keypress(m),500,711577,711576,707645.52,707645,707645.8,711578.12,8,400,1,,ISIC_1396573.JPG
break,html.Screen,4_150_1,2023-09-01T21:11:02.334Z,,0,,,NaN,,,,,,false,,,,711579,711579,,711577,,711578.12,8,400,,,
break_continue,html.Screen,4_150_2,2023-09-01T21:11:02.335Z,,0,,,NaN,,,,,,false,,,,711580,711579,,711579,,711578.12,8,400,,,
