sender,sender_type,sender_id,timestamp,meta,,blockNo,condition,duration,ended_on,img_left,img_reveal,img_right,loser,practice,response,response_action,selection_duration,time_commit,time_end,time_render,time_run,time_show,time_switch,total_blocks,total_trials,trialNo,url,winner
informed_consent,html.Screen,0,2023-09-13T15:46:35.531Z,"{""labjs_version"":""20.2.4"",""labjs_build"":{""flavor"":""development"",""commit"":""f5b4a49f956347addd546a832a3327688c2c0fef""},""location"":""https://labjs.felixhenninger.com/api/labjs_preview/index.html"",""userAgent"":""Mozilla/5.0 (Windows NT 10.0; Win64; x64) AppleWebKit/537.36 (KHTML, like Gecko) Chrome/116.0.0.0 Safari/537.36"",""platform"":""Win32"",""language"":""en-AU"",""locale"":""en-US"",""timeZone"":""America/Chicago"",""timezoneOffset"":300,""screen_width"":2560,""screen_height"":1440,""scroll_width"":1296,""scroll_height"":688,""window_innerWidth"":1296,""window_innerHeight"":736,""devicePixelRatio"":1}",,,,1120.3100002861024,response,,,,,,consent,click button,,1755.5999999046326,1754.7000002861023,617.768,602.5999999046326,634.39,1769.867,,,,{},
Welcome,html.Screen,1,2023-09-13T15:46:36.075Z,,,,asymmetry,528.8330002861023,response,,,,,,continue,click button,,2299.0999999046326,2298.7000002861023,1753.411,1755.8000001907349,1769.867,2320.985,,,,,
trial,html.Screen,2_0_0,2023-09-13T15:46:48.198Z,,0,0,,15613.850999999999,timeout,ISIC_6997061.JPG,,ISIC_0069348.JPG,,true,,,500,14420.700000286102,14420.599999904633,2304.296,2299.300000190735,2320.985,17934.836,1,6,1,,
sequence,flow.Sequence,2_0,2023-09-13T15:46:48.198Z,,0,,,12099.614999904632,completion,,,,,true,,,,14420.900000095367,14420.599999904633,2304.296,2299.300000190735,2320.985,17934.836,1,6,,,
trial,html.Screen,2_1_0,2023-09-13T15:46:53.895Z,,0,0,,2183.1640000000007,response,ISIC_0009529.JPG,,ISIC_0057368.JPG,ISIC_0057368.JPG,true,0,keypress(z),500,20118.099999904633,20118,17917.929,14420.900000095367,17934.836,20122.369,1,6,2,,ISIC_0009529.JPG
sequence,flow.Sequence,2_1,2023-09-13T15:46:53.895Z,,0,,,2183.1640000000007,completion,,,,,true,,,,20118.300000190735,20118,17917.929,14420.900000095367,17934.836,20122.369,1,6,,,
trial,html.Screen,2_2_0,2023-09-13T15:46:57.802Z,,0,0,,3902.131000000001,response,ISIC_9758671.JPG,,ISIC_0064954.JPG,ISIC_0064954.JPG,true,0,keypress(z),500,24024.700000286102,24024.5,20105.747,20118.400000095367,20122.369,24029.861,1,6,3,,ISIC_9758671.JPG
sequence,flow.Sequence,2_2,2023-09-13T15:46:57.802Z,,0,,,3902.131000000001,completion,,,,,true,,,,24024.800000190735,24024.5,20105.747,20118.400000095367,20122.369,24029.861,1,6,,,
trial,html.Screen,2_3_0,2023-09-13T15:47:02.235Z,,0,0,,4427.939000190734,response,ISIC_0005785.JPG,,ISIC_0000080.JPG,ISIC_0000080.JPG,true,0,keypress(z),500,28458,28457.800000190735,24013.21,24024.900000095367,24029.861,28471.89,1,6,4,,ISIC_0005785.JPG
sequence,flow.Sequence,2_3,2023-09-13T15:47:02.235Z,,0,,,4427.939000190734,completion,,,,,true,,,,28458.200000286102,28457.800000190735,24013.21,24024.800000190735,24029.861,28471.89,1,6,,,
trial,html.Screen,2_4_0,2023-09-13T15:47:05.054Z,,0,0,,2804.4100001907354,response,ISIC_7944028.JPG,,ISIC_5390060.JPG,ISIC_7944028.JPG,true,1,keypress(m),500,31276.5,31276.300000190735,28455.17,28458.300000190735,28471.89,31277.323,1,6,5,,ISIC_5390060.JPG
sequence,flow.Sequence,2_4,2023-09-13T15:47:05.054Z,,0,,,2804.4100001907354,completion,,,,,true,,,,31276.800000190735,31276.300000190735,28455.17,28458.200000286102,28471.89,31277.323,1,6,,,
trial,html.Screen,2_5_0,2023-09-13T15:47:07.760Z,,0,0,,2705.877000286102,response,ISIC_0010188.JPG,,ISIC_0794216.JPG,ISIC_0794216.JPG,true,0,keypress(z),500,33983.40000009537,33983.2000002861,31260.673,31276.900000095367,31277.323,33999.306,1,6,6,,ISIC_0010188.JPG
sequence,flow.Sequence,2_5,2023-09-13T15:47:07.761Z,,0,,,2705.877000286102,completion,,,,,true,,,,33983.59999990463,33983.2000002861,31260.673,31276.900000095367,31277.323,33999.306,1,6,,,
loop,flow.Loop,2,2023-09-13T15:47:07.761Z,,,,,31662.2150002861,completion,,,,,true,,,,33983.800000190735,33983.2000002861,2304.296,2299.300000190735,2320.985,33999.306,1,6,,,
exp_instructions,html.Screen,3,2023-09-13T15:47:30.038Z,,,,,22260.694000000003,response,,,,,,continue,keypress(Space),,56260.7000002861,56260,33982.644,33983.90000009537,33999.306,56275.986,,,,,
trial,html.Screen,4_0_0,2023-09-13T15:47:37.052Z,,0,1,,6999.214000286105,response,ISIC_7070020.JPG,6,ISIC_3492490.JPG,ISIC_7070020.JPG,false,1,keypress(m),500,63275.40000009537,63275.2000002861,56259.321,56261,56275.986,63289.713,8,400,1,,ISIC_3492490.JPG
break,html.Screen,4_0_1,2023-09-13T15:47:37.053Z,,0,,,NaN,,,,,,false,,,,63275.90000009537,63275.7000002861,,63275.40000009537,,63289.713,8,400,,,
break_continue,html.Screen,4_0_2,2023-09-13T15:47:37.053Z,,0,,,NaN,,,,,,false,,,,63276.09999990463,63276,,63275.90000009537,,63289.713,8,400,,,
sequence,flow.Sequence,4_0,2023-09-13T15:47:37.053Z,,0,,,7000.014000000003,completion,,,,,false,,,,63276.2000002861,63276,56259.321,56261,56275.986,63289.713,8,400,,,
trial,html.Screen,4_1_0,2023-09-13T15:47:43.635Z,,0,1,,6566.286999999997,response,ISIC_0693902.JPG,5,ISIC_0014160.JPG,ISIC_0693902.JPG,false,1,keypress(m),500,69856.2000002861,69856,63272.999,63276.300000190735,63289.713,69869.077,8,400,2,,ISIC_0014160.JPG
break,html.Screen,4_1_1,2023-09-13T15:47:43.636Z,,0,,,NaN,,,,,,false,,,,69857,69856.7000002861,,69856.30000019073,,69869.077,8,400,,,
break_continue,html.Screen,4_1_2,2023-09-13T15:47:43.636Z,,0,,,NaN,,,,,,false,,,,69857.30000019073,69857.2000002861,,69857.09999990463,,69869.077,8,400,,,
sequence,flow.Sequence,4_1,2023-09-13T15:47:43.637Z,,0,,,6567.487000286099,completion,,,,,false,,,,69857.40000009537,69857.2000002861,63272.999,63276.300000190735,63289.713,69869.077,8,400,,,
trial,html.Screen,4_2_0,2023-09-13T15:47:50.550Z,,0,1,,6902.022999904628,response,ISIC_0034051.JPG,6,ISIC_2430137.JPG,ISIC_2430137.JPG,false,0,keypress(z),500,76771.30000019073,76771.09999990463,69852.402,69857.5,69869.077,76782.642,8,400,3,,ISIC_0034051.JPG
break,html.Screen,4_2_1,2023-09-13T15:47:50.551Z,,0,,,NaN,,,,,,false,,,,76771.7000002861,76771.59999990463,,76771.40000009537,,76782.642,8,400,,,
break_continue,html.Screen,4_2_2,2023-09-13T15:47:50.551Z,,0,,,NaN,,,,,,false,,,,76771.90000009537,76771.80000019073,,76771.80000019073,,76782.642,8,400,,,
sequence,flow.Sequence,4_2,2023-09-13T15:47:50.551Z,,0,,,6902.72300019073,completion,,,,,false,,,,76772,76771.80000019073,69852.402,69857.5,69869.077,76782.642,8,400,,,
trial,html.Screen,4_3_0,2023-09-13T15:47:58.200Z,,0,1,,7638.558000286095,response,ISIC_0032339.JPG,8,ISIC_6604862.JPG,ISIC_6604862.JPG,false,0,keypress(z),500,84421.30000019073,84421.2000002861,76765.88,76772.09999990463,76782.642,84430.749,8,400,4,,ISIC_0032339.JPG
break,html.Screen,4_3_1,2023-09-13T15:47:58.201Z,,0,,,NaN,,,,,,false,,,,84421.80000019073,84421.59999990463,,84421.5,,84430.749,8,400,,,
break_continue,html.Screen,4_3_2,2023-09-13T15:47:58.201Z,,0,,,NaN,,,,,,false,,,,84421.90000009537,84421.90000009537,,84421.80000019073,,84430.749,8,400,,,
sequence,flow.Sequence,4_3,2023-09-13T15:47:58.201Z,,0,,,7639.25800009536,completion,,,,,false,,,,84422,84421.90000009537,76765.88,76772.09999990463,76782.642,84430.749,8,400,,,
trial,html.Screen,4_4_0,2023-09-13T15:48:04.332Z,,0,1,,6122.251000000004,response,ISIC_0900349.JPG,6,ISIC_9910791.JPG,ISIC_0900349.JPG,false,1,keypress(m),500,90553.2000002861,90553,84414.195,84422,84430.749,90559.392,8,400,5,,ISIC_9910791.JPG
break,html.Screen,4_4_1,2023-09-13T15:48:04.333Z,,0,,,NaN,,,,,,false,,,,90553.90000009537,90553.80000019073,,90553.40000009537,,90559.392,8,400,,,
break_continue,html.Screen,4_4_2,2023-09-13T15:48:04.333Z,,0,,,NaN,,,,,,false,,,,90554.30000019073,90554.2000002861,,90554.09999990463,,90559.392,8,400,,,
sequence,flow.Sequence,4_4,2023-09-13T15:48:04.334Z,,0,,,6123.451000286106,completion,,,,,false,,,,90554.5,90554.2000002861,84414.195,84422,84430.749,90559.392,8,400,,,
trial,html.Screen,4_5_0,2023-09-13T15:48:11.344Z,,0,1,,7005.607999999993,response,ISIC_0014151.JPG,5,ISIC_0029470.JPG,ISIC_0029470.JPG,false,0,keypress(z),500,97565.09999990463,97565,90542.693,90554.5,90559.392,97572.984,8,400,6,,ISIC_0014151.JPG
break,html.Screen,4_5_1,2023-09-13T15:48:11.345Z,,0,,,NaN,,,,,,false,,,,97565.5,97565.30000019073,,97565.09999990463,,97572.984,8,400,,,
break_continue,html.Screen,4_5_2,2023-09-13T15:48:11.345Z,,0,,,NaN,,,,,,false,,,,97565.59999990463,97565.59999990463,,97565.5,,97572.984,8,400,,,
sequence,flow.Sequence,4_5,2023-09-13T15:48:11.345Z,,0,,,7006.2079999046255,completion,,,,,false,,,,97565.7000002861,97565.59999990463,90542.693,90554.5,90559.392,97572.984,8,400,,,
trial,html.Screen,4_6_0,2023-09-13T15:48:17.859Z,,0,1,,6506.516000000003,response,ISIC_8485716.JPG,5,ISIC_0014291.JPG,ISIC_0014291.JPG,false,0,keypress(z),500,104079.7000002861,104079.5,97556.436,97565.80000019073,97572.984,104085.691,8,400,7,,ISIC_8485716.JPG
break,html.Screen,4_6_1,2023-09-13T15:48:17.859Z,,0,,,NaN,,,,,,false,,,,104080.40000009537,104080.2000002861,,104079.90000009537,,104085.691,8,400,,,
break_continue,html.Screen,4_6_2,2023-09-13T15:48:17.860Z,,0,,,NaN,,,,,,false,,,,104080.5,104080.5,,104080.40000009537,,104085.691,8,400,,,
sequence,flow.Sequence,4_6,2023-09-13T15:48:17.860Z,,0,,,6507.516000000003,completion,,,,,false,,,,104080.59999990463,104080.5,97556.436,97565.7000002861,97572.984,104085.691,8,400,,,
trial,html.Screen,4_7_0,2023-09-13T15:48:23.606Z,,0,1,,5740.808999999994,response,ISIC_0034049.JPG,6,ISIC_0030313.JPG,ISIC_0030313.JPG,false,0,keypress(z),500,109826.59999990463,109826.5,104069.075,104080.7000002861,104085.691,109830.265,8,400,8,,ISIC_0034049.JPG
break,html.Screen,4_7_1,2023-09-13T15:48:23.606Z,,0,,,NaN,,,,,,false,,,,109827.2000002861,109826.90000009537,,109826.7000002861,,109830.265,8,400,,,
break_continue,html.Screen,4_7_2,2023-09-13T15:48:23.607Z,,0,,,NaN,,,,,,false,,,,109827.59999990463,109827.59999990463,,109827.5,,109830.265,8,400,,,
sequence,flow.Sequence,4_7,2023-09-13T15:48:23.607Z,,0,,,5741.908999904626,completion,,,,,false,,,,109827.80000019073,109827.59999990463,104069.075,104080.59999990463,104085.691,109830.265,8,400,,,
trial,html.Screen,4_8_0,2023-09-13T15:48:28.863Z,,0,1,,5253.135000095368,response,ISIC_0011701.JPG,5,ISIC_0034239.JPG,ISIC_0034239.JPG,false,0,keypress(z),500,115083.40000009537,115083.40000009537,109813.514,109827.80000019073,109830.265,115090.52,8,400,9,,ISIC_0011701.JPG
break,html.Screen,4_8_1,2023-09-13T15:48:28.863Z,,0,,,NaN,,,,,,false,,,,115084,115083.80000019073,,115083.59999990463,,115090.52,8,400,,,
break_continue,html.Screen,4_8_2,2023-09-13T15:48:28.863Z,,0,,,NaN,,,,,,false,,,,115084.2000002861,115084.09999990463,,115084,,115090.52,8,400,,,
sequence,flow.Sequence,4_8,2023-09-13T15:48:28.863Z,,0,,,5253.834999904633,completion,,,,,false,,,,115084.30000019073,115084.09999990463,109813.514,109827.80000019073,109830.265,115090.52,8,400,,,
trial,html.Screen,4_9_0,2023-09-13T15:48:35.041Z,,0,1,,6170.979999999996,response,ISIC_6577632.JPG,5,ISIC_0066935.JPG,ISIC_6577632.JPG,false,1,keypress(m),500,121261.59999990463,121261.5,115073.741,115084.30000019073,115090.52,121269.128,8,400,10,,ISIC_0066935.JPG
break,html.Screen,4_9_1,2023-09-13T15:48:35.041Z,,0,,,NaN,,,,,,false,,,,121262.09999990463,121262,,121261.7000002861,,121269.128,8,400,,,
break_continue,html.Screen,4_9_2,2023-09-13T15:48:35.041Z,,0,,,NaN,,,,,,false,,,,121262.40000009537,121262.30000019073,,121262.30000019073,,121269.128,8,400,,,
sequence,flow.Sequence,4_9,2023-09-13T15:48:35.042Z,,0,,,6171.780000190731,completion,,,,,false,,,,121262.5,121262.30000019073,115073.741,115084.30000019073,115090.52,121269.128,8,400,,,
trial,html.Screen,4_10_0,2023-09-13T15:48:41.221Z,,0,1,,6170.971999904636,response,ISIC_3544821.JPG,4,ISIC_3664380.JPG,ISIC_3544821.JPG,false,1,keypress(m),500,127440.2000002861,127440.09999990463,121252.482,121262.5,121269.128,127447.986,8,400,11,,ISIC_3664380.JPG
break,html.Screen,4_10_1,2023-09-13T15:48:41.221Z,,0,,,NaN,,,,,,false,,,,127440.7000002861,127440.59999990463,,127440.30000019073,,127447.986,8,400,,,
break_continue,html.Screen,4_10_2,2023-09-13T15:48:41.221Z,,0,,,NaN,,,,,,false,,,,127440.90000009537,127440.7000002861,,127440.7000002861,,127447.986,8,400,,,
sequence,flow.Sequence,4_10,2023-09-13T15:48:41.222Z,,0,,,6171.572000286105,completion,,,,,false,,,,127440.90000009537,127440.7000002861,121252.482,121262.5,121269.128,127447.986,8,400,,,
trial,html.Screen,4_11_0,2023-09-13T15:48:46.919Z,,0,1,,5690.513999999996,response,ISIC_0014061.JPG,5,ISIC_7378303.JPG,ISIC_7378303.JPG,false,0,keypress(z),500,133138.7000002861,133138.5,127431.137,127440.90000009537,127447.986,133142.226,8,400,12,,ISIC_0014061.JPG
break,html.Screen,4_11_1,2023-09-13T15:48:46.920Z,,0,,,NaN,,,,,,false,,,,133139.5,133139.30000019073,,133138.90000009537,,133142.226,8,400,,,
break_continue,html.Screen,4_11_2,2023-09-13T15:48:46.920Z,,0,,,NaN,,,,,,false,,,,133139.59999990463,133139.59999990463,,133139.59999990463,,133142.226,8,400,,,
sequence,flow.Sequence,4_11,2023-09-13T15:48:46.920Z,,0,,,5691.613999904628,completion,,,,,false,,,,133139.7000002861,133139.59999990463,127431.137,127440.90000009537,127447.986,133142.226,8,400,,,
trial,html.Screen,4_12_0,2023-09-13T15:48:52.557Z,,0,1,,5634.474000286107,response,ISIC_0919467.JPG,5,ISIC_0029502.JPG,ISIC_0919467.JPG,false,1,keypress(m),500,138776.80000019073,138776.7000002861,133125.623,133139.80000019073,133142.226,138786.578,8,400,13,,ISIC_0029502.JPG
break,html.Screen,4_12_1,2023-09-13T15:48:52.558Z,,0,,,NaN,,,,,,false,,,,138777.59999990463,138777.30000019073,,138777,,138786.578,8,400,,,
break_continue,html.Screen,4_12_2,2023-09-13T15:48:52.559Z,,0,,,NaN,,,,,,false,,,,138777.90000009537,138777.80000019073,,138777.59999990463,,138786.578,8,400,,,
sequence,flow.Sequence,4_12,2023-09-13T15:48:52.559Z,,0,,,5635.57400019074,completion,,,,,false,,,,138778,138777.80000019073,133125.623,133139.80000019073,133142.226,138786.578,8,400,,,
trial,html.Screen,4_13_0,2023-09-13T15:49:01.652Z,,0,1,,9084.722000190726,response,ISIC_0058408.JPG,5,ISIC_4432898.JPG,ISIC_0058408.JPG,false,1,keypress(m),500,147871.40000009537,147871.30000019073,138769.85,138778.09999990463,138786.578,147887.702,8,400,14,,ISIC_4432898.JPG
break,html.Screen,4_13_1,2023-09-13T15:49:01.653Z,,0,,,NaN,,,,,,false,,,,147872.09999990463,147871.90000009537,,147871.59999990463,,147887.702,8,400,,,
break_continue,html.Screen,4_13_2,2023-09-13T15:49:01.653Z,,0,,,NaN,,,,,,false,,,,147872.40000009537,147872.30000019073,,147872.2000002861,,147887.702,8,400,,,
sequence,flow.Sequence,4_13,2023-09-13T15:49:01.653Z,,0,,,9085.722000190726,completion,,,,,false,,,,147872.5,147872.30000019073,138769.85,138778,138786.578,147887.702,8,400,,,
trial,html.Screen,4_14_0,2023-09-13T15:49:07.000Z,,0,1,,5331.397999904642,response,ISIC_0028751.JPG,5,ISIC_2064934.JPG,ISIC_2064934.JPG,false,0,keypress(z),500,153219.2000002861,153219.09999990463,147871.052,147872.59999990463,147887.702,153231.364,8,400,15,,ISIC_0028751.JPG
break,html.Screen,4_14_1,2023-09-13T15:49:07.000Z,,0,,,NaN,,,,,,false,,,,153219.7000002861,153219.59999990463,,153219.40000009537,,153231.364,8,400,,,
break_continue,html.Screen,4_14_2,2023-09-13T15:49:07.000Z,,0,,,NaN,,,,,,false,,,,153219.80000019073,153219.80000019073,,153219.7000002861,,153231.364,8,400,,,
sequence,flow.Sequence,4_14,2023-09-13T15:49:07.001Z,,0,,,5332.098000190745,completion,,,,,false,,,,153219.90000009537,153219.80000019073,147871.052,147872.5,147887.702,153231.364,8,400,,,
trial,html.Screen,4_15_0,2023-09-13T15:49:13.650Z,,0,1,,6637.4360001907335,response,ISIC_0068460.JPG,5,ISIC_9022005.JPG,ISIC_9022005.JPG,false,0,keypress(z),500,159868.90000009537,159868.80000019073,153214.692,153220,153231.364,159877.747,8,400,16,,ISIC_0068460.JPG
break,html.Screen,4_15_1,2023-09-13T15:49:13.650Z,,0,,,NaN,,,,,,false,,,,159869.7000002861,159869.5,,159869.09999990463,,159877.747,8,400,,,
break_continue,html.Screen,4_15_2,2023-09-13T15:49:13.651Z,,0,,,NaN,,,,,,false,,,,159869.90000009537,159869.90000009537,,159869.7000002861,,159877.747,8,400,,,
sequence,flow.Sequence,4_15,2023-09-13T15:49:13.651Z,,0,,,6638.536000095366,completion,,,,,false,,,,159870,159869.90000009537,153214.692,153220,153231.364,159877.747,8,400,,,
trial,html.Screen,4_16_0,2023-09-13T15:49:19.622Z,,0,1,,5963.153000095364,response,ISIC_6271218.JPG,4,ISIC_0030974.JPG,ISIC_6271218.JPG,false,1,keypress(m),500,165841.2000002861,165840.90000009537,159860.924,159870,159877.747,165855.931,8,400,17,,ISIC_0030974.JPG
break,html.Screen,4_16_1,2023-09-13T15:49:19.623Z,,0,,,NaN,,,,,,false,,,,165842.40000009537,165842.09999990463,,165841.5,,165855.931,8,400,,,
break_continue,html.Screen,4_16_2,2023-09-13T15:49:19.623Z,,0,,,NaN,,,,,,false,,,,165842.80000019073,165842.7000002861,,165842.5,,165855.931,8,400,,,
sequence,flow.Sequence,4_16,2023-09-13T15:49:19.624Z,,0,,,5964.953000286099,completion,,,,,false,,,,165843,165842.7000002861,159860.924,159870,159877.747,165855.931,8,400,,,
trial,html.Screen,4_17_0,2023-09-13T15:49:25.145Z,,0,1,,5508.769000286091,response,ISIC_6383486.JPG,5,ISIC_8525786.JPG,ISIC_8525786.JPG,false,0,keypress(z),500,171364.80000019073,171364.7000002861,165839.232,165843.09999990463,165855.931,171366.639,8,400,18,,ISIC_6383486.JPG
break,html.Screen,4_17_1,2023-09-13T15:49:25.146Z,,0,,,NaN,,,,,,false,,,,171365.30000019073,171365.2000002861,,171365,,171366.639,8,400,,,
break_continue,html.Screen,4_17_2,2023-09-13T15:49:25.146Z,,0,,,NaN,,,,,,false,,,,171365.5,171365.40000009537,,171365.30000019073,,171366.639,8,400,,,
sequence,flow.Sequence,4_17,2023-09-13T15:49:25.146Z,,0,,,5509.469000095356,completion,,,,,false,,,,171365.59999990463,171365.40000009537,165839.232,165843.09999990463,165855.931,171366.639,8,400,,,
trial,html.Screen,4_18_0,2023-09-13T15:49:31.133Z,,0,1,,5985.061000286107,response,ISIC_0062471.JPG,5,ISIC_4263521.JPG,ISIC_4263521.JPG,false,0,keypress(z),500,177352.30000019073,177351.7000002861,171349.88,171365.59999990463,171366.639,177361.638,8,400,19,,ISIC_0062471.JPG
break,html.Screen,4_18_1,2023-09-13T15:49:31.134Z,,0,,,NaN,,,,,,false,,,,177353.80000019073,177353.30000019073,,177352.80000019073,,177361.638,8,400,,,
break_continue,html.Screen,4_18_2,2023-09-13T15:49:31.135Z,,0,,,NaN,,,,,,false,,,,177354.5,177354.30000019073,,177354,,177361.638,8,400,,,
sequence,flow.Sequence,4_18,2023-09-13T15:49:31.135Z,,0,,,5987.661000190739,completion,,,,,false,,,,177354.80000019073,177354.30000019073,171349.88,171365.59999990463,171366.639,177361.638,8,400,,,
trial,html.Screen,4_19_0,2023-09-13T15:49:37.634Z,,0,1,,6491.861999999994,response,ISIC_9024724.JPG,5,ISIC_4644299.JPG,ISIC_9024724.JPG,false,1,keypress(m),500,183853.7000002861,183853.5,177345.02,177355,177361.638,183857.583,8,400,20,,ISIC_4644299.JPG
break,html.Screen,4_19_1,2023-09-13T15:49:37.635Z,,0,,,NaN,,,,,,false,,,,183854.30000019073,183854.2000002861,,183853.80000019073,,183857.583,8,400,,,
break_continue,html.Screen,4_19_2,2023-09-13T15:49:37.635Z,,0,,,NaN,,,,,,false,,,,183854.59999990463,183854.59999990463,,183854.40000009537,,183857.583,8,400,,,
sequence,flow.Sequence,4_19,2023-09-13T15:49:37.635Z,,0,,,6492.961999904626,completion,,,,,false,,,,183854.80000019073,183854.59999990463,177345.02,177355,177361.638,183857.583,8,400,,,
trial,html.Screen,4_20_0,2023-09-13T15:49:43.399Z,,0,1,,5759.217000190722,response,ISIC_0068633.JPG,5,ISIC_7012881.JPG,ISIC_7012881.JPG,false,0,keypress(z),500,189617,189616.80000019073,183840.983,183854.80000019073,183857.583,189618.808,8,400,21,,ISIC_0068633.JPG
break,html.Screen,4_20_1,2023-09-13T15:49:43.400Z,,0,,,NaN,,,,,,false,,,,189617.59999990463,189617.40000009537,,189617.09999990463,,189618.808,8,400,,,
break_continue,html.Screen,4_20_2,2023-09-13T15:49:43.400Z,,0,,,NaN,,,,,,false,,,,189618,189617.90000009537,,189617.7000002861,,189618.808,8,400,,,
sequence,flow.Sequence,4_20,2023-09-13T15:49:43.400Z,,0,,,5760.317000095354,completion,,,,,false,,,,189618.09999990463,189617.90000009537,183840.983,183854.80000019073,183857.583,189618.808,8,400,,,
trial,html.Screen,4_21_0,2023-09-13T15:49:49.770Z,,0,1,,6369.092000095377,response,ISIC_3448546.JPG,5,ISIC_1069587.JPG,ISIC_3448546.JPG,false,1,keypress(m),500,195988,195987.90000009537,189602.214,189618.09999990463,189618.808,195997.99,8,400,22,,ISIC_1069587.JPG
break,html.Screen,4_21_1,2023-09-13T15:49:49.771Z,,0,,,NaN,,,,,,false,,,,195988.5,195988.40000009537,,195988.09999990463,,195997.99,8,400,,,
break_continue,html.Screen,4_21_2,2023-09-13T15:49:49.771Z,,0,,,NaN,,,,,,false,,,,195988.7000002861,195988.5,,195988.5,,195997.99,8,400,,,
sequence,flow.Sequence,4_21,2023-09-13T15:49:49.771Z,,0,,,6369.69200000001,completion,,,,,false,,,,195988.7000002861,195988.5,189602.214,189618.09999990463,189618.808,195997.99,8,400,,,
trial,html.Screen,4_22_0,2023-09-13T15:49:56.268Z,,0,1,,6487.410000095377,response,ISIC_2513481.JPG,5,ISIC_0066101.JPG,ISIC_2513481.JPG,false,1,keypress(m),500,202485.59999990463,202485.40000009537,195981.181,195988.80000019073,195997.99,202493.872,8,400,23,,ISIC_0066101.JPG
break,html.Screen,4_22_1,2023-09-13T15:49:56.268Z,,0,,,NaN,,,,,,false,,,,202486.2000002861,202486,,202485.7000002861,,202493.872,8,400,,,
break_continue,html.Screen,4_22_2,2023-09-13T15:49:56.269Z,,0,,,NaN,,,,,,false,,,,202486.5,202486.40000009537,,202486.30000019073,,202493.872,8,400,,,
sequence,flow.Sequence,4_22,2023-09-13T15:49:56.269Z,,0,,,6488.410000095377,completion,,,,,false,,,,202486.7000002861,202486.40000009537,195981.181,195988.80000019073,195997.99,202493.872,8,400,,,
trial,html.Screen,4_23_0,2023-09-13T15:50:02.526Z,,0,1,,6250.2279999046295,response,ISIC_0032626.JPG,6,ISIC_0069274.JPG,ISIC_0069274.JPG,false,0,keypress(z),500,208744.40000009537,208744.09999990463,202477.152,202486.7000002861,202493.872,208756.124,8,400,24,,ISIC_0032626.JPG
break,html.Screen,4_23_1,2023-09-13T15:50:02.527Z,,0,,,NaN,,,,,,false,,,,208745.09999990463,208744.80000019073,,208744.5,,208756.124,8,400,,,
break_continue,html.Screen,4_23_2,2023-09-13T15:50:02.528Z,,0,,,NaN,,,,,,false,,,,208745.30000019073,208745.30000019073,,208745.2000002861,,208756.124,8,400,,,
sequence,flow.Sequence,4_23,2023-09-13T15:50:02.528Z,,0,,,6251.428000190732,completion,,,,,false,,,,208745.40000009537,208745.30000019073,202477.152,202486.7000002861,202493.872,208756.124,8,400,,,
trial,html.Screen,4_24_0,2023-09-13T15:50:08.773Z,,0,1,,6234.676000190724,response,ISIC_0055905.JPG,6,ISIC_0070782.JPG,ISIC_0070782.JPG,false,0,keypress(z),500,214991,214990.80000019073,208739.465,208745.5,208756.124,215001.602,8,400,25,,ISIC_0055905.JPG
break,html.Screen,4_24_1,2023-09-13T15:50:08.774Z,,0,,,NaN,,,,,,false,,,,214991.5,214991.40000009537,,214991.2000002861,,215001.602,8,400,,,
break_continue,html.Screen,4_24_2,2023-09-13T15:50:08.774Z,,0,,,NaN,,,,,,false,,,,214991.80000019073,214991.7000002861,,214991.59999990463,,215001.602,8,400,,,
sequence,flow.Sequence,4_24,2023-09-13T15:50:08.774Z,,0,,,6235.576000286092,completion,,,,,false,,,,214991.80000019073,214991.7000002861,208739.465,208745.5,208756.124,215001.602,8,400,,,
trial,html.Screen,4_25_0,2023-09-13T15:50:13.111Z,,0,1,,4326.997999904619,response,ISIC_5233769.JPG,5,ISIC_4644299.JPG,ISIC_4644299.JPG,false,0,keypress(z),500,219328.7000002861,219328.59999990463,214984.829,214992,215001.602,219343.34,8,400,26,,ISIC_5233769.JPG
break,html.Screen,4_25_1,2023-09-13T15:50:13.112Z,,0,,,NaN,,,,,,false,,,,219329.30000019073,219329.2000002861,,219328.90000009537,,219343.34,8,400,,,
break_continue,html.Screen,4_25_2,2023-09-13T15:50:13.112Z,,0,,,NaN,,,,,,false,,,,219329.7000002861,219329.7000002861,,219329.40000009537,,219343.34,8,400,,,
sequence,flow.Sequence,4_25,2023-09-13T15:50:13.112Z,,0,,,4328.098000286089,completion,,,,,false,,,,219329.90000009537,219329.7000002861,214984.829,214992,215001.602,219343.34,8,400,,,
trial,html.Screen,4_26_0,2023-09-13T15:50:21.194Z,,0,1,,8068.360000286106,response,ISIC_5127759.JPG,5,ISIC_0055680.JPG,ISIC_5127759.JPG,false,1,keypress(m),500,227411.90000009537,227411.7000002861,219326.609,219329.90000009537,219343.34,227425.697,8,400,27,,ISIC_0055680.JPG
break,html.Screen,4_26_1,2023-09-13T15:50:21.195Z,,0,,,NaN,,,,,,false,,,,227412.90000009537,227412.59999990463,,227412.09999990463,,227425.697,8,400,,,
break_continue,html.Screen,4_26_2,2023-09-13T15:50:21.196Z,,0,,,NaN,,,,,,false,,,,227413.40000009537,227413.2000002861,,227413.09999990463,,227425.697,8,400,,,
sequence,flow.Sequence,4_26,2023-09-13T15:50:21.196Z,,0,,,8069.860000286106,completion,,,,,false,,,,227413.59999990463,227413.2000002861,219326.609,219329.90000009537,219343.34,227425.697,8,400,,,
trial,html.Screen,4_27_0,2023-09-13T15:50:25.805Z,,0,1,,4597.503000286117,response,ISIC_4069836.JPG,4,ISIC_0645834.JPG,ISIC_0645834.JPG,false,0,keypress(z),500,232023.30000019073,232023.2000002861,227409.088,227413.80000019073,227425.697,232034.655,8,400,28,,ISIC_4069836.JPG
break,html.Screen,4_27_1,2023-09-13T15:50:25.806Z,,0,,,NaN,,,,,,false,,,,232023.90000009537,232023.80000019073,,232023.5,,232034.655,8,400,,,
break_continue,html.Screen,4_27_2,2023-09-13T15:50:25.806Z,,0,,,NaN,,,,,,false,,,,232024.30000019073,232024.2000002861,,232024,,232034.655,8,400,,,
sequence,flow.Sequence,4_27,2023-09-13T15:50:25.806Z,,0,,,4598.503000286117,completion,,,,,false,,,,232024.30000019073,232024.2000002861,227409.088,227413.80000019073,227425.697,232034.655,8,400,,,
trial,html.Screen,4_28_0,2023-09-13T15:50:30.984Z,,0,1,,5166.745000095369,response,ISIC_0068884.JPG,5,ISIC_0061343.JPG,ISIC_0061343.JPG,false,0,keypress(z),500,237202,237201.40000009537,232018.012,232024.30000019073,232034.655,237211.462,8,400,29,,ISIC_0068884.JPG
break,html.Screen,4_28_1,2023-09-13T15:50:30.986Z,,0,,,NaN,,,,,,false,,,,237203.90000009537,237203.40000009537,,237202.5,,237211.462,8,400,,,
break_continue,html.Screen,4_28_2,2023-09-13T15:50:30.987Z,,0,,,NaN,,,,,,false,,,,237204.59999990463,237204.40000009537,,237204.2000002861,,237211.462,8,400,,,
sequence,flow.Sequence,4_28,2023-09-13T15:50:30.987Z,,0,,,5169.745000095369,completion,,,,,false,,,,237204.80000019073,237204.40000009537,232018.012,232024.30000019073,232034.655,237211.462,8,400,,,
trial,html.Screen,4_29_0,2023-09-13T15:50:35.725Z,,0,1,,4731.5380000000005,response,ISIC_0027561.JPG,5,ISIC_1584535.JPG,ISIC_1584535.JPG,false,0,keypress(z),500,241943.2000002861,241943,237194.823,237204.90000009537,237211.462,241970.709,8,400,30,,ISIC_0027561.JPG
break,html.Screen,4_29_1,2023-09-13T15:50:35.726Z,,0,,,NaN,,,,,,false,,,,241944,241943.7000002861,,241943.30000019073,,241970.709,8,400,,,
break_continue,html.Screen,4_29_2,2023-09-13T15:50:35.727Z,,0,,,NaN,,,,,,false,,,,241944.40000009537,241944.2000002861,,241944.09999990463,,241970.709,8,400,,,
sequence,flow.Sequence,4_29,2023-09-13T15:50:35.727Z,,0,,,4732.738000286103,completion,,,,,false,,,,241944.5,241944.2000002861,237194.823,237204.80000019073,237211.462,241970.709,8,400,,,
trial,html.Screen,4_30_0,2023-09-13T15:50:40.536Z,,0,1,,4781.091000190732,response,ISIC_0070422.JPG,6,ISIC_0663824.JPG,ISIC_0663824.JPG,false,0,keypress(z),500,246752,246751.80000019073,241953.988,241944.7000002861,241970.709,246763.346,8,400,31,,ISIC_0070422.JPG
break,html.Screen,4_30_1,2023-09-13T15:50:40.537Z,,0,,,NaN,,,,,,false,,,,246752.80000019073,246752.59999990463,,246752.2000002861,,246763.346,8,400,,,
break_continue,html.Screen,4_30_2,2023-09-13T15:50:40.537Z,,0,,,NaN,,,,,,false,,,,246753.09999990463,246753,,246752.90000009537,,246763.346,8,400,,,
sequence,flow.Sequence,4_30,2023-09-13T15:50:40.537Z,,0,,,4782.290999999997,completion,,,,,false,,,,246753.09999990463,246753,241953.988,241944.7000002861,241970.709,246763.346,8,400,,,
trial,html.Screen,4_31_0,2023-09-13T15:50:46.107Z,,0,1,,5559.354000286112,response,ISIC_5576354.JPG,5,ISIC_3945116.JPG,ISIC_3945116.JPG,false,0,keypress(z),500,252323,252322.7000002861,246746.786,246753.2000002861,246763.346,252324.17,8,400,32,,ISIC_5576354.JPG
break,html.Screen,4_31_1,2023-09-13T15:50:46.107Z,,0,,,NaN,,,,,,false,,,,252323.59999990463,252323.40000009537,,252323.09999990463,,252324.17,8,400,,,
break_continue,html.Screen,4_31_2,2023-09-13T15:50:46.107Z,,0,,,NaN,,,,,,false,,,,252323.80000019073,252323.7000002861,,252323.59999990463,,252324.17,8,400,,,
sequence,flow.Sequence,4_31,2023-09-13T15:50:46.108Z,,0,,,5560.354000286112,completion,,,,,false,,,,252323.90000009537,252323.7000002861,246746.786,246753.2000002861,246763.346,252324.17,8,400,,,
trial,html.Screen,4_32_0,2023-09-13T15:50:51.701Z,,0,1,,5593.230000095355,response,ISIC_1200192.JPG,5,ISIC_4137545.JPG,ISIC_4137545.JPG,false,0,keypress(z),500,257917.5,257917.40000009537,252307.471,252324,252324.17,257918.352,8,400,33,,ISIC_1200192.JPG
break,html.Screen,4_32_1,2023-09-13T15:50:51.702Z,,0,,,NaN,,,,,,false,,,,257918,257917.80000019073,,257917.59999990463,,257918.352,8,400,,,
break_continue,html.Screen,4_32_2,2023-09-13T15:50:51.702Z,,0,,,NaN,,,,,,false,,,,257918.09999990463,257918.09999990463,,257918,,257918.352,8,400,,,
sequence,flow.Sequence,4_32,2023-09-13T15:50:51.702Z,,0,,,5593.92999990462,completion,,,,,false,,,,257918.2000002861,257918.09999990463,252307.471,252323.90000009537,252324.17,257918.352,8,400,,,
trial,html.Screen,4_33_0,2023-09-13T15:50:59.229Z,,0,1,,7527.247999904619,response,ISIC_0055314.JPG,5,ISIC_0005319.JPG,ISIC_0005319.JPG,false,0,keypress(z),500,265445.7000002861,265445.59999990463,257901.83,257918.30000019073,257918.352,265449.693,8,400,34,,ISIC_0055314.JPG
break,html.Screen,4_33_1,2023-09-13T15:50:59.230Z,,0,,,NaN,,,,,,false,,,,265446.09999990463,265446,,265445.80000019073,,265449.693,8,400,,,
break_continue,html.Screen,4_33_2,2023-09-13T15:50:59.230Z,,0,,,NaN,,,,,,false,,,,265446.30000019073,265446.2000002861,,265446.2000002861,,265449.693,8,400,,,
sequence,flow.Sequence,4_33,2023-09-13T15:50:59.230Z,,0,,,7527.848000286089,completion,,,,,false,,,,265446.30000019073,265446.2000002861,257901.83,257918.30000019073,257918.352,265449.693,8,400,,,
trial,html.Screen,4_34_0,2023-09-13T15:51:05.975Z,,0,1,,6741.207000095339,response,ISIC_2307760.JPG,6,ISIC_1590829.JPG,ISIC_2307760.JPG,false,1,keypress(m),500,272191,272190.90000009537,265433.152,265446.40000009537,265449.693,272196.213,8,400,35,,ISIC_1590829.JPG
break,html.Screen,4_34_1,2023-09-13T15:51:05.975Z,,0,,,NaN,,,,,,false,,,,272191.5,272191.30000019073,,272191.09999990463,,272196.213,8,400,,,
break_continue,html.Screen,4_34_2,2023-09-13T15:51:05.975Z,,0,,,NaN,,,,,,false,,,,272191.7000002861,272191.7000002861,,272191.59999990463,,272196.213,8,400,,,
sequence,flow.Sequence,4_34,2023-09-13T15:51:05.975Z,,0,,,6742.007000286074,completion,,,,,false,,,,272191.7000002861,272191.7000002861,265433.152,265446.40000009537,265449.693,272196.213,8,400,,,
trial,html.Screen,4_35_0,2023-09-13T15:51:10.508Z,,0,1,,4527.386999904644,response,ISIC_0062077.JPG,5,ISIC_8775014.JPG,ISIC_8775014.JPG,false,0,keypress(z),500,276723.80000019073,276723.59999990463,272179.515,272191.80000019073,272196.213,276738.372,8,400,36,,ISIC_0062077.JPG
break,html.Screen,4_35_1,2023-09-13T15:51:10.508Z,,0,,,NaN,,,,,,false,,,,276724.59999990463,276724.40000009537,,276724,,276738.372,8,400,,,
break_continue,html.Screen,4_35_2,2023-09-13T15:51:10.509Z,,0,,,NaN,,,,,,false,,,,276724.80000019073,276724.80000019073,,276724.7000002861,,276738.372,8,400,,,
sequence,flow.Sequence,4_35,2023-09-13T15:51:10.509Z,,0,,,4528.587000190746,completion,,,,,false,,,,276724.90000009537,276724.80000019073,272179.515,272191.80000019073,272196.213,276738.372,8,400,,,
trial,html.Screen,4_36_0,2023-09-13T15:51:17.391Z,,0,1,,6869.0280000953935,response,ISIC_4107717.JPG,5,ISIC_0024259.JPG,ISIC_0024259.JPG,false,0,keypress(z),500,283607.5,283607.40000009537,276721.733,276725,276738.372,283618.411,8,400,37,,ISIC_4107717.JPG
break,html.Screen,4_36_1,2023-09-13T15:51:17.392Z,,0,,,NaN,,,,,,false,,,,283608,283607.90000009537,,283607.59999990463,,283618.411,8,400,,,
break_continue,html.Screen,4_36_2,2023-09-13T15:51:17.392Z,,0,,,NaN,,,,,,false,,,,283608.2000002861,283608.2000002861,,283608.09999990463,,283618.411,8,400,,,
sequence,flow.Sequence,4_36,2023-09-13T15:51:17.392Z,,0,,,6869.828000286128,completion,,,,,false,,,,283608.30000019073,283608.2000002861,276721.733,276724.90000009537,276738.372,283618.411,8,400,,,
trial,html.Screen,4_37_0,2023-09-13T15:51:23.794Z,,0,1,,6391.588999999978,response,ISIC_4735959.JPG,6,ISIC_0073135.JPG,ISIC_0073135.JPG,false,0,keypress(z),500,290010.09999990463,290010,283601.711,283608.40000009537,283618.411,290014.239,8,400,38,,ISIC_4735959.JPG
break,html.Screen,4_37_1,2023-09-13T15:51:23.794Z,,0,,,NaN,,,,,,false,,,,290010.5,290010.40000009537,,290010.09999990463,,290014.239,8,400,,,
break_continue,html.Screen,4_37_2,2023-09-13T15:51:23.794Z,,0,,,NaN,,,,,,false,,,,290010.7000002861,290010.59999990463,,290010.5,,290014.239,8,400,,,
sequence,flow.Sequence,4_37,2023-09-13T15:51:23.794Z,,0,,,6392.188999904611,completion,,,,,false,,,,290010.7000002861,290010.59999990463,283601.711,283608.40000009537,283618.411,290014.239,8,400,,,
trial,html.Screen,4_38_0,2023-09-13T15:51:28.948Z,,0,1,,5150.360999904631,response,ISIC_1108204.JPG,5,ISIC_5261146.JPG,ISIC_5261146.JPG,false,0,keypress(z),500,295164.7000002861,295164.59999990463,289997.48,290010.80000019073,290014.239,295174.254,8,400,39,,ISIC_1108204.JPG
break,html.Screen,4_38_1,2023-09-13T15:51:28.949Z,,0,,,NaN,,,,,,false,,,,295165.30000019073,295165,,295164.80000019073,,295174.254,8,400,,,
break_continue,html.Screen,4_38_2,2023-09-13T15:51:28.949Z,,0,,,NaN,,,,,,false,,,,295165.40000009537,295165.40000009537,,295165.30000019073,,295174.254,8,400,,,
sequence,flow.Sequence,4_38,2023-09-13T15:51:28.949Z,,0,,,5151.161000095366,completion,,,,,false,,,,295165.5,295165.40000009537,289997.48,290010.80000019073,290014.239,295174.254,8,400,,,
trial,html.Screen,4_39_0,2023-09-13T15:51:34.108Z,,0,1,,5149.845999904617,response,ISIC_0061606.JPG,4,ISIC_2341875.JPG,ISIC_2341875.JPG,false,0,keypress(z),500,300324.30000019073,300324.09999990463,295157.522,295165.59999990463,295174.254,300334.305,8,400,40,,ISIC_0061606.JPG
break,html.Screen,4_39_1,2023-09-13T15:51:34.108Z,,0,,,NaN,,,,,,false,,,,300324.59999990463,300324.59999990463,,300324.40000009537,,300334.305,8,400,,,
break_continue,html.Screen,4_39_2,2023-09-13T15:51:34.109Z,,0,,,NaN,,,,,,false,,,,300324.80000019073,300324.80000019073,,300324.7000002861,,300334.305,8,400,,,
sequence,flow.Sequence,4_39,2023-09-13T15:51:34.109Z,,0,,,5150.5460001907195,completion,,,,,false,,,,300324.90000009537,300324.80000019073,295157.522,295165.59999990463,295174.254,300334.305,8,400,,,
trial,html.Screen,4_40_0,2023-09-13T15:51:40.420Z,,0,1,,6300.79499990464,response,ISIC_7421214.JPG,4,ISIC_4964478.JPG,ISIC_4964478.JPG,false,0,keypress(z),500,306635.2000002861,306635.09999990463,300317.565,300325,300334.305,306646.638,8,400,41,,ISIC_7421214.JPG
break,html.Screen,4_40_1,2023-09-13T15:51:40.421Z,,0,,,NaN,,,,,,false,,,,306635.7000002861,306635.5,,306635.30000019073,,306646.638,8,400,,,
break_continue,html.Screen,4_40_2,2023-09-13T15:51:40.421Z,,0,,,NaN,,,,,,false,,,,306635.80000019073,306635.80000019073,,306635.7000002861,,306646.638,8,400,,,
sequence,flow.Sequence,4_40,2023-09-13T15:51:40.421Z,,0,,,6301.495000190742,completion,,,,,false,,,,306635.90000009537,306635.80000019073,300317.565,300325,300334.305,306646.638,8,400,,,
trial,html.Screen,4_41_0,2023-09-13T15:51:46.439Z,,0,1,,6006.562000286125,response,ISIC_0025897.JPG,6,ISIC_0060148.JPG,ISIC_0025897.JPG,false,1,keypress(m),500,312653.40000009537,312653.2000002861,306630.012,306635.90000009537,306646.638,312658.264,8,400,42,,ISIC_0060148.JPG
break,html.Screen,4_41_1,2023-09-13T15:51:46.439Z,,0,,,NaN,,,,,,false,,,,312653.90000009537,312653.80000019073,,312653.59999990463,,312658.264,8,400,,,
break_continue,html.Screen,4_41_2,2023-09-13T15:51:46.439Z,,0,,,NaN,,,,,,false,,,,312654.2000002861,312654.09999990463,,312654,,312658.264,8,400,,,
sequence,flow.Sequence,4_41,2023-09-13T15:51:46.439Z,,0,,,6007.461999904655,completion,,,,,false,,,,312654.30000019073,312654.09999990463,306630.012,306635.90000009537,306646.638,312658.264,8,400,,,
trial,html.Screen,4_42_0,2023-09-13T15:51:51.201Z,,0,1,,4757.235999999975,response,ISIC_2364150.JPG,5,ISIC_0072393.JPG,ISIC_2364150.JPG,false,1,keypress(m),500,317415.59999990463,317415.5,312641.541,312654.40000009537,312658.264,317417.507,8,400,43,,ISIC_0072393.JPG
break,html.Screen,4_42_1,2023-09-13T15:51:51.201Z,,0,,,NaN,,,,,,false,,,,317416.30000019073,317416.09999990463,,317415.80000019073,,317417.507,8,400,,,
break_continue,html.Screen,4_42_2,2023-09-13T15:51:51.202Z,,0,,,NaN,,,,,,false,,,,317416.5,317416.5,,317416.30000019073,,317417.507,8,400,,,
sequence,flow.Sequence,4_42,2023-09-13T15:51:51.202Z,,0,,,4758.235999999975,completion,,,,,false,,,,317416.59999990463,317416.5,312641.541,312654.30000019073,312658.264,317417.507,8,400,,,
trial,html.Screen,4_43_0,2023-09-13T15:51:56.728Z,,0,1,,5525.493000000017,response,ISIC_0012069.JPG,5,ISIC_3916064.JPG,ISIC_3916064.JPG,false,0,keypress(z),500,322943,322943,317400.793,317416.7000002861,317417.507,322944.935,8,400,44,,ISIC_0012069.JPG
break,html.Screen,4_43_1,2023-09-13T15:51:56.729Z,,0,,,NaN,,,,,,false,,,,322943.5,322943.40000009537,,322943.2000002861,,322944.935,8,400,,,
break_continue,html.Screen,4_43_2,2023-09-13T15:51:56.729Z,,0,,,NaN,,,,,,false,,,,322943.7000002861,322943.7000002861,,322943.59999990463,,322944.935,8,400,,,
sequence,flow.Sequence,4_43,2023-09-13T15:51:56.729Z,,0,,,5526.193000286119,completion,,,,,false,,,,322943.7000002861,322943.7000002861,317400.793,317416.7000002861,317417.507,322944.935,8,400,,,
trial,html.Screen,4_44_0,2023-09-13T15:52:00.930Z,,0,1,,4199.164999904635,response,ISIC_9728003.JPG,6,ISIC_1040340.JPG,ISIC_9728003.JPG,false,1,keypress(m),500,327144.40000009537,327144.09999990463,322928.259,322943.80000019073,322944.935,327153.106,8,400,45,,ISIC_1040340.JPG
break,html.Screen,4_44_1,2023-09-13T15:52:00.930Z,,0,,,NaN,,,,,,false,,,,327145.2000002861,327145,,327144.5,,327153.106,8,400,,,
break_continue,html.Screen,4_44_2,2023-09-13T15:52:00.931Z,,0,,,NaN,,,,,,false,,,,327145.5,327145.40000009537,,327145.30000019073,,327153.106,8,400,,,
sequence,flow.Sequence,4_44,2023-09-13T15:52:00.931Z,,0,,,4200.46500009537,completion,,,,,false,,,,327145.59999990463,327145.40000009537,322928.259,322943.7000002861,322944.935,327153.106,8,400,,,
trial,html.Screen,4_45_0,2023-09-13T15:52:05.429Z,,0,1,,4490.694000190706,response,ISIC_0033114.JPG,6,ISIC_2151856.JPG,ISIC_2151856.JPG,false,0,keypress(z),500,331643.80000019073,331643.80000019073,327136.443,327145.90000009537,327153.106,331645.191,8,400,46,,ISIC_0033114.JPG
break,html.Screen,4_45_1,2023-09-13T15:52:05.429Z,,0,,,NaN,,,,,,false,,,,331644.30000019073,331644.2000002861,,331644,,331645.191,8,400,,,
break_continue,html.Screen,4_45_2,2023-09-13T15:52:05.430Z,,0,,,NaN,,,,,,false,,,,331644.5,331644.5,,331644.40000009537,,331645.191,8,400,,,
sequence,flow.Sequence,4_45,2023-09-13T15:52:05.430Z,,0,,,4491.393999999971,completion,,,,,false,,,,331644.59999990463,331644.5,327136.443,327145.80000019073,327153.106,331645.191,8,400,,,
trial,html.Screen,4_46_0,2023-09-13T15:52:11.804Z,,0,1,,6373.408999904641,response,ISIC_0025573.JPG,5,ISIC_2910705.JPG,ISIC_2910705.JPG,false,0,keypress(z),500,338018.7000002861,338018.59999990463,331628.522,331644.59999990463,331645.191,338024.286,8,400,47,,ISIC_0025573.JPG
break,html.Screen,4_46_1,2023-09-13T15:52:11.804Z,,0,,,NaN,,,,,,false,,,,338019.09999990463,338019,,338018.90000009537,,338024.286,8,400,,,
break_continue,html.Screen,4_46_2,2023-09-13T15:52:11.805Z,,0,,,NaN,,,,,,false,,,,338019.30000019073,338019.30000019073,,338019.2000002861,,338024.286,8,400,,,
sequence,flow.Sequence,4_46,2023-09-13T15:52:11.805Z,,0,,,6374.109000190743,completion,,,,,false,,,,338019.5,338019.30000019073,331628.522,331644.59999990463,331645.191,338024.286,8,400,,,
trial,html.Screen,4_47_0,2023-09-13T15:52:18.542Z,,0,1,,6732.313999904611,response,ISIC_7107030.JPG,6,ISIC_6171084.JPG,ISIC_6171084.JPG,false,0,keypress(z),500,344756.80000019073,344756.59999990463,338007.579,338019.5,338024.286,344770.787,8,400,48,,ISIC_7107030.JPG
break,html.Screen,4_47_1,2023-09-13T15:52:18.543Z,,0,,,NaN,,,,,,false,,,,344757.90000009537,344757.59999990463,,344757,,344770.787,8,400,,,
break_continue,html.Screen,4_47_2,2023-09-13T15:52:18.543Z,,0,,,NaN,,,,,,false,,,,344758.40000009537,344758.30000019073,,344758,,344770.787,8,400,,,
sequence,flow.Sequence,4_47,2023-09-13T15:52:18.544Z,,0,,,6734.014000190713,completion,,,,,false,,,,344758.5,344758.30000019073,338007.579,338019.5,338024.286,344770.787,8,400,,,
trial,html.Screen,4_48_0,2023-09-13T15:52:24.882Z,,0,1,,6325.513000190724,response,ISIC_4314089.JPG,5,ISIC_1566428.JPG,ISIC_4314089.JPG,false,1,keypress(m),500,351096.5,351096.30000019073,344754.02,344758.7000002861,344770.787,351099.669,8,400,49,,ISIC_1566428.JPG
break,html.Screen,4_48_1,2023-09-13T15:52:24.882Z,,0,,,NaN,,,,,,false,,,,351097.30000019073,351097,,351096.59999990463,,351099.669,8,400,,,
break_continue,html.Screen,4_48_2,2023-09-13T15:52:24.883Z,,0,,,NaN,,,,,,false,,,,351097.5,351097.5,,351097.30000019073,,351099.669,8,400,,,
sequence,flow.Sequence,4_48,2023-09-13T15:52:24.883Z,,0,,,6326.712999999989,completion,,,,,false,,,,351097.59999990463,351097.5,344754.02,344758.59999990463,344770.787,351099.669,8,400,,,
trial,html.Screen,4_49_0,2023-09-13T15:52:30.212Z,,0,1,,5326.731000095373,response,ISIC_0001142.JPG,5,ISIC_9072034.JPG,ISIC_9072034.JPG,false,0,keypress(z),500,356426.5,356426.40000009537,351082.974,351097.59999990463,351099.669,356443.578,8,400,50,,ISIC_0001142.JPG
break,html.Screen,4_49_1,2023-09-13T15:52:40.217Z,,0,,,10002.850000000035,timeout,,,,,false,,,,366430.2000002861,366429.675,356426.901,356426.59999990463,356443.578,366446.428,8,400,,,
break_continue,html.Screen,4_49_2,2023-09-13T15:54:45.850Z,,0,,,125603.27200028609,response,,,,,false,continue,keypress(Space),,492061.40000009537,492049.7000002861,366429.675,366430.30000019073,366446.428,492074.051,8,400,,,
sequence,flow.Sequence,4_49,2023-09-13T15:54:45.850Z,,0,,,140950.0310002861,completion,,,,,false,,,,492061.59999990463,492049.7000002861,351082.974,351097.59999990463,351099.669,492074.051,8,400,,,
trial,html.Screen,4_50_0,2023-09-13T15:54:51.181Z,,0,2,,5318.34900009539,response,ISIC_0046671.JPG,5,ISIC_0000163.JPG,ISIC_0046671.JPG,false,1,keypress(m),500,497392.5,497392.40000009537,492057.335,492061.59999990463,492074.051,497401.082,8,400,1,,ISIC_0000163.JPG
break,html.Screen,4_50_1,2023-09-13T15:54:51.182Z,,0,,,NaN,,,,,,false,,,,497393.09999990463,497392.90000009537,,497392.7000002861,,497401.082,8,400,,,
break_continue,html.Screen,4_50_2,2023-09-13T15:54:51.182Z,,0,,,NaN,,,,,,false,,,,497393.40000009537,497393.40000009537,,497393.2000002861,,497401.082,8,400,,,
sequence,flow.Sequence,4_50,2023-09-13T15:54:51.182Z,,0,,,5319.34900009539,completion,,,,,false,,,,497393.5,497393.40000009537,492057.335,492061.59999990463,492074.051,497401.082,8,400,,,
trial,html.Screen,4_51_0,2023-09-13T15:54:57.072Z,,0,2,,5881.818000095373,response,ISIC_9828853.JPG,4,ISIC_4459125.JPG,ISIC_4459125.JPG,false,0,keypress(z),500,503283.59999990463,503282.90000009537,497384.478,497393.59999990463,497401.082,503295.907,8,400,2,,ISIC_9828853.JPG
break,html.Screen,4_51_1,2023-09-13T15:54:57.074Z,,0,,,NaN,,,,,,false,,,,503285.7000002861,503284.90000009537,,503284,,503295.907,8,400,,,
break_continue,html.Screen,4_51_2,2023-09-13T15:54:57.076Z,,0,,,NaN,,,,,,false,,,,503286.80000019073,503286.40000009537,,503285.90000009537,,503295.907,8,400,,,
sequence,flow.Sequence,4_51,2023-09-13T15:54:57.076Z,,0,,,5885.318000095373,completion,,,,,false,,,,503287.09999990463,503286.40000009537,497384.478,497393.59999990463,497401.082,503295.907,8,400,,,
trial,html.Screen,4_52_0,2023-09-13T15:55:03.304Z,,0,2,,6219.293000286096,response,ISIC_1650523.JPG,5,ISIC_0033175.JPG,ISIC_0033175.JPG,false,0,keypress(z),500,509515.30000019073,509515.2000002861,503279.154,503287.30000019073,503295.907,509524.638,8,400,3,,ISIC_1650523.JPG
break,html.Screen,4_52_1,2023-09-13T15:55:03.305Z,,0,,,NaN,,,,,,false,,,,509515.80000019073,509515.7000002861,,509515.40000009537,,509524.638,8,400,,,
break_continue,html.Screen,4_52_2,2023-09-13T15:55:03.305Z,,0,,,NaN,,,,,,false,,,,509516,509516,,509515.90000009537,,509524.638,8,400,,,
sequence,flow.Sequence,4_52,2023-09-13T15:55:03.305Z,,0,,,6220.0929999999935,completion,,,,,false,,,,509516.2000002861,509516,503279.154,503287.30000019073,503295.907,509524.638,8,400,,,
trial,html.Screen,4_53_0,2023-09-13T15:55:07.899Z,,0,2,,4585.062000286125,response,ISIC_4764568.JPG,5,ISIC_0066470.JPG,ISIC_0066470.JPG,false,0,keypress(z),500,514109.90000009537,514109.7000002861,509507.96,509516.2000002861,509524.638,514116.94,8,400,4,,ISIC_4764568.JPG
break,html.Screen,4_53_1,2023-09-13T15:55:07.899Z,,0,,,NaN,,,,,,false,,,,514110.5,514110.30000019073,,514110,,514116.94,8,400,,,
break_continue,html.Screen,4_53_2,2023-09-13T15:55:07.900Z,,0,,,NaN,,,,,,false,,,,514110.80000019073,514110.7000002861,,514110.59999990463,,514116.94,8,400,,,
sequence,flow.Sequence,4_53,2023-09-13T15:55:07.900Z,,0,,,4586.062000286125,completion,,,,,false,,,,514110.90000009537,514110.7000002861,509507.96,509516.2000002861,509524.638,514116.94,8,400,,,
trial,html.Screen,4_54_0,2023-09-13T15:55:12.734Z,,0,2,,4828.15999990463,response,ISIC_0026993.JPG,6,ISIC_8295834.JPG,ISIC_8295834.JPG,false,0,keypress(z),500,518945.2000002861,518945.09999990463,514100.219,514111,514116.94,518959.726,8,400,5,,ISIC_0026993.JPG
break,html.Screen,4_54_1,2023-09-13T15:55:12.734Z,,0,,,NaN,,,,,,false,,,,518945.59999990463,518945.5,,518945.30000019073,,518959.726,8,400,,,
break_continue,html.Screen,4_54_2,2023-09-13T15:55:12.735Z,,0,,,NaN,,,,,,false,,,,518945.80000019073,518945.80000019073,,518945.7000002861,,518959.726,8,400,,,
sequence,flow.Sequence,4_54,2023-09-13T15:55:12.735Z,,0,,,4828.8600001907325,completion,,,,,false,,,,518945.90000009537,518945.80000019073,514100.219,514111,514116.94,518959.726,8,400,,,
trial,html.Screen,4_55_0,2023-09-13T15:55:17.720Z,,0,2,,4969.174000095343,response,ISIC_7806926.JPG,7,ISIC_0001602.JPG,ISIC_0001602.JPG,false,0,keypress(z),500,523929,523928.90000009537,518943.017,518946.09999990463,518959.726,523936.137,8,400,6,,ISIC_7806926.JPG
break,html.Screen,4_55_1,2023-09-13T15:55:17.720Z,,0,,,NaN,,,,,,false,,,,523929.80000019073,523929.5,,523929.2000002861,,523936.137,8,400,,,
break_continue,html.Screen,4_55_2,2023-09-13T15:55:17.721Z,,0,,,NaN,,,,,,false,,,,523930.09999990463,523929.90000009537,,523929.90000009537,,523936.137,8,400,,,
sequence,flow.Sequence,4_55,2023-09-13T15:55:17.721Z,,0,,,4970.174000095343,completion,,,,,false,,,,523930.09999990463,523929.90000009537,518943.017,518946,518959.726,523936.137,8,400,,,
trial,html.Screen,4_56_0,2023-09-13T15:55:22.634Z,,0,2,,4907.2630000953795,response,ISIC_5807608.JPG,6,ISIC_2808622.JPG,ISIC_5807608.JPG,false,1,keypress(m),500,528843.7000002861,528843.4000000954,523919.386,523930.2000002861,523936.137,528862.408,8,400,7,,ISIC_2808622.JPG
break,html.Screen,4_56_1,2023-09-13T15:55:22.636Z,,0,,,NaN,,,,,,false,,,,528845.0999999046,528844.8000001907,,528844.0999999046,,528862.408,8,400,,,
break_continue,html.Screen,4_56_2,2023-09-13T15:55:22.637Z,,0,,,NaN,,,,,,false,,,,528846.2000002861,528845.7000002861,,528845.3000001907,,528862.408,8,400,,,
sequence,flow.Sequence,4_56,2023-09-13T15:55:22.637Z,,0,,,4909.563000286114,completion,,,,,false,,,,528846.8000001907,528845.7000002861,523919.386,523930.2000002861,523936.137,528862.408,8,400,,,
trial,html.Screen,4_57_0,2023-09-13T15:55:27.648Z,,0,2,,4994.792000286048,response,ISIC_1484659.JPG,6,ISIC_0862745.JPG,ISIC_1484659.JPG,false,1,keypress(m),500,533857.4000000954,533857.2000002861,528845.667,528847.0999999046,528862.408,533888.904,8,400,8,,ISIC_0862745.JPG
break,html.Screen,4_57_1,2023-09-13T15:55:27.649Z,,0,,,NaN,,,,,,false,,,,533858,533857.9000000954,,533857.5999999046,,533888.904,8,400,,,
break_continue,html.Screen,4_57_2,2023-09-13T15:55:27.649Z,,0,,,NaN,,,,,,false,,,,533858.2000002861,533858.2000002861,,533858,,533888.904,8,400,,,
sequence,flow.Sequence,4_57,2023-09-13T15:55:27.649Z,,0,,,4995.792000286048,completion,,,,,false,,,,533858.4000000954,533858.2000002861,528845.667,528847,528862.408,533888.904,8,400,,,
trial,html.Screen,4_58_0,2023-09-13T15:55:33.215Z,,0,2,,5535.195999904652,response,ISIC_5738369.JPG,5,ISIC_0033399.JPG,ISIC_5738369.JPG,false,1,keypress(m),500,539424.2000002861,539424.0999999046,533872.276,533858.5,533888.904,539432.862,8,400,9,,ISIC_0033399.JPG
break,html.Screen,4_58_1,2023-09-13T15:55:33.215Z,,0,,,NaN,,,,,,false,,,,539424.9000000954,539424.8000001907,,539424.4000000954,,539432.862,8,400,,,
break_continue,html.Screen,4_58_2,2023-09-13T15:55:33.216Z,,0,,,NaN,,,,,,false,,,,539425.2000002861,539425.0999999046,,539425,,539432.862,8,400,,,
sequence,flow.Sequence,4_58,2023-09-13T15:55:33.216Z,,0,,,5536.195999904652,completion,,,,,false,,,,539425.4000000954,539425.0999999046,533872.276,533858.5,533888.904,539432.862,8,400,,,
trial,html.Screen,4_59_0,2023-09-13T15:55:37.555Z,,0,2,,4331.737999904668,response,ISIC_0003052.JPG,5,ISIC_0028929.JPG,ISIC_0003052.JPG,false,1,keypress(m),500,543764.7000002861,543764.5999999046,539416.211,539425.4000000954,539432.862,543791.43,8,400,10,,ISIC_0028929.JPG
break,html.Screen,4_59_1,2023-09-13T15:55:37.556Z,,0,,,NaN,,,,,,false,,,,543765.0999999046,543765.0999999046,,543764.9000000954,,543791.43,8,400,,,
break_continue,html.Screen,4_59_2,2023-09-13T15:55:37.556Z,,0,,,NaN,,,,,,false,,,,543765.3000001907,543765.3000001907,,543765.2000002861,,543791.43,8,400,,,
sequence,flow.Sequence,4_59,2023-09-13T15:55:37.556Z,,0,,,4332.43800019077,completion,,,,,false,,,,543765.4000000954,543765.3000001907,539416.211,539425.4000000954,539432.862,543791.43,8,400,,,
trial,html.Screen,4_60_0,2023-09-13T15:55:43.382Z,,0,2,,5799.569999999949,response,ISIC_0064982.JPG,5,ISIC_0033662.JPG,ISIC_0064982.JPG,false,1,keypress(m),500,549591.2000002861,549591,543774.665,543765.5,543791.43,549602.675,8,400,11,,ISIC_0033662.JPG
break,html.Screen,4_60_1,2023-09-13T15:55:43.382Z,,0,,,NaN,,,,,,false,,,,549591.8000001907,549591.7000002861,,549591.4000000954,,549602.675,8,400,,,
break_continue,html.Screen,4_60_2,2023-09-13T15:55:43.383Z,,0,,,NaN,,,,,,false,,,,549592,549591.9000000954,,549591.8000001907,,549602.675,8,400,,,
sequence,flow.Sequence,4_60,2023-09-13T15:55:43.383Z,,0,,,5800.470000095316,completion,,,,,false,,,,549592.0999999046,549591.9000000954,543774.665,543765.5,543791.43,549602.675,8,400,,,
trial,html.Screen,4_61_0,2023-09-13T15:55:48.297Z,,0,2,,4903.125000190688,response,ISIC_9688119.JPG,5,ISIC_3787504.JPG,ISIC_9688119.JPG,false,1,keypress(m),500,554506.0999999046,554505.8000001907,549585.957,549592.0999999046,549602.675,554512.265,8,400,12,,ISIC_3787504.JPG
break,html.Screen,4_61_1,2023-09-13T15:55:48.298Z,,0,,,NaN,,,,,,false,,,,554507.7000002861,554507.3000001907,,554506.5999999046,,554512.265,8,400,,,
break_continue,html.Screen,4_61_2,2023-09-13T15:55:48.299Z,,0,,,NaN,,,,,,false,,,,554508.4000000954,554508.2000002861,,554507.9000000954,,554512.265,8,400,,,
sequence,flow.Sequence,4_61,2023-09-13T15:55:48.299Z,,0,,,4905.525000286056,completion,,,,,false,,,,554508.7000002861,554508.2000002861,549585.957,549592.0999999046,549602.675,554512.265,8,400,,,
trial,html.Screen,4_62_0,2023-09-13T15:55:53.326Z,,0,2,,5023.435000286088,response,ISIC_9301346.JPG,6,ISIC_0247330.JPG,ISIC_9301346.JPG,false,1,keypress(m),500,559535.9000000954,559535.7000002861,554495.607,554509,554512.265,559555.404,8,400,13,,ISIC_0247330.JPG
break,html.Screen,4_62_1,2023-09-13T15:55:53.327Z,,0,,,NaN,,,,,,false,,,,559536.3000001907,559536.2000002861,,559536,,559555.404,8,400,,,
break_continue,html.Screen,4_62_2,2023-09-13T15:55:53.327Z,,0,,,NaN,,,,,,false,,,,559536.5,559536.4000000954,,559536.3000001907,,559555.404,8,400,,,
sequence,flow.Sequence,4_62,2023-09-13T15:55:53.327Z,,0,,,5024.1350000953535,completion,,,,,false,,,,559536.5,559536.4000000954,554495.607,554508.9000000954,554512.265,559555.404,8,400,,,
trial,html.Screen,4_63_0,2023-09-13T15:55:57.938Z,,0,2,,4591.59600000002,response,ISIC_8263741.JPG,5,ISIC_0033700.JPG,ISIC_8263741.JPG,false,1,keypress(m),500,564147.4000000954,564147,559538.681,559536.5,559555.404,564164.424,8,400,14,,ISIC_0033700.JPG
break,html.Screen,4_63_1,2023-09-13T15:55:57.940Z,,0,,,NaN,,,,,,false,,,,564149.9000000954,564149.4000000954,,564147.8000001907,,564164.424,8,400,,,
break_continue,html.Screen,4_63_2,2023-09-13T15:55:57.942Z,,0,,,NaN,,,,,,false,,,,564151.4000000954,564150.7000002861,,564150.2000002861,,564164.424,8,400,,,
sequence,flow.Sequence,4_63,2023-09-13T15:55:57.943Z,,0,,,4595.296000286122,completion,,,,,false,,,,564152,564150.7000002861,559538.681,559536.5,559555.404,564164.424,8,400,,,
trial,html.Screen,4_64_0,2023-09-13T15:56:04.473Z,,0,2,,6517.776000286103,response,ISIC_7860137.JPG,4,ISIC_4580926.JPG,ISIC_4580926.JPG,false,0,keypress(z),500,570682.4000000954,570682.2000002861,564147.634,564152.4000000954,564164.424,570693.79,8,400,15,,ISIC_7860137.JPG
break,html.Screen,4_64_1,2023-09-13T15:56:04.473Z,,0,,,NaN,,,,,,false,,,,570682.8000001907,570682.8000001907,,570682.5,,570693.79,8,400,,,
break_continue,html.Screen,4_64_2,2023-09-13T15:56:04.474Z,,0,,,NaN,,,,,,false,,,,570683,570683,,570682.9000000954,,570693.79,8,400,,,
sequence,flow.Sequence,4_64,2023-09-13T15:56:04.474Z,,0,,,6518.576000000001,completion,,,,,false,,,,570683.0999999046,570683,564147.634,564152.3000001907,564164.424,570693.79,8,400,,,
trial,html.Screen,4_65_0,2023-09-13T15:56:09.387Z,,0,2,,4902.809999904595,response,ISIC_1962844.JPG,6,ISIC_0905367.JPG,ISIC_1962844.JPG,false,1,keypress(m),500,575596.7000002861,575596.5999999046,570677.089,570683.2000002861,570693.79,575603.353,8,400,16,,ISIC_0905367.JPG
break,html.Screen,4_65_1,2023-09-13T15:56:09.388Z,,0,,,NaN,,,,,,false,,,,575597.2000002861,575597.0999999046,,575596.8000001907,,575603.353,8,400,,,
break_continue,html.Screen,4_65_2,2023-09-13T15:56:09.388Z,,0,,,NaN,,,,,,false,,,,575597.3000001907,575597.2000002861,,575597.2000002861,,575603.353,8,400,,,
sequence,flow.Sequence,4_65,2023-09-13T15:56:09.388Z,,0,,,4903.410000286065,completion,,,,,false,,,,575597.4000000954,575597.2000002861,570677.089,570683.2000002861,570693.79,575603.353,8,400,,,
trial,html.Screen,4_66_0,2023-09-13T15:56:13.918Z,,0,2,,4522.947000190732,response,ISIC_7181296.JPG,5,ISIC_4938994.JPG,ISIC_4938994.JPG,false,0,keypress(z),500,580126.5,580126.3000001907,575586.53,575597.5,575603.353,580128.752,8,400,17,,ISIC_7181296.JPG
break,html.Screen,4_66_1,2023-09-13T15:56:13.919Z,,0,,,NaN,,,,,,false,,,,580127,580126.8000001907,,580126.5,,580128.752,8,400,,,
break_continue,html.Screen,4_66_2,2023-09-13T15:56:13.919Z,,0,,,NaN,,,,,,false,,,,580127.3000001907,580127.3000001907,,580127.0999999046,,580128.752,8,400,,,
sequence,flow.Sequence,4_66,2023-09-13T15:56:13.919Z,,0,,,4523.947000190732,completion,,,,,false,,,,580127.4000000954,580127.3000001907,575586.53,575597.5,575603.353,580128.752,8,400,,,
trial,html.Screen,4_67_0,2023-09-13T15:56:19.953Z,,0,2,,6032.548000190756,response,ISIC_0071132.JPG,4,ISIC_2784965.JPG,ISIC_2784965.JPG,false,0,keypress(z),500,586161.4000000954,586161.3000001907,580112.161,580127.5,580128.752,586173.852,8,400,18,,ISIC_0071132.JPG
break,html.Screen,4_67_1,2023-09-13T15:56:19.954Z,,0,,,NaN,,,,,,false,,,,586161.8000001907,586161.7000002861,,586161.5,,586173.852,8,400,,,
break_continue,html.Screen,4_67_2,2023-09-13T15:56:19.954Z,,0,,,NaN,,,,,,false,,,,586162,586162,,586161.9000000954,,586173.852,8,400,,,
sequence,flow.Sequence,4_67,2023-09-13T15:56:19.954Z,,0,,,6033.248000000021,completion,,,,,false,,,,586162.0999999046,586162,580112.161,580127.5,580128.752,586173.852,8,400,,,
trial,html.Screen,4_68_0,2023-09-13T15:56:25.955Z,,0,2,,5989.148000000045,response,ISIC_0002878.JPG,6,ISIC_0029007.JPG,ISIC_0029007.JPG,false,0,keypress(z),500,592163.0999999046,592163,586157.302,586162.2000002861,586173.852,592168.849,8,400,19,,ISIC_0002878.JPG
break,html.Screen,4_68_1,2023-09-13T15:56:25.956Z,,0,,,NaN,,,,,,false,,,,592163.5999999046,592163.5,,592163.3000001907,,592168.849,8,400,,,
break_continue,html.Screen,4_68_2,2023-09-13T15:56:25.956Z,,0,,,NaN,,,,,,false,,,,592164,592163.8000001907,,592163.8000001907,,592168.849,8,400,,,
sequence,flow.Sequence,4_68,2023-09-13T15:56:25.956Z,,0,,,5989.94800019078,completion,,,,,false,,,,592164.0999999046,592163.8000001907,586157.302,586162.0999999046,586173.852,592168.849,8,400,,,
trial,html.Screen,4_69_0,2023-09-13T15:56:30.517Z,,0,2,,4556.351000286057,response,ISIC_8382969.JPG,5,ISIC_4288307.JPG,ISIC_8382969.JPG,false,1,keypress(m),500,596725.3000001907,596725.2000002861,592152.239,592164.0999999046,592168.849,596744.409,8,400,20,,ISIC_4288307.JPG
break,html.Screen,4_69_1,2023-09-13T15:56:30.518Z,,0,,,NaN,,,,,,false,,,,596725.7000002861,596725.5999999046,,596725.4000000954,,596744.409,8,400,,,
break_continue,html.Screen,4_69_2,2023-09-13T15:56:30.518Z,,0,,,NaN,,,,,,false,,,,596725.9000000954,596725.8000001907,,596725.8000001907,,596744.409,8,400,,,
sequence,flow.Sequence,4_69,2023-09-13T15:56:30.518Z,,0,,,4556.951000190689,completion,,,,,false,,,,596726,596725.8000001907,592152.239,592164.0999999046,592168.849,596744.409,8,400,,,
trial,html.Screen,4_70_0,2023-09-13T15:56:37.049Z,,0,2,,6512.6909999046475,response,ISIC_0027480.JPG,5,ISIC_4323070.JPG,ISIC_4323070.JPG,false,0,keypress(z),500,603257.3000001907,603257.0999999046,596711.024,596726.0999999046,596744.409,603273.957,8,400,21,,ISIC_0027480.JPG
break,html.Screen,4_70_1,2023-09-13T15:56:37.050Z,,0,,,NaN,,,,,,false,,,,603257.7000002861,603257.5999999046,,603257.4000000954,,603273.957,8,400,,,
break_continue,html.Screen,4_70_2,2023-09-13T15:56:37.050Z,,0,,,NaN,,,,,,false,,,,603257.9000000954,603257.8000001907,,603257.8000001907,,603273.957,8,400,,,
sequence,flow.Sequence,4_70,2023-09-13T15:56:37.050Z,,0,,,6513.39100019075,completion,,,,,false,,,,603258,603257.8000001907,596711.024,596726,596744.409,603273.957,8,400,,,
trial,html.Screen,4_71_0,2023-09-13T15:56:42.164Z,,0,2,,5097.542999999947,response,ISIC_9008095.JPG,5,ISIC_5569091.JPG,ISIC_5569091.JPG,false,0,keypress(z),500,608371.7000002861,608371.5,603257.107,603258,603273.957,608383.758,8,400,22,,ISIC_9008095.JPG
break,html.Screen,4_71_1,2023-09-13T15:56:42.164Z,,0,,,NaN,,,,,,false,,,,608372.0999999046,608372,,608371.7000002861,,608383.758,8,400,,,
break_continue,html.Screen,4_71_2,2023-09-13T15:56:42.164Z,,0,,,NaN,,,,,,false,,,,608372.3000001907,608372.2000002861,,608372.2000002861,,608383.758,8,400,,,
sequence,flow.Sequence,4_71,2023-09-13T15:56:42.164Z,,0,,,5098.243000286049,completion,,,,,false,,,,608372.4000000954,608372.2000002861,603257.107,603258,603273.957,608383.758,8,400,,,
trial,html.Screen,4_72_0,2023-09-13T15:56:46.974Z,,0,2,,4798.542000190704,response,ISIC_0032377.JPG,5,ISIC_0032396.JPG,ISIC_0032377.JPG,false,1,keypress(m),500,613182.4000000954,613182.3000001907,608367.162,608372.4000000954,608383.758,613209.769,8,400,23,,ISIC_0032396.JPG
break,html.Screen,4_72_1,2023-09-13T15:56:46.975Z,,0,,,NaN,,,,,,false,,,,613182.8000001907,613182.7000002861,,613182.5,,613209.769,8,400,,,
break_continue,html.Screen,4_72_2,2023-09-13T15:56:46.975Z,,0,,,NaN,,,,,,false,,,,613183.0999999046,613183,,613182.9000000954,,613209.769,8,400,,,
sequence,flow.Sequence,4_72,2023-09-13T15:56:46.975Z,,0,,,4799.241999999969,completion,,,,,false,,,,613183.0999999046,613183,608367.162,608372.4000000954,608383.758,613209.769,8,400,,,
trial,html.Screen,4_73_0,2023-09-13T15:56:52.053Z,,0,2,,5051.631000095396,response,ISIC_1081430.JPG,6,ISIC_4529363.JPG,ISIC_4529363.JPG,false,0,keypress(z),500,618261.4000000954,618261.4000000954,613193.236,613183.2000002861,613209.769,618286.423,8,400,24,,ISIC_1081430.JPG
break,html.Screen,4_73_1,2023-09-13T15:56:52.054Z,,0,,,NaN,,,,,,false,,,,618262,618261.8000001907,,618261.5999999046,,618286.423,8,400,,,
break_continue,html.Screen,4_73_2,2023-09-13T15:56:52.054Z,,0,,,NaN,,,,,,false,,,,618262.0999999046,618262.0999999046,,618262,,618286.423,8,400,,,
sequence,flow.Sequence,4_73,2023-09-13T15:56:52.054Z,,0,,,5052.330999904661,completion,,,,,false,,,,618262.2000002861,618262.0999999046,613193.236,613183.0999999046,613209.769,618286.423,8,400,,,
trial,html.Screen,4_74_0,2023-09-13T15:56:59.336Z,,0,2,,7257.477000095416,response,ISIC_0025035.JPG,5,ISIC_1605945.JPG,ISIC_0025035.JPG,false,1,keypress(m),500,625544,625543.9000000954,618269.662,618262.3000001907,618286.423,625550.55,8,400,25,,ISIC_1605945.JPG
break,html.Screen,4_74_1,2023-09-13T15:56:59.336Z,,0,,,NaN,,,,,,false,,,,625544.4000000954,625544.3000001907,,625544.0999999046,,625550.55,8,400,,,
break_continue,html.Screen,4_74_2,2023-09-13T15:56:59.337Z,,0,,,NaN,,,,,,false,,,,625544.5999999046,625544.5999999046,,625544.4000000954,,625550.55,8,400,,,
sequence,flow.Sequence,4_74,2023-09-13T15:56:59.337Z,,0,,,7258.176999904681,completion,,,,,false,,,,625544.7000002861,625544.5999999046,618269.662,618262.3000001907,618286.423,625550.55,8,400,,,
trial,html.Screen,4_75_0,2023-09-13T15:57:04.507Z,,0,2,,5164.049999904586,response,ISIC_7180418.JPG,5,ISIC_0069250.JPG,ISIC_7180418.JPG,false,1,keypress(m),500,630714.7000002861,630714.5999999046,625533.759,625544.8000001907,625550.55,630727.176,8,400,26,,ISIC_0069250.JPG
break,html.Screen,4_75_1,2023-09-13T15:57:04.507Z,,0,,,NaN,,,,,,false,,,,630715.2000002861,630715,,630714.8000001907,,630727.176,8,400,,,
break_continue,html.Screen,4_75_2,2023-09-13T15:57:04.507Z,,0,,,NaN,,,,,,false,,,,630715.3000001907,630715.3000001907,,630715.2000002861,,630727.176,8,400,,,
sequence,flow.Sequence,4_75,2023-09-13T15:57:04.507Z,,0,,,5164.750000190688,completion,,,,,false,,,,630715.4000000954,630715.3000001907,625533.759,625544.7000002861,625550.55,630727.176,8,400,,,
trial,html.Screen,4_76_0,2023-09-13T15:57:09.917Z,,0,2,,5397.824000000022,response,ISIC_0613014.JPG,6,ISIC_8409024.JPG,ISIC_0613014.JPG,false,1,keypress(m),500,636125.2000002861,636125,630710.649,630715.5,630727.176,636137.808,8,400,27,,ISIC_8409024.JPG
break,html.Screen,4_76_1,2023-09-13T15:57:09.918Z,,0,,,NaN,,,,,,false,,,,636125.8000001907,636125.5999999046,,636125.4000000954,,636137.808,8,400,,,
break_continue,html.Screen,4_76_2,2023-09-13T15:57:09.918Z,,0,,,NaN,,,,,,false,,,,636126,636126,,636125.9000000954,,636137.808,8,400,,,
sequence,flow.Sequence,4_76,2023-09-13T15:57:09.918Z,,0,,,5398.824000000022,completion,,,,,false,,,,636126.2000002861,636126,630710.649,630715.5,630727.176,636137.808,8,400,,,
trial,html.Screen,4_77_0,2023-09-13T15:57:16.993Z,,0,2,,7061.592000095407,response,ISIC_0030970.JPG,5,ISIC_0055759.JPG,ISIC_0030970.JPG,false,1,keypress(m),500,643199.5999999046,643199.4000000954,636121.148,636126.3000001907,636137.808,643201.47,8,400,28,,ISIC_0055759.JPG
break,html.Screen,4_77_1,2023-09-13T15:57:16.994Z,,0,,,NaN,,,,,,false,,,,643200.5999999046,643200.3000001907,,643199.9000000954,,643201.47,8,400,,,
break_continue,html.Screen,4_77_2,2023-09-13T15:57:16.995Z,,0,,,NaN,,,,,,false,,,,643201.0999999046,643201,,643200.8000001907,,643201.47,8,400,,,
sequence,flow.Sequence,4_77,2023-09-13T15:57:16.995Z,,0,,,7063.192000000039,completion,,,,,false,,,,643201.4000000954,643201,636121.148,636126.3000001907,636137.808,643201.47,8,400,,,
trial,html.Screen,4_78_0,2023-09-13T15:57:21.477Z,,0,2,,4481.930000095395,response,ISIC_0065735.JPG,5,ISIC_7287540.JPG,ISIC_7287540.JPG,false,0,keypress(z),500,647683.5999999046,647683.4000000954,643184.94,643201.5999999046,643201.47,647693.54,8,400,29,,ISIC_0065735.JPG
break,html.Screen,4_78_1,2023-09-13T15:57:21.478Z,,0,,,NaN,,,,,,false,,,,647684.0999999046,647683.9000000954,,647683.7000002861,,647693.54,8,400,,,
break_continue,html.Screen,4_78_2,2023-09-13T15:57:21.478Z,,0,,,NaN,,,,,,false,,,,647684.5,647684.4000000954,,647684.2000002861,,647693.54,8,400,,,
sequence,flow.Sequence,4_78,2023-09-13T15:57:21.478Z,,0,,,4482.930000095395,completion,,,,,false,,,,647684.5999999046,647684.4000000954,643184.94,643201.5,643201.47,647693.54,8,400,,,
trial,html.Screen,4_79_0,2023-09-13T15:57:26.008Z,,0,2,,4521.160000286065,response,ISIC_0068993.JPG,6,ISIC_8224270.JPG,ISIC_8224270.JPG,false,0,keypress(z),500,652215,652214.7000002861,647676.848,647684.5999999046,647693.54,652219.051,8,400,30,,ISIC_0068993.JPG
break,html.Screen,4_79_1,2023-09-13T15:57:26.009Z,,0,,,NaN,,,,,,false,,,,652215.9000000954,652215.7000002861,,652215.2000002861,,652219.051,8,400,,,
break_continue,html.Screen,4_79_2,2023-09-13T15:57:26.010Z,,0,,,NaN,,,,,,false,,,,652216.4000000954,652216.3000001907,,652216.0999999046,,652219.051,8,400,,,
sequence,flow.Sequence,4_79,2023-09-13T15:57:26.010Z,,0,,,4522.760000190698,completion,,,,,false,,,,652216.5999999046,652216.3000001907,647676.848,647684.5999999046,647693.54,652219.051,8,400,,,
trial,html.Screen,4_80_0,2023-09-13T15:57:30.941Z,,0,2,,4928.449000000022,response,ISIC_0011343.JPG,5,ISIC_9626843.JPG,ISIC_9626843.JPG,false,0,keypress(z),500,657147.5999999046,657147.5,652202.362,652216.7000002861,652219.051,657161.969,8,400,31,,ISIC_0011343.JPG
break,html.Screen,4_80_1,2023-09-13T15:57:30.942Z,,0,,,NaN,,,,,,false,,,,657148.2000002861,657148,,657147.7000002861,,657161.969,8,400,,,
break_continue,html.Screen,4_80_2,2023-09-13T15:57:30.942Z,,0,,,NaN,,,,,,false,,,,657148.5,657148.4000000954,,657148.2000002861,,657161.969,8,400,,,
sequence,flow.Sequence,4_80,2023-09-13T15:57:30.942Z,,0,,,4929.34900009539,completion,,,,,false,,,,657148.5999999046,657148.4000000954,652202.362,652216.7000002861,652219.051,657161.969,8,400,,,
trial,html.Screen,4_81_0,2023-09-13T15:57:35.057Z,,0,2,,4100.931000095326,response,ISIC_0011587.JPG,5,ISIC_9011718.JPG,ISIC_0011587.JPG,false,1,keypress(m),500,661263.0999999046,661262.9000000954,657145.35,657148.7000002861,657161.969,661269.954,8,400,32,,ISIC_9011718.JPG
break,html.Screen,4_81_1,2023-09-13T15:57:35.057Z,,0,,,NaN,,,,,,false,,,,661263.5999999046,661263.4000000954,,661263.2000002861,,661269.954,8,400,,,
break_continue,html.Screen,4_81_2,2023-09-13T15:57:35.057Z,,0,,,NaN,,,,,,false,,,,661263.7000002861,661263.7000002861,,661263.5999999046,,661269.954,8,400,,,
sequence,flow.Sequence,4_81,2023-09-13T15:57:35.057Z,,0,,,4101.731000286061,completion,,,,,false,,,,661263.8000001907,661263.7000002861,657145.35,657148.7000002861,657161.969,661269.954,8,400,,,
trial,html.Screen,4_82_0,2023-09-13T15:57:40.601Z,,0,2,,5537.045999999973,response,ISIC_3430311.JPG,5,ISIC_6023518.JPG,ISIC_3430311.JPG,false,1,keypress(m),500,666807.4000000954,666807,661253.28,661263.9000000954,661269.954,666814.175,8,400,33,,ISIC_6023518.JPG
break,html.Screen,4_82_1,2023-09-13T15:57:40.603Z,,0,,,NaN,,,,,,false,,,,666809.5,666809,,666807.8000001907,,666814.175,8,400,,,
break_continue,html.Screen,4_82_2,2023-09-13T15:57:40.604Z,,0,,,NaN,,,,,,false,,,,666810.7000002861,666810.3000001907,,666809.8000001907,,666814.175,8,400,,,
sequence,flow.Sequence,4_82,2023-09-13T15:57:40.605Z,,0,,,5540.346000190708,completion,,,,,false,,,,666811.4000000954,666810.3000001907,661253.28,661263.8000001907,661269.954,666814.175,8,400,,,
trial,html.Screen,4_83_0,2023-09-13T15:57:44.943Z,,0,2,,4335.025000286056,response,ISIC_0068107.JPG,5,ISIC_6878417.JPG,ISIC_6878417.JPG,false,0,keypress(z),500,671149.3000001907,671149.2000002861,666797.44,666811.5999999046,666814.175,671172.662,8,400,34,,ISIC_0068107.JPG
break,html.Screen,4_83_1,2023-09-13T15:57:44.943Z,,0,,,NaN,,,,,,false,,,,671149.9000000954,671149.7000002861,,671149.5,,671172.662,8,400,,,
break_continue,html.Screen,4_83_2,2023-09-13T15:57:44.944Z,,0,,,NaN,,,,,,false,,,,671150.2000002861,671150.2000002861,,671150,,671172.662,8,400,,,
sequence,flow.Sequence,4_83,2023-09-13T15:57:44.944Z,,0,,,4336.025000286056,completion,,,,,false,,,,671150.2000002861,671150.2000002861,666797.44,666811.5999999046,666814.175,671172.662,8,400,,,
trial,html.Screen,4_84_0,2023-09-13T15:57:50.097Z,,0,2,,5130.837999999989,response,ISIC_0000814.JPG,5,ISIC_0024537.JPG,ISIC_0000814.JPG,false,1,keypress(m),500,676303.5999999046,676303.5,671155.991,671150.3000001907,671172.662,676315.947,8,400,35,,ISIC_0024537.JPG
break,html.Screen,4_84_1,2023-09-13T15:57:50.098Z,,0,,,NaN,,,,,,false,,,,676304.3000001907,676304.0999999046,,676303.8000001907,,676315.947,8,400,,,
break_continue,html.Screen,4_84_2,2023-09-13T15:57:50.098Z,,0,,,NaN,,,,,,false,,,,676304.5999999046,676304.5999999046,,676304.4000000954,,676315.947,8,400,,,
sequence,flow.Sequence,4_84,2023-09-13T15:57:50.098Z,,0,,,5131.937999904621,completion,,,,,false,,,,676304.7000002861,676304.5999999046,671155.991,671150.3000001907,671172.662,676315.947,8,400,,,
trial,html.Screen,4_85_0,2023-09-13T15:57:56.804Z,,0,2,,6694.652999904589,response,ISIC_6105084.JPG,4,ISIC_5747486.JPG,ISIC_5747486.JPG,false,0,keypress(z),500,683010.8000001907,683010.5999999046,676299.205,676304.7000002861,676315.947,683012.323,8,400,36,,ISIC_6105084.JPG
break,html.Screen,4_85_1,2023-09-13T15:57:56.805Z,,0,,,NaN,,,,,,false,,,,683011.5,683011.3000001907,,683010.9000000954,,683012.323,8,400,,,
break_continue,html.Screen,4_85_2,2023-09-13T15:57:56.805Z,,0,,,NaN,,,,,,false,,,,683012,683011.9000000954,,683011.7000002861,,683012.323,8,400,,,
sequence,flow.Sequence,4_85,2023-09-13T15:57:56.806Z,,0,,,6695.953000095324,completion,,,,,false,,,,683012.0999999046,683011.9000000954,676299.205,676304.7000002861,676315.947,683012.323,8,400,,,
trial,html.Screen,4_86_0,2023-09-13T15:58:03.295Z,,0,2,,6489.377000286127,response,ISIC_7835257.JPG,5,ISIC_5982769.JPG,ISIC_5982769.JPG,false,0,keypress(z),500,689502,689501.7000002861,682995.716,683012.2000002861,683012.323,689508.34,8,400,37,,ISIC_7835257.JPG
break,html.Screen,4_86_1,2023-09-13T15:58:03.296Z,,0,,,NaN,,,,,,false,,,,689502.5999999046,689502.4000000954,,689502.0999999046,,689508.34,8,400,,,
break_continue,html.Screen,4_86_2,2023-09-13T15:58:03.296Z,,0,,,NaN,,,,,,false,,,,689503,689502.8000001907,,689502.8000001907,,689508.34,8,400,,,
sequence,flow.Sequence,4_86,2023-09-13T15:58:03.297Z,,0,,,6490.47700019076,completion,,,,,false,,,,689503.0999999046,689502.8000001907,682995.716,683012.2000002861,683012.323,689508.34,8,400,,,
trial,html.Screen,4_87_0,2023-09-13T15:58:10.649Z,,0,2,,7346.9600001907675,response,ISIC_0061315.JPG,5,ISIC_0034199.JPG,ISIC_0061315.JPG,false,1,keypress(m),500,696855.4000000954,696855.3000001907,689491.57,689503.2000002861,689508.34,696855.857,8,400,38,,ISIC_0034199.JPG
break,html.Screen,4_87_1,2023-09-13T15:58:10.649Z,,0,,,NaN,,,,,,false,,,,696855.8000001907,696855.7000002861,,696855.4000000954,,696855.857,8,400,,,
break_continue,html.Screen,4_87_2,2023-09-13T15:58:10.649Z,,0,,,NaN,,,,,,false,,,,696856,696855.9000000954,,696855.8000001907,,696855.857,8,400,,,
sequence,flow.Sequence,4_87,2023-09-13T15:58:10.650Z,,0,,,7347.5600000954,completion,,,,,false,,,,696856.0999999046,696855.9000000954,689491.57,689503.0999999046,689508.34,696855.857,8,400,,,
trial,html.Screen,4_88_0,2023-09-13T15:58:16.257Z,,0,2,,5606.64300000004,response,ISIC_0024545.JPG,5,ISIC_0034071.JPG,ISIC_0034071.JPG,false,0,keypress(z),500,702462.5999999046,702462.5,696839.371,696856.2000002861,696855.857,702466.799,8,400,39,,ISIC_0024545.JPG
break,html.Screen,4_88_1,2023-09-13T15:58:16.258Z,,0,,,NaN,,,,,,false,,,,702462.9000000954,702462.8000001907,,702462.7000002861,,702466.799,8,400,,,
break_continue,html.Screen,4_88_2,2023-09-13T15:58:16.258Z,,0,,,NaN,,,,,,false,,,,702463.2000002861,702463.0999999046,,702463,,702466.799,8,400,,,
sequence,flow.Sequence,4_88,2023-09-13T15:58:16.258Z,,0,,,5607.242999904673,completion,,,,,false,,,,702463.2000002861,702463.0999999046,696839.371,696856.2000002861,696855.857,702466.799,8,400,,,
trial,html.Screen,4_89_0,2023-09-13T15:58:21.955Z,,0,2,,5693.501000190736,response,ISIC_6002694.JPG,5,ISIC_0064393.JPG,ISIC_6002694.JPG,false,1,keypress(m),500,708160.5,708160.3000001907,702450.099,702463.3000001907,702466.799,708161.188,8,400,40,,ISIC_0064393.JPG
break,html.Screen,4_89_1,2023-09-13T15:58:21.956Z,,0,,,NaN,,,,,,false,,,,708161.0999999046,708160.9000000954,,708160.7000002861,,708161.188,8,400,,,
break_continue,html.Screen,4_89_2,2023-09-13T15:58:21.956Z,,0,,,NaN,,,,,,false,,,,708161.5,708161.4000000954,,708161.0999999046,,708161.188,8,400,,,
sequence,flow.Sequence,4_89,2023-09-13T15:58:21.957Z,,0,,,5694.601000095368,completion,,,,,false,,,,708161.5999999046,708161.4000000954,702450.099,702463.2000002861,702466.799,708161.188,8,400,,,
trial,html.Screen,4_90_0,2023-09-13T15:58:28.758Z,,0,2,,6801.911999904667,response,ISIC_9788174.JPG,5,ISIC_0064270.JPG,ISIC_9788174.JPG,false,1,keypress(m),500,714963.3000001907,714963.0999999046,708144.687,708161.5999999046,708161.188,714974.583,8,400,41,,ISIC_0064270.JPG
break,html.Screen,4_90_1,2023-09-13T15:58:28.759Z,,0,,,NaN,,,,,,false,,,,714963.8000001907,714963.5999999046,,714963.4000000954,,714974.583,8,400,,,
break_continue,html.Screen,4_90_2,2023-09-13T15:58:28.759Z,,0,,,NaN,,,,,,false,,,,714964.0999999046,714964.0999999046,,714963.9000000954,,714974.583,8,400,,,
sequence,flow.Sequence,4_90,2023-09-13T15:58:28.759Z,,0,,,6802.911999904667,completion,,,,,false,,,,714964.2000002861,714964.0999999046,708144.687,708161.5999999046,708161.188,714974.583,8,400,,,
trial,html.Screen,4_91_0,2023-09-13T15:58:34.888Z,,0,2,,6118.417000000016,response,ISIC_7050122.JPG,5,ISIC_8199467.JPG,ISIC_8199467.JPG,false,0,keypress(z),500,721093.0999999046,721093,714957.809,714964.3000001907,714974.583,721103.094,8,400,42,,ISIC_7050122.JPG
break,html.Screen,4_91_1,2023-09-13T15:58:34.888Z,,0,,,NaN,,,,,,false,,,,721093.5999999046,721093.4000000954,,721093.2000002861,,721103.094,8,400,,,
break_continue,html.Screen,4_91_2,2023-09-13T15:58:34.889Z,,0,,,NaN,,,,,,false,,,,721093.8000001907,721093.7000002861,,721093.5999999046,,721103.094,8,400,,,
sequence,flow.Sequence,4_91,2023-09-13T15:58:34.889Z,,0,,,6119.117000286118,completion,,,,,false,,,,721093.9000000954,721093.7000002861,714957.809,714964.3000001907,714974.583,721103.094,8,400,,,
trial,html.Screen,4_92_0,2023-09-13T15:58:40.702Z,,0,2,,5803.806000095326,response,ISIC_4445729.JPG,5,ISIC_0065521.JPG,ISIC_4445729.JPG,false,1,keypress(m),500,726907.0999999046,726906.9000000954,721086.403,721093.9000000954,721103.094,726914.393,8,400,43,,ISIC_0065521.JPG
break,html.Screen,4_92_1,2023-09-13T15:58:40.703Z,,0,,,NaN,,,,,,false,,,,726908,726907.7000002861,,726907.3000001907,,726914.393,8,400,,,
break_continue,html.Screen,4_92_2,2023-09-13T15:58:40.703Z,,0,,,NaN,,,,,,false,,,,726908.3000001907,726908.0999999046,,726908.0999999046,,726914.393,8,400,,,
sequence,flow.Sequence,4_92,2023-09-13T15:58:40.703Z,,0,,,5805.005999904592,completion,,,,,false,,,,726908.4000000954,726908.0999999046,721086.403,721093.9000000954,721103.094,726914.393,8,400,,,
trial,html.Screen,4_93_0,2023-09-13T15:58:46.195Z,,0,2,,5485.407000190695,response,ISIC_4190900.JPG,5,ISIC_0029363.JPG,ISIC_4190900.JPG,false,1,keypress(m),500,732400.0999999046,732399.8000001907,726897.705,726908.5,726914.393,732408.438,8,400,44,,ISIC_0029363.JPG
break,html.Screen,4_93_1,2023-09-13T15:58:46.196Z,,0,,,NaN,,,,,,false,,,,732400.8000001907,732400.5999999046,,732400.3000001907,,732408.438,8,400,,,
break_continue,html.Screen,4_93_2,2023-09-13T15:58:46.196Z,,0,,,NaN,,,,,,false,,,,732401.0999999046,732401,,732400.9000000954,,732408.438,8,400,,,
sequence,flow.Sequence,4_93,2023-09-13T15:58:46.196Z,,0,,,5486.60699999996,completion,,,,,false,,,,732401.0999999046,732401,726897.705,726908.4000000954,726914.393,732408.438,8,400,,,
trial,html.Screen,4_94_0,2023-09-13T15:58:51.702Z,,0,2,,5498.362000190769,response,ISIC_1369273.JPG,6,ISIC_2704046.JPG,ISIC_2704046.JPG,false,0,keypress(z),500,737906.9000000954,737906.8000001907,732391.716,732401.2000002861,732408.438,737919.142,8,400,45,,ISIC_1369273.JPG
break,html.Screen,4_94_1,2023-09-13T15:58:51.702Z,,0,,,NaN,,,,,,false,,,,737907.4000000954,737907.2000002861,,737907,,737919.142,8,400,,,
break_continue,html.Screen,4_94_2,2023-09-13T15:58:51.702Z,,0,,,NaN,,,,,,false,,,,737907.5,737907.5,,737907.4000000954,,737919.142,8,400,,,
sequence,flow.Sequence,4_94,2023-09-13T15:58:51.702Z,,0,,,5499.0620000000345,completion,,,,,false,,,,737907.5999999046,737907.5,732391.716,732401.2000002861,732408.438,737919.142,8,400,,,
trial,html.Screen,4_95_0,2023-09-13T15:58:56.736Z,,0,2,,5022.258000095375,response,ISIC_1859923.JPG,5,ISIC_7323761.JPG,ISIC_1859923.JPG,false,1,keypress(m),500,742941.4000000954,742941.4000000954,737902.473,737907.5999999046,737919.142,742945.568,8,400,46,,ISIC_7323761.JPG
break,html.Screen,4_95_1,2023-09-13T15:58:56.737Z,,0,,,NaN,,,,,,false,,,,742942,742941.8000001907,,742941.5999999046,,742945.568,8,400,,,
break_continue,html.Screen,4_95_2,2023-09-13T15:58:56.737Z,,0,,,NaN,,,,,,false,,,,742942.2000002861,742942.0999999046,,742942.0999999046,,742945.568,8,400,,,
sequence,flow.Sequence,4_95,2023-09-13T15:58:56.737Z,,0,,,5022.95799990464,completion,,,,,false,,,,742942.3000001907,742942.0999999046,737902.473,737907.5999999046,737919.142,742945.568,8,400,,,
trial,html.Screen,4_96_0,2023-09-13T15:59:03.140Z,,0,2,,6399.632000286132,response,ISIC_0059005.JPG,5,ISIC_9465061.JPG,ISIC_0059005.JPG,false,1,keypress(m),500,749345.3000001907,749345.2000002861,742928.907,742942.4000000954,742945.568,749358.074,8,400,47,,ISIC_9465061.JPG
break,html.Screen,4_96_1,2023-09-13T15:59:03.141Z,,0,,,NaN,,,,,,false,,,,749345.8000001907,749345.7000002861,,749345.4000000954,,749358.074,8,400,,,
break_continue,html.Screen,4_96_2,2023-09-13T15:59:03.141Z,,0,,,NaN,,,,,,false,,,,749345.9000000954,749345.9000000954,,749345.8000001907,,749358.074,8,400,,,
sequence,flow.Sequence,4_96,2023-09-13T15:59:03.141Z,,0,,,6400.332000095397,completion,,,,,false,,,,749345.9000000954,749345.9000000954,742928.907,742942.3000001907,742945.568,749358.074,8,400,,,
trial,html.Screen,4_97_0,2023-09-13T15:59:08.615Z,,0,2,,5462.12600028608,response,ISIC_4153542.JPG,6,ISIC_0032629.JPG,ISIC_4153542.JPG,false,1,keypress(m),500,754820.3000001907,754820.2000002861,749341.389,749346,749358.074,754835.411,8,400,48,,ISIC_0032629.JPG
break,html.Screen,4_97_1,2023-09-13T15:59:08.616Z,,0,,,NaN,,,,,,false,,,,754820.9000000954,754820.8000001907,,754820.5,,754835.411,8,400,,,
break_continue,html.Screen,4_97_2,2023-09-13T15:59:08.616Z,,0,,,NaN,,,,,,false,,,,754821.2000002861,754821.0999999046,,754821,,754835.411,8,400,,,
sequence,flow.Sequence,4_97,2023-09-13T15:59:08.616Z,,0,,,5463.02599990461,completion,,,,,false,,,,754821.2000002861,754821.0999999046,749341.389,749346,749358.074,754835.411,8,400,,,
trial,html.Screen,4_98_0,2023-09-13T15:59:13.522Z,,0,2,,4889.589000000036,response,ISIC_0066150.JPG,4,ISIC_7184722.JPG,ISIC_7184722.JPG,false,0,keypress(z),500,759725.2000002861,759725,754818.713,754821.4000000954,754835.411,759728.255,8,400,49,,ISIC_0066150.JPG
break,html.Screen,4_98_1,2023-09-13T15:59:13.522Z,,0,,,NaN,,,,,,false,,,,759725.7000002861,759725.5,,759725.3000001907,,759728.255,8,400,,,
break_continue,html.Screen,4_98_2,2023-09-13T15:59:13.522Z,,0,,,NaN,,,,,,false,,,,759725.9000000954,759725.8000001907,,759725.8000001907,,759728.255,8,400,,,
sequence,flow.Sequence,4_98,2023-09-13T15:59:13.522Z,,0,,,4890.389000190771,completion,,,,,false,,,,759726,759725.8000001907,754818.713,754821.4000000954,754835.411,759728.255,8,400,,,
trial,html.Screen,4_99_0,2023-09-13T15:59:18.837Z,,0,2,,5311.945000286098,response,ISIC_4383671.JPG,5,ISIC_0004089.JPG,ISIC_0004089.JPG,false,0,keypress(z),500,765040.4000000954,765040.2000002861,759711.556,759726,759728.255,765055.368,8,400,50,,ISIC_4383671.JPG
break,html.Screen,4_99_1,2023-09-13T15:59:28.838Z,,0,,,10002.819000000018,timeout,,,,,false,,,,775042,775041.49,765038.691,765040.7000002861,765055.368,775058.187,8,400,,,
break_continue,html.Screen,4_99_2,2023-09-13T16:00:24.730Z,,0,,,55852.71300009533,response,,,,,false,continue,keypress(Space),,830933.0999999046,830910.9000000954,775041.49,775042.3000001907,775058.187,830966.974,8,400,,,
sequence,flow.Sequence,4_99,2023-09-13T16:00:24.731Z,,0,,,71182.64500009536,completion,,,,,false,,,,830933.2000002861,830910.9000000954,759711.556,759726,759728.255,830966.974,8,400,,,
trial,html.Screen,4_100_0,2023-09-13T16:00:32.563Z,,0,3,,7798.025999999954,response,ISIC_0030916.JPG,5,ISIC_0030943.JPG,ISIC_0030943.JPG,false,0,keypress(z),500,838765.2000002861,838765,830950.287,830933.3000001907,830966.974,838782.152,8,400,1,,ISIC_0030916.JPG
break,html.Screen,4_100_1,2023-09-13T16:00:32.564Z,,0,,,NaN,,,,,,false,,,,838766.5,838766.0999999046,,838765.5,,838782.152,8,400,,,
break_continue,html.Screen,4_100_2,2023-09-13T16:00:32.564Z,,0,,,NaN,,,,,,false,,,,838767,838766.8000001907,,838766.5999999046,,838782.152,8,400,,,
sequence,flow.Sequence,4_100,2023-09-13T16:00:32.564Z,,0,,,7799.826000190689,completion,,,,,false,,,,838767.2000002861,838766.8000001907,830950.287,830933.2000002861,830966.974,838782.152,8,400,,,
trial,html.Screen,4_101_0,2023-09-13T16:00:39.430Z,,0,3,,6850.447999904631,response,ISIC_0066492.JPG,5,ISIC_9791275.JPG,ISIC_9791275.JPG,false,0,keypress(z),500,845632.7000002861,845632.5999999046,838765.541,838767.2000002861,838782.152,845645.435,8,400,2,,ISIC_0066492.JPG
break,html.Screen,4_101_1,2023-09-13T16:00:39.431Z,,0,,,NaN,,,,,,false,,,,845633.4000000954,845633.2000002861,,845632.9000000954,,845645.435,8,400,,,
break_continue,html.Screen,4_101_2,2023-09-13T16:00:39.431Z,,0,,,NaN,,,,,,false,,,,845633.7000002861,845633.5999999046,,845633.5,,845645.435,8,400,,,
sequence,flow.Sequence,4_101,2023-09-13T16:00:39.431Z,,0,,,6851.447999904631,completion,,,,,false,,,,845633.7000002861,845633.5999999046,838765.541,838767.2000002861,838782.152,845645.435,8,400,,,
trial,html.Screen,4_102_0,2023-09-13T16:00:44.607Z,,0,3,,5163.664999904577,response,ISIC_2631789.JPG,5,ISIC_1327515.JPG,ISIC_2631789.JPG,false,1,keypress(m),500,850809.2000002861,850809.0999999046,845628.73,845633.8000001907,845645.435,850822.253,8,400,3,,ISIC_1327515.JPG
break,html.Screen,4_102_1,2023-09-13T16:00:44.607Z,,0,,,NaN,,,,,,false,,,,850809.9000000954,850809.5999999046,,850809.4000000954,,850822.253,8,400,,,
break_continue,html.Screen,4_102_2,2023-09-13T16:00:44.608Z,,0,,,NaN,,,,,,false,,,,850810.2000002861,850810.2000002861,,850810.0999999046,,850822.253,8,400,,,
sequence,flow.Sequence,4_102,2023-09-13T16:00:44.608Z,,0,,,5164.765000286046,completion,,,,,false,,,,850810.3000001907,850810.2000002861,845628.73,845633.8000001907,845645.435,850822.253,8,400,,,
trial,html.Screen,4_103_0,2023-09-13T16:00:50.930Z,,0,3,,6309.8469999046065,response,ISIC_8794567.JPG,4,ISIC_0068184.JPG,ISIC_0068184.JPG,false,0,keypress(z),500,857132.2000002861,857132.0999999046,850805.674,850810.3000001907,850822.253,857134.496,8,400,4,,ISIC_8794567.JPG
break,html.Screen,4_103_1,2023-09-13T16:00:50.930Z,,0,,,NaN,,,,,,false,,,,857133.0999999046,857132.7000002861,,857132.4000000954,,857134.496,8,400,,,
break_continue,html.Screen,4_103_2,2023-09-13T16:00:50.931Z,,0,,,NaN,,,,,,false,,,,857133.3000001907,857133.3000001907,,857133.0999999046,,857134.496,8,400,,,
sequence,flow.Sequence,4_103,2023-09-13T16:00:50.931Z,,0,,,6311.047000190709,completion,,,,,false,,,,857133.3000001907,857133.3000001907,850805.674,850810.3000001907,850822.253,857134.496,8,400,,,
trial,html.Screen,4_104_0,2023-09-13T16:00:58.596Z,,0,3,,7664.003999999957,response,ISIC_0026982.JPG,5,ISIC_2123159.JPG,ISIC_2123159.JPG,false,0,keypress(z),500,864798.7000002861,864798.5,857117.766,857133.4000000954,857134.496,864799.356,8,400,5,,ISIC_0026982.JPG
break,html.Screen,4_104_1,2023-09-13T16:00:58.596Z,,0,,,NaN,,,,,,false,,,,864799.0999999046,864799,,864798.8000001907,,864799.356,8,400,,,
break_continue,html.Screen,4_104_2,2023-09-13T16:00:58.597Z,,0,,,NaN,,,,,,false,,,,864799.3000001907,864799.2000002861,,864799.0999999046,,864799.356,8,400,,,
sequence,flow.Sequence,4_104,2023-09-13T16:00:58.597Z,,0,,,7664.704000286059,completion,,,,,false,,,,864799.4000000954,864799.2000002861,857117.766,857133.4000000954,857134.496,864799.356,8,400,,,
trial,html.Screen,4_105_0,2023-09-13T16:01:05.324Z,,0,3,,6727.044000095339,response,ISIC_1681964.JPG,5,ISIC_0027225.JPG,ISIC_1681964.JPG,false,1,keypress(m),500,871526.5,871526.4000000954,864782.673,864799.4000000954,864799.356,871529.128,8,400,6,,ISIC_0027225.JPG
break,html.Screen,4_105_1,2023-09-13T16:01:05.325Z,,0,,,NaN,,,,,,false,,,,871527.3000001907,871527.0999999046,,871526.8000001907,,871529.128,8,400,,,
break_continue,html.Screen,4_105_2,2023-09-13T16:01:05.325Z,,0,,,NaN,,,,,,false,,,,871527.8000001907,871527.7000002861,,871527.5,,871529.128,8,400,,,
sequence,flow.Sequence,4_105,2023-09-13T16:01:05.325Z,,0,,,6728.344000286073,completion,,,,,false,,,,871527.9000000954,871527.7000002861,864782.673,864799.4000000954,864799.356,871529.128,8,400,,,
trial,html.Screen,4_106_0,2023-09-13T16:01:10.879Z,,0,3,,5552.4719999046065,response,ISIC_0071913.JPG,5,ISIC_6566042.JPG,ISIC_6566042.JPG,false,0,keypress(z),500,877081.7000002861,877081.5999999046,871512.533,871528.0999999046,871529.128,877089.975,8,400,7,,ISIC_0071913.JPG
break,html.Screen,4_106_1,2023-09-13T16:01:10.880Z,,0,,,NaN,,,,,,false,,,,877082.3000001907,877082.0999999046,,877081.9000000954,,877089.975,8,400,,,
break_continue,html.Screen,4_106_2,2023-09-13T16:01:10.880Z,,0,,,NaN,,,,,,false,,,,877082.5999999046,877082.5,,877082.3000001907,,877089.975,8,400,,,
sequence,flow.Sequence,4_106,2023-09-13T16:01:10.880Z,,0,,,5553.371999999974,completion,,,,,false,,,,877082.7000002861,877082.5,871512.533,871528.0999999046,871529.128,877089.975,8,400,,,
trial,html.Screen,4_107_0,2023-09-13T16:01:16.370Z,,0,3,,5482.624999904656,response,ISIC_0553565.JPG,4,ISIC_0012057.JPG,ISIC_0553565.JPG,false,1,keypress(m),500,882572.9000000954,882572.5999999046,877073.36,877082.8000001907,877089.975,882584.057,8,400,8,,ISIC_0012057.JPG
break,html.Screen,4_107_1,2023-09-13T16:01:16.371Z,,0,,,NaN,,,,,,false,,,,882573.8000001907,882573.5,,882573.0999999046,,882584.057,8,400,,,
break_continue,html.Screen,4_107_2,2023-09-13T16:01:16.371Z,,0,,,NaN,,,,,,false,,,,882574.0999999046,882574,,882573.9000000954,,882584.057,8,400,,,
sequence,flow.Sequence,4_107,2023-09-13T16:01:16.372Z,,0,,,5484.025000000023,completion,,,,,false,,,,882574.3000001907,882574,877073.36,877082.8000001907,877089.975,882584.057,8,400,,,
trial,html.Screen,4_108_0,2023-09-13T16:01:21.381Z,,0,3,,4999.743000190705,response,ISIC_1330008.JPG,6,ISIC_9196033.JPG,ISIC_1330008.JPG,false,1,keypress(m),500,887583.9000000954,887583.8000001907,882567.259,882574.4000000954,882584.057,887593.745,8,400,9,,ISIC_9196033.JPG
break,html.Screen,4_108_1,2023-09-13T16:01:21.382Z,,0,,,NaN,,,,,,false,,,,887584.3000001907,887584.3000001907,,887584,,887593.745,8,400,,,
break_continue,html.Screen,4_108_2,2023-09-13T16:01:21.382Z,,0,,,NaN,,,,,,false,,,,887584.5,887584.4000000954,,887584.3000001907,,887593.745,8,400,,,
sequence,flow.Sequence,4_108,2023-09-13T16:01:21.382Z,,0,,,5000.343000095338,completion,,,,,false,,,,887584.5,887584.4000000954,882567.259,882574.4000000954,882584.057,887593.745,8,400,,,
trial,html.Screen,4_109_0,2023-09-13T16:01:27.355Z,,0,3,,5961.955000286107,response,ISIC_7642142.JPG,7,ISIC_3049506.JPG,ISIC_7642142.JPG,false,1,keypress(m),500,893555.8000001907,893555.7000002861,887577.026,887584.5999999046,887593.745,893572.207,8,400,10,,ISIC_3049506.JPG
break,html.Screen,4_109_1,2023-09-13T16:01:27.356Z,,0,,,NaN,,,,,,false,,,,893556.5,893556.2000002861,,893555.9000000954,,893572.207,8,400,,,
break_continue,html.Screen,4_109_2,2023-09-13T16:01:27.356Z,,0,,,NaN,,,,,,false,,,,893556.7000002861,893556.7000002861,,893556.5,,893572.207,8,400,,,
sequence,flow.Sequence,4_109,2023-09-13T16:01:27.356Z,,0,,,5962.955000286107,completion,,,,,false,,,,893556.9000000954,893556.7000002861,887577.026,887584.5,887593.745,893572.207,8,400,,,
trial,html.Screen,4_110_0,2023-09-13T16:01:31.678Z,,0,3,,4305.993000286049,response,ISIC_0046985.JPG,5,ISIC_0429825.JPG,ISIC_0046985.JPG,false,1,keypress(m),500,897878.4000000954,897878.2000002861,893555.434,893556.9000000954,893572.207,897880.45,8,400,11,,ISIC_0429825.JPG
break,html.Screen,4_110_1,2023-09-13T16:01:31.678Z,,0,,,NaN,,,,,,false,,,,897879.0999999046,897878.8000001907,,897878.5,,897880.45,8,400,,,
break_continue,html.Screen,4_110_2,2023-09-13T16:01:31.679Z,,0,,,NaN,,,,,,false,,,,897879.5,897879.4000000954,,897879.2000002861,,897880.45,8,400,,,
sequence,flow.Sequence,4_110,2023-09-13T16:01:31.679Z,,0,,,4307.193000095314,completion,,,,,false,,,,897879.5999999046,897879.4000000954,893555.434,893556.9000000954,893572.207,897880.45,8,400,,,
trial,html.Screen,4_111_0,2023-09-13T16:01:36.418Z,,0,3,,4737.649999904679,response,ISIC_5703909.JPG,6,ISIC_2928274.JPG,ISIC_2928274.JPG,false,0,keypress(z),500,902618.2000002861,902618.0999999046,897863.727,897879.7000002861,897880.45,902623.007,8,400,12,,ISIC_5703909.JPG
break,html.Screen,4_111_1,2023-09-13T16:01:36.418Z,,0,,,NaN,,,,,,false,,,,902618.7000002861,902618.5999999046,,902618.3000001907,,902623.007,8,400,,,
break_continue,html.Screen,4_111_2,2023-09-13T16:01:36.418Z,,0,,,NaN,,,,,,false,,,,902618.8000001907,902618.8000001907,,902618.7000002861,,902623.007,8,400,,,
sequence,flow.Sequence,4_111,2023-09-13T16:01:36.418Z,,0,,,4738.350000190781,completion,,,,,false,,,,902619,902618.8000001907,897863.727,897879.5999999046,897880.45,902623.007,8,400,,,
trial,html.Screen,4_112_0,2023-09-13T16:01:41.300Z,,0,3,,4877.493000000017,response,ISIC_9106966.JPG,5,ISIC_4811593.JPG,ISIC_4811593.JPG,false,0,keypress(z),500,907500.5999999046,907500.5,902606.394,902619.0999999046,902623.007,907515.812,8,400,13,,ISIC_9106966.JPG
break,html.Screen,4_112_1,2023-09-13T16:01:41.301Z,,0,,,NaN,,,,,,false,,,,907501.0999999046,907501,,907500.8000001907,,907515.812,8,400,,,
break_continue,html.Screen,4_112_2,2023-09-13T16:01:41.301Z,,0,,,NaN,,,,,,false,,,,907501.3000001907,907501.2000002861,,907501.2000002861,,907515.812,8,400,,,
sequence,flow.Sequence,4_112,2023-09-13T16:01:41.301Z,,0,,,4878.193000286119,completion,,,,,false,,,,907501.4000000954,907501.2000002861,902606.394,902619.0999999046,902623.007,907515.812,8,400,,,
trial,html.Screen,4_113_0,2023-09-13T16:01:46.887Z,,0,3,,5571.1879999999655,response,ISIC_4314089.JPG,5,ISIC_1589997.JPG,ISIC_4314089.JPG,false,1,keypress(m),500,913087.2000002861,913087,907499.16,907501.5,907515.812,913093.437,8,400,14,,ISIC_1589997.JPG
break,html.Screen,4_113_1,2023-09-13T16:01:46.887Z,,0,,,NaN,,,,,,false,,,,913087.5999999046,913087.5,,913087.3000001907,,913093.437,8,400,,,
break_continue,html.Screen,4_113_2,2023-09-13T16:01:46.887Z,,0,,,NaN,,,,,,false,,,,913087.7000002861,913087.7000002861,,913087.5999999046,,913093.437,8,400,,,
sequence,flow.Sequence,4_113,2023-09-13T16:01:46.887Z,,0,,,5571.888000286068,completion,,,,,false,,,,913087.8000001907,913087.7000002861,907499.16,907501.4000000954,907515.812,913093.437,8,400,,,
trial,html.Screen,4_114_0,2023-09-13T16:01:53.672Z,,0,3,,6779.0629999999655,response,ISIC_0006327.JPG,4,ISIC_5895384.JPG,ISIC_0006327.JPG,false,1,keypress(m),500,919872.7000002861,919872.5,913076.637,913087.9000000954,913093.437,919889.941,8,400,15,,ISIC_5895384.JPG
break,html.Screen,4_114_1,2023-09-13T16:01:53.673Z,,0,,,NaN,,,,,,false,,,,919873.7000002861,919873.4000000954,,919872.9000000954,,919889.941,8,400,,,
break_continue,html.Screen,4_114_2,2023-09-13T16:01:53.673Z,,0,,,NaN,,,,,,false,,,,919874.0999999046,919874,,919873.8000001907,,919889.941,8,400,,,
sequence,flow.Sequence,4_114,2023-09-13T16:01:53.674Z,,0,,,6780.5629999999655,completion,,,,,false,,,,919874.2000002861,919874,913076.637,913087.9000000954,913093.437,919889.941,8,400,,,
trial,html.Screen,4_115_0,2023-09-13T16:01:59.500Z,,0,3,,5810.959000095376,response,ISIC_0053763.JPG,6,ISIC_0033967.JPG,ISIC_0033967.JPG,false,0,keypress(z),500,925701.0999999046,925700.9000000954,919873.245,919874.3000001907,919889.941,925717.929,8,400,16,,ISIC_0053763.JPG
break,html.Screen,4_115_1,2023-09-13T16:01:59.502Z,,0,,,NaN,,,,,,false,,,,925702.0999999046,925701.7000002861,,925701.3000001907,,925717.929,8,400,,,
break_continue,html.Screen,4_115_2,2023-09-13T16:01:59.502Z,,0,,,NaN,,,,,,false,,,,925702.5999999046,925702.4000000954,,925702.2000002861,,925717.929,8,400,,,
sequence,flow.Sequence,4_115,2023-09-13T16:01:59.502Z,,0,,,5812.459000095376,completion,,,,,false,,,,925702.8000001907,925702.4000000954,919873.245,919874.3000001907,919889.941,925717.929,8,400,,,
trial,html.Screen,4_116_0,2023-09-13T16:02:06.112Z,,0,3,,6594.670999904629,response,ISIC_5822017.JPG,5,ISIC_8382969.JPG,ISIC_8382969.JPG,false,0,keypress(z),500,932312.7000002861,932312.5999999046,925701.39,925702.8000001907,925717.929,932314.119,8,400,17,,ISIC_5822017.JPG
break,html.Screen,4_116_1,2023-09-13T16:02:06.113Z,,0,,,NaN,,,,,,false,,,,932313.3000001907,932313.0999999046,,932312.8000001907,,932314.119,8,400,,,
break_continue,html.Screen,4_116_2,2023-09-13T16:02:06.113Z,,0,,,NaN,,,,,,false,,,,932313.5999999046,932313.5999999046,,932313.5,,932314.119,8,400,,,
sequence,flow.Sequence,4_116,2023-09-13T16:02:06.113Z,,0,,,6595.670999904629,completion,,,,,false,,,,932313.7000002861,932313.5999999046,925701.39,925702.8000001907,925717.929,932314.119,8,400,,,
trial,html.Screen,4_117_0,2023-09-13T16:02:11.061Z,,0,3,,4947.78100009542,response,ISIC_0066200.JPG,6,ISIC_0063664.JPG,ISIC_0063664.JPG,false,0,keypress(z),500,937262.0999999046,937261.9000000954,932297.488,932313.8000001907,932314.119,937273.756,8,400,18,,ISIC_0066200.JPG
break,html.Screen,4_117_1,2023-09-13T16:02:11.062Z,,0,,,NaN,,,,,,false,,,,937262.8000001907,937262.5999999046,,937262.2000002861,,937273.756,8,400,,,
break_continue,html.Screen,4_117_2,2023-09-13T16:02:11.062Z,,0,,,NaN,,,,,,false,,,,937263,937262.9000000954,,937262.8000001907,,937273.756,8,400,,,
sequence,flow.Sequence,4_117,2023-09-13T16:02:11.062Z,,0,,,4948.78100009542,completion,,,,,false,,,,937263,937262.9000000954,932297.488,932313.8000001907,932314.119,937273.756,8,400,,,
trial,html.Screen,4_118_0,2023-09-13T16:02:15.708Z,,0,3,,4634.94400028605,response,ISIC_0029459.JPG,5,ISIC_6119208.JPG,ISIC_6119208.JPG,false,0,keypress(z),500,941908.8000001907,941908.7000002861,937257.041,937263.0999999046,937273.756,941916.124,8,400,19,,ISIC_0029459.JPG
break,html.Screen,4_118_1,2023-09-13T16:02:15.709Z,,0,,,NaN,,,,,,false,,,,941909.3000001907,941909.0999999046,,941908.8000001907,,941916.124,8,400,,,
break_continue,html.Screen,4_118_2,2023-09-13T16:02:15.709Z,,0,,,NaN,,,,,,false,,,,941909.5999999046,941909.4000000954,,941909.4000000954,,941916.124,8,400,,,
sequence,flow.Sequence,4_118,2023-09-13T16:02:15.709Z,,0,,,4635.644000095315,completion,,,,,false,,,,941909.7000002861,941909.4000000954,937257.041,937263.0999999046,937273.756,941916.124,8,400,,,
trial,html.Screen,4_119_0,2023-09-13T16:02:22.769Z,,0,3,,7051.47599990468,response,ISIC_0064979.JPG,5,ISIC_4208361.JPG,ISIC_4208361.JPG,false,0,keypress(z),500,948967.9000000954,948967.5999999046,941899.413,941909.8000001907,941916.124,948979.958,8,400,20,,ISIC_0064979.JPG
break,html.Screen,4_119_1,2023-09-13T16:02:22.771Z,,0,,,NaN,,,,,,false,,,,948970,948969.4000000954,,948968.4000000954,,948979.958,8,400,,,
break_continue,html.Screen,4_119_2,2023-09-13T16:02:22.772Z,,0,,,NaN,,,,,,false,,,,948971.2000002861,948970.9000000954,,948970.4000000954,,948979.958,8,400,,,
sequence,flow.Sequence,4_119,2023-09-13T16:02:22.773Z,,0,,,7054.776000095415,completion,,,,,false,,,,948972,948970.9000000954,941899.413,941909.8000001907,941916.124,948979.958,8,400,,,
trial,html.Screen,4_120_0,2023-09-13T16:02:28.984Z,,0,3,,6202.742000286118,response,ISIC_0006744.JPG,5,ISIC_7008969.JPG,ISIC_0006744.JPG,false,1,keypress(m),500,955182.8000001907,955182.7000002861,948963.203,948972.2000002861,948979.958,955191.963,8,400,21,,ISIC_7008969.JPG
break,html.Screen,4_120_1,2023-09-13T16:02:28.984Z,,0,,,NaN,,,,,,false,,,,955183.3000001907,955183.2000002861,,955182.9000000954,,955191.963,8,400,,,
break_continue,html.Screen,4_120_2,2023-09-13T16:02:28.984Z,,0,,,NaN,,,,,,false,,,,955183.4000000954,955183.4000000954,,955183.3000001907,,955191.963,8,400,,,
sequence,flow.Sequence,4_120,2023-09-13T16:02:28.984Z,,0,,,6203.442000095383,completion,,,,,false,,,,955183.5,955183.4000000954,948963.203,948972.2000002861,948979.958,955191.963,8,400,,,
trial,html.Screen,4_121_0,2023-09-13T16:02:36.443Z,,0,3,,7449.7370002861135,response,ISIC_0011780.JPG,4,ISIC_0013777.JPG,ISIC_0013777.JPG,false,0,keypress(z),500,962642.0999999046,962641.7000002861,955175.324,955183.5,955191.963,962656.476,8,400,22,,ISIC_0011780.JPG
break,html.Screen,4_121_1,2023-09-13T16:02:36.445Z,,0,,,NaN,,,,,,false,,,,962643.9000000954,962643.4000000954,,962642.5999999046,,962656.476,8,400,,,
break_continue,html.Screen,4_121_2,2023-09-13T16:02:36.446Z,,0,,,NaN,,,,,,false,,,,962644.8000001907,962644.5,,962644.2000002861,,962656.476,8,400,,,
sequence,flow.Sequence,4_121,2023-09-13T16:02:36.446Z,,0,,,7452.537000000011,completion,,,,,false,,,,962645.0999999046,962644.5,955175.324,955183.5,955191.963,962656.476,8,400,,,
trial,html.Screen,4_122_0,2023-09-13T16:02:42.513Z,,0,3,,6055.224000286078,response,ISIC_0012055.JPG,6,ISIC_7044184.JPG,ISIC_7044184.JPG,false,0,keypress(z),500,968711.8000001907,968711.7000002861,962639.845,962645.4000000954,962656.476,968718.393,8,400,23,,ISIC_0012055.JPG
break,html.Screen,4_122_1,2023-09-13T16:02:42.513Z,,0,,,NaN,,,,,,false,,,,968712.5,968712.2000002861,,968712,,968718.393,8,400,,,
break_continue,html.Screen,4_122_2,2023-09-13T16:02:42.514Z,,0,,,NaN,,,,,,false,,,,968712.7000002861,968712.7000002861,,968712.5,,968718.393,8,400,,,
sequence,flow.Sequence,4_122,2023-09-13T16:02:42.514Z,,0,,,6056.224000286078,completion,,,,,false,,,,968712.8000001907,968712.7000002861,962639.845,962645.4000000954,962656.476,968718.393,8,400,,,
trial,html.Screen,4_123_0,2023-09-13T16:02:49.315Z,,0,3,,6796.10699999996,response,ISIC_0501843.JPG,6,ISIC_0002900.JPG,ISIC_0501843.JPG,false,1,keypress(m),500,975514.5999999046,975514.5,968701.578,968712.9000000954,968718.393,975531.588,8,400,24,,ISIC_0002900.JPG
break,html.Screen,4_123_1,2023-09-13T16:02:49.317Z,,0,,,NaN,,,,,,false,,,,975515.8000001907,975515.5,,975514.8000001907,,975531.588,8,400,,,
break_continue,html.Screen,4_123_2,2023-09-13T16:02:49.317Z,,0,,,NaN,,,,,,false,,,,975516.2000002861,975516.0999999046,,975516,,975531.588,8,400,,,
sequence,flow.Sequence,4_123,2023-09-13T16:02:49.317Z,,0,,,6797.7069999045925,completion,,,,,false,,,,975516.4000000954,975516.0999999046,968701.578,968712.8000001907,968718.393,975531.588,8,400,,,
trial,html.Screen,4_124_0,2023-09-13T16:02:57.355Z,,0,3,,8022.312000095379,response,ISIC_0032862.JPG,5,ISIC_0015109.JPG,ISIC_0032862.JPG,false,1,keypress(m),500,983554,983553.9000000954,975514.899,975516.5,975531.588,983563.818,8,400,25,,ISIC_0015109.JPG
break,html.Screen,4_124_1,2023-09-13T16:02:57.355Z,,0,,,NaN,,,,,,false,,,,983554.4000000954,983554.3000001907,,983554.0999999046,,983563.818,8,400,,,
break_continue,html.Screen,4_124_2,2023-09-13T16:02:57.355Z,,0,,,NaN,,,,,,false,,,,983554.5999999046,983554.5999999046,,983554.5,,983563.818,8,400,,,
sequence,flow.Sequence,4_124,2023-09-13T16:02:57.355Z,,0,,,8023.011999904644,completion,,,,,false,,,,983554.5999999046,983554.5999999046,975514.899,975516.5,975531.588,983563.818,8,400,,,
trial,html.Screen,4_125_0,2023-09-13T16:03:02.196Z,,0,3,,4831.781999904662,response,ISIC_0056749.JPG,5,ISIC_2316159.JPG,ISIC_2316159.JPG,false,0,keypress(z),500,988395.7000002861,988395.5999999046,983547.12,983554.7000002861,983563.818,988406.604,8,400,26,,ISIC_0056749.JPG
break,html.Screen,4_125_1,2023-09-13T16:03:02.197Z,,0,,,NaN,,,,,,false,,,,988396.0999999046,988396,,988395.8000001907,,988406.604,8,400,,,
break_continue,html.Screen,4_125_2,2023-09-13T16:03:02.197Z,,0,,,NaN,,,,,,false,,,,988396.4000000954,988396.3000001907,,988396.2000002861,,988406.604,8,400,,,
sequence,flow.Sequence,4_125,2023-09-13T16:03:02.197Z,,0,,,4832.482000190765,completion,,,,,false,,,,988396.5,988396.3000001907,983547.12,983554.7000002861,983563.818,988406.604,8,400,,,
trial,html.Screen,4_126_0,2023-09-13T16:03:07.336Z,,0,3,,5128.89599999995,response,ISIC_4263521.JPG,5,ISIC_3637551.JPG,ISIC_3637551.JPG,false,0,keypress(z),500,993535.7000002861,993535.5,988389.97,988396.5999999046,988406.604,993566.723,8,400,27,,ISIC_4263521.JPG
