sender,sender_type,sender_id,timestamp,meta,,blockNo,condition,duration,ended_on,img_left,img_reveal,img_right,loser,practice,response,response_action,selection_duration,time_commit,time_end,time_render,time_run,time_show,time_switch,total_blocks,total_trials,trialNo,url,winner
informed_consent,html.Screen,0,2023-09-11T20:04:22.907Z,"{""labjs_version"":""20.2.4"",""labjs_build"":{""flavor"":""development"",""commit"":""f5b4a49f956347addd546a832a3327688c2c0fef""},""location"":""https://labjs.felixhenninger.com/api/labjs_preview/index.html"",""userAgent"":""Mozilla/5.0 (Windows NT 10.0; Win64; x64) AppleWebKit/537.36 (KHTML, like Gecko) Chrome/116.0.0.0 Safari/537.36"",""platform"":""Win32"",""language"":""en-AU"",""locale"":""en-US"",""timeZone"":""America/Chicago"",""timezoneOffset"":300,""screen_width"":1680,""screen_height"":1050,""scroll_width"":1296,""scroll_height"":688,""window_innerWidth"":1296,""window_innerHeight"":736,""devicePixelRatio"":1}",,,,5317.534000095367,response,,,,,,consent,click button,,5918.400000095367,5917.400000095367,583.174,591.5,599.866,5926.921,,,,{},
Welcome,html.Screen,1,2023-09-11T20:04:23.340Z,,,,uniform,424.27899980926486,response,,,,,,continue,click button,,6351.799999713898,6351.199999809265,5910.292,5918.699999809265,5926.921,6361.144,,,,,
trial,html.Screen,2_0_0,2023-09-11T20:04:34.839Z,,0,0,,11522.528999999999,timeout,ISIC_0025593.JPG,,ISIC_0063388.JPG,,true,,,500,17850.599999904633,17850.400000095367,6344.363,6351.900000095367,6361.144,17883.673,1,6,1,,
sequence,flow.Sequence,2_0,2023-09-11T20:04:34.839Z,,0,,,11489.256000095367,completion,,,,,true,,,,17850.799999713898,17850.400000095367,6344.363,6351.900000095367,6361.144,17883.673,1,6,,,
trial,html.Screen,2_1_0,2023-09-11T20:04:46.361Z,,0,0,,11522.324,timeout,ISIC_0028178.JPG,,ISIC_1309015.JPG,,true,,,500,29373,29372.799999713898,17866.854,17850.900000095367,17883.673,29405.997,1,6,2,,
sequence,flow.Sequence,2_1,2023-09-11T20:04:46.361Z,,0,,,11489.126999713899,completion,,,,,true,,,,29373.099999904633,29372.799999713898,17866.854,17850.799999713898,17883.673,29405.997,1,6,,,
trial,html.Screen,2_2_0,2023-09-11T20:04:57.884Z,,0,0,,11522.346999999998,timeout,ISIC_0031128.JPG,,ISIC_3314853.JPG,,true,,,500,40895.2999997139,40895.199999809265,29389.219,29373.099999904633,29405.997,40928.344,1,6,3,,
sequence,flow.Sequence,2_2,2023-09-11T20:04:57.884Z,,0,,,11489.202999809266,completion,,,,,true,,,,40895.59999990463,40895.199999809265,29389.219,29373.099999904633,29405.997,40928.344,1,6,,,
trial,html.Screen,2_3_0,2023-09-11T20:05:09.407Z,,0,0,,11522.632000000005,timeout,ISIC_8980141.JPG,,ISIC_0031612.JPG,,true,,,500,52417.7999997139,52417.699999809265,40911.706,40895.7999997139,40928.344,52450.976,1,6,4,,
sequence,flow.Sequence,2_3,2023-09-11T20:05:09.407Z,,0,,,11489.355999809268,completion,,,,,true,,,,52418,52417.699999809265,40911.706,40895.7999997139,40928.344,52450.976,1,6,,,
trial,html.Screen,2_4_0,2023-09-11T20:05:16.577Z,,0,0,,7136.723999809263,response,ISIC_1197737.JPG,,ISIC_9721604.JPG,ISIC_1197737.JPG,true,1,keypress(m),500,59588,59587.699999809265,52434.033,52418.09999990463,52450.976,59598.061,1,6,5,,ISIC_9721604.JPG
sequence,flow.Sequence,2_4,2023-09-11T20:05:16.578Z,,0,,,7136.723999809263,completion,,,,,true,,,,59588.09999990463,59587.699999809265,52434.033,52418,52450.976,59598.061,1,6,,,
trial,html.Screen,2_5_0,2023-09-11T20:05:28.077Z,,0,0,,11522.375,timeout,ISIC_0025346.JPG,,ISIC_0010681.JPG,,true,,,500,71087.59999990463,71087.5,59581.333,59588.199999809265,59598.061,71120.436,1,6,6,,
sequence,flow.Sequence,2_5,2023-09-11T20:05:28.077Z,,0,,,11489.438999999998,completion,,,,,true,,,,71087.7999997139,71087.5,59581.333,59588.199999809265,59598.061,71120.436,1,6,,,
loop,flow.Loop,2,2023-09-11T20:05:28.077Z,,,,,64726.356,completion,,,,,true,,,,71087.7999997139,71087.5,6344.363,6351.900000095367,6361.144,71120.436,1,6,,,
exp_instructions,html.Screen,3,2023-09-11T20:33:27.749Z,,,,,1679616.7639998093,response,,,,,,continue,keypress(Space),,1750737.9000000954,1750737.1999998093,71103.974,71088,71120.436,1750755.688,,,,,
trial,html.Screen,4_0_0,2023-09-11T20:33:37.273Z,,0,1,,9506.811999999918,response,ISIC_0919467.JPG,5,ISIC_9529971.JPG,ISIC_9529971.JPG,false,0,keypress(z),500,1760262.5,1760262.5,1750739.004,1750738.299999714,1750755.688,1760274.274,8,400,1,,ISIC_0919467.JPG
break,html.Screen,4_0_1,2023-09-11T20:33:37.274Z,,0,,,NaN,,,,,,false,,,,1760263.4000000954,1760263.1999998093,,1760262.6999998093,,1760274.274,8,400,,,
break_continue,html.Screen,4_0_2,2023-09-11T20:33:37.275Z,,0,,,NaN,,,,,,false,,,,1760263.799999714,1760263.6999998093,,1760263.5999999046,,1760274.274,8,400,,,
sequence,flow.Sequence,4_0,2023-09-11T20:33:37.275Z,,0,,,9508.011999809183,completion,,,,,false,,,,1760263.9000000954,1760263.6999998093,1750739.004,1750738.1999998093,1750755.688,1760274.274,8,400,,,
trial,html.Screen,4_1_0,2023-09-11T20:33:46.404Z,,0,1,,9118.525999713922,response,ISIC_4191202.JPG,5,ISIC_0054673.JPG,ISIC_0054673.JPG,false,0,keypress(z),500,1769392.9000000954,1769392.799999714,1760257.673,1760264,1760274.274,1769408.617,8,400,2,,ISIC_4191202.JPG
break,html.Screen,4_1_1,2023-09-11T20:33:46.404Z,,0,,,NaN,,,,,,false,,,,1769393.4000000954,1769393.299999714,,1769393,,1769408.617,8,400,,,
break_continue,html.Screen,4_1_2,2023-09-11T20:33:46.404Z,,0,,,NaN,,,,,,false,,,,1769393.6999998093,1769393.5999999046,,1769393.5,,1769408.617,8,400,,,
sequence,flow.Sequence,4_1,2023-09-11T20:33:46.405Z,,0,,,9119.325999904657,completion,,,,,false,,,,1769393.799999714,1769393.5999999046,1760257.673,1760264,1760274.274,1769408.617,8,400,,,
trial,html.Screen,4_2_0,2023-09-11T20:33:53.672Z,,0,1,,7252.283000095282,response,ISIC_3087402.JPG,6,ISIC_9334956.JPG,ISIC_9334956.JPG,false,0,keypress(z),500,1776661,1776660.9000000954,1769392.112,1769393.9000000954,1769408.617,1776689.482,8,400,3,,ISIC_3087402.JPG
break,html.Screen,4_2_1,2023-09-11T20:33:53.672Z,,0,,,NaN,,,,,,false,,,,1776661.5,1776661.4000000954,,1776661.0999999046,,1776689.482,8,400,,,
break_continue,html.Screen,4_2_2,2023-09-11T20:33:53.672Z,,0,,,NaN,,,,,,false,,,,1776661.6999998093,1776661.5999999046,,1776661.5,,1776689.482,8,400,,,
sequence,flow.Sequence,4_2,2023-09-11T20:33:53.672Z,,0,,,7252.982999904547,completion,,,,,false,,,,1776661.799999714,1776661.5999999046,1769392.112,1769393.799999714,1769408.617,1776689.482,8,400,,,
trial,html.Screen,4_3_0,2023-09-11T20:34:03.197Z,,0,1,,9496.817999713821,response,ISIC_4958006.JPG,5,ISIC_0024806.JPG,ISIC_0024806.JPG,false,0,keypress(z),500,1786186.4000000954,1786186.299999714,1776672.846,1776661.799999714,1776689.482,1786191.304,8,400,4,,ISIC_4958006.JPG
break,html.Screen,4_3_1,2023-09-11T20:34:03.198Z,,0,,,NaN,,,,,,false,,,,1786186.9000000954,1786186.6999998093,,1786186.5,,1786191.304,8,400,,,
break_continue,html.Screen,4_3_2,2023-09-11T20:34:03.198Z,,0,,,NaN,,,,,,false,,,,1786187,1786186.9000000954,,1786186.9000000954,,1786191.304,8,400,,,
sequence,flow.Sequence,4_3,2023-09-11T20:34:03.198Z,,0,,,9497.418000095291,completion,,,,,false,,,,1786187.0999999046,1786186.9000000954,1776672.846,1776661.799999714,1776689.482,1786191.304,8,400,,,
trial,html.Screen,4_4_0,2023-09-11T20:34:10.432Z,,0,1,,7229.495999713894,response,ISIC_0046361.JPG,5,ISIC_4803943.JPG,ISIC_0046361.JPG,false,1,keypress(m),500,1793421.0999999046,1793420.799999714,1786174.586,1786187.0999999046,1786191.304,1793422.007,8,400,5,,ISIC_4803943.JPG
break,html.Screen,4_4_1,2023-09-11T20:34:10.432Z,,0,,,NaN,,,,,,false,,,,1793421.5999999046,1793421.4000000954,,1793421.0999999046,,1793422.007,8,400,,,
break_continue,html.Screen,4_4_2,2023-09-11T20:34:10.432Z,,0,,,NaN,,,,,,false,,,,1793421.799999714,1793421.6999998093,,1793421.5999999046,,1793422.007,8,400,,,
sequence,flow.Sequence,4_4,2023-09-11T20:34:10.433Z,,0,,,7230.395999809261,completion,,,,,false,,,,1793421.799999714,1793421.6999998093,1786174.586,1786187.0999999046,1786191.304,1793422.007,8,400,,,
trial,html.Screen,4_5_0,2023-09-11T20:34:18.584Z,,0,1,,8151.493000000017,response,ISIC_6752060.JPG,5,ISIC_4070687.JPG,ISIC_6752060.JPG,false,1,keypress(m),500,1801573.5999999046,1801573.5,1793405.348,1793421.9000000954,1793422.007,1801604.603,8,400,6,,ISIC_4070687.JPG
break,html.Screen,4_5_1,2023-09-11T20:34:18.585Z,,0,,,NaN,,,,,,false,,,,1801574.0999999046,1801574,,1801573.6999998093,,1801604.603,8,400,,,
break_continue,html.Screen,4_5_2,2023-09-11T20:34:18.585Z,,0,,,NaN,,,,,,false,,,,1801574.1999998093,1801574.1999998093,,1801574.0999999046,,1801604.603,8,400,,,
sequence,flow.Sequence,4_5,2023-09-11T20:34:18.585Z,,0,,,8152.192999809282,completion,,,,,false,,,,1801574.299999714,1801574.1999998093,1793405.348,1793421.9000000954,1793422.007,1801604.603,8,400,,,
trial,html.Screen,4_6_0,2023-09-11T20:34:24.683Z,,0,1,,6066.496999904746,response,ISIC_0031365.JPG,6,ISIC_5559730.JPG,ISIC_0031365.JPG,false,1,keypress(m),500,1807671.299999714,1807671.0999999046,1801587.943,1801574.299999714,1801604.603,1807683.212,8,400,7,,ISIC_5559730.JPG
break,html.Screen,4_6_1,2023-09-11T20:34:24.684Z,,0,,,NaN,,,,,,false,,,,1807672,1807671.6999998093,,1807671.4000000954,,1807683.212,8,400,,,
break_continue,html.Screen,4_6_2,2023-09-11T20:34:24.684Z,,0,,,NaN,,,,,,false,,,,1807672.299999714,1807672.1999998093,,1807672.0999999046,,1807683.212,8,400,,,
sequence,flow.Sequence,4_6,2023-09-11T20:34:24.684Z,,0,,,6067.596999809379,completion,,,,,false,,,,1807672.4000000954,1807672.1999998093,1801587.943,1801574.299999714,1801604.603,1807683.212,8,400,,,
trial,html.Screen,4_7_0,2023-09-11T20:34:34.373Z,,0,1,,9677.58799971384,response,ISIC_4103653.JPG,5,ISIC_0062712.JPG,ISIC_0062712.JPG,false,0,keypress(z),500,1817361.0999999046,1817360.799999714,1807666.583,1807672.5,1807683.212,1817368.666,8,400,8,,ISIC_4103653.JPG
break,html.Screen,4_7_1,2023-09-11T20:34:34.376Z,,0,,,NaN,,,,,,false,,,,1817364.0999999046,1817362.9000000954,,1817361.5999999046,,1817368.666,8,400,,,
break_continue,html.Screen,4_7_2,2023-09-11T20:34:34.377Z,,0,,,NaN,,,,,,false,,,,1817365.1999998093,1817364.9000000954,,1817364.5999999046,,1817368.666,8,400,,,
sequence,flow.Sequence,4_7,2023-09-11T20:34:34.377Z,,0,,,9681.68800009531,completion,,,,,false,,,,1817365.5,1817364.9000000954,1807666.583,1807672.5,1807683.212,1817368.666,8,400,,,
trial,html.Screen,4_8_0,2023-09-11T20:34:39.745Z,,0,1,,5365.033999809297,response,ISIC_5301938.JPG,6,ISIC_5238649.JPG,ISIC_5301938.JPG,false,1,keypress(m),500,1822733.799999714,1822733.6999998093,1817352.007,1817365.6999998093,1817368.666,1822745.841,8,400,9,,ISIC_5238649.JPG
break,html.Screen,4_8_1,2023-09-11T20:34:39.746Z,,0,,,NaN,,,,,,false,,,,1822734.299999714,1822734.0999999046,,1822734,,1822745.841,8,400,,,
break_continue,html.Screen,4_8_2,2023-09-11T20:34:39.746Z,,0,,,NaN,,,,,,false,,,,1822734.5,1822734.4000000954,,1822734.4000000954,,1822745.841,8,400,,,
sequence,flow.Sequence,4_8,2023-09-11T20:34:39.746Z,,0,,,5365.734000095399,completion,,,,,false,,,,1822734.5999999046,1822734.4000000954,1817352.007,1817365.5999999046,1817368.666,1822745.841,8,400,,,
trial,html.Screen,4_9_0,2023-09-11T20:34:44.677Z,,0,1,,4919.758999904618,response,ISIC_3623368.JPG,5,ISIC_5490257.JPG,ISIC_5490257.JPG,false,0,keypress(z),500,1827665.799999714,1827665.5999999046,1822729.066,1822734.5999999046,1822745.841,1827672.037,8,400,10,,ISIC_3623368.JPG
break,html.Screen,4_9_1,2023-09-11T20:34:44.678Z,,0,,,NaN,,,,,,false,,,,1827666.799999714,1827666.5,,1827666,,1827672.037,8,400,,,
break_continue,html.Screen,4_9_2,2023-09-11T20:34:44.679Z,,0,,,NaN,,,,,,false,,,,1827667.1999998093,1827667,,1827666.799999714,,1827672.037,8,400,,,
sequence,flow.Sequence,4_9,2023-09-11T20:34:44.679Z,,0,,,4921.158999999985,completion,,,,,false,,,,1827667.299999714,1827667,1822729.066,1822734.5999999046,1822745.841,1827672.037,8,400,,,
trial,html.Screen,4_10_0,2023-09-11T20:34:53.225Z,,0,1,,8541.262999713887,response,ISIC_0013427.JPG,5,ISIC_6915759.JPG,ISIC_0013427.JPG,false,1,keypress(m),500,1836213.5,1836213.299999714,1827655.469,1827667.4000000954,1827672.037,1836222.154,8,400,11,,ISIC_6915759.JPG
break,html.Screen,4_10_1,2023-09-11T20:34:53.226Z,,0,,,NaN,,,,,,false,,,,1836214.0999999046,1836213.9000000954,,1836213.5999999046,,1836222.154,8,400,,,
break_continue,html.Screen,4_10_2,2023-09-11T20:34:53.226Z,,0,,,NaN,,,,,,false,,,,1836214.5,1836214.4000000954,,1836214.1999998093,,1836222.154,8,400,,,
sequence,flow.Sequence,4_10,2023-09-11T20:34:53.226Z,,0,,,8542.363000095356,completion,,,,,false,,,,1836214.5,1836214.4000000954,1827655.469,1827667.4000000954,1827672.037,1836222.154,8,400,,,
trial,html.Screen,4_11_0,2023-09-11T20:34:59.893Z,,0,1,,6658.445999904536,response,ISIC_0062223.JPG,5,ISIC_7168122.JPG,ISIC_0062223.JPG,false,1,keypress(m),500,1842880.9000000954,1842880.5999999046,1836205.294,1836214.6999998093,1836222.154,1842885.016,8,400,12,,ISIC_7168122.JPG
break,html.Screen,4_11_1,2023-09-11T20:34:59.894Z,,0,,,NaN,,,,,,false,,,,1842882,1842881.799999714,,1842881.1999998093,,1842885.016,8,400,,,
break_continue,html.Screen,4_11_2,2023-09-11T20:34:59.894Z,,0,,,NaN,,,,,,false,,,,1842882.5,1842882.4000000954,,1842882.1999998093,,1842885.016,8,400,,,
sequence,flow.Sequence,4_11,2023-09-11T20:34:59.894Z,,0,,,6660.246000095271,completion,,,,,false,,,,1842882.6999998093,1842882.4000000954,1836205.294,1836214.5999999046,1836222.154,1842885.016,8,400,,,
trial,html.Screen,4_12_0,2023-09-11T20:35:04.680Z,,0,1,,4783.083999904571,response,ISIC_0005377.JPG,5,ISIC_0011956.JPG,ISIC_0011956.JPG,false,0,keypress(z),500,1847668.4000000954,1847668.0999999046,1842868.334,1842882.799999714,1842885.016,1847694.31,8,400,13,,ISIC_0005377.JPG
break,html.Screen,4_12_1,2023-09-11T20:35:04.682Z,,0,,,NaN,,,,,,false,,,,1847669.9000000954,1847669.5,,1847668.799999714,,1847694.31,8,400,,,
break_continue,html.Screen,4_12_2,2023-09-11T20:35:04.682Z,,0,,,NaN,,,,,,false,,,,1847670.6999998093,1847670.4000000954,,1847670.0999999046,,1847694.31,8,400,,,
sequence,flow.Sequence,4_12,2023-09-11T20:35:04.683Z,,0,,,4785.384000095306,completion,,,,,false,,,,1847671.0999999046,1847670.4000000954,1842868.334,1842882.799999714,1842885.016,1847694.31,8,400,,,
trial,html.Screen,4_13_0,2023-09-11T20:35:07.967Z,,0,1,,3260.689999999944,response,ISIC_9726155.JPG,4,ISIC_4798962.JPG,ISIC_4798962.JPG,false,0,keypress(z),500,1850955.0999999046,1850955,1847677.675,1847671.4000000954,1847694.31,1850967.517,8,400,14,,ISIC_9726155.JPG
break,html.Screen,4_13_1,2023-09-11T20:35:07.967Z,,0,,,NaN,,,,,,false,,,,1850955.9000000954,1850955.5,,1850955.299999714,,1850967.517,8,400,,,
break_continue,html.Screen,4_13_2,2023-09-11T20:35:07.968Z,,0,,,NaN,,,,,,false,,,,1850956.0999999046,1850956.0999999046,,1850956,,1850967.517,8,400,,,
sequence,flow.Sequence,4_13,2023-09-11T20:35:07.968Z,,0,,,3261.7899999045767,completion,,,,,false,,,,1850956.1999998093,1850956.0999999046,1847677.675,1847671.299999714,1847694.31,1850967.517,8,400,,,
trial,html.Screen,4_14_0,2023-09-11T20:35:11.143Z,,0,1,,3163.58299990464,response,ISIC_0014694.JPG,5,ISIC_0009911.JPG,ISIC_0014694.JPG,false,1,keypress(m),500,1854131.1999998093,1854131.0999999046,1850950.746,1850956.299999714,1850967.517,1854140.216,8,400,15,,ISIC_0009911.JPG
break,html.Screen,4_14_1,2023-09-11T20:35:11.143Z,,0,,,NaN,,,,,,false,,,,1854131.5999999046,1854131.5999999046,,1854131.4000000954,,1854140.216,8,400,,,
break_continue,html.Screen,4_14_2,2023-09-11T20:35:11.143Z,,0,,,NaN,,,,,,false,,,,1854131.9000000954,1854131.799999714,,1854131.799999714,,1854140.216,8,400,,,
sequence,flow.Sequence,4_14,2023-09-11T20:35:11.144Z,,0,,,3164.282999713905,completion,,,,,false,,,,1854131.9000000954,1854131.799999714,1850950.746,1850956.299999714,1850967.517,1854140.216,8,400,,,
trial,html.Screen,4_15_0,2023-09-11T20:35:14.334Z,,0,1,,3181.6840000953525,response,ISIC_7919133.JPG,5,ISIC_1608524.JPG,ISIC_1608524.JPG,false,0,keypress(z),500,1857322.0999999046,1857321.9000000954,1854123.505,1854131.9000000954,1854140.216,1857329.727,8,400,16,,ISIC_7919133.JPG
break,html.Screen,4_15_1,2023-09-11T20:35:14.334Z,,0,,,NaN,,,,,,false,,,,1857322.5999999046,1857322.5,,1857322.299999714,,1857329.727,8,400,,,
break_continue,html.Screen,4_15_2,2023-09-11T20:35:14.334Z,,0,,,NaN,,,,,,false,,,,1857322.9000000954,1857322.9000000954,,1857322.6999998093,,1857329.727,8,400,,,
sequence,flow.Sequence,4_15,2023-09-11T20:35:14.335Z,,0,,,3182.6840000953525,completion,,,,,false,,,,1857323,1857322.9000000954,1854123.505,1854131.9000000954,1854140.216,1857329.727,8,400,,,
trial,html.Screen,4_16_0,2023-09-11T20:35:17.462Z,,0,1,,3120.2730000000447,response,ISIC_4945233.JPG,5,ISIC_4836699.JPG,ISIC_4836699.JPG,false,0,keypress(z),500,1860450.1999998093,1860450,1857313.043,1857323,1857329.727,1860469.165,8,400,17,,ISIC_4945233.JPG
break,html.Screen,4_16_1,2023-09-11T20:35:17.462Z,,0,,,NaN,,,,,,false,,,,1860450.6999998093,1860450.5999999046,,1860450.299999714,,1860469.165,8,400,,,
break_continue,html.Screen,4_16_2,2023-09-11T20:35:17.462Z,,0,,,NaN,,,,,,false,,,,1860450.799999714,1860450.799999714,,1860450.6999998093,,1860469.165,8,400,,,
sequence,flow.Sequence,4_16,2023-09-11T20:35:17.463Z,,0,,,3121.0729997139424,completion,,,,,false,,,,1860450.9000000954,1860450.799999714,1857313.043,1857323,1857329.727,1860469.165,8,400,,,
trial,html.Screen,4_17_0,2023-09-11T20:35:23.422Z,,0,1,,5941.534999809228,response,ISIC_0011099.JPG,5,ISIC_3289651.JPG,ISIC_0011099.JPG,false,1,keypress(m),500,1866410.799999714,1866410.6999998093,1860452.489,1860451,1860469.165,1866414.124,8,400,18,,ISIC_3289651.JPG
break,html.Screen,4_17_1,2023-09-11T20:35:23.423Z,,0,,,NaN,,,,,,false,,,,1866411.1999998093,1866411.0999999046,,1866410.799999714,,1866414.124,8,400,,,
break_continue,html.Screen,4_17_2,2023-09-11T20:35:23.423Z,,0,,,NaN,,,,,,false,,,,1866411.5,1866411.5,,1866411.4000000954,,1866414.124,8,400,,,
sequence,flow.Sequence,4_17,2023-09-11T20:35:23.423Z,,0,,,5942.334999999963,completion,,,,,false,,,,1866411.5999999046,1866411.5,1860452.489,1860451,1860469.165,1866414.124,8,400,,,
trial,html.Screen,4_18_0,2023-09-11T20:35:26.707Z,,0,1,,3279.575999809196,response,ISIC_0064298.JPG,6,ISIC_6831108.JPG,ISIC_6831108.JPG,false,0,keypress(z),500,1869694.0999999046,1869693.6999998093,1866397.381,1866411.6999998093,1866414.124,1869703.884,8,400,19,,ISIC_0064298.JPG
break,html.Screen,4_18_1,2023-09-11T20:35:26.708Z,,0,,,NaN,,,,,,false,,,,1869695.799999714,1869695.299999714,,1869694.5,,1869703.884,8,400,,,
break_continue,html.Screen,4_18_2,2023-09-11T20:35:26.709Z,,0,,,NaN,,,,,,false,,,,1869696.6999998093,1869696.5,,1869696.0999999046,,1869703.884,8,400,,,
sequence,flow.Sequence,4_18,2023-09-11T20:35:26.709Z,,0,,,3282.375999999931,completion,,,,,false,,,,1869697,1869696.5,1866397.381,1866411.6999998093,1866414.124,1869703.884,8,400,,,
trial,html.Screen,4_19_0,2023-09-11T20:35:30.408Z,,0,1,,3691.7159999045543,response,ISIC_0029120.JPG,5,ISIC_0026700.JPG,ISIC_0026700.JPG,false,0,keypress(z),500,1873395.799999714,1873395.5999999046,1869687.191,1869697.1999998093,1869703.884,1873411.032,8,400,20,,ISIC_0029120.JPG
break,html.Screen,4_19_1,2023-09-11T20:35:30.409Z,,0,,,NaN,,,,,,false,,,,1873396.799999714,1873396.5,,1873396,,1873411.032,8,400,,,
break_continue,html.Screen,4_19_2,2023-09-11T20:35:30.410Z,,0,,,NaN,,,,,,false,,,,1873397.4000000954,1873397.1999998093,,1873397,,1873411.032,8,400,,,
sequence,flow.Sequence,4_19,2023-09-11T20:35:30.410Z,,0,,,3693.315999809187,completion,,,,,false,,,,1873397.6999998093,1873397.1999998093,1869687.191,1869697.0999999046,1869703.884,1873411.032,8,400,,,
trial,html.Screen,4_20_0,2023-09-11T20:35:39.820Z,,0,1,,9396.667999809375,response,ISIC_0026039.JPG,5,ISIC_0046331.JPG,ISIC_0046331.JPG,false,0,keypress(z),500,1882807.799999714,1882807.6999998093,1873394.438,1873397.799999714,1873411.032,1882812.7,8,400,21,,ISIC_0026039.JPG
break,html.Screen,4_20_1,2023-09-11T20:35:39.821Z,,0,,,NaN,,,,,,false,,,,1882808.4000000954,1882808.1999998093,,1882808,,1882812.7,8,400,,,
break_continue,html.Screen,4_20_2,2023-09-11T20:35:39.821Z,,0,,,NaN,,,,,,false,,,,1882808.5999999046,1882808.5,,1882808.4000000954,,1882812.7,8,400,,,
sequence,flow.Sequence,4_20,2023-09-11T20:35:39.821Z,,0,,,9397.46800000011,completion,,,,,false,,,,1882808.6999998093,1882808.5,1873394.438,1873397.799999714,1873411.032,1882812.7,8,400,,,
trial,html.Screen,4_21_0,2023-09-11T20:35:46.342Z,,0,1,,6516.700000095414,response,ISIC_9588065.JPG,4,ISIC_2166957.JPG,ISIC_2166957.JPG,false,0,keypress(z),500,1889329.5999999046,1889329.4000000954,1882796.097,1882808.799999714,1882812.7,1889342.176,8,400,22,,ISIC_9588065.JPG
break,html.Screen,4_21_1,2023-09-11T20:35:46.342Z,,0,,,NaN,,,,,,false,,,,1889330,1889329.799999714,,1889329.5999999046,,1889342.176,8,400,,,
break_continue,html.Screen,4_21_2,2023-09-11T20:35:46.343Z,,0,,,NaN,,,,,,false,,,,1889330.1999998093,1889330.0999999046,,1889330,,1889342.176,8,400,,,
sequence,flow.Sequence,4_21,2023-09-11T20:35:46.343Z,,0,,,6517.399999904679,completion,,,,,false,,,,1889330.1999998093,1889330.0999999046,1882796.097,1882808.6999998093,1882812.7,1889342.176,8,400,,,
trial,html.Screen,4_22_0,2023-09-11T20:35:51.051Z,,0,1,,4695.423999904655,response,ISIC_0000168.JPG,5,ISIC_0011693.JPG,ISIC_0011693.JPG,false,0,keypress(z),500,1894038.0999999046,1894037.5999999046,1889325.504,1889330.299999714,1889342.176,1894051.266,8,400,23,,ISIC_0000168.JPG
break,html.Screen,4_22_1,2023-09-11T20:35:51.052Z,,0,,,NaN,,,,,,false,,,,1894039.6999998093,1894039.299999714,,1894038.5,,1894051.266,8,400,,,
break_continue,html.Screen,4_22_2,2023-09-11T20:35:51.053Z,,0,,,NaN,,,,,,false,,,,1894040.5,1894040.299999714,,1894039.9000000954,,1894051.266,8,400,,,
sequence,flow.Sequence,4_22,2023-09-11T20:35:51.053Z,,0,,,4698.12399971392,completion,,,,,false,,,,1894040.799999714,1894040.299999714,1889325.504,1889330.1999998093,1889342.176,1894051.266,8,400,,,
trial,html.Screen,4_23_0,2023-09-11T20:35:55.264Z,,0,1,,4200.433999809204,response,ISIC_0015219.JPG,5,ISIC_6570611.JPG,ISIC_0015219.JPG,false,1,keypress(m),500,1898251.799999714,1898251.6999998093,1894034.673,1894041.0999999046,1894051.266,1898259.375,8,400,24,,ISIC_6570611.JPG
break,html.Screen,4_23_1,2023-09-11T20:35:55.265Z,,0,,,NaN,,,,,,false,,,,1898252.1999998093,1898252.0999999046,,1898252,,1898259.375,8,400,,,
break_continue,html.Screen,4_23_2,2023-09-11T20:35:55.265Z,,0,,,NaN,,,,,,false,,,,1898252.5,1898252.4000000954,,1898252.299999714,,1898259.375,8,400,,,
sequence,flow.Sequence,4_23,2023-09-11T20:35:55.265Z,,0,,,4201.134000095306,completion,,,,,false,,,,1898252.5999999046,1898252.4000000954,1894034.673,1894041,1894051.266,1898259.375,8,400,,,
trial,html.Screen,4_24_0,2023-09-11T20:35:59.556Z,,0,1,,4284.324999809265,response,ISIC_3368468.JPG,5,ISIC_0010934.JPG,ISIC_0010934.JPG,false,0,keypress(z),500,1902543.799999714,1902543.6999998093,1898242.777,1898252.5999999046,1898259.375,1902567.836,8,400,25,,ISIC_3368468.JPG
break,html.Screen,4_24_1,2023-09-11T20:35:59.557Z,,0,,,NaN,,,,,,false,,,,1902544.299999714,1902544.0999999046,,1902544,,1902567.836,8,400,,,
break_continue,html.Screen,4_24_2,2023-09-11T20:35:59.557Z,,0,,,NaN,,,,,,false,,,,1902544.4000000954,1902544.299999714,,1902544.299999714,,1902567.836,8,400,,,
sequence,flow.Sequence,4_24,2023-09-11T20:35:59.557Z,,0,,,4284.924999713898,completion,,,,,false,,,,1902544.5,1902544.299999714,1898242.777,1898252.5999999046,1898259.375,1902567.836,8,400,,,
trial,html.Screen,4_25_0,2023-09-11T20:36:05.179Z,,0,1,,5598.963999714004,response,ISIC_0063445.JPG,6,ISIC_0027171.JPG,ISIC_0027171.JPG,false,0,keypress(z),500,1908166.9000000954,1908166.799999714,1902551.104,1902544.5,1902567.836,1908195.456,8,400,26,,ISIC_0063445.JPG
break,html.Screen,4_25_1,2023-09-11T20:36:05.180Z,,0,,,NaN,,,,,,false,,,,1908167.5999999046,1908167.4000000954,,1908167.0999999046,,1908195.456,8,400,,,
break_continue,html.Screen,4_25_2,2023-09-11T20:36:05.180Z,,0,,,NaN,,,,,,false,,,,1908167.799999714,1908167.799999714,,1908167.6999998093,,1908195.456,8,400,,,
sequence,flow.Sequence,4_25,2023-09-11T20:36:05.180Z,,0,,,5599.963999714004,completion,,,,,false,,,,1908168,1908167.799999714,1902551.104,1902544.5,1902567.836,1908195.456,8,400,,,
trial,html.Screen,4_26_0,2023-09-11T20:36:09.604Z,,0,1,,4395.74399980926,response,ISIC_5586765.JPG,5,ISIC_4453506.JPG,ISIC_4453506.JPG,false,0,keypress(z),500,1912591.299999714,1912591.1999998093,1908178.683,1908168,1908195.456,1912620.737,8,400,27,,ISIC_5586765.JPG
break,html.Screen,4_26_1,2023-09-11T20:36:09.604Z,,0,,,NaN,,,,,,false,,,,1912591.5999999046,1912591.5999999046,,1912591.4000000954,,1912620.737,8,400,,,
break_continue,html.Screen,4_26_2,2023-09-11T20:36:09.604Z,,0,,,NaN,,,,,,false,,,,1912591.9000000954,1912591.6999998093,,1912591.6999998093,,1912620.737,8,400,,,
sequence,flow.Sequence,4_26,2023-09-11T20:36:09.604Z,,0,,,4396.24399980926,completion,,,,,false,,,,1912592,1912591.6999998093,1908178.683,1908168,1908195.456,1912620.737,8,400,,,
trial,html.Screen,4_27_0,2023-09-11T20:36:17.862Z,,0,1,,8228.163000095403,response,ISIC_0046345.JPG,5,ISIC_9559922.JPG,ISIC_0046345.JPG,false,1,keypress(m),500,1920849,1920848.9000000954,1912604.05,1912592,1912620.737,1920853.42,8,400,28,,ISIC_9559922.JPG
break,html.Screen,4_27_1,2023-09-11T20:36:17.862Z,,0,,,NaN,,,,,,false,,,,1920849.5,1920849.4000000954,,1920849.1999998093,,1920853.42,8,400,,,
break_continue,html.Screen,4_27_2,2023-09-11T20:36:17.862Z,,0,,,NaN,,,,,,false,,,,1920849.5999999046,1920849.5,,1920849.5,,1920853.42,8,400,,,
sequence,flow.Sequence,4_27,2023-09-11T20:36:17.862Z,,0,,,8228.763000000035,completion,,,,,false,,,,1920849.6999998093,1920849.5,1912604.05,1912592,1912620.737,1920853.42,8,400,,,
trial,html.Screen,4_28_0,2023-09-11T20:36:23.431Z,,0,1,,5564.980000095442,response,ISIC_0032783.JPG,4,ISIC_6617840.JPG,ISIC_0032783.JPG,false,1,keypress(m),500,1926418.5,1926418.4000000954,1920836.843,1920849.6999998093,1920853.42,1926447.589,8,400,29,,ISIC_6617840.JPG
break,html.Screen,4_28_1,2023-09-11T20:36:23.432Z,,0,,,NaN,,,,,,false,,,,1926419.1999998093,1926419,,1926418.6999998093,,1926447.589,8,400,,,
break_continue,html.Screen,4_28_2,2023-09-11T20:36:23.432Z,,0,,,NaN,,,,,,false,,,,1926419.5999999046,1926419.5,,1926419.299999714,,1926447.589,8,400,,,
sequence,flow.Sequence,4_28,2023-09-11T20:36:23.432Z,,0,,,5566.0800000000745,completion,,,,,false,,,,1926419.5999999046,1926419.5,1920836.843,1920849.6999998093,1920853.42,1926447.589,8,400,,,
trial,html.Screen,4_29_0,2023-09-11T20:36:28.993Z,,0,1,,5532.610999809345,response,ISIC_0011501.JPG,7,ISIC_0011491.JPG,ISIC_0011501.JPG,false,1,keypress(m),500,1931980.4000000954,1931980.1999998093,1926430.897,1926419.6999998093,1926447.589,1932008.428,8,400,30,,ISIC_0011491.JPG
break,html.Screen,4_29_1,2023-09-11T20:36:28.994Z,,0,,,NaN,,,,,,false,,,,1931980.799999714,1931980.6999998093,,1931980.5,,1932008.428,8,400,,,
break_continue,html.Screen,4_29_2,2023-09-11T20:36:28.994Z,,0,,,NaN,,,,,,false,,,,1931980.9000000954,1931980.9000000954,,1931980.799999714,,1932008.428,8,400,,,
sequence,flow.Sequence,4_29,2023-09-11T20:36:28.994Z,,0,,,5533.3110000954475,completion,,,,,false,,,,1931981,1931980.9000000954,1926430.897,1926419.6999998093,1926447.589,1932008.428,8,400,,,
trial,html.Screen,4_30_0,2023-09-11T20:36:33.480Z,,0,1,,4458.472000095295,response,ISIC_0024333.JPG,5,ISIC_0000346.JPG,ISIC_0024333.JPG,false,1,keypress(m),500,1936467.0999999046,1936466.9000000954,1931991.726,1931981.0999999046,1932008.428,1936483.831,8,400,31,,ISIC_0000346.JPG
break,html.Screen,4_30_1,2023-09-11T20:36:33.481Z,,0,,,NaN,,,,,,false,,,,1936467.9000000954,1936467.6999998093,,1936467.4000000954,,1936483.831,8,400,,,
break_continue,html.Screen,4_30_2,2023-09-11T20:36:33.481Z,,0,,,NaN,,,,,,false,,,,1936468.0999999046,1936468,,1936467.9000000954,,1936483.831,8,400,,,
sequence,flow.Sequence,4_30,2023-09-11T20:36:33.481Z,,0,,,4459.571999999927,completion,,,,,false,,,,1936468.299999714,1936468,1931991.726,1931981.0999999046,1932008.428,1936483.831,8,400,,,
trial,html.Screen,4_31_0,2023-09-11T20:36:39.136Z,,0,1,,5639.468999713892,response,ISIC_1961064.JPG,4,ISIC_0032685.JPG,ISIC_0032685.JPG,false,0,keypress(z),500,1942123.299999714,1942123.299999714,1936467.109,1936468.299999714,1936483.831,1942144.813,8,400,32,,ISIC_1961064.JPG
break,html.Screen,4_31_1,2023-09-11T20:36:39.137Z,,0,,,NaN,,,,,,false,,,,1942123.799999714,1942123.6999998093,,1942123.4000000954,,1942144.813,8,400,,,
break_continue,html.Screen,4_31_2,2023-09-11T20:36:39.137Z,,0,,,NaN,,,,,,false,,,,1942124,1942123.9000000954,,1942123.9000000954,,1942144.813,8,400,,,
sequence,flow.Sequence,4_31,2023-09-11T20:36:39.137Z,,0,,,5640.069000095362,completion,,,,,false,,,,1942124.0999999046,1942123.9000000954,1936467.109,1936468.299999714,1936483.831,1942144.813,8,400,,,
trial,html.Screen,4_32_0,2023-09-11T20:36:44.739Z,,0,1,,5580.786999904551,response,ISIC_2778131.JPG,5,ISIC_0027325.JPG,ISIC_2778131.JPG,false,1,keypress(m),500,1947726.0999999046,1947725.5999999046,1942128.283,1942124.0999999046,1942144.813,1947755.694,8,400,33,,ISIC_0027325.JPG
break,html.Screen,4_32_1,2023-09-11T20:36:44.741Z,,0,,,NaN,,,,,,false,,,,1947727.799999714,1947727.4000000954,,1947726.5,,1947755.694,8,400,,,
break_continue,html.Screen,4_32_2,2023-09-11T20:36:44.742Z,,0,,,NaN,,,,,,false,,,,1947728.5999999046,1947728.4000000954,,1947728.0999999046,,1947755.694,8,400,,,
sequence,flow.Sequence,4_32,2023-09-11T20:36:44.742Z,,0,,,5583.5870000952855,completion,,,,,false,,,,1947729,1947728.4000000954,1942128.283,1942124.0999999046,1942144.813,1947755.694,8,400,,,
trial,html.Screen,4_33_0,2023-09-11T20:36:49.950Z,,0,1,,5181.005999809364,response,ISIC_7423852.JPG,4,ISIC_7567699.JPG,ISIC_7423852.JPG,false,1,keypress(m),500,1952936.799999714,1952936.6999998093,1947739.086,1947729.1999998093,1947755.694,1952949.161,8,400,34,,ISIC_7567699.JPG
break,html.Screen,4_33_1,2023-09-11T20:36:49.950Z,,0,,,NaN,,,,,,false,,,,1952937.299999714,1952937.1999998093,,1952936.9000000954,,1952949.161,8,400,,,
break_continue,html.Screen,4_33_2,2023-09-11T20:36:49.950Z,,0,,,NaN,,,,,,false,,,,1952937.5,1952937.4000000954,,1952937.4000000954,,1952949.161,8,400,,,
sequence,flow.Sequence,4_33,2023-09-11T20:36:49.950Z,,0,,,5181.706000095466,completion,,,,,false,,,,1952937.5,1952937.4000000954,1947739.086,1947729.0999999046,1947755.694,1952949.161,8,400,,,
trial,html.Screen,4_34_0,2023-09-11T20:36:54.095Z,,0,1,,4133.239000095287,response,ISIC_2077116.JPG,4,ISIC_0000306.JPG,ISIC_0000306.JPG,false,0,keypress(z),500,1957082.5,1957082.4000000954,1952932.546,1952937.5999999046,1952949.161,1957107.262,8,400,35,,ISIC_2077116.JPG
break,html.Screen,4_34_1,2023-09-11T20:36:54.096Z,,0,,,NaN,,,,,,false,,,,1957082.9000000954,1957082.799999714,,1957082.5999999046,,1957107.262,8,400,,,
break_continue,html.Screen,4_34_2,2023-09-11T20:36:54.096Z,,0,,,NaN,,,,,,false,,,,1957083,1957083,,1957082.9000000954,,1957107.262,8,400,,,
sequence,flow.Sequence,4_34,2023-09-11T20:36:54.096Z,,0,,,4133.83899999992,completion,,,,,false,,,,1957083.0999999046,1957083,1952932.546,1952937.5999999046,1952949.161,1957107.262,8,400,,,
trial,html.Screen,4_35_0,2023-09-11T20:36:59.330Z,,0,1,,5209.237999999896,response,ISIC_0032551.JPG,6,ISIC_0072215.JPG,ISIC_0072215.JPG,false,0,keypress(z),500,1962316.5999999046,1962316.5,1957090.597,1957083.1999998093,1957107.262,1962317.343,8,400,36,,ISIC_0032551.JPG
break,html.Screen,4_35_1,2023-09-11T20:36:59.330Z,,0,,,NaN,,,,,,false,,,,1962317.1999998093,1962317.0999999046,,1962316.6999998093,,1962317.343,8,400,,,
break_continue,html.Screen,4_35_2,2023-09-11T20:36:59.331Z,,0,,,NaN,,,,,,false,,,,1962317.6999998093,1962317.5999999046,,1962317.299999714,,1962317.343,8,400,,,
sequence,flow.Sequence,4_35,2023-09-11T20:36:59.331Z,,0,,,5210.337999904528,completion,,,,,false,,,,1962317.799999714,1962317.5999999046,1957090.597,1957083.1999998093,1957107.262,1962317.343,8,400,,,
trial,html.Screen,4_36_0,2023-09-11T20:37:03.652Z,,0,1,,4321.956999713788,response,ISIC_0033068.JPG,6,ISIC_0013740.JPG,ISIC_0033068.JPG,false,1,keypress(m),500,1966639.4000000954,1966639.299999714,1962300.696,1962317.9000000954,1962317.343,1966642.414,8,400,37,,ISIC_0013740.JPG
break,html.Screen,4_36_1,2023-09-11T20:37:03.653Z,,0,,,NaN,,,,,,false,,,,1966639.9000000954,1966639.6999998093,,1966639.5,,1966642.414,8,400,,,
break_continue,html.Screen,4_36_2,2023-09-11T20:37:03.653Z,,0,,,NaN,,,,,,false,,,,1966640.0999999046,1966640.0999999046,,1966640,,1966642.414,8,400,,,
sequence,flow.Sequence,4_36,2023-09-11T20:37:03.653Z,,0,,,4322.756999904523,completion,,,,,false,,,,1966640.299999714,1966640.0999999046,1962300.696,1962317.9000000954,1962317.343,1966642.414,8,400,,,
trial,html.Screen,4_37_0,2023-09-11T20:37:08.263Z,,0,1,,4607.085999999894,response,ISIC_0027683.JPG,5,ISIC_0030391.JPG,ISIC_0030391.JPG,false,0,keypress(z),500,1971249.6999998093,1971249.5,1966625.799,1966640.299999714,1966642.414,1971268.223,8,400,38,,ISIC_0027683.JPG
break,html.Screen,4_37_1,2023-09-11T20:37:08.263Z,,0,,,NaN,,,,,,false,,,,1971250.4000000954,1971250.299999714,,1971249.9000000954,,1971268.223,8,400,,,
break_continue,html.Screen,4_37_2,2023-09-11T20:37:08.264Z,,0,,,NaN,,,,,,false,,,,1971250.6999998093,1971250.6999998093,,1971250.5,,1971268.223,8,400,,,
sequence,flow.Sequence,4_37,2023-09-11T20:37:08.264Z,,0,,,4608.285999809159,completion,,,,,false,,,,1971250.9000000954,1971250.6999998093,1966625.799,1966640.299999714,1966642.414,1971268.223,8,400,,,
trial,html.Screen,4_38_0,2023-09-11T20:37:13.658Z,,0,1,,5376.277000000002,response,ISIC_2349994.JPG,5,ISIC_2518672.JPG,ISIC_2518672.JPG,false,0,keypress(z),500,1976644.5999999046,1976644.5,1971251.464,1971251,1971268.223,1976661.999,8,400,39,,ISIC_2349994.JPG
break,html.Screen,4_38_1,2023-09-11T20:37:13.658Z,,0,,,NaN,,,,,,false,,,,1976645.1999998093,1976645,,1976644.799999714,,1976661.999,8,400,,,
break_continue,html.Screen,4_38_2,2023-09-11T20:37:13.658Z,,0,,,NaN,,,,,,false,,,,1976645.5999999046,1976645.5,,1976645.299999714,,1976661.999,8,400,,,
sequence,flow.Sequence,4_38,2023-09-11T20:37:13.659Z,,0,,,5377.277000000002,completion,,,,,false,,,,1976645.6999998093,1976645.5,1971251.464,1971251,1971268.223,1976661.999,8,400,,,
trial,html.Screen,4_39_0,2023-09-11T20:37:18.764Z,,0,1,,5088.700999809196,response,ISIC_7581199.JPG,5,ISIC_0806138.JPG,ISIC_7581199.JPG,false,1,keypress(m),500,1981750.799999714,1981750.6999998093,1976645.261,1976645.799999714,1976661.999,1981771.902,8,400,40,,ISIC_0806138.JPG
break,html.Screen,4_39_1,2023-09-11T20:37:18.764Z,,0,,,NaN,,,,,,false,,,,1981751.299999714,1981751.1999998093,,1981750.9000000954,,1981771.902,8,400,,,
break_continue,html.Screen,4_39_2,2023-09-11T20:37:18.764Z,,0,,,NaN,,,,,,false,,,,1981751.5999999046,1981751.5,,1981751.299999714,,1981771.902,8,400,,,
sequence,flow.Sequence,4_39,2023-09-11T20:37:18.765Z,,0,,,5089.500999999931,completion,,,,,false,,,,1981751.5999999046,1981751.5,1976645.261,1976645.799999714,1976661.999,1981771.902,8,400,,,
trial,html.Screen,4_40_0,2023-09-11T20:37:22.942Z,,0,1,,4157.297999809263,response,ISIC_0057484.JPG,5,ISIC_0066678.JPG,ISIC_0066678.JPG,false,0,keypress(z),500,1985929.299999714,1985929.1999998093,1981755.213,1981751.6999998093,1981771.902,1985929.98,8,400,41,,ISIC_0057484.JPG
break,html.Screen,4_40_1,2023-09-11T20:37:22.943Z,,0,,,NaN,,,,,,false,,,,1985930,1985929.799999714,,1985929.4000000954,,1985929.98,8,400,,,
break_continue,html.Screen,4_40_2,2023-09-11T20:37:22.944Z,,0,,,NaN,,,,,,false,,,,1985930.6999998093,1985930.5,,1985930.1999998093,,1985929.98,8,400,,,
sequence,flow.Sequence,4_40,2023-09-11T20:37:22.944Z,,0,,,4158.597999999998,completion,,,,,false,,,,1985930.6999998093,1985930.5,1981755.213,1981751.6999998093,1981771.902,1985929.98,8,400,,,
trial,html.Screen,4_41_0,2023-09-11T20:37:28.899Z,,0,1,,5954.819999713916,response,ISIC_8502869.JPG,7,ISIC_0059547.JPG,ISIC_0059547.JPG,false,0,keypress(z),500,1991885,1991884.799999714,1985913.265,1985930.9000000954,1985929.98,1991908.284,8,400,42,,ISIC_8502869.JPG
break,html.Screen,4_41_1,2023-09-11T20:37:28.899Z,,0,,,NaN,,,,,,false,,,,1991885.5,1991885.4000000954,,1991885.1999998093,,1991908.284,8,400,,,
break_continue,html.Screen,4_41_2,2023-09-11T20:37:28.900Z,,0,,,NaN,,,,,,false,,,,1991885.9000000954,1991885.6999998093,,1991885.5999999046,,1991908.284,8,400,,,
sequence,flow.Sequence,4_41,2023-09-11T20:37:28.900Z,,0,,,5955.719999809284,completion,,,,,false,,,,1991886,1991885.6999998093,1985913.265,1985930.9000000954,1985929.98,1991908.284,8,400,,,
trial,html.Screen,4_42_0,2023-09-11T20:37:34.325Z,,0,1,,5402.91599980928,response,ISIC_4745475.JPG,6,ISIC_7570343.JPG,ISIC_7570343.JPG,false,0,keypress(z),500,1997311.4000000954,1997311.1999998093,1991891.717,1991886,1991908.284,1997318.845,8,400,43,,ISIC_4745475.JPG
break,html.Screen,4_42_1,2023-09-11T20:37:34.326Z,,0,,,NaN,,,,,,false,,,,1997311.799999714,1997311.799999714,,1997311.4000000954,,1997318.845,8,400,,,
break_continue,html.Screen,4_42_2,2023-09-11T20:37:34.326Z,,0,,,NaN,,,,,,false,,,,1997312,1997311.9000000954,,1997311.9000000954,,1997318.845,8,400,,,
sequence,flow.Sequence,4_42,2023-09-11T20:37:34.326Z,,0,,,5403.616000095382,completion,,,,,false,,,,1997312.0999999046,1997311.9000000954,1991891.717,1991886,1991908.284,1997318.845,8,400,,,
trial,html.Screen,4_43_0,2023-09-11T20:37:39.980Z,,0,1,,5647.155000000028,response,ISIC_4066726.JPG,5,ISIC_7430054.JPG,ISIC_7430054.JPG,false,0,keypress(z),500,2002966.299999714,2002966,1997302.212,1997312.0999999046,1997318.845,2002996.509,8,400,44,,ISIC_4066726.JPG
break,html.Screen,4_43_1,2023-09-11T20:37:39.981Z,,0,,,NaN,,,,,,false,,,,2002967,2002966.799999714,,2002966.5,,2002996.509,8,400,,,
break_continue,html.Screen,4_43_2,2023-09-11T20:37:39.981Z,,0,,,NaN,,,,,,false,,,,2002967.299999714,2002967.1999998093,,2002967.0999999046,,2002996.509,8,400,,,
sequence,flow.Sequence,4_43,2023-09-11T20:37:39.981Z,,0,,,5648.354999809293,completion,,,,,false,,,,2002967.5,2002967.1999998093,1997302.212,1997312.0999999046,1997318.845,2002996.509,8,400,,,
trial,html.Screen,4_44_0,2023-09-11T20:37:45.471Z,,0,1,,5460.391000095289,response,ISIC_5959795.JPG,4,ISIC_0029163.JPG,ISIC_0029163.JPG,false,0,keypress(z),500,2008457.0999999046,2008456.9000000954,2002979.838,2002967.5,2002996.509,2008473.95,8,400,45,,ISIC_5959795.JPG
break,html.Screen,4_44_1,2023-09-11T20:37:45.472Z,,0,,,NaN,,,,,,false,,,,2008457.6999998093,2008457.5,,2008457.1999998093,,2008473.95,8,400,,,
break_continue,html.Screen,4_44_2,2023-09-11T20:37:45.472Z,,0,,,NaN,,,,,,false,,,,2008458,2008457.9000000954,,2008457.799999714,,2008473.95,8,400,,,
sequence,flow.Sequence,4_44,2023-09-11T20:37:45.472Z,,0,,,5461.391000095289,completion,,,,,false,,,,2008458.0999999046,2008457.9000000954,2002979.838,2002967.5,2002996.509,2008473.95,8,400,,,
trial,html.Screen,4_45_0,2023-09-11T20:37:52.098Z,,0,1,,6609.950000095414,response,ISIC_0024226.JPG,6,ISIC_5895384.JPG,ISIC_5895384.JPG,false,0,keypress(z),500,2015084.0999999046,2015083.9000000954,2008457.179,2008458.0999999046,2008473.95,2015103.444,8,400,46,,ISIC_0024226.JPG
break,html.Screen,4_45_1,2023-09-11T20:37:52.098Z,,0,,,NaN,,,,,,false,,,,2015084.5,2015084.4000000954,,2015084.1999998093,,2015103.444,8,400,,,
break_continue,html.Screen,4_45_2,2023-09-11T20:37:52.099Z,,0,,,NaN,,,,,,false,,,,2015084.799999714,2015084.6999998093,,2015084.5999999046,,2015103.444,8,400,,,
sequence,flow.Sequence,4_45,2023-09-11T20:37:52.099Z,,0,,,6610.749999809312,completion,,,,,false,,,,2015084.9000000954,2015084.6999998093,2008457.179,2008458.0999999046,2008473.95,2015103.444,8,400,,,
trial,html.Screen,4_46_0,2023-09-11T20:37:58.132Z,,0,1,,6014.155999904731,response,ISIC_2023592.JPG,5,ISIC_0001108.JPG,ISIC_0001108.JPG,false,0,keypress(z),500,2021117.6999998093,2021117.5999999046,2015086.731,2015084.9000000954,2015103.444,2021131.916,8,400,47,,ISIC_2023592.JPG
break,html.Screen,4_46_1,2023-09-11T20:37:58.132Z,,0,,,NaN,,,,,,false,,,,2021118.299999714,2021118.1999998093,,2021117.9000000954,,2021131.916,8,400,,,
break_continue,html.Screen,4_46_2,2023-09-11T20:37:58.133Z,,0,,,NaN,,,,,,false,,,,2021118.6999998093,2021118.5999999046,,2021118.5,,2021131.916,8,400,,,
sequence,flow.Sequence,4_46,2023-09-11T20:37:58.133Z,,0,,,6015.155999904731,completion,,,,,false,,,,2021118.6999998093,2021118.5999999046,2015086.731,2015084.9000000954,2015103.444,2021131.916,8,400,,,
trial,html.Screen,4_47_0,2023-09-11T20:38:02.762Z,,0,1,,4616.484000095399,response,ISIC_5797942.JPG,5,ISIC_4026540.JPG,ISIC_4026540.JPG,false,0,keypress(z),500,2025748.5,2025748.4000000954,2021115.374,2021118.799999714,2021131.916,2025774.316,8,400,48,,ISIC_5797942.JPG
break,html.Screen,4_47_1,2023-09-11T20:38:02.763Z,,0,,,NaN,,,,,,false,,,,2025748.9000000954,2025748.799999714,,2025748.5999999046,,2025774.316,8,400,,,
break_continue,html.Screen,4_47_2,2023-09-11T20:38:02.763Z,,0,,,NaN,,,,,,false,,,,2025749.1999998093,2025749.0999999046,,2025749,,2025774.316,8,400,,,
sequence,flow.Sequence,4_47,2023-09-11T20:38:02.763Z,,0,,,4617.183999904664,completion,,,,,false,,,,2025749.1999998093,2025749.0999999046,2021115.374,2021118.799999714,2021131.916,2025774.316,8,400,,,
trial,html.Screen,4_48_0,2023-09-11T20:38:09.389Z,,0,1,,6600.48399971379,response,ISIC_0016161.JPG,4,ISIC_0001112.JPG,ISIC_0016161.JPG,false,1,keypress(m),500,2032375,2032374.799999714,2025757.535,2025749.299999714,2025774.316,2032387.072,8,400,49,,ISIC_0001112.JPG
break,html.Screen,4_48_1,2023-09-11T20:38:09.389Z,,0,,,NaN,,,,,,false,,,,2032375.5,2032375.299999714,,2032375.0999999046,,2032387.072,8,400,,,
break_continue,html.Screen,4_48_2,2023-09-11T20:38:09.390Z,,0,,,NaN,,,,,,false,,,,2032375.5999999046,2032375.5999999046,,2032375.5,,2032387.072,8,400,,,
sequence,flow.Sequence,4_48,2023-09-11T20:38:09.390Z,,0,,,6601.2839999045245,completion,,,,,false,,,,2032375.6999998093,2032375.5999999046,2025757.535,2025749.299999714,2025774.316,2032387.072,8,400,,,
trial,html.Screen,4_49_0,2023-09-11T20:38:14.912Z,,0,1,,5510.32800009544,response,ISIC_7128007.JPG,6,ISIC_0046609.JPG,ISIC_0046609.JPG,false,0,keypress(z),500,2037897.5999999046,2037897.4000000954,2032370.376,2032375.799999714,2032387.072,2037914.596,8,400,50,,ISIC_7128007.JPG
break,html.Screen,4_49_1,2023-09-11T20:38:24.915Z,,0,,,10002.716000000015,timeout,,,,,false,,,,2047901.0999999046,2047900.591,2037897.901,2037897.799999714,2037914.596,2047917.312,8,400,,,
break_continue,html.Screen,4_49_2,2023-09-11T20:38:27.488Z,,0,,,2550.2879999047145,response,,,,,false,continue,keypress(Space),,2050473.5999999046,2050467.5999999046,2047900.591,2047901.1999998093,2047917.312,2050488.937,8,400,,,
sequence,flow.Sequence,4_49,2023-09-11T20:38:27.488Z,,0,,,18080.527999904705,completion,,,,,false,,,,2050473.6999998093,2050467.5999999046,2032370.376,2032375.799999714,2032387.072,2050488.937,8,400,,,
trial,html.Screen,4_50_0,2023-09-11T20:38:32.440Z,,0,2,,4936.463000095449,response,ISIC_0025965.JPG,6,ISIC_3965872.JPG,ISIC_3965872.JPG,false,0,keypress(z),500,2055425.5,2055425.4000000954,2050472.229,2050473.799999714,2050488.937,2055431.89,8,400,1,,ISIC_0025965.JPG
break,html.Screen,4_50_1,2023-09-11T20:38:32.440Z,,0,,,NaN,,,,,,false,,,,2055426,2055426,,2055425.6999998093,,2055431.89,8,400,,,
break_continue,html.Screen,4_50_2,2023-09-11T20:38:32.440Z,,0,,,NaN,,,,,,false,,,,2055426.1999998093,2055426.0999999046,,2055426.0999999046,,2055431.89,8,400,,,
sequence,flow.Sequence,4_50,2023-09-11T20:38:32.440Z,,0,,,4937.1629999047145,completion,,,,,false,,,,2055426.299999714,2055426.0999999046,2050472.229,2050473.799999714,2050488.937,2055431.89,8,400,,,
trial,html.Screen,4_51_0,2023-09-11T20:38:36.157Z,,0,2,,3710.51000009547,response,ISIC_5219334.JPG,5,ISIC_0034048.JPG,ISIC_0034048.JPG,false,0,keypress(z),500,2059142.5999999046,2059142.4000000954,2055415.2,2055426.299999714,2055431.89,2059155.842,8,400,2,,ISIC_5219334.JPG
break,html.Screen,4_51_1,2023-09-11T20:38:36.157Z,,0,,,NaN,,,,,,false,,,,2059143.1999998093,2059143.0999999046,,2059142.799999714,,2059155.842,8,400,,,
break_continue,html.Screen,4_51_2,2023-09-11T20:38:36.158Z,,0,,,NaN,,,,,,false,,,,2059143.4000000954,2059143.4000000954,,2059143.299999714,,2059155.842,8,400,,,
sequence,flow.Sequence,4_51,2023-09-11T20:38:36.158Z,,0,,,3711.51000009547,completion,,,,,false,,,,2059143.5,2059143.4000000954,2055415.2,2055426.299999714,2055431.89,2059155.842,8,400,,,
trial,html.Screen,4_52_0,2023-09-11T20:38:39.007Z,,0,2,,2836.857999809319,response,ISIC_5591622.JPG,5,ISIC_0031350.JPG,ISIC_0031350.JPG,false,0,keypress(z),500,2061992.799999714,2061992.6999998093,2059139.079,2059143.5999999046,2059155.842,2061994.689,8,400,3,,ISIC_5591622.JPG
break,html.Screen,4_52_1,2023-09-11T20:38:39.007Z,,0,,,NaN,,,,,,false,,,,2061993.1999998093,2061993.0999999046,,2061992.9000000954,,2061994.689,8,400,,,
break_continue,html.Screen,4_52_2,2023-09-11T20:38:39.007Z,,0,,,NaN,,,,,,false,,,,2061993.4000000954,2061993.4000000954,,2061993.299999714,,2061994.689,8,400,,,
sequence,flow.Sequence,4_52,2023-09-11T20:38:39.008Z,,0,,,2837.5580000954214,completion,,,,,false,,,,2061993.5,2061993.4000000954,2059139.079,2059143.5999999046,2059155.842,2061994.689,8,400,,,
trial,html.Screen,4_53_0,2023-09-11T20:38:42.867Z,,0,2,,3858.4109999046195,response,ISIC_0029395.JPG,6,ISIC_7327423.JPG,ISIC_7327423.JPG,false,0,keypress(z),500,2065853.1999998093,2065853.0999999046,2061978.018,2061993.5999999046,2061994.689,2065868.884,8,400,4,,ISIC_0029395.JPG
break,html.Screen,4_53_1,2023-09-11T20:38:42.868Z,,0,,,NaN,,,,,,false,,,,2065853.5999999046,2065853.5,,2065853.299999714,,2065868.884,8,400,,,
break_continue,html.Screen,4_53_2,2023-09-11T20:38:42.868Z,,0,,,NaN,,,,,,false,,,,2065853.6999998093,2065853.6999998093,,2065853.5999999046,,2065868.884,8,400,,,
sequence,flow.Sequence,4_53,2023-09-11T20:38:42.868Z,,0,,,3859.010999809252,completion,,,,,false,,,,2065853.799999714,2065853.6999998093,2061978.018,2061993.5999999046,2061994.689,2065868.884,8,400,,,
trial,html.Screen,4_54_0,2023-09-11T20:38:46.870Z,,0,2,,3987.315999809187,response,ISIC_0028718.JPG,6,ISIC_0056292.JPG,ISIC_0056292.JPG,false,0,keypress(z),500,2069856.299999714,2069856.1999998093,2065852.176,2065853.9000000954,2065868.884,2069860.016,8,400,5,,ISIC_0028718.JPG
break,html.Screen,4_54_1,2023-09-11T20:38:46.871Z,,0,,,NaN,,,,,,false,,,,2069856.6999998093,2069856.6999998093,,2069856.5,,2069860.016,8,400,,,
break_continue,html.Screen,4_54_2,2023-09-11T20:38:46.871Z,,0,,,NaN,,,,,,false,,,,2069857,2069856.799999714,,2069856.799999714,,2069860.016,8,400,,,
sequence,flow.Sequence,4_54,2023-09-11T20:38:46.871Z,,0,,,3987.9159997138195,completion,,,,,false,,,,2069857,2069856.799999714,2065852.176,2065853.9000000954,2065868.884,2069860.016,8,400,,,
trial,html.Screen,4_55_0,2023-09-11T20:38:51.113Z,,0,2,,4239.183999809204,response,ISIC_6945634.JPG,6,ISIC_3691320.JPG,ISIC_6945634.JPG,false,1,keypress(m),500,2074099.4000000954,2074099.1999998093,2069843.26,2069857,2069860.016,2074101.62,8,400,6,,ISIC_3691320.JPG
break,html.Screen,4_55_1,2023-09-11T20:38:51.114Z,,0,,,NaN,,,,,,false,,,,2074099.799999714,2074099.6999998093,,2074099.4000000954,,2074101.62,8,400,,,
break_continue,html.Screen,4_55_2,2023-09-11T20:38:51.114Z,,0,,,NaN,,,,,,false,,,,2074100.0999999046,2074100,,2074099.799999714,,2074101.62,8,400,,,
sequence,flow.Sequence,4_55,2023-09-11T20:38:51.114Z,,0,,,4239.9839999999385,completion,,,,,false,,,,2074100.0999999046,2074100,2069843.26,2069857,2069860.016,2074101.62,8,400,,,
trial,html.Screen,4_56_0,2023-09-11T20:38:56.188Z,,0,2,,5072.679999713786,response,ISIC_0030831.JPG,6,ISIC_0010962.JPG,ISIC_0010962.JPG,false,0,keypress(z),500,2079174.299999714,2079174.299999714,2074084.873,2074100.0999999046,2074101.62,2079178.119,8,400,7,,ISIC_0030831.JPG
break,html.Screen,4_56_1,2023-09-11T20:38:56.189Z,,0,,,NaN,,,,,,false,,,,2079174.6999998093,2079174.6999998093,,2079174.4000000954,,2079178.119,8,400,,,
break_continue,html.Screen,4_56_2,2023-09-11T20:38:56.189Z,,0,,,NaN,,,,,,false,,,,2079175,2079174.9000000954,,2079174.799999714,,2079178.119,8,400,,,
sequence,flow.Sequence,4_56,2023-09-11T20:38:56.189Z,,0,,,5073.280000095256,completion,,,,,false,,,,2079175,2079174.9000000954,2074084.873,2074100.0999999046,2074101.62,2079178.119,8,400,,,
trial,html.Screen,4_57_0,2023-09-11T20:39:00.095Z,,0,2,,3902.881000000052,response,ISIC_5352684.JPG,6,ISIC_7839712.JPG,ISIC_7839712.JPG,false,0,keypress(z),500,2083081.1999998093,2083081,2079161.446,2079175.0999999046,2079178.119,2083102.445,8,400,8,,ISIC_5352684.JPG
break,html.Screen,4_57_1,2023-09-11T20:39:00.096Z,,0,,,NaN,,,,,,false,,,,2083081.6999998093,2083081.5999999046,,2083081.299999714,,2083102.445,8,400,,,
break_continue,html.Screen,4_57_2,2023-09-11T20:39:00.096Z,,0,,,NaN,,,,,,false,,,,2083082,2083081.9000000954,,2083081.799999714,,2083102.445,8,400,,,
sequence,flow.Sequence,4_57,2023-09-11T20:39:00.096Z,,0,,,3903.7810000954196,completion,,,,,false,,,,2083082,2083081.9000000954,2079161.446,2079175.0999999046,2079178.119,2083102.445,8,400,,,
trial,html.Screen,4_58_0,2023-09-11T20:39:04.087Z,,0,2,,3969.9550000953022,response,ISIC_5281576.JPG,5,ISIC_8441905.JPG,ISIC_8441905.JPG,false,0,keypress(z),500,2087072.4000000954,2087072.4000000954,2083085.72,2083082.0999999046,2083102.445,2087093.531,8,400,9,,ISIC_5281576.JPG
break,html.Screen,4_58_1,2023-09-11T20:39:04.087Z,,0,,,NaN,,,,,,false,,,,2087072.9000000954,2087072.6999998093,,2087072.5999999046,,2087093.531,8,400,,,
break_continue,html.Screen,4_58_2,2023-09-11T20:39:04.087Z,,0,,,NaN,,,,,,false,,,,2087073,2087073,,2087072.9000000954,,2087093.531,8,400,,,
sequence,flow.Sequence,4_58,2023-09-11T20:39:04.087Z,,0,,,3970.554999999935,completion,,,,,false,,,,2087073.0999999046,2087073,2083085.72,2083082.0999999046,2083102.445,2087093.531,8,400,,,
trial,html.Screen,4_59_0,2023-09-11T20:39:07.739Z,,0,2,,3631.668999809306,response,ISIC_6946260.JPG,5,ISIC_1752943.JPG,ISIC_1752943.JPG,false,0,keypress(z),500,2090725.4000000954,2090725.1999998093,2087076.886,2087073.0999999046,2087093.531,2090750.649,8,400,10,,ISIC_6946260.JPG
break,html.Screen,4_59_1,2023-09-11T20:39:07.740Z,,0,,,NaN,,,,,,false,,,,2090726,2090725.9000000954,,2090725.5,,2090750.649,8,400,,,
break_continue,html.Screen,4_59_2,2023-09-11T20:39:07.740Z,,0,,,NaN,,,,,,false,,,,2090726.299999714,2090726.299999714,,2090726.0999999046,,2090750.649,8,400,,,
sequence,flow.Sequence,4_59,2023-09-11T20:39:07.741Z,,0,,,3632.7689997139387,completion,,,,,false,,,,2090726.5,2090726.299999714,2087076.886,2087073.0999999046,2087093.531,2090750.649,8,400,,,
trial,html.Screen,4_60_0,2023-09-11T20:39:12.323Z,,0,2,,4557.751000095392,response,ISIC_0011959.JPG,6,ISIC_2365588.JPG,ISIC_0011959.JPG,false,1,keypress(m),500,2095308.5,2095308.4000000954,2090733.967,2090726.5,2090750.649,2095327.455,8,400,11,,ISIC_2365588.JPG
break,html.Screen,4_60_1,2023-09-11T20:39:12.323Z,,0,,,NaN,,,,,,false,,,,2095309.1999998093,2095308.9000000954,,2095308.5999999046,,2095327.455,8,400,,,
break_continue,html.Screen,4_60_2,2023-09-11T20:39:12.324Z,,0,,,NaN,,,,,,false,,,,2095309.6999998093,2095309.5999999046,,2095309.5,,2095327.455,8,400,,,
sequence,flow.Sequence,4_60,2023-09-11T20:39:12.324Z,,0,,,4558.950999904657,completion,,,,,false,,,,2095309.9000000954,2095309.5999999046,2090733.967,2090726.5,2090750.649,2095327.455,8,400,,,
trial,html.Screen,4_61_0,2023-09-11T20:39:16.599Z,,0,2,,4257.244999809191,response,ISIC_0070215.JPG,5,ISIC_0305800.JPG,ISIC_0070215.JPG,false,1,keypress(m),500,2099585.299999714,2099584.6999998093,2095293.055,2095309.9000000954,2095327.455,2099601.183,8,400,12,,ISIC_0305800.JPG
break,html.Screen,4_61_1,2023-09-11T20:39:16.602Z,,0,,,NaN,,,,,,false,,,,2099588,2099587.1999998093,,2099585.799999714,,2099601.183,8,400,,,
break_continue,html.Screen,4_61_2,2023-09-11T20:39:16.603Z,,0,,,NaN,,,,,,false,,,,2099588.9000000954,2099588.5999999046,,2099588.1999998093,,2099601.183,8,400,,,
sequence,flow.Sequence,4_61,2023-09-11T20:39:16.603Z,,0,,,4261.144999904558,completion,,,,,false,,,,2099589.1999998093,2099588.5999999046,2095293.055,2095309.9000000954,2095327.455,2099601.183,8,400,,,
trial,html.Screen,4_62_0,2023-09-11T20:39:21.710Z,,0,2,,5095.116999713704,response,ISIC_2922104.JPG,6,ISIC_2559074.JPG,ISIC_2559074.JPG,false,0,keypress(z),500,2104696.4000000954,2104696.299999714,2099584.618,2099589.5,2099601.183,2104711.263,8,400,13,,ISIC_2922104.JPG
break,html.Screen,4_62_1,2023-09-11T20:39:21.711Z,,0,,,NaN,,,,,,false,,,,2104696.9000000954,2104696.6999998093,,2104696.5999999046,,2104711.263,8,400,,,
break_continue,html.Screen,4_62_2,2023-09-11T20:39:21.711Z,,0,,,NaN,,,,,,false,,,,2104697.0999999046,2104697.0999999046,,2104697,,2104711.263,8,400,,,
sequence,flow.Sequence,4_62,2023-09-11T20:39:21.711Z,,0,,,5095.916999904439,completion,,,,,false,,,,2104697.1999998093,2104697.0999999046,2099584.618,2099589.4000000954,2099601.183,2104711.263,8,400,,,
trial,html.Screen,4_63_0,2023-09-11T20:39:26.137Z,,0,2,,4410.737000000197,response,ISIC_0069292.JPG,5,ISIC_0010723.JPG,ISIC_0069292.JPG,false,1,keypress(m),500,2109122.0999999046,2109122,2104694.427,2104697.299999714,2104711.263,2109136.434,8,400,14,,ISIC_0010723.JPG
break,html.Screen,4_63_1,2023-09-11T20:39:26.138Z,,0,,,NaN,,,,,,false,,,,2109122.5999999046,2109122.4000000954,,2109122.1999998093,,2109136.434,8,400,,,
break_continue,html.Screen,4_63_2,2023-09-11T20:39:26.138Z,,0,,,NaN,,,,,,false,,,,2109122.799999714,2109122.6999998093,,2109122.5999999046,,2109136.434,8,400,,,
sequence,flow.Sequence,4_63,2023-09-11T20:39:26.138Z,,0,,,4411.436999809463,completion,,,,,false,,,,2109122.799999714,2109122.6999998093,2104694.427,2104697.299999714,2104711.263,2109136.434,8,400,,,
trial,html.Screen,4_64_0,2023-09-11T20:39:29.307Z,,0,2,,3155.3659997140057,response,ISIC_0011789.JPG,5,ISIC_7724635.JPG,ISIC_0011789.JPG,false,1,keypress(m),500,2112292,2112291.799999714,2109119.745,2109122.9000000954,2109136.434,2112292.648,8,400,15,,ISIC_7724635.JPG
break,html.Screen,4_64_1,2023-09-11T20:39:29.309Z,,0,,,NaN,,,,,,false,,,,2112293.1999998093,2112292.5999999046,,2112292.0999999046,,2112292.648,8,400,,,
break_continue,html.Screen,4_64_2,2023-09-11T20:39:29.309Z,,0,,,NaN,,,,,,false,,,,2112293.6999998093,2112293.6999998093,,2112293.4000000954,,2112292.648,8,400,,,
sequence,flow.Sequence,4_64,2023-09-11T20:39:29.309Z,,0,,,3157.265999809373,completion,,,,,false,,,,2112293.799999714,2112293.6999998093,2109119.745,2109122.799999714,2109136.434,2112292.648,8,400,,,
trial,html.Screen,4_65_0,2023-09-11T20:39:32.702Z,,0,2,,3394.3519999999553,response,ISIC_0026692.JPG,5,ISIC_6023518.JPG,ISIC_0026692.JPG,false,1,keypress(m),500,2115687.0999999046,2115687,2112292.623,2112294,2112292.648,2115715.897,8,400,16,,ISIC_6023518.JPG
break,html.Screen,4_65_1,2023-09-11T20:39:32.703Z,,0,,,NaN,,,,,,false,,,,2115687.5,2115687.4000000954,,2115687.1999998093,,2115715.897,8,400,,,
break_continue,html.Screen,4_65_2,2023-09-11T20:39:32.703Z,,0,,,NaN,,,,,,false,,,,2115687.5999999046,2115687.5999999046,,2115687.5,,2115715.897,8,400,,,
sequence,flow.Sequence,4_65,2023-09-11T20:39:32.703Z,,0,,,3394.951999904588,completion,,,,,false,,,,2115687.6999998093,2115687.5999999046,2112292.623,2112294,2112292.648,2115715.897,8,400,,,
trial,html.Screen,4_66_0,2023-09-11T20:39:36.616Z,,0,2,,3885.0030000954866,response,ISIC_1843053.JPG,5,ISIC_8956001.JPG,ISIC_1843053.JPG,false,1,keypress(m),500,2119601,2119600.9000000954,2115699.158,2115687.6999998093,2115715.897,2119623.556,8,400,17,,ISIC_8956001.JPG
break,html.Screen,4_66_1,2023-09-11T20:39:36.617Z,,0,,,NaN,,,,,,false,,,,2119601.5999999046,2119601.4000000954,,2119601.1999998093,,2119623.556,8,400,,,
break_continue,html.Screen,4_66_2,2023-09-11T20:39:36.617Z,,0,,,NaN,,,,,,false,,,,2119601.9000000954,2119601.799999714,,2119601.5999999046,,2119623.556,8,400,,,
sequence,flow.Sequence,4_66,2023-09-11T20:39:36.617Z,,0,,,3885.902999714017,completion,,,,,false,,,,2119602,2119601.799999714,2115699.158,2115687.6999998093,2115715.897,2119623.556,8,400,,,
trial,html.Screen,4_67_0,2023-09-11T20:39:40.528Z,,0,2,,3888.944000000134,response,ISIC_6356149.JPG,4,ISIC_9080774.JPG,ISIC_6356149.JPG,false,1,keypress(m),500,2123512.5999999046,2123512.5,2119606.892,2119602,2119623.556,2123531.113,8,400,18,,ISIC_9080774.JPG
break,html.Screen,4_67_1,2023-09-11T20:39:40.528Z,,0,,,NaN,,,,,,false,,,,2123513.0999999046,2123513,,2123512.799999714,,2123531.113,8,400,,,
break_continue,html.Screen,4_67_2,2023-09-11T20:39:40.529Z,,0,,,NaN,,,,,,false,,,,2123513.299999714,2123513.1999998093,,2123513.0999999046,,2123531.113,8,400,,,
sequence,flow.Sequence,4_67,2023-09-11T20:39:40.529Z,,0,,,3889.6439998093992,completion,,,,,false,,,,2123513.4000000954,2123513.1999998093,2119606.892,2119602,2119623.556,2123531.113,8,400,,,
trial,html.Screen,4_68_0,2023-09-11T20:39:48.386Z,,0,2,,7839.586999809369,response,ISIC_0011234.JPG,4,ISIC_8468512.JPG,ISIC_8468512.JPG,false,0,keypress(z),500,2131370.799999714,2131370.6999998093,2123514.425,2123513.4000000954,2123531.113,2131396.375,8,400,19,,ISIC_0011234.JPG
break,html.Screen,4_68_1,2023-09-11T20:39:48.387Z,,0,,,NaN,,,,,,false,,,,2131371.1999998093,2131371.0999999046,,2131370.9000000954,,2131396.375,8,400,,,
break_continue,html.Screen,4_68_2,2023-09-11T20:39:48.387Z,,0,,,NaN,,,,,,false,,,,2131371.4000000954,2131371.299999714,,2131371.1999998093,,2131396.375,8,400,,,
sequence,flow.Sequence,4_68,2023-09-11T20:39:48.387Z,,0,,,7840.186999714002,completion,,,,,false,,,,2131371.5,2131371.299999714,2123514.425,2123513.4000000954,2123531.113,2131396.375,8,400,,,
trial,html.Screen,4_69_0,2023-09-11T20:39:54.500Z,,0,2,,6088.125,response,ISIC_0065066.JPG,5,ISIC_0072703.JPG,ISIC_0072703.JPG,false,0,keypress(z),500,2137484.6999998093,2137484.5,2131379.655,2131371.5,2131396.375,2137508.329,8,400,20,,ISIC_0065066.JPG
break,html.Screen,4_69_1,2023-09-11T20:39:54.500Z,,0,,,NaN,,,,,,false,,,,2137485.0999999046,2137485.0999999046,,2137484.799999714,,2137508.329,8,400,,,
break_continue,html.Screen,4_69_2,2023-09-11T20:39:54.501Z,,0,,,NaN,,,,,,false,,,,2137485.299999714,2137485.1999998093,,2137485.1999998093,,2137508.329,8,400,,,
sequence,flow.Sequence,4_69,2023-09-11T20:39:54.501Z,,0,,,6088.824999809265,completion,,,,,false,,,,2137485.299999714,2137485.1999998093,2131379.655,2131371.5,2131396.375,2137508.329,8,400,,,
trial,html.Screen,4_70_0,2023-09-11T20:39:59.445Z,,0,2,,4921.671000000089,response,ISIC_0055759.JPG,5,ISIC_0056089.JPG,ISIC_0056089.JPG,false,0,keypress(z),500,2142430.1999998093,2142430,2137491.623,2137485.5,2137508.329,2142451.336,8,400,21,,ISIC_0055759.JPG
break,html.Screen,4_70_1,2023-09-11T20:39:59.446Z,,0,,,NaN,,,,,,false,,,,2142430.6999998093,2142430.5,,2142430.299999714,,2142451.336,8,400,,,
break_continue,html.Screen,4_70_2,2023-09-11T20:39:59.446Z,,0,,,NaN,,,,,,false,,,,2142431.0999999046,2142431,,2142430.799999714,,2142451.336,8,400,,,
sequence,flow.Sequence,4_70,2023-09-11T20:39:59.447Z,,0,,,4922.671000000089,completion,,,,,false,,,,2142431.1999998093,2142431,2137491.623,2137485.5,2137508.329,2142451.336,8,400,,,
trial,html.Screen,4_71_0,2023-09-11T20:40:03.421Z,,0,2,,3953.763999904506,response,ISIC_0069504.JPG,5,ISIC_0064559.JPG,ISIC_0069504.JPG,false,1,keypress(m),500,2146405.1999998093,2146405.0999999046,2142434.733,2142431.299999714,2142451.336,2146408.927,8,400,22,,ISIC_0064559.JPG
break,html.Screen,4_71_1,2023-09-11T20:40:03.421Z,,0,,,NaN,,,,,,false,,,,2146405.6999998093,2146405.6999998093,,2146405.4000000954,,2146408.927,8,400,,,
break_continue,html.Screen,4_71_2,2023-09-11T20:40:03.421Z,,0,,,NaN,,,,,,false,,,,2146406.0999999046,2146406,,2146405.9000000954,,2146408.927,8,400,,,
sequence,flow.Sequence,4_71,2023-09-11T20:40:03.422Z,,0,,,3954.6639999998733,completion,,,,,false,,,,2146406.1999998093,2146406,2142434.733,2142431.299999714,2142451.336,2146408.927,8,400,,,
trial,html.Screen,4_72_0,2023-09-11T20:40:08.526Z,,0,2,,5101.973000095226,response,ISIC_0029502.JPG,4,ISIC_0046917.JPG,ISIC_0046917.JPG,false,0,keypress(z),500,2151511,2151510.9000000954,2146392.241,2146406.299999714,2146408.927,2151518.887,8,400,23,,ISIC_0029502.JPG
break,html.Screen,4_72_1,2023-09-11T20:40:08.527Z,,0,,,NaN,,,,,,false,,,,2151511.4000000954,2151511.299999714,,2151511.0999999046,,2151518.887,8,400,,,
break_continue,html.Screen,4_72_2,2023-09-11T20:40:08.527Z,,0,,,NaN,,,,,,false,,,,2151511.5999999046,2151511.5999999046,,2151511.5,,2151518.887,8,400,,,
sequence,flow.Sequence,4_72,2023-09-11T20:40:08.527Z,,0,,,5102.672999904491,completion,,,,,false,,,,2151511.6999998093,2151511.5999999046,2146392.241,2146406.299999714,2146408.927,2151518.887,8,400,,,
trial,html.Screen,4_73_0,2023-09-11T20:40:13.042Z,,0,2,,4507.712999904528,response,ISIC_5751956.JPG,5,ISIC_0026982.JPG,ISIC_0026982.JPG,false,0,keypress(z),500,2156026.5999999046,2156026.5999999046,2151502.214,2151511.6999998093,2151518.887,2156044.534,8,400,24,,ISIC_5751956.JPG
break,html.Screen,4_73_1,2023-09-11T20:40:13.042Z,,0,,,NaN,,,,,,false,,,,2156027.0999999046,2156027,,2156026.799999714,,2156044.534,8,400,,,
break_continue,html.Screen,4_73_2,2023-09-11T20:40:13.043Z,,0,,,NaN,,,,,,false,,,,2156027.299999714,2156027.1999998093,,2156027.0999999046,,2156044.534,8,400,,,
sequence,flow.Sequence,4_73,2023-09-11T20:40:13.043Z,,0,,,4508.312999809161,completion,,,,,false,,,,2156027.299999714,2156027.1999998093,2151502.214,2151511.6999998093,2151518.887,2156044.534,8,400,,,
trial,html.Screen,4_74_0,2023-09-11T20:40:20.549Z,,0,2,,7489.366000095382,response,ISIC_0062160.JPG,6,ISIC_0046361.JPG,ISIC_0062160.JPG,false,1,keypress(m),500,2163534.0999999046,2163533.9000000954,2156027.671,2156027.4000000954,2156044.534,2163559.123,8,400,25,,ISIC_0046361.JPG
break,html.Screen,4_74_1,2023-09-11T20:40:20.550Z,,0,,,NaN,,,,,,false,,,,2163534.5999999046,2163534.5,,2163534.1999998093,,2163559.123,8,400,,,
break_continue,html.Screen,4_74_2,2023-09-11T20:40:20.550Z,,0,,,NaN,,,,,,false,,,,2163535,2163534.9000000954,,2163534.6999998093,,2163559.123,8,400,,,
sequence,flow.Sequence,4_74,2023-09-11T20:40:20.550Z,,0,,,7490.366000095382,completion,,,,,false,,,,2163535,2163534.9000000954,2156027.671,2156027.299999714,2156044.534,2163559.123,8,400,,,
trial,html.Screen,4_75_0,2023-09-11T20:40:24.062Z,,0,2,,3487.5769998091273,response,ISIC_0844312.JPG,4,ISIC_9119549.JPG,ISIC_0844312.JPG,false,1,keypress(m),500,2167046.799999714,2167046.6999998093,2163542.267,2163535.0999999046,2163559.123,2167065.926,8,400,26,,ISIC_9119549.JPG
break,html.Screen,4_75_1,2023-09-11T20:40:24.063Z,,0,,,NaN,,,,,,false,,,,2167047.1999998093,2167047.0999999046,,2167046.9000000954,,2167065.926,8,400,,,
break_continue,html.Screen,4_75_2,2023-09-11T20:40:24.063Z,,0,,,NaN,,,,,,false,,,,2167047.4000000954,2167047.4000000954,,2167047.1999998093,,2167065.926,8,400,,,
sequence,flow.Sequence,4_75,2023-09-11T20:40:24.063Z,,0,,,3488.2770000952296,completion,,,,,false,,,,2167047.5,2167047.4000000954,2163542.267,2163535.0999999046,2163559.123,2167065.926,8,400,,,
trial,html.Screen,4_76_0,2023-09-11T20:40:27.616Z,,0,2,,3534.47400009539,response,ISIC_0024892.JPG,6,ISIC_0654846.JPG,ISIC_0024892.JPG,false,1,keypress(m),500,2170600.4000000954,2170600.4000000954,2167049.126,2167047.5,2167065.926,2170622.749,8,400,27,,ISIC_0654846.JPG
break,html.Screen,4_76_1,2023-09-11T20:40:27.617Z,,0,,,NaN,,,,,,false,,,,2170600.799999714,2170600.799999714,,2170600.5999999046,,2170622.749,8,400,,,
break_continue,html.Screen,4_76_2,2023-09-11T20:40:27.617Z,,0,,,NaN,,,,,,false,,,,2170601,2170601,,2170600.9000000954,,2170622.749,8,400,,,
sequence,flow.Sequence,4_76,2023-09-11T20:40:27.617Z,,0,,,3535.0740000000224,completion,,,,,false,,,,2170601.0999999046,2170601,2167049.126,2167047.5,2167065.926,2170622.749,8,400,,,
trial,html.Screen,4_77_0,2023-09-11T20:40:32.707Z,,0,2,,5068.050999714062,response,ISIC_0064080.JPG,5,ISIC_0010527.JPG,ISIC_0064080.JPG,false,1,keypress(m),500,2175691,2175690.799999714,2170606.057,2170601.1999998093,2170622.749,2175699.273,8,400,28,,ISIC_0010527.JPG
break,html.Screen,4_77_1,2023-09-11T20:40:32.707Z,,0,,,NaN,,,,,,false,,,,2175691.4000000954,2175691.299999714,,2175691.0999999046,,2175699.273,8,400,,,
break_continue,html.Screen,4_77_2,2023-09-11T20:40:32.708Z,,0,,,NaN,,,,,,false,,,,2175691.5999999046,2175691.5,,2175691.5,,2175699.273,8,400,,,
sequence,flow.Sequence,4_77,2023-09-11T20:40:32.708Z,,0,,,5068.751000000164,completion,,,,,false,,,,2175691.6999998093,2175691.5,2170606.057,2170601.0999999046,2170622.749,2175699.273,8,400,,,
trial,html.Screen,4_78_0,2023-09-11T20:40:36.551Z,,0,2,,3836.026999713853,response,ISIC_2287083.JPG,5,ISIC_5179620.JPG,ISIC_5179620.JPG,false,0,keypress(z),500,2179535.4000000954,2179535.299999714,2175682.596,2175691.6999998093,2175699.273,2179540.11,8,400,29,,ISIC_2287083.JPG
break,html.Screen,4_78_1,2023-09-11T20:40:36.552Z,,0,,,NaN,,,,,,false,,,,2179535.9000000954,2179535.799999714,,2179535.5,,2179540.11,8,400,,,
break_continue,html.Screen,4_78_2,2023-09-11T20:40:36.552Z,,0,,,NaN,,,,,,false,,,,2179536.0999999046,2179536.0999999046,,2179536,,2179540.11,8,400,,,
sequence,flow.Sequence,4_78,2023-09-11T20:40:36.552Z,,0,,,3836.826999904588,completion,,,,,false,,,,2179536.299999714,2179536.0999999046,2175682.596,2175691.6999998093,2175699.273,2179540.11,8,400,,,
trial,html.Screen,4_79_0,2023-09-11T20:40:40.858Z,,0,2,,4301.39000000013,response,ISIC_0011772.JPG,5,ISIC_0010321.JPG,ISIC_0011772.JPG,false,1,keypress(m),500,2183841.6999998093,2183841.5,2179523.594,2179536.299999714,2179540.11,2183848.469,8,400,30,,ISIC_0010321.JPG
break,html.Screen,4_79_1,2023-09-11T20:40:40.858Z,,0,,,NaN,,,,,,false,,,,2183842.1999998093,2183842,,2183841.799999714,,2183848.469,8,400,,,
break_continue,html.Screen,4_79_2,2023-09-11T20:40:40.858Z,,0,,,NaN,,,,,,false,,,,2183842.299999714,2183842.299999714,,2183842.1999998093,,2183848.469,8,400,,,
sequence,flow.Sequence,4_79,2023-09-11T20:40:40.858Z,,0,,,4302.189999714028,completion,,,,,false,,,,2183842.4000000954,2183842.299999714,2179523.594,2179536.299999714,2179540.11,2183848.469,8,400,,,
trial,html.Screen,4_80_0,2023-09-11T20:40:45.788Z,,0,2,,4923.431000095326,response,ISIC_0009882.JPG,5,ISIC_7988794.JPG,ISIC_0009882.JPG,false,1,keypress(m),500,2188772.0999999046,2188771.9000000954,2183831.81,2183842.5,2183848.469,2188774.681,8,400,31,,ISIC_7988794.JPG
break,html.Screen,4_80_1,2023-09-11T20:40:45.788Z,,0,,,NaN,,,,,,false,,,,2188772.4000000954,2188772.4000000954,,2188772.1999998093,,2188774.681,8,400,,,
break_continue,html.Screen,4_80_2,2023-09-11T20:40:45.789Z,,0,,,NaN,,,,,,false,,,,2188772.5999999046,2188772.5999999046,,2188772.5,,2188774.681,8,400,,,
sequence,flow.Sequence,4_80,2023-09-11T20:40:45.789Z,,0,,,4924.130999904592,completion,,,,,false,,,,2188772.6999998093,2188772.5999999046,2183831.81,2183842.5,2183848.469,2188774.681,8,400,,,
trial,html.Screen,4_81_0,2023-09-11T20:40:52.351Z,,0,2,,6560.018999809399,response,ISIC_2957732.JPG,5,ISIC_0054355.JPG,ISIC_2957732.JPG,false,1,keypress(m),500,2195334.9000000954,2195334.6999998093,2188758.128,2188772.6999998093,2188774.681,2195337.496,8,400,32,,ISIC_0054355.JPG
break,html.Screen,4_81_1,2023-09-11T20:40:52.352Z,,0,,,NaN,,,,,,false,,,,2195335.5,2195335.299999714,,2195335,,2195337.496,8,400,,,
break_continue,html.Screen,4_81_2,2023-09-11T20:40:52.352Z,,0,,,NaN,,,,,,false,,,,2195335.6999998093,2195335.5999999046,,2195335.5999999046,,2195337.496,8,400,,,
sequence,flow.Sequence,4_81,2023-09-11T20:40:52.352Z,,0,,,6560.918999904767,completion,,,,,false,,,,2195335.799999714,2195335.5999999046,2188758.128,2188772.6999998093,2188774.681,2195337.496,8,400,,,
trial,html.Screen,4_82_0,2023-09-11T20:40:56.753Z,,0,2,,4399.803999714088,response,ISIC_4240225.JPG,6,ISIC_0002862.JPG,ISIC_4240225.JPG,false,1,keypress(m),500,2199737.4000000954,2199737.299999714,2195320.914,2195335.799999714,2195337.496,2199746.072,8,400,33,,ISIC_0002862.JPG
break,html.Screen,4_82_1,2023-09-11T20:40:56.754Z,,0,,,NaN,,,,,,false,,,,2199737.9000000954,2199737.799999714,,2199737.5,,2199746.072,8,400,,,
break_continue,html.Screen,4_82_2,2023-09-11T20:40:56.754Z,,0,,,NaN,,,,,,false,,,,2199738,2199738,,2199737.9000000954,,2199746.072,8,400,,,
sequence,flow.Sequence,4_82,2023-09-11T20:40:56.754Z,,0,,,4400.50400000019,completion,,,,,false,,,,2199738.1999998093,2199738,2195320.914,2195335.799999714,2195337.496,2199746.072,8,400,,,
trial,html.Screen,4_83_0,2023-09-11T20:41:02.323Z,,0,2,,5561.2279997137375,response,ISIC_0034216.JPG,5,ISIC_5392118.JPG,ISIC_0034216.JPG,false,1,keypress(m),500,2205307.4000000954,2205307.299999714,2199729.54,2199738.1999998093,2199746.072,2205323.619,8,400,34,,ISIC_5392118.JPG
break,html.Screen,4_83_1,2023-09-11T20:41:02.324Z,,0,,,NaN,,,,,,false,,,,2205308,2205307.9000000954,,2205307.5999999046,,2205323.619,8,400,,,
break_continue,html.Screen,4_83_2,2023-09-11T20:41:02.324Z,,0,,,NaN,,,,,,false,,,,2205308.299999714,2205308.299999714,,2205308.0999999046,,2205323.619,8,400,,,
sequence,flow.Sequence,4_83,2023-09-11T20:41:02.324Z,,0,,,5562.2279997137375,completion,,,,,false,,,,2205308.4000000954,2205308.299999714,2199729.54,2199738.1999998093,2199746.072,2205323.619,8,400,,,
trial,html.Screen,4_84_0,2023-09-11T20:41:07.814Z,,0,2,,5474.080999809317,response,ISIC_0025397.JPG,5,ISIC_8246858.JPG,ISIC_0025397.JPG,false,1,keypress(m),500,2210798,2210797.6999998093,2205307.076,2205308.5,2205323.619,2210817.658,8,400,35,,ISIC_8246858.JPG
break,html.Screen,4_84_1,2023-09-11T20:41:07.815Z,,0,,,NaN,,,,,,false,,,,2210798.5,2210798.4000000954,,2210798.0999999046,,2210817.658,8,400,,,
break_continue,html.Screen,4_84_2,2023-09-11T20:41:07.815Z,,0,,,NaN,,,,,,false,,,,2210798.799999714,2210798.799999714,,2210798.6999998093,,2210817.658,8,400,,,
sequence,flow.Sequence,4_84,2023-09-11T20:41:07.815Z,,0,,,5475.18099971395,completion,,,,,false,,,,2210798.9000000954,2210798.799999714,2205307.076,2205308.4000000954,2205323.619,2210817.658,8,400,,,
trial,html.Screen,4_85_0,2023-09-11T20:41:11.785Z,,0,2,,3951.041999809444,response,ISIC_4826037.JPG,5,ISIC_0067427.JPG,ISIC_0067427.JPG,false,0,keypress(z),500,2214768.799999714,2214768.6999998093,2210800.942,2210799,2210817.658,2214792.007,8,400,36,,ISIC_4826037.JPG
break,html.Screen,4_85_1,2023-09-11T20:41:11.785Z,,0,,,NaN,,,,,,false,,,,2214769.4000000954,2214769.299999714,,2214769,,2214792.007,8,400,,,
break_continue,html.Screen,4_85_2,2023-09-11T20:41:11.786Z,,0,,,NaN,,,,,,false,,,,2214769.799999714,2214769.6999998093,,2214769.5999999046,,2214792.007,8,400,,,
sequence,flow.Sequence,4_85,2023-09-11T20:41:11.786Z,,0,,,3952.041999809444,completion,,,,,false,,,,2214769.799999714,2214769.6999998093,2210800.942,2210799,2210817.658,2214792.007,8,400,,,
trial,html.Screen,4_86_0,2023-09-11T20:41:15.948Z,,0,2,,4139.393000095151,response,ISIC_0012708.JPG,5,ISIC_5127759.JPG,ISIC_0012708.JPG,false,1,keypress(m),500,2218931.5999999046,2218931.4000000954,2214775.421,2214769.9000000954,2214792.007,2218950.121,8,400,37,,ISIC_5127759.JPG
break,html.Screen,4_86_1,2023-09-11T20:41:15.948Z,,0,,,NaN,,,,,,false,,,,2218932,2218931.9000000954,,2218931.5999999046,,2218950.121,8,400,,,
break_continue,html.Screen,4_86_2,2023-09-11T20:41:15.948Z,,0,,,NaN,,,,,,false,,,,2218932.0999999046,2218932.0999999046,,2218932,,2218950.121,8,400,,,
sequence,flow.Sequence,4_86,2023-09-11T20:41:15.948Z,,0,,,4140.0929999044165,completion,,,,,false,,,,2218932.299999714,2218932.0999999046,2214775.421,2214769.9000000954,2214792.007,2218950.121,8,400,,,
trial,html.Screen,4_87_0,2023-09-11T20:41:23.502Z,,0,2,,7536.078999809455,response,ISIC_9792253.JPG,5,ISIC_0028472.JPG,ISIC_0028472.JPG,false,0,keypress(z),500,2226486.299999714,2226486.1999998093,2218933.4,2218932.4000000954,2218950.121,2226498.206,8,400,38,,ISIC_9792253.JPG
break,html.Screen,4_87_1,2023-09-11T20:41:23.503Z,,0,,,NaN,,,,,,false,,,,2226486.6999998093,2226486.5999999046,,2226486.4000000954,,2226498.206,8,400,,,
break_continue,html.Screen,4_87_2,2023-09-11T20:41:23.503Z,,0,,,NaN,,,,,,false,,,,2226486.799999714,2226486.799999714,,2226486.6999998093,,2226498.206,8,400,,,
sequence,flow.Sequence,4_87,2023-09-11T20:41:23.503Z,,0,,,7536.678999714088,completion,,,,,false,,,,2226486.9000000954,2226486.799999714,2218933.4,2218932.299999714,2218950.121,2226498.206,8,400,,,
trial,html.Screen,4_88_0,2023-09-11T20:41:29.058Z,,0,2,,5542.694000095595,response,ISIC_0063168.JPG,6,ISIC_1453671.JPG,ISIC_0063168.JPG,false,1,keypress(m),500,2232041,2232040.9000000954,2226481.466,2226487,2226498.206,2232042.273,8,400,39,,ISIC_1453671.JPG
break,html.Screen,4_88_1,2023-09-11T20:41:29.058Z,,0,,,NaN,,,,,,false,,,,2232041.5999999046,2232041.5,,2232041.1999998093,,2232042.273,8,400,,,
break_continue,html.Screen,4_88_2,2023-09-11T20:41:29.059Z,,0,,,NaN,,,,,,false,,,,2232041.9000000954,2232041.799999714,,2232041.6999998093,,2232042.273,8,400,,,
sequence,flow.Sequence,4_88,2023-09-11T20:41:29.059Z,,0,,,5543.593999714125,completion,,,,,false,,,,2232042,2232041.799999714,2226481.466,2226487,2226498.206,2232042.273,8,400,,,
trial,html.Screen,4_89_0,2023-09-11T20:41:34.058Z,,0,2,,4999.326999904588,response,ISIC_0012338.JPG,5,ISIC_0202167.JPG,ISIC_0012338.JPG,false,1,keypress(m),500,2237041.6999998093,2237041.5999999046,2232025.614,2232042,2232042.273,2237068.721,8,400,40,,ISIC_0202167.JPG
break,html.Screen,4_89_1,2023-09-11T20:41:34.059Z,,0,,,NaN,,,,,,false,,,,2237042.0999999046,2237042,,2237041.799999714,,2237068.721,8,400,,,
break_continue,html.Screen,4_89_2,2023-09-11T20:41:34.059Z,,0,,,NaN,,,,,,false,,,,2237042.1999998093,2237042.1999998093,,2237042.0999999046,,2237068.721,8,400,,,
sequence,flow.Sequence,4_89,2023-09-11T20:41:34.059Z,,0,,,4999.92699980922,completion,,,,,false,,,,2237042.4000000954,2237042.1999998093,2232025.614,2232042,2232042.273,2237068.721,8,400,,,
trial,html.Screen,4_90_0,2023-09-11T20:41:38.508Z,,0,2,,4422.679000095464,response,ISIC_0033224.JPG,5,ISIC_9560298.JPG,ISIC_0033224.JPG,false,1,keypress(m),500,2241491.5999999046,2241491.4000000954,2237052.121,2237042.4000000954,2237068.721,2241494.03,8,400,41,,ISIC_9560298.JPG
break,html.Screen,4_90_1,2023-09-11T20:41:38.509Z,,0,,,NaN,,,,,,false,,,,2241492.0999999046,2241491.9000000954,,2241491.5999999046,,2241494.03,8,400,,,
break_continue,html.Screen,4_90_2,2023-09-11T20:41:38.509Z,,0,,,NaN,,,,,,false,,,,2241492.4000000954,2241492.4000000954,,2241492.1999998093,,2241494.03,8,400,,,
sequence,flow.Sequence,4_90,2023-09-11T20:41:38.509Z,,0,,,4423.679000095464,completion,,,,,false,,,,2241492.5,2241492.4000000954,2237052.121,2237042.4000000954,2237068.721,2241494.03,8,400,,,
trial,html.Screen,4_91_0,2023-09-11T20:41:43.438Z,,0,2,,4927.370000095572,response,ISIC_0033856.JPG,4,ISIC_0024208.JPG,ISIC_0033856.JPG,false,1,keypress(m),500,2246421.5,2246421.4000000954,2241477.32,2241492.5999999046,2241494.03,2246453.734,8,400,42,,ISIC_0024208.JPG
break,html.Screen,4_91_1,2023-09-11T20:41:43.439Z,,0,,,NaN,,,,,,false,,,,2246421.9000000954,2246421.799999714,,2246421.5999999046,,2246453.734,8,400,,,
break_continue,html.Screen,4_91_2,2023-09-11T20:41:43.439Z,,0,,,NaN,,,,,,false,,,,2246422,2246422,,2246421.9000000954,,2246453.734,8,400,,,
sequence,flow.Sequence,4_91,2023-09-11T20:41:43.439Z,,0,,,4927.970000000205,completion,,,,,false,,,,2246422.1999998093,2246422,2241477.32,2241492.5999999046,2241494.03,2246453.734,8,400,,,
trial,html.Screen,4_92_0,2023-09-11T20:41:48.321Z,,0,2,,4850.865999904461,response,ISIC_0007029.JPG,5,ISIC_0000469.JPG,ISIC_0000469.JPG,false,0,keypress(z),500,2251304.799999714,2251304.5999999046,2246437.027,2246422.1999998093,2246453.734,2251329.758,8,400,43,,ISIC_0007029.JPG
break,html.Screen,4_92_1,2023-09-11T20:41:48.322Z,,0,,,NaN,,,,,,false,,,,2251305.1999998093,2251305.0999999046,,2251304.9000000954,,2251329.758,8,400,,,
break_continue,html.Screen,4_92_2,2023-09-11T20:41:48.322Z,,0,,,NaN,,,,,,false,,,,2251305.4000000954,2251305.299999714,,2251305.1999998093,,2251329.758,8,400,,,
sequence,flow.Sequence,4_92,2023-09-11T20:41:48.322Z,,0,,,4851.565999713726,completion,,,,,false,,,,2251305.4000000954,2251305.299999714,2246437.027,2246422.1999998093,2246453.734,2251329.758,8,400,,,
trial,html.Screen,4_93_0,2023-09-11T20:41:53.657Z,,0,2,,5310.441999809351,response,ISIC_9223679.JPG,5,ISIC_3289574.JPG,ISIC_3289574.JPG,false,0,keypress(z),500,2256640.299999714,2256640.1999998093,2251313.124,2251305.4000000954,2251329.758,2256656.925,8,400,44,,ISIC_9223679.JPG
break,html.Screen,4_93_1,2023-09-11T20:41:53.658Z,,0,,,NaN,,,,,,false,,,,2256640.9000000954,2256640.799999714,,2256640.5,,2256656.925,8,400,,,
break_continue,html.Screen,4_93_2,2023-09-11T20:41:53.658Z,,0,,,NaN,,,,,,false,,,,2256641.4000000954,2256641.299999714,,2256641,,2256656.925,8,400,,,
sequence,flow.Sequence,4_93,2023-09-11T20:41:53.658Z,,0,,,5311.541999713983,completion,,,,,false,,,,2256641.5999999046,2256641.299999714,2251313.124,2251305.4000000954,2251329.758,2256656.925,8,400,,,
trial,html.Screen,4_94_0,2023-09-11T20:41:57.501Z,,0,2,,3826.9750000955537,response,ISIC_0010440.JPG,4,ISIC_0032844.JPG,ISIC_0032844.JPG,false,0,keypress(z),500,2260484.0999999046,2260483.9000000954,2256640.155,2256641.799999714,2256656.925,2260514.393,8,400,45,,ISIC_0010440.JPG
break,html.Screen,4_94_1,2023-09-11T20:41:57.501Z,,0,,,NaN,,,,,,false,,,,2260484.5,2260484.4000000954,,2260484.0999999046,,2260514.393,8,400,,,
break_continue,html.Screen,4_94_2,2023-09-11T20:41:57.501Z,,0,,,NaN,,,,,,false,,,,2260484.799999714,2260484.799999714,,2260484.5999999046,,2260514.393,8,400,,,
sequence,flow.Sequence,4_94,2023-09-11T20:41:57.502Z,,0,,,3827.874999714084,completion,,,,,false,,,,2260484.9000000954,2260484.799999714,2256640.155,2256641.6999998093,2256656.925,2260514.393,8,400,,,
trial,html.Screen,4_95_0,2023-09-11T20:42:03.207Z,,0,2,,5675.507000095211,response,ISIC_0011799.JPG,5,ISIC_9756117.JPG,ISIC_0011799.JPG,false,1,keypress(m),500,2266190.0999999046,2266189.9000000954,2260497.717,2260485,2260514.393,2266208.737,8,400,46,,ISIC_9756117.JPG
break,html.Screen,4_95_1,2023-09-11T20:42:03.207Z,,0,,,NaN,,,,,,false,,,,2266190.5,2266190.4000000954,,2266190.1999998093,,2266208.737,8,400,,,
break_continue,html.Screen,4_95_2,2023-09-11T20:42:03.207Z,,0,,,NaN,,,,,,false,,,,2266190.6999998093,2266190.5999999046,,2266190.5,,2266208.737,8,400,,,
sequence,flow.Sequence,4_95,2023-09-11T20:42:03.207Z,,0,,,5676.206999904476,completion,,,,,false,,,,2266190.6999998093,2266190.5999999046,2260497.717,2260484.9000000954,2260514.393,2266208.737,8,400,,,
trial,html.Screen,4_96_0,2023-09-11T20:42:08.272Z,,0,2,,5046.5629997137,response,ISIC_0058891.JPG,4,ISIC_0028906.JPG,ISIC_0028906.JPG,false,0,keypress(z),500,2271255.4000000954,2271255.299999714,2266192.069,2266190.799999714,2266208.737,2271268.613,8,400,47,,ISIC_0058891.JPG
break,html.Screen,4_96_1,2023-09-11T20:42:08.273Z,,0,,,NaN,,,,,,false,,,,2271255.9000000954,2271255.799999714,,2271255.5,,2271268.613,8,400,,,
break_continue,html.Screen,4_96_2,2023-09-11T20:42:08.273Z,,0,,,NaN,,,,,,false,,,,2271256.1999998093,2271256.0999999046,,2271256,,2271268.613,8,400,,,
sequence,flow.Sequence,4_96,2023-09-11T20:42:08.273Z,,0,,,5047.362999904435,completion,,,,,false,,,,2271256.299999714,2271256.0999999046,2266192.069,2266190.799999714,2266208.737,2271268.613,8,400,,,
trial,html.Screen,4_97_0,2023-09-11T20:42:12.200Z,,0,2,,3913.8870000001043,response,ISIC_4118762.JPG,5,ISIC_0072893.JPG,ISIC_0072893.JPG,false,0,keypress(z),500,2275182.9000000954,2275182.5,2271251.906,2271256.4000000954,2271268.613,2275209.606,8,400,48,,ISIC_4118762.JPG
break,html.Screen,4_97_1,2023-09-11T20:42:12.201Z,,0,,,NaN,,,,,,false,,,,2275184.1999998093,2275183.9000000954,,2275183.299999714,,2275209.606,8,400,,,
break_continue,html.Screen,4_97_2,2023-09-11T20:42:12.201Z,,0,,,NaN,,,,,,false,,,,2275184.6999998093,2275184.5999999046,,2275184.299999714,,2275209.606,8,400,,,
sequence,flow.Sequence,4_97,2023-09-11T20:42:12.202Z,,0,,,3915.986999904737,completion,,,,,false,,,,2275184.9000000954,2275184.5999999046,2271251.906,2271256.4000000954,2271268.613,2275209.606,8,400,,,
trial,html.Screen,4_98_0,2023-09-11T20:42:19.199Z,,0,2,,6973.09399980912,response,ISIC_0000394.JPG,6,ISIC_6299036.JPG,ISIC_0000394.JPG,false,1,keypress(m),500,2282182.799999714,2282182.6999998093,2275192.922,2275185.0999999046,2275209.606,2282189.876,8,400,49,,ISIC_6299036.JPG
break,html.Screen,4_98_1,2023-09-11T20:42:19.200Z,,0,,,NaN,,,,,,false,,,,2282183.4000000954,2282183.1999998093,,2282182.9000000954,,2282189.876,8,400,,,
break_continue,html.Screen,4_98_2,2023-09-11T20:42:19.200Z,,0,,,NaN,,,,,,false,,,,2282183.6999998093,2282183.5999999046,,2282183.5,,2282189.876,8,400,,,
sequence,flow.Sequence,4_98,2023-09-11T20:42:19.200Z,,0,,,6973.993999904487,completion,,,,,false,,,,2282183.799999714,2282183.5999999046,2275192.922,2275185,2275209.606,2282189.876,8,400,,,
trial,html.Screen,4_99_0,2023-09-11T20:42:23.906Z,,0,2,,4698.923999713734,response,ISIC_0032036.JPG,4,ISIC_0065204.JPG,ISIC_0065204.JPG,false,0,keypress(z),500,2286889,2286888.799999714,2282173.209,2282183.9000000954,2282189.876,2286899.046,8,400,50,,ISIC_0032036.JPG
break,html.Screen,4_99_1,2023-09-11T20:42:33.903Z,,0,,,10002.808999999892,timeout,,,,,false,,,,2296885.5999999046,2296885.199,2286882.344,2286889.1999998093,2286899.046,2296901.855,8,400,,,
break_continue,html.Screen,4_99_2,2023-09-11T20:45:45.946Z,,0,,,192010.34499980928,response,,,,,false,continue,keypress(Space),,2488927.5,2488912.1999998093,2296885.199,2296885.6999998093,2296901.855,2488942.204,8,400,,,
sequence,flow.Sequence,4_99,2023-09-11T20:45:45.946Z,,0,,,206722.3239998091,completion,,,,,false,,,,2488927.5999999046,2488912.1999998093,2282173.209,2282183.9000000954,2282189.876,2488942.204,8,400,,,
trial,html.Screen,4_100_0,2023-09-11T20:45:53.724Z,,0,3,,7762.9959998093545,response,ISIC_8798059.JPG,5,ISIC_2804864.JPG,ISIC_8798059.JPG,false,1,keypress(m),500,2496705.4000000954,2496705.1999998093,2488925.453,2488927.6999998093,2488942.204,2496724.177,8,400,1,,ISIC_2804864.JPG
break,html.Screen,4_100_1,2023-09-11T20:45:53.725Z,,0,,,NaN,,,,,,false,,,,2496705.6999998093,2496705.6999998093,,2496705.4000000954,,2496724.177,8,400,,,
break_continue,html.Screen,4_100_2,2023-09-11T20:45:53.725Z,,0,,,NaN,,,,,,false,,,,2496705.9000000954,2496705.799999714,,2496705.799999714,,2496724.177,8,400,,,
sequence,flow.Sequence,4_100,2023-09-11T20:45:53.725Z,,0,,,7763.595999713987,completion,,,,,false,,,,2496706,2496705.799999714,2488925.453,2488927.6999998093,2488942.204,2496724.177,8,400,,,
trial,html.Screen,4_101_0,2023-09-11T20:45:59.392Z,,0,3,,5648.622999713756,response,ISIC_3183782.JPG,4,ISIC_3590997.JPG,ISIC_3590997.JPG,false,0,keypress(z),500,2502373,2502372.799999714,2496707.401,2496706,2496724.177,2502385.106,8,400,2,,ISIC_3183782.JPG
break,html.Screen,4_101_1,2023-09-11T20:45:59.393Z,,0,,,NaN,,,,,,false,,,,2502373.799999714,2502373.5999999046,,2502373.299999714,,2502385.106,8,400,,,
break_continue,html.Screen,4_101_2,2023-09-11T20:45:59.393Z,,0,,,NaN,,,,,,false,,,,2502374.1999998093,2502374.0999999046,,2502374,,2502385.106,8,400,,,
sequence,flow.Sequence,4_101,2023-09-11T20:45:59.393Z,,0,,,5649.922999904491,completion,,,,,false,,,,2502374.4000000954,2502374.0999999046,2496707.401,2496706,2496724.177,2502385.106,8,400,,,
trial,html.Screen,4_102_0,2023-09-11T20:46:04.105Z,,0,3,,4701.294000095222,response,ISIC_9112747.JPG,6,ISIC_1492055.JPG,ISIC_9112747.JPG,false,1,keypress(m),500,2507086.5999999046,2507086.4000000954,2502368.327,2502374.5,2502385.106,2507110.965,8,400,3,,ISIC_1492055.JPG
break,html.Screen,4_102_1,2023-09-11T20:46:04.106Z,,0,,,NaN,,,,,,false,,,,2507087,2507086.9000000954,,2507086.6999998093,,2507110.965,8,400,,,
break_continue,html.Screen,4_102_2,2023-09-11T20:46:04.106Z,,0,,,NaN,,,,,,false,,,,2507087.1999998093,2507087.1999998093,,2507087,,2507110.965,8,400,,,
sequence,flow.Sequence,4_102,2023-09-11T20:46:04.106Z,,0,,,4702.09399980912,completion,,,,,false,,,,2507087.299999714,2507087.1999998093,2502368.327,2502374.4000000954,2502385.106,2507110.965,8,400,,,
trial,html.Screen,4_103_0,2023-09-11T20:46:09.678Z,,0,3,,5548.234999809414,response,ISIC_0060535.JPG,6,ISIC_8630818.JPG,ISIC_0060535.JPG,false,1,keypress(m),500,2512659.4000000954,2512659.1999998093,2507094.257,2507087.4000000954,2507110.965,2512671.796,8,400,4,,ISIC_8630818.JPG
break,html.Screen,4_103_1,2023-09-11T20:46:09.679Z,,0,,,NaN,,,,,,false,,,,2512660.1999998093,2512659.9000000954,,2512659.5999999046,,2512671.796,8,400,,,
break_continue,html.Screen,4_103_2,2023-09-11T20:46:09.679Z,,0,,,NaN,,,,,,false,,,,2512660.5999999046,2512660.4000000954,,2512660.299999714,,2512671.796,8,400,,,
sequence,flow.Sequence,4_103,2023-09-11T20:46:09.679Z,,0,,,5549.435000095516,completion,,,,,false,,,,2512660.5999999046,2512660.4000000954,2507094.257,2507087.299999714,2507110.965,2512671.796,8,400,,,
trial,html.Screen,4_104_0,2023-09-11T20:46:14.049Z,,0,3,,4358.703999999911,response,ISIC_9155465.JPG,5,ISIC_0028181.JPG,ISIC_0028181.JPG,false,0,keypress(z),500,2517030.6999998093,2517030.5,2512655.086,2512660.6999998093,2512671.796,2517063.665,8,400,5,,ISIC_9155465.JPG
break,html.Screen,4_104_1,2023-09-11T20:46:14.050Z,,0,,,NaN,,,,,,false,,,,2517031.1999998093,2517031,,2517030.6999998093,,2517063.665,8,400,,,
break_continue,html.Screen,4_104_2,2023-09-11T20:46:14.050Z,,0,,,NaN,,,,,,false,,,,2517031.299999714,2517031.299999714,,2517031.1999998093,,2517063.665,8,400,,,
sequence,flow.Sequence,4_104,2023-09-11T20:46:14.050Z,,0,,,4359.503999713808,completion,,,,,false,,,,2517031.5,2517031.299999714,2512655.086,2512660.6999998093,2512671.796,2517063.665,8,400,,,
trial,html.Screen,4_105_0,2023-09-11T20:46:18.740Z,,0,3,,4657.434999904595,response,ISIC_0010313.JPG,5,ISIC_0000452.JPG,ISIC_0000452.JPG,false,0,keypress(z),500,2521721.1999998093,2521721.0999999046,2517047.047,2517031.5,2517063.665,2521722.649,8,400,6,,ISIC_0010313.JPG
break,html.Screen,4_105_1,2023-09-11T20:46:18.740Z,,0,,,NaN,,,,,,false,,,,2521721.6999998093,2521721.5,,2521721.4000000954,,2521722.649,8,400,,,
break_continue,html.Screen,4_105_2,2023-09-11T20:46:18.741Z,,0,,,NaN,,,,,,false,,,,2521721.9000000954,2521721.9000000954,,2521721.6999998093,,2521722.649,8,400,,,
sequence,flow.Sequence,4_105,2023-09-11T20:46:18.741Z,,0,,,4658.23500009533,completion,,,,,false,,,,2521722,2521721.9000000954,2517047.047,2517031.5,2517063.665,2521722.649,8,400,,,
trial,html.Screen,4_106_0,2023-09-11T20:46:23.799Z,,0,3,,5056.650999713689,response,ISIC_1566215.JPG,5,ISIC_0032856.JPG,ISIC_0032856.JPG,false,0,keypress(z),500,2526779.6999998093,2526779.299999714,2521705.936,2521722.0999999046,2521722.649,2526782.641,8,400,7,,ISIC_1566215.JPG
break,html.Screen,4_106_1,2023-09-11T20:46:23.801Z,,0,,,NaN,,,,,,false,,,,2526782.0999999046,2526781.5,,2526780.4000000954,,2526782.641,8,400,,,
break_continue,html.Screen,4_106_2,2023-09-11T20:46:23.804Z,,0,,,NaN,,,,,,false,,,,2526784.6999998093,2526784.1999998093,,2526782.4000000954,,2526782.641,8,400,,,
sequence,flow.Sequence,4_106,2023-09-11T20:46:23.804Z,,0,,,5061.5509998090565,completion,,,,,false,,,,2526785.0999999046,2526784.1999998093,2521705.936,2521722.0999999046,2521722.649,2526782.641,8,400,,,
trial,html.Screen,4_107_0,2023-09-11T20:46:28.190Z,,0,3,,4388.259000095539,response,ISIC_0011127.JPG,5,ISIC_3520591.JPG,ISIC_0011127.JPG,false,1,keypress(m),500,2531171.0999999046,2531170.9000000954,2526765.806,2526785.5,2526782.641,2531174.42,8,400,8,,ISIC_3520591.JPG
break,html.Screen,4_107_1,2023-09-11T20:46:28.191Z,,0,,,NaN,,,,,,false,,,,2531172,2531171.5999999046,,2531171.299999714,,2531174.42,8,400,,,
break_continue,html.Screen,4_107_2,2023-09-11T20:46:28.191Z,,0,,,NaN,,,,,,false,,,,2531172.4000000954,2531172.299999714,,2531172.0999999046,,2531174.42,8,400,,,
sequence,flow.Sequence,4_107,2023-09-11T20:46:28.191Z,,0,,,4389.658999714069,completion,,,,,false,,,,2531172.5,2531172.299999714,2526765.806,2526785.4000000954,2526782.641,2531174.42,8,400,,,
trial,html.Screen,4_108_0,2023-09-11T20:46:34.962Z,,0,3,,6768.480000095442,response,ISIC_0011957.JPG,5,ISIC_2075546.JPG,ISIC_0011957.JPG,false,1,keypress(m),500,2537943,2537942.9000000954,2531157.855,2531172.5999999046,2531174.42,2537970.978,8,400,9,,ISIC_2075546.JPG
break,html.Screen,4_108_1,2023-09-11T20:46:34.962Z,,0,,,NaN,,,,,,false,,,,2537943.4000000954,2537943.299999714,,2537943.1999998093,,2537970.978,8,400,,,
break_continue,html.Screen,4_108_2,2023-09-11T20:46:34.962Z,,0,,,NaN,,,,,,false,,,,2537943.5999999046,2537943.5999999046,,2537943.4000000954,,2537970.978,8,400,,,
sequence,flow.Sequence,4_108,2023-09-11T20:46:34.962Z,,0,,,6769.179999904707,completion,,,,,false,,,,2537943.5999999046,2537943.5999999046,2531157.855,2531172.5999999046,2531174.42,2537970.978,8,400,,,
trial,html.Screen,4_109_0,2023-09-11T20:46:39.781Z,,0,3,,4790.8219997137785,response,ISIC_2743014.JPG,5,ISIC_4803943.JPG,ISIC_4803943.JPG,false,0,keypress(z),500,2542762.0999999046,2542761.799999714,2537954.242,2537943.6999998093,2537970.978,2542763.651,8,400,10,,ISIC_2743014.JPG
break,html.Screen,4_109_1,2023-09-11T20:46:39.783Z,,0,,,NaN,,,,,,false,,,,2542764.5,2542763.5,,2542762.5,,2542763.651,8,400,,,
break_continue,html.Screen,4_109_2,2023-09-11T20:46:39.784Z,,0,,,NaN,,,,,,false,,,,2542765.5999999046,2542765.4000000954,,2542764.799999714,,2542763.651,8,400,,,
sequence,flow.Sequence,4_109,2023-09-11T20:46:39.785Z,,0,,,4794.422000095248,completion,,,,,false,,,,2542765.9000000954,2542765.4000000954,2537954.242,2537943.6999998093,2537970.978,2542763.651,8,400,,,
trial,html.Screen,4_110_0,2023-09-11T20:46:46.670Z,,0,3,,6885.948999904562,response,ISIC_7776719.JPG,5,ISIC_1595325.JPG,ISIC_1595325.JPG,false,0,keypress(z),500,2549649.6999998093,2549649.5999999046,2542746.978,2542766.0999999046,2542763.651,2549660.329,8,400,11,,ISIC_7776719.JPG
break,html.Screen,4_110_1,2023-09-11T20:46:46.670Z,,0,,,NaN,,,,,,false,,,,2549650.0999999046,2549650,,2549649.799999714,,2549660.329,8,400,,,
break_continue,html.Screen,4_110_2,2023-09-11T20:46:46.670Z,,0,,,NaN,,,,,,false,,,,2549650.299999714,2549650.299999714,,2549650.299999714,,2549660.329,8,400,,,
sequence,flow.Sequence,4_110,2023-09-11T20:46:46.671Z,,0,,,6886.648999713827,completion,,,,,false,,,,2549650.5,2549650.299999714,2542746.978,2542766.0999999046,2542763.651,2549660.329,8,400,,,
trial,html.Screen,4_111_0,2023-09-11T20:46:52.544Z,,0,3,,5863.171000000089,response,ISIC_1632313.JPG,5,ISIC_7175697.JPG,ISIC_7175697.JPG,false,0,keypress(z),500,2555523.5999999046,2555523.5,2549643.694,2549650.5,2549660.329,2555538.552,8,400,12,,ISIC_1632313.JPG
break,html.Screen,4_111_1,2023-09-11T20:46:52.544Z,,0,,,NaN,,,,,,false,,,,2555524.0999999046,2555524,,2555523.6999998093,,2555538.552,8,400,,,
break_continue,html.Screen,4_111_2,2023-09-11T20:46:52.544Z,,0,,,NaN,,,,,,false,,,,2555524.299999714,2555524.299999714,,2555524.1999998093,,2555538.552,8,400,,,
sequence,flow.Sequence,4_111,2023-09-11T20:46:52.544Z,,0,,,5863.970999713987,completion,,,,,false,,,,2555524.4000000954,2555524.299999714,2549643.694,2549650.5,2549660.329,2555538.552,8,400,,,
trial,html.Screen,4_112_0,2023-09-11T20:46:58.386Z,,0,3,,5826.848000095226,response,ISIC_0030952.JPG,4,ISIC_0056957.JPG,ISIC_0056957.JPG,false,0,keypress(z),500,2561365.6999998093,2561365.4000000954,2555521.794,2555524.4000000954,2555538.552,2561366.509,8,400,13,,ISIC_0030952.JPG
break,html.Screen,4_112_1,2023-09-11T20:46:58.387Z,,0,,,NaN,,,,,,false,,,,2561366.9000000954,2561366.5,,2561366,,2561366.509,8,400,,,
break_continue,html.Screen,4_112_2,2023-09-11T20:46:58.388Z,,0,,,NaN,,,,,,false,,,,2561368.299999714,2561367.799999714,,2561367.299999714,,2561366.509,8,400,,,
sequence,flow.Sequence,4_112,2023-09-11T20:46:58.389Z,,0,,,5829.247999713756,completion,,,,,false,,,,2561369.299999714,2561367.799999714,2555521.794,2555524.4000000954,2555538.552,2561366.509,8,400,,,
trial,html.Screen,4_113_0,2023-09-11T20:47:02.058Z,,0,3,,3671.4909999999218,response,ISIC_1807276.JPG,5,ISIC_0062382.JPG,ISIC_0062382.JPG,false,0,keypress(z),500,2565038.0999999046,2565038,2561366.46,2561371,2561366.509,2565040.28,8,400,14,,ISIC_1807276.JPG
break,html.Screen,4_113_1,2023-09-11T20:47:02.059Z,,0,,,NaN,,,,,,false,,,,2565038.5999999046,2565038.4000000954,,2565038.299999714,,2565040.28,8,400,,,
break_continue,html.Screen,4_113_2,2023-09-11T20:47:02.059Z,,0,,,NaN,,,,,,false,,,,2565038.799999714,2565038.6999998093,,2565038.5999999046,,2565040.28,8,400,,,
sequence,flow.Sequence,4_113,2023-09-11T20:47:02.059Z,,0,,,3672.190999809187,completion,,,,,false,,,,2565039,2565038.6999998093,2561366.46,2561369.6999998093,2561366.509,2565040.28,8,400,,,
trial,html.Screen,4_114_0,2023-09-11T20:47:07.173Z,,0,3,,5112.019999714103,response,ISIC_0070888.JPG,4,ISIC_5499139.JPG,ISIC_0070888.JPG,false,1,keypress(m),500,2570152.4000000954,2570152.299999714,2565023.668,2565039.1999998093,2565040.28,2570166.997,8,400,15,,ISIC_5499139.JPG
break,html.Screen,4_114_1,2023-09-11T20:47:07.173Z,,0,,,NaN,,,,,,false,,,,2570152.799999714,2570152.6999998093,,2570152.5,,2570166.997,8,400,,,
break_continue,html.Screen,4_114_2,2023-09-11T20:47:07.173Z,,0,,,NaN,,,,,,false,,,,2570153,2570152.9000000954,,2570152.799999714,,2570166.997,8,400,,,
sequence,flow.Sequence,4_114,2023-09-11T20:47:07.173Z,,0,,,5112.620000095572,completion,,,,,false,,,,2570153.0999999046,2570152.9000000954,2565023.668,2565039.0999999046,2565040.28,2570166.997,8,400,,,
trial,html.Screen,4_115_0,2023-09-11T20:47:12.346Z,,0,3,,5158.503000000026,response,ISIC_0029050.JPG,5,ISIC_4391909.JPG,ISIC_0029050.JPG,false,1,keypress(m),500,2575325.5999999046,2575325.5,2570150.292,2570153.1999998093,2570166.997,2575326.958,8,400,16,,ISIC_4391909.JPG
break,html.Screen,4_115_1,2023-09-11T20:47:12.346Z,,0,,,NaN,,,,,,false,,,,2575326.299999714,2575326.0999999046,,2575325.799999714,,2575326.958,8,400,,,
break_continue,html.Screen,4_115_2,2023-09-11T20:47:12.347Z,,0,,,NaN,,,,,,false,,,,2575326.5999999046,2575326.5,,2575326.4000000954,,2575326.958,8,400,,,
sequence,flow.Sequence,4_115,2023-09-11T20:47:12.347Z,,0,,,5159.503000000026,completion,,,,,false,,,,2575326.6999998093,2575326.5,2570150.292,2570153.0999999046,2570166.997,2575326.958,8,400,,,
trial,html.Screen,4_116_0,2023-09-11T20:47:19.348Z,,0,3,,7000.241999809165,response,ISIC_1488727.JPG,4,ISIC_3936223.JPG,ISIC_3936223.JPG,false,0,keypress(z),500,2582327.4000000954,2582327.1999998093,2575310.349,2575326.799999714,2575326.958,2582340.695,8,400,17,,ISIC_1488727.JPG
break,html.Screen,4_116_1,2023-09-11T20:47:19.349Z,,0,,,NaN,,,,,,false,,,,2582328.5999999046,2582328.1999998093,,2582327.5999999046,,2582340.695,8,400,,,
break_continue,html.Screen,4_116_2,2023-09-11T20:47:19.349Z,,0,,,NaN,,,,,,false,,,,2582329.0999999046,2582329,,2582328.6999998093,,2582340.695,8,400,,,
sequence,flow.Sequence,4_116,2023-09-11T20:47:19.349Z,,0,,,7002.041999999899,completion,,,,,false,,,,2582329.4000000954,2582329,2575310.349,2575326.799999714,2575326.958,2582340.695,8,400,,,
trial,html.Screen,4_117_0,2023-09-11T20:47:25.240Z,,0,3,,5879.004999809433,response,ISIC_6577767.JPG,6,ISIC_5046082.JPG,ISIC_5046082.JPG,false,0,keypress(z),500,2588219.799999714,2588219.6999998093,2582323.956,2582329.5999999046,2582340.695,2588235.609,8,400,18,,ISIC_6577767.JPG
break,html.Screen,4_117_1,2023-09-11T20:47:25.240Z,,0,,,NaN,,,,,,false,,,,2588220.1999998093,2588220.0999999046,,2588219.9000000954,,2588235.609,8,400,,,
break_continue,html.Screen,4_117_2,2023-09-11T20:47:25.240Z,,0,,,NaN,,,,,,false,,,,2588220.4000000954,2588220.299999714,,2588220.299999714,,2588235.609,8,400,,,
sequence,flow.Sequence,4_117,2023-09-11T20:47:25.241Z,,0,,,5879.604999714065,completion,,,,,false,,,,2588220.5,2588220.299999714,2582323.956,2582329.5999999046,2582340.695,2588235.609,8,400,,,
trial,html.Screen,4_118_0,2023-09-11T20:47:30.812Z,,0,3,,5556.590999809094,response,ISIC_7016261.JPG,5,ISIC_0490714.JPG,ISIC_7016261.JPG,false,1,keypress(m),500,2593792.299999714,2593792.1999998093,2588218.827,2588220.5,2588235.609,2593812.962,8,400,19,,ISIC_0490714.JPG
break,html.Screen,4_118_1,2023-09-11T20:47:30.813Z,,0,,,NaN,,,,,,false,,,,2593792.6999998093,2593792.5999999046,,2593792.4000000954,,2593812.962,8,400,,,
break_continue,html.Screen,4_118_2,2023-09-11T20:47:30.813Z,,0,,,NaN,,,,,,false,,,,2593792.9000000954,2593792.799999714,,2593792.799999714,,2593812.962,8,400,,,
sequence,flow.Sequence,4_118,2023-09-11T20:47:30.813Z,,0,,,5557.190999713726,completion,,,,,false,,,,2593793,2593792.799999714,2588218.827,2588220.5,2588235.609,2593812.962,8,400,,,
trial,html.Screen,4_119_0,2023-09-11T20:47:36.191Z,,0,3,,5357.73799980944,response,ISIC_0011045.JPG,5,ISIC_0029909.JPG,ISIC_0029909.JPG,false,0,keypress(z),500,2599170.799999714,2599170.6999998093,2593796.355,2593793.0999999046,2593812.962,2599190.093,8,400,20,,ISIC_0011045.JPG
break,html.Screen,4_119_1,2023-09-11T20:47:36.191Z,,0,,,NaN,,,,,,false,,,,2599171.299999714,2599171.0999999046,,2599171,,2599190.093,8,400,,,
break_continue,html.Screen,4_119_2,2023-09-11T20:47:36.192Z,,0,,,NaN,,,,,,false,,,,2599171.4000000954,2599171.4000000954,,2599171.4000000954,,2599190.093,8,400,,,
sequence,flow.Sequence,4_119,2023-09-11T20:47:36.192Z,,0,,,5358.4380000955425,completion,,,,,false,,,,2599171.5999999046,2599171.4000000954,2593796.355,2593793.0999999046,2593812.962,2599190.093,8,400,,,
trial,html.Screen,4_120_0,2023-09-11T20:47:39.602Z,,0,3,,3391.8070000954904,response,ISIC_0056692.JPG,5,ISIC_6635590.JPG,ISIC_0056692.JPG,false,1,keypress(m),500,2602582.0999999046,2602581.9000000954,2599173.362,2599171.5999999046,2599190.093,2602596.669,8,400,21,,ISIC_6635590.JPG
break,html.Screen,4_120_1,2023-09-11T20:47:39.603Z,,0,,,NaN,,,,,,false,,,,2602582.6999998093,2602582.5,,2602582.1999998093,,2602596.669,8,400,,,
break_continue,html.Screen,4_120_2,2023-09-11T20:47:39.603Z,,0,,,NaN,,,,,,false,,,,2602583,2602582.9000000954,,2602582.6999998093,,2602596.669,8,400,,,
sequence,flow.Sequence,4_120,2023-09-11T20:47:39.603Z,,0,,,3392.8070000954904,completion,,,,,false,,,,2602583.0999999046,2602582.9000000954,2599173.362,2599171.5999999046,2599190.093,2602596.669,8,400,,,
trial,html.Screen,4_121_0,2023-09-11T20:47:43.288Z,,0,3,,3670.8309999997728,response,ISIC_2057184.JPG,5,ISIC_7233368.JPG,ISIC_7233368.JPG,false,0,keypress(z),500,2606267.5999999046,2606267.5,2602580.098,2602583.1999998093,2602596.669,2606287.241,8,400,22,,ISIC_2057184.JPG
break,html.Screen,4_121_1,2023-09-11T20:47:43.289Z,,0,,,NaN,,,,,,false,,,,2606268.0999999046,2606268,,2606267.799999714,,2606287.241,8,400,,,
break_continue,html.Screen,4_121_2,2023-09-11T20:47:43.289Z,,0,,,NaN,,,,,,false,,,,2606268.299999714,2606268.299999714,,2606268.1999998093,,2606287.241,8,400,,,
sequence,flow.Sequence,4_121,2023-09-11T20:47:43.289Z,,0,,,3671.6309997136705,completion,,,,,false,,,,2606268.5,2606268.299999714,2602580.098,2602583.0999999046,2602596.669,2606287.241,8,400,,,
trial,html.Screen,4_122_0,2023-09-11T20:47:48.449Z,,0,3,,5140.558999713976,response,ISIC_0065013.JPG,5,ISIC_0014302.JPG,ISIC_0065013.JPG,false,1,keypress(m),500,2611427.9000000954,2611427.799999714,2606270.582,2606268.5,2606287.241,2611447.277,8,400,23,,ISIC_0014302.JPG
break,html.Screen,4_122_1,2023-09-11T20:47:48.449Z,,0,,,NaN,,,,,,false,,,,2611428.299999714,2611428.0999999046,,2611428,,2611447.277,8,400,,,
break_continue,html.Screen,4_122_2,2023-09-11T20:47:48.449Z,,0,,,NaN,,,,,,false,,,,2611428.4000000954,2611428.4000000954,,2611428.299999714,,2611447.277,8,400,,,
sequence,flow.Sequence,4_122,2023-09-11T20:47:48.449Z,,0,,,5141.159000095446,completion,,,,,false,,,,2611428.5,2611428.4000000954,2606270.582,2606268.5,2606287.241,2611447.277,8,400,,,
trial,html.Screen,4_123_0,2023-09-11T20:47:51.897Z,,0,3,,3428.723000000231,response,ISIC_1358527.JPG,5,ISIC_1369967.JPG,ISIC_1369967.JPG,false,0,keypress(z),500,2614876.1999998093,2614876,2611430.64,2611428.5999999046,2611447.277,2614887.314,8,400,24,,ISIC_1358527.JPG
break,html.Screen,4_123_1,2023-09-11T20:47:51.897Z,,0,,,NaN,,,,,,false,,,,2614876.5999999046,2614876.5,,2614876.299999714,,2614887.314,8,400,,,
break_continue,html.Screen,4_123_2,2023-09-11T20:47:51.897Z,,0,,,NaN,,,,,,false,,,,2614876.799999714,2614876.6999998093,,2614876.6999998093,,2614887.314,8,400,,,
sequence,flow.Sequence,4_123,2023-09-11T20:47:51.898Z,,0,,,3429.422999809496,completion,,,,,false,,,,2614876.9000000954,2614876.6999998093,2611430.64,2611428.5999999046,2611447.277,2614887.314,8,400,,,
trial,html.Screen,4_124_0,2023-09-11T20:47:56.427Z,,0,3,,4519.385999809485,response,ISIC_0071111.JPG,5,ISIC_0056260.JPG,ISIC_0071111.JPG,false,1,keypress(m),500,2619406.6999998093,2619406.6999998093,2614870.584,2614877,2614887.314,2619412.87,8,400,25,,ISIC_0056260.JPG
