sender,sender_type,sender_id,timestamp,meta,,blockNo,condition,duration,ended_on,img_left,img_reveal,img_right,loser,practice,response,response_action,selection_duration,time_commit,time_end,time_render,time_run,time_show,time_switch,total_blocks,total_trials,trialNo,url,winner
informed_consent,html.Screen,0,2023-08-28T19:10:37.453Z,"{""labjs_version"":""20.2.4"",""labjs_build"":{""flavor"":""development"",""commit"":""f5b4a49f956347addd546a832a3327688c2c0fef""},""location"":""https://labjs.felixhenninger.com/api/labjs_preview/index.html"",""userAgent"":""Mozilla/5.0 (Windows NT 10.0; Win64; x64) AppleWebKit/537.36 (KHTML, like Gecko) Chrome/116.0.0.0 Safari/537.36"",""platform"":""Win32"",""language"":""en-AU"",""locale"":""en-US"",""timeZone"":""America/Chicago"",""timezoneOffset"":300,""screen_width"":2560,""screen_height"":1440,""scroll_width"":1296,""scroll_height"":1278,""window_innerWidth"":1296,""window_innerHeight"":1326,""devicePixelRatio"":1}",,,,3735.8470001430514,response,,,,,,consent,click button,,4789.400000095367,4788.100000143051,1035.533,1241.4000000953674,1052.253,4592.458,,,,{},
Welcome,html.Screen,1,2023-08-28T19:10:42.410Z,,,,irregular,5153.6420001430515,response,,,,,,continue,click button,,9746.900000095367,9746.100000143051,4575.942,4789.700000047684,4592.458,9552.153,,,,,
trial,html.Screen,2_0_0,2023-08-28T19:10:46.547Z,,0,0,,4331.447000143051,response,ISIC_0061792.JPG,,ISIC_4679428.JPG,ISIC_0061792.JPG,true,1,keypress(m),500,13884.100000143051,13883.600000143051,9535.411,9747,9552.153,13693.572,1,6,1,,ISIC_4679428.JPG
sequence,flow.Sequence,2_0,2023-08-28T19:10:46.548Z,,0,,,4331.447000143051,completion,,,,,true,,,,13885,13883.600000143051,9535.411,9747,9552.153,13693.572,1,6,,,
trial,html.Screen,2_1_0,2023-08-28T19:10:49.692Z,,0,0,,3335.1280000476836,response,ISIC_0776486.JPG,,ISIC_5199497.JPG,ISIC_5199497.JPG,true,0,keypress(z),500,17029,17028.700000047684,13676.797,13885.300000190735,13693.572,16832.958,1,6,2,,ISIC_0776486.JPG
sequence,flow.Sequence,2_1,2023-08-28T19:10:49.693Z,,0,,,3335.1280000476836,completion,,,,,true,,,,17029.10000014305,17028.700000047684,13676.797,13885.200000047684,13693.572,16832.958,1,6,,,
trial,html.Screen,2_2_0,2023-08-28T19:10:54.415Z,,0,0,,4918.742000047685,response,ISIC_2556187.JPG,,ISIC_8575776.JPG,ISIC_8575776.JPG,true,0,keypress(z),500,21752,21751.700000047684,16816.274,17029.300000190735,16832.958,21575.65,1,6,3,,ISIC_2556187.JPG
sequence,flow.Sequence,2_2,2023-08-28T19:10:54.416Z,,0,,,4918.742000047685,completion,,,,,true,,,,21752.700000047684,21751.700000047684,16816.274,17029.200000047684,16832.958,21575.65,1,6,,,
trial,html.Screen,2_3_0,2023-08-28T19:10:57.426Z,,0,0,,3186.5500000476823,response,ISIC_8141769.JPG,,ISIC_9238366.JPG,ISIC_9238366.JPG,true,0,keypress(z),500,24762.700000047684,24762.200000047684,21542.132,21753.10000014305,21575.65,24581.384,1,6,4,,ISIC_8141769.JPG
sequence,flow.Sequence,2_3,2023-08-28T19:10:57.427Z,,0,,,3186.5500000476823,completion,,,,,true,,,,24763.60000014305,24762.200000047684,21542.132,21752.900000095367,21575.65,24581.384,1,6,,,
trial,html.Screen,2_4_0,2023-08-28T19:11:00.694Z,,0,0,,3448.9160001907367,response,ISIC_8949026.JPG,,ISIC_9959593.JPG,ISIC_8949026.JPG,true,1,keypress(m),500,28030.800000190735,28030.300000190735,24564.681,24764,24581.384,27854.492,1,6,5,,ISIC_9959593.JPG
sequence,flow.Sequence,2_4,2023-08-28T19:11:00.695Z,,0,,,3448.9160001907367,completion,,,,,true,,,,28031.400000095367,28030.300000190735,24564.681,24763.900000095367,24581.384,27854.492,1,6,,,
trial,html.Screen,2_5_0,2023-08-28T19:11:03.995Z,,0,0,,3476.408000095369,response,ISIC_0010479.JPG,,ISIC_0460240.JPG,ISIC_0460240.JPG,true,0,keypress(z),500,31331.300000190735,31330.900000095367,27821.086,28031.700000047684,27854.492,31144.464,1,6,6,,ISIC_0010479.JPG
sequence,flow.Sequence,2_5,2023-08-28T19:11:03.995Z,,0,,,3476.408000095369,completion,,,,,true,,,,31331.700000047684,31330.900000095367,27821.086,28031.700000047684,27854.492,31144.464,1,6,,,
loop,flow.Loop,2,2023-08-28T19:11:03.996Z,,,,,21778.74700009537,completion,,,,,true,,,,31332.10000014305,31330.900000095367,9535.411,9746.900000095367,9552.153,31144.464,1,6,,,
exp_instructions,html.Screen,3,2023-08-28T19:25:05.269Z,,,,,841414.3360001907,response,,,,,,continue,keypress(Space),,872560.5,872558.8000001907,31127.489,31332.300000190735,31144.464,872381.692,,,,,
trial,html.Screen,4_0_0,2023-08-28T19:25:11.296Z,,0,1,,6205.408000143012,response,ISIC_0034287.JPG,,ISIC_0066213.JPG,ISIC_0034287.JPG,false,1,keypress(m),500,878587.2000000477,878587.100000143,872347.437,872561.100000143,872381.692,878393.29,8,400,1,,ISIC_0066213.JPG
break,html.Screen,4_0_1,2023-08-28T19:25:11.297Z,,0,,,NaN,,,,,,false,,,,878588.2000000477,878587.9000000954,,878587.4000000954,,878393.29,8,400,,,
break_continue,html.Screen,4_0_2,2023-08-28T19:25:11.297Z,,0,,,NaN,,,,,,false,,,,878588.600000143,878588.5,,878588.3000001907,,878393.29,8,400,,,
sequence,flow.Sequence,4_0,2023-08-28T19:25:11.297Z,,0,,,6206.807999999961,completion,,,,,false,,,,878588.7000000477,878588.5,872347.437,872561,872381.692,878393.29,8,400,,,
trial,html.Screen,4_1_0,2023-08-28T19:25:16.709Z,,0,1,,5607.310000143014,response,ISIC_2902328.JPG,,ISIC_0010822.JPG,ISIC_2902328.JPG,false,1,keypress(m),500,884000.8000001907,884000.600000143,878376.584,878588.8000001907,878393.29,883821.85,8,400,2,,ISIC_0010822.JPG
break,html.Screen,4_1_1,2023-08-28T19:25:16.710Z,,0,,,NaN,,,,,,false,,,,884001.5,884001.4000000954,,884000.9000000954,,883821.85,8,400,,,
break_continue,html.Screen,4_1_2,2023-08-28T19:25:16.710Z,,0,,,NaN,,,,,,false,,,,884001.8000001907,884001.8000001907,,884001.7000000477,,883821.85,8,400,,,
sequence,flow.Sequence,4_1,2023-08-28T19:25:16.711Z,,0,,,5608.510000190698,completion,,,,,false,,,,884002.100000143,884001.8000001907,878376.584,878588.8000001907,878393.29,883821.85,8,400,,,
trial,html.Screen,4_2_0,2023-08-28T19:25:22.393Z,,0,1,,5861.950000190758,response,ISIC_0056635.JPG,,ISIC_1083681.JPG,ISIC_1083681.JPG,false,0,keypress(z),500,889684,889683.8000001907,883787.124,884002.100000143,883821.85,889498.27,8,400,3,,ISIC_0056635.JPG
break,html.Screen,4_2_1,2023-08-28T19:25:22.393Z,,0,,,NaN,,,,,,false,,,,889684.5,889684.3000001907,,889684.100000143,,889498.27,8,400,,,
break_continue,html.Screen,4_2_2,2023-08-28T19:25:22.393Z,,0,,,NaN,,,,,,false,,,,889684.7000000477,889684.7000000477,,889684.600000143,,889498.27,8,400,,,
sequence,flow.Sequence,4_2,2023-08-28T19:25:22.393Z,,0,,,5862.850000047707,completion,,,,,false,,,,889684.8000001907,889684.7000000477,883787.124,884002.100000143,883821.85,889498.27,8,400,,,
trial,html.Screen,4_3_0,2023-08-28T19:25:25.407Z,,0,1,,3200.3300001430325,response,ISIC_9096302.JPG,,ISIC_0026659.JPG,ISIC_9096302.JPG,false,1,keypress(m),500,892698.8000001907,892698.600000143,889481.563,889684.8000001907,889498.27,892504.076,8,400,4,,ISIC_0026659.JPG
break,html.Screen,4_3_1,2023-08-28T19:25:25.408Z,,0,,,NaN,,,,,,false,,,,892699.5,892699.3000001907,,892698.9000000954,,892504.076,8,400,,,
break_continue,html.Screen,4_3_2,2023-08-28T19:25:25.408Z,,0,,,NaN,,,,,,false,,,,892699.8000001907,892699.7000000477,,892699.600000143,,892504.076,8,400,,,
sequence,flow.Sequence,4_3,2023-08-28T19:25:25.408Z,,0,,,3201.430000047665,completion,,,,,false,,,,892700,892699.7000000477,889481.563,889684.8000001907,889498.27,892504.076,8,400,,,
trial,html.Screen,4_4_0,2023-08-28T19:25:28.114Z,,0,1,,2901.224000190734,response,ISIC_0070313.JPG,,ISIC_6324832.JPG,ISIC_6324832.JPG,false,0,keypress(z),500,895405.4000000954,895405.3000001907,892487.429,892700,892504.076,895209.355,8,400,5,,ISIC_0070313.JPG
break,html.Screen,4_4_1,2023-08-28T19:25:28.114Z,,0,,,NaN,,,,,,false,,,,895406,895405.7000000477,,895405.5,,895209.355,8,400,,,
break_continue,html.Screen,4_4_2,2023-08-28T19:25:28.115Z,,0,,,NaN,,,,,,false,,,,895406.100000143,895406.100000143,,895406,,895209.355,8,400,,,
sequence,flow.Sequence,4_4,2023-08-28T19:25:28.115Z,,0,,,2902.02400014305,completion,,,,,false,,,,895406.2000000477,895406.100000143,892487.429,892700,892504.076,895209.355,8,400,,,
trial,html.Screen,4_5_0,2023-08-28T19:25:32.008Z,,0,1,,4089.74500014307,response,ISIC_3342474.JPG,,ISIC_0060153.JPG,ISIC_0060153.JPG,false,0,keypress(z),500,899299.3000001907,899299.100000143,895192.613,895406.2000000477,895209.355,899116.965,8,400,6,,ISIC_3342474.JPG
break,html.Screen,4_5_1,2023-08-28T19:25:32.008Z,,0,,,NaN,,,,,,false,,,,899299.9000000954,899299.8000001907,,899299.4000000954,,899116.965,8,400,,,
break_continue,html.Screen,4_5_2,2023-08-28T19:25:32.009Z,,0,,,NaN,,,,,,false,,,,899300.2000000477,899300.100000143,,899300.100000143,,899116.965,8,400,,,
sequence,flow.Sequence,4_5,2023-08-28T19:25:32.009Z,,0,,,4090.74500014307,completion,,,,,false,,,,899300.3000001907,899300.100000143,895192.613,895406.2000000477,895209.355,899116.965,8,400,,,
trial,html.Screen,4_6_0,2023-08-28T19:25:37.403Z,,0,1,,5577.135000143084,response,ISIC_0032360.JPG,,ISIC_0055776.JPG,ISIC_0032360.JPG,false,1,keypress(m),500,904694.3000001907,904694.100000143,899100.613,899300.3000001907,899116.965,904510.789,8,400,7,,ISIC_0055776.JPG
break,html.Screen,4_6_1,2023-08-28T19:25:37.403Z,,0,,,NaN,,,,,,false,,,,904694.8000001907,904694.600000143,,904694.4000000954,,904510.789,8,400,,,
break_continue,html.Screen,4_6_2,2023-08-28T19:25:37.403Z,,0,,,NaN,,,,,,false,,,,904694.9000000954,904694.9000000954,,904694.8000001907,,904510.789,8,400,,,
sequence,flow.Sequence,4_6,2023-08-28T19:25:37.404Z,,0,,,5577.9350000954,completion,,,,,false,,,,904695,904694.9000000954,899100.613,899300.3000001907,899116.965,904510.789,8,400,,,
trial,html.Screen,4_7_0,2023-08-28T19:25:40.277Z,,0,1,,3057.2110000000102,response,ISIC_6209119.JPG,,ISIC_3389704.JPG,ISIC_6209119.JPG,false,1,keypress(m),500,907568.100000143,907568,904494.064,904695.100000143,904510.789,907383.072,8,400,8,,ISIC_3389704.JPG
break,html.Screen,4_7_1,2023-08-28T19:25:40.277Z,,0,,,NaN,,,,,,false,,,,907568.5,907568.5,,907568.2000000477,,907383.072,8,400,,,
break_continue,html.Screen,4_7_2,2023-08-28T19:25:40.277Z,,0,,,NaN,,,,,,false,,,,907568.7000000477,907568.7000000477,,907568.7000000477,,907383.072,8,400,,,
sequence,flow.Sequence,4_7,2023-08-28T19:25:40.277Z,,0,,,3057.911000047694,completion,,,,,false,,,,907568.8000001907,907568.7000000477,904494.064,904695,904510.789,907383.072,8,400,,,
trial,html.Screen,4_8_0,2023-08-28T19:25:47.862Z,,0,1,,7770.328000095324,response,ISIC_5312710.JPG,,ISIC_0015245.JPG,ISIC_5312710.JPG,false,1,keypress(m),500,915153.600000143,915153.4000000954,907366.39,907568.9000000954,907383.072,914964.462,8,400,9,,ISIC_0015245.JPG
break,html.Screen,4_8_1,2023-08-28T19:25:47.863Z,,0,,,NaN,,,,,,false,,,,915154.3000001907,915154.100000143,,915153.7000000477,,914964.462,8,400,,,
break_continue,html.Screen,4_8_2,2023-08-28T19:25:47.863Z,,0,,,NaN,,,,,,false,,,,915154.600000143,915154.600000143,,915154.4000000954,,914964.462,8,400,,,
sequence,flow.Sequence,4_8,2023-08-28T19:25:47.863Z,,0,,,7771.528000143007,completion,,,,,false,,,,915154.8000001907,915154.600000143,907366.39,907568.8000001907,907383.072,914964.462,8,400,,,
trial,html.Screen,4_9_0,2023-08-28T19:25:50.687Z,,0,1,,3014.238000047626,response,ISIC_0024496.JPG,,ISIC_7895093.JPG,ISIC_7895093.JPG,false,0,keypress(z),500,917978.9000000954,917978.7000000477,914947.76,915154.8000001907,914964.462,917786.765,8,400,10,,ISIC_0024496.JPG
break,html.Screen,4_9_1,2023-08-28T19:25:50.688Z,,0,,,NaN,,,,,,false,,,,917979.7000000477,917979.5,,917979,,917786.765,8,400,,,
break_continue,html.Screen,4_9_2,2023-08-28T19:25:50.689Z,,0,,,NaN,,,,,,false,,,,917980,917979.9000000954,,917979.8000001907,,917786.765,8,400,,,
sequence,flow.Sequence,4_9,2023-08-28T19:25:50.689Z,,0,,,3015.4380000953097,completion,,,,,false,,,,917980.100000143,917979.9000000954,914947.76,915154.8000001907,914964.462,917786.765,8,400,,,
trial,html.Screen,4_10_0,2023-08-28T19:25:53.491Z,,0,1,,2995.4350000476697,response,ISIC_0025451.JPG,,ISIC_0005639.JPG,ISIC_0005639.JPG,false,0,keypress(z),500,920782.3000001907,920782.2000000477,917769.986,917980.3000001907,917786.765,920592.119,8,400,11,,ISIC_0025451.JPG
break,html.Screen,4_10_1,2023-08-28T19:25:53.491Z,,0,,,NaN,,,,,,false,,,,920782.8000001907,920782.7000000477,,920782.4000000954,,920592.119,8,400,,,
break_continue,html.Screen,4_10_2,2023-08-28T19:25:53.491Z,,0,,,NaN,,,,,,false,,,,920783,920782.9000000954,,920782.8000001907,,920592.119,8,400,,,
sequence,flow.Sequence,4_10,2023-08-28T19:25:53.492Z,,0,,,2996.1350000953535,completion,,,,,false,,,,920783,920782.9000000954,917769.986,917980.3000001907,917786.765,920592.119,8,400,,,
trial,html.Screen,4_11_0,2023-08-28T19:25:56.325Z,,0,1,,3023.9810001431033,response,ISIC_0033605.JPG,,ISIC_0024537.JPG,ISIC_0033605.JPG,false,1,keypress(m),500,923616.3000001907,923616.100000143,920575.381,920783.100000143,920592.119,923430.978,8,400,12,,ISIC_0024537.JPG
break,html.Screen,4_11_1,2023-08-28T19:25:56.325Z,,0,,,NaN,,,,,,false,,,,923616.7000000477,923616.600000143,,923616.3000001907,,923430.978,8,400,,,
break_continue,html.Screen,4_11_2,2023-08-28T19:25:56.325Z,,0,,,NaN,,,,,,false,,,,923616.9000000954,923616.8000001907,,923616.8000001907,,923430.978,8,400,,,
sequence,flow.Sequence,4_11,2023-08-28T19:25:56.325Z,,0,,,3024.681000190787,completion,,,,,false,,,,923616.9000000954,923616.8000001907,920575.381,920783.100000143,920592.119,923430.978,8,400,,,
trial,html.Screen,4_12_0,2023-08-28T19:26:03.944Z,,0,1,,7804.222000047681,response,ISIC_0028998.JPG,,ISIC_0025754.JPG,ISIC_0028998.JPG,false,1,keypress(m),500,931235.5,931235.2000000477,923414.24,923617,923430.978,931045.83,8,400,13,,ISIC_0025754.JPG
break,html.Screen,4_12_1,2023-08-28T19:26:03.946Z,,0,,,NaN,,,,,,false,,,,931237,931236.600000143,,931235.9000000954,,931045.83,8,400,,,
break_continue,html.Screen,4_12_2,2023-08-28T19:26:03.946Z,,0,,,NaN,,,,,,false,,,,931237.7000000477,931237.5,,931237.2000000477,,931045.83,8,400,,,
sequence,flow.Sequence,4_12,2023-08-28T19:26:03.947Z,,0,,,7806.521999999997,completion,,,,,false,,,,931238,931237.5,923414.24,923617,923430.978,931045.83,8,400,,,
trial,html.Screen,4_13_0,2023-08-28T19:26:07.063Z,,0,1,,3304.970000190777,response,ISIC_0011964.JPG,,ISIC_0188432.JPG,ISIC_0011964.JPG,false,1,keypress(m),500,934350.9000000954,934350.8000001907,931029.09,931238.2000000477,931045.83,934168.52,8,400,14,,ISIC_0188432.JPG
break,html.Screen,4_13_1,2023-08-28T19:26:07.064Z,,0,,,NaN,,,,,,false,,,,934351.5,934351.3000001907,,934350.9000000954,,934168.52,8,400,,,
break_continue,html.Screen,4_13_2,2023-08-28T19:26:07.064Z,,0,,,NaN,,,,,,false,,,,934351.8000001907,934351.7000000477,,934351.5,,934168.52,8,400,,,
sequence,flow.Sequence,4_13,2023-08-28T19:26:07.064Z,,0,,,3305.8700000477256,completion,,,,,false,,,,934351.8000001907,934351.7000000477,931029.09,931238.2000000477,931045.83,934168.52,8,400,,,
trial,html.Screen,4_14_0,2023-08-28T19:26:15.385Z,,0,1,,8503.979999999981,response,ISIC_4548995.JPG,,ISIC_0016114.JPG,ISIC_0016114.JPG,false,0,keypress(z),500,942672.600000143,942672.5,934151.816,934351.9000000954,934168.52,942484.699,8,400,15,,ISIC_4548995.JPG
break,html.Screen,4_14_1,2023-08-28T19:26:15.386Z,,0,,,NaN,,,,,,false,,,,942673.3000001907,942673.2000000477,,942672.9000000954,,942484.699,8,400,,,
break_continue,html.Screen,4_14_2,2023-08-28T19:26:15.386Z,,0,,,NaN,,,,,,false,,,,942673.600000143,942673.600000143,,942673.4000000954,,942484.699,8,400,,,
sequence,flow.Sequence,4_14,2023-08-28T19:26:15.386Z,,0,,,8505.080000143033,completion,,,,,false,,,,942673.7000000477,942673.600000143,934151.816,934351.8000001907,934168.52,942484.699,8,400,,,
trial,html.Screen,4_15_0,2023-08-28T19:26:18.239Z,,0,1,,3042.401000143029,response,ISIC_0033320.JPG,,ISIC_4131697.JPG,ISIC_0033320.JPG,false,1,keypress(m),500,945527.2000000477,945527.100000143,942468.01,942673.7000000477,942484.699,945340.258,8,400,16,,ISIC_4131697.JPG
break,html.Screen,4_15_1,2023-08-28T19:26:18.240Z,,0,,,NaN,,,,,,false,,,,945527.7000000477,945527.5,,945527.3000001907,,945340.258,8,400,,,
break_continue,html.Screen,4_15_2,2023-08-28T19:26:18.240Z,,0,,,NaN,,,,,,false,,,,945528,945527.9000000954,,945527.8000001907,,945340.258,8,400,,,
sequence,flow.Sequence,4_15,2023-08-28T19:26:18.240Z,,0,,,3043.201000095345,completion,,,,,false,,,,945528,945527.9000000954,942468.01,942673.7000000477,942484.699,945340.258,8,400,,,
trial,html.Screen,4_16_0,2023-08-28T19:26:20.930Z,,0,1,,2877.2419999999693,response,ISIC_0010730.JPG,,ISIC_0034202.JPG,ISIC_0034202.JPG,false,0,keypress(z),500,948217.8000001907,948217.5,945323.572,945528,945340.258,948028.882,8,400,17,,ISIC_0010730.JPG
break,html.Screen,4_16_1,2023-08-28T19:26:20.931Z,,0,,,NaN,,,,,,false,,,,948218.8000001907,948218.600000143,,948218,,948028.882,8,400,,,
break_continue,html.Screen,4_16_2,2023-08-28T19:26:20.932Z,,0,,,NaN,,,,,,false,,,,948219.5,948219.3000001907,,948219,,948028.882,8,400,,,
sequence,flow.Sequence,4_16,2023-08-28T19:26:20.932Z,,0,,,2879.042000190704,completion,,,,,false,,,,948219.7000000477,948219.3000001907,945323.572,945528,945340.258,948028.882,8,400,,,
trial,html.Screen,4_17_0,2023-08-28T19:26:25.739Z,,0,1,,4998.018000095384,response,ISIC_4590810.JPG,,ISIC_9745492.JPG,ISIC_4590810.JPG,false,1,keypress(m),500,953027.100000143,953026.9000000954,948012.116,948219.9000000954,948028.882,952838.189,8,400,18,,ISIC_9745492.JPG
break,html.Screen,4_17_1,2023-08-28T19:26:25.740Z,,0,,,NaN,,,,,,false,,,,953027.7000000477,953027.600000143,,953027.2000000477,,952838.189,8,400,,,
break_continue,html.Screen,4_17_2,2023-08-28T19:26:25.740Z,,0,,,NaN,,,,,,false,,,,953028.100000143,953028,,953027.9000000954,,952838.189,8,400,,,
sequence,flow.Sequence,4_17,2023-08-28T19:26:25.740Z,,0,,,4999.118000000017,completion,,,,,false,,,,953028.2000000477,953028,948012.116,948219.9000000954,948028.882,952838.189,8,400,,,
trial,html.Screen,4_18_0,2023-08-28T19:26:31.695Z,,0,1,,6144.711000095354,response,ISIC_2748873.JPG,,ISIC_7130929.JPG,ISIC_2748873.JPG,false,1,keypress(m),500,958983.100000143,958982.9000000954,952821.499,953028.3000001907,952838.189,958799.801,8,400,19,,ISIC_7130929.JPG
break,html.Screen,4_18_1,2023-08-28T19:26:31.696Z,,0,,,NaN,,,,,,false,,,,958983.7000000477,958983.600000143,,958983.3000001907,,958799.801,8,400,,,
break_continue,html.Screen,4_18_2,2023-08-28T19:26:31.696Z,,0,,,NaN,,,,,,false,,,,958984.100000143,958984,,958983.9000000954,,958799.801,8,400,,,
sequence,flow.Sequence,4_18,2023-08-28T19:26:31.696Z,,0,,,6145.810999999987,completion,,,,,false,,,,958984.100000143,958984,952821.499,953028.3000001907,952838.189,958799.801,8,400,,,
trial,html.Screen,4_19_0,2023-08-28T19:26:37.074Z,,0,1,,5561.699000000022,response,ISIC_0032723.JPG,,ISIC_0001111.JPG,ISIC_0001111.JPG,false,0,keypress(z),500,964361.7000000477,964361.5,958783.143,958984.3000001907,958799.801,964176.916,8,400,20,,ISIC_0032723.JPG
break,html.Screen,4_19_1,2023-08-28T19:26:37.075Z,,0,,,NaN,,,,,,false,,,,964362.4000000954,964362.2000000477,,964361.8000001907,,964176.916,8,400,,,
break_continue,html.Screen,4_19_2,2023-08-28T19:26:37.075Z,,0,,,NaN,,,,,,false,,,,964362.5,964362.5,,964362.4000000954,,964176.916,8,400,,,
sequence,flow.Sequence,4_19,2023-08-28T19:26:37.075Z,,0,,,5562.699000000022,completion,,,,,false,,,,964362.7000000477,964362.5,958783.143,958984.3000001907,958799.801,964176.916,8,400,,,
trial,html.Screen,4_20_0,2023-08-28T19:26:40.933Z,,0,1,,4043.684000143083,response,ISIC_0027033.JPG,,ISIC_5994007.JPG,ISIC_5994007.JPG,false,0,keypress(z),500,968220.600000143,968220.600000143,964160.226,964362.7000000477,964176.916,968034.448,8,400,21,,ISIC_0027033.JPG
break,html.Screen,4_20_1,2023-08-28T19:26:40.934Z,,0,,,NaN,,,,,,false,,,,968221.3000001907,968221.100000143,,968220.8000001907,,968034.448,8,400,,,
break_continue,html.Screen,4_20_2,2023-08-28T19:26:40.934Z,,0,,,NaN,,,,,,false,,,,968221.7000000477,968221.600000143,,968221.4000000954,,968034.448,8,400,,,
sequence,flow.Sequence,4_20,2023-08-28T19:26:40.934Z,,0,,,4044.684000143083,completion,,,,,false,,,,968221.7000000477,968221.600000143,964160.226,964362.7000000477,964176.916,968034.448,8,400,,,
trial,html.Screen,4_21_0,2023-08-28T19:26:46.540Z,,0,1,,5792.652000143076,response,ISIC_6410859.JPG,,ISIC_4345000.JPG,ISIC_6410859.JPG,false,1,keypress(m),500,973827.3000001907,973827.100000143,968017.735,968221.8000001907,968034.448,973645.375,8,400,22,,ISIC_4345000.JPG
break,html.Screen,4_21_1,2023-08-28T19:26:46.540Z,,0,,,NaN,,,,,,false,,,,973827.8000001907,973827.600000143,,973827.4000000954,,973645.375,8,400,,,
break_continue,html.Screen,4_21_2,2023-08-28T19:26:46.540Z,,0,,,NaN,,,,,,false,,,,973828,973827.9000000954,,973827.8000001907,,973645.375,8,400,,,
sequence,flow.Sequence,4_21,2023-08-28T19:26:46.540Z,,0,,,5793.452000095393,completion,,,,,false,,,,973828,973827.9000000954,968017.735,968221.8000001907,968034.448,973645.375,8,400,,,
trial,html.Screen,4_22_0,2023-08-28T19:26:49.741Z,,0,1,,3376.225000143051,response,ISIC_0015167.JPG,,ISIC_8635853.JPG,ISIC_8635853.JPG,false,0,keypress(z),500,977028.3000001907,977021.600000143,973628.704,973828.100000143,973645.375,976834.891,8,400,23,,ISIC_0015167.JPG
break,html.Screen,4_22_1,2023-08-28T19:26:49.741Z,,0,,,NaN,,,,,,false,,,,977029.100000143,977028.8000001907,,977028.5,,976834.891,8,400,,,
break_continue,html.Screen,4_22_2,2023-08-28T19:26:49.742Z,,0,,,NaN,,,,,,false,,,,977029.5,977029.4000000954,,977029.2000000477,,976834.891,8,400,,,
sequence,flow.Sequence,4_22,2023-08-28T19:26:49.742Z,,0,,,3384.0250000953674,completion,,,,,false,,,,977029.600000143,977029.4000000954,973628.704,973828,973645.375,976834.891,8,400,,,
trial,html.Screen,4_23_0,2023-08-28T19:26:52.692Z,,0,1,,3144.8090000477387,response,ISIC_6670242.JPG,,ISIC_7953039.JPG,ISIC_6670242.JPG,false,1,keypress(m),500,979979.9000000954,979979.7000000477,976818.207,977029.7000000477,976834.891,979790.65,8,400,24,,ISIC_7953039.JPG
break,html.Screen,4_23_1,2023-08-28T19:26:52.693Z,,0,,,NaN,,,,,,false,,,,979980.600000143,979980.4000000954,,979980,,979790.65,8,400,,,
break_continue,html.Screen,4_23_2,2023-08-28T19:26:52.693Z,,0,,,NaN,,,,,,false,,,,979980.9000000954,979980.8000001907,,979980.7000000477,,979790.65,8,400,,,
sequence,flow.Sequence,4_23,2023-08-28T19:26:52.693Z,,0,,,3145.90900019079,completion,,,,,false,,,,979981,979980.8000001907,976818.207,977029.7000000477,976834.891,979790.65,8,400,,,
trial,html.Screen,4_24_0,2023-08-28T19:26:56.166Z,,0,1,,3663.3499999999767,response,ISIC_0061491.JPG,,ISIC_0862745.JPG,ISIC_0061491.JPG,false,1,keypress(m),500,983454.2000000477,983454,979773.973,979981.100000143,979790.65,983264.109,8,400,25,,ISIC_0862745.JPG
break,html.Screen,4_24_1,2023-08-28T19:26:56.167Z,,0,,,NaN,,,,,,false,,,,983454.7000000477,983454.600000143,,983454.2000000477,,983264.109,8,400,,,
break_continue,html.Screen,4_24_2,2023-08-28T19:26:56.167Z,,0,,,NaN,,,,,,false,,,,983454.9000000954,983454.9000000954,,983454.8000001907,,983264.109,8,400,,,
sequence,flow.Sequence,4_24,2023-08-28T19:26:56.167Z,,0,,,3664.250000095344,completion,,,,,false,,,,983454.9000000954,983454.9000000954,979773.973,979981.100000143,979790.65,983264.109,8,400,,,
trial,html.Screen,4_25_0,2023-08-28T19:26:59.663Z,,0,1,,3686.7910000953125,response,ISIC_0000161.JPG,,ISIC_0030032.JPG,ISIC_0030032.JPG,false,0,keypress(z),500,986951,986950.9000000954,983247.349,983455,983264.109,986771.504,8,400,26,,ISIC_0000161.JPG
break,html.Screen,4_25_1,2023-08-28T19:26:59.664Z,,0,,,NaN,,,,,,false,,,,986951.9000000954,986951.600000143,,986951.2000000477,,986771.504,8,400,,,
break_continue,html.Screen,4_25_2,2023-08-28T19:26:59.664Z,,0,,,NaN,,,,,,false,,,,986952.100000143,986952.100000143,,986951.9000000954,,986771.504,8,400,,,
sequence,flow.Sequence,4_25,2023-08-28T19:26:59.665Z,,0,,,3687.991000142996,completion,,,,,false,,,,986952.2000000477,986952.100000143,983247.349,983455,983264.109,986771.504,8,400,,,
trial,html.Screen,4_26_0,2023-08-28T19:27:03.906Z,,0,1,,4422.296000190778,response,ISIC_0000294.JPG,,ISIC_2974214.JPG,ISIC_2974214.JPG,false,0,keypress(z),500,991193.9000000954,991193.8000001907,986737.543,986952.4000000954,986771.504,991012.484,8,400,27,,ISIC_0000294.JPG
break,html.Screen,4_26_1,2023-08-28T19:27:03.907Z,,0,,,NaN,,,,,,false,,,,991194.5,991194.4000000954,,991194.100000143,,991012.484,8,400,,,
break_continue,html.Screen,4_26_2,2023-08-28T19:27:03.907Z,,0,,,NaN,,,,,,false,,,,991194.9000000954,991194.8000001907,,991194.7000000477,,991012.484,8,400,,,
sequence,flow.Sequence,4_26,2023-08-28T19:27:03.907Z,,0,,,4423.296000190778,completion,,,,,false,,,,991195,991194.8000001907,986737.543,986952.4000000954,986771.504,991012.484,8,400,,,
trial,html.Screen,4_27_0,2023-08-28T19:27:07.231Z,,0,1,,3503.116000142996,response,ISIC_0024449.JPG,,ISIC_6892286.JPG,ISIC_6892286.JPG,false,0,keypress(z),500,994515.7000000477,994515.600000143,990995.801,991195.100000143,991012.484,994336.267,8,400,28,,ISIC_0024449.JPG
break,html.Screen,4_27_1,2023-08-28T19:27:07.232Z,,0,,,NaN,,,,,,false,,,,994516.4000000954,994516.3000001907,,994515.9000000954,,994336.267,8,400,,,
break_continue,html.Screen,4_27_2,2023-08-28T19:27:07.232Z,,0,,,NaN,,,,,,false,,,,994516.7000000477,994516.600000143,,994516.5,,994336.267,8,400,,,
sequence,flow.Sequence,4_27,2023-08-28T19:27:07.232Z,,0,,,3504.116000142996,completion,,,,,false,,,,994516.8000001907,994516.600000143,990995.801,991195.100000143,991012.484,994336.267,8,400,,,
trial,html.Screen,4_28_0,2023-08-28T19:27:11.881Z,,0,1,,4829.033000190742,response,ISIC_0029686.JPG,,ISIC_0066094.JPG,ISIC_0029686.JPG,false,1,keypress(m),500,999165.5,999165.3000001907,994302.239,994516.9000000954,994336.267,998977.991,8,400,29,,ISIC_0066094.JPG
break,html.Screen,4_28_1,2023-08-28T19:27:11.881Z,,0,,,NaN,,,,,,false,,,,999165.9000000954,999165.8000001907,,999165.600000143,,998977.991,8,400,,,
break_continue,html.Screen,4_28_2,2023-08-28T19:27:11.881Z,,0,,,NaN,,,,,,false,,,,999166.100000143,999165.9000000954,,999165.9000000954,,998977.991,8,400,,,
sequence,flow.Sequence,4_28,2023-08-28T19:27:11.882Z,,0,,,4829.633000095375,completion,,,,,false,,,,999166.2000000477,999165.9000000954,994302.239,994516.9000000954,994336.267,998977.991,8,400,,,
trial,html.Screen,4_29_0,2023-08-28T19:27:17.298Z,,0,1,,5604.309000190697,response,ISIC_2294790.JPG,,ISIC_0000118.JPG,ISIC_0000118.JPG,false,0,keypress(z),500,1004582.5,1004582.3000001907,998961.272,999166.2000000477,998977.991,1004388.519,8,400,30,,ISIC_2294790.JPG
break,html.Screen,4_29_1,2023-08-28T19:27:17.299Z,,0,,,NaN,,,,,,false,,,,1004583.100000143,1004582.9000000954,,1004582.600000143,,1004388.519,8,400,,,
break_continue,html.Screen,4_29_2,2023-08-28T19:27:17.299Z,,0,,,NaN,,,,,,false,,,,1004583.3000001907,1004583.3000001907,,1004583.2000000477,,1004388.519,8,400,,,
sequence,flow.Sequence,4_29,2023-08-28T19:27:17.299Z,,0,,,5605.309000190697,completion,,,,,false,,,,1004583.4000000954,1004583.3000001907,998961.272,999166.2000000477,998977.991,1004388.519,8,400,,,
trial,html.Screen,4_30_0,2023-08-28T19:27:23.749Z,,0,1,,6644.881000095396,response,ISIC_4139260.JPG,,ISIC_1619814.JPG,ISIC_4139260.JPG,false,1,keypress(m),500,1011033.7000000477,1011033.4000000954,1004371.844,1004583.4000000954,1004388.519,1010851.105,8,400,31,,ISIC_1619814.JPG
break,html.Screen,4_30_1,2023-08-28T19:27:23.750Z,,0,,,NaN,,,,,,false,,,,1011034.7000000477,1011034.4000000954,,1011033.9000000954,,1010851.105,8,400,,,
break_continue,html.Screen,4_30_2,2023-08-28T19:27:23.751Z,,0,,,NaN,,,,,,false,,,,1011035.2000000477,1011035,,1011034.9000000954,,1010851.105,8,400,,,
sequence,flow.Sequence,4_30,2023-08-28T19:27:23.751Z,,0,,,6646.481000000029,completion,,,,,false,,,,1011035.4000000954,1011035,1004371.844,1004583.4000000954,1004388.519,1010851.105,8,400,,,
trial,html.Screen,4_31_0,2023-08-28T19:27:28.297Z,,0,1,,4730.095000047702,response,ISIC_7098141.JPG,,ISIC_0448195.JPG,ISIC_0448195.JPG,false,0,keypress(z),500,1015581.4000000954,1015581.2000000477,1010834.547,1011035.5,1010851.105,1015393.283,8,400,32,,ISIC_7098141.JPG
break,html.Screen,4_31_1,2023-08-28T19:27:28.298Z,,0,,,NaN,,,,,,false,,,,1015582.2000000477,1015582,,1015581.5,,1015393.283,8,400,,,
break_continue,html.Screen,4_31_2,2023-08-28T19:27:28.298Z,,0,,,NaN,,,,,,false,,,,1015582.4000000954,1015582.4000000954,,1015582.2000000477,,1015393.283,8,400,,,
sequence,flow.Sequence,4_31,2023-08-28T19:27:28.298Z,,0,,,4731.295000095386,completion,,,,,false,,,,1015582.600000143,1015582.4000000954,1010834.547,1011035.5,1010851.105,1015393.283,8,400,,,
trial,html.Screen,4_32_0,2023-08-28T19:27:33.055Z,,0,1,,4945.817000142997,response,ISIC_5422940.JPG,,ISIC_0059547.JPG,ISIC_5422940.JPG,false,1,keypress(m),500,1020339.2000000477,1020339.100000143,1015376.661,1015582.7000000477,1015393.283,1020152.574,8,400,33,,ISIC_0059547.JPG
break,html.Screen,4_32_1,2023-08-28T19:27:33.055Z,,0,,,NaN,,,,,,false,,,,1020339.8000001907,1020339.600000143,,1020339.3000001907,,1020152.574,8,400,,,
break_continue,html.Screen,4_32_2,2023-08-28T19:27:33.056Z,,0,,,NaN,,,,,,false,,,,1020340.100000143,1020340,,1020339.8000001907,,1020152.574,8,400,,,
sequence,flow.Sequence,4_32,2023-08-28T19:27:33.056Z,,0,,,4946.716999999946,completion,,,,,false,,,,1020340.100000143,1020340,1015376.661,1015582.600000143,1015393.283,1020152.574,8,400,,,
trial,html.Screen,4_33_0,2023-08-28T19:27:35.894Z,,0,1,,3025.9259999999776,response,ISIC_0033585.JPG,,ISIC_9719936.JPG,ISIC_9719936.JPG,false,0,keypress(z),500,1023178.600000143,1023178.5,1020135.866,1020340.2000000477,1020152.574,1022991.415,8,400,34,,ISIC_0033585.JPG
break,html.Screen,4_33_1,2023-08-28T19:27:35.895Z,,0,,,NaN,,,,,,false,,,,1023179.100000143,1023179,,1023178.7000000477,,1022991.415,8,400,,,
break_continue,html.Screen,4_33_2,2023-08-28T19:27:35.895Z,,0,,,NaN,,,,,,false,,,,1023179.3000001907,1023179.2000000477,,1023179.100000143,,1022991.415,8,400,,,
sequence,flow.Sequence,4_33,2023-08-28T19:27:35.895Z,,0,,,3026.6260000476614,completion,,,,,false,,,,1023179.3000001907,1023179.2000000477,1020135.866,1020340.2000000477,1020152.574,1022991.415,8,400,,,
trial,html.Screen,4_34_0,2023-08-28T19:27:41.272Z,,0,1,,5564.584999999963,response,ISIC_5098778.JPG,,ISIC_6469202.JPG,ISIC_5098778.JPG,false,1,keypress(m),500,1028556.100000143,1028556,1022974.701,1023179.4000000954,1022991.415,1028368.524,8,400,35,,ISIC_6469202.JPG
break,html.Screen,4_34_1,2023-08-28T19:27:41.272Z,,0,,,NaN,,,,,,false,,,,1028556.8000001907,1028556.7000000477,,1028556.3000001907,,1028368.524,8,400,,,
break_continue,html.Screen,4_34_2,2023-08-28T19:27:41.273Z,,0,,,NaN,,,,,,false,,,,1028557.100000143,1028557,,1028556.9000000954,,1028368.524,8,400,,,
sequence,flow.Sequence,4_34,2023-08-28T19:27:41.273Z,,0,,,5565.584999999963,completion,,,,,false,,,,1028557.3000001907,1028557,1022974.701,1023179.3000001907,1022991.415,1028368.524,8,400,,,
trial,html.Screen,4_35_0,2023-08-28T19:27:45.323Z,,0,1,,4239.476000000024,response,ISIC_0059547.JPG,,ISIC_0029007.JPG,ISIC_0029007.JPG,false,0,keypress(z),500,1032608,1032608,1028351.85,1028557.3000001907,1028368.524,1032426.42,8,400,36,,ISIC_0059547.JPG
break,html.Screen,4_35_1,2023-08-28T19:27:45.324Z,,0,,,NaN,,,,,,false,,,,1032608.5,1032608.4000000954,,1032608.100000143,,1032426.42,8,400,,,
break_continue,html.Screen,4_35_2,2023-08-28T19:27:45.324Z,,0,,,NaN,,,,,,false,,,,1032608.7000000477,1032608.7000000477,,1032608.600000143,,1032426.42,8,400,,,
sequence,flow.Sequence,4_35,2023-08-28T19:27:45.324Z,,0,,,4240.176000047708,completion,,,,,false,,,,1032608.8000001907,1032608.7000000477,1028351.85,1028557.3000001907,1028368.524,1032426.42,8,400,,,
trial,html.Screen,4_36_0,2023-08-28T19:27:48.243Z,,0,1,,3100.4800000953255,response,ISIC_0064822.JPG,,ISIC_5900778.JPG,ISIC_0064822.JPG,false,1,keypress(m),500,1035527.100000143,1035526.9000000954,1032409.891,1032608.8000001907,1032426.42,1035332.085,8,400,37,,ISIC_5900778.JPG
break,html.Screen,4_36_1,2023-08-28T19:27:48.243Z,,0,,,NaN,,,,,,false,,,,1035527.7000000477,1035527.600000143,,1035527.3000001907,,1035332.085,8,400,,,
break_continue,html.Screen,4_36_2,2023-08-28T19:27:48.243Z,,0,,,NaN,,,,,,false,,,,1035528,1035527.9000000954,,1035527.7000000477,,1035332.085,8,400,,,
sequence,flow.Sequence,4_36,2023-08-28T19:27:48.244Z,,0,,,3101.4800000953255,completion,,,,,false,,,,1035528.100000143,1035527.9000000954,1032409.891,1032608.8000001907,1032426.42,1035332.085,8,400,,,
trial,html.Screen,4_37_0,2023-08-28T19:27:51.989Z,,0,1,,3941.115000047721,response,ISIC_0055731.JPG,,ISIC_0210998.JPG,ISIC_0055731.JPG,false,1,keypress(m),500,1039273.3000001907,1039273.2000000477,1035315.385,1035528.3000001907,1035332.085,1039089.416,8,400,38,,ISIC_0210998.JPG
break,html.Screen,4_37_1,2023-08-28T19:27:51.989Z,,0,,,NaN,,,,,,false,,,,1039274,1039273.8000001907,,1039273.5,,1039089.416,8,400,,,
break_continue,html.Screen,4_37_2,2023-08-28T19:27:51.990Z,,0,,,NaN,,,,,,false,,,,1039274.3000001907,1039274.2000000477,,1039274,,1039089.416,8,400,,,
sequence,flow.Sequence,4_37,2023-08-28T19:27:51.990Z,,0,,,3942.115000047721,completion,,,,,false,,,,1039274.4000000954,1039274.2000000477,1035315.385,1035528.2000000477,1035332.085,1039089.416,8,400,,,
trial,html.Screen,4_38_0,2023-08-28T19:27:56.700Z,,0,1,,4895.184000143083,response,ISIC_9961652.JPG,,ISIC_9927221.JPG,ISIC_9961652.JPG,false,1,keypress(m),500,1043984.7000000477,1043984.600000143,1039072.723,1039274.5,1039089.416,1043798.577,8,400,39,,ISIC_9927221.JPG
break,html.Screen,4_38_1,2023-08-28T19:27:56.701Z,,0,,,NaN,,,,,,false,,,,1043985.3000001907,1043985.2000000477,,1043984.8000001907,,1043798.577,8,400,,,
break_continue,html.Screen,4_38_2,2023-08-28T19:27:56.701Z,,0,,,NaN,,,,,,false,,,,1043985.5,1043985.5,,1043985.4000000954,,1043798.577,8,400,,,
sequence,flow.Sequence,4_38,2023-08-28T19:27:56.701Z,,0,,,4896.084000000032,completion,,,,,false,,,,1043985.600000143,1043985.5,1039072.723,1039274.4000000954,1039089.416,1043798.577,8,400,,,
trial,html.Screen,4_39_0,2023-08-28T19:27:59.967Z,,0,1,,3452.5230001430027,response,ISIC_7833008.JPG,,ISIC_5952650.JPG,ISIC_7833008.JPG,false,1,keypress(m),500,1047251.3000001907,1047251.100000143,1043781.911,1043985.600000143,1043798.577,1047054.908,8,400,40,,ISIC_5952650.JPG
break,html.Screen,4_39_1,2023-08-28T19:27:59.967Z,,0,,,NaN,,,,,,false,,,,1047252,1047251.8000001907,,1047251.5,,1047054.908,8,400,,,
break_continue,html.Screen,4_39_2,2023-08-28T19:27:59.968Z,,0,,,NaN,,,,,,false,,,,1047252.100000143,1047252,,1047252,,1047054.908,8,400,,,
sequence,flow.Sequence,4_39,2023-08-28T19:27:59.968Z,,0,,,3453.4229999999516,completion,,,,,false,,,,1047252.2000000477,1047252,1043781.911,1043985.600000143,1043798.577,1047054.908,8,400,,,
trial,html.Screen,4_40_0,2023-08-28T19:28:04.339Z,,0,1,,4568.692000142997,response,ISIC_0056723.JPG,,ISIC_0015041.JPG,ISIC_0056723.JPG,false,1,keypress(m),500,1051623.7000000477,1051623.600000143,1047038.218,1047252.3000001907,1047054.908,1051430.323,8,400,41,,ISIC_0015041.JPG
break,html.Screen,4_40_1,2023-08-28T19:28:04.340Z,,0,,,NaN,,,,,,false,,,,1051624.2000000477,1051624.100000143,,1051623.8000001907,,1051430.323,8,400,,,
break_continue,html.Screen,4_40_2,2023-08-28T19:28:04.340Z,,0,,,NaN,,,,,,false,,,,1051624.3000001907,1051624.3000001907,,1051624.2000000477,,1051430.323,8,400,,,
sequence,flow.Sequence,4_40,2023-08-28T19:28:04.340Z,,0,,,4569.392000190681,completion,,,,,false,,,,1051624.4000000954,1051624.3000001907,1047038.218,1047252.2000000477,1047054.908,1051430.323,8,400,,,
trial,html.Screen,4_41_0,2023-08-28T19:28:08.127Z,,0,1,,3978.4770001906436,response,ISIC_4249893.JPG,,ISIC_0062869.JPG,ISIC_4249893.JPG,false,1,keypress(m),500,1055408.9000000954,1055408.8000001907,1051413.404,1051624.5,1051430.323,1055220.809,8,400,42,,ISIC_0062869.JPG
break,html.Screen,4_41_1,2023-08-28T19:28:08.127Z,,0,,,NaN,,,,,,false,,,,1055409.4000000954,1055409.2000000477,,1055409,,1055220.809,8,400,,,
break_continue,html.Screen,4_41_2,2023-08-28T19:28:08.127Z,,0,,,NaN,,,,,,false,,,,1055409.600000143,1055409.600000143,,1055409.5,,1055220.809,8,400,,,
sequence,flow.Sequence,4_41,2023-08-28T19:28:08.127Z,,0,,,3979.27700014296,completion,,,,,false,,,,1055409.600000143,1055409.600000143,1051413.404,1051624.4000000954,1051430.323,1055220.809,8,400,,,
trial,html.Screen,4_42_0,2023-08-28T19:28:12.626Z,,0,1,,4686.991000190843,response,ISIC_7161651.JPG,,ISIC_8911740.JPG,ISIC_8911740.JPG,false,0,keypress(z),500,1059907.9000000954,1059907.8000001907,1055204.107,1055409.7000000477,1055220.809,1059712.877,8,400,43,,ISIC_7161651.JPG
break,html.Screen,4_42_1,2023-08-28T19:28:12.626Z,,0,,,NaN,,,,,,false,,,,1059908.4000000954,1059908.3000001907,,1059908,,1059712.877,8,400,,,
break_continue,html.Screen,4_42_2,2023-08-28T19:28:12.626Z,,0,,,NaN,,,,,,false,,,,1059908.5,1059908.5,,1059908.4000000954,,1059712.877,8,400,,,
sequence,flow.Sequence,4_42,2023-08-28T19:28:12.626Z,,0,,,4687.691000000108,completion,,,,,false,,,,1059908.7000000477,1059908.5,1055204.107,1055409.7000000477,1055220.809,1059712.877,8,400,,,
trial,html.Screen,4_43_0,2023-08-28T19:28:19.430Z,,0,1,,6999.523000095272,response,ISIC_9485536.JPG,,ISIC_6478506.JPG,ISIC_6478506.JPG,false,0,keypress(z),500,1066712.600000143,1066712.4000000954,1059696.183,1059908.7000000477,1059712.877,1066526.158,8,400,44,,ISIC_9485536.JPG
break,html.Screen,4_43_1,2023-08-28T19:28:19.431Z,,0,,,NaN,,,,,,false,,,,1066713.2000000477,1066713,,1066712.7000000477,,1066526.158,8,400,,,
break_continue,html.Screen,4_43_2,2023-08-28T19:28:19.431Z,,0,,,NaN,,,,,,false,,,,1066713.5,1066713.4000000954,,1066713.2000000477,,1066526.158,8,400,,,
sequence,flow.Sequence,4_43,2023-08-28T19:28:19.431Z,,0,,,7000.523000095272,completion,,,,,false,,,,1066713.7000000477,1066713.4000000954,1059696.183,1059908.7000000477,1059712.877,1066526.158,8,400,,,
trial,html.Screen,4_44_0,2023-08-28T19:28:24.473Z,,0,1,,5228.942000142997,response,ISIC_9171071.JPG,,ISIC_0071809.JPG,ISIC_9171071.JPG,false,1,keypress(m),500,1071755.3000001907,1071755.100000143,1066509.569,1066713.7000000477,1066526.158,1071569.295,8,400,45,,ISIC_0071809.JPG
break,html.Screen,4_44_1,2023-08-28T19:28:24.474Z,,0,,,NaN,,,,,,false,,,,1071755.9000000954,1071755.7000000477,,1071755.5,,1071569.295,8,400,,,
break_continue,html.Screen,4_44_2,2023-08-28T19:28:24.474Z,,0,,,NaN,,,,,,false,,,,1071756.3000001907,1071756.100000143,,1071756.100000143,,1071569.295,8,400,,,
sequence,flow.Sequence,4_44,2023-08-28T19:28:24.474Z,,0,,,5229.942000142997,completion,,,,,false,,,,1071756.3000001907,1071756.100000143,1066509.569,1066713.7000000477,1066526.158,1071569.295,8,400,,,
trial,html.Screen,4_45_0,2023-08-28T19:28:29.153Z,,0,1,,4865.405000047758,response,ISIC_0008774.JPG,,ISIC_4105234.JPG,ISIC_0008774.JPG,false,1,keypress(m),500,1076434.8000001907,1076434.7000000477,1071552.59,1071756.5,1071569.295,1076261.75,8,400,46,,ISIC_4105234.JPG
break,html.Screen,4_45_1,2023-08-28T19:28:29.153Z,,0,,,NaN,,,,,,false,,,,1076435.4000000954,1076435.2000000477,,1076434.9000000954,,1076261.75,8,400,,,
break_continue,html.Screen,4_45_2,2023-08-28T19:28:29.153Z,,0,,,NaN,,,,,,false,,,,1076435.600000143,1076435.600000143,,1076435.4000000954,,1076261.75,8,400,,,
sequence,flow.Sequence,4_45,2023-08-28T19:28:29.154Z,,0,,,4866.305000143126,completion,,,,,false,,,,1076435.7000000477,1076435.600000143,1071552.59,1071756.5,1071569.295,1076261.75,8,400,,,
trial,html.Screen,4_46_0,2023-08-28T19:28:32.135Z,,0,1,,3154.9500000476837,response,ISIC_0046741.JPG,,ISIC_2884038.JPG,ISIC_2884038.JPG,false,0,keypress(z),500,1079416.8000001907,1079416.7000000477,1076245.033,1076435.8000001907,1076261.75,1079234.213,8,400,47,,ISIC_0046741.JPG
break,html.Screen,4_46_1,2023-08-28T19:28:32.135Z,,0,,,NaN,,,,,,false,,,,1079417.4000000954,1079417.2000000477,,1079416.9000000954,,1079234.213,8,400,,,
break_continue,html.Screen,4_46_2,2023-08-28T19:28:32.135Z,,0,,,NaN,,,,,,false,,,,1079417.600000143,1079417.5,,1079417.4000000954,,1079234.213,8,400,,,
sequence,flow.Sequence,4_46,2023-08-28T19:28:32.136Z,,0,,,3155.75,completion,,,,,false,,,,1079417.7000000477,1079417.5,1076245.033,1076435.7000000477,1076261.75,1079234.213,8,400,,,
trial,html.Screen,4_47_0,2023-08-28T19:28:35.262Z,,0,1,,3310.1870000953786,response,ISIC_0027541.JPG,,ISIC_6125652.JPG,ISIC_0027541.JPG,false,1,keypress(m),500,1082544.600000143,1082544.4000000954,1079217.502,1079417.9000000954,1079234.213,1082356.994,8,400,48,,ISIC_6125652.JPG
break,html.Screen,4_47_1,2023-08-28T19:28:35.263Z,,0,,,NaN,,,,,,false,,,,1082545.3000001907,1082545.100000143,,1082544.7000000477,,1082356.994,8,400,,,
break_continue,html.Screen,4_47_2,2023-08-28T19:28:35.264Z,,0,,,NaN,,,,,,false,,,,1082545.8000001907,1082545.600000143,,1082545.4000000954,,1082356.994,8,400,,,
sequence,flow.Sequence,4_47,2023-08-28T19:28:35.264Z,,0,,,3311.3870001430623,completion,,,,,false,,,,1082545.9000000954,1082545.600000143,1079217.502,1079417.8000001907,1079234.213,1082356.994,8,400,,,
trial,html.Screen,4_48_0,2023-08-28T19:28:41.729Z,,0,1,,6654.206000047736,response,ISIC_2162728.JPG,,ISIC_2415803.JPG,ISIC_2415803.JPG,false,0,keypress(z),500,1089011.4000000954,1089011.2000000477,1082340.385,1082546,1082356.994,1088819.527,8,400,49,,ISIC_2162728.JPG
break,html.Screen,4_48_1,2023-08-28T19:28:41.730Z,,0,,,NaN,,,,,,false,,,,1089012.100000143,1089011.9000000954,,1089011.600000143,,1088819.527,8,400,,,
break_continue,html.Screen,4_48_2,2023-08-28T19:28:41.730Z,,0,,,NaN,,,,,,false,,,,1089012.4000000954,1089012.2000000477,,1089012.100000143,,1088819.527,8,400,,,
sequence,flow.Sequence,4_48,2023-08-28T19:28:41.731Z,,0,,,6655.206000047736,completion,,,,,false,,,,1089013.100000143,1089012.2000000477,1082340.385,1082545.9000000954,1082356.994,1088819.527,8,400,,,
trial,html.Screen,4_49_0,2023-08-28T19:28:44.679Z,,0,1,,3141.773000190733,response,ISIC_0070432.JPG,,ISIC_0000546.JPG,ISIC_0000546.JPG,false,0,keypress(z),500,1091961.5,1091961.3000001907,1088802.808,1089013.3000001907,1088819.527,1091775.284,8,400,50,,ISIC_0070432.JPG
break,html.Screen,4_49_1,2023-08-28T19:28:49.531Z,,0,,,4842.801999999909,timeout,,,,,false,,,,1096813.3000001907,1096813.2000000477,1091758.601,1091961.600000143,1091775.284,1096618.086,8,400,,,
break_continue,html.Screen,4_49_2,2023-08-28T19:28:59.793Z,,0,,,10440.714000190841,response,,,,,false,continue,keypress(Space),,1107074.7000000477,1107058.8000001907,1096813.2000000477,1096813.4000000954,1096618.086,1106888.036,8,400,,,
sequence,flow.Sequence,4_49,2023-08-28T19:28:59.793Z,,0,,,18239.273000190733,completion,,,,,false,,,,1107074.9000000954,1107058.8000001907,1088802.808,1089013.2000000477,1088819.527,1106888.036,8,400,,,
trial,html.Screen,4_50_0,2023-08-28T19:29:03.355Z,,0,2,,3748.564000142971,response,ISIC_0645454.JPG,,ISIC_0011315.JPG,ISIC_0011315.JPG,false,0,keypress(z),500,1110636.7000000477,1110636.600000143,1106871.44,1107074.9000000954,1106888.036,1110444.973,8,400,1,,ISIC_0645454.JPG
break,html.Screen,4_50_1,2023-08-28T19:29:03.355Z,,0,,,NaN,,,,,,false,,,,1110637.2000000477,1110637,,1110636.7000000477,,1110444.973,8,400,,,
break_continue,html.Screen,4_50_2,2023-08-28T19:29:03.355Z,,0,,,NaN,,,,,,false,,,,1110637.3000001907,1110637.3000001907,,1110637.2000000477,,1110444.973,8,400,,,
sequence,flow.Sequence,4_50,2023-08-28T19:29:03.355Z,,0,,,3749.2640001906548,completion,,,,,false,,,,1110637.4000000954,1110637.3000001907,1106871.44,1107074.9000000954,1106888.036,1110444.973,8,400,,,
trial,html.Screen,4_51_0,2023-08-28T19:29:06.317Z,,0,2,,3153.527000000002,response,ISIC_6915759.JPG,,ISIC_0033641.JPG,ISIC_0033641.JPG,false,0,keypress(z),500,1113598.7000000477,1113598.5,1110428.246,1110637.5,1110444.973,1113417.519,8,400,2,,ISIC_6915759.JPG
break,html.Screen,4_51_1,2023-08-28T19:29:06.318Z,,0,,,NaN,,,,,,false,,,,1113599.8000001907,1113599.5,,1113599,,1113417.519,8,400,,,
break_continue,html.Screen,4_51_2,2023-08-28T19:29:06.318Z,,0,,,NaN,,,,,,false,,,,1113600.3000001907,1113600.100000143,,1113600,,1113417.519,8,400,,,
sequence,flow.Sequence,4_51,2023-08-28T19:29:06.318Z,,0,,,3155.127000143053,completion,,,,,false,,,,1113600.5,1113600.100000143,1110428.246,1110637.5,1110444.973,1113417.519,8,400,,,
trial,html.Screen,4_52_0,2023-08-28T19:29:09.313Z,,0,2,,3176.4809999999125,response,ISIC_0007619.JPG,,ISIC_1192835.JPG,ISIC_0007619.JPG,false,1,keypress(m),500,1116594.2000000477,1116594,1113400.717,1113600.5,1113417.519,1116406.568,8,400,3,,ISIC_1192835.JPG
break,html.Screen,4_52_1,2023-08-28T19:29:09.314Z,,0,,,NaN,,,,,,false,,,,1116594.600000143,1116594.5,,1116594.2000000477,,1116406.568,8,400,,,
break_continue,html.Screen,4_52_2,2023-08-28T19:29:09.314Z,,0,,,NaN,,,,,,false,,,,1116595,1116594.8000001907,,1116594.8000001907,,1116406.568,8,400,,,
sequence,flow.Sequence,4_52,2023-08-28T19:29:09.314Z,,0,,,3177.2810001906473,completion,,,,,false,,,,1116595.100000143,1116594.8000001907,1113400.717,1113600.5,1113417.519,1116406.568,8,400,,,
trial,html.Screen,4_53_0,2023-08-28T19:29:12.484Z,,0,2,,3358.532000143081,response,ISIC_0028352.JPG,,ISIC_4610600.JPG,ISIC_4610600.JPG,false,0,keypress(z),500,1119765.2000000477,1119765.100000143,1116389.881,1116595.7000000477,1116406.568,1119579.435,8,400,4,,ISIC_0028352.JPG
break,html.Screen,4_53_1,2023-08-28T19:29:12.485Z,,0,,,NaN,,,,,,false,,,,1119765.600000143,1119765.5,,1119765.2000000477,,1119579.435,8,400,,,
break_continue,html.Screen,4_53_2,2023-08-28T19:29:12.485Z,,0,,,NaN,,,,,,false,,,,1119765.8000001907,1119765.8000001907,,1119765.7000000477,,1119579.435,8,400,,,
sequence,flow.Sequence,4_53,2023-08-28T19:29:12.485Z,,0,,,3359.2320001907647,completion,,,,,false,,,,1119765.9000000954,1119765.8000001907,1116389.881,1116595.2000000477,1116406.568,1119579.435,8,400,,,
trial,html.Screen,4_54_0,2023-08-28T19:29:16.391Z,,0,2,,4092.564999999944,response,ISIC_4411889.JPG,,ISIC_6069236.JPG,ISIC_4411889.JPG,false,1,keypress(m),500,1123672.2000000477,1123672,1119562.67,1119766,1119579.435,1123487.017,8,400,5,,ISIC_6069236.JPG
break,html.Screen,4_54_1,2023-08-28T19:29:16.392Z,,0,,,NaN,,,,,,false,,,,1123672.9000000954,1123672.7000000477,,1123672.3000001907,,1123487.017,8,400,,,
break_continue,html.Screen,4_54_2,2023-08-28T19:29:16.392Z,,0,,,NaN,,,,,,false,,,,1123673.100000143,1123673.100000143,,1123673,,1123487.017,8,400,,,
sequence,flow.Sequence,4_54,2023-08-28T19:29:16.392Z,,0,,,4093.6650001429953,completion,,,,,false,,,,1123673.3000001907,1123673.100000143,1119562.67,1119766,1119579.435,1123487.017,8,400,,,
trial,html.Screen,4_55_0,2023-08-28T19:29:20.907Z,,0,2,,4700.583000143059,response,ISIC_0072496.JPG,,ISIC_0062684.JPG,ISIC_0062684.JPG,false,0,keypress(z),500,1128187.7000000477,1128187.600000143,1123470.326,1123673.4000000954,1123487.017,1127995.836,8,400,6,,ISIC_0072496.JPG
break,html.Screen,4_55_1,2023-08-28T19:29:20.907Z,,0,,,NaN,,,,,,false,,,,1128188.2000000477,1128188.100000143,,1128187.8000001907,,1127995.836,8,400,,,
break_continue,html.Screen,4_55_2,2023-08-28T19:29:20.907Z,,0,,,NaN,,,,,,false,,,,1128188.4000000954,1128188.3000001907,,1128188.2000000477,,1127995.836,8,400,,,
sequence,flow.Sequence,4_55,2023-08-28T19:29:20.907Z,,0,,,4701.283000190742,completion,,,,,false,,,,1128188.5,1128188.3000001907,1123470.326,1123673.3000001907,1123487.017,1127995.836,8,400,,,
trial,html.Screen,4_56_0,2023-08-28T19:29:26.946Z,,0,2,,6230.86400004779,response,ISIC_0394140.JPG,,ISIC_0055311.JPG,ISIC_0055311.JPG,false,0,keypress(z),500,1134226.8000001907,1134226.7000000477,1127979.083,1128188.5,1127995.836,1134040.877,8,400,7,,ISIC_0394140.JPG
break,html.Screen,4_56_1,2023-08-28T19:29:26.946Z,,0,,,NaN,,,,,,false,,,,1134227.3000001907,1134227.100000143,,1134226.9000000954,,1134040.877,8,400,,,
break_continue,html.Screen,4_56_2,2023-08-28T19:29:26.946Z,,0,,,NaN,,,,,,false,,,,1134227.4000000954,1134227.4000000954,,1134227.3000001907,,1134040.877,8,400,,,
sequence,flow.Sequence,4_56,2023-08-28T19:29:26.947Z,,0,,,6231.564000095474,completion,,,,,false,,,,1134227.5,1134227.4000000954,1127979.083,1128188.5,1127995.836,1134040.877,8,400,,,
trial,html.Screen,4_57_0,2023-08-28T19:29:30.165Z,,0,2,,3404.8230000475887,response,ISIC_0029732.JPG,,ISIC_7517082.JPG,ISIC_7517082.JPG,false,0,keypress(z),500,1137445.9000000954,1137445.7000000477,1134024.195,1134227.5,1134040.877,1137263.844,8,400,8,,ISIC_0029732.JPG
break,html.Screen,4_57_1,2023-08-28T19:29:30.166Z,,0,,,NaN,,,,,,false,,,,1137446.5,1137446.4000000954,,1137446,,1137263.844,8,400,,,
break_continue,html.Screen,4_57_2,2023-08-28T19:29:30.166Z,,0,,,NaN,,,,,,false,,,,1137446.9000000954,1137446.7000000477,,1137446.7000000477,,1137263.844,8,400,,,
sequence,flow.Sequence,4_57,2023-08-28T19:29:30.166Z,,0,,,3405.8230000475887,completion,,,,,false,,,,1137446.9000000954,1137446.7000000477,1134024.195,1134227.5,1134040.877,1137263.844,8,400,,,
trial,html.Screen,4_58_0,2023-08-28T19:29:34.328Z,,0,2,,4345.356000047643,response,ISIC_0024516.JPG,,ISIC_5031549.JPG,ISIC_5031549.JPG,false,0,keypress(z),500,1141609.3000001907,1141609.2000000477,1137247.143,1137447.100000143,1137263.844,1141421.959,8,400,9,,ISIC_0024516.JPG
break,html.Screen,4_58_1,2023-08-28T19:29:34.329Z,,0,,,NaN,,,,,,false,,,,1141609.8000001907,1141609.600000143,,1141609.4000000954,,1141421.959,8,400,,,
break_continue,html.Screen,4_58_2,2023-08-28T19:29:34.329Z,,0,,,NaN,,,,,,false,,,,1141610,1141609.9000000954,,1141609.9000000954,,1141421.959,8,400,,,
sequence,flow.Sequence,4_58,2023-08-28T19:29:34.329Z,,0,,,4346.056000095326,completion,,,,,false,,,,1141610.100000143,1141609.9000000954,1137247.143,1137447.100000143,1137263.844,1141421.959,8,400,,,
trial,html.Screen,4_59_0,2023-08-28T19:29:37.058Z,,0,2,,2916.4410000953358,response,ISIC_0030107.JPG,,ISIC_6278273.JPG,ISIC_0030107.JPG,false,1,keypress(m),500,1144338.5,1144338.4000000954,1141405.522,1141610.100000143,1141421.959,1144143.89,8,400,10,,ISIC_6278273.JPG
break,html.Screen,4_59_1,2023-08-28T19:29:37.058Z,,0,,,NaN,,,,,,false,,,,1144339.2000000477,1144339,,1144338.7000000477,,1144143.89,8,400,,,
break_continue,html.Screen,4_59_2,2023-08-28T19:29:37.059Z,,0,,,NaN,,,,,,false,,,,1144339.600000143,1144339.4000000954,,1144339.3000001907,,1144143.89,8,400,,,
sequence,flow.Sequence,4_59,2023-08-28T19:29:37.059Z,,0,,,2917.4410000953358,completion,,,,,false,,,,1144339.7000000477,1144339.4000000954,1141405.522,1141610.100000143,1141421.959,1144143.89,8,400,,,
trial,html.Screen,4_60_0,2023-08-28T19:29:40.105Z,,0,2,,3241.7100001431536,response,ISIC_2720426.JPG,,ISIC_4066726.JPG,ISIC_2720426.JPG,false,1,keypress(m),500,1147385.8000001907,1147385.600000143,1144127.2,1144339.9000000954,1144143.89,1147199.822,8,400,11,,ISIC_4066726.JPG
break,html.Screen,4_60_1,2023-08-28T19:29:40.106Z,,0,,,NaN,,,,,,false,,,,1147386.5,1147386.2000000477,,1147385.9000000954,,1147199.822,8,400,,,
break_continue,html.Screen,4_60_2,2023-08-28T19:29:40.106Z,,0,,,NaN,,,,,,false,,,,1147386.8000001907,1147386.7000000477,,1147386.5,,1147199.822,8,400,,,
sequence,flow.Sequence,4_60,2023-08-28T19:29:40.106Z,,0,,,3242.810000047786,completion,,,,,false,,,,1147386.8000001907,1147386.7000000477,1144127.2,1144339.8000001907,1144143.89,1147199.822,8,400,,,
trial,html.Screen,4_61_0,2023-08-28T19:29:44.668Z,,0,2,,4748.678000000073,response,ISIC_3650533.JPG,,ISIC_6067430.JPG,ISIC_3650533.JPG,false,1,keypress(m),500,1151948.9000000954,1151948.5,1147183.229,1147386.9000000954,1147199.822,1151758.782,8,400,12,,ISIC_6067430.JPG
break,html.Screen,4_61_1,2023-08-28T19:29:44.669Z,,0,,,NaN,,,,,,false,,,,1151950.4000000954,1151949.9000000954,,1151949.2000000477,,1151758.782,8,400,,,
break_continue,html.Screen,4_61_2,2023-08-28T19:29:44.670Z,,0,,,NaN,,,,,,false,,,,1151951.100000143,1151950.9000000954,,1151950.600000143,,1151758.782,8,400,,,
sequence,flow.Sequence,4_61,2023-08-28T19:29:44.670Z,,0,,,4751.07800009544,completion,,,,,false,,,,1151951.4000000954,1151950.9000000954,1147183.229,1147386.9000000954,1147199.822,1151758.782,8,400,,,
trial,html.Screen,4_62_0,2023-08-28T19:29:49.089Z,,0,2,,4611.418000047794,response,ISIC_0014598.JPG,,ISIC_0010597.JPG,ISIC_0014598.JPG,false,1,keypress(m),500,1156370.5,1156370.2000000477,1151742.092,1151951.600000143,1151758.782,1156183.996,8,400,13,,ISIC_0010597.JPG
break,html.Screen,4_62_1,2023-08-28T19:29:49.090Z,,0,,,NaN,,,,,,false,,,,1156371.100000143,1156370.9000000954,,1156370.5,,1156183.996,8,400,,,
break_continue,html.Screen,4_62_2,2023-08-28T19:29:49.091Z,,0,,,NaN,,,,,,false,,,,1156371.4000000954,1156371.4000000954,,1156371.2000000477,,1156183.996,8,400,,,
sequence,flow.Sequence,4_62,2023-08-28T19:29:49.091Z,,0,,,4612.618000095477,completion,,,,,false,,,,1156371.600000143,1156371.4000000954,1151742.092,1151951.600000143,1151758.782,1156183.996,8,400,,,
trial,html.Screen,4_63_0,2023-08-28T19:29:52.117Z,,0,2,,3214.003999999957,response,ISIC_0033384.JPG,,ISIC_5308066.JPG,ISIC_0033384.JPG,false,1,keypress(m),500,1159398.100000143,1159398,1156167.49,1156371.600000143,1156183.996,1159206.543,8,400,14,,ISIC_5308066.JPG
break,html.Screen,4_63_1,2023-08-28T19:29:52.118Z,,0,,,NaN,,,,,,false,,,,1159398.600000143,1159398.4000000954,,1159398.2000000477,,1159206.543,8,400,,,
break_continue,html.Screen,4_63_2,2023-08-28T19:29:52.118Z,,0,,,NaN,,,,,,false,,,,1159398.8000001907,1159398.7000000477,,1159398.600000143,,1159206.543,8,400,,,
sequence,flow.Sequence,4_63,2023-08-28T19:29:52.118Z,,0,,,3214.704000047641,completion,,,,,false,,,,1159398.8000001907,1159398.7000000477,1156167.49,1156371.600000143,1156183.996,1159206.543,8,400,,,
trial,html.Screen,4_64_0,2023-08-28T19:29:55.463Z,,0,2,,3537.557000142988,response,ISIC_0067308.JPG,,ISIC_0033517.JPG,ISIC_0067308.JPG,false,1,keypress(m),500,1162744.4000000954,1162744.100000143,1159189.999,1159398.9000000954,1159206.543,1162563.244,8,400,15,,ISIC_0033517.JPG
break,html.Screen,4_64_1,2023-08-28T19:29:55.465Z,,0,,,NaN,,,,,,false,,,,1162745.9000000954,1162745.5,,1162744.8000001907,,1162563.244,8,400,,,
break_continue,html.Screen,4_64_2,2023-08-28T19:29:55.466Z,,0,,,NaN,,,,,,false,,,,1162746.7000000477,1162746.5,,1162746.2000000477,,1162563.244,8,400,,,
sequence,flow.Sequence,4_64,2023-08-28T19:29:55.466Z,,0,,,3539.9569999999367,completion,,,,,false,,,,1162747,1162746.5,1159189.999,1159398.9000000954,1159206.543,1162563.244,8,400,,,
trial,html.Screen,4_65_0,2023-08-28T19:29:59.253Z,,0,2,,3970.8560001431033,response,ISIC_0013334.JPG,,ISIC_8907232.JPG,ISIC_0013334.JPG,false,1,keypress(m),500,1166534.3000001907,1166534.100000143,1162546.356,1162747.3000001907,1162563.244,1166354.841,8,400,16,,ISIC_8907232.JPG
break,html.Screen,4_65_1,2023-08-28T19:29:59.254Z,,0,,,NaN,,,,,,false,,,,1166535,1166534.8000001907,,1166534.5,,1166354.841,8,400,,,
break_continue,html.Screen,4_65_2,2023-08-28T19:29:59.254Z,,0,,,NaN,,,,,,false,,,,1166535.2000000477,1166535.2000000477,,1166535,,1166354.841,8,400,,,
sequence,flow.Sequence,4_65,2023-08-28T19:29:59.254Z,,0,,,3971.956000047736,completion,,,,,false,,,,1166535.4000000954,1166535.2000000477,1162546.356,1162747.2000000477,1162563.244,1166354.841,8,400,,,
trial,html.Screen,4_66_0,2023-08-28T19:30:02.122Z,,0,2,,3047.5590000953525,response,ISIC_0031221.JPG,,ISIC_0054146.JPG,ISIC_0031221.JPG,false,1,keypress(m),500,1169402.5,1169402.4000000954,1166320.472,1166535.5,1166354.841,1169209.36,8,400,17,,ISIC_0054146.JPG
break,html.Screen,4_66_1,2023-08-28T19:30:02.122Z,,0,,,NaN,,,,,,false,,,,1169403,1169403,,1169402.600000143,,1169209.36,8,400,,,
break_continue,html.Screen,4_66_2,2023-08-28T19:30:02.122Z,,0,,,NaN,,,,,,false,,,,1169403.3000001907,1169403.2000000477,,1169403.100000143,,1169209.36,8,400,,,
sequence,flow.Sequence,4_66,2023-08-28T19:30:02.122Z,,0,,,3048.359000047669,completion,,,,,false,,,,1169403.4000000954,1169403.2000000477,1166320.472,1166535.5,1166354.841,1169209.36,8,400,,,
trial,html.Screen,4_67_0,2023-08-28T19:30:06.219Z,,0,2,,4290.940000190632,response,ISIC_1159891.JPG,,ISIC_4093484.JPG,ISIC_4093484.JPG,false,0,keypress(z),500,1173500.4000000954,1173500.3000001907,1169192.701,1169403.5,1169209.36,1173317.369,8,400,18,,ISIC_1159891.JPG
break,html.Screen,4_67_1,2023-08-28T19:30:06.220Z,,0,,,NaN,,,,,,false,,,,1173501,1173500.8000001907,,1173500.5,,1173317.369,8,400,,,
break_continue,html.Screen,4_67_2,2023-08-28T19:30:06.220Z,,0,,,NaN,,,,,,false,,,,1173501.100000143,1173501,,1173501,,1173317.369,8,400,,,
sequence,flow.Sequence,4_67,2023-08-28T19:30:06.220Z,,0,,,4291.639999999898,completion,,,,,false,,,,1173501.2000000477,1173501,1169192.701,1169403.5,1169209.36,1173317.369,8,400,,,
trial,html.Screen,4_68_0,2023-08-28T19:30:09.571Z,,0,2,,3533.431000190787,response,ISIC_0011484.JPG,,ISIC_5789263.JPG,ISIC_5789263.JPG,false,0,keypress(z),500,1176851,1176850.8000001907,1173300.736,1173501.2000000477,1173317.369,1176657.169,8,400,19,,ISIC_0011484.JPG
break,html.Screen,4_68_1,2023-08-28T19:30:09.572Z,,0,,,NaN,,,,,,false,,,,1176851.7000000477,1176851.5,,1176851.2000000477,,1176657.169,8,400,,,
break_continue,html.Screen,4_68_2,2023-08-28T19:30:09.572Z,,0,,,NaN,,,,,,false,,,,1176852.100000143,1176851.9000000954,,1176851.7000000477,,1176657.169,8,400,,,
sequence,flow.Sequence,4_68,2023-08-28T19:30:09.572Z,,0,,,3534.5310000954196,completion,,,,,false,,,,1176852.100000143,1176851.9000000954,1173300.736,1173501.2000000477,1173317.369,1176657.169,8,400,,,
trial,html.Screen,4_69_0,2023-08-28T19:30:12.426Z,,0,2,,3047.731000095373,response,ISIC_0030259.JPG,,ISIC_8412096.JPG,ISIC_8412096.JPG,false,0,keypress(z),500,1179705.4000000954,1179704.9000000954,1176640.75,1176852.2000000477,1176657.169,1179512.764,8,400,20,,ISIC_0030259.JPG
break,html.Screen,4_69_1,2023-08-28T19:30:12.427Z,,0,,,NaN,,,,,,false,,,,1179707,1179706.600000143,,1179705.8000001907,,1179512.764,8,400,,,
break_continue,html.Screen,4_69_2,2023-08-28T19:30:12.428Z,,0,,,NaN,,,,,,false,,,,1179707.9000000954,1179707.7000000477,,1179707.3000001907,,1179512.764,8,400,,,
sequence,flow.Sequence,4_69,2023-08-28T19:30:12.428Z,,0,,,3050.5310000476893,completion,,,,,false,,,,1179708.2000000477,1179707.7000000477,1176640.75,1176852.2000000477,1176657.169,1179512.764,8,400,,,
trial,html.Screen,4_70_0,2023-08-28T19:30:15.795Z,,0,2,,3562.4360000477172,response,ISIC_6323420.JPG,,ISIC_2856521.JPG,ISIC_2856521.JPG,false,0,keypress(z),500,1183075.4000000954,1183075.2000000477,1179496.193,1179708.5,1179512.764,1182885.97,8,400,21,,ISIC_6323420.JPG
break,html.Screen,4_70_1,2023-08-28T19:30:15.796Z,,0,,,NaN,,,,,,false,,,,1183075.9000000954,1183075.7000000477,,1183075.4000000954,,1182885.97,8,400,,,
break_continue,html.Screen,4_70_2,2023-08-28T19:30:15.796Z,,0,,,NaN,,,,,,false,,,,1183076.2000000477,1183076.100000143,,1183075.9000000954,,1182885.97,8,400,,,
sequence,flow.Sequence,4_70,2023-08-28T19:30:15.796Z,,0,,,3563.3360001430847,completion,,,,,false,,,,1183076.2000000477,1183076.100000143,1179496.193,1179708.5,1179512.764,1182885.97,8,400,,,
trial,html.Screen,4_71_0,2023-08-28T19:30:21.990Z,,0,2,,6384.230000047712,response,ISIC_0025458.JPG,,ISIC_0030546.JPG,ISIC_0030546.JPG,false,0,keypress(z),500,1189270.3000001907,1189270.2000000477,1182869.23,1183076.4000000954,1182885.97,1189081.509,8,400,22,,ISIC_0025458.JPG
break,html.Screen,4_71_1,2023-08-28T19:30:21.991Z,,0,,,NaN,,,,,,false,,,,1189270.8000001907,1189270.7000000477,,1189270.4000000954,,1189081.509,8,400,,,
break_continue,html.Screen,4_71_2,2023-08-28T19:30:21.991Z,,0,,,NaN,,,,,,false,,,,1189271,1189270.9000000954,,1189270.9000000954,,1189081.509,8,400,,,
sequence,flow.Sequence,4_71,2023-08-28T19:30:21.991Z,,0,,,6384.930000095395,completion,,,,,false,,,,1189271.100000143,1189270.9000000954,1182869.23,1183076.3000001907,1182885.97,1189081.509,8,400,,,
trial,html.Screen,4_72_0,2023-08-28T19:30:24.906Z,,0,2,,3103.591000142973,response,ISIC_0011295.JPG,,ISIC_1566215.JPG,ISIC_1566215.JPG,false,0,keypress(z),500,1192185.5,1192185.100000143,1189064.629,1189271.100000143,1189081.509,1192003.894,8,400,23,,ISIC_0011295.JPG
break,html.Screen,4_72_1,2023-08-28T19:30:24.907Z,,0,,,NaN,,,,,,false,,,,1192187.2000000477,1192186.7000000477,,1192185.9000000954,,1192003.894,8,400,,,
break_continue,html.Screen,4_72_2,2023-08-28T19:30:24.908Z,,0,,,NaN,,,,,,false,,,,1192188,1192187.7000000477,,1192187.4000000954,,1192003.894,8,400,,,
sequence,flow.Sequence,4_72,2023-08-28T19:30:24.908Z,,0,,,3106.1910000476055,completion,,,,,false,,,,1192188.3000001907,1192187.7000000477,1189064.629,1189271.100000143,1189081.509,1192003.894,8,400,,,
trial,html.Screen,4_73_0,2023-08-28T19:30:28.181Z,,0,2,,3456.4060001906473,response,ISIC_0519719.JPG,,ISIC_0054673.JPG,ISIC_0519719.JPG,false,1,keypress(m),500,1195460.7000000477,1195460.3000001907,1191987.033,1192188.5,1192003.894,1195276.927,8,400,24,,ISIC_0054673.JPG
break,html.Screen,4_73_1,2023-08-28T19:30:28.182Z,,0,,,NaN,,,,,,false,,,,1195462.3000001907,1195461.8000001907,,1195461,,1195276.927,8,400,,,
break_continue,html.Screen,4_73_2,2023-08-28T19:30:28.183Z,,0,,,NaN,,,,,,false,,,,1195463.2000000477,1195462.9000000954,,1195462.5,,1195276.927,8,400,,,
sequence,flow.Sequence,4_73,2023-08-28T19:30:28.184Z,,0,,,3459.00600009528,completion,,,,,false,,,,1195463.5,1195462.9000000954,1191987.033,1192188.5,1192003.894,1195276.927,8,400,,,
trial,html.Screen,4_74_0,2023-08-28T19:30:33.066Z,,0,2,,5068.773000047775,response,ISIC_0069933.JPG,,ISIC_0029550.JPG,ISIC_0029550.JPG,false,0,keypress(z),500,1200345.8000001907,1200345.7000000477,1195260.159,1195463.7000000477,1195276.927,1200152.998,8,400,25,,ISIC_0069933.JPG
break,html.Screen,4_74_1,2023-08-28T19:30:33.066Z,,0,,,NaN,,,,,,false,,,,1200346.2000000477,1200346.100000143,,1200345.9000000954,,1200152.998,8,400,,,
break_continue,html.Screen,4_74_2,2023-08-28T19:30:33.067Z,,0,,,NaN,,,,,,false,,,,1200346.5,1200346.5,,1200346.3000001907,,1200152.998,8,400,,,
sequence,flow.Sequence,4_74,2023-08-28T19:30:33.067Z,,0,,,5069.573000000091,completion,,,,,false,,,,1200346.600000143,1200346.5,1195260.159,1195463.7000000477,1195276.927,1200152.998,8,400,,,
trial,html.Screen,4_75_0,2023-08-28T19:30:35.948Z,,0,2,,3074.2020000477787,response,ISIC_0015258.JPG,,ISIC_3933658.JPG,ISIC_3933658.JPG,false,0,keypress(z),500,1203227.4000000954,1203227.2000000477,1200136.213,1200346.600000143,1200152.998,1203042.08,8,400,26,,ISIC_0015258.JPG
break,html.Screen,4_75_1,2023-08-28T19:30:35.948Z,,0,,,NaN,,,,,,false,,,,1203228.2000000477,1203227.9000000954,,1203227.600000143,,1203042.08,8,400,,,
break_continue,html.Screen,4_75_2,2023-08-28T19:30:35.949Z,,0,,,NaN,,,,,,false,,,,1203228.600000143,1203228.5,,1203228.3000001907,,1203042.08,8,400,,,
sequence,flow.Sequence,4_75,2023-08-28T19:30:35.949Z,,0,,,3075.502000000095,completion,,,,,false,,,,1203228.8000001907,1203228.5,1200136.213,1200346.600000143,1200152.998,1203042.08,8,400,,,
trial,html.Screen,4_76_0,2023-08-28T19:30:41.903Z,,0,2,,6141.120000047609,response,ISIC_7889838.JPG,,ISIC_3561065.JPG,ISIC_3561065.JPG,false,0,keypress(z),500,1209183.4000000954,1209183.2000000477,1203025.27,1203228.8000001907,1203042.08,1208986.752,8,400,27,,ISIC_7889838.JPG
break,html.Screen,4_76_1,2023-08-28T19:30:41.904Z,,0,,,NaN,,,,,,false,,,,1209183.8000001907,1209183.7000000477,,1209183.5,,1208986.752,8,400,,,
break_continue,html.Screen,4_76_2,2023-08-28T19:30:41.904Z,,0,,,NaN,,,,,,false,,,,1209183.9000000954,1209183.9000000954,,1209183.8000001907,,1208986.752,8,400,,,
sequence,flow.Sequence,4_76,2023-08-28T19:30:41.904Z,,0,,,6141.820000095293,completion,,,,,false,,,,1209184,1209183.9000000954,1203025.27,1203228.8000001907,1203042.08,1208986.752,8,400,,,
trial,html.Screen,4_77_0,2023-08-28T19:30:45.109Z,,0,2,,3401.9480000475887,response,ISIC_0011943.JPG,,ISIC_0065535.JPG,ISIC_0011943.JPG,false,1,keypress(m),500,1212388.8000001907,1212388.7000000477,1208970.092,1209184,1208986.752,1212193.018,8,400,28,,ISIC_0065535.JPG
break,html.Screen,4_77_1,2023-08-28T19:30:45.109Z,,0,,,NaN,,,,,,false,,,,1212389.3000001907,1212389.100000143,,1212388.9000000954,,1212193.018,8,400,,,
break_continue,html.Screen,4_77_2,2023-08-28T19:30:45.110Z,,0,,,NaN,,,,,,false,,,,1212389.4000000954,1212389.4000000954,,1212389.3000001907,,1212193.018,8,400,,,
sequence,flow.Sequence,4_77,2023-08-28T19:30:45.110Z,,0,,,3402.6480000952724,completion,,,,,false,,,,1212389.600000143,1212389.4000000954,1208970.092,1209184,1208986.752,1212193.018,8,400,,,
trial,html.Screen,4_78_0,2023-08-28T19:30:49.735Z,,0,2,,4821.782000190811,response,ISIC_0536433.JPG,,ISIC_0054318.JPG,ISIC_0054318.JPG,false,0,keypress(z),500,1217015,1217014.8000001907,1212176.314,1212389.600000143,1212193.018,1216818.752,8,400,29,,ISIC_0536433.JPG
break,html.Screen,4_78_1,2023-08-28T19:30:49.736Z,,0,,,NaN,,,,,,false,,,,1217015.9000000954,1217015.600000143,,1217015.100000143,,1216818.752,8,400,,,
break_continue,html.Screen,4_78_2,2023-08-28T19:30:49.737Z,,0,,,NaN,,,,,,false,,,,1217016.3000001907,1217016.2000000477,,1217016.100000143,,1216818.752,8,400,,,
sequence,flow.Sequence,4_78,2023-08-28T19:30:49.737Z,,0,,,4823.18200004776,completion,,,,,false,,,,1217016.600000143,1217016.2000000477,1212176.314,1212389.600000143,1212193.018,1216818.752,8,400,,,
trial,html.Screen,4_79_0,2023-08-28T19:30:53.918Z,,0,2,,4379.148000095272,response,ISIC_9720044.JPG,,ISIC_0010580.JPG,ISIC_9720044.JPG,false,1,keypress(m),500,1221198.2000000477,1221197.9000000954,1216802.097,1217016.7000000477,1216818.752,1221010.313,8,400,30,,ISIC_0010580.JPG
break,html.Screen,4_79_1,2023-08-28T19:30:53.920Z,,0,,,NaN,,,,,,false,,,,1221199.9000000954,1221199.3000001907,,1221198.600000143,,1221010.313,8,400,,,
break_continue,html.Screen,4_79_2,2023-08-28T19:30:53.921Z,,0,,,NaN,,,,,,false,,,,1221200.7000000477,1221200.4000000954,,1221200.100000143,,1221010.313,8,400,,,
sequence,flow.Sequence,4_79,2023-08-28T19:30:53.921Z,,0,,,4381.648000095272,completion,,,,,false,,,,1221200.9000000954,1221200.4000000954,1216802.097,1217016.600000143,1216818.752,1221010.313,8,400,,,
trial,html.Screen,4_80_0,2023-08-28T19:30:58.006Z,,0,2,,4275.0870000952855,response,ISIC_0027538.JPG,,ISIC_7358691.JPG,ISIC_7358691.JPG,false,0,keypress(z),500,1225285.5,1225285.4000000954,1220993.478,1221201.2000000477,1221010.313,1225101.621,8,400,31,,ISIC_0027538.JPG
break,html.Screen,4_80_1,2023-08-28T19:30:58.006Z,,0,,,NaN,,,,,,false,,,,1225286,1225285.8000001907,,1225285.600000143,,1225101.621,8,400,,,
break_continue,html.Screen,4_80_2,2023-08-28T19:30:58.006Z,,0,,,NaN,,,,,,false,,,,1225286.3000001907,1225286.2000000477,,1225286.100000143,,1225101.621,8,400,,,
sequence,flow.Sequence,4_80,2023-08-28T19:30:58.007Z,,0,,,4275.887000047602,completion,,,,,false,,,,1225286.4000000954,1225286.2000000477,1220993.478,1221201.100000143,1221010.313,1225101.621,8,400,,,
trial,html.Screen,4_81_0,2023-08-28T19:31:01.594Z,,0,2,,3771.679000190692,response,ISIC_0064982.JPG,,ISIC_8292179.JPG,ISIC_0064982.JPG,false,1,keypress(m),500,1228873.4000000954,1228873.3000001907,1225084.813,1225286.5,1225101.621,1228691.939,8,400,32,,ISIC_8292179.JPG
break,html.Screen,4_81_1,2023-08-28T19:31:01.594Z,,0,,,NaN,,,,,,false,,,,1228873.9000000954,1228873.7000000477,,1228873.5,,1228691.939,8,400,,,
break_continue,html.Screen,4_81_2,2023-08-28T19:31:01.594Z,,0,,,NaN,,,,,,false,,,,1228874,1228873.9000000954,,1228873.9000000954,,1228691.939,8,400,,,
sequence,flow.Sequence,4_81,2023-08-28T19:31:01.594Z,,0,,,3772.2790000953246,completion,,,,,false,,,,1228874.100000143,1228873.9000000954,1225084.813,1225286.4000000954,1225101.621,1228691.939,8,400,,,
trial,html.Screen,4_82_0,2023-08-28T19:31:05.324Z,,0,2,,3911.9610000953544,response,ISIC_0033947.JPG,,ISIC_4810500.JPG,ISIC_4810500.JPG,false,0,keypress(z),500,1232604.2000000477,1232603.9000000954,1228675.116,1228874.100000143,1228691.939,1232415.857,8,400,33,,ISIC_0033947.JPG
break,html.Screen,4_82_1,2023-08-28T19:31:05.326Z,,0,,,NaN,,,,,,false,,,,1232605.7000000477,1232605.3000001907,,1232604.600000143,,1232415.857,8,400,,,
break_continue,html.Screen,4_82_2,2023-08-28T19:31:05.327Z,,0,,,NaN,,,,,,false,,,,1232606.4000000954,1232606.2000000477,,1232605.9000000954,,1232415.857,8,400,,,
sequence,flow.Sequence,4_82,2023-08-28T19:31:05.327Z,,0,,,3914.2610000476707,completion,,,,,false,,,,1232606.8000001907,1232606.2000000477,1228675.116,1228874.100000143,1228691.939,1232415.857,8,400,,,
trial,html.Screen,4_83_0,2023-08-28T19:31:10.554Z,,0,2,,5416.743000142975,response,ISIC_8956001.JPG,,ISIC_7145788.JPG,ISIC_8956001.JPG,false,1,keypress(m),500,1237833,1237832.600000143,1232399.012,1232606.9000000954,1232415.857,1237642.645,8,400,34,,ISIC_7145788.JPG
break,html.Screen,4_83_1,2023-08-28T19:31:10.556Z,,0,,,NaN,,,,,,false,,,,1237834.600000143,1237834,,1237833.4000000954,,1237642.645,8,400,,,
break_continue,html.Screen,4_83_2,2023-08-28T19:31:10.557Z,,0,,,NaN,,,,,,false,,,,1237835.3000001907,1237835.100000143,,1237834.7000000477,,1237642.645,8,400,,,
sequence,flow.Sequence,4_83,2023-08-28T19:31:10.557Z,,0,,,5419.243000142975,completion,,,,,false,,,,1237835.600000143,1237835.100000143,1232399.012,1232606.8000001907,1232415.857,1237642.645,8,400,,,
trial,html.Screen,4_84_0,2023-08-28T19:31:13.638Z,,0,2,,3274.055000047665,response,ISIC_0046642.JPG,,ISIC_0001104.JPG,ISIC_0046642.JPG,false,1,keypress(m),500,1240916.9000000954,1240916.7000000477,1237625.838,1237835.9000000954,1237642.645,1240731.898,8,400,35,,ISIC_0001104.JPG
break,html.Screen,4_84_1,2023-08-28T19:31:13.639Z,,0,,,NaN,,,,,,false,,,,1240917.8000001907,1240917.600000143,,1240917,,1240731.898,8,400,,,
break_continue,html.Screen,4_84_2,2023-08-28T19:31:13.639Z,,0,,,NaN,,,,,,false,,,,1240918.100000143,1240918,,1240917.9000000954,,1240731.898,8,400,,,
sequence,flow.Sequence,4_84,2023-08-28T19:31:13.640Z,,0,,,3275.3549999999814,completion,,,,,false,,,,1240918.2000000477,1240918,1237625.838,1237835.8000001907,1237642.645,1240731.898,8,400,,,
trial,html.Screen,4_85_0,2023-08-28T19:31:16.977Z,,0,2,,3523.5020000953227,response,ISIC_2518896.JPG,,ISIC_8777813.JPG,ISIC_2518896.JPG,false,1,keypress(m),500,1244255.600000143,1244255.4000000954,1240715.325,1240918.3000001907,1240731.898,1244071.751,8,400,36,,ISIC_8777813.JPG
break,html.Screen,4_85_1,2023-08-28T19:31:16.977Z,,0,,,NaN,,,,,,false,,,,1244256.100000143,1244255.9000000954,,1244255.7000000477,,1244071.751,8,400,,,
break_continue,html.Screen,4_85_2,2023-08-28T19:31:16.978Z,,0,,,NaN,,,,,,false,,,,1244256.2000000477,1244256.2000000477,,1244256.100000143,,1244071.751,8,400,,,
sequence,flow.Sequence,4_85,2023-08-28T19:31:16.978Z,,0,,,3524.302000047639,completion,,,,,false,,,,1244256.3000001907,1244256.2000000477,1240715.325,1240918.3000001907,1240731.898,1244071.751,8,400,,,
trial,html.Screen,4_86_0,2023-08-28T19:31:20.212Z,,0,2,,3418.749000000069,response,ISIC_0011370.JPG,,ISIC_0026141.JPG,ISIC_0026141.JPG,false,0,keypress(z),500,1247490.7000000477,1247490.5,1244055.053,1244256.4000000954,1244071.751,1247294.701,8,400,37,,ISIC_0011370.JPG
break,html.Screen,4_86_1,2023-08-28T19:31:20.213Z,,0,,,NaN,,,,,,false,,,,1247491.2000000477,1247491.100000143,,1247490.8000001907,,1247294.701,8,400,,,
break_continue,html.Screen,4_86_2,2023-08-28T19:31:20.213Z,,0,,,NaN,,,,,,false,,,,1247491.5,1247491.4000000954,,1247491.3000001907,,1247294.701,8,400,,,
sequence,flow.Sequence,4_86,2023-08-28T19:31:20.213Z,,0,,,3419.6490000954363,completion,,,,,false,,,,1247491.600000143,1247491.4000000954,1244055.053,1244256.4000000954,1244071.751,1247294.701,8,400,,,
trial,html.Screen,4_87_0,2023-08-28T19:31:25.127Z,,0,2,,5110.399000143167,response,ISIC_0027072.JPG,,ISIC_0032165.JPG,ISIC_0027072.JPG,false,1,keypress(m),500,1252405.5,1252405.100000143,1247278.009,1247491.600000143,1247294.701,1252221.042,8,400,38,,ISIC_0032165.JPG
break,html.Screen,4_87_1,2023-08-28T19:31:25.128Z,,0,,,NaN,,,,,,false,,,,1252407.100000143,1252406.600000143,,1252405.9000000954,,1252221.042,8,400,,,
break_continue,html.Screen,4_87_2,2023-08-28T19:31:25.129Z,,0,,,NaN,,,,,,false,,,,1252408,1252407.600000143,,1252407.3000001907,,1252221.042,8,400,,,
sequence,flow.Sequence,4_87,2023-08-28T19:31:25.130Z,,0,,,5112.899000143167,completion,,,,,false,,,,1252408.4000000954,1252407.600000143,1247278.009,1247491.600000143,1247294.701,1252221.042,8,400,,,
trial,html.Screen,4_88_0,2023-08-28T19:31:29.565Z,,0,2,,4621.958000000101,response,ISIC_6026759.JPG,,ISIC_0054080.JPG,ISIC_6026759.JPG,false,1,keypress(m),500,1256843.4000000954,1256843,1252204.213,1252408.600000143,1252221.042,1256679.765,8,400,39,,ISIC_0054080.JPG
break,html.Screen,4_88_1,2023-08-28T19:31:29.566Z,,0,,,NaN,,,,,,false,,,,1256844.8000001907,1256844.3000001907,,1256843.7000000477,,1256679.765,8,400,,,
break_continue,html.Screen,4_88_2,2023-08-28T19:31:29.567Z,,0,,,NaN,,,,,,false,,,,1256845.4000000954,1256845.2000000477,,1256844.9000000954,,1256679.765,8,400,,,
sequence,flow.Sequence,4_88,2023-08-28T19:31:29.567Z,,0,,,4624.158000047784,completion,,,,,false,,,,1256845.7000000477,1256845.2000000477,1252204.213,1252408.5,1252221.042,1256679.765,8,400,,,
trial,html.Screen,4_89_0,2023-08-28T19:31:35.201Z,,0,2,,5800.035000190837,response,ISIC_0059412.JPG,,ISIC_0032149.JPG,ISIC_0032149.JPG,false,0,keypress(z),500,1262480,1262479.8000001907,1256663.175,1256845.9000000954,1256679.765,1262290.529,8,400,40,,ISIC_0059412.JPG
break,html.Screen,4_89_1,2023-08-28T19:31:35.202Z,,0,,,NaN,,,,,,false,,,,1262480.8000001907,1262480.600000143,,1262480.2000000477,,1262290.529,8,400,,,
break_continue,html.Screen,4_89_2,2023-08-28T19:31:35.202Z,,0,,,NaN,,,,,,false,,,,1262481.100000143,1262481,,1262480.9000000954,,1262290.529,8,400,,,
sequence,flow.Sequence,4_89,2023-08-28T19:31:35.203Z,,0,,,5801.235000000102,completion,,,,,false,,,,1262481.2000000477,1262481,1256663.175,1256845.7000000477,1256679.765,1262290.529,8,400,,,
trial,html.Screen,4_90_0,2023-08-28T19:31:40.251Z,,0,2,,5239.371000095271,response,ISIC_4363603.JPG,,ISIC_0068000.JPG,ISIC_4363603.JPG,false,1,keypress(m),500,1267530.100000143,1267529.9000000954,1262274.006,1262481.3000001907,1262290.529,1267333.672,8,400,41,,ISIC_0068000.JPG
break,html.Screen,4_90_1,2023-08-28T19:31:40.252Z,,0,,,NaN,,,,,,false,,,,1267530.8000001907,1267530.600000143,,1267530.2000000477,,1267333.672,8,400,,,
break_continue,html.Screen,4_90_2,2023-08-28T19:31:40.252Z,,0,,,NaN,,,,,,false,,,,1267531.100000143,1267531,,1267530.9000000954,,1267333.672,8,400,,,
sequence,flow.Sequence,4_90,2023-08-28T19:31:40.253Z,,0,,,5240.470999999903,completion,,,,,false,,,,1267531.2000000477,1267531,1262274.006,1262481.3000001907,1262290.529,1267333.672,8,400,,,
trial,html.Screen,4_91_0,2023-08-28T19:31:43.119Z,,0,2,,3063.528000047663,response,ISIC_0032716.JPG,,ISIC_1135213.JPG,ISIC_0032716.JPG,false,1,keypress(m),500,1270397.7000000477,1270397.2000000477,1267316.981,1267531.3000001907,1267333.672,1270206.063,8,400,42,,ISIC_1135213.JPG
break,html.Screen,4_91_1,2023-08-28T19:31:43.120Z,,0,,,NaN,,,,,,false,,,,1270399,1270398.600000143,,1270397.9000000954,,1270206.063,8,400,,,
break_continue,html.Screen,4_91_2,2023-08-28T19:31:43.121Z,,0,,,NaN,,,,,,false,,,,1270399.7000000477,1270399.5,,1270399.2000000477,,1270206.063,8,400,,,
sequence,flow.Sequence,4_91,2023-08-28T19:31:43.121Z,,0,,,3065.8279999999795,completion,,,,,false,,,,1270400,1270399.5,1267316.981,1267531.3000001907,1267333.672,1270206.063,8,400,,,
trial,html.Screen,4_92_0,2023-08-28T19:31:45.876Z,,0,2,,2948.436999999918,response,ISIC_4890201.JPG,,ISIC_2276141.JPG,ISIC_4890201.JPG,false,1,keypress(m),500,1273154.600000143,1273154.5,1270189.228,1270400.2000000477,1270206.063,1272961.312,8,400,43,,ISIC_2276141.JPG
break,html.Screen,4_92_1,2023-08-28T19:31:45.876Z,,0,,,NaN,,,,,,false,,,,1273155,1273154.9000000954,,1273154.7000000477,,1272961.312,8,400,,,
break_continue,html.Screen,4_92_2,2023-08-28T19:31:45.877Z,,0,,,NaN,,,,,,false,,,,1273155.2000000477,1273155.100000143,,1273155.100000143,,1272961.312,8,400,,,
sequence,flow.Sequence,4_92,2023-08-28T19:31:45.877Z,,0,,,2949.037000142969,completion,,,,,false,,,,1273155.3000001907,1273155.100000143,1270189.228,1270400.100000143,1270206.063,1272961.312,8,400,,,
trial,html.Screen,4_93_0,2023-08-28T19:31:49.016Z,,0,2,,3333.0880000954494,response,ISIC_0025987.JPG,,ISIC_0009911.JPG,ISIC_0009911.JPG,false,0,keypress(z),500,1276294.600000143,1276294.4000000954,1272944.912,1273155.3000001907,1272961.312,1276100.736,8,400,44,,ISIC_0025987.JPG
break,html.Screen,4_93_1,2023-08-28T19:31:49.016Z,,0,,,NaN,,,,,,false,,,,1276295.100000143,1276294.9000000954,,1276294.7000000477,,1276100.736,8,400,,,
break_continue,html.Screen,4_93_2,2023-08-28T19:31:49.017Z,,0,,,NaN,,,,,,false,,,,1276295.3000001907,1276295.2000000477,,1276295.2000000477,,1276100.736,8,400,,,
sequence,flow.Sequence,4_93,2023-08-28T19:31:49.017Z,,0,,,3333.8880000477657,completion,,,,,false,,,,1276295.3000001907,1276295.2000000477,1272944.912,1273155.3000001907,1272961.312,1276100.736,8,400,,,
trial,html.Screen,4_94_0,2023-08-28T19:31:54.699Z,,0,2,,5877.2639999999665,response,ISIC_2177748.JPG,,ISIC_0058021.JPG,ISIC_0058021.JPG,false,0,keypress(z),500,1281978.100000143,1281978,1276084.056,1276295.4000000954,1276100.736,1281795.155,8,400,45,,ISIC_2177748.JPG
break,html.Screen,4_94_1,2023-08-28T19:31:54.700Z,,0,,,NaN,,,,,,false,,,,1281978.600000143,1281978.4000000954,,1281978.2000000477,,1281795.155,8,400,,,
break_continue,html.Screen,4_94_2,2023-08-28T19:31:54.700Z,,0,,,NaN,,,,,,false,,,,1281978.7000000477,1281978.7000000477,,1281978.600000143,,1281795.155,8,400,,,
sequence,flow.Sequence,4_94,2023-08-28T19:31:54.700Z,,0,,,5877.96400004765,completion,,,,,false,,,,1281978.7000000477,1281978.7000000477,1276084.056,1276295.4000000954,1276100.736,1281795.155,8,400,,,
trial,html.Screen,4_95_0,2023-08-28T19:31:57.619Z,,0,2,,3102.545000047656,response,ISIC_0025778.JPG,,ISIC_0900349.JPG,ISIC_0900349.JPG,false,0,keypress(z),500,1284897.9000000954,1284897.7000000477,1281778.437,1281978.8000001907,1281795.155,1284717.704,8,400,46,,ISIC_0025778.JPG
break,html.Screen,4_95_1,2023-08-28T19:31:57.621Z,,0,,,NaN,,,,,,false,,,,1284899.3000001907,1284898.9000000954,,1284898.3000001907,,1284717.704,8,400,,,
break_continue,html.Screen,4_95_2,2023-08-28T19:31:57.621Z,,0,,,NaN,,,,,,false,,,,1284900.100000143,1284899.9000000954,,1284899.5,,1284717.704,8,400,,,
sequence,flow.Sequence,4_95,2023-08-28T19:31:57.622Z,,0,,,3104.7450000953395,completion,,,,,false,,,,1284900.4000000954,1284899.9000000954,1281778.437,1281978.8000001907,1281795.155,1284717.704,8,400,,,
trial,html.Screen,4_96_0,2023-08-28T19:32:00.428Z,,0,2,,2988.2960000000894,response,ISIC_0260316.JPG,,ISIC_3190566.JPG,ISIC_3190566.JPG,false,0,keypress(z),500,1287706.3000001907,1287706,1284684.136,1284900.7000000477,1284717.704,1287523.084,8,400,47,,ISIC_0260316.JPG
break,html.Screen,4_96_1,2023-08-28T19:32:00.429Z,,0,,,NaN,,,,,,false,,,,1287707.9000000954,1287707.5,,1287706.8000001907,,1287523.084,8,400,,,
break_continue,html.Screen,4_96_2,2023-08-28T19:32:00.430Z,,0,,,NaN,,,,,,false,,,,1287708.7000000477,1287708.4000000954,,1287708.100000143,,1287523.084,8,400,,,
sequence,flow.Sequence,4_96,2023-08-28T19:32:00.430Z,,0,,,2990.696000095457,completion,,,,,false,,,,1287709,1287708.4000000954,1284684.136,1284900.600000143,1284717.704,1287523.084,8,400,,,
trial,html.Screen,4_97_0,2023-08-28T19:32:03.344Z,,0,2,,3099.716000190703,response,ISIC_0066358.JPG,,ISIC_9348399.JPG,ISIC_9348399.JPG,false,0,keypress(z),500,1290623,1290622.8000001907,1287506.291,1287709.2000000477,1287523.084,1290428.675,8,400,48,,ISIC_0066358.JPG
break,html.Screen,4_97_1,2023-08-28T19:32:03.345Z,,0,,,NaN,,,,,,false,,,,1290623.4000000954,1290623.3000001907,,1290623,,1290428.675,8,400,,,
break_continue,html.Screen,4_97_2,2023-08-28T19:32:03.345Z,,0,,,NaN,,,,,,false,,,,1290623.5,1290623.5,,1290623.4000000954,,1290428.675,8,400,,,
sequence,flow.Sequence,4_97,2023-08-28T19:32:03.345Z,,0,,,3100.4159999999683,completion,,,,,false,,,,1290623.600000143,1290623.5,1287506.291,1287709.100000143,1287523.084,1290428.675,8,400,,,
trial,html.Screen,4_98_0,2023-08-28T19:32:07.939Z,,0,2,,4788.725000095321,response,ISIC_2143002.JPG,,ISIC_0012701.JPG,ISIC_0012701.JPG,false,0,keypress(z),500,1295217.5,1295217.4000000954,1290412.074,1290623.7000000477,1290428.675,1295038.545,8,400,49,,ISIC_2143002.JPG
break,html.Screen,4_98_1,2023-08-28T19:32:07.940Z,,0,,,NaN,,,,,,false,,,,1295218.5,1295218.2000000477,,1295217.8000001907,,1295038.545,8,400,,,
break_continue,html.Screen,4_98_2,2023-08-28T19:32:07.940Z,,0,,,NaN,,,,,,false,,,,1295218.9000000954,1295218.9000000954,,1295218.7000000477,,1295038.545,8,400,,,
sequence,flow.Sequence,4_98,2023-08-28T19:32:07.940Z,,0,,,4790.225000095321,completion,,,,,false,,,,1295219.100000143,1295218.9000000954,1290412.074,1290623.7000000477,1290428.675,1295038.545,8,400,,,
trial,html.Screen,4_99_0,2023-08-28T19:32:11.113Z,,0,2,,3351.7550001908094,response,ISIC_1663144.JPG,,ISIC_0000148.JPG,ISIC_1663144.JPG,false,1,keypress(m),500,1298390.5,1298390.3000001907,1295004.186,1295219.3000001907,1295038.545,1298193.742,8,400,50,,ISIC_0000148.JPG
break,html.Screen,4_99_1,2023-08-28T19:32:15.953Z,,0,,,4842.9809999999125,timeout,,,,,false,,,,1303230.7000000477,1303230.5,1298177.326,1298390.7000000477,1298193.742,1303036.723,8,400,,,
break_continue,html.Screen,4_99_2,2023-08-28T19:32:45.854Z,,0,,,30076.477000047686,response,,,,,false,continue,keypress(Space),,1333131.5,1333113.2000000477,1303230.5,1303230.8000001907,1303036.723,1332945.073,8,400,,,
sequence,flow.Sequence,4_99,2023-08-28T19:32:45.854Z,,0,,,38074.65500004776,completion,,,,,false,,,,1333131.600000143,1333113.2000000477,1295004.186,1295219.3000001907,1295038.545,1332945.073,8,400,,,
trial,html.Screen,4_100_0,2023-08-28T19:32:48.965Z,,0,3,,3296.7270001906436,response,ISIC_0011381.JPG,,ISIC_0034210.JPG,ISIC_0034210.JPG,false,0,keypress(z),500,1336242.3000001907,1336241.8000001907,1332928.236,1333131.600000143,1332945.073,1336050.863,8,400,1,,ISIC_0011381.JPG
break,html.Screen,4_100_1,2023-08-28T19:32:48.966Z,,0,,,NaN,,,,,,false,,,,1336243.9000000954,1336243.3000001907,,1336242.600000143,,1336050.863,8,400,,,
break_continue,html.Screen,4_100_2,2023-08-28T19:32:48.967Z,,0,,,NaN,,,,,,false,,,,1336244.7000000477,1336244.5,,1336244.100000143,,1336050.863,8,400,,,
sequence,flow.Sequence,4_100,2023-08-28T19:32:48.967Z,,0,,,3299.4269999999087,completion,,,,,false,,,,1336245,1336244.5,1332928.236,1333131.600000143,1332945.073,1336050.863,8,400,,,
trial,html.Screen,4_101_0,2023-08-28T19:32:52.666Z,,0,3,,3892.337000047788,response,ISIC_7043369.JPG,,ISIC_0031472.JPG,ISIC_7043369.JPG,false,1,keypress(m),500,1339943.600000143,1339943.2000000477,1336034.217,1336245.2000000477,1336050.863,1339758.368,8,400,2,,ISIC_0031472.JPG
break,html.Screen,4_101_1,2023-08-28T19:32:52.668Z,,0,,,NaN,,,,,,false,,,,1339945.100000143,1339944.7000000477,,1339944,,1339758.368,8,400,,,
break_continue,html.Screen,4_101_2,2023-08-28T19:32:52.668Z,,0,,,NaN,,,,,,false,,,,1339945.9000000954,1339945.7000000477,,1339945.4000000954,,1339758.368,8,400,,,
sequence,flow.Sequence,4_101,2023-08-28T19:32:52.669Z,,0,,,3894.837000047788,completion,,,,,false,,,,1339946.2000000477,1339945.7000000477,1336034.217,1336245.100000143,1336050.863,1339758.368,8,400,,,
trial,html.Screen,4_102_0,2023-08-28T19:32:55.615Z,,0,3,,3134.432000190718,response,ISIC_7789452.JPG,,ISIC_5237059.JPG,ISIC_5237059.JPG,false,0,keypress(z),500,1342893,1342892.8000001907,1339741.291,1339946.5,1339758.368,1342697.029,8,400,3,,ISIC_7789452.JPG
break,html.Screen,4_102_1,2023-08-28T19:32:55.616Z,,0,,,NaN,,,,,,false,,,,1342893.4000000954,1342893.3000001907,,1342893.100000143,,1342697.029,8,400,,,
break_continue,html.Screen,4_102_2,2023-08-28T19:32:55.616Z,,0,,,NaN,,,,,,false,,,,1342893.600000143,1342893.600000143,,1342893.5,,1342697.029,8,400,,,
sequence,flow.Sequence,4_102,2023-08-28T19:32:55.616Z,,0,,,3135.2320001430344,completion,,,,,false,,,,1342893.7000000477,1342893.600000143,1339741.291,1339946.4000000954,1339758.368,1342697.029,8,400,,,
trial,html.Screen,4_103_0,2023-08-28T19:32:58.401Z,,0,3,,2981.5710001429543,response,ISIC_7600621.JPG,,ISIC_0061011.JPG,ISIC_7600621.JPG,false,1,keypress(m),500,1345679,1345678.600000143,1342680.346,1342893.7000000477,1342697.029,1345485.968,8,400,4,,ISIC_0061011.JPG
break,html.Screen,4_103_1,2023-08-28T19:32:58.403Z,,0,,,NaN,,,,,,false,,,,1345680.600000143,1345680.100000143,,1345679.4000000954,,1345485.968,8,400,,,
break_continue,html.Screen,4_103_2,2023-08-28T19:32:58.404Z,,0,,,NaN,,,,,,false,,,,1345681.4000000954,1345681.2000000477,,1345680.9000000954,,1345485.968,8,400,,,
sequence,flow.Sequence,4_103,2023-08-28T19:32:58.404Z,,0,,,2984.171000047587,completion,,,,,false,,,,1345681.7000000477,1345681.2000000477,1342680.346,1342893.7000000477,1342697.029,1345485.968,8,400,,,
trial,html.Screen,4_104_0,2023-08-28T19:33:01.418Z,,0,3,,3209.232000047574,response,ISIC_2021321.JPG,,ISIC_0058079.JPG,ISIC_0058079.JPG,false,0,keypress(z),500,1348695.3000001907,1348695.2000000477,1345469.347,1345681.9000000954,1345485.968,1348508.378,8,400,5,,ISIC_2021321.JPG
break,html.Screen,4_104_1,2023-08-28T19:33:01.418Z,,0,,,NaN,,,,,,false,,,,1348695.8000001907,1348695.7000000477,,1348695.4000000954,,1348508.378,8,400,,,
break_continue,html.Screen,4_104_2,2023-08-28T19:33:01.418Z,,0,,,NaN,,,,,,false,,,,1348695.9000000954,1348695.9000000954,,1348695.9000000954,,1348508.378,8,400,,,
sequence,flow.Sequence,4_104,2023-08-28T19:33:01.418Z,,0,,,3209.9320000952575,completion,,,,,false,,,,1348696,1348695.9000000954,1345469.347,1345681.9000000954,1345485.968,1348508.378,8,400,,,
trial,html.Screen,4_105_0,2023-08-28T19:33:04.077Z,,0,3,,2845.3220000476576,response,ISIC_0066678.JPG,,ISIC_9058340.JPG,ISIC_9058340.JPG,false,0,keypress(z),500,1351354.100000143,1351353.7000000477,1348491.673,1348696,1348508.378,1351163.653,8,400,6,,ISIC_0066678.JPG
break,html.Screen,4_105_1,2023-08-28T19:33:04.078Z,,0,,,NaN,,,,,,false,,,,1351355.600000143,1351355.3000001907,,1351354.5,,1351163.653,8,400,,,
break_continue,html.Screen,4_105_2,2023-08-28T19:33:04.079Z,,0,,,NaN,,,,,,false,,,,1351356.4000000954,1351356.2000000477,,1351355.9000000954,,1351163.653,8,400,,,
sequence,flow.Sequence,4_105,2023-08-28T19:33:04.079Z,,0,,,2847.8220000476576,completion,,,,,false,,,,1351356.7000000477,1351356.2000000477,1348491.673,1348696,1348508.378,1351163.653,8,400,,,
trial,html.Screen,4_106_0,2023-08-28T19:33:07.554Z,,0,3,,3668.147000190802,response,ISIC_0010262.JPG,,ISIC_0006850.JPG,ISIC_0006850.JPG,false,0,keypress(z),500,1354832,1354831.8000001907,1351146.824,1351357,1351163.653,1354636.948,8,400,7,,ISIC_0010262.JPG
break,html.Screen,4_106_1,2023-08-28T19:33:07.555Z,,0,,,NaN,,,,,,false,,,,1354832.7000000477,1354832.5,,1354832.2000000477,,1354636.948,8,400,,,
break_continue,html.Screen,4_106_2,2023-08-28T19:33:07.556Z,,0,,,NaN,,,,,,false,,,,1354833,1354833,,1354832.8000001907,,1354636.948,8,400,,,
sequence,flow.Sequence,4_106,2023-08-28T19:33:07.556Z,,0,,,3669.347000000067,completion,,,,,false,,,,1354833.2000000477,1354833,1351146.824,1351356.9000000954,1351163.653,1354636.948,8,400,,,
trial,html.Screen,4_107_0,2023-08-28T19:33:10.695Z,,0,3,,3334.15200014296,response,ISIC_8790198.JPG,,ISIC_0065537.JPG,ISIC_8790198.JPG,false,1,keypress(m),500,1357971.2000000477,1357971.100000143,1354620.485,1354833.3000001907,1354636.948,1357776.388,8,400,8,,ISIC_0065537.JPG
break,html.Screen,4_107_1,2023-08-28T19:33:10.696Z,,0,,,NaN,,,,,,false,,,,1357971.7000000477,1357971.600000143,,1357971.4000000954,,1357776.388,8,400,,,
break_continue,html.Screen,4_107_2,2023-08-28T19:33:10.696Z,,0,,,NaN,,,,,,false,,,,1357971.9000000954,1357971.9000000954,,1357971.8000001907,,1357776.388,8,400,,,
sequence,flow.Sequence,4_107,2023-08-28T19:33:10.696Z,,0,,,3334.952000095276,completion,,,,,false,,,,1357972,1357971.9000000954,1354620.485,1354833.3000001907,1354636.948,1357776.388,8,400,,,
trial,html.Screen,4_108_0,2023-08-28T19:33:13.450Z,,0,3,,2949.7120001430158,response,ISIC_1473511.JPG,,ISIC_4137545.JPG,ISIC_1473511.JPG,false,1,keypress(m),500,1360726.3000001907,1360726.100000143,1357759.699,1357972,1357776.388,1360548.452,8,400,9,,ISIC_4137545.JPG
break,html.Screen,4_108_1,2023-08-28T19:33:13.451Z,,0,,,NaN,,,,,,false,,,,1360727,1360726.8000001907,,1360726.4000000954,,1360548.452,8,400,,,
break_continue,html.Screen,4_108_2,2023-08-28T19:33:13.451Z,,0,,,NaN,,,,,,false,,,,1360727.3000001907,1360727.2000000477,,1360727.100000143,,1360548.452,8,400,,,
sequence,flow.Sequence,4_108,2023-08-28T19:33:13.451Z,,0,,,2950.8120000476483,completion,,,,,false,,,,1360727.4000000954,1360727.2000000477,1357759.699,1357972,1357776.388,1360548.452,8,400,,,
trial,html.Screen,4_109_0,2023-08-28T19:33:18.097Z,,0,3,,4824.948000095319,response,ISIC_8409024.JPG,,ISIC_0594695.JPG,ISIC_0594695.JPG,false,0,keypress(z),500,1365373.600000143,1365373.4000000954,1360515.069,1360727.5,1360548.452,1365191.175,8,400,10,,ISIC_8409024.JPG
break,html.Screen,4_109_1,2023-08-28T19:33:18.098Z,,0,,,NaN,,,,,,false,,,,1365374.5,1365374.3000001907,,1365373.8000001907,,1365191.175,8,400,,,
break_continue,html.Screen,4_109_2,2023-08-28T19:33:18.099Z,,0,,,NaN,,,,,,false,,,,1365374.9000000954,1365374.8000001907,,1365374.600000143,,1365191.175,8,400,,,
sequence,flow.Sequence,4_109,2023-08-28T19:33:18.099Z,,0,,,4826.348000190686,completion,,,,,false,,,,1365375.100000143,1365374.8000001907,1360515.069,1360727.5,1360548.452,1365191.175,8,400,,,
trial,html.Screen,4_110_0,2023-08-28T19:33:23.381Z,,0,3,,5465.625000190688,response,ISIC_0634107.JPG,,ISIC_7096389.JPG,ISIC_0634107.JPG,false,1,keypress(m),500,1370656.9000000954,1370656.8000001907,1365174.13,1365375.100000143,1365191.175,1370467.736,8,400,11,,ISIC_7096389.JPG
break,html.Screen,4_110_1,2023-08-28T19:33:23.381Z,,0,,,NaN,,,,,,false,,,,1370657.4000000954,1370657.2000000477,,1370657,,1370467.736,8,400,,,
break_continue,html.Screen,4_110_2,2023-08-28T19:33:23.382Z,,0,,,NaN,,,,,,false,,,,1370657.600000143,1370657.5,,1370657.4000000954,,1370467.736,8,400,,,
sequence,flow.Sequence,4_110,2023-08-28T19:33:23.382Z,,0,,,5466.324999999953,completion,,,,,false,,,,1370657.600000143,1370657.5,1365174.13,1365375.100000143,1365191.175,1370467.736,8,400,,,
trial,html.Screen,4_111_0,2023-08-28T19:33:30.775Z,,0,3,,7583.164000095334,response,ISIC_0027126.JPG,,ISIC_0057307.JPG,ISIC_0057307.JPG,false,0,keypress(z),500,1378051,1378050.9000000954,1370451.258,1370657.7000000477,1370467.736,1377865.645,8,400,12,,ISIC_0027126.JPG
break,html.Screen,4_111_1,2023-08-28T19:33:30.775Z,,0,,,NaN,,,,,,false,,,,1378051.5,1378051.4000000954,,1378051.100000143,,1377865.645,8,400,,,
break_continue,html.Screen,4_111_2,2023-08-28T19:33:30.776Z,,0,,,NaN,,,,,,false,,,,1378051.8000001907,1378051.8000001907,,1378051.7000000477,,1377865.645,8,400,,,
sequence,flow.Sequence,4_111,2023-08-28T19:33:30.776Z,,0,,,7584.064000190701,completion,,,,,false,,,,1378051.8000001907,1378051.8000001907,1370451.258,1370657.7000000477,1370467.736,1377865.645,8,400,,,
trial,html.Screen,4_112_0,2023-08-28T19:33:36.602Z,,0,3,,6012.755000095349,response,ISIC_5520533.JPG,,ISIC_0059959.JPG,ISIC_5520533.JPG,false,1,keypress(m),500,1383878.5,1383878.4000000954,1377848.896,1378051.9000000954,1377865.645,1383693.504,8,400,13,,ISIC_0059959.JPG
break,html.Screen,4_112_1,2023-08-28T19:33:36.603Z,,0,,,NaN,,,,,,false,,,,1383878.9000000954,1383878.8000001907,,1383878.600000143,,1383693.504,8,400,,,
break_continue,html.Screen,4_112_2,2023-08-28T19:33:36.603Z,,0,,,NaN,,,,,,false,,,,1383879.100000143,1383879.100000143,,1383878.9000000954,,1383693.504,8,400,,,
sequence,flow.Sequence,4_112,2023-08-28T19:33:36.603Z,,0,,,6013.4550001430325,completion,,,,,false,,,,1383879.100000143,1383879.100000143,1377848.896,1378051.9000000954,1377865.645,1383693.504,8,400,,,
trial,html.Screen,4_113_0,2023-08-28T19:33:42.797Z,,0,3,,6379.096000143094,response,ISIC_0064107.JPG,,ISIC_0012740.JPG,ISIC_0012740.JPG,false,0,keypress(z),500,1390072.7000000477,1390072.600000143,1383676.833,1383879.2000000477,1383693.504,1389888.901,8,400,14,,ISIC_0064107.JPG
break,html.Screen,4_113_1,2023-08-28T19:33:42.797Z,,0,,,NaN,,,,,,false,,,,1390073.2000000477,1390073.100000143,,1390072.8000001907,,1389888.901,8,400,,,
break_continue,html.Screen,4_113_2,2023-08-28T19:33:42.797Z,,0,,,NaN,,,,,,false,,,,1390073.3000001907,1390073.3000001907,,1390073.2000000477,,1389888.901,8,400,,,
sequence,flow.Sequence,4_113,2023-08-28T19:33:42.797Z,,0,,,6379.796000190778,completion,,,,,false,,,,1390073.4000000954,1390073.3000001907,1383676.833,1383879.100000143,1383693.504,1389888.901,8,400,,,
trial,html.Screen,4_114_0,2023-08-28T19:33:48.607Z,,0,3,,5993.999000095297,response,ISIC_3571523.JPG,,ISIC_8773962.JPG,ISIC_8773962.JPG,false,0,keypress(z),500,1395883,1395882.9000000954,1389872.397,1390073.4000000954,1389888.901,1395700.409,8,400,15,,ISIC_3571523.JPG
break,html.Screen,4_114_1,2023-08-28T19:33:48.607Z,,0,,,NaN,,,,,,false,,,,1395883.600000143,1395883.4000000954,,1395883.100000143,,1395700.409,8,400,,,
break_continue,html.Screen,4_114_2,2023-08-28T19:33:48.608Z,,0,,,NaN,,,,,,false,,,,1395883.9000000954,1395883.8000001907,,1395883.600000143,,1395700.409,8,400,,,
sequence,flow.Sequence,4_114,2023-08-28T19:33:48.608Z,,0,,,5994.899000190664,completion,,,,,false,,,,1395884,1395883.8000001907,1389872.397,1390073.4000000954,1389888.901,1395700.409,8,400,,,
trial,html.Screen,4_115_0,2023-08-28T19:33:52.711Z,,0,3,,4286.191000143066,response,ISIC_0027277.JPG,,ISIC_0010915.JPG,ISIC_0027277.JPG,false,1,keypress(m),500,1399986.8000001907,1399986.600000143,1395683.516,1395884,1395700.409,1399791.485,8,400,16,,ISIC_0010915.JPG
break,html.Screen,4_115_1,2023-08-28T19:33:52.711Z,,0,,,NaN,,,,,,false,,,,1399987.3000001907,1399987.100000143,,1399986.9000000954,,1399791.485,8,400,,,
break_continue,html.Screen,4_115_2,2023-08-28T19:33:52.711Z,,0,,,NaN,,,,,,false,,,,1399987.5,1399987.4000000954,,1399987.4000000954,,1399791.485,8,400,,,
sequence,flow.Sequence,4_115,2023-08-28T19:33:52.711Z,,0,,,4286.991000095382,completion,,,,,false,,,,1399987.5,1399987.4000000954,1395683.516,1395884,1395700.409,1399791.485,8,400,,,
trial,html.Screen,4_116_0,2023-08-28T19:33:57.177Z,,0,3,,4661.514999999898,response,ISIC_0032165.JPG,,ISIC_8693637.JPG,ISIC_8693637.JPG,false,0,keypress(z),500,1404453.4000000954,1404453,1399774.975,1399987.5,1399791.485,1404267.044,8,400,17,,ISIC_0032165.JPG
break,html.Screen,4_116_1,2023-08-28T19:33:57.179Z,,0,,,NaN,,,,,,false,,,,1404454.9000000954,1404454.5,,1404453.8000001907,,1404267.044,8,400,,,
break_continue,html.Screen,4_116_2,2023-08-28T19:33:57.180Z,,0,,,NaN,,,,,,false,,,,1404455.8000001907,1404455.5,,1404455.100000143,,1404267.044,8,400,,,
sequence,flow.Sequence,4_116,2023-08-28T19:33:57.180Z,,0,,,4664.014999999898,completion,,,,,false,,,,1404456.100000143,1404455.5,1399774.975,1399987.5,1399791.485,1404267.044,8,400,,,
trial,html.Screen,4_117_0,2023-08-28T19:34:00.063Z,,0,3,,3072.1560000476893,response,ISIC_1251639.JPG,,ISIC_5716385.JPG,ISIC_5716385.JPG,false,0,keypress(z),500,1407339.3000001907,1407339.2000000477,1404250.177,1404456.3000001907,1404267.044,1407156.043,8,400,18,,ISIC_1251639.JPG
break,html.Screen,4_117_1,2023-08-28T19:34:00.064Z,,0,,,NaN,,,,,,false,,,,1407339.9000000954,1407339.7000000477,,1407339.4000000954,,1407156.043,8,400,,,
break_continue,html.Screen,4_117_2,2023-08-28T19:34:00.064Z,,0,,,NaN,,,,,,false,,,,1407340.2000000477,1407340.100000143,,1407340,,1407156.043,8,400,,,
sequence,flow.Sequence,4_117,2023-08-28T19:34:00.064Z,,0,,,3073.0560001430567,completion,,,,,false,,,,1407340.3000001907,1407340.100000143,1404250.177,1404456.3000001907,1404267.044,1407156.043,8,400,,,
trial,html.Screen,4_118_0,2023-08-28T19:34:04.329Z,,0,3,,4448.456999999937,response,ISIC_3545622.JPG,,ISIC_0055169.JPG,ISIC_3545622.JPG,false,1,keypress(m),500,1411604.7000000477,1411604.5,1407139.512,1407340.3000001907,1407156.043,1411414.139,8,400,19,,ISIC_0055169.JPG
break,html.Screen,4_118_1,2023-08-28T19:34:04.329Z,,0,,,NaN,,,,,,false,,,,1411605.100000143,1411605.100000143,,1411604.8000001907,,1411414.139,8,400,,,
break_continue,html.Screen,4_118_2,2023-08-28T19:34:04.329Z,,0,,,NaN,,,,,,false,,,,1411605.3000001907,1411605.3000001907,,1411605.2000000477,,1411414.139,8,400,,,
sequence,flow.Sequence,4_118,2023-08-28T19:34:04.329Z,,0,,,4449.2570001906715,completion,,,,,false,,,,1411605.4000000954,1411605.3000001907,1407139.512,1407340.3000001907,1407156.043,1411414.139,8,400,,,
trial,html.Screen,4_119_0,2023-08-28T19:34:07.130Z,,0,3,,2992.3610000000335,response,ISIC_0377965.JPG,,ISIC_0239178.JPG,ISIC_0239178.JPG,false,0,keypress(z),500,1414406.600000143,1414406.5,1411397.417,1411605.5,1411414.139,1414219.75,8,400,20,,ISIC_0377965.JPG
break,html.Screen,4_119_1,2023-08-28T19:34:07.131Z,,0,,,NaN,,,,,,false,,,,1414407.2000000477,1414406.9000000954,,1414406.7000000477,,1414219.75,8,400,,,
break_continue,html.Screen,4_119_2,2023-08-28T19:34:07.131Z,,0,,,NaN,,,,,,false,,,,1414407.4000000954,1414407.4000000954,,1414407.2000000477,,1414219.75,8,400,,,
sequence,flow.Sequence,4_119,2023-08-28T19:34:07.131Z,,0,,,2993.261000095401,completion,,,,,false,,,,1414407.5,1414407.4000000954,1411397.417,1411605.5,1411414.139,1414219.75,8,400,,,
trial,html.Screen,4_120_0,2023-08-28T19:34:10.621Z,,0,3,,3677.4500000476837,response,ISIC_5065360.JPG,,ISIC_8483382.JPG,ISIC_5065360.JPG,false,1,keypress(m),500,1417897.600000143,1417897.2000000477,1414202.866,1414407.600000143,1414219.75,1417709.885,8,400,21,,ISIC_8483382.JPG
break,html.Screen,4_120_1,2023-08-28T19:34:10.623Z,,0,,,NaN,,,,,,false,,,,1417899.2000000477,1417898.7000000477,,1417898,,1417709.885,8,400,,,
break_continue,html.Screen,4_120_2,2023-08-28T19:34:10.624Z,,0,,,NaN,,,,,,false,,,,1417900,1417899.7000000477,,1417899.4000000954,,1417709.885,8,400,,,
sequence,flow.Sequence,4_120,2023-08-28T19:34:10.624Z,,0,,,3679.9500000476837,completion,,,,,false,,,,1417900.3000001907,1417899.7000000477,1414202.866,1414407.5,1414219.75,1417709.885,8,400,,,
trial,html.Screen,4_121_0,2023-08-28T19:34:14.214Z,,0,3,,3779.4150001907256,response,ISIC_0033756.JPG,,ISIC_0033594.JPG,ISIC_0033756.JPG,false,1,keypress(m),500,1421489.600000143,1421489.3000001907,1417693.193,1417900.5,1417709.885,1421300.091,8,400,22,,ISIC_0033594.JPG
break,html.Screen,4_121_1,2023-08-28T19:34:14.215Z,,0,,,NaN,,,,,,false,,,,1421490.8000001907,1421490.4000000954,,1421489.8000001907,,1421300.091,8,400,,,
break_continue,html.Screen,4_121_2,2023-08-28T19:34:14.216Z,,0,,,NaN,,,,,,false,,,,1421491.4000000954,1421491.2000000477,,1421491,,1421300.091,8,400,,,
sequence,flow.Sequence,4_121,2023-08-28T19:34:14.216Z,,0,,,3781.3150000476744,completion,,,,,false,,,,1421491.600000143,1421491.2000000477,1417693.193,1417900.4000000954,1417709.885,1421300.091,8,400,,,
trial,html.Screen,4_122_0,2023-08-28T19:34:17.230Z,,0,3,,3205.109000047669,response,ISIC_5092834.JPG,,ISIC_0026982.JPG,ISIC_0026982.JPG,false,0,keypress(z),500,1424505.600000143,1424505.2000000477,1421283.554,1421491.7000000477,1421300.091,1424322.787,8,400,23,,ISIC_5092834.JPG
break,html.Screen,4_122_1,2023-08-28T19:34:17.231Z,,0,,,NaN,,,,,,false,,,,1424507.3000001907,1424506.8000001907,,1424506,,1424322.787,8,400,,,
break_continue,html.Screen,4_122_2,2023-08-28T19:34:17.232Z,,0,,,NaN,,,,,,false,,,,1424508.2000000477,1424507.9000000954,,1424507.600000143,,1424322.787,8,400,,,
sequence,flow.Sequence,4_122,2023-08-28T19:34:17.233Z,,0,,,3207.8090000953525,completion,,,,,false,,,,1424508.4000000954,1424507.9000000954,1421283.554,1421491.7000000477,1421300.091,1424322.787,8,400,,,
trial,html.Screen,4_123_0,2023-08-28T19:34:20.277Z,,0,3,,3229.9130000476725,response,ISIC_0013671.JPG,,ISIC_7183212.JPG,ISIC_0013671.JPG,false,1,keypress(m),500,1427552.7000000477,1427552.7000000477,1424306.253,1424508.7000000477,1424322.787,1427361.872,8,400,24,,ISIC_7183212.JPG
break,html.Screen,4_123_1,2023-08-28T19:34:20.277Z,,0,,,NaN,,,,,,false,,,,1427553.2000000477,1427553,,1427552.8000001907,,1427361.872,8,400,,,
break_continue,html.Screen,4_123_2,2023-08-28T19:34:20.278Z,,0,,,NaN,,,,,,false,,,,1427553.600000143,1427553.5,,1427553.3000001907,,1427361.872,8,400,,,
sequence,flow.Sequence,4_123,2023-08-28T19:34:20.278Z,,0,,,3230.712999999989,completion,,,,,false,,,,1427553.600000143,1427553.5,1424306.253,1424508.600000143,1424322.787,1427361.872,8,400,,,
trial,html.Screen,4_124_0,2023-08-28T19:34:24.297Z,,0,3,,4210.728000143077,response,ISIC_3361955.JPG,,ISIC_6269543.JPG,ISIC_3361955.JPG,false,1,keypress(m),500,1431572.7000000477,1431572.600000143,1427345.145,1427553.7000000477,1427361.872,1431386.324,8,400,25,,ISIC_6269543.JPG
break,html.Screen,4_124_1,2023-08-28T19:34:24.297Z,,0,,,NaN,,,,,,false,,,,1431573.2000000477,1431573.100000143,,1431572.9000000954,,1431386.324,8,400,,,
