sender,sender_type,sender_id,timestamp,meta,,blockNo,condition,duration,ended_on,img_left,img_reveal,img_right,loser,practice,response,response_action,selection_duration,time_commit,time_end,time_render,time_run,time_show,time_switch,total_blocks,total_trials,trialNo,url,winner
informed_consent,html.Screen,0,2023-09-08T17:45:27.266Z,"{""labjs_version"":""20.2.4"",""labjs_build"":{""flavor"":""development"",""commit"":""f5b4a49f956347addd546a832a3327688c2c0fef""},""location"":""https://labjs.felixhenninger.com/api/labjs_preview/index.html"",""userAgent"":""Mozilla/5.0 (Windows NT 10.0; Win64; x64) AppleWebKit/537.36 (KHTML, like Gecko) Chrome/116.0.0.0 Safari/537.36"",""platform"":""Win32"",""language"":""en-AU"",""locale"":""en-US"",""timeZone"":""America/Chicago"",""timezoneOffset"":300,""screen_width"":1680,""screen_height"":1050,""scroll_width"":1296,""scroll_height"":688,""window_innerWidth"":1296,""window_innerHeight"":736,""devicePixelRatio"":1}",,,,49451.98000014305,response,,,,,,consent,click button,,49995.5,49994.60000014305,525.978,606.9000000953674,542.62,49938.75,,,,{},
Welcome,html.Screen,1,2023-09-08T17:47:51.285Z,,,,colourful,144073.95000004768,response,,,,,,continue,click button,,194013.29999995232,194012.70000004768,49922.074,49995.799999952316,49938.75,193952.386,,,,,
trial,html.Screen,2_0_0,2023-09-08T17:48:02.783Z,,0,0,,11522.432,timeout,ISIC_0025593.JPG,,ISIC_0063388.JPG,,true,,,500,205510.29999995232,205510.20000004768,193935.854,194013.5,193952.386,205474.818,1,6,1,,
sequence,flow.Sequence,2_0,2023-09-08T17:48:02.784Z,,0,,,11557.814000047685,completion,,,,,true,,,,205510.5,205510.20000004768,193935.854,194013.40000009537,193952.386,205474.818,1,6,,,
trial,html.Screen,2_1_0,2023-09-08T17:48:14.305Z,,0,0,,11522.396999999997,timeout,ISIC_1309015.JPG,,ISIC_0028178.JPG,,true,,,500,217032.40000009537,217032.29999995232,205458.102,205510.60000014305,205474.818,216997.215,1,6,2,,
sequence,flow.Sequence,2_1,2023-09-08T17:48:14.306Z,,0,,,11557.481999952317,completion,,,,,true,,,,217032.60000014305,217032.29999995232,205458.102,205510.60000014305,205474.818,216997.215,1,6,,,
trial,html.Screen,2_2_0,2023-09-08T17:48:25.828Z,,0,0,,11522.627000000008,timeout,ISIC_3314853.JPG,,ISIC_0031128.JPG,,true,,,500,228555,228554.79999995232,216980.537,217032.70000004768,216997.215,228519.842,1,6,3,,
sequence,flow.Sequence,2_2,2023-09-08T17:48:25.828Z,,0,,,11557.58499995232,completion,,,,,true,,,,228555.29999995232,228554.79999995232,216980.537,217032.60000014305,216997.215,228519.842,1,6,,,
trial,html.Screen,2_3_0,2023-09-08T17:48:37.351Z,,0,0,,11522.290000000008,timeout,ISIC_8980141.JPG,,ISIC_0031612.JPG,,true,,,500,240077.60000014305,240077.40000009537,228503.132,228555.40000009537,228519.842,240042.132,1,6,4,,
sequence,flow.Sequence,2_3,2023-09-08T17:48:37.351Z,,0,,,11557.558000095363,completion,,,,,true,,,,240077.79999995232,240077.40000009537,228503.132,228555.40000009537,228519.842,240042.132,1,6,,,
trial,html.Screen,2_4_0,2023-09-08T17:48:48.874Z,,0,0,,11522.36499999999,timeout,ISIC_9721604.JPG,,ISIC_1197737.JPG,,true,,,500,251600.70000004768,251600.29999995232,240025.415,240078,240042.132,251564.497,1,6,5,,
sequence,flow.Sequence,2_4,2023-09-08T17:48:48.874Z,,0,,,11558.167999952304,completion,,,,,true,,,,251601.29999995232,251600.29999995232,240025.415,240077.90000009537,240042.132,251564.497,1,6,,,
trial,html.Screen,2_5_0,2023-09-08T17:49:00.396Z,,0,0,,11522.42299999998,timeout,ISIC_0010681.JPG,,ISIC_0025346.JPG,,true,,,500,263122.2999999523,263122.10000014305,251547.817,251601.5,251564.497,263086.92,1,6,6,,
sequence,flow.Sequence,2_5,2023-09-08T17:49:00.396Z,,0,,,11557.603000143048,completion,,,,,true,,,,263122.40000009537,263122.10000014305,251547.817,251601.40000009537,251564.497,263086.92,1,6,,,
loop,flow.Loop,2,2023-09-08T17:49:00.396Z,,,,,69169.71400014305,completion,,,,,true,,,,263122.60000014305,263122.10000014305,193935.854,194013.40000009537,193952.386,263086.92,1,6,,,
exp_instructions,html.Screen,3,2023-09-08T17:49:46.909Z,,,,,46541.080000000016,response,,,,,,continue,keypress(Space),,309635.60000014305,309628,263070.221,263122.7999999523,263086.92,309560.654,,,,,
trial,html.Screen,4_0_0,2023-09-08T17:49:53.792Z,,0,1,,6957.446000143071,response,ISIC_2454898.JPG,5,ISIC_2776906.JPG,ISIC_2454898.JPG,false,1,keypress(m),500,316518.40000009537,316518.10000014305,309543.987,309635.7000000477,309560.654,316457.494,8,400,1,,ISIC_2776906.JPG
break,html.Screen,4_0_1,2023-09-08T17:49:53.793Z,,0,,,NaN,,,,,,false,,,,316519.60000014305,316519.2999999523,,316518.7000000477,,316457.494,8,400,,,
break_continue,html.Screen,4_0_2,2023-09-08T17:49:53.794Z,,0,,,NaN,,,,,,false,,,,316520.10000014305,316519.90000009537,,316519.7000000477,,316457.494,8,400,,,
sequence,flow.Sequence,4_0,2023-09-08T17:49:53.794Z,,0,,,6959.246000095387,completion,,,,,false,,,,316520.2999999523,316519.90000009537,309543.987,309635.7000000477,309560.654,316457.494,8,400,,,
trial,html.Screen,4_1_0,2023-09-08T17:50:01.579Z,,0,1,,7847.206000047678,response,ISIC_0010550.JPG,5,ISIC_0012653.JPG,ISIC_0012653.JPG,false,0,keypress(z),500,324305,324304.7000000477,316440.892,316520.40000009537,316457.494,324239.298,8,400,2,,ISIC_0010550.JPG
break,html.Screen,4_1_1,2023-09-08T17:50:01.580Z,,0,,,NaN,,,,,,false,,,,324305.7000000477,324305.40000009537,,324305.2000000477,,324239.298,8,400,,,
break_continue,html.Screen,4_1_2,2023-09-08T17:50:01.580Z,,0,,,NaN,,,,,,false,,,,324305.90000009537,324305.90000009537,,324305.7999999523,,324239.298,8,400,,,
sequence,flow.Sequence,4_1,2023-09-08T17:50:01.580Z,,0,,,7848.406000095361,completion,,,,,false,,,,324306.2000000477,324305.90000009537,316440.892,316520.40000009537,316457.494,324239.298,8,400,,,
trial,html.Screen,4_2_0,2023-09-08T17:50:10.046Z,,0,1,,8532.20199999999,response,ISIC_0034317.JPG,6,ISIC_4653503.JPG,ISIC_4653503.JPG,false,0,keypress(z),500,332771.7000000477,332771.5,324222.555,324306.2999999523,324239.298,332705.745,8,400,3,,ISIC_0034317.JPG
break,html.Screen,4_2_1,2023-09-08T17:50:10.046Z,,0,,,NaN,,,,,,false,,,,332772.2000000477,332772,,332771.7999999523,,332705.745,8,400,,,
break_continue,html.Screen,4_2_2,2023-09-08T17:50:10.047Z,,0,,,NaN,,,,,,false,,,,332772.5,332772.40000009537,,332772.2999999523,,332705.745,8,400,,,
sequence,flow.Sequence,4_2,2023-09-08T17:50:10.047Z,,0,,,8533.102000095358,completion,,,,,false,,,,332772.7000000477,332772.40000009537,324222.555,324306.2999999523,324239.298,332705.745,8,400,,,
trial,html.Screen,4_3_0,2023-09-08T17:50:19.360Z,,0,1,,9380.355000143056,response,ISIC_7244604.JPG,6,ISIC_0029639.JPG,ISIC_7244604.JPG,false,1,keypress(m),500,342086.2999999523,342086.10000014305,332689.062,332772.7999999523,332705.745,342023.848,8,400,4,,ISIC_0029639.JPG
break,html.Screen,4_3_1,2023-09-08T17:50:19.361Z,,0,,,NaN,,,,,,false,,,,342086.60000014305,342086.5,,342086.2999999523,,342023.848,8,400,,,
break_continue,html.Screen,4_3_2,2023-09-08T17:50:19.361Z,,0,,,NaN,,,,,,false,,,,342086.7999999523,342086.7999999523,,342086.60000014305,,342023.848,8,400,,,
sequence,flow.Sequence,4_3,2023-09-08T17:50:19.361Z,,0,,,9381.054999952321,completion,,,,,false,,,,342086.7999999523,342086.7999999523,332689.062,332772.7999999523,332705.745,342023.848,8,400,,,
trial,html.Screen,4_4_0,2023-09-08T17:50:27.891Z,,0,1,,8592.55200009537,response,ISIC_2987613.JPG,6,ISIC_0013917.JPG,ISIC_0013917.JPG,false,0,keypress(z),500,350616.60000014305,350616.40000009537,342007.198,342087,342023.848,350557.274,8,400,5,,ISIC_2987613.JPG
break,html.Screen,4_4_1,2023-09-08T17:50:27.891Z,,0,,,NaN,,,,,,false,,,,350616.90000009537,350616.90000009537,,350616.7000000477,,350557.274,8,400,,,
break_continue,html.Screen,4_4_2,2023-09-08T17:50:27.891Z,,0,,,NaN,,,,,,false,,,,350617.2999999523,350617.2000000477,,350617.10000014305,,350557.274,8,400,,,
sequence,flow.Sequence,4_4,2023-09-08T17:50:27.892Z,,0,,,8593.352000047686,completion,,,,,false,,,,350617.40000009537,350617.2000000477,342007.198,342086.90000009537,342023.848,350557.274,8,400,,,
trial,html.Screen,4_5_0,2023-09-08T17:50:37.083Z,,0,1,,9251.626000095392,response,ISIC_9950866.JPG,5,ISIC_0011227.JPG,ISIC_0011227.JPG,false,0,keypress(z),500,359809,359808.90000009537,350540.465,350617.40000009537,350557.274,359741.676,8,400,6,,ISIC_9950866.JPG
break,html.Screen,4_5_1,2023-09-08T17:50:37.084Z,,0,,,NaN,,,,,,false,,,,359809.60000014305,359809.5,,359809.2000000477,,359741.676,8,400,,,
break_continue,html.Screen,4_5_2,2023-09-08T17:50:37.084Z,,0,,,NaN,,,,,,false,,,,359809.7999999523,359809.7999999523,,359809.7000000477,,359741.676,8,400,,,
sequence,flow.Sequence,4_5,2023-09-08T17:50:37.084Z,,0,,,9252.52599995234,completion,,,,,false,,,,359809.90000009537,359809.7999999523,350540.465,350617.40000009537,350557.274,359741.676,8,400,,,
trial,html.Screen,4_6_0,2023-09-08T17:50:46.114Z,,0,1,,9098.123999952339,response,ISIC_9332795.JPG,4,ISIC_1676261.JPG,ISIC_1676261.JPG,false,0,keypress(z),500,368839.90000009537,368839.7999999523,359725.124,359810.2000000477,359741.676,368775.898,8,400,7,,ISIC_9332795.JPG
break,html.Screen,4_6_1,2023-09-08T17:50:46.115Z,,0,,,NaN,,,,,,false,,,,368840.40000009537,368840.2999999523,,368840,,368775.898,8,400,,,
break_continue,html.Screen,4_6_2,2023-09-08T17:50:46.115Z,,0,,,NaN,,,,,,false,,,,368840.5,368840.5,,368840.40000009537,,368775.898,8,400,,,
sequence,flow.Sequence,4_6,2023-09-08T17:50:46.115Z,,0,,,9098.824000000022,completion,,,,,false,,,,368840.60000014305,368840.5,359725.124,359810.10000014305,359741.676,368775.898,8,400,,,
trial,html.Screen,4_7_0,2023-09-08T17:50:54.010Z,,0,1,,7959.802000047697,response,ISIC_2909153.JPG,6,ISIC_1932064.JPG,ISIC_1932064.JPG,false,0,keypress(z),500,376735.90000009537,376735.7000000477,368759.244,368840.7000000477,368775.898,376674.633,8,400,8,,ISIC_2909153.JPG
break,html.Screen,4_7_1,2023-09-08T17:50:54.011Z,,0,,,NaN,,,,,,false,,,,376736.5,376736.40000009537,,376736.2000000477,,376674.633,8,400,,,
break_continue,html.Screen,4_7_2,2023-09-08T17:50:54.011Z,,0,,,NaN,,,,,,false,,,,376736.7999999523,376736.7000000477,,376736.60000014305,,376674.633,8,400,,,
sequence,flow.Sequence,4_7,2023-09-08T17:50:54.011Z,,0,,,7960.802000047697,completion,,,,,false,,,,376736.90000009537,376736.7000000477,368759.244,368840.7000000477,368775.898,376674.633,8,400,,,
trial,html.Screen,4_8_0,2023-09-08T17:51:05.425Z,,0,1,,11475.666999952344,response,ISIC_0056292.JPG,4,ISIC_1396767.JPG,ISIC_1396767.JPG,false,0,keypress(z),500,388150.40000009537,388150.2999999523,376658.027,376737,376674.633,388113.653,8,400,9,,ISIC_0056292.JPG
break,html.Screen,4_8_1,2023-09-08T17:51:05.426Z,,0,,,NaN,,,,,,false,,,,388151.10000014305,388150.7999999523,,388150.60000014305,,388113.653,8,400,,,
break_continue,html.Screen,4_8_2,2023-09-08T17:51:05.426Z,,0,,,NaN,,,,,,false,,,,388151.40000009537,388151.2999999523,,388151.2000000477,,388113.653,8,400,,,
sequence,flow.Sequence,4_8,2023-09-08T17:51:05.426Z,,0,,,11476.666999952344,completion,,,,,false,,,,388151.5,388151.2999999523,376658.027,376737,376674.633,388113.653,8,400,,,
trial,html.Screen,4_9_0,2023-09-08T17:51:13.764Z,,0,1,,8375.44700014306,response,ISIC_0032476.JPG,6,ISIC_0061336.JPG,ISIC_0061336.JPG,false,0,keypress(z),500,396489.2000000477,396489.10000014305,388097.015,388151.60000014305,388113.653,396429.739,8,400,10,,ISIC_0032476.JPG
break,html.Screen,4_9_1,2023-09-08T17:51:13.765Z,,0,,,NaN,,,,,,false,,,,396489.7000000477,396489.5,,396489.2999999523,,396429.739,8,400,,,
break_continue,html.Screen,4_9_2,2023-09-08T17:51:13.765Z,,0,,,NaN,,,,,,false,,,,396489.90000009537,396489.7999999523,,396489.7000000477,,396429.739,8,400,,,
sequence,flow.Sequence,4_9,2023-09-08T17:51:13.765Z,,0,,,8376.146999952325,completion,,,,,false,,,,396490,396489.7999999523,388097.015,388151.60000014305,388113.653,396429.739,8,400,,,
trial,html.Screen,4_10_0,2023-09-08T17:51:24.012Z,,0,1,,10307.461000047682,response,ISIC_0004352.JPG,5,ISIC_0003793.JPG,ISIC_0004352.JPG,false,1,keypress(m),500,406737.2999999523,406737.2000000477,396413.136,396490.10000014305,396429.739,406683.024,8,400,11,,ISIC_0003793.JPG
break,html.Screen,4_10_1,2023-09-08T17:51:24.012Z,,0,,,NaN,,,,,,false,,,,406737.60000014305,406737.60000014305,,406737.40000009537,,406683.024,8,400,,,
break_continue,html.Screen,4_10_2,2023-09-08T17:51:24.013Z,,0,,,NaN,,,,,,false,,,,406737.7999999523,406737.7999999523,,406737.60000014305,,406683.024,8,400,,,
sequence,flow.Sequence,4_10,2023-09-08T17:51:24.013Z,,0,,,10308.060999952315,completion,,,,,false,,,,406737.7999999523,406737.7999999523,396413.136,396490.10000014305,396429.739,406683.024,8,400,,,
trial,html.Screen,4_11_0,2023-09-08T17:51:33.395Z,,0,1,,9436.976000000024,response,ISIC_0072175.JPG,5,ISIC_0067443.JPG,ISIC_0067443.JPG,false,0,keypress(z),500,416120.2000000477,416120,406666.377,406737.90000009537,406683.024,416067.972,8,400,12,,ISIC_0072175.JPG
break,html.Screen,4_11_1,2023-09-08T17:51:33.396Z,,0,,,NaN,,,,,,false,,,,416120.90000009537,416120.7000000477,,416120.5,,416067.972,8,400,,,
break_continue,html.Screen,4_11_2,2023-09-08T17:51:33.396Z,,0,,,NaN,,,,,,false,,,,416121.40000009537,416121.2000000477,,416121.10000014305,,416067.972,8,400,,,
sequence,flow.Sequence,4_11,2023-09-08T17:51:33.396Z,,0,,,9438.176000047708,completion,,,,,false,,,,416121.5,416121.2000000477,406666.377,406737.90000009537,406683.024,416067.972,8,400,,,
trial,html.Screen,4_12_0,2023-09-08T17:51:39.739Z,,0,1,,6396.228000047675,response,ISIC_7242312.JPG,6,ISIC_6931712.JPG,ISIC_6931712.JPG,false,0,keypress(z),500,422464.40000009537,422464.2000000477,416051.415,416121.7000000477,416067.972,422396.908,8,400,13,,ISIC_7242312.JPG
break,html.Screen,4_12_1,2023-09-08T17:51:39.740Z,,0,,,NaN,,,,,,false,,,,422464.90000009537,422464.7000000477,,422464.5,,422396.908,8,400,,,
break_continue,html.Screen,4_12_2,2023-09-08T17:51:39.740Z,,0,,,NaN,,,,,,false,,,,422465.2999999523,422465.10000014305,,422465,,422396.908,8,400,,,
sequence,flow.Sequence,4_12,2023-09-08T17:51:39.740Z,,0,,,6397.128000143042,completion,,,,,false,,,,422465.60000014305,422465.10000014305,416051.415,416121.60000014305,416067.972,422396.908,8,400,,,
trial,html.Screen,4_13_0,2023-09-08T17:51:46.774Z,,0,1,,7101.692000143055,response,ISIC_0057009.JPG,5,ISIC_0014129.JPG,ISIC_0014129.JPG,false,0,keypress(z),500,429498.7000000477,429498.60000014305,422380.258,422465.7000000477,422396.908,429444.052,8,400,14,,ISIC_0057009.JPG
break,html.Screen,4_13_1,2023-09-08T17:51:46.774Z,,0,,,NaN,,,,,,false,,,,429499.2999999523,429499.10000014305,,429498.90000009537,,429444.052,8,400,,,
break_continue,html.Screen,4_13_2,2023-09-08T17:51:46.774Z,,0,,,NaN,,,,,,false,,,,429499.5,429499.5,,429499.40000009537,,429444.052,8,400,,,
sequence,flow.Sequence,4_13,2023-09-08T17:51:46.775Z,,0,,,7102.592000000004,completion,,,,,false,,,,429499.7000000477,429499.5,422380.258,422465.7000000477,422396.908,429444.052,8,400,,,
trial,html.Screen,4_14_0,2023-09-08T17:51:55.961Z,,0,1,,9242.048000143026,response,ISIC_3673080.JPG,5,ISIC_0082348.JPG,ISIC_0082348.JPG,false,0,keypress(z),500,438686.2999999523,438686.10000014305,429427.439,429500.40000009537,429444.052,438628.526,8,400,15,,ISIC_3673080.JPG
break,html.Screen,4_14_1,2023-09-08T17:51:55.962Z,,0,,,NaN,,,,,,false,,,,438686.7999999523,438686.60000014305,,438686.40000009537,,438628.526,8,400,,,
break_continue,html.Screen,4_14_2,2023-09-08T17:51:55.962Z,,0,,,NaN,,,,,,false,,,,438686.90000009537,438686.7999999523,,438686.7999999523,,438628.526,8,400,,,
sequence,flow.Sequence,4_14,2023-09-08T17:51:55.962Z,,0,,,9242.747999952291,completion,,,,,false,,,,438687,438686.7999999523,429427.439,429500.2999999523,429444.052,438628.526,8,400,,,
trial,html.Screen,4_15_0,2023-09-08T17:52:05.564Z,,0,1,,9659.874000095355,response,ISIC_4646815.JPG,6,ISIC_4332846.JPG,ISIC_4332846.JPG,false,0,keypress(z),500,448288.60000014305,448288.40000009537,438611.892,438687.10000014305,438628.526,448230.548,8,400,16,,ISIC_4646815.JPG
break,html.Screen,4_15_1,2023-09-08T17:52:05.565Z,,0,,,NaN,,,,,,false,,,,448289.2000000477,448289,,448288.7999999523,,448230.548,8,400,,,
break_continue,html.Screen,4_15_2,2023-09-08T17:52:05.565Z,,0,,,NaN,,,,,,false,,,,448289.60000014305,448289.5,,448289.40000009537,,448230.548,8,400,,,
sequence,flow.Sequence,4_15,2023-09-08T17:52:05.565Z,,0,,,9660.973999999987,completion,,,,,false,,,,448289.7000000477,448289.5,438611.892,438687.10000014305,438628.526,448230.548,8,400,,,
trial,html.Screen,4_16_0,2023-09-08T17:52:15.424Z,,0,1,,9918.152000047674,response,ISIC_1373468.JPG,5,ISIC_9337870.JPG,ISIC_9337870.JPG,false,0,keypress(z),500,458148.7999999523,458148.7000000477,448213.829,448289.7999999523,448230.548,458099.712,8,400,17,,ISIC_1373468.JPG
break,html.Screen,4_16_1,2023-09-08T17:52:15.424Z,,0,,,NaN,,,,,,false,,,,458149,458149,,458148.90000009537,,458099.712,8,400,,,
break_continue,html.Screen,4_16_2,2023-09-08T17:52:15.425Z,,0,,,NaN,,,,,,false,,,,458149.2000000477,458149.2000000477,,458149.10000014305,,458099.712,8,400,,,
sequence,flow.Sequence,4_16,2023-09-08T17:52:15.425Z,,0,,,9918.652000047674,completion,,,,,false,,,,458149.2000000477,458149.2000000477,448213.829,448289.7999999523,448230.548,458099.712,8,400,,,
trial,html.Screen,4_17_0,2023-09-08T17:52:21.477Z,,0,1,,6102.2880000000005,response,ISIC_4653167.JPG,5,ISIC_0068382.JPG,ISIC_0068382.JPG,false,0,keypress(z),500,464202.10000014305,464202,458083.055,458149.40000009537,458099.712,464144.81,8,400,18,,ISIC_4653167.JPG
break,html.Screen,4_17_1,2023-09-08T17:52:21.478Z,,0,,,NaN,,,,,,false,,,,464202.5,464202.2999999523,,464202.2000000477,,464144.81,8,400,,,
break_continue,html.Screen,4_17_2,2023-09-08T17:52:21.478Z,,0,,,NaN,,,,,,false,,,,464202.7000000477,464202.60000014305,,464202.60000014305,,464144.81,8,400,,,
sequence,flow.Sequence,4_17,2023-09-08T17:52:21.478Z,,0,,,6102.888000143052,completion,,,,,false,,,,464202.90000009537,464202.60000014305,458083.055,458149.2999999523,458099.712,464144.81,8,400,,,
trial,html.Screen,4_18_0,2023-09-08T17:52:28.989Z,,0,1,,7568.489999952319,response,ISIC_0015950.JPG,5,ISIC_7567699.JPG,ISIC_0015950.JPG,false,1,keypress(m),500,471713.5,471713.2999999523,464128.36,464203,464144.81,471659.528,8,400,19,,ISIC_7567699.JPG
break,html.Screen,4_18_1,2023-09-08T17:52:28.989Z,,0,,,NaN,,,,,,false,,,,471714,471713.7999999523,,471713.7000000477,,471659.528,8,400,,,
break_continue,html.Screen,4_18_2,2023-09-08T17:52:28.990Z,,0,,,NaN,,,,,,false,,,,471714.7999999523,471714.5,,471714.40000009537,,471659.528,8,400,,,
sequence,flow.Sequence,4_18,2023-09-08T17:52:28.990Z,,0,,,7569.690000000002,completion,,,,,false,,,,471714.90000009537,471714.5,464128.36,464203,464144.81,471659.528,8,400,,,
trial,html.Screen,4_19_0,2023-09-08T17:52:39.953Z,,0,1,,11017.972000000009,response,ISIC_5132214.JPG,5,ISIC_1149693.JPG,ISIC_5132214.JPG,false,1,keypress(m),500,482677.7999999523,482677.5,471642.935,471715.2000000477,471659.528,482614.225,8,400,20,,ISIC_1149693.JPG
break,html.Screen,4_19_1,2023-09-08T17:52:39.954Z,,0,,,NaN,,,,,,false,,,,482679,482678.7000000477,,482678.2000000477,,482614.225,8,400,,,
break_continue,html.Screen,4_19_2,2023-09-08T17:52:39.955Z,,0,,,NaN,,,,,,false,,,,482679.60000014305,482679.40000009537,,482679.2000000477,,482614.225,8,400,,,
sequence,flow.Sequence,4_19,2023-09-08T17:52:39.955Z,,0,,,11019.872000095376,completion,,,,,false,,,,482679.90000009537,482679.40000009537,471642.935,471715.10000014305,471659.528,482614.225,8,400,,,
trial,html.Screen,4_20_0,2023-09-08T17:52:49.994Z,,0,1,,10103.975000047707,response,ISIC_3430953.JPG,6,ISIC_0000087.JPG,ISIC_3430953.JPG,false,1,keypress(m),500,492718.40000009537,492718.2000000477,482597.524,482680.2000000477,482614.225,492667.052,8,400,21,,ISIC_0000087.JPG
break,html.Screen,4_20_1,2023-09-08T17:52:49.994Z,,0,,,NaN,,,,,,false,,,,492719.10000014305,492718.7999999523,,492718.60000014305,,492667.052,8,400,,,
break_continue,html.Screen,4_20_2,2023-09-08T17:52:49.995Z,,0,,,NaN,,,,,,false,,,,492719.40000009537,492719.2000000477,,492719.10000014305,,492667.052,8,400,,,
sequence,flow.Sequence,4_20,2023-09-08T17:52:49.995Z,,0,,,10104.975000047707,completion,,,,,false,,,,492719.5,492719.2000000477,482597.524,482680.2000000477,482614.225,492667.052,8,400,,,
trial,html.Screen,4_21_0,2023-09-08T17:52:56.658Z,,0,1,,6715.747999952291,response,ISIC_3063260.JPG,4,ISIC_5498202.JPG,ISIC_3063260.JPG,false,1,keypress(m),500,499382.90000009537,499382.7999999523,492650.387,492719.60000014305,492667.052,499330.187,8,400,22,,ISIC_5498202.JPG
break,html.Screen,4_21_1,2023-09-08T17:52:56.659Z,,0,,,NaN,,,,,,false,,,,499383.40000009537,499383.2000000477,,499383.10000014305,,499330.187,8,400,,,
break_continue,html.Screen,4_21_2,2023-09-08T17:52:56.659Z,,0,,,NaN,,,,,,false,,,,499383.90000009537,499383.7999999523,,499383.7000000477,,499330.187,8,400,,,
sequence,flow.Sequence,4_21,2023-09-08T17:52:56.659Z,,0,,,6716.747999952291,completion,,,,,false,,,,499384,499383.7999999523,492650.387,492719.60000014305,492667.052,499330.187,8,400,,,
trial,html.Screen,4_22_0,2023-09-08T17:53:05.303Z,,0,1,,8697.213000095391,response,ISIC_0063168.JPG,5,ISIC_0028029.JPG,ISIC_0063168.JPG,false,1,keypress(m),500,508027.5,508027.40000009537,499313.445,499384,499330.187,507963.408,8,400,23,,ISIC_0028029.JPG
break,html.Screen,4_22_1,2023-09-08T17:53:05.304Z,,0,,,NaN,,,,,,false,,,,508027.90000009537,508027.7999999523,,508027.60000014305,,507963.408,8,400,,,
break_continue,html.Screen,4_22_2,2023-09-08T17:53:05.304Z,,0,,,NaN,,,,,,false,,,,508028,508028,,508027.90000009537,,507963.408,8,400,,,
sequence,flow.Sequence,4_22,2023-09-08T17:53:05.304Z,,0,,,8697.813000000024,completion,,,,,false,,,,508028,508028,499313.445,499384,499330.187,507963.408,8,400,,,
trial,html.Screen,4_23_0,2023-09-08T17:53:13.130Z,,0,1,,7889.992000095372,response,ISIC_1388297.JPG,5,ISIC_4961708.JPG,ISIC_4961708.JPG,false,0,keypress(z),500,515853.7999999523,515853.40000009537,507946.764,508028.10000014305,507963.408,515795.42,8,400,24,,ISIC_1388297.JPG
break,html.Screen,4_23_1,2023-09-08T17:53:13.131Z,,0,,,NaN,,,,,,false,,,,515855.2000000477,515854.7000000477,,515854.2999999523,,515795.42,8,400,,,
break_continue,html.Screen,4_23_2,2023-09-08T17:53:13.132Z,,0,,,NaN,,,,,,false,,,,515856.10000014305,515855.7999999523,,515855.7000000477,,515795.42,8,400,,,
sequence,flow.Sequence,4_23,2023-09-08T17:53:13.132Z,,0,,,7892.3919999523205,completion,,,,,false,,,,515856.60000014305,515855.7999999523,507946.764,508028.10000014305,507963.408,515795.42,8,400,,,
trial,html.Screen,4_24_0,2023-09-08T17:53:22.242Z,,0,1,,9170.680000143067,response,ISIC_0027556.JPG,6,ISIC_6033222.JPG,ISIC_6033222.JPG,false,0,keypress(z),500,524966.2999999523,524966.100000143,515778.661,515856.7999999523,515795.42,524913.191,8,400,25,,ISIC_0027556.JPG
break,html.Screen,4_24_1,2023-09-08T17:53:22.243Z,,0,,,NaN,,,,,,false,,,,524966.9000000954,524966.7999999523,,524966.600000143,,524913.191,8,400,,,
break_continue,html.Screen,4_24_2,2023-09-08T17:53:22.243Z,,0,,,NaN,,,,,,false,,,,524967.4000000954,524967.2999999523,,524967.2000000477,,524913.191,8,400,,,
sequence,flow.Sequence,4_24,2023-09-08T17:53:22.244Z,,0,,,9171.879999952333,completion,,,,,false,,,,524967.5,524967.2999999523,515778.661,515856.7000000477,515795.42,524913.191,8,400,,,
trial,html.Screen,4_25_0,2023-09-08T17:53:33.285Z,,0,1,,11096.108999952325,response,ISIC_1654342.JPG,5,ISIC_0008636.JPG,ISIC_0008636.JPG,false,0,keypress(z),500,536009.5,536009.2999999523,524896.559,524967.7999999523,524913.191,535951.237,8,400,26,,ISIC_1654342.JPG
break,html.Screen,4_25_1,2023-09-08T17:53:33.286Z,,0,,,NaN,,,,,,false,,,,536009.7000000477,536009.7000000477,,536009.5,,535951.237,8,400,,,
break_continue,html.Screen,4_25_2,2023-09-08T17:53:33.286Z,,0,,,NaN,,,,,,false,,,,536010,536009.9000000954,,536009.9000000954,,535951.237,8,400,,,
sequence,flow.Sequence,4_25,2023-09-08T17:53:33.286Z,,0,,,11096.709000095376,completion,,,,,false,,,,536010.2000000477,536009.9000000954,524896.559,524967.7000000477,524913.191,535951.237,8,400,,,
trial,html.Screen,4_26_0,2023-09-08T17:53:41.759Z,,0,1,,8531.663000095403,response,ISIC_0067008.JPG,5,ISIC_7764987.JPG,ISIC_7764987.JPG,false,0,keypress(z),500,544483.100000143,544482.9000000954,535934.588,536010.2999999523,535951.237,544417.758,8,400,27,,ISIC_0067008.JPG
break,html.Screen,4_26_1,2023-09-08T17:53:41.760Z,,0,,,NaN,,,,,,false,,,,544483.9000000954,544483.600000143,,544483.2999999523,,544417.758,8,400,,,
break_continue,html.Screen,4_26_2,2023-09-08T17:53:41.760Z,,0,,,NaN,,,,,,false,,,,544484.2999999523,544484.2000000477,,544484.100000143,,544417.758,8,400,,,
sequence,flow.Sequence,4_26,2023-09-08T17:53:41.760Z,,0,,,8532.96300004772,completion,,,,,false,,,,544484.5,544484.2000000477,535934.588,536010.2000000477,535951.237,544417.758,8,400,,,
trial,html.Screen,4_27_0,2023-09-08T17:53:49.747Z,,0,1,,8052.84200014302,response,ISIC_0033501.JPG,4,ISIC_0027263.JPG,ISIC_0027263.JPG,false,0,keypress(z),500,552470.7999999523,552470.600000143,544401.119,544484.600000143,544417.758,552433.296,8,400,28,,ISIC_0033501.JPG
break,html.Screen,4_27_1,2023-09-08T17:53:49.748Z,,0,,,NaN,,,,,,false,,,,552471.9000000954,552471.7000000477,,552471.2999999523,,552433.296,8,400,,,
break_continue,html.Screen,4_27_2,2023-09-08T17:53:49.748Z,,0,,,NaN,,,,,,false,,,,552472.4000000954,552472.2000000477,,552472,,552433.296,8,400,,,
sequence,flow.Sequence,4_27,2023-09-08T17:53:49.749Z,,0,,,8054.442000047653,completion,,,,,false,,,,552472.7000000477,552472.2000000477,544401.119,544484.5,544417.758,552433.296,8,400,,,
trial,html.Screen,4_28_0,2023-09-08T17:54:00.408Z,,0,1,,10697.704000000027,response,ISIC_0030150.JPG,5,ISIC_0067511.JPG,ISIC_0030150.JPG,false,1,keypress(m),500,563131.2999999523,563131,552416.623,552472.9000000954,552433.296,563070.835,8,400,29,,ISIC_0067511.JPG
break,html.Screen,4_28_1,2023-09-08T17:54:00.409Z,,0,,,NaN,,,,,,false,,,,563132.7999999523,563132.2999999523,,563131.7000000477,,563070.835,8,400,,,
break_continue,html.Screen,4_28_2,2023-09-08T17:54:00.410Z,,0,,,NaN,,,,,,false,,,,563133.5,563133.4000000954,,563133.100000143,,563070.835,8,400,,,
sequence,flow.Sequence,4_28,2023-09-08T17:54:00.410Z,,0,,,10700.104000095394,completion,,,,,false,,,,563133.9000000954,563133.4000000954,552416.623,552472.7999999523,552433.296,563070.835,8,400,,,
trial,html.Screen,4_29_0,2023-09-08T17:54:08.813Z,,0,1,,8465.665000000037,response,ISIC_0000547.JPG,5,ISIC_2910705.JPG,ISIC_2910705.JPG,false,0,keypress(z),500,571536.7000000477,571536.5,563053.998,563134.2000000477,563070.835,571470.39,8,400,30,,ISIC_0000547.JPG
break,html.Screen,4_29_1,2023-09-08T17:54:08.814Z,,0,,,NaN,,,,,,false,,,,571537.100000143,571537,,571536.9000000954,,571470.39,8,400,,,
break_continue,html.Screen,4_29_2,2023-09-08T17:54:08.814Z,,0,,,NaN,,,,,,false,,,,571537.600000143,571537.5,,571537.2999999523,,571470.39,8,400,,,
sequence,flow.Sequence,4_29,2023-09-08T17:54:08.814Z,,0,,,8466.665000000037,completion,,,,,false,,,,571537.7000000477,571537.5,563053.998,563134.100000143,563070.835,571470.39,8,400,,,
trial,html.Screen,4_30_0,2023-09-08T17:54:18.065Z,,0,1,,9318.109999999986,response,ISIC_7051167.JPG,4,ISIC_7746479.JPG,ISIC_7051167.JPG,false,1,keypress(m),500,580788.7000000477,580788.5,571453.7,571537.7999999523,571470.39,580721.758,8,400,31,,ISIC_7746479.JPG
break,html.Screen,4_30_1,2023-09-08T17:54:18.066Z,,0,,,NaN,,,,,,false,,,,580789.2999999523,580789.100000143,,580788.7999999523,,580721.758,8,400,,,
break_continue,html.Screen,4_30_2,2023-09-08T17:54:18.066Z,,0,,,NaN,,,,,,false,,,,580789.600000143,580789.5,,580789.5,,580721.758,8,400,,,
sequence,flow.Sequence,4_30,2023-09-08T17:54:18.066Z,,0,,,9319.109999999986,completion,,,,,false,,,,580789.7999999523,580789.5,571453.7,571537.7999999523,571470.39,580721.758,8,400,,,
trial,html.Screen,4_31_0,2023-09-08T17:54:27.271Z,,0,1,,9272.74199999997,response,ISIC_6739241.JPG,5,ISIC_0030829.JPG,ISIC_6739241.JPG,false,1,keypress(m),500,589994.7000000477,589994.5,580705.215,580790,580721.758,589939.678,8,400,32,,ISIC_0030829.JPG
break,html.Screen,4_31_1,2023-09-08T17:54:27.272Z,,0,,,NaN,,,,,,false,,,,589995.2000000477,589995.100000143,,589994.9000000954,,589939.678,8,400,,,
break_continue,html.Screen,4_31_2,2023-09-08T17:54:27.272Z,,0,,,NaN,,,,,,false,,,,589995.4000000954,589995.2999999523,,589995.2000000477,,589939.678,8,400,,,
sequence,flow.Sequence,4_31,2023-09-08T17:54:27.272Z,,0,,,9273.541999952286,completion,,,,,false,,,,589995.600000143,589995.2999999523,580705.215,580789.9000000954,580721.758,589939.678,8,400,,,
trial,html.Screen,4_32_0,2023-09-08T17:54:34.490Z,,0,1,,7273.322000000044,response,ISIC_0064633.JPG,4,ISIC_5992534.JPG,ISIC_5992534.JPG,false,0,keypress(z),500,597213.100000143,597213,589922.926,589995.600000143,589939.678,597153.655,8,400,33,,ISIC_0064633.JPG
break,html.Screen,4_32_1,2023-09-08T17:54:34.490Z,,0,,,NaN,,,,,,false,,,,597213.4000000954,597213.4000000954,,597213.2000000477,,597153.655,8,400,,,
break_continue,html.Screen,4_32_2,2023-09-08T17:54:34.490Z,,0,,,NaN,,,,,,false,,,,597213.600000143,597213.5,,597213.5,,597153.655,8,400,,,
sequence,flow.Sequence,4_32,2023-09-08T17:54:34.490Z,,0,,,7273.822000000044,completion,,,,,false,,,,597213.7000000477,597213.5,589922.926,589995.600000143,589939.678,597153.655,8,400,,,
trial,html.Screen,4_33_0,2023-09-08T17:54:43.548Z,,0,1,,9117.344999999972,response,ISIC_0062440.JPG,6,ISIC_3820669.JPG,ISIC_3820669.JPG,false,0,keypress(z),500,606271.2000000477,606271,597137.012,597213.7000000477,597153.655,606204.697,8,400,34,,ISIC_0062440.JPG
break,html.Screen,4_33_1,2023-09-08T17:54:43.548Z,,0,,,NaN,,,,,,false,,,,606271.5,606271.4000000954,,606271.2999999523,,606204.697,8,400,,,
break_continue,html.Screen,4_33_2,2023-09-08T17:54:43.548Z,,0,,,NaN,,,,,,false,,,,606271.7000000477,606271.600000143,,606271.600000143,,606204.697,8,400,,,
sequence,flow.Sequence,4_33,2023-09-08T17:54:43.548Z,,0,,,9117.945000143023,completion,,,,,false,,,,606271.7000000477,606271.600000143,597137.012,597213.7000000477,597153.655,606204.697,8,400,,,
trial,html.Screen,4_34_0,2023-09-08T17:54:51.711Z,,0,1,,8229.50300004764,response,ISIC_0062114.JPG,4,ISIC_3673080.JPG,ISIC_0062114.JPG,false,1,keypress(m),500,614434.4000000954,614434.2000000477,606188.01,606271.7000000477,606204.697,614370.506,8,400,35,,ISIC_3673080.JPG
break,html.Screen,4_34_1,2023-09-08T17:54:51.712Z,,0,,,NaN,,,,,,false,,,,614435.4000000954,614435.100000143,,614434.600000143,,614370.506,8,400,,,
break_continue,html.Screen,4_34_2,2023-09-08T17:54:51.712Z,,0,,,NaN,,,,,,false,,,,614435.9000000954,614435.7999999523,,614435.600000143,,614370.506,8,400,,,
sequence,flow.Sequence,4_34,2023-09-08T17:54:51.713Z,,0,,,8231.102999952273,completion,,,,,false,,,,614436.2000000477,614435.7999999523,606188.01,606271.7000000477,606204.697,614370.506,8,400,,,
trial,html.Screen,4_35_0,2023-09-08T17:55:02.264Z,,0,1,,10616.493999999948,response,ISIC_4606646.JPG,5,ISIC_7746898.JPG,ISIC_7746898.JPG,false,0,keypress(z),500,624987,624987,614353.978,614436.600000143,614370.506,624924.381,8,400,36,,ISIC_4606646.JPG
break,html.Screen,4_35_1,2023-09-08T17:55:02.264Z,,0,,,NaN,,,,,,false,,,,624987.5,624987.4000000954,,624987.2000000477,,624924.381,8,400,,,
break_continue,html.Screen,4_35_2,2023-09-08T17:55:02.264Z,,0,,,NaN,,,,,,false,,,,624987.7999999523,624987.600000143,,624987.600000143,,624924.381,8,400,,,
sequence,flow.Sequence,4_35,2023-09-08T17:55:02.265Z,,0,,,10617.094000142999,completion,,,,,false,,,,624988,624987.600000143,614353.978,614436.4000000954,614370.506,624924.381,8,400,,,
trial,html.Screen,4_36_0,2023-09-08T17:55:09.258Z,,0,1,,7056.519000095315,response,ISIC_0046725.JPG,4,ISIC_0028230.JPG,ISIC_0028230.JPG,false,0,keypress(z),500,631981.100000143,631980.9000000954,624907.764,624988.100000143,624924.381,631921.365,8,400,37,,ISIC_0046725.JPG
break,html.Screen,4_36_1,2023-09-08T17:55:09.258Z,,0,,,NaN,,,,,,false,,,,631981.5,631981.4000000954,,631981.2000000477,,631921.365,8,400,,,
break_continue,html.Screen,4_36_2,2023-09-08T17:55:09.258Z,,0,,,NaN,,,,,,false,,,,631981.7999999523,631981.7000000477,,631981.5,,631921.365,8,400,,,
sequence,flow.Sequence,4_36,2023-09-08T17:55:09.259Z,,0,,,7057.319000047632,completion,,,,,false,,,,631981.9000000954,631981.7000000477,624907.764,624988.100000143,624924.381,631921.365,8,400,,,
trial,html.Screen,4_37_0,2023-09-08T17:55:17.580Z,,0,1,,8381.535000095377,response,ISIC_0192893.JPG,5,ISIC_7381224.JPG,ISIC_7381224.JPG,false,0,keypress(z),500,640303.100000143,640302.9000000954,631904.677,631982,631921.365,640237.463,8,400,38,,ISIC_0192893.JPG
break,html.Screen,4_37_1,2023-09-08T17:55:17.580Z,,0,,,NaN,,,,,,false,,,,640303.5,640303.2999999523,,640303.100000143,,640237.463,8,400,,,
break_continue,html.Screen,4_37_2,2023-09-08T17:55:17.580Z,,0,,,NaN,,,,,,false,,,,640303.600000143,640303.5,,640303.5,,640237.463,8,400,,,
sequence,flow.Sequence,4_37,2023-09-08T17:55:17.580Z,,0,,,8382.13500000001,completion,,,,,false,,,,640303.7000000477,640303.5,631904.677,631982,631921.365,640237.463,8,400,,,
trial,html.Screen,4_38_0,2023-09-08T17:55:24.723Z,,0,1,,7208.937000095379,response,ISIC_0011507.JPG,5,ISIC_0027031.JPG,ISIC_0027031.JPG,false,0,keypress(z),500,647446.7000000477,647446.4000000954,640220.847,640303.9000000954,640237.463,647384.736,8,400,39,,ISIC_0011507.JPG
break,html.Screen,4_38_1,2023-09-08T17:55:24.724Z,,0,,,NaN,,,,,,false,,,,647446.9000000954,647446.7999999523,,647446.7000000477,,647384.736,8,400,,,
break_continue,html.Screen,4_38_2,2023-09-08T17:55:24.724Z,,0,,,NaN,,,,,,false,,,,647447.2000000477,647447,,647447,,647384.736,8,400,,,
sequence,flow.Sequence,4_38,2023-09-08T17:55:24.724Z,,0,,,7209.537000000011,completion,,,,,false,,,,647447.2000000477,647447,640220.847,640303.7000000477,640237.463,647384.736,8,400,,,
trial,html.Screen,4_39_0,2023-09-08T17:55:33.962Z,,0,1,,9300.063999952283,response,ISIC_0070210.JPG,4,ISIC_0031863.JPG,ISIC_0031863.JPG,false,0,keypress(z),500,656685,656684.7999999523,647368.067,647447.2999999523,647384.736,656619.368,8,400,40,,ISIC_0070210.JPG
break,html.Screen,4_39_1,2023-09-08T17:55:33.962Z,,0,,,NaN,,,,,,false,,,,656685.4000000954,656685.2999999523,,656685.100000143,,656619.368,8,400,,,
break_continue,html.Screen,4_39_2,2023-09-08T17:55:33.962Z,,0,,,NaN,,,,,,false,,,,656685.9000000954,656685.7000000477,,656685.5,,656619.368,8,400,,,
sequence,flow.Sequence,4_39,2023-09-08T17:55:33.963Z,,0,,,9300.96400004765,completion,,,,,false,,,,656685.9000000954,656685.7000000477,647368.067,647447.2999999523,647384.736,656619.368,8,400,,,
trial,html.Screen,4_40_0,2023-09-08T17:55:41.567Z,,0,1,,7671.032000095351,response,ISIC_0058954.JPG,4,ISIC_0026426.JPG,ISIC_0026426.JPG,false,0,keypress(z),500,664290.600000143,664290.4000000954,656602.946,656686,656619.368,664234.222,8,400,41,,ISIC_0058954.JPG
break,html.Screen,4_40_1,2023-09-08T17:55:41.567Z,,0,,,NaN,,,,,,false,,,,664290.9000000954,664290.7999999523,,664290.7000000477,,664234.222,8,400,,,
break_continue,html.Screen,4_40_2,2023-09-08T17:55:41.568Z,,0,,,NaN,,,,,,false,,,,664291,664291,,664290.9000000954,,664234.222,8,400,,,
sequence,flow.Sequence,4_40,2023-09-08T17:55:41.568Z,,0,,,7671.631999999983,completion,,,,,false,,,,664291.100000143,664291,656602.946,656686,656619.368,664234.222,8,400,,,
trial,html.Screen,4_41_0,2023-09-08T17:55:49.569Z,,0,1,,8057.678000095417,response,ISIC_2818530.JPG,6,ISIC_0062196.JPG,ISIC_2818530.JPG,false,1,keypress(m),500,672292,672291.9000000954,664217.661,664291.2000000477,664234.222,672233.099,8,400,42,,ISIC_0062196.JPG
break,html.Screen,4_41_1,2023-09-08T17:55:49.569Z,,0,,,NaN,,,,,,false,,,,672292.4000000954,672292.4000000954,,672292.100000143,,672233.099,8,400,,,
break_continue,html.Screen,4_41_2,2023-09-08T17:55:49.569Z,,0,,,NaN,,,,,,false,,,,672292.600000143,672292.600000143,,672292.5,,672233.099,8,400,,,
sequence,flow.Sequence,4_41,2023-09-08T17:55:49.569Z,,0,,,8058.3780001431005,completion,,,,,false,,,,672292.7999999523,672292.600000143,664217.661,664291.100000143,664234.222,672233.099,8,400,,,
trial,html.Screen,4_42_0,2023-09-08T17:55:56.931Z,,0,1,,7421.601000047638,response,ISIC_1874480.JPG,4,ISIC_3549225.JPG,ISIC_3549225.JPG,false,0,keypress(z),500,679654.7999999523,679654.7000000477,672216.388,672292.7999999523,672233.099,679597.446,8,400,43,,ISIC_1874480.JPG
break,html.Screen,4_42_1,2023-09-08T17:55:56.932Z,,0,,,NaN,,,,,,false,,,,679655.2000000477,679655.100000143,,679654.9000000954,,679597.446,8,400,,,
break_continue,html.Screen,4_42_2,2023-09-08T17:55:56.932Z,,0,,,NaN,,,,,,false,,,,679655.4000000954,679655.2999999523,,679655.2000000477,,679597.446,8,400,,,
sequence,flow.Sequence,4_42,2023-09-08T17:55:56.932Z,,0,,,7422.200999952271,completion,,,,,false,,,,679655.5,679655.2999999523,672216.388,672292.7999999523,672233.099,679597.446,8,400,,,
trial,html.Screen,4_43_0,2023-09-08T17:56:03.246Z,,0,1,,6370.954000095371,response,ISIC_4045323.JPG,5,ISIC_0029216.JPG,ISIC_4045323.JPG,false,1,keypress(m),500,685968.600000143,685968.4000000954,679580.769,679655.5,679597.446,685909.802,8,400,44,,ISIC_0029216.JPG
break,html.Screen,4_43_1,2023-09-08T17:56:03.247Z,,0,,,NaN,,,,,,false,,,,685968.9000000954,685968.7999999523,,685968.600000143,,685909.802,8,400,,,
break_continue,html.Screen,4_43_2,2023-09-08T17:56:03.247Z,,0,,,NaN,,,,,,false,,,,685969.2999999523,685969.2000000477,,685969,,685909.802,8,400,,,
sequence,flow.Sequence,4_43,2023-09-08T17:56:03.247Z,,0,,,6371.754000047687,completion,,,,,false,,,,685969.5,685969.2000000477,679580.769,679655.5,679597.446,685909.802,8,400,,,
trial,html.Screen,4_44_0,2023-09-08T17:56:12.181Z,,0,1,,8993.197999999975,response,ISIC_4985027.JPG,4,ISIC_0033152.JPG,ISIC_4985027.JPG,false,1,keypress(m),500,694903.2000000477,694903,685893.202,685969.600000143,685909.802,694843.784,8,400,45,,ISIC_0033152.JPG
break,html.Screen,4_44_1,2023-09-08T17:56:12.181Z,,0,,,NaN,,,,,,false,,,,694903.600000143,694903.5,,694903.2999999523,,694843.784,8,400,,,
break_continue,html.Screen,4_44_2,2023-09-08T17:56:12.182Z,,0,,,NaN,,,,,,false,,,,694903.9000000954,694903.7999999523,,694903.7999999523,,694843.784,8,400,,,
sequence,flow.Sequence,4_44,2023-09-08T17:56:12.182Z,,0,,,8993.997999952291,completion,,,,,false,,,,694904,694903.7999999523,685893.202,685969.600000143,685909.802,694843.784,8,400,,,
trial,html.Screen,4_45_0,2023-09-08T17:56:23.680Z,,0,1,,11522.464000000036,timeout,ISIC_0004000.JPG,4,ISIC_9445196.JPG,,false,,,500,706402.100000143,706401.7999999523,694827.172,694904.100000143,694843.784,706366.248,8,400,46,,
break,html.Screen,4_45_1,2023-09-08T17:56:23.680Z,,0,,,NaN,,,,,,false,,,,706402.7000000477,706402.600000143,,706402.2999999523,,706366.248,8,400,,,
break_continue,html.Screen,4_45_2,2023-09-08T17:56:23.681Z,,0,,,NaN,,,,,,false,,,,706403,706402.9000000954,,706402.9000000954,,706366.248,8,400,,,
sequence,flow.Sequence,4_45,2023-09-08T17:56:23.681Z,,0,,,11559.116000095382,completion,,,,,false,,,,706403.100000143,706402.9000000954,694827.172,694904.100000143,694843.784,706366.248,8,400,,,
trial,html.Screen,4_46_0,2023-09-08T17:56:31.330Z,,0,1,,7686.051999952295,response,ISIC_5082596.JPG,5,ISIC_3613392.JPG,ISIC_3613392.JPG,false,0,keypress(z),500,714052.4000000954,714052.2999999523,706349.537,706403.4000000954,706366.248,713997.685,8,400,47,,ISIC_5082596.JPG
break,html.Screen,4_46_1,2023-09-08T17:56:31.330Z,,0,,,NaN,,,,,,false,,,,714052.7999999523,714052.7000000477,,714052.4000000954,,713997.685,8,400,,,
break_continue,html.Screen,4_46_2,2023-09-08T17:56:31.330Z,,0,,,NaN,,,,,,false,,,,714052.9000000954,714052.7999999523,,714052.7999999523,,713997.685,8,400,,,
sequence,flow.Sequence,4_46,2023-09-08T17:56:31.331Z,,0,,,7686.551999952295,completion,,,,,false,,,,714052.9000000954,714052.7999999523,706349.537,706403.2999999523,706366.248,713997.685,8,400,,,
trial,html.Screen,4_47_0,2023-09-08T17:56:38.453Z,,0,1,,7177.515000047628,response,ISIC_5581297.JPG,5,ISIC_5231145.JPG,ISIC_5231145.JPG,false,0,keypress(z),500,721175.600000143,721175.2000000477,713981.023,714053,713997.685,721111.682,8,400,48,,ISIC_5581297.JPG
break,html.Screen,4_47_1,2023-09-08T17:56:38.455Z,,0,,,NaN,,,,,,false,,,,721177.5,721176.9000000954,,721176.4000000954,,721111.682,8,400,,,
break_continue,html.Screen,4_47_2,2023-09-08T17:56:38.456Z,,0,,,NaN,,,,,,false,,,,721178.2000000477,721178,,721177.7999999523,,721111.682,8,400,,,
sequence,flow.Sequence,4_47,2023-09-08T17:56:38.456Z,,0,,,7180.314999999944,completion,,,,,false,,,,721178.600000143,721178,713981.023,714052.9000000954,713997.685,721111.682,8,400,,,
trial,html.Screen,4_48_0,2023-09-08T17:56:48.912Z,,0,1,,10522.617999952286,response,ISIC_0026244.JPG,6,ISIC_0028225.JPG,ISIC_0028225.JPG,false,0,keypress(z),500,731634.5,731634.2999999523,721094.925,721178.7999999523,721111.682,731582.108,8,400,49,,ISIC_0026244.JPG
break,html.Screen,4_48_1,2023-09-08T17:56:48.912Z,,0,,,NaN,,,,,,false,,,,731634.7000000477,731634.7000000477,,731634.600000143,,731582.108,8,400,,,
break_continue,html.Screen,4_48_2,2023-09-08T17:56:48.913Z,,0,,,NaN,,,,,,false,,,,731635,731634.9000000954,,731634.9000000954,,731582.108,8,400,,,
sequence,flow.Sequence,4_48,2023-09-08T17:56:48.913Z,,0,,,10523.218000095338,completion,,,,,false,,,,731635,731634.9000000954,721094.925,721178.7000000477,721111.682,731582.108,8,400,,,
trial,html.Screen,4_49_0,2023-09-08T17:56:52.722Z,,0,1,,3862.3919999999925,response,ISIC_0024894.JPG,5,ISIC_6269414.JPG,ISIC_6269414.JPG,false,0,keypress(z),500,735444.600000143,735444.5,731565.216,731635.100000143,731582.108,735389.467,8,400,50,,ISIC_0024894.JPG
break,html.Screen,4_49_1,2023-09-08T17:57:02.722Z,,0,,,10002.810000000056,timeout,,,,,false,,,,745444.4000000954,745375.561,735372.76,735444.7000000477,735389.467,745392.277,8,400,,,
break_continue,html.Screen,4_49_2,2023-09-08T17:57:15.962Z,,0,,,13281.222999999998,response,,,,,false,continue,keypress(Space),,758684.4000000954,758673.5,745375.561,745444.600000143,745392.277,758634.581,8,400,,,
sequence,flow.Sequence,4_49,2023-09-08T17:57:15.962Z,,0,,,27091.391999999993,completion,,,,,false,,,,758684.5,758673.5,731565.216,731635.100000143,731582.108,758634.581,8,400,,,
trial,html.Screen,4_50_0,2023-09-08T17:57:22.972Z,,0,2,,7059.819000095362,response,ISIC_8234773.JPG,6,ISIC_3654454.JPG,ISIC_8234773.JPG,false,1,keypress(m),500,765694.5,765694.4000000954,758617.903,758684.600000143,758634.581,765631.605,8,400,1,,ISIC_3654454.JPG
break,html.Screen,4_50_1,2023-09-08T17:57:22.972Z,,0,,,NaN,,,,,,false,,,,765694.9000000954,765694.7999999523,,765694.600000143,,765631.605,8,400,,,
break_continue,html.Screen,4_50_2,2023-09-08T17:57:22.972Z,,0,,,NaN,,,,,,false,,,,765695,765694.9000000954,,765694.9000000954,,765631.605,8,400,,,
sequence,flow.Sequence,4_50,2023-09-08T17:57:22.972Z,,0,,,7060.319000095362,completion,,,,,false,,,,765695.100000143,765694.9000000954,758617.903,758684.5,758634.581,765631.605,8,400,,,
trial,html.Screen,4_51_0,2023-09-08T17:57:28.928Z,,0,2,,6018.295000095386,response,ISIC_8348712.JPG,5,ISIC_0057881.JPG,ISIC_8348712.JPG,false,1,keypress(m),500,771650.2000000477,771649.9000000954,765614.931,765695.100000143,765631.605,771593.146,8,400,2,,ISIC_0057881.JPG
break,html.Screen,4_51_1,2023-09-08T17:57:28.929Z,,0,,,NaN,,,,,,false,,,,771651.2000000477,771650.9000000954,,771650.600000143,,771593.146,8,400,,,
break_continue,html.Screen,4_51_2,2023-09-08T17:57:28.929Z,,0,,,NaN,,,,,,false,,,,771651.7999999523,771651.600000143,,771651.4000000954,,771593.146,8,400,,,
sequence,flow.Sequence,4_51,2023-09-08T17:57:28.930Z,,0,,,6019.99500014307,completion,,,,,false,,,,771652.2000000477,771651.600000143,765614.931,765695.100000143,765631.605,771593.146,8,400,,,
trial,html.Screen,4_52_0,2023-09-08T17:57:35.096Z,,0,2,,6225.454000143101,response,ISIC_0028472.JPG,5,ISIC_0033439.JPG,ISIC_0033439.JPG,false,0,keypress(z),500,777818.7999999523,777818.600000143,771576.43,771652.5,771593.146,777755.128,8,400,3,,ISIC_0028472.JPG
break,html.Screen,4_52_1,2023-09-08T17:57:35.097Z,,0,,,NaN,,,,,,false,,,,777819.2000000477,777819.100000143,,777818.9000000954,,777755.128,8,400,,,
break_continue,html.Screen,4_52_2,2023-09-08T17:57:35.097Z,,0,,,NaN,,,,,,false,,,,777819.5,777819.2999999523,,777819.2999999523,,777755.128,8,400,,,
sequence,flow.Sequence,4_52,2023-09-08T17:57:35.097Z,,0,,,6226.153999952367,completion,,,,,false,,,,777819.5,777819.2999999523,771576.43,771652.4000000954,771593.146,777755.128,8,400,,,
trial,html.Screen,4_53_0,2023-09-08T17:57:43.131Z,,0,2,,8098.272000095341,response,ISIC_6382207.JPG,6,ISIC_1008609.JPG,ISIC_1008609.JPG,false,0,keypress(z),500,785853.7000000477,785853.4000000954,777738.415,777819.600000143,777755.128,785804.28,8,400,4,,ISIC_6382207.JPG
break,html.Screen,4_53_1,2023-09-08T17:57:43.132Z,,0,,,NaN,,,,,,false,,,,785855,785854.7000000477,,785854,,785804.28,8,400,,,
break_continue,html.Screen,4_53_2,2023-09-08T17:57:43.133Z,,0,,,NaN,,,,,,false,,,,785855.7999999523,785855.5,,785855.2999999523,,785804.28,8,400,,,
sequence,flow.Sequence,4_53,2023-09-08T17:57:43.134Z,,0,,,8100.371999999974,completion,,,,,false,,,,785856.600000143,785855.5,777738.415,777819.600000143,777755.128,785804.28,8,400,,,
trial,html.Screen,4_54_0,2023-09-08T17:57:50.625Z,,0,2,,7543.519999952288,response,ISIC_0068381.JPG,6,ISIC_7939816.JPG,ISIC_7939816.JPG,false,0,keypress(z),500,793348,793347.7999999523,785770.881,785856.9000000954,785804.28,793285.322,8,400,5,,ISIC_0068381.JPG
break,html.Screen,4_54_1,2023-09-08T17:57:50.626Z,,0,,,NaN,,,,,,false,,,,793348.4000000954,793348.4000000954,,793348.2000000477,,793285.322,8,400,,,
break_continue,html.Screen,4_54_2,2023-09-08T17:57:50.626Z,,0,,,NaN,,,,,,false,,,,793348.7999999523,793348.7000000477,,793348.600000143,,793285.322,8,400,,,
sequence,flow.Sequence,4_54,2023-09-08T17:57:50.626Z,,0,,,7544.420000047656,completion,,,,,false,,,,793349,793348.7000000477,785770.881,785856.7999999523,785804.28,793285.322,8,400,,,
trial,html.Screen,4_55_0,2023-09-08T17:57:56.456Z,,0,2,,5893.4779999522725,response,ISIC_9852341.JPG,6,ISIC_0068299.JPG,ISIC_9852341.JPG,false,1,keypress(m),500,799178.9000000954,799178.7999999523,793268.748,793349.100000143,793285.322,799113.355,8,400,6,,ISIC_0068299.JPG
break,html.Screen,4_55_1,2023-09-08T17:57:56.456Z,,0,,,NaN,,,,,,false,,,,799179.100000143,799179,,799178.9000000954,,799113.355,8,400,,,
break_continue,html.Screen,4_55_2,2023-09-08T17:57:56.457Z,,0,,,NaN,,,,,,false,,,,799179.2999999523,799179.2000000477,,799179.2000000477,,799113.355,8,400,,,
sequence,flow.Sequence,4_55,2023-09-08T17:57:56.457Z,,0,,,5893.87800004764,completion,,,,,false,,,,799179.4000000954,799179.2000000477,793268.748,793349.100000143,793285.322,799113.355,8,400,,,
trial,html.Screen,4_56_0,2023-09-08T17:58:02.715Z,,0,2,,6322.74500014307,response,ISIC_3166276.JPG,5,ISIC_0071681.JPG,ISIC_3166276.JPG,false,1,keypress(m),500,805436.2999999523,805436.100000143,799096.826,799179.5,799113.355,805375.559,8,400,7,,ISIC_0071681.JPG
break,html.Screen,4_56_1,2023-09-08T17:58:02.716Z,,0,,,NaN,,,,,,false,,,,805436.9000000954,805436.7000000477,,805436.5,,805375.559,8,400,,,
break_continue,html.Screen,4_56_2,2023-09-08T17:58:02.716Z,,0,,,NaN,,,,,,false,,,,805437.2999999523,805437.2000000477,,805437.100000143,,805375.559,8,400,,,
sequence,flow.Sequence,4_56,2023-09-08T17:58:02.716Z,,0,,,6323.845000047702,completion,,,,,false,,,,805437.4000000954,805437.2000000477,799096.826,799179.5,799113.355,805375.559,8,400,,,
trial,html.Screen,4_57_0,2023-09-08T17:58:09.296Z,,0,2,,6641.541000143043,response,ISIC_4873045.JPG,5,ISIC_6028082.JPG,ISIC_4873045.JPG,false,1,keypress(m),500,812017.4000000954,812017.100000143,805358.844,805437.600000143,805375.559,811955.133,8,400,8,,ISIC_6028082.JPG
break,html.Screen,4_57_1,2023-09-08T17:58:09.297Z,,0,,,NaN,,,,,,false,,,,812018.5,812018.2000000477,,812017.7999999523,,811955.133,8,400,,,
break_continue,html.Screen,4_57_2,2023-09-08T17:58:09.298Z,,0,,,NaN,,,,,,false,,,,812019,812018.7999999523,,812018.7000000477,,811955.133,8,400,,,
sequence,flow.Sequence,4_57,2023-09-08T17:58:09.298Z,,0,,,6643.240999952308,completion,,,,,false,,,,812019.4000000954,812018.7999999523,805358.844,805437.5,805375.559,811955.133,8,400,,,
trial,html.Screen,4_58_0,2023-09-08T17:58:17.029Z,,0,2,,7795.46700014302,response,ISIC_6899527.JPG,5,ISIC_0024720.JPG,ISIC_6899527.JPG,false,1,keypress(m),500,819750.7999999523,819750.600000143,811938.332,812019.600000143,811955.133,819686.7,8,400,9,,ISIC_0024720.JPG
break,html.Screen,4_58_1,2023-09-08T17:58:17.030Z,,0,,,NaN,,,,,,false,,,,819751.100000143,819751,,819750.9000000954,,819686.7,8,400,,,
break_continue,html.Screen,4_58_2,2023-09-08T17:58:17.030Z,,0,,,NaN,,,,,,false,,,,819751.2000000477,819751.2000000477,,819751.100000143,,819686.7,8,400,,,
sequence,flow.Sequence,4_58,2023-09-08T17:58:17.030Z,,0,,,7796.067000047653,completion,,,,,false,,,,819751.4000000954,819751.2000000477,811938.332,812019.4000000954,811955.133,819686.7,8,400,,,
trial,html.Screen,4_59_0,2023-09-08T17:58:22.811Z,,0,2,,5845.300000000047,response,ISIC_0071245.JPG,4,ISIC_0029374.JPG,ISIC_0029374.JPG,false,0,keypress(z),500,825532.100000143,825532,819670.009,819751.4000000954,819686.7,825464.632,8,400,10,,ISIC_0071245.JPG
break,html.Screen,4_59_1,2023-09-08T17:58:22.811Z,,0,,,NaN,,,,,,false,,,,825532.600000143,825532.5,,825532.2999999523,,825464.632,8,400,,,
break_continue,html.Screen,4_59_2,2023-09-08T17:58:22.812Z,,0,,,NaN,,,,,,false,,,,825532.9000000954,825532.9000000954,,825532.7000000477,,825464.632,8,400,,,
sequence,flow.Sequence,4_59,2023-09-08T17:58:22.812Z,,0,,,5846.200000095414,completion,,,,,false,,,,825533.2000000477,825532.9000000954,819670.009,819751.4000000954,819686.7,825464.632,8,400,,,
trial,html.Screen,4_60_0,2023-09-08T17:58:29.216Z,,0,2,,6472.368000000017,response,ISIC_0025165.JPG,4,ISIC_9709594.JPG,ISIC_9709594.JPG,false,0,keypress(z),500,831937.100000143,831937,825448.007,825533.2999999523,825464.632,831877.127,8,400,11,,ISIC_0025165.JPG
break,html.Screen,4_60_1,2023-09-08T17:58:29.216Z,,0,,,NaN,,,,,,false,,,,831937.5,831937.4000000954,,831937.2000000477,,831877.127,8,400,,,
break_continue,html.Screen,4_60_2,2023-09-08T17:58:29.216Z,,0,,,NaN,,,,,,false,,,,831937.7000000477,831937.600000143,,831937.5,,831877.127,8,400,,,
sequence,flow.Sequence,4_60,2023-09-08T17:58:29.216Z,,0,,,6472.968000143068,completion,,,,,false,,,,831937.7000000477,831937.600000143,825448.007,825533.2999999523,825464.632,831877.127,8,400,,,
trial,html.Screen,4_61_0,2023-09-08T17:58:35.416Z,,0,2,,6260.373000000021,response,ISIC_8036544.JPG,5,ISIC_6373500.JPG,ISIC_8036544.JPG,false,1,keypress(m),500,838137.600000143,838137.5,831860.573,831937.7999999523,831877.127,838072.515,8,400,12,,ISIC_6373500.JPG
break,html.Screen,4_61_1,2023-09-08T17:58:35.417Z,,0,,,NaN,,,,,,false,,,,838138.2000000477,838138.100000143,,838137.7999999523,,838072.515,8,400,,,
break_continue,html.Screen,4_61_2,2023-09-08T17:58:35.417Z,,0,,,NaN,,,,,,false,,,,838138.7000000477,838138.5,,838138.4000000954,,838072.515,8,400,,,
sequence,flow.Sequence,4_61,2023-09-08T17:58:35.417Z,,0,,,6261.373000000021,completion,,,,,false,,,,838138.7999999523,838138.5,831860.573,831937.7999999523,831877.127,838072.515,8,400,,,
trial,html.Screen,4_62_0,2023-09-08T17:58:42.082Z,,0,2,,6730.784999952302,response,ISIC_1576437.JPG,5,ISIC_0071651.JPG,ISIC_1576437.JPG,false,1,keypress(m),500,844803.5,844803.2999999523,838055.795,838138.9000000954,838072.515,844752.291,8,400,13,,ISIC_0071651.JPG
break,html.Screen,4_62_1,2023-09-08T17:58:42.083Z,,0,,,NaN,,,,,,false,,,,844804.2000000477,844804,,844803.600000143,,844752.291,8,400,,,
break_continue,html.Screen,4_62_2,2023-09-08T17:58:42.083Z,,0,,,NaN,,,,,,false,,,,844804.4000000954,844804.2999999523,,844804.2000000477,,844752.291,8,400,,,
sequence,flow.Sequence,4_62,2023-09-08T17:58:42.083Z,,0,,,6731.784999952302,completion,,,,,false,,,,844804.5,844804.2999999523,838055.795,838138.7999999523,838072.515,844752.291,8,400,,,
trial,html.Screen,4_63_0,2023-09-08T17:58:50.294Z,,0,2,,8262.508999952348,response,ISIC_7637091.JPG,5,ISIC_2733043.JPG,ISIC_2733043.JPG,false,0,keypress(z),500,853014.9000000954,853014.7999999523,844735.637,844804.600000143,844752.291,852951.5,8,400,14,,ISIC_7637091.JPG
break,html.Screen,4_63_1,2023-09-08T17:58:50.294Z,,0,,,NaN,,,,,,false,,,,853015.2000000477,853015.100000143,,853015,,852951.5,8,400,,,
break_continue,html.Screen,4_63_2,2023-09-08T17:58:50.294Z,,0,,,NaN,,,,,,false,,,,853015.2999999523,853015.2999999523,,853015.2999999523,,852951.5,8,400,,,
sequence,flow.Sequence,4_63,2023-09-08T17:58:50.294Z,,0,,,8263.008999952348,completion,,,,,false,,,,853015.4000000954,853015.2999999523,844735.637,844804.600000143,844752.291,852951.5,8,400,,,
trial,html.Screen,4_64_0,2023-09-08T17:58:57.800Z,,0,2,,7569.100000143051,response,ISIC_2634356.JPG,5,ISIC_0031325.JPG,ISIC_2634356.JPG,false,1,keypress(m),500,860520.7999999523,860520.600000143,852934.791,853015.5,852951.5,860466.114,8,400,15,,ISIC_0031325.JPG
break,html.Screen,4_64_1,2023-09-08T17:58:57.800Z,,0,,,NaN,,,,,,false,,,,860521.600000143,860521.4000000954,,860521.100000143,,860466.114,8,400,,,
break_continue,html.Screen,4_64_2,2023-09-08T17:58:57.801Z,,0,,,NaN,,,,,,false,,,,860521.9000000954,860521.7999999523,,860521.7000000477,,860466.114,8,400,,,
sequence,flow.Sequence,4_64,2023-09-08T17:58:57.801Z,,0,,,7570.299999952316,completion,,,,,false,,,,860522,860521.7999999523,852934.791,853015.5,852951.5,860466.114,8,400,,,
trial,html.Screen,4_65_0,2023-09-08T17:59:04.156Z,,0,2,,6410.185999952373,response,ISIC_2119925.JPG,5,ISIC_6208762.JPG,ISIC_2119925.JPG,false,1,keypress(m),500,866876.600000143,866876.2999999523,860449.391,860522.2000000477,860466.114,866811.818,8,400,16,,ISIC_6208762.JPG
break,html.Screen,4_65_1,2023-09-08T17:59:04.156Z,,0,,,NaN,,,,,,false,,,,866877.2000000477,866877,,866876.7000000477,,866811.818,8,400,,,
break_continue,html.Screen,4_65_2,2023-09-08T17:59:04.157Z,,0,,,NaN,,,,,,false,,,,866877.5,866877.4000000954,,866877.2999999523,,866811.818,8,400,,,
sequence,flow.Sequence,4_65,2023-09-08T17:59:04.157Z,,0,,,6411.286000095424,completion,,,,,false,,,,866877.600000143,866877.4000000954,860449.391,860522.2000000477,860466.114,866811.818,8,400,,,
trial,html.Screen,4_66_0,2023-09-08T17:59:09.790Z,,0,2,,5699.18200000003,response,ISIC_0061848.JPG,6,ISIC_9066201.JPG,ISIC_9066201.JPG,false,0,keypress(z),500,872511.2000000477,872511,866795.3,866877.7000000477,866811.818,872456.086,8,400,17,,ISIC_0061848.JPG
break,html.Screen,4_66_1,2023-09-08T17:59:09.791Z,,0,,,NaN,,,,,,false,,,,872511.4000000954,872511.2999999523,,872511.2000000477,,872456.086,8,400,,,
break_continue,html.Screen,4_66_2,2023-09-08T17:59:09.791Z,,0,,,NaN,,,,,,false,,,,872511.5,872511.5,,872511.4000000954,,872456.086,8,400,,,
sequence,flow.Sequence,4_66,2023-09-08T17:59:09.791Z,,0,,,5699.68200000003,completion,,,,,false,,,,872511.600000143,872511.5,866795.3,866877.7000000477,866811.818,872456.086,8,400,,,
trial,html.Screen,4_67_0,2023-09-08T17:59:16.900Z,,0,2,,7165.014000143041,response,ISIC_7693995.JPG,6,ISIC_1910158.JPG,ISIC_1910158.JPG,false,0,keypress(z),500,879621.2999999523,879621.100000143,872439.387,872511.600000143,872456.086,879569.993,8,400,18,,ISIC_7693995.JPG
break,html.Screen,4_67_1,2023-09-08T17:59:16.901Z,,0,,,NaN,,,,,,false,,,,879622.2000000477,879622,,879621.7000000477,,879569.993,8,400,,,
break_continue,html.Screen,4_67_2,2023-09-08T17:59:16.902Z,,0,,,NaN,,,,,,false,,,,879622.600000143,879622.5,,879622.4000000954,,879569.993,8,400,,,
sequence,flow.Sequence,4_67,2023-09-08T17:59:16.902Z,,0,,,7166.41399999999,completion,,,,,false,,,,879622.9000000954,879622.5,872439.387,872511.600000143,872456.086,879569.993,8,400,,,
trial,html.Screen,4_68_0,2023-09-08T17:59:24.906Z,,0,2,,8056.707000047667,response,ISIC_7800706.JPG,6,ISIC_2644988.JPG,ISIC_7800706.JPG,false,1,keypress(m),500,887626.9000000954,887626.7000000477,879553.247,879623,879569.993,887568.829,8,400,19,,ISIC_2644988.JPG
break,html.Screen,4_68_1,2023-09-08T17:59:24.906Z,,0,,,NaN,,,,,,false,,,,887627.2000000477,887627.100000143,,887626.9000000954,,887568.829,8,400,,,
break_continue,html.Screen,4_68_2,2023-09-08T17:59:24.907Z,,0,,,NaN,,,,,,false,,,,887627.4000000954,887627.2999999523,,887627.2000000477,,887568.829,8,400,,,
sequence,flow.Sequence,4_68,2023-09-08T17:59:24.907Z,,0,,,8057.3069999522995,completion,,,,,false,,,,887627.4000000954,887627.2999999523,879553.247,879623,879569.993,887568.829,8,400,,,
trial,html.Screen,4_69_0,2023-09-08T17:59:30.652Z,,0,2,,5803.871000047657,response,ISIC_0054134.JPG,5,ISIC_3609379.JPG,ISIC_3609379.JPG,false,0,keypress(z),500,893373,893372.7000000477,887552.153,887627.5,887568.829,893313.388,8,400,20,,ISIC_0054134.JPG
break,html.Screen,4_69_1,2023-09-08T17:59:30.653Z,,0,,,NaN,,,,,,false,,,,893373.7999999523,893373.5,,893373.2000000477,,893313.388,8,400,,,
break_continue,html.Screen,4_69_2,2023-09-08T17:59:30.653Z,,0,,,NaN,,,,,,false,,,,893374.100000143,893374,,893373.9000000954,,893313.388,8,400,,,
sequence,flow.Sequence,4_69,2023-09-08T17:59:30.653Z,,0,,,5805.170999999973,completion,,,,,false,,,,893374.2000000477,893374,887552.153,887627.4000000954,887568.829,893313.388,8,400,,,
trial,html.Screen,4_70_0,2023-09-08T17:59:37.077Z,,0,2,,6483.911999952281,response,ISIC_5578611.JPG,5,ISIC_0030492.JPG,ISIC_5578611.JPG,false,1,keypress(m),500,899797.600000143,899797.2999999523,893296.613,893374.4000000954,893313.388,899742.692,8,400,21,,ISIC_0030492.JPG
break,html.Screen,4_70_1,2023-09-08T17:59:37.078Z,,0,,,NaN,,,,,,false,,,,899798.7000000477,899798.4000000954,,899797.9000000954,,899742.692,8,400,,,
break_continue,html.Screen,4_70_2,2023-09-08T17:59:37.079Z,,0,,,NaN,,,,,,false,,,,899799.5,899799.2999999523,,899799,,899742.692,8,400,,,
sequence,flow.Sequence,4_70,2023-09-08T17:59:37.079Z,,0,,,6485.911999952281,completion,,,,,false,,,,899799.7999999523,899799.2999999523,893296.613,893374.2999999523,893313.388,899742.692,8,400,,,
trial,html.Screen,4_71_0,2023-09-08T17:59:43.802Z,,0,2,,6779.908000143012,response,ISIC_9024724.JPG,5,ISIC_1737600.JPG,ISIC_9024724.JPG,false,1,keypress(m),500,906522.7000000477,906522.600000143,899725.8,899800.100000143,899742.692,906455.568,8,400,22,,ISIC_1737600.JPG
break,html.Screen,4_71_1,2023-09-08T17:59:43.802Z,,0,,,NaN,,,,,,false,,,,906523.100000143,906523,,906522.9000000954,,906455.568,8,400,,,
break_continue,html.Screen,4_71_2,2023-09-08T17:59:43.803Z,,0,,,NaN,,,,,,false,,,,906523.600000143,906523.600000143,,906523.4000000954,,906455.568,8,400,,,
sequence,flow.Sequence,4_71,2023-09-08T17:59:43.803Z,,0,,,6780.908000143012,completion,,,,,false,,,,906523.7000000477,906523.600000143,899725.8,899800,899742.692,906455.568,8,400,,,
trial,html.Screen,4_72_0,2023-09-08T17:59:53.280Z,,0,2,,9544.632000047714,response,ISIC_0024229.JPG,5,ISIC_2086540.JPG,ISIC_2086540.JPG,false,0,keypress(z),500,916000.4000000954,916000.2000000477,906438.902,906523.9000000954,906455.568,915940.78,8,400,23,,ISIC_0024229.JPG
break,html.Screen,4_72_1,2023-09-08T17:59:53.280Z,,0,,,NaN,,,,,,false,,,,916001,916000.9000000954,,916000.600000143,,915940.78,8,400,,,
break_continue,html.Screen,4_72_2,2023-09-08T17:59:53.281Z,,0,,,NaN,,,,,,false,,,,916001.4000000954,916001.2000000477,,916001.2000000477,,915940.78,8,400,,,
sequence,flow.Sequence,4_72,2023-09-08T17:59:53.281Z,,0,,,9545.632000047714,completion,,,,,false,,,,916001.600000143,916001.2000000477,906438.902,906523.7999999523,906455.568,915940.78,8,400,,,
trial,html.Screen,4_73_0,2023-09-08T17:59:59.330Z,,0,2,,6109.920000047656,response,ISIC_8689583.JPG,4,ISIC_0011448.JPG,ISIC_8689583.JPG,false,1,keypress(m),500,922050.9000000954,922050.7000000477,915924.01,916001.7000000477,915940.78,921985.771,8,400,24,,ISIC_0011448.JPG
break,html.Screen,4_73_1,2023-09-08T17:59:59.331Z,,0,,,NaN,,,,,,false,,,,922051.600000143,922051.4000000954,,922051,,921985.771,8,400,,,
break_continue,html.Screen,4_73_2,2023-09-08T17:59:59.331Z,,0,,,NaN,,,,,,false,,,,922051.9000000954,922051.7999999523,,922051.7000000477,,921985.771,8,400,,,
sequence,flow.Sequence,4_73,2023-09-08T17:59:59.331Z,,0,,,6111.019999952288,completion,,,,,false,,,,922052,922051.7999999523,915924.01,916001.600000143,915940.78,921985.771,8,400,,,
trial,html.Screen,4_74_0,2023-09-08T18:00:05.461Z,,0,2,,6195.72900000005,response,ISIC_0032182.JPG,4,ISIC_0057696.JPG,ISIC_0057696.JPG,false,0,keypress(z),500,928181.600000143,928181.5,921969.054,922052.100000143,921985.771,928114.414,8,400,25,,ISIC_0032182.JPG
break,html.Screen,4_74_1,2023-09-08T18:00:05.461Z,,0,,,NaN,,,,,,false,,,,928182.100000143,928181.9000000954,,928181.7999999523,,928114.414,8,400,,,
break_continue,html.Screen,4_74_2,2023-09-08T18:00:05.462Z,,0,,,NaN,,,,,,false,,,,928182.2999999523,928182.2000000477,,928182.100000143,,928114.414,8,400,,,
sequence,flow.Sequence,4_74,2023-09-08T18:00:05.462Z,,0,,,6196.429000047734,completion,,,,,false,,,,928182.4000000954,928182.2000000477,921969.054,922052,921985.771,928114.414,8,400,,,
trial,html.Screen,4_75_0,2023-09-08T18:00:12.015Z,,0,2,,6620.986000095378,response,ISIC_0010649.JPG,5,ISIC_0026692.JPG,ISIC_0010649.JPG,false,1,keypress(m),500,934735.5,934735.4000000954,928097.772,928182.5,928114.414,934677.206,8,400,26,,ISIC_0026692.JPG
break,html.Screen,4_75_1,2023-09-08T18:00:12.015Z,,0,,,NaN,,,,,,false,,,,934735.9000000954,934735.7999999523,,934735.600000143,,934677.206,8,400,,,
break_continue,html.Screen,4_75_2,2023-09-08T18:00:12.015Z,,0,,,NaN,,,,,,false,,,,934736.2000000477,934736.100000143,,934736,,934677.206,8,400,,,
sequence,flow.Sequence,4_75,2023-09-08T18:00:12.016Z,,0,,,6621.686000143061,completion,,,,,false,,,,934736.2000000477,934736.100000143,928097.772,928182.5,928114.414,934677.206,8,400,,,
trial,html.Screen,4_76_0,2023-09-08T18:00:19.830Z,,0,2,,7873.593999952311,response,ISIC_0028326.JPG,5,ISIC_0054391.JPG,ISIC_0054391.JPG,false,0,keypress(z),500,942551.100000143,942550.7999999523,934660.509,934736.2999999523,934677.206,942492.398,8,400,27,,ISIC_0028326.JPG
break,html.Screen,4_76_1,2023-09-08T18:00:19.831Z,,0,,,NaN,,,,,,false,,,,942551.600000143,942551.4000000954,,942551.2999999523,,942492.398,8,400,,,
break_continue,html.Screen,4_76_2,2023-09-08T18:00:19.831Z,,0,,,NaN,,,,,,false,,,,942551.7999999523,942551.7000000477,,942551.7000000477,,942492.398,8,400,,,
sequence,flow.Sequence,4_76,2023-09-08T18:00:19.831Z,,0,,,7874.494000047678,completion,,,,,false,,,,942551.9000000954,942551.7000000477,934660.509,934736.2999999523,934677.206,942492.398,8,400,,,
trial,html.Screen,4_77_0,2023-09-08T18:00:26.330Z,,0,2,,6558.202000143006,response,ISIC_8702237.JPG,5,ISIC_0027060.JPG,ISIC_8702237.JPG,false,1,keypress(m),500,949050.9000000954,949050.600000143,942475.769,942552,942492.398,948988.396,8,400,28,,ISIC_0027060.JPG
break,html.Screen,4_77_1,2023-09-08T18:00:26.331Z,,0,,,NaN,,,,,,false,,,,949051.7999999523,949051.600000143,,949051.100000143,,948988.396,8,400,,,
break_continue,html.Screen,4_77_2,2023-09-08T18:00:26.332Z,,0,,,NaN,,,,,,false,,,,949052.2999999523,949052.100000143,,949052,,948988.396,8,400,,,
sequence,flow.Sequence,4_77,2023-09-08T18:00:26.332Z,,0,,,6559.702000143006,completion,,,,,false,,,,949052.5,949052.100000143,942475.769,942552,942492.398,948988.396,8,400,,,
trial,html.Screen,4_78_0,2023-09-08T18:00:33.902Z,,0,2,,7634.304000047734,response,ISIC_0065480.JPG,5,ISIC_5550263.JPG,ISIC_0065480.JPG,false,1,keypress(m),500,956622.7999999523,956622.7000000477,948971.64,949052.7000000477,948988.396,956569.965,8,400,29,,ISIC_5550263.JPG
break,html.Screen,4_78_1,2023-09-08T18:00:33.903Z,,0,,,NaN,,,,,,false,,,,956623.2000000477,956623.100000143,,956622.9000000954,,956569.965,8,400,,,
break_continue,html.Screen,4_78_2,2023-09-08T18:00:33.903Z,,0,,,NaN,,,,,,false,,,,956623.5,956623.5,,956623.2999999523,,956569.965,8,400,,,
sequence,flow.Sequence,4_78,2023-09-08T18:00:33.903Z,,0,,,7635.10400000005,completion,,,,,false,,,,956623.7000000477,956623.5,948971.64,949052.7000000477,948988.396,956569.965,8,400,,,
trial,html.Screen,4_79_0,2023-09-08T18:00:38.656Z,,0,2,,4807.035000000033,response,ISIC_4153234.JPG,5,ISIC_0011763.JPG,ISIC_4153234.JPG,false,1,keypress(m),500,961377,961377,956553.256,956623.7000000477,956569.965,961312.36,8,400,30,,ISIC_0011763.JPG
break,html.Screen,4_79_1,2023-09-08T18:00:38.657Z,,0,,,NaN,,,,,,false,,,,961377.5,961377.4000000954,,961377.2000000477,,961312.36,8,400,,,
break_continue,html.Screen,4_79_2,2023-09-08T18:00:38.657Z,,0,,,NaN,,,,,,false,,,,961377.7000000477,961377.7000000477,,961377.5,,961312.36,8,400,,,
sequence,flow.Sequence,4_79,2023-09-08T18:00:38.657Z,,0,,,4807.735000047716,completion,,,,,false,,,,961377.7999999523,961377.7000000477,956553.256,956623.7000000477,956569.965,961312.36,8,400,,,
trial,html.Screen,4_80_0,2023-09-08T18:00:45.363Z,,0,2,,6770.740000143065,response,ISIC_0025759.JPG,5,ISIC_0016085.JPG,ISIC_0025759.JPG,false,1,keypress(m),500,968083.2999999523,968083.100000143,961295.805,961377.7999999523,961312.36,968025.372,8,400,31,,ISIC_0016085.JPG
break,html.Screen,4_80_1,2023-09-08T18:00:45.363Z,,0,,,NaN,,,,,,false,,,,968083.7000000477,968083.5,,968083.2999999523,,968025.372,8,400,,,
break_continue,html.Screen,4_80_2,2023-09-08T18:00:45.363Z,,0,,,NaN,,,,,,false,,,,968084.100000143,968083.9000000954,,968083.7999999523,,968025.372,8,400,,,
sequence,flow.Sequence,4_80,2023-09-08T18:00:45.363Z,,0,,,6771.540000095381,completion,,,,,false,,,,968084.100000143,968083.9000000954,961295.805,961377.7999999523,961312.36,968025.372,8,400,,,
trial,html.Screen,4_81_0,2023-09-08T18:00:50.821Z,,0,2,,5516.32800004771,response,ISIC_9799596.JPG,5,ISIC_0057821.JPG,ISIC_9799596.JPG,false,1,keypress(m),500,973541.7999999523,973541.7000000477,968008.855,968084.2000000477,968025.372,973486.042,8,400,32,,ISIC_0057821.JPG
break,html.Screen,4_81_1,2023-09-08T18:00:50.821Z,,0,,,NaN,,,,,,false,,,,973542.100000143,973542,,973541.7999999523,,973486.042,8,400,,,
break_continue,html.Screen,4_81_2,2023-09-08T18:00:50.822Z,,0,,,NaN,,,,,,false,,,,973542.5,973542.2999999523,,973542.2000000477,,973486.042,8,400,,,
sequence,flow.Sequence,4_81,2023-09-08T18:00:50.822Z,,0,,,5516.927999952342,completion,,,,,false,,,,973542.7000000477,973542.2999999523,968008.855,968084.2000000477,968025.372,973486.042,8,400,,,
trial,html.Screen,4_82_0,2023-09-08T18:00:56.509Z,,0,2,,5743.957999999984,response,ISIC_3965872.JPG,5,ISIC_0029651.JPG,ISIC_3965872.JPG,false,1,keypress(m),500,979230.100000143,979230,973469.369,973542.7000000477,973486.042,979163.705,8,400,33,,ISIC_0029651.JPG
break,html.Screen,4_82_1,2023-09-08T18:00:56.510Z,,0,,,NaN,,,,,,false,,,,979230.4000000954,979230.2999999523,,979230.2000000477,,979163.705,8,400,,,
break_continue,html.Screen,4_82_2,2023-09-08T18:00:56.510Z,,0,,,NaN,,,,,,false,,,,979230.600000143,979230.5,,979230.4000000954,,979163.705,8,400,,,
sequence,flow.Sequence,4_82,2023-09-08T18:00:56.510Z,,0,,,5744.457999999984,completion,,,,,false,,,,979230.7000000477,979230.5,973469.369,973542.7000000477,973486.042,979163.705,8,400,,,
trial,html.Screen,4_83_0,2023-09-08T18:01:02.373Z,,0,2,,5928.995000047726,response,ISIC_0000551.JPG,6,ISIC_0000118.JPG,ISIC_0000551.JPG,false,1,keypress(m),500,985092.9000000954,985092.7000000477,979147.055,979230.7000000477,979163.705,985041.845,8,400,34,,ISIC_0000118.JPG
break,html.Screen,4_83_1,2023-09-08T18:01:02.373Z,,0,,,NaN,,,,,,false,,,,985093.2000000477,985093.100000143,,985093,,985041.845,8,400,,,
break_continue,html.Screen,4_83_2,2023-09-08T18:01:02.374Z,,0,,,NaN,,,,,,false,,,,985093.4000000954,985093.2999999523,,985093.2999999523,,985041.845,8,400,,,
sequence,flow.Sequence,4_83,2023-09-08T18:01:02.374Z,,0,,,5929.594999952358,completion,,,,,false,,,,985093.7000000477,985093.2999999523,979147.055,979230.7000000477,979163.705,985041.845,8,400,,,
trial,html.Screen,4_84_0,2023-09-08T18:01:09.615Z,,0,2,,7292.954999952344,response,ISIC_0056501.JPG,4,ISIC_5336007.JPG,ISIC_5336007.JPG,false,0,keypress(z),500,992334.9000000954,992334.7999999523,985025.123,985093.7999999523,985041.845,992272.555,8,400,35,,ISIC_0056501.JPG
break,html.Screen,4_84_1,2023-09-08T18:01:09.616Z,,0,,,NaN,,,,,,false,,,,992335.4000000954,992335.2000000477,,992335,,992272.555,8,400,,,
break_continue,html.Screen,4_84_2,2023-09-08T18:01:09.616Z,,0,,,NaN,,,,,,false,,,,992335.600000143,992335.4000000954,,992335.4000000954,,992272.555,8,400,,,
sequence,flow.Sequence,4_84,2023-09-08T18:01:09.616Z,,0,,,7293.555000095395,completion,,,,,false,,,,992335.600000143,992335.4000000954,985025.123,985093.7999999523,985041.845,992272.555,8,400,,,
trial,html.Screen,4_85_0,2023-09-08T18:01:14.930Z,,0,2,,5377.545000143,response,ISIC_0058255.JPG,5,ISIC_0058836.JPG,ISIC_0058255.JPG,false,1,keypress(m),500,997650.2000000477,997650.100000143,992255.893,992335.7000000477,992272.555,997582.872,8,400,36,,ISIC_0058836.JPG
break,html.Screen,4_85_1,2023-09-08T18:01:14.931Z,,0,,,NaN,,,,,,false,,,,997650.5,997650.5,,997650.2000000477,,997582.872,8,400,,,
break_continue,html.Screen,4_85_2,2023-09-08T18:01:14.931Z,,0,,,NaN,,,,,,false,,,,997650.7000000477,997650.7000000477,,997650.600000143,,997582.872,8,400,,,
sequence,flow.Sequence,4_85,2023-09-08T18:01:14.931Z,,0,,,5378.1450000476325,completion,,,,,false,,,,997650.7999999523,997650.7000000477,992255.893,992335.600000143,992272.555,997582.872,8,400,,,
trial,html.Screen,4_86_0,2023-09-08T18:01:22.389Z,,0,2,,7526.0280000953935,response,ISIC_0033805.JPG,5,ISIC_1809444.JPG,ISIC_1809444.JPG,false,0,keypress(z),500,1005109,1005108.9000000954,997566.214,997650.7999999523,997582.872,1005047.479,8,400,37,,ISIC_0033805.JPG
break,html.Screen,4_86_1,2023-09-08T18:01:22.390Z,,0,,,NaN,,,,,,false,,,,1005109.4000000954,1005109.4000000954,,1005109.100000143,,1005047.479,8,400,,,
break_continue,html.Screen,4_86_2,2023-09-08T18:01:22.390Z,,0,,,NaN,,,,,,false,,,,1005109.9000000954,1005109.7999999523,,1005109.600000143,,1005047.479,8,400,,,
sequence,flow.Sequence,4_86,2023-09-08T18:01:22.390Z,,0,,,7526.927999952342,completion,,,,,false,,,,1005110.100000143,1005109.7999999523,997566.214,997650.7999999523,997582.872,1005047.479,8,400,,,
trial,html.Screen,4_87_0,2023-09-08T18:01:30.880Z,,0,2,,8551.721000047633,response,ISIC_8691327.JPG,5,ISIC_5807112.JPG,ISIC_5807112.JPG,false,0,keypress(z),500,1013599.5,1013599.2000000477,1005030.903,1005110.2000000477,1005047.479,1013547.358,8,400,38,,ISIC_8691327.JPG
break,html.Screen,4_87_1,2023-09-08T18:01:30.880Z,,0,,,NaN,,,,,,false,,,,1013600.2999999523,1013600.100000143,,1013599.9000000954,,1013547.358,8,400,,,
break_continue,html.Screen,4_87_2,2023-09-08T18:01:30.881Z,,0,,,NaN,,,,,,false,,,,1013600.5,1013600.5,,1013600.4000000954,,1013547.358,8,400,,,
sequence,flow.Sequence,4_87,2023-09-08T18:01:30.881Z,,0,,,8553.02099999995,completion,,,,,false,,,,1013600.7000000477,1013600.5,1005030.903,1005110.100000143,1005047.479,1013547.358,8,400,,,
trial,html.Screen,4_88_0,2023-09-08T18:01:39.011Z,,0,2,,8183.441999952309,response,ISIC_2307760.JPG,5,ISIC_0008881.JPG,ISIC_2307760.JPG,false,1,keypress(m),500,1021730.9000000954,1021730.7999999523,1013530.781,1013600.9000000954,1013547.358,1021663.126,8,400,39,,ISIC_0008881.JPG
break,html.Screen,4_88_1,2023-09-08T18:01:39.011Z,,0,,,NaN,,,,,,false,,,,1021731.2999999523,1021731.2000000477,,1021731,,1021663.126,8,400,,,
break_continue,html.Screen,4_88_2,2023-09-08T18:01:39.012Z,,0,,,NaN,,,,,,false,,,,1021731.9000000954,1021731.7000000477,,1021731.4000000954,,1021663.126,8,400,,,
sequence,flow.Sequence,4_88,2023-09-08T18:01:39.012Z,,0,,,8184.342000047676,completion,,,,,false,,,,1021732,1021731.7000000477,1013530.781,1013600.7999999523,1013547.358,1021663.126,8,400,,,
trial,html.Screen,4_89_0,2023-09-08T18:01:43.383Z,,0,2,,4439.474000143004,response,ISIC_7210119.JPG,4,ISIC_2349994.JPG,ISIC_7210119.JPG,false,1,keypress(m),500,1026102.9000000954,1026102.600000143,1021646.682,1021732.100000143,1021663.126,1026038.32,8,400,40,,ISIC_2349994.JPG
break,html.Screen,4_89_1,2023-09-08T18:01:43.384Z,,0,,,NaN,,,,,,false,,,,1026103.7999999523,1026103.4000000954,,1026103.2000000477,,1026038.32,8,400,,,
break_continue,html.Screen,4_89_2,2023-09-08T18:01:43.384Z,,0,,,NaN,,,,,,false,,,,1026104.100000143,1026104.100000143,,1026104,,1026038.32,8,400,,,
sequence,flow.Sequence,4_89,2023-09-08T18:01:43.384Z,,0,,,4440.974000143004,completion,,,,,false,,,,1026104.2999999523,1026104.100000143,1021646.682,1021732.100000143,1021663.126,1026038.32,8,400,,,
trial,html.Screen,4_90_0,2023-09-08T18:01:48.655Z,,0,2,,5335.880000047735,response,ISIC_0055859.JPG,5,ISIC_2007396.JPG,ISIC_2007396.JPG,false,0,keypress(z),500,1031374.4000000954,1031374.2000000477,1026021.72,1026104.4000000954,1026038.32,1031315.252,8,400,41,,ISIC_0055859.JPG
break,html.Screen,4_90_1,2023-09-08T18:01:48.655Z,,0,,,NaN,,,,,,false,,,,1031375,1031374.7999999523,,1031374.600000143,,1031315.252,8,400,,,
break_continue,html.Screen,4_90_2,2023-09-08T18:01:48.656Z,,0,,,NaN,,,,,,false,,,,1031375.600000143,1031375.5,,1031375.2999999523,,1031315.252,8,400,,,
sequence,flow.Sequence,4_90,2023-09-08T18:01:48.656Z,,0,,,5337.180000000051,completion,,,,,false,,,,1031375.7000000477,1031375.5,1026021.72,1026104.4000000954,1026038.32,1031315.252,8,400,,,
trial,html.Screen,4_91_0,2023-09-08T18:01:54.010Z,,0,2,,5414.047999952338,response,ISIC_8527737.JPG,6,ISIC_0014629.JPG,ISIC_8527737.JPG,false,1,keypress(m),500,1036729.5,1036729.2999999523,1031298.589,1031375.9000000954,1031315.252,1036675.676,8,400,42,,ISIC_0014629.JPG
break,html.Screen,4_91_1,2023-09-08T18:01:54.010Z,,0,,,NaN,,,,,,false,,,,1036729.7999999523,1036729.7999999523,,1036729.600000143,,1036675.676,8,400,,,
break_continue,html.Screen,4_91_2,2023-09-08T18:01:54.010Z,,0,,,NaN,,,,,,false,,,,1036730.100000143,1036729.9000000954,,1036729.9000000954,,1036675.676,8,400,,,
sequence,flow.Sequence,4_91,2023-09-08T18:01:54.010Z,,0,,,5414.648000095389,completion,,,,,false,,,,1036730.100000143,1036729.9000000954,1031298.589,1031375.7999999523,1031315.252,1036675.676,8,400,,,
trial,html.Screen,4_92_0,2023-09-08T18:02:02.533Z,,0,2,,8575.924000143073,response,ISIC_0012064.JPG,5,ISIC_0011505.JPG,ISIC_0012064.JPG,false,1,keypress(m),500,1045251.7999999523,1045251.600000143,1036659.08,1036730.2000000477,1036675.676,1045192.233,8,400,43,,ISIC_0011505.JPG
break,html.Screen,4_92_1,2023-09-08T18:02:02.533Z,,0,,,NaN,,,,,,false,,,,1045252.4000000954,1045252.2000000477,,1045252,,1045192.233,8,400,,,
break_continue,html.Screen,4_92_2,2023-09-08T18:02:02.534Z,,0,,,NaN,,,,,,false,,,,1045252.7999999523,1045252.600000143,,1045252.600000143,,1045192.233,8,400,,,
sequence,flow.Sequence,4_92,2023-09-08T18:02:02.534Z,,0,,,8576.924000143073,completion,,,,,false,,,,1045253,1045252.600000143,1036659.08,1036730.2000000477,1036675.676,1045192.233,8,400,,,
trial,html.Screen,4_93_0,2023-09-08T18:02:08.937Z,,0,2,,6463.766999999993,response,ISIC_5434229.JPG,6,ISIC_0024737.JPG,ISIC_5434229.JPG,false,1,keypress(m),500,1051656,1051656,1045175.653,1045253.100000143,1045192.233,1051604.715,8,400,44,,ISIC_0024737.JPG
break,html.Screen,4_93_1,2023-09-08T18:02:08.937Z,,0,,,NaN,,,,,,false,,,,1051656.4000000954,1051656.2999999523,,1051656.100000143,,1051604.715,8,400,,,
break_continue,html.Screen,4_93_2,2023-09-08T18:02:08.937Z,,0,,,NaN,,,,,,false,,,,1051656.5,1051656.5,,1051656.4000000954,,1051604.715,8,400,,,
sequence,flow.Sequence,4_93,2023-09-08T18:02:08.937Z,,0,,,6464.266999999993,completion,,,,,false,,,,1051656.600000143,1051656.5,1045175.653,1045253.100000143,1045192.233,1051604.715,8,400,,,
trial,html.Screen,4_94_0,2023-09-08T18:02:17.467Z,,0,2,,8581.4850000476,response,ISIC_0541345.JPG,5,ISIC_0024683.JPG,ISIC_0541345.JPG,false,1,keypress(m),500,1060186.4000000954,1060186.2000000477,1051588.163,1051656.600000143,1051604.715,1060121.286,8,400,45,,ISIC_0024683.JPG
break,html.Screen,4_94_1,2023-09-08T18:02:17.467Z,,0,,,NaN,,,,,,false,,,,1060186.600000143,1060186.600000143,,1060186.4000000954,,1060121.286,8,400,,,
break_continue,html.Screen,4_94_2,2023-09-08T18:02:17.468Z,,0,,,NaN,,,,,,false,,,,1060186.7999999523,1060186.7000000477,,1060186.7000000477,,1060121.286,8,400,,,
sequence,flow.Sequence,4_94,2023-09-08T18:02:17.468Z,,0,,,8581.9850000476,completion,,,,,false,,,,1060186.9000000954,1060186.7000000477,1051588.163,1051656.600000143,1051604.715,1060121.286,8,400,,,
trial,html.Screen,4_95_0,2023-09-08T18:02:23.328Z,,0,2,,5926.114000095287,response,ISIC_0059303.JPG,4,ISIC_1740912.JPG,ISIC_0059303.JPG,false,1,keypress(m),500,1066047.600000143,1066047.4000000954,1060104.801,1060186.9000000954,1060121.286,1065982.67,8,400,46,,ISIC_1740912.JPG
break,html.Screen,4_95_1,2023-09-08T18:02:23.329Z,,0,,,NaN,,,,,,false,,,,1066048,1066047.7999999523,,1066047.7000000477,,1065982.67,8,400,,,
break_continue,html.Screen,4_95_2,2023-09-08T18:02:23.329Z,,0,,,NaN,,,,,,false,,,,1066048.2000000477,1066048.100000143,,1066048.100000143,,1065982.67,8,400,,,
sequence,flow.Sequence,4_95,2023-09-08T18:02:23.329Z,,0,,,5926.814000142971,completion,,,,,false,,,,1066048.2999999523,1066048.100000143,1060104.801,1060186.9000000954,1060121.286,1065982.67,8,400,,,
trial,html.Screen,4_96_0,2023-09-08T18:02:28.137Z,,0,2,,4872.930000143126,response,ISIC_0009985.JPG,5,ISIC_0029914.JPG,ISIC_0029914.JPG,false,0,keypress(z),500,1070855.9000000954,1070855.600000143,1065966.021,1066048.2999999523,1065982.67,1070808.908,8,400,47,,ISIC_0009985.JPG
break,html.Screen,4_96_1,2023-09-08T18:02:28.138Z,,0,,,NaN,,,,,,false,,,,1070857,1070856.9000000954,,1070856.4000000954,,1070808.908,8,400,,,
break_continue,html.Screen,4_96_2,2023-09-08T18:02:28.138Z,,0,,,NaN,,,,,,false,,,,1070857.2000000477,1070857.100000143,,1070857.100000143,,1070808.908,8,400,,,
sequence,flow.Sequence,4_96,2023-09-08T18:02:28.138Z,,0,,,4874.430000143126,completion,,,,,false,,,,1070857.2999999523,1070857.100000143,1065966.021,1066048.2999999523,1065982.67,1070808.908,8,400,,,
trial,html.Screen,4_97_0,2023-09-08T18:02:35.420Z,,0,2,,7330.192000142997,response,ISIC_7746898.JPG,5,ISIC_0063926.JPG,ISIC_7746898.JPG,false,1,keypress(m),500,1078139.2000000477,1078139.100000143,1070792.076,1070857.2999999523,1070808.908,1078072.857,8,400,48,,ISIC_0063926.JPG
break,html.Screen,4_97_1,2023-09-08T18:02:35.420Z,,0,,,NaN,,,,,,false,,,,1078139.5,1078139.4000000954,,1078139.2999999523,,1078072.857,8,400,,,
break_continue,html.Screen,4_97_2,2023-09-08T18:02:35.420Z,,0,,,NaN,,,,,,false,,,,1078139.600000143,1078139.600000143,,1078139.600000143,,1078072.857,8,400,,,
sequence,flow.Sequence,4_97,2023-09-08T18:02:35.420Z,,0,,,7330.692000142997,completion,,,,,false,,,,1078139.7000000477,1078139.600000143,1070792.076,1070857.2999999523,1070808.908,1078072.857,8,400,,,
trial,html.Screen,4_98_0,2023-09-08T18:02:40.369Z,,0,2,,5015.743000142975,response,ISIC_0055737.JPG,5,ISIC_0029459.JPG,ISIC_0029459.JPG,false,0,keypress(z),500,1083088.7000000477,1083088.600000143,1078056.164,1078139.7999999523,1078072.857,1083032.792,8,400,49,,ISIC_0055737.JPG
break,html.Screen,4_98_1,2023-09-08T18:02:40.370Z,,0,,,NaN,,,,,,false,,,,1083089.100000143,1083088.9000000954,,1083088.7999999523,,1083032.792,8,400,,,
break_continue,html.Screen,4_98_2,2023-09-08T18:02:40.370Z,,0,,,NaN,,,,,,false,,,,1083089.5,1083089.2999999523,,1083089.2999999523,,1083032.792,8,400,,,
sequence,flow.Sequence,4_98,2023-09-08T18:02:40.370Z,,0,,,5016.44299995224,completion,,,,,false,,,,1083089.600000143,1083089.2999999523,1078056.164,1078139.7000000477,1078072.857,1083032.792,8,400,,,
trial,html.Screen,4_99_0,2023-09-08T18:02:49.685Z,,0,2,,9370.908000047784,response,ISIC_6759173.JPG,4,ISIC_7539727.JPG,ISIC_6759173.JPG,false,1,keypress(m),500,1092403.9000000954,1092403.7000000477,1083015.861,1083089.600000143,1083032.792,1092350.832,8,400,50,,ISIC_7539727.JPG
break,html.Screen,4_99_1,2023-09-08T18:02:59.687Z,,0,,,10002.790000000037,timeout,,,,,false,,,,1102405.9000000954,1102336.772,1092334.001,1092404,1092350.832,1102353.622,8,400,,,
break_continue,html.Screen,4_99_2,2023-09-08T18:03:05.235Z,,0,,,5586.177999952342,response,,,,,false,continue,keypress(Space),,1107954.100000143,1107939.7999999523,1102336.772,1102406.100000143,1102353.622,1107897.741,8,400,,,
sequence,flow.Sequence,4_99,2023-09-08T18:03:05.235Z,,0,,,24907.007999952417,completion,,,,,false,,,,1107954.2000000477,1107939.7999999523,1083015.861,1083089.600000143,1083032.792,1107897.741,8,400,,,
trial,html.Screen,4_100_0,2023-09-08T18:03:11.012Z,,0,3,,5833.859000143129,response,ISIC_0030506.JPG,5,ISIC_0010316.JPG,ISIC_0030506.JPG,false,1,keypress(m),500,1113731.7999999523,1113731.600000143,1107880.838,1107954.2999999523,1107897.741,1113675.505,8,400,1,,ISIC_0010316.JPG
break,html.Screen,4_100_1,2023-09-08T18:03:11.013Z,,0,,,NaN,,,,,,false,,,,1113732,1113731.9000000954,,1113731.7999999523,,1113675.505,8,400,,,
break_continue,html.Screen,4_100_2,2023-09-08T18:03:11.013Z,,0,,,NaN,,,,,,false,,,,1113732.2000000477,1113732.2000000477,,1113732.100000143,,1113675.505,8,400,,,
sequence,flow.Sequence,4_100,2023-09-08T18:03:11.013Z,,0,,,5834.459000047762,completion,,,,,false,,,,1113732.2000000477,1113732.2000000477,1107880.838,1107954.2000000477,1107897.741,1113675.505,8,400,,,
trial,html.Screen,4_101_0,2023-09-08T18:03:15.181Z,,0,3,,4224.6950000477955,response,ISIC_0000140.JPG,4,ISIC_0033075.JPG,ISIC_0033075.JPG,false,0,keypress(z),500,1117900.2999999523,1117900.2000000477,1113658.83,1113732.7999999523,1113675.505,1117833.576,8,400,2,,ISIC_0000140.JPG
break,html.Screen,4_101_1,2023-09-08T18:03:15.181Z,,0,,,NaN,,,,,,false,,,,1117900.600000143,1117900.5,,1117900.2999999523,,1117833.576,8,400,,,
break_continue,html.Screen,4_101_2,2023-09-08T18:03:15.182Z,,0,,,NaN,,,,,,false,,,,1117900.7999999523,1117900.7999999523,,1117900.7000000477,,1117833.576,8,400,,,
sequence,flow.Sequence,4_101,2023-09-08T18:03:15.182Z,,0,,,4225.294999952428,completion,,,,,false,,,,1117901,1117900.7999999523,1113658.83,1113732.4000000954,1113675.505,1117833.576,8,400,,,
trial,html.Screen,4_102_0,2023-09-08T18:03:20.836Z,,0,3,,5721.9240000001155,response,ISIC_0026694.JPG,5,ISIC_0054941.JPG,ISIC_0026694.JPG,false,1,keypress(m),500,1123555.600000143,1123555.5,1117816.902,1117901.100000143,1117833.576,1123511.394,8,400,3,,ISIC_0054941.JPG
break,html.Screen,4_102_1,2023-09-08T18:03:20.837Z,,0,,,NaN,,,,,,false,,,,1123555.9000000954,1123555.9000000954,,1123555.7000000477,,1123511.394,8,400,,,
break_continue,html.Screen,4_102_2,2023-09-08T18:03:20.837Z,,0,,,NaN,,,,,,false,,,,1123556.100000143,1123556,,1123555.9000000954,,1123511.394,8,400,,,
sequence,flow.Sequence,4_102,2023-09-08T18:03:20.837Z,,0,,,5722.4240000001155,completion,,,,,false,,,,1123556.2000000477,1123556,1117816.902,1117901.100000143,1117833.576,1123511.394,8,400,,,
trial,html.Screen,4_103_0,2023-09-08T18:03:28.791Z,,0,3,,7998.50600009528,response,ISIC_8579575.JPG,6,ISIC_0026996.JPG,ISIC_0026996.JPG,false,0,keypress(z),500,1131510,1131509.9000000954,1123494.762,1123556.2000000477,1123511.394,1131443.371,8,400,4,,ISIC_8579575.JPG
break,html.Screen,4_103_1,2023-09-08T18:03:28.791Z,,0,,,NaN,,,,,,false,,,,1131510.4000000954,1131510.2999999523,,1131510.100000143,,1131443.371,8,400,,,
break_continue,html.Screen,4_103_2,2023-09-08T18:03:28.791Z,,0,,,NaN,,,,,,false,,,,1131510.600000143,1131510.5,,1131510.5,,1131443.371,8,400,,,
sequence,flow.Sequence,4_103,2023-09-08T18:03:28.791Z,,0,,,7999.1059999999125,completion,,,,,false,,,,1131510.7999999523,1131510.5,1123494.762,1123556.2000000477,1123511.394,1131443.371,8,400,,,
trial,html.Screen,4_104_0,2023-09-08T18:03:35.817Z,,0,3,,7093.128999999957,response,ISIC_0260290.JPG,5,ISIC_2119925.JPG,ISIC_2119925.JPG,false,0,keypress(z),500,1138536.7000000477,1138536.5,1131426.874,1131510.7999999523,1131443.371,1138473.803,8,400,5,,ISIC_0260290.JPG
break,html.Screen,4_104_1,2023-09-08T18:03:35.818Z,,0,,,NaN,,,,,,false,,,,1138537.2999999523,1138537.100000143,,1138536.9000000954,,1138473.803,8,400,,,
break_continue,html.Screen,4_104_2,2023-09-08T18:03:35.818Z,,0,,,NaN,,,,,,false,,,,1138537.600000143,1138537.600000143,,1138537.5,,1138473.803,8,400,,,
sequence,flow.Sequence,4_104,2023-09-08T18:03:35.819Z,,0,,,7094.229000143008,completion,,,,,false,,,,1138537.7999999523,1138537.600000143,1131426.874,1131510.7999999523,1131443.371,1138473.803,8,400,,,
trial,html.Screen,4_105_0,2023-09-08T18:03:42.670Z,,0,3,,6915.597000095295,response,ISIC_0058946.JPG,5,ISIC_3624318.JPG,ISIC_3624318.JPG,false,0,keypress(z),500,1145389.600000143,1145389.4000000954,1138457.159,1138537.9000000954,1138473.803,1145337.098,8,400,6,,ISIC_0058946.JPG
break,html.Screen,4_105_1,2023-09-08T18:03:42.671Z,,0,,,NaN,,,,,,false,,,,1145390.2000000477,1145390,,1145389.7000000477,,1145337.098,8,400,,,
break_continue,html.Screen,4_105_2,2023-09-08T18:03:42.671Z,,0,,,NaN,,,,,,false,,,,1145390.600000143,1145390.5,,1145390.4000000954,,1145337.098,8,400,,,
sequence,flow.Sequence,4_105,2023-09-08T18:03:42.671Z,,0,,,6916.696999999927,completion,,,,,false,,,,1145390.7000000477,1145390.5,1138457.159,1138537.9000000954,1138473.803,1145337.098,8,400,,,
trial,html.Screen,4_106_0,2023-09-08T18:03:49.186Z,,0,3,,6567.701999952318,response,ISIC_2162728.JPG,5,ISIC_0013792.JPG,ISIC_2162728.JPG,false,1,keypress(m),500,1151904.9000000954,1151904.7999999523,1145320.418,1145390.9000000954,1145337.098,1151849.848,8,400,7,,ISIC_0013792.JPG
break,html.Screen,4_106_1,2023-09-08T18:03:49.186Z,,0,,,NaN,,,,,,false,,,,1151905.4000000954,1151905.2000000477,,1151905.100000143,,1151849.848,8,400,,,
break_continue,html.Screen,4_106_2,2023-09-08T18:03:49.186Z,,0,,,NaN,,,,,,false,,,,1151905.5,1151905.5,,1151905.4000000954,,1151849.848,8,400,,,
sequence,flow.Sequence,4_106,2023-09-08T18:03:49.186Z,,0,,,6568.402000000002,completion,,,,,false,,,,1151905.600000143,1151905.5,1145320.418,1145390.9000000954,1145337.098,1151849.848,8,400,,,
trial,html.Screen,4_107_0,2023-09-08T18:03:55.014Z,,0,3,,5883.152000000002,response,ISIC_1122023.JPG,5,ISIC_0072843.JPG,ISIC_1122023.JPG,false,1,keypress(m),500,1157733.2999999523,1157733,1151833.106,1151905.7000000477,1151849.848,1157677.978,8,400,8,,ISIC_0072843.JPG
break,html.Screen,4_107_1,2023-09-08T18:03:55.015Z,,0,,,NaN,,,,,,false,,,,1157734.100000143,1157733.7999999523,,1157733.5,,1157677.978,8,400,,,
break_continue,html.Screen,4_107_2,2023-09-08T18:03:55.015Z,,0,,,NaN,,,,,,false,,,,1157734.4000000954,1157734.2999999523,,1157734.2000000477,,1157677.978,8,400,,,
sequence,flow.Sequence,4_107,2023-09-08T18:03:55.015Z,,0,,,5884.451999952318,completion,,,,,false,,,,1157734.600000143,1157734.2999999523,1151833.106,1151905.600000143,1151849.848,1157677.978,8,400,,,
trial,html.Screen,4_108_0,2023-09-08T18:04:00.685Z,,0,3,,5725.022000000114,response,ISIC_0032019.JPG,5,ISIC_3452564.JPG,ISIC_3452564.JPG,false,0,keypress(z),500,1163403.2000000477,1163403,1157661.268,1157734.7000000477,1157677.978,1163338.838,8,400,9,,ISIC_0032019.JPG
break,html.Screen,4_108_1,2023-09-08T18:04:00.686Z,,0,,,NaN,,,,,,false,,,,1163404,1163403.7000000477,,1163403.4000000954,,1163338.838,8,400,,,
break_continue,html.Screen,4_108_2,2023-09-08T18:04:00.686Z,,0,,,NaN,,,,,,false,,,,1163404.4000000954,1163404.2999999523,,1163404.2000000477,,1163338.838,8,400,,,
sequence,flow.Sequence,4_108,2023-09-08T18:04:00.686Z,,0,,,5726.32199995243,completion,,,,,false,,,,1163404.600000143,1163404.2999999523,1157661.268,1157734.7000000477,1157677.978,1163338.838,8,400,,,
trial,html.Screen,4_109_0,2023-09-08T18:04:09.698Z,,0,3,,9076.961999952327,response,ISIC_9957389.JPG,6,ISIC_5296963.JPG,ISIC_9957389.JPG,false,1,keypress(m),500,1172415.9000000954,1172415.7999999523,1163322.109,1163404.600000143,1163338.838,1172356.35,8,400,10,,ISIC_5296963.JPG
break,html.Screen,4_109_1,2023-09-08T18:04:09.698Z,,0,,,NaN,,,,,,false,,,,1172416.2999999523,1172416.100000143,,1172416,,1172356.35,8,400,,,
break_continue,html.Screen,4_109_2,2023-09-08T18:04:09.698Z,,0,,,NaN,,,,,,false,,,,1172416.4000000954,1172416.4000000954,,1172416.2999999523,,1172356.35,8,400,,,
sequence,flow.Sequence,4_109,2023-09-08T18:04:09.698Z,,0,,,9077.562000095379,completion,,,,,false,,,,1172416.4000000954,1172416.4000000954,1163322.109,1163404.600000143,1163338.838,1172356.35,8,400,,,
trial,html.Screen,4_110_0,2023-09-08T18:04:16.291Z,,0,3,,6653.050000095274,response,ISIC_0032750.JPG,4,ISIC_9716860.JPG,ISIC_9716860.JPG,false,0,keypress(z),500,1179009.600000143,1179009.4000000954,1172339.676,1172416.5,1172356.35,1178952.532,8,400,11,,ISIC_0032750.JPG
break,html.Screen,4_110_1,2023-09-08T18:04:16.292Z,,0,,,NaN,,,,,,false,,,,1179009.9000000954,1179009.9000000954,,1179009.7000000477,,1178952.532,8,400,,,
break_continue,html.Screen,4_110_2,2023-09-08T18:04:16.292Z,,0,,,NaN,,,,,,false,,,,1179010.100000143,1179010,,1179010,,1178952.532,8,400,,,
sequence,flow.Sequence,4_110,2023-09-08T18:04:16.292Z,,0,,,6653.649999999907,completion,,,,,false,,,,1179010.2000000477,1179010,1172339.676,1172416.5,1172356.35,1178952.532,8,400,,,
trial,html.Screen,4_111_0,2023-09-08T18:04:23.429Z,,0,3,,7194.96800000011,response,ISIC_5426854.JPG,6,ISIC_1729223.JPG,ISIC_5426854.JPG,false,1,keypress(m),500,1186147.600000143,1186147.5,1178936.016,1179010.2000000477,1178952.532,1186083.028,8,400,12,,ISIC_1729223.JPG
break,html.Screen,4_111_1,2023-09-08T18:04:23.430Z,,0,,,NaN,,,,,,false,,,,1186148,1186147.9000000954,,1186147.7000000477,,1186083.028,8,400,,,
break_continue,html.Screen,4_111_2,2023-09-08T18:04:23.430Z,,0,,,NaN,,,,,,false,,,,1186148.100000143,1186148.100000143,,1186148.100000143,,1186083.028,8,400,,,
sequence,flow.Sequence,4_111,2023-09-08T18:04:23.430Z,,0,,,7195.568000143161,completion,,,,,false,,,,1186148.2000000477,1186148.100000143,1178936.016,1179010.2000000477,1178952.532,1186083.028,8,400,,,
trial,html.Screen,4_112_0,2023-09-08T18:04:27.593Z,,0,3,,4228.271999952383,response,ISIC_0055526.JPG,5,ISIC_2089231.JPG,ISIC_2089231.JPG,false,0,keypress(z),500,1190311.5,1190311.2999999523,1186066.383,1186148.2999999523,1186083.028,1190257.941,8,400,13,,ISIC_0055526.JPG
break,html.Screen,4_112_1,2023-09-08T18:04:27.594Z,,0,,,NaN,,,,,,false,,,,1190312.100000143,1190311.9000000954,,1190311.7000000477,,1190257.941,8,400,,,
break_continue,html.Screen,4_112_2,2023-09-08T18:04:27.594Z,,0,,,NaN,,,,,,false,,,,1190312.5,1190312.4000000954,,1190312.2000000477,,1190257.941,8,400,,,
sequence,flow.Sequence,4_112,2023-09-08T18:04:27.594Z,,0,,,4229.3720000954345,completion,,,,,false,,,,1190312.7000000477,1190312.4000000954,1186066.383,1186148.2999999523,1186083.028,1190257.941,8,400,,,
trial,html.Screen,4_113_0,2023-09-08T18:04:33.661Z,,0,3,,6121.159000142943,response,ISIC_0013244.JPG,5,ISIC_7297078.JPG,ISIC_0013244.JPG,false,1,keypress(m),500,1196379.2999999523,1196379.100000143,1190241.334,1190312.7000000477,1190257.941,1196319.811,8,400,14,,ISIC_7297078.JPG
break,html.Screen,4_113_1,2023-09-08T18:04:33.662Z,,0,,,NaN,,,,,,false,,,,1196380.100000143,1196380,,1196379.600000143,,1196319.811,8,400,,,
break_continue,html.Screen,4_113_2,2023-09-08T18:04:33.662Z,,0,,,NaN,,,,,,false,,,,1196380.5,1196380.4000000954,,1196380.2999999523,,1196319.811,8,400,,,
sequence,flow.Sequence,4_113,2023-09-08T18:04:33.663Z,,0,,,6122.459000095259,completion,,,,,false,,,,1196380.7000000477,1196380.4000000954,1190241.334,1190312.7000000477,1190257.941,1196319.811,8,400,,,
trial,html.Screen,4_114_0,2023-09-08T18:04:38.450Z,,0,3,,4847.689000000013,response,ISIC_8733345.JPG,5,ISIC_0013898.JPG,ISIC_8733345.JPG,false,1,keypress(m),500,1201167.7000000477,1201167.5,1196303.133,1196380.9000000954,1196319.811,1201112.336,8,400,15,,ISIC_0013898.JPG
break,html.Screen,4_114_1,2023-09-08T18:04:38.450Z,,0,,,NaN,,,,,,false,,,,1201168.5,1201168.2000000477,,1201167.9000000954,,1201112.336,8,400,,,
break_continue,html.Screen,4_114_2,2023-09-08T18:04:38.451Z,,0,,,NaN,,,,,,false,,,,1201168.7999999523,1201168.7999999523,,1201168.600000143,,1201112.336,8,400,,,
sequence,flow.Sequence,4_114,2023-09-08T18:04:38.451Z,,0,,,4848.988999952329,completion,,,,,false,,,,1201169,1201168.7999999523,1196303.133,1196380.7999999523,1196319.811,1201112.336,8,400,,,
trial,html.Screen,4_115_0,2023-09-08T18:04:44.666Z,,0,3,,6271.9639999524225,response,ISIC_2685523.JPG,6,ISIC_0054559.JPG,ISIC_2685523.JPG,false,1,keypress(m),500,1207384.4000000954,1207384.2999999523,1201095.609,1201169.2000000477,1201112.336,1207324.469,8,400,16,,ISIC_0054559.JPG
break,html.Screen,4_115_1,2023-09-08T18:04:44.667Z,,0,,,NaN,,,,,,false,,,,1207384.7000000477,1207384.7000000477,,1207384.5,,1207324.469,8,400,,,
break_continue,html.Screen,4_115_2,2023-09-08T18:04:44.667Z,,0,,,NaN,,,,,,false,,,,1207384.9000000954,1207384.9000000954,,1207384.7999999523,,1207324.469,8,400,,,
sequence,flow.Sequence,4_115,2023-09-08T18:04:44.667Z,,0,,,6272.564000095474,completion,,,,,false,,,,1207385.100000143,1207384.9000000954,1201095.609,1201169.100000143,1201112.336,1207324.469,8,400,,,
trial,html.Screen,4_116_0,2023-09-08T18:04:51.012Z,,0,3,,6405.530999999959,response,ISIC_1906141.JPG,5,ISIC_0009939.JPG,ISIC_0009939.JPG,false,0,keypress(z),500,1213730.100000143,1213730,1207307.739,1207385.100000143,1207324.469,1213670.108,8,400,17,,ISIC_1906141.JPG
break,html.Screen,4_116_1,2023-09-08T18:04:51.012Z,,0,,,NaN,,,,,,false,,,,1213730.4000000954,1213730.4000000954,,1213730.2000000477,,1213670.108,8,400,,,
break_continue,html.Screen,4_116_2,2023-09-08T18:04:51.013Z,,0,,,NaN,,,,,,false,,,,1213730.7000000477,1213730.7000000477,,1213730.5,,1213670.108,8,400,,,
sequence,flow.Sequence,4_116,2023-09-08T18:04:51.013Z,,0,,,6406.231000047643,completion,,,,,false,,,,1213730.7999999523,1213730.7000000477,1207307.739,1207385.100000143,1207324.469,1213670.108,8,400,,,
trial,html.Screen,4_117_0,2023-09-08T18:04:58.182Z,,0,3,,7230.092000047676,response,ISIC_0054280.JPG,4,ISIC_4926448.JPG,ISIC_4926448.JPG,false,0,keypress(z),500,1220900.2999999523,1220900.2000000477,1213653.43,1213730.7999999523,1213670.108,1220834.057,8,400,18,,ISIC_0054280.JPG
break,html.Screen,4_117_1,2023-09-08T18:04:58.183Z,,0,,,NaN,,,,,,false,,,,1220900.7000000477,1220900.600000143,,1220900.4000000954,,1220834.057,8,400,,,
break_continue,html.Screen,4_117_2,2023-09-08T18:04:58.183Z,,0,,,NaN,,,,,,false,,,,1220901,1220900.9000000954,,1220900.7999999523,,1220834.057,8,400,,,
sequence,flow.Sequence,4_117,2023-09-08T18:04:58.183Z,,0,,,7230.79200009536,completion,,,,,false,,,,1220901,1220900.9000000954,1213653.43,1213730.7999999523,1213670.108,1220834.057,8,400,,,
trial,html.Screen,4_118_0,2023-09-08T18:05:04.169Z,,0,3,,6052.543000143021,response,ISIC_9961652.JPG,5,ISIC_8838753.JPG,ISIC_9961652.JPG,false,1,keypress(m),500,1226886.7000000477,1226886.600000143,1220817.37,1220901.100000143,1220834.057,1226828.984,8,400,19,,ISIC_8838753.JPG
break,html.Screen,4_118_1,2023-09-08T18:05:04.169Z,,0,,,NaN,,,,,,false,,,,1226887,1226887,,1226886.7999999523,,1226828.984,8,400,,,
break_continue,html.Screen,4_118_2,2023-09-08T18:05:04.169Z,,0,,,NaN,,,,,,false,,,,1226887.2000000477,1226887.2000000477,,1226887.100000143,,1226828.984,8,400,,,
sequence,flow.Sequence,4_118,2023-09-08T18:05:04.170Z,,0,,,6053.143000047654,completion,,,,,false,,,,1226887.2999999523,1226887.2000000477,1220817.37,1220901.100000143,1220834.057,1226828.984,8,400,,,
trial,html.Screen,4_119_0,2023-09-08T18:05:11.486Z,,0,3,,7374.416000095429,response,ISIC_3649632.JPG,5,ISIC_0029581.JPG,ISIC_3649632.JPG,false,1,keypress(m),500,1234203.5,1234203.4000000954,1226812.294,1226887.2999999523,1226828.984,1234143.249,8,400,20,,ISIC_0029581.JPG
break,html.Screen,4_119_1,2023-09-08T18:05:11.486Z,,0,,,NaN,,,,,,false,,,,1234204.100000143,1234203.9000000954,,1234203.600000143,,1234143.249,8,400,,,
break_continue,html.Screen,4_119_2,2023-09-08T18:05:11.487Z,,0,,,NaN,,,,,,false,,,,1234204.4000000954,1234204.2999999523,,1234204.2000000477,,1234143.249,8,400,,,
sequence,flow.Sequence,4_119,2023-09-08T18:05:11.487Z,,0,,,7375.315999952378,completion,,,,,false,,,,1234204.4000000954,1234204.2999999523,1226812.294,1226887.2999999523,1226828.984,1234143.249,8,400,,,
trial,html.Screen,4_120_0,2023-09-08T18:05:19.747Z,,0,3,,8321.050999952247,response,ISIC_0027674.JPG,4,ISIC_0175530.JPG,ISIC_0175530.JPG,false,0,keypress(z),500,1242464.4000000954,1242464.2999999523,1234126.561,1234204.5,1234143.249,1242409.299,8,400,21,,ISIC_0027674.JPG
break,html.Screen,4_120_1,2023-09-08T18:05:19.747Z,,0,,,NaN,,,,,,false,,,,1242464.7999999523,1242464.7000000477,,1242464.5,,1242409.299,8,400,,,
break_continue,html.Screen,4_120_2,2023-09-08T18:05:19.747Z,,0,,,NaN,,,,,,false,,,,1242465,1242464.7999999523,,1242464.7999999523,,1242409.299,8,400,,,
sequence,flow.Sequence,4_120,2023-09-08T18:05:19.747Z,,0,,,8321.550999952247,completion,,,,,false,,,,1242465,1242464.7999999523,1234126.561,1234204.5,1234143.249,1242409.299,8,400,,,
trial,html.Screen,4_121_0,2023-09-08T18:05:26.565Z,,0,3,,6873.2009999998845,response,ISIC_0067614.JPG,5,ISIC_0010527.JPG,ISIC_0010527.JPG,false,0,keypress(z),500,1249282.7999999523,1249282.5,1242392.61,1242465.2000000477,1242409.299,1249222.666,8,400,22,,ISIC_0067614.JPG
break,html.Screen,4_121_1,2023-09-08T18:05:26.566Z,,0,,,NaN,,,,,,false,,,,1249283.7000000477,1249283.4000000954,,1249283,,1249222.666,8,400,,,
break_continue,html.Screen,4_121_2,2023-09-08T18:05:26.566Z,,0,,,NaN,,,,,,false,,,,1249284.100000143,1249283.9000000954,,1249283.7999999523,,1249222.666,8,400,,,
sequence,flow.Sequence,4_121,2023-09-08T18:05:26.567Z,,0,,,6874.601000095252,completion,,,,,false,,,,1249284.2999999523,1249283.9000000954,1242392.61,1242465.100000143,1242409.299,1249222.666,8,400,,,
trial,html.Screen,4_122_0,2023-09-08T18:05:32.616Z,,0,3,,6111.234000095399,response,ISIC_5152859.JPG,5,ISIC_0504165.JPG,ISIC_5152859.JPG,false,1,keypress(m),500,1255334,1255333.9000000954,1249206,1249284.4000000954,1249222.666,1255267.672,8,400,23,,ISIC_0504165.JPG
break,html.Screen,4_122_1,2023-09-08T18:05:32.617Z,,0,,,NaN,,,,,,false,,,,1255334.4000000954,1255334.2999999523,,1255334.2000000477,,1255267.672,8,400,,,
break_continue,html.Screen,4_122_2,2023-09-08T18:05:32.617Z,,0,,,NaN,,,,,,false,,,,1255334.5,1255334.5,,1255334.5,,1255267.672,8,400,,,
sequence,flow.Sequence,4_122,2023-09-08T18:05:32.617Z,,0,,,6111.834000000032,completion,,,,,false,,,,1255334.600000143,1255334.5,1249206,1249284.4000000954,1249222.666,1255267.672,8,400,,,
trial,html.Screen,4_123_0,2023-09-08T18:05:38.299Z,,0,3,,5748.8279999999795,response,ISIC_6721869.JPG,5,ISIC_0046458.JPG,ISIC_6721869.JPG,false,1,keypress(m),500,1261016.600000143,1261016.5,1255251.036,1255334.7000000477,1255267.672,1260962.289,8,400,24,,ISIC_0046458.JPG
break,html.Screen,4_123_1,2023-09-08T18:05:38.299Z,,0,,,NaN,,,,,,false,,,,1261016.9000000954,1261016.7999999523,,1261016.7000000477,,1260962.289,8,400,,,
break_continue,html.Screen,4_123_2,2023-09-08T18:05:38.299Z,,0,,,NaN,,,,,,false,,,,1261017,1261017,,1261017,,1260962.289,8,400,,,
sequence,flow.Sequence,4_123,2023-09-08T18:05:38.299Z,,0,,,5749.3279999999795,completion,,,,,false,,,,1261017.100000143,1261017,1255251.036,1255334.600000143,1255267.672,1260962.289,8,400,,,
trial,html.Screen,4_124_0,2023-09-08T18:05:46.413Z,,0,3,,8168.311000142945,response,ISIC_0001596.JPG,5,ISIC_1453671.JPG,ISIC_0001596.JPG,false,1,keypress(m),500,1269130.7999999523,1269130.600000143,1260945.588,1261017.100000143,1260962.289,1269077.96,8,400,25,,ISIC_1453671.JPG
break,html.Screen,4_124_1,2023-09-08T18:05:46.414Z,,0,,,NaN,,,,,,false,,,,1269131.2999999523,1269131.100000143,,1269130.9000000954,,1269077.96,8,400,,,
break_continue,html.Screen,4_124_2,2023-09-08T18:05:46.414Z,,0,,,NaN,,,,,,false,,,,1269131.5,1269131.4000000954,,1269131.2999999523,,1269077.96,8,400,,,
sequence,flow.Sequence,4_124,2023-09-08T18:05:46.414Z,,0,,,8169.111000095261,completion,,,,,false,,,,1269131.600000143,1269131.4000000954,1260945.588,1261017.100000143,1260962.289,1269077.96,8,400,,,
trial,html.Screen,4_125_0,2023-09-08T18:05:53.953Z,,0,3,,7592.8399999523535,response,ISIC_5935362.JPG,6,ISIC_0008621.JPG,ISIC_5935362.JPG,false,1,keypress(m),500,1276671.100000143,1276670.7999999523,1269061.405,1269131.7000000477,1269077.96,1276609.317,8,400,26,,ISIC_0008621.JPG
break,html.Screen,4_125_1,2023-09-08T18:05:53.954Z,,0,,,NaN,,,,,,false,,,,1276671.7000000477,1276671.5,,1276671.2000000477,,1276609.317,8,400,,,
break_continue,html.Screen,4_125_2,2023-09-08T18:05:53.954Z,,0,,,NaN,,,,,,false,,,,1276672,1276672,,1276671.7999999523,,1276609.317,8,400,,,
sequence,flow.Sequence,4_125,2023-09-08T18:05:53.954Z,,0,,,7594.040000000037,completion,,,,,false,,,,1276672.2000000477,1276672,1269061.405,1269131.7000000477,1269077.96,1276609.317,8,400,,,
