sender,sender_type,sender_id,timestamp,meta,,blockNo,condition,duration,ended_on,img_left,img_reveal,img_right,loser,practice,response,response_action,selection_duration,time_commit,time_end,time_render,time_run,time_show,time_switch,total_blocks,total_trials,trialNo,url,winner
informed_consent,html.Screen,0,2023-09-08T19:48:52.966Z,"{""labjs_version"":""20.2.4"",""labjs_build"":{""flavor"":""development"",""commit"":""f5b4a49f956347addd546a832a3327688c2c0fef""},""location"":""https://labjs.felixhenninger.com/api/labjs_preview/index.html"",""userAgent"":""Mozilla/5.0 (Windows NT 10.0; Win64; x64) AppleWebKit/537.36 (KHTML, like Gecko) Chrome/116.0.0.0 Safari/537.36"",""platform"":""Win32"",""language"":""en-AU"",""locale"":""en-US"",""timeZone"":""America/Chicago"",""timezoneOffset"":300,""screen_width"":1680,""screen_height"":1050,""scroll_width"":1296,""scroll_height"":688,""window_innerWidth"":1296,""window_innerHeight"":736,""devicePixelRatio"":1}",,,,13029.440999952316,response,,,,,,consent,click button,,13628.799999952316,13620.299999952316,573.975,641.4000000953674,590.859,13565.951,,,,{},
Welcome,html.Screen,1,2023-09-08T19:48:54.310Z,,,,asymmetry,1406.3489999523172,response,,,,,,continue,click button,,14973.099999904633,14972.299999952316,13549.221,13629.099999904633,13565.951,14918.554,,,,,
trial,html.Screen,2_0_0,2023-09-08T19:49:05.809Z,,0,0,,11522.487000000001,timeout,ISIC_0069348.JPG,,ISIC_6997061.JPG,,true,,,500,26471.5,26471.299999952316,14901.896,14973.200000047684,14918.554,26441.041,1,6,1,,
sequence,flow.Sequence,2_0,2023-09-08T19:49:05.809Z,,0,,,11552.745999952316,completion,,,,,true,,,,26471.799999952316,26471.299999952316,14901.896,14973.200000047684,14918.554,26441.041,1,6,,,
trial,html.Screen,2_1_0,2023-09-08T19:49:15.250Z,,0,0,,9471.458999999999,response,ISIC_0057368.JPG,,ISIC_0009529.JPG,ISIC_0057368.JPG,true,1,keypress(m),500,35912.59999990463,35912.5,26424.37,26471.900000095367,26441.041,35859.395,1,6,2,,ISIC_0009529.JPG
sequence,flow.Sequence,2_1,2023-09-08T19:49:15.250Z,,0,,,9471.458999999999,completion,,,,,true,,,,35912.700000047684,35912.5,26424.37,26471.900000095367,26441.041,35859.395,1,6,,,
trial,html.Screen,2_2_0,2023-09-08T19:49:21.971Z,,0,0,,6774.605000000003,response,ISIC_0064954.JPG,,ISIC_9758671.JPG,ISIC_0064954.JPG,true,1,keypress(m),500,42634.200000047684,42634,35842.775,35912.90000009537,35859.395,42572.394,1,6,3,,ISIC_9758671.JPG
sequence,flow.Sequence,2_2,2023-09-08T19:49:21.972Z,,0,,,6774.605000000003,completion,,,,,true,,,,42634.299999952316,42634,35842.775,35912.799999952316,35859.395,42572.394,1,6,,,
trial,html.Screen,2_3_0,2023-09-08T19:49:24.886Z,,0,0,,2975.7059999046323,response,ISIC_0005785.JPG,,ISIC_0000080.JPG,ISIC_0000080.JPG,true,0,keypress(z),500,45548.200000047684,45548.09999990463,42555.754,42634.5,42572.394,45494.835,1,6,4,,ISIC_0005785.JPG
sequence,flow.Sequence,2_3,2023-09-08T19:49:24.886Z,,0,,,2975.7059999046323,completion,,,,,true,,,,45548.40000009537,45548.09999990463,42555.754,42634.40000009537,42572.394,45494.835,1,6,,,
trial,html.Screen,2_4_0,2023-09-08T19:49:28.167Z,,0,0,,3334.3650000476846,response,ISIC_7944028.JPG,,ISIC_5390060.JPG,ISIC_5390060.JPG,true,0,keypress(z),500,48829.40000009537,48829.200000047684,45478.014,45548.5,45494.835,48767.78,1,6,5,,ISIC_7944028.JPG
sequence,flow.Sequence,2_4,2023-09-08T19:49:28.167Z,,0,,,3334.3650000476846,completion,,,,,true,,,,48829.5,48829.200000047684,45478.014,45548.5,45494.835,48767.78,1,6,,,
trial,html.Screen,2_5_0,2023-09-08T19:49:32.282Z,,0,0,,4176.519999952317,response,ISIC_0794216.JPG,,ISIC_0010188.JPG,ISIC_0010188.JPG,true,0,keypress(z),500,52944.5,52944.299999952316,48751.191,48829.5,48767.78,52892.439,1,6,6,,ISIC_0794216.JPG
sequence,flow.Sequence,2_5,2023-09-08T19:49:32.282Z,,0,,,4176.519999952317,completion,,,,,true,,,,52944.799999952316,52944.299999952316,48751.191,48829.5,48767.78,52892.439,1,6,,,
loop,flow.Loop,2,2023-09-08T19:49:32.283Z,,,,,38025.74599995231,completion,,,,,true,,,,52945,52944.299999952316,14901.896,14973.200000047684,14918.554,52892.439,1,6,,,
exp_instructions,html.Screen,3,2023-09-08T19:49:40.922Z,,,,,8690.761000047685,response,,,,,,continue,keypress(Space),,61583.90000009537,61583.200000047684,52875.88,52945.09999990463,52892.439,61525.958,,,,,
trial,html.Screen,4_0_0,2023-09-08T19:49:45.390Z,,0,1,,4526.641999904634,response,ISIC_4518384.JPG,5,ISIC_6523645.JPG,ISIC_6523645.JPG,false,0,keypress(z),500,66052.70000004768,66052.59999990463,61509.238,61584.299999952316,61525.958,66001.332,8,400,1,,ISIC_4518384.JPG
break,html.Screen,4_0_1,2023-09-08T19:49:45.391Z,,0,,,NaN,,,,,,false,,,,66053.40000009537,66053.09999990463,,66052.90000009537,,66001.332,8,400,,,
break_continue,html.Screen,4_0_2,2023-09-08T19:49:45.391Z,,0,,,NaN,,,,,,false,,,,66053.79999995232,66053.59999990463,,66053.5,,66001.332,8,400,,,
sequence,flow.Sequence,4_0,2023-09-08T19:49:45.391Z,,0,,,4527.641999904634,completion,,,,,false,,,,66053.90000009537,66053.59999990463,61509.238,61584.200000047684,61525.958,66001.332,8,400,,,
trial,html.Screen,4_1_0,2023-09-08T19:49:50.691Z,,0,1,,5352.068000095373,response,ISIC_9699728.JPG,5,ISIC_1223648.JPG,ISIC_9699728.JPG,false,1,keypress(m),500,71353.59999990463,71353.40000009537,65984.644,66054,66001.332,71294.999,8,400,2,,ISIC_1223648.JPG
break,html.Screen,4_1_1,2023-09-08T19:49:50.691Z,,0,,,NaN,,,,,,false,,,,71353.90000009537,71353.79999995232,,71353.59999990463,,71294.999,8,400,,,
break_continue,html.Screen,4_1_2,2023-09-08T19:49:50.692Z,,0,,,NaN,,,,,,false,,,,71354,71354,,71353.90000009537,,71294.999,8,400,,,
sequence,flow.Sequence,4_1,2023-09-08T19:49:50.692Z,,0,,,5352.668000000005,completion,,,,,false,,,,71354.09999990463,71354,65984.644,66053.90000009537,66001.332,71294.999,8,400,,,
trial,html.Screen,4_2_0,2023-09-08T19:49:56.326Z,,0,1,,5693.100999904636,response,ISIC_0071733.JPG,5,ISIC_0394140.JPG,ISIC_0071733.JPG,false,1,keypress(m),500,76988.20000004768,76988.09999990463,71278.236,71354.20000004768,71294.999,76939.235,8,400,3,,ISIC_0394140.JPG
break,html.Screen,4_2_1,2023-09-08T19:49:56.326Z,,0,,,NaN,,,,,,false,,,,76988.40000009537,76988.40000009537,,76988.20000004768,,76939.235,8,400,,,
break_continue,html.Screen,4_2_2,2023-09-08T19:49:56.326Z,,0,,,NaN,,,,,,false,,,,76988.59999990463,76988.5,,76988.5,,76939.235,8,400,,,
sequence,flow.Sequence,4_2,2023-09-08T19:49:56.326Z,,0,,,5693.501000000004,completion,,,,,false,,,,76988.79999995232,76988.5,71278.236,71354.20000004768,71294.999,76939.235,8,400,,,
trial,html.Screen,4_3_0,2023-09-08T19:50:02.856Z,,0,1,,6579.364999904632,response,ISIC_5307210.JPG,5,ISIC_1110583.JPG,ISIC_1110583.JPG,false,0,keypress(z),500,83518.59999990463,83518.59999990463,76922.631,76988.79999995232,76939.235,83468.621,8,400,4,,ISIC_5307210.JPG
break,html.Screen,4_3_1,2023-09-08T19:50:02.857Z,,0,,,NaN,,,,,,false,,,,83518.90000009537,83518.90000009537,,83518.70000004768,,83468.621,8,400,,,
break_continue,html.Screen,4_3_2,2023-09-08T19:50:02.857Z,,0,,,NaN,,,,,,false,,,,83519.09999990463,83519,,83519,,83468.621,8,400,,,
sequence,flow.Sequence,4_3,2023-09-08T19:50:02.857Z,,0,,,6579.764999999999,completion,,,,,false,,,,83519.20000004768,83519,76922.631,76988.79999995232,76939.235,83468.621,8,400,,,
trial,html.Screen,4_4_0,2023-09-08T19:50:07.146Z,,0,1,,4339.5790000476845,response,ISIC_0053854.JPG,5,ISIC_0595080.JPG,ISIC_0595080.JPG,false,0,keypress(z),500,87808.40000009537,87808.20000004768,83452.01,83519.29999995232,83468.621,87760.488,8,400,5,,ISIC_0053854.JPG
break,html.Screen,4_4_1,2023-09-08T19:50:07.146Z,,0,,,NaN,,,,,,false,,,,87808.79999995232,87808.79999995232,,87808.5,,87760.488,8,400,,,
break_continue,html.Screen,4_4_2,2023-09-08T19:50:07.147Z,,0,,,NaN,,,,,,false,,,,87809.09999990463,87809,,87808.90000009537,,87760.488,8,400,,,
sequence,flow.Sequence,4_4,2023-09-08T19:50:07.147Z,,0,,,4340.379000000001,completion,,,,,false,,,,87809.90000009537,87809,83452.01,83519.20000004768,83468.621,87760.488,8,400,,,
trial,html.Screen,4_5_0,2023-09-08T19:50:13.932Z,,0,1,,6834.212000047686,response,ISIC_4105234.JPG,5,ISIC_8380904.JPG,ISIC_4105234.JPG,false,1,keypress(m),500,94594.90000009537,94594.70000004768,87743.633,87810,87760.488,94540.216,8,400,6,,ISIC_8380904.JPG
break,html.Screen,4_5_1,2023-09-08T19:50:13.933Z,,0,,,NaN,,,,,,false,,,,94595.20000004768,94595.09999990463,,94595,,94540.216,8,400,,,
break_continue,html.Screen,4_5_2,2023-09-08T19:50:13.933Z,,0,,,NaN,,,,,,false,,,,94595.70000004768,94595.59999990463,,94595.40000009537,,94540.216,8,400,,,
sequence,flow.Sequence,4_5,2023-09-08T19:50:13.933Z,,0,,,6835.111999904635,completion,,,,,false,,,,94595.70000004768,94595.59999990463,87743.633,87809.90000009537,87760.488,94540.216,8,400,,,
trial,html.Screen,4_6_0,2023-09-08T19:50:19.792Z,,0,1,,5913.984000047683,response,ISIC_5648111.JPG,5,ISIC_0069398.JPG,ISIC_5648111.JPG,false,1,keypress(m),500,100454.29999995232,100454.20000004768,94523.569,94595.90000009537,94540.216,100401.644,8,400,7,,ISIC_0069398.JPG
break,html.Screen,4_6_1,2023-09-08T19:50:19.792Z,,0,,,NaN,,,,,,false,,,,100454.59999990463,100454.59999990463,,100454.29999995232,,100401.644,8,400,,,
break_continue,html.Screen,4_6_2,2023-09-08T19:50:19.792Z,,0,,,NaN,,,,,,false,,,,100454.70000004768,100454.70000004768,,100454.70000004768,,100401.644,8,400,,,
sequence,flow.Sequence,4_6,2023-09-08T19:50:19.792Z,,0,,,5914.484000047683,completion,,,,,false,,,,100454.79999995232,100454.70000004768,94523.569,94595.79999995232,94540.216,100401.644,8,400,,,
trial,html.Screen,4_7_0,2023-09-08T19:50:28.371Z,,0,1,,8631.455999904632,response,ISIC_0011268.JPG,5,ISIC_0711360.JPG,ISIC_0711360.JPG,false,0,keypress(z),500,109033.29999995232,109033.09999990463,100384.878,100454.90000009537,100401.644,108984.958,8,400,8,,ISIC_0011268.JPG
break,html.Screen,4_7_1,2023-09-08T19:50:28.371Z,,0,,,NaN,,,,,,false,,,,109033.90000009537,109033.79999995232,,109033.5,,108984.958,8,400,,,
break_continue,html.Screen,4_7_2,2023-09-08T19:50:28.372Z,,0,,,NaN,,,,,,false,,,,109034.29999995232,109034.09999990463,,109034.09999990463,,108984.958,8,400,,,
sequence,flow.Sequence,4_7,2023-09-08T19:50:28.372Z,,0,,,8632.455999904632,completion,,,,,false,,,,109034.40000009537,109034.09999990463,100384.878,100454.90000009537,100401.644,108984.958,8,400,,,
trial,html.Screen,4_8_0,2023-09-08T19:50:34.662Z,,0,1,,6339.641999904634,response,ISIC_0071892.JPG,5,ISIC_0071180.JPG,ISIC_0071180.JPG,false,0,keypress(z),500,115324.70000004768,115324.59999990463,108968.277,109034.59999990463,108984.958,115263.851,8,400,9,,ISIC_0071892.JPG
break,html.Screen,4_8_1,2023-09-08T19:50:34.663Z,,0,,,NaN,,,,,,false,,,,115325.09999990463,115324.90000009537,,115324.79999995232,,115263.851,8,400,,,
break_continue,html.Screen,4_8_2,2023-09-08T19:50:34.663Z,,0,,,NaN,,,,,,false,,,,115325.29999995232,115325.20000004768,,115325.20000004768,,115263.851,8,400,,,
sequence,flow.Sequence,4_8,2023-09-08T19:50:34.663Z,,0,,,6340.242000047685,completion,,,,,false,,,,115325.29999995232,115325.20000004768,108968.277,109034.5,108984.958,115263.851,8,400,,,
trial,html.Screen,4_9_0,2023-09-08T19:50:40.073Z,,0,1,,5471.7489999046375,response,ISIC_0033957.JPG,6,ISIC_0026113.JPG,ISIC_0026113.JPG,false,0,keypress(z),500,120735.70000004768,120735.59999990463,115247.423,115325.29999995232,115263.851,120674.384,8,400,10,,ISIC_0033957.JPG
break,html.Screen,4_9_1,2023-09-08T19:50:40.074Z,,0,,,NaN,,,,,,false,,,,120736.20000004768,120736,,120735.79999995232,,120674.384,8,400,,,
break_continue,html.Screen,4_9_2,2023-09-08T19:50:40.074Z,,0,,,NaN,,,,,,false,,,,120736.40000009537,120736.29999995232,,120736.20000004768,,120674.384,8,400,,,
sequence,flow.Sequence,4_9,2023-09-08T19:50:40.074Z,,0,,,5472.448999952321,completion,,,,,false,,,,120736.5,120736.29999995232,115247.423,115325.29999995232,115263.851,120674.384,8,400,,,
trial,html.Screen,4_10_0,2023-09-08T19:50:46.796Z,,0,1,,6783.415999952311,response,ISIC_0033324.JPG,5,ISIC_5301938.JPG,ISIC_5301938.JPG,false,0,keypress(z),500,127457.90000009537,127457.79999995232,120657.745,120736.5,120674.384,127404.198,8,400,11,,ISIC_0033324.JPG
break,html.Screen,4_10_1,2023-09-08T19:50:46.796Z,,0,,,NaN,,,,,,false,,,,127458.20000004768,127458.09999990463,,127457.90000009537,,127404.198,8,400,,,
break_continue,html.Screen,4_10_2,2023-09-08T19:50:46.796Z,,0,,,NaN,,,,,,false,,,,127458.29999995232,127458.29999995232,,127458.20000004768,,127404.198,8,400,,,
sequence,flow.Sequence,4_10,2023-09-08T19:50:46.796Z,,0,,,6783.915999952311,completion,,,,,false,,,,127458.29999995232,127458.29999995232,120657.745,120736.5,120674.384,127404.198,8,400,,,
trial,html.Screen,4_11_0,2023-09-08T19:50:53.954Z,,0,1,,7212.50200004768,response,ISIC_3198731.JPG,5,ISIC_0325771.JPG,ISIC_3198731.JPG,false,1,keypress(m),500,134616.79999995232,134616.70000004768,127387.445,127458.40000009537,127404.198,134568.057,8,400,12,,ISIC_0325771.JPG
break,html.Screen,4_11_1,2023-09-08T19:50:53.955Z,,0,,,NaN,,,,,,false,,,,134617.09999990463,134617,,134616.90000009537,,134568.057,8,400,,,
break_continue,html.Screen,4_11_2,2023-09-08T19:50:53.955Z,,0,,,NaN,,,,,,false,,,,134617.29999995232,134617.20000004768,,134617.20000004768,,134568.057,8,400,,,
sequence,flow.Sequence,4_11,2023-09-08T19:50:53.955Z,,0,,,7213.00200004768,completion,,,,,false,,,,134617.29999995232,134617.20000004768,127387.445,127458.40000009537,127404.198,134568.057,8,400,,,
trial,html.Screen,4_12_0,2023-09-08T19:50:59.925Z,,0,1,,6018.742999952316,response,ISIC_0033304.JPG,6,ISIC_1569775.JPG,ISIC_1569775.JPG,false,0,keypress(z),500,140586.90000009537,140586.79999995232,134551.381,134617.40000009537,134568.057,140529.677,8,400,13,,ISIC_0033304.JPG
break,html.Screen,4_12_1,2023-09-08T19:50:59.925Z,,0,,,NaN,,,,,,false,,,,140587.20000004768,140587.20000004768,,140587,,140529.677,8,400,,,
break_continue,html.Screen,4_12_2,2023-09-08T19:50:59.925Z,,0,,,NaN,,,,,,false,,,,140587.40000009537,140587.40000009537,,140587.29999995232,,140529.677,8,400,,,
sequence,flow.Sequence,4_12,2023-09-08T19:50:59.925Z,,0,,,6019.343000095367,completion,,,,,false,,,,140587.5,140587.40000009537,134551.381,134617.29999995232,134568.057,140529.677,8,400,,,
trial,html.Screen,4_13_0,2023-09-08T19:51:05.883Z,,0,1,,6014.9229999046365,response,ISIC_0347984.JPG,4,ISIC_4438786.JPG,ISIC_4438786.JPG,false,0,keypress(z),500,146544.79999995232,146544.59999990463,140513.061,140587.5,140529.677,146491.241,8,400,14,,ISIC_0347984.JPG
break,html.Screen,4_13_1,2023-09-08T19:51:05.883Z,,0,,,NaN,,,,,,false,,,,146545.29999995232,146545.20000004768,,146545,,146491.241,8,400,,,
break_continue,html.Screen,4_13_2,2023-09-08T19:51:05.883Z,,0,,,NaN,,,,,,false,,,,146545.5,146545.40000009537,,146545.29999995232,,146491.241,8,400,,,
sequence,flow.Sequence,4_13,2023-09-08T19:51:05.883Z,,0,,,6015.723000095371,completion,,,,,false,,,,146545.5,146545.40000009537,140513.061,140587.5,140529.677,146491.241,8,400,,,
trial,html.Screen,4_14_0,2023-09-08T19:51:11.726Z,,0,1,,5896.459000047675,response,ISIC_0009960.JPG,5,ISIC_6444989.JPG,ISIC_6444989.JPG,false,0,keypress(z),500,152387.79999995232,152387.70000004768,146474.527,146545.70000004768,146491.241,152335.993,8,400,15,,ISIC_0009960.JPG
break,html.Screen,4_14_1,2023-09-08T19:51:11.726Z,,0,,,NaN,,,,,,false,,,,152388.09999990463,152388.09999990463,,152387.90000009537,,152335.993,8,400,,,
break_continue,html.Screen,4_14_2,2023-09-08T19:51:11.726Z,,0,,,NaN,,,,,,false,,,,152388.29999995232,152388.29999995232,,152388.20000004768,,152335.993,8,400,,,
sequence,flow.Sequence,4_14,2023-09-08T19:51:11.726Z,,0,,,5897.058999952307,completion,,,,,false,,,,152388.40000009537,152388.29999995232,146474.527,146545.59999990463,146491.241,152335.993,8,400,,,
trial,html.Screen,4_15_0,2023-09-08T19:51:17.665Z,,0,1,,5990.707000047696,response,ISIC_0000507.JPG,6,ISIC_0005655.JPG,ISIC_0005655.JPG,false,0,keypress(z),500,158326.90000009537,158326.70000004768,152319.371,152388.5,152335.993,158280.915,8,400,16,,ISIC_0000507.JPG
break,html.Screen,4_15_1,2023-09-08T19:51:17.665Z,,0,,,NaN,,,,,,false,,,,158327.5,158327.29999995232,,158327.09999990463,,158280.915,8,400,,,
break_continue,html.Screen,4_15_2,2023-09-08T19:51:17.666Z,,0,,,NaN,,,,,,false,,,,158327.79999995232,158327.59999990463,,158327.5,,158280.915,8,400,,,
sequence,flow.Sequence,4_15,2023-09-08T19:51:17.666Z,,0,,,5991.606999904645,completion,,,,,false,,,,158327.90000009537,158327.59999990463,152319.371,152388.40000009537,152335.993,158280.915,8,400,,,
trial,html.Screen,4_16_0,2023-09-08T19:51:23.987Z,,0,1,,6368.684999904624,response,ISIC_8065001.JPG,5,ISIC_0028176.JPG,ISIC_8065001.JPG,false,1,keypress(m),500,164649.70000004768,164649.59999990463,158264.12,158328,158280.915,164593.143,8,400,17,,ISIC_0028176.JPG
break,html.Screen,4_16_1,2023-09-08T19:51:23.988Z,,0,,,NaN,,,,,,false,,,,164650,164650,,164649.79999995232,,164593.143,8,400,,,
break_continue,html.Screen,4_16_2,2023-09-08T19:51:23.988Z,,0,,,NaN,,,,,,false,,,,164650.20000004768,164650.09999990463,,164650,,164593.143,8,400,,,
sequence,flow.Sequence,4_16,2023-09-08T19:51:23.988Z,,0,,,6369.184999904624,completion,,,,,false,,,,164650.20000004768,164650.09999990463,158264.12,158327.90000009537,158280.915,164593.143,8,400,,,
trial,html.Screen,4_17_0,2023-09-08T19:51:29.272Z,,0,1,,5341.057000047673,response,ISIC_2050512.JPG,5,ISIC_0028135.JPG,ISIC_0028135.JPG,false,0,keypress(z),500,169934.40000009537,169934.20000004768,164576.41,164650.29999995232,164593.143,169886.792,8,400,18,,ISIC_2050512.JPG
break,html.Screen,4_17_1,2023-09-08T19:51:29.273Z,,0,,,NaN,,,,,,false,,,,169934.79999995232,169934.70000004768,,169934.59999990463,,169886.792,8,400,,,
break_continue,html.Screen,4_17_2,2023-09-08T19:51:29.273Z,,0,,,NaN,,,,,,false,,,,169935.29999995232,169935.09999990463,,169935,,169886.792,8,400,,,
sequence,flow.Sequence,4_17,2023-09-08T19:51:29.273Z,,0,,,5341.956999904622,completion,,,,,false,,,,169935.40000009537,169935.09999990463,164576.41,164650.29999995232,164593.143,169886.792,8,400,,,
trial,html.Screen,4_18_0,2023-09-08T19:51:36.092Z,,0,1,,6866.807999904646,response,ISIC_0068610.JPG,5,ISIC_1002979.JPG,ISIC_1002979.JPG,false,0,keypress(z),500,176753.79999995232,176753.59999990463,169870.261,169935.5,169886.792,176700.102,8,400,19,,ISIC_0068610.JPG
break,html.Screen,4_18_1,2023-09-08T19:51:36.092Z,,0,,,NaN,,,,,,false,,,,176754.40000009537,176754.20000004768,,176754,,176700.102,8,400,,,
break_continue,html.Screen,4_18_2,2023-09-08T19:51:36.093Z,,0,,,NaN,,,,,,false,,,,176754.70000004768,176754.59999990463,,176754.5,,176700.102,8,400,,,
sequence,flow.Sequence,4_18,2023-09-08T19:51:36.093Z,,0,,,6867.807999904646,completion,,,,,false,,,,176754.79999995232,176754.59999990463,169870.261,169935.5,169886.792,176700.102,8,400,,,
trial,html.Screen,4_19_0,2023-09-08T19:51:43.983Z,,0,1,,7944.8979999999865,response,ISIC_9087221.JPG,6,ISIC_6685513.JPG,ISIC_9087221.JPG,false,1,keypress(m),500,184645,184645,176683.425,176755,176700.102,184615.463,8,400,20,,ISIC_6685513.JPG
break,html.Screen,4_19_1,2023-09-08T19:51:43.984Z,,0,,,NaN,,,,,,false,,,,184645.59999990463,184645.5,,184645.20000004768,,184615.463,8,400,,,
break_continue,html.Screen,4_19_2,2023-09-08T19:51:43.984Z,,0,,,NaN,,,,,,false,,,,184645.90000009537,184645.90000009537,,184645.79999995232,,184615.463,8,400,,,
sequence,flow.Sequence,4_19,2023-09-08T19:51:43.984Z,,0,,,7945.798000095354,completion,,,,,false,,,,184646.09999990463,184645.90000009537,176683.425,176754.90000009537,176700.102,184615.463,8,400,,,
trial,html.Screen,4_20_0,2023-09-08T19:51:51.330Z,,0,1,,7376.636999904644,response,ISIC_0004848.JPG,6,ISIC_0016139.JPG,ISIC_0004848.JPG,false,1,keypress(m),500,191992.29999995232,191992.09999990463,184598.799,184646.20000004768,184615.463,191929.644,8,400,21,,ISIC_0016139.JPG
break,html.Screen,4_20_1,2023-09-08T19:51:51.331Z,,0,,,NaN,,,,,,false,,,,191992.59999990463,191992.5,,191992.40000009537,,191929.644,8,400,,,
break_continue,html.Screen,4_20_2,2023-09-08T19:51:51.331Z,,0,,,NaN,,,,,,false,,,,191992.70000004768,191992.70000004768,,191992.59999990463,,191929.644,8,400,,,
sequence,flow.Sequence,4_20,2023-09-08T19:51:51.331Z,,0,,,7377.237000047695,completion,,,,,false,,,,191992.90000009537,191992.70000004768,184598.799,184646.09999990463,184615.463,191929.644,8,400,,,
trial,html.Screen,4_21_0,2023-09-08T19:51:57.812Z,,0,1,,6544.455999904632,response,ISIC_0032701.JPG,5,ISIC_0024285.JPG,ISIC_0032701.JPG,false,1,keypress(m),500,198474.40000009537,198474.09999990463,191912.984,191993,191929.644,198425.704,8,400,22,,ISIC_0024285.JPG
break,html.Screen,4_21_1,2023-09-08T19:51:57.813Z,,0,,,NaN,,,,,,false,,,,198475.40000009537,198475.09999990463,,198474.79999995232,,198425.704,8,400,,,
break_continue,html.Screen,4_21_2,2023-09-08T19:51:57.814Z,,0,,,NaN,,,,,,false,,,,198475.70000004768,198475.70000004768,,198475.59999990463,,198425.704,8,400,,,
sequence,flow.Sequence,4_21,2023-09-08T19:51:57.814Z,,0,,,6546.0560000476835,completion,,,,,false,,,,198476,198475.70000004768,191912.984,191993,191929.644,198425.704,8,400,,,
trial,html.Screen,4_22_0,2023-09-08T19:52:03.544Z,,0,1,,5780.1960000953695,response,ISIC_4097868.JPG,5,ISIC_5659295.JPG,ISIC_4097868.JPG,false,1,keypress(m),500,204206,204205.90000009537,198409.165,198476.09999990463,198425.704,204153.443,8,400,23,,ISIC_5659295.JPG
break,html.Screen,4_22_1,2023-09-08T19:52:03.544Z,,0,,,NaN,,,,,,false,,,,204206.29999995232,204206.29999995232,,204206.09999990463,,204153.443,8,400,,,
break_continue,html.Screen,4_22_2,2023-09-08T19:52:03.544Z,,0,,,NaN,,,,,,false,,,,204206.5,204206.5,,204206.40000009537,,204153.443,8,400,,,
sequence,flow.Sequence,4_22,2023-09-08T19:52:03.545Z,,0,,,5780.796000000002,completion,,,,,false,,,,204206.5,204206.5,198409.165,198476,198425.704,204153.443,8,400,,,
trial,html.Screen,4_23_0,2023-09-08T19:52:10.570Z,,0,1,,7077.957000095368,response,ISIC_3787504.JPG,6,ISIC_0029874.JPG,ISIC_0029874.JPG,false,0,keypress(z),500,211231.59999990463,211231.40000009537,204136.937,204206.59999990463,204153.443,211183.958,8,400,24,,ISIC_3787504.JPG
break,html.Screen,4_23_1,2023-09-08T19:52:10.570Z,,0,,,NaN,,,,,,false,,,,211232,211231.90000009537,,211231.70000004768,,211183.958,8,400,,,
break_continue,html.Screen,4_23_2,2023-09-08T19:52:10.570Z,,0,,,NaN,,,,,,false,,,,211232.09999990463,211232.09999990463,,211232,,211183.958,8,400,,,
sequence,flow.Sequence,4_23,2023-09-08T19:52:10.570Z,,0,,,7078.656999904633,completion,,,,,false,,,,211232.09999990463,211232.09999990463,204136.937,204206.5,204153.443,211183.958,8,400,,,
trial,html.Screen,4_24_0,2023-09-08T19:52:16.876Z,,0,1,,6353.541999999987,response,ISIC_0063180.JPG,4,ISIC_0010883.JPG,ISIC_0010883.JPG,false,0,keypress(z),500,217537.70000004768,217537.5,211167.125,211232.20000004768,211183.958,217479.421,8,400,25,,ISIC_0063180.JPG
break,html.Screen,4_24_1,2023-09-08T19:52:16.876Z,,0,,,NaN,,,,,,false,,,,217538.09999990463,217538,,217537.90000009537,,217479.421,8,400,,,
break_continue,html.Screen,4_24_2,2023-09-08T19:52:16.876Z,,0,,,NaN,,,,,,false,,,,217538.40000009537,217538.29999995232,,217538.29999995232,,217479.421,8,400,,,
sequence,flow.Sequence,4_24,2023-09-08T19:52:16.877Z,,0,,,6354.341999952303,completion,,,,,false,,,,217538.5,217538.29999995232,211167.125,211232.20000004768,211183.958,217479.421,8,400,,,
trial,html.Screen,4_25_0,2023-09-08T19:52:23.519Z,,0,1,,6701.279000047682,response,ISIC_7759913.JPG,5,ISIC_0011350.JPG,ISIC_7759913.JPG,false,1,keypress(m),500,224180.90000009537,224180.70000004768,217462.926,217538.70000004768,217479.421,224125.843,8,400,26,,ISIC_0011350.JPG
break,html.Screen,4_25_1,2023-09-08T19:52:23.520Z,,0,,,NaN,,,,,,false,,,,224181.59999990463,224181.40000009537,,224181.09999990463,,224125.843,8,400,,,
break_continue,html.Screen,4_25_2,2023-09-08T19:52:23.520Z,,0,,,NaN,,,,,,false,,,,224181.79999995232,224181.79999995232,,224181.70000004768,,224125.843,8,400,,,
sequence,flow.Sequence,4_25,2023-09-08T19:52:23.520Z,,0,,,6702.378999952314,completion,,,,,false,,,,224182.09999990463,224181.79999995232,217462.926,217538.59999990463,217479.421,224125.843,8,400,,,
trial,html.Screen,4_26_0,2023-09-08T19:52:28.742Z,,0,1,,5277.6570000000065,response,ISIC_5108076.JPG,5,ISIC_2631789.JPG,ISIC_5108076.JPG,false,1,keypress(m),500,229403.70000004768,229403.5,224109.041,224182.09999990463,224125.843,229352.602,8,400,27,,ISIC_2631789.JPG
break,html.Screen,4_26_1,2023-09-08T19:52:28.742Z,,0,,,NaN,,,,,,false,,,,229404.09999990463,229404,,229403.79999995232,,229352.602,8,400,,,
break_continue,html.Screen,4_26_2,2023-09-08T19:52:28.742Z,,0,,,NaN,,,,,,false,,,,229404.40000009537,229404.29999995232,,229404.20000004768,,229352.602,8,400,,,
sequence,flow.Sequence,4_26,2023-09-08T19:52:28.743Z,,0,,,5278.456999952323,completion,,,,,false,,,,229404.5,229404.29999995232,224109.041,224182.09999990463,224125.843,229352.602,8,400,,,
trial,html.Screen,4_27_0,2023-09-08T19:52:35.226Z,,0,1,,6535.59800004767,response,ISIC_0033644.JPG,5,ISIC_5325805.JPG,ISIC_5325805.JPG,false,0,keypress(z),500,235888.29999995232,235888.20000004768,229335.923,229405.20000004768,229352.602,235831.868,8,400,28,,ISIC_0033644.JPG
break,html.Screen,4_27_1,2023-09-08T19:52:35.227Z,,0,,,NaN,,,,,,false,,,,235888.70000004768,235888.59999990463,,235888.5,,235831.868,8,400,,,
break_continue,html.Screen,4_27_2,2023-09-08T19:52:35.227Z,,0,,,NaN,,,,,,false,,,,235889,235888.90000009537,,235888.79999995232,,235831.868,8,400,,,
sequence,flow.Sequence,4_27,2023-09-08T19:52:35.227Z,,0,,,6536.298000095354,completion,,,,,false,,,,235889.09999990463,235888.90000009537,229335.923,229405.20000004768,229352.602,235831.868,8,400,,,
trial,html.Screen,4_28_0,2023-09-08T19:52:41.473Z,,0,1,,6303.03200009538,response,ISIC_0029571.JPG,5,ISIC_0029815.JPG,ISIC_0029571.JPG,false,1,keypress(m),500,242135,242134.90000009537,235815.075,235889.20000004768,235831.868,242077.265,8,400,29,,ISIC_0029815.JPG
break,html.Screen,4_28_1,2023-09-08T19:52:41.473Z,,0,,,NaN,,,,,,false,,,,242135.29999995232,242135.20000004768,,242135,,242077.265,8,400,,,
break_continue,html.Screen,4_28_2,2023-09-08T19:52:41.474Z,,0,,,NaN,,,,,,false,,,,242135.40000009537,242135.40000009537,,242135.29999995232,,242077.265,8,400,,,
sequence,flow.Sequence,4_28,2023-09-08T19:52:41.474Z,,0,,,6303.53200009538,completion,,,,,false,,,,242135.5,242135.40000009537,235815.075,235889.09999990463,235831.868,242077.265,8,400,,,
trial,html.Screen,4_29_0,2023-09-08T19:52:48.026Z,,0,1,,6610.334999904619,response,ISIC_5296963.JPG,6,ISIC_2523776.JPG,ISIC_2523776.JPG,false,0,keypress(z),500,248687.90000009537,248687.59999990463,242060.669,242135.5,242077.265,248640.202,8,400,30,,ISIC_5296963.JPG
break,html.Screen,4_29_1,2023-09-08T19:52:48.027Z,,0,,,NaN,,,,,,false,,,,248688.59999990463,248688.40000009537,,248688.09999990463,,248640.202,8,400,,,
break_continue,html.Screen,4_29_2,2023-09-08T19:52:48.027Z,,0,,,NaN,,,,,,false,,,,248688.90000009537,248688.79999995232,,248688.70000004768,,248640.202,8,400,,,
sequence,flow.Sequence,4_29,2023-09-08T19:52:48.027Z,,0,,,6611.534999952302,completion,,,,,false,,,,248689.09999990463,248688.79999995232,242060.669,242135.5,242077.265,248640.202,8,400,,,
trial,html.Screen,4_30_0,2023-09-08T19:52:53.006Z,,0,1,,5027.4980000476935,response,ISIC_0054728.JPG,4,ISIC_2161864.JPG,ISIC_2161864.JPG,false,0,keypress(z),500,253667.90000009537,253667.70000004768,248623.484,248689.20000004768,248640.202,253616.496,8,400,31,,ISIC_0054728.JPG
break,html.Screen,4_30_1,2023-09-08T19:52:53.006Z,,0,,,NaN,,,,,,false,,,,253668.20000004768,253668.09999990463,,253667.90000009537,,253616.496,8,400,,,
break_continue,html.Screen,4_30_2,2023-09-08T19:52:53.007Z,,0,,,NaN,,,,,,false,,,,253668.29999995232,253668.29999995232,,253668.20000004768,,253616.496,8,400,,,
sequence,flow.Sequence,4_30,2023-09-08T19:52:53.007Z,,0,,,5028.097999952326,completion,,,,,false,,,,253668.40000009537,253668.29999995232,248623.484,248689.20000004768,248640.202,253616.496,8,400,,,
trial,html.Screen,4_31_0,2023-09-08T19:53:00.640Z,,0,1,,7685.303999952303,response,ISIC_2577938.JPG,4,ISIC_0013908.JPG,ISIC_2577938.JPG,false,1,keypress(m),500,261302,261301.79999995232,253599.767,253668.40000009537,253616.496,261247.926,8,400,32,,ISIC_0013908.JPG
break,html.Screen,4_31_1,2023-09-08T19:53:00.640Z,,0,,,NaN,,,,,,false,,,,261302.29999995232,261302.20000004768,,261302,,261247.926,8,400,,,
break_continue,html.Screen,4_31_2,2023-09-08T19:53:00.641Z,,0,,,NaN,,,,,,false,,,,261302.40000009537,261302.40000009537,,261302.29999995232,,261247.926,8,400,,,
sequence,flow.Sequence,4_31,2023-09-08T19:53:00.641Z,,0,,,7685.904000095354,completion,,,,,false,,,,261302.5,261302.40000009537,253599.767,253668.40000009537,253616.496,261247.926,8,400,,,
trial,html.Screen,4_32_0,2023-09-08T19:53:05.473Z,,0,1,,4887.173999904626,response,ISIC_4274519.JPG,5,ISIC_7339533.JPG,ISIC_4274519.JPG,false,1,keypress(m),500,266135.2000000477,266135.09999990463,261231.294,261302.5,261247.926,266073.986,8,400,33,,ISIC_7339533.JPG
break,html.Screen,4_32_1,2023-09-08T19:53:05.474Z,,0,,,NaN,,,,,,false,,,,266135.5,266135.5,,266135.40000009537,,266073.986,8,400,,,
break_continue,html.Screen,4_32_2,2023-09-08T19:53:05.474Z,,0,,,NaN,,,,,,false,,,,266135.7000000477,266135.7000000477,,266135.59999990463,,266073.986,8,400,,,
sequence,flow.Sequence,4_32,2023-09-08T19:53:05.474Z,,0,,,4887.774000047677,completion,,,,,false,,,,266135.7999999523,266135.7000000477,261231.294,261302.5,261247.926,266073.986,8,400,,,
trial,html.Screen,4_33_0,2023-09-08T19:53:12.088Z,,0,1,,6676.014000000025,response,ISIC_0046683.JPG,6,ISIC_0028069.JPG,ISIC_0028069.JPG,false,0,keypress(z),500,272750.09999990463,272750,266057.286,266135.7999999523,266073.986,272703.677,8,400,34,,ISIC_0046683.JPG
break,html.Screen,4_33_1,2023-09-08T19:53:12.089Z,,0,,,NaN,,,,,,false,,,,272750.90000009537,272750.7000000477,,272750.40000009537,,272703.677,8,400,,,
break_continue,html.Screen,4_33_2,2023-09-08T19:53:12.089Z,,0,,,NaN,,,,,,false,,,,272751.09999990463,272751.09999990463,,272751.09999990463,,272703.677,8,400,,,
sequence,flow.Sequence,4_33,2023-09-08T19:53:12.089Z,,0,,,6677.113999904657,completion,,,,,false,,,,272751.2000000477,272751.09999990463,266057.286,266135.7999999523,266073.986,272703.677,8,400,,,
trial,html.Screen,4_34_0,2023-09-08T19:53:17.691Z,,0,1,,5648.723000095342,response,ISIC_0432236.JPG,5,ISIC_0008251.JPG,ISIC_0008251.JPG,false,0,keypress(z),500,278352.7000000477,278352.40000009537,272687.014,272751.2999999523,272703.677,278297.789,8,400,35,,ISIC_0432236.JPG
break,html.Screen,4_34_1,2023-09-08T19:53:17.692Z,,0,,,NaN,,,,,,false,,,,278353.59999990463,278353.40000009537,,278353.09999990463,,278297.789,8,400,,,
break_continue,html.Screen,4_34_2,2023-09-08T19:53:17.692Z,,0,,,NaN,,,,,,false,,,,278354,278353.7999999523,,278353.7999999523,,278297.789,8,400,,,
sequence,flow.Sequence,4_34,2023-09-08T19:53:17.692Z,,0,,,5650.122999952291,completion,,,,,false,,,,278354.09999990463,278353.7999999523,272687.014,272751.2000000477,272703.677,278297.789,8,400,,,
trial,html.Screen,4_35_0,2023-09-08T19:53:23.504Z,,0,1,,5867.911000047694,response,ISIC_5504560.JPG,6,ISIC_0010757.JPG,ISIC_5504560.JPG,false,1,keypress(m),500,284166,284165.7000000477,278281.088,278354.2999999523,278297.789,284109.133,8,400,36,,ISIC_0010757.JPG
break,html.Screen,4_35_1,2023-09-08T19:53:23.505Z,,0,,,NaN,,,,,,false,,,,284167,284166.7999999523,,284166.2999999523,,284109.133,8,400,,,
break_continue,html.Screen,4_35_2,2023-09-08T19:53:23.506Z,,0,,,NaN,,,,,,false,,,,284167.59999990463,284167.40000009537,,284167.2999999523,,284109.133,8,400,,,
sequence,flow.Sequence,4_35,2023-09-08T19:53:23.506Z,,0,,,5869.611000095378,completion,,,,,false,,,,284167.90000009537,284167.40000009537,278281.088,278354.2000000477,278297.789,284109.133,8,400,,,
trial,html.Screen,4_36_0,2023-09-08T19:53:29.749Z,,0,1,,6301.267000095395,response,ISIC_6334958.JPG,5,ISIC_0028501.JPG,ISIC_6334958.JPG,false,1,keypress(m),500,290410.7000000477,290410.40000009537,284092.392,284168.09999990463,284109.133,290354.601,8,400,37,,ISIC_0028501.JPG
break,html.Screen,4_36_1,2023-09-08T19:53:29.750Z,,0,,,NaN,,,,,,false,,,,290412,290411.7000000477,,290411.09999990463,,290354.601,8,400,,,
break_continue,html.Screen,4_36_2,2023-09-08T19:53:29.751Z,,0,,,NaN,,,,,,false,,,,290412.7000000477,290412.40000009537,,290412.2999999523,,290354.601,8,400,,,
sequence,flow.Sequence,4_36,2023-09-08T19:53:29.751Z,,0,,,6303.267000095395,completion,,,,,false,,,,290413,290412.40000009537,284092.392,284168,284109.133,290354.601,8,400,,,
trial,html.Screen,4_37_0,2023-09-08T19:53:36.633Z,,0,1,,6939.998999904608,response,ISIC_3837132.JPG,6,ISIC_0026921.JPG,ISIC_3837132.JPG,false,1,keypress(m),500,297294.7999999523,297294.59999990463,290338.046,290413.2000000477,290354.601,297234.584,8,400,38,,ISIC_0026921.JPG
break,html.Screen,4_37_1,2023-09-08T19:53:36.634Z,,0,,,NaN,,,,,,false,,,,297295.09999990463,297295,,297294.90000009537,,297234.584,8,400,,,
break_continue,html.Screen,4_37_2,2023-09-08T19:53:36.634Z,,0,,,NaN,,,,,,false,,,,297295.2000000477,297295.2000000477,,297295.2000000477,,297234.584,8,400,,,
sequence,flow.Sequence,4_37,2023-09-08T19:53:36.634Z,,0,,,6940.5990000476595,completion,,,,,false,,,,297295.2999999523,297295.2000000477,290338.046,290413.2000000477,290354.601,297234.584,8,400,,,
trial,html.Screen,4_38_0,2023-09-08T19:53:44.321Z,,0,1,,7747.816000095394,response,ISIC_0033905.JPG,5,ISIC_0000186.JPG,ISIC_0000186.JPG,false,0,keypress(z),500,304982.7999999523,304982.40000009537,297218.048,297295.40000009537,297234.584,304933.129,8,400,39,,ISIC_0033905.JPG
break,html.Screen,4_38_1,2023-09-08T19:53:44.322Z,,0,,,NaN,,,,,,false,,,,304983.7000000477,304983.40000009537,,304983,,304933.129,8,400,,,
break_continue,html.Screen,4_38_2,2023-09-08T19:53:44.323Z,,0,,,NaN,,,,,,false,,,,304984.2000000477,304984,,304983.90000009537,,304933.129,8,400,,,
sequence,flow.Sequence,4_38,2023-09-08T19:53:44.323Z,,0,,,7749.4160000000265,completion,,,,,false,,,,304984.40000009537,304984,297218.048,297295.40000009537,297234.584,304933.129,8,400,,,
trial,html.Screen,4_39_0,2023-09-08T19:53:49.018Z,,0,1,,4746.670999952301,response,ISIC_0033807.JPG,5,ISIC_8234773.JPG,ISIC_0033807.JPG,false,1,keypress(m),500,309679.7999999523,309679.7999999523,304916.406,304984.59999990463,304933.129,309625.447,8,400,40,,ISIC_8234773.JPG
break,html.Screen,4_39_1,2023-09-08T19:53:49.019Z,,0,,,NaN,,,,,,false,,,,309680.2000000477,309680.09999990463,,309679.90000009537,,309625.447,8,400,,,
break_continue,html.Screen,4_39_2,2023-09-08T19:53:49.019Z,,0,,,NaN,,,,,,false,,,,309680.2999999523,309680.2000000477,,309680.2000000477,,309625.447,8,400,,,
sequence,flow.Sequence,4_39,2023-09-08T19:53:49.019Z,,0,,,4747.071000047668,completion,,,,,false,,,,309680.40000009537,309680.2000000477,304916.406,304984.5,304933.129,309625.447,8,400,,,
trial,html.Screen,4_40_0,2023-09-08T19:53:56.387Z,,0,1,,7422.652999904647,response,ISIC_7620514.JPG,6,ISIC_3356776.JPG,ISIC_3356776.JPG,false,0,keypress(z),500,317048.2999999523,317048.09999990463,309608.864,309680.40000009537,309625.447,316989.749,8,400,41,,ISIC_7620514.JPG
break,html.Screen,4_40_1,2023-09-08T19:53:56.387Z,,0,,,NaN,,,,,,false,,,,317048.7000000477,317048.59999990463,,317048.40000009537,,316989.749,8,400,,,
break_continue,html.Screen,4_40_2,2023-09-08T19:53:56.387Z,,0,,,NaN,,,,,,false,,,,317048.90000009537,317048.90000009537,,317048.7999999523,,316989.749,8,400,,,
sequence,flow.Sequence,4_40,2023-09-08T19:53:56.387Z,,0,,,7423.453000095382,completion,,,,,false,,,,317049,317048.90000009537,309608.864,309680.40000009537,309625.447,316989.749,8,400,,,
trial,html.Screen,4_41_0,2023-09-08T19:54:01.069Z,,0,1,,4741.050999952306,response,ISIC_0072569.JPG,5,ISIC_0062160.JPG,ISIC_0062160.JPG,false,0,keypress(z),500,321731,321730.7999999523,316973.021,317049,316989.749,321682.215,8,400,42,,ISIC_0072569.JPG
break,html.Screen,4_41_1,2023-09-08T19:54:01.070Z,,0,,,NaN,,,,,,false,,,,321731.59999990463,321731.40000009537,,321731.2000000477,,321682.215,8,400,,,
break_continue,html.Screen,4_41_2,2023-09-08T19:54:01.070Z,,0,,,NaN,,,,,,false,,,,321731.7000000477,321731.59999990463,,321731.59999990463,,321682.215,8,400,,,
sequence,flow.Sequence,4_41,2023-09-08T19:54:01.070Z,,0,,,4741.850999904622,completion,,,,,false,,,,321731.7000000477,321731.59999990463,316973.021,317049,316989.749,321682.215,8,400,,,
trial,html.Screen,4_42_0,2023-09-08T19:54:10.244Z,,0,1,,9222.884999904607,response,ISIC_7623407.JPG,4,ISIC_4906385.JPG,ISIC_7623407.JPG,false,1,keypress(m),500,330905.2000000477,330905.09999990463,321665.472,321731.7999999523,321682.215,330850.009,8,400,43,,ISIC_4906385.JPG
break,html.Screen,4_42_1,2023-09-08T19:54:10.244Z,,0,,,NaN,,,,,,false,,,,330905.40000009537,330905.40000009537,,330905.2000000477,,330850.009,8,400,,,
break_continue,html.Screen,4_42_2,2023-09-08T19:54:10.245Z,,0,,,NaN,,,,,,false,,,,330906.09999990463,330905.59999990463,,330905.5,,330850.009,8,400,,,
sequence,flow.Sequence,4_42,2023-09-08T19:54:10.245Z,,0,,,9223.384999904607,completion,,,,,false,,,,330906.2000000477,330905.59999990463,321665.472,321731.7999999523,321682.215,330850.009,8,400,,,
trial,html.Screen,4_43_0,2023-09-08T19:54:17.655Z,,0,1,,7466.290999952296,response,ISIC_1952749.JPG,6,ISIC_0031611.JPG,ISIC_0031611.JPG,false,0,keypress(z),500,338316.5,338316.2999999523,330833.42,330906.2999999523,330850.009,338264.45,8,400,44,,ISIC_1952749.JPG
break,html.Screen,4_43_1,2023-09-08T19:54:17.655Z,,0,,,NaN,,,,,,false,,,,338316.7000000477,338316.7000000477,,338316.5,,338264.45,8,400,,,
break_continue,html.Screen,4_43_2,2023-09-08T19:54:17.655Z,,0,,,NaN,,,,,,false,,,,338317,338316.90000009537,,338316.90000009537,,338264.45,8,400,,,
sequence,flow.Sequence,4_43,2023-09-08T19:54:17.655Z,,0,,,7466.891000095347,completion,,,,,false,,,,338317,338316.90000009537,330833.42,330906.2999999523,330850.009,338264.45,8,400,,,
trial,html.Screen,4_44_0,2023-09-08T19:54:21.993Z,,0,1,,4390.250000047672,response,ISIC_6207688.JPG,5,ISIC_5048124.JPG,ISIC_6207688.JPG,false,1,keypress(m),500,342654.7999999523,342654.7000000477,338247.978,338317.09999990463,338264.45,342606.433,8,400,45,,ISIC_5048124.JPG
break,html.Screen,4_44_1,2023-09-08T19:54:21.994Z,,0,,,NaN,,,,,,false,,,,342655.09999990463,342655,,342654.90000009537,,342606.433,8,400,,,
break_continue,html.Screen,4_44_2,2023-09-08T19:54:21.994Z,,0,,,NaN,,,,,,false,,,,342655.2999999523,342655.2999999523,,342655.2000000477,,342606.433,8,400,,,
sequence,flow.Sequence,4_44,2023-09-08T19:54:21.994Z,,0,,,4390.849999952305,completion,,,,,false,,,,342655.40000009537,342655.2999999523,338247.978,338317.09999990463,338264.45,342606.433,8,400,,,
trial,html.Screen,4_45_0,2023-09-08T19:54:29.567Z,,0,1,,7621.566999999981,response,ISIC_0011387.JPG,5,ISIC_0025267.JPG,ISIC_0025267.JPG,false,0,keypress(z),500,350228.2000000477,350228,342589.555,342655.5,342606.433,350170.936,8,400,46,,ISIC_0011387.JPG
break,html.Screen,4_45_1,2023-09-08T19:54:29.567Z,,0,,,NaN,,,,,,false,,,,350228.7999999523,350228.7000000477,,350228.40000009537,,350170.936,8,400,,,
break_continue,html.Screen,4_45_2,2023-09-08T19:54:29.568Z,,0,,,NaN,,,,,,false,,,,350229.09999990463,350228.90000009537,,350228.90000009537,,350170.936,8,400,,,
sequence,flow.Sequence,4_45,2023-09-08T19:54:29.568Z,,0,,,7622.467000095348,completion,,,,,false,,,,350229.2000000477,350228.90000009537,342589.555,342655.5,342606.433,350170.936,8,400,,,
trial,html.Screen,4_46_0,2023-09-08T19:54:34.344Z,,0,1,,4833.863999952329,response,ISIC_0013427.JPG,6,ISIC_6342224.JPG,ISIC_6342224.JPG,false,0,keypress(z),500,355005.09999990463,355004.7999999523,350154.261,350229.2999999523,350170.936,354946.977,8,400,47,,ISIC_0013427.JPG
break,html.Screen,4_46_1,2023-09-08T19:54:34.344Z,,0,,,NaN,,,,,,false,,,,355005.7000000477,355005.5,,355005.2999999523,,354946.977,8,400,,,
break_continue,html.Screen,4_46_2,2023-09-08T19:54:34.345Z,,0,,,NaN,,,,,,false,,,,355006.09999990463,355006.09999990463,,355006,,354946.977,8,400,,,
sequence,flow.Sequence,4_46,2023-09-08T19:54:34.345Z,,0,,,4835.163999904646,completion,,,,,false,,,,355006.2999999523,355006.09999990463,350154.261,350229.2999999523,350170.936,354946.977,8,400,,,
trial,html.Screen,4_47_0,2023-09-08T19:54:42.684Z,,0,1,,8397.822999952303,response,ISIC_8779142.JPG,5,ISIC_0068610.JPG,ISIC_8779142.JPG,false,1,keypress(m),500,363345,363344.7999999523,354930.393,355006.40000009537,354946.977,363296.595,8,400,48,,ISIC_0068610.JPG
break,html.Screen,4_47_1,2023-09-08T19:54:42.684Z,,0,,,NaN,,,,,,false,,,,363345.59999990463,363345.40000009537,,363345.2000000477,,363296.595,8,400,,,
break_continue,html.Screen,4_47_2,2023-09-08T19:54:42.684Z,,0,,,NaN,,,,,,false,,,,363345.7999999523,363345.7000000477,,363345.7000000477,,363296.595,8,400,,,
sequence,flow.Sequence,4_47,2023-09-08T19:54:42.684Z,,0,,,8398.72300004767,completion,,,,,false,,,,363346,363345.7000000477,354930.393,355006.40000009537,354946.977,363296.595,8,400,,,
trial,html.Screen,4_48_0,2023-09-08T19:54:48.690Z,,0,1,,6055.105000047712,response,ISIC_0000279.JPG,5,ISIC_8617084.JPG,ISIC_0000279.JPG,false,1,keypress(m),500,369352,369351.7000000477,363279.84,363346.09999990463,363296.595,369291.562,8,400,49,,ISIC_8617084.JPG
break,html.Screen,4_48_1,2023-09-08T19:54:48.691Z,,0,,,NaN,,,,,,false,,,,369352.5,369352.40000009537,,369352.2000000477,,369291.562,8,400,,,
break_continue,html.Screen,4_48_2,2023-09-08T19:54:48.692Z,,0,,,NaN,,,,,,false,,,,369353,369352.90000009537,,369352.7999999523,,369291.562,8,400,,,
sequence,flow.Sequence,4_48,2023-09-08T19:54:48.692Z,,0,,,6056.305000095395,completion,,,,,false,,,,369353.2000000477,369352.90000009537,363279.84,363346,363296.595,369291.562,8,400,,,
trial,html.Screen,4_49_0,2023-09-08T19:54:54.678Z,,0,1,,6047.6380000477075,response,ISIC_2378428.JPG,5,ISIC_0951519.JPG,ISIC_2378428.JPG,false,1,keypress(m),500,375339.2999999523,375339.2000000477,369274.969,369353.2999999523,369291.562,375286.615,8,400,50,,ISIC_0951519.JPG
break,html.Screen,4_49_1,2023-09-08T19:55:04.675Z,,0,,,10002.744999999995,timeout,,,,,false,,,,385336.40000009537,385272.611,375269.842,375339.40000009537,375286.615,385289.36,8,400,,,
break_continue,html.Screen,4_49_2,2023-09-08T19:55:07.234Z,,0,,,2593.4399999523303,response,,,,,false,continue,keypress(Space),,387895.59999990463,387882.7999999523,385272.611,385336.5,385289.36,387844.435,8,400,,,
sequence,flow.Sequence,4_49,2023-09-08T19:55:07.234Z,,0,,,18591.23799995234,completion,,,,,false,,,,387895.7999999523,387882.7999999523,369274.969,369353.2999999523,369291.562,387844.435,8,400,,,
trial,html.Screen,4_50_0,2023-09-08T19:55:11.226Z,,0,2,,4042.8649999523186,response,ISIC_0011267.JPG,4,ISIC_3926397.JPG,ISIC_0011267.JPG,false,1,keypress(m),500,391887.40000009537,391887.2999999523,387827.577,387895.7999999523,387844.435,391835.354,8,400,1,,ISIC_3926397.JPG
break,html.Screen,4_50_1,2023-09-08T19:55:11.226Z,,0,,,NaN,,,,,,false,,,,391887.7999999523,391887.59999990463,,391887.5,,391835.354,8,400,,,
break_continue,html.Screen,4_50_2,2023-09-08T19:55:11.227Z,,0,,,NaN,,,,,,false,,,,391888.2000000477,391888.09999990463,,391888,,391835.354,8,400,,,
sequence,flow.Sequence,4_50,2023-09-08T19:55:11.227Z,,0,,,4043.664999904635,completion,,,,,false,,,,391888.2999999523,391888.09999990463,387827.577,387895.7999999523,387844.435,391835.354,8,400,,,
trial,html.Screen,4_51_0,2023-09-08T19:55:16.322Z,,0,2,,5147.2459999046405,response,ISIC_0001111.JPG,6,ISIC_0069395.JPG,ISIC_0001111.JPG,false,1,keypress(m),500,396983.09999990463,396982.59999990463,391818.755,391888.40000009537,391835.354,396928.669,8,400,2,,ISIC_0069395.JPG
break,html.Screen,4_51_1,2023-09-08T19:55:16.324Z,,0,,,NaN,,,,,,false,,,,396985,396984.59999990463,,396984,,396928.669,8,400,,,
break_continue,html.Screen,4_51_2,2023-09-08T19:55:16.324Z,,0,,,NaN,,,,,,false,,,,396985.59999990463,396985.5,,396985.2000000477,,396928.669,8,400,,,
sequence,flow.Sequence,4_51,2023-09-08T19:55:16.324Z,,0,,,5150.146000000008,completion,,,,,false,,,,396985.90000009537,396985.5,391818.755,391888.40000009537,391835.354,396928.669,8,400,,,
trial,html.Screen,4_52_0,2023-09-08T19:55:19.879Z,,0,2,,3611.630999952322,response,ISIC_0006517.JPG,5,ISIC_0033713.JPG,ISIC_0006517.JPG,false,1,keypress(m),500,400540.40000009537,400540.2999999523,396911.976,396986.09999990463,396928.669,400485.526,8,400,3,,ISIC_0033713.JPG
break,html.Screen,4_52_1,2023-09-08T19:55:19.879Z,,0,,,NaN,,,,,,false,,,,400540.7000000477,400540.7000000477,,400540.5,,400485.526,8,400,,,
break_continue,html.Screen,4_52_2,2023-09-08T19:55:19.879Z,,0,,,NaN,,,,,,false,,,,400540.7999999523,400540.7999999523,,400540.7999999523,,400485.526,8,400,,,
sequence,flow.Sequence,4_52,2023-09-08T19:55:19.880Z,,0,,,3612.130999952322,completion,,,,,false,,,,400541,400540.7999999523,396911.976,396986.09999990463,396928.669,400485.526,8,400,,,
trial,html.Screen,4_53_0,2023-09-08T19:55:24.553Z,,0,2,,4728.773999952304,response,ISIC_0025619.JPG,5,ISIC_6676776.JPG,ISIC_6676776.JPG,false,0,keypress(z),500,405214.2999999523,405214.2999999523,400468.829,400541,400485.526,405161.299,8,400,4,,ISIC_0025619.JPG
break,html.Screen,4_53_1,2023-09-08T19:55:24.553Z,,0,,,NaN,,,,,,false,,,,405214.7000000477,405214.59999990463,,405214.40000009537,,405161.299,8,400,,,
break_continue,html.Screen,4_53_2,2023-09-08T19:55:24.553Z,,0,,,NaN,,,,,,false,,,,405214.7000000477,405214.7000000477,,405214.7000000477,,405161.299,8,400,,,
sequence,flow.Sequence,4_53,2023-09-08T19:55:24.553Z,,0,,,4729.174000047671,completion,,,,,false,,,,405214.90000009537,405214.7000000477,400468.829,400541,400485.526,405161.299,8,400,,,
trial,html.Screen,4_54_0,2023-09-08T19:55:30.492Z,,0,2,,5991.8009999046335,response,ISIC_2822718.JPG,5,ISIC_0031303.JPG,ISIC_2822718.JPG,false,1,keypress(m),500,411153.40000009537,411153.09999990463,405144.674,405214.90000009537,405161.299,411106.209,8,400,5,,ISIC_0031303.JPG
break,html.Screen,4_54_1,2023-09-08T19:55:30.493Z,,0,,,NaN,,,,,,false,,,,411154.5,411154.2000000477,,411153.59999990463,,411106.209,8,400,,,
break_continue,html.Screen,4_54_2,2023-09-08T19:55:30.494Z,,0,,,NaN,,,,,,false,,,,411155.2000000477,411155.09999990463,,411154.7000000477,,411106.209,8,400,,,
sequence,flow.Sequence,4_54,2023-09-08T19:55:30.494Z,,0,,,5993.8009999046335,completion,,,,,false,,,,411155.40000009537,411155.09999990463,405144.674,405214.90000009537,405161.299,411106.209,8,400,,,
trial,html.Screen,4_55_0,2023-09-08T19:55:33.826Z,,0,2,,3381.191000095394,response,ISIC_9119549.JPG,5,ISIC_0064943.JPG,ISIC_9119549.JPG,false,1,keypress(m),500,414487.59999990463,414487.40000009537,411089.681,411155.5,411106.209,414429.327,8,400,6,,ISIC_0064943.JPG
break,html.Screen,4_55_1,2023-09-08T19:55:33.827Z,,0,,,NaN,,,,,,false,,,,414488.2999999523,414488,,414487.7999999523,,414429.327,8,400,,,
break_continue,html.Screen,4_55_2,2023-09-08T19:55:33.827Z,,0,,,NaN,,,,,,false,,,,414488.59999990463,414488.5,,414488.40000009537,,414429.327,8,400,,,
sequence,flow.Sequence,4_55,2023-09-08T19:55:33.827Z,,0,,,3382.2910000000265,completion,,,,,false,,,,414488.7999999523,414488.5,411089.681,411155.5,411106.209,414429.327,8,400,,,
trial,html.Screen,4_56_0,2023-09-08T19:55:39.093Z,,0,2,,5324.573000095377,response,ISIC_0013517.JPG,5,ISIC_0031010.JPG,ISIC_0013517.JPG,false,1,keypress(m),500,419754,419753.90000009537,414412.673,414488.90000009537,414429.327,419706.244,8,400,7,,ISIC_0031010.JPG
break,html.Screen,4_56_1,2023-09-08T19:55:39.093Z,,0,,,NaN,,,,,,false,,,,419754.2999999523,419754.2000000477,,419754.09999990463,,419706.244,8,400,,,
break_continue,html.Screen,4_56_2,2023-09-08T19:55:39.093Z,,0,,,NaN,,,,,,false,,,,419754.5,419754.40000009537,,419754.40000009537,,419706.244,8,400,,,
sequence,flow.Sequence,4_56,2023-09-08T19:55:39.093Z,,0,,,5325.073000095377,completion,,,,,false,,,,419754.59999990463,419754.40000009537,414412.673,414488.90000009537,414429.327,419706.244,8,400,,,
trial,html.Screen,4_57_0,2023-09-08T19:55:45.836Z,,0,2,,6791.55599995231,response,ISIC_0031717.JPG,5,ISIC_0001104.JPG,ISIC_0031717.JPG,false,1,keypress(m),500,426497.7999999523,426497.7999999523,419689.574,419754.59999990463,419706.244,426436.045,8,400,8,,ISIC_0001104.JPG
break,html.Screen,4_57_1,2023-09-08T19:55:45.837Z,,0,,,NaN,,,,,,false,,,,426498.09999990463,426498.09999990463,,426497.90000009537,,426436.045,8,400,,,
break_continue,html.Screen,4_57_2,2023-09-08T19:55:45.837Z,,0,,,NaN,,,,,,false,,,,426498.2999999523,426498.2000000477,,426498.2000000477,,426436.045,8,400,,,
sequence,flow.Sequence,4_57,2023-09-08T19:55:45.837Z,,0,,,6791.956000047678,completion,,,,,false,,,,426498.40000009537,426498.2000000477,419689.574,419754.59999990463,419706.244,426436.045,8,400,,,
trial,html.Screen,4_58_0,2023-09-08T19:55:50.610Z,,0,2,,4835.254999952333,response,ISIC_0014708.JPG,5,ISIC_0001505.JPG,ISIC_0001505.JPG,false,0,keypress(z),500,431271.40000009537,431271.2999999523,426419.51,426498.40000009537,426436.045,431211.986,8,400,9,,ISIC_0014708.JPG
break,html.Screen,4_58_1,2023-09-08T19:55:50.611Z,,0,,,NaN,,,,,,false,,,,431272.2000000477,431272,,431271.59999990463,,431211.986,8,400,,,
break_continue,html.Screen,4_58_2,2023-09-08T19:55:50.611Z,,0,,,NaN,,,,,,false,,,,431272.7000000477,431272.59999990463,,431272.40000009537,,431211.986,8,400,,,
sequence,flow.Sequence,4_58,2023-09-08T19:55:50.612Z,,0,,,4836.554999904649,completion,,,,,false,,,,431273,431272.59999990463,426419.51,426498.40000009537,426436.045,431211.986,8,400,,,
trial,html.Screen,4_59_0,2023-09-08T19:55:56.089Z,,0,2,,5538.313999952341,response,ISIC_2215276.JPG,4,ISIC_3073339.JPG,ISIC_3073339.JPG,false,0,keypress(z),500,436750.5,436750.2999999523,431195.357,431273.09999990463,431211.986,436689.331,8,400,10,,ISIC_2215276.JPG
break,html.Screen,4_59_1,2023-09-08T19:55:56.090Z,,0,,,NaN,,,,,,false,,,,436751.2000000477,436750.90000009537,,436750.7999999523,,436689.331,8,400,,,
break_continue,html.Screen,4_59_2,2023-09-08T19:55:56.090Z,,0,,,NaN,,,,,,false,,,,436751.5,436751.40000009537,,436751.2999999523,,436689.331,8,400,,,
sequence,flow.Sequence,4_59,2023-09-08T19:55:56.090Z,,0,,,5539.414000095392,completion,,,,,false,,,,436751.7999999523,436751.40000009537,431195.357,431273,431211.986,436689.331,8,400,,,
trial,html.Screen,4_60_0,2023-09-08T19:56:02.797Z,,0,2,,6768.668999999994,response,ISIC_0845105.JPG,4,ISIC_0064623.JPG,ISIC_0845105.JPG,false,1,keypress(m),500,443458.2000000477,443458,436672.639,436752.09999990463,436689.331,443402.377,8,400,11,,ISIC_0064623.JPG
break,html.Screen,4_60_1,2023-09-08T19:56:02.797Z,,0,,,NaN,,,,,,false,,,,443458.5,443458.40000009537,,443458.2000000477,,443402.377,8,400,,,
break_continue,html.Screen,4_60_2,2023-09-08T19:56:02.797Z,,0,,,NaN,,,,,,false,,,,443458.59999990463,443458.5,,443458.5,,443402.377,8,400,,,
sequence,flow.Sequence,4_60,2023-09-08T19:56:02.797Z,,0,,,6769.168999999994,completion,,,,,false,,,,443458.7000000477,443458.5,436672.639,436752,436689.331,443402.377,8,400,,,
trial,html.Screen,4_61_0,2023-09-08T19:56:07.326Z,,0,2,,4584.922999952338,response,ISIC_1974152.JPG,5,ISIC_1293403.JPG,ISIC_1974152.JPG,false,1,keypress(m),500,447987.40000009537,447987.2999999523,443385.734,443458.7000000477,443402.377,447927.822,8,400,12,,ISIC_1293403.JPG
break,html.Screen,4_61_1,2023-09-08T19:56:07.326Z,,0,,,NaN,,,,,,false,,,,447987.7000000477,447987.59999990463,,447987.5,,447927.822,8,400,,,
break_continue,html.Screen,4_61_2,2023-09-08T19:56:07.326Z,,0,,,NaN,,,,,,false,,,,447987.90000009537,447987.7999999523,,447987.7000000477,,447927.822,8,400,,,
sequence,flow.Sequence,4_61,2023-09-08T19:56:07.326Z,,0,,,4585.422999952338,completion,,,,,false,,,,447987.90000009537,447987.7999999523,443385.734,443458.7000000477,443402.377,447927.822,8,400,,,
trial,html.Screen,4_62_0,2023-09-08T19:56:12.288Z,,0,2,,5021.378000047698,response,ISIC_0014133.JPG,4,ISIC_2918117.JPG,ISIC_0014133.JPG,false,1,keypress(m),500,452949.40000009537,452949.2000000477,447911.271,447988,447927.822,452887.588,8,400,13,,ISIC_2918117.JPG
break,html.Screen,4_62_1,2023-09-08T19:56:12.289Z,,0,,,NaN,,,,,,false,,,,452950.2000000477,452950,,452949.7000000477,,452887.588,8,400,,,
break_continue,html.Screen,4_62_2,2023-09-08T19:56:12.291Z,,0,,,NaN,,,,,,false,,,,452952,452950.5,,452950.40000009537,,452887.588,8,400,,,
sequence,flow.Sequence,4_62,2023-09-08T19:56:12.291Z,,0,,,5022.678000000014,completion,,,,,false,,,,452952.5,452950.5,447911.271,447987.90000009537,447927.822,452887.588,8,400,,,
trial,html.Screen,4_63_0,2023-09-08T19:56:18.117Z,,0,2,,5890.2119999523275,response,ISIC_0001057.JPG,5,ISIC_6605122.JPG,ISIC_0001057.JPG,false,1,keypress(m),500,458778,458777.7999999523,452870.845,452952.90000009537,452887.588,458715.536,8,400,14,,ISIC_6605122.JPG
break,html.Screen,4_63_1,2023-09-08T19:56:18.117Z,,0,,,NaN,,,,,,false,,,,458778.40000009537,458778.2999999523,,458778.09999990463,,458715.536,8,400,,,
break_continue,html.Screen,4_63_2,2023-09-08T19:56:18.117Z,,0,,,NaN,,,,,,false,,,,458778.59999990463,458778.5,,458778.40000009537,,458715.536,8,400,,,
sequence,flow.Sequence,4_63,2023-09-08T19:56:18.117Z,,0,,,5890.912000000011,completion,,,,,false,,,,458778.7000000477,458778.5,452870.845,452952.7000000477,452887.588,458715.536,8,400,,,
trial,html.Screen,4_64_0,2023-09-08T19:56:23.831Z,,0,2,,5776.563999904611,response,ISIC_0000490.JPG,5,ISIC_0403458.JPG,ISIC_0000490.JPG,false,1,keypress(m),500,464492.40000009537,464492.09999990463,458698.854,458779,458715.536,464443.394,8,400,15,,ISIC_0403458.JPG
break,html.Screen,4_64_1,2023-09-08T19:56:23.832Z,,0,,,NaN,,,,,,false,,,,464493.09999990463,464492.7999999523,,464492.59999990463,,464443.394,8,400,,,
break_continue,html.Screen,4_64_2,2023-09-08T19:56:23.832Z,,0,,,NaN,,,,,,false,,,,464493.5,464493.40000009537,,464493.2000000477,,464443.394,8,400,,,
sequence,flow.Sequence,4_64,2023-09-08T19:56:23.832Z,,0,,,5777.864000095346,completion,,,,,false,,,,464493.59999990463,464493.40000009537,458698.854,458778.7999999523,458715.536,464443.394,8,400,,,
trial,html.Screen,4_65_0,2023-09-08T19:56:30.315Z,,0,2,,6532.405999952345,response,ISIC_0064102.JPG,5,ISIC_0033180.JPG,ISIC_0033180.JPG,false,0,keypress(z),500,470976,470975.7999999523,464426.812,464493.7000000477,464443.394,470922.671,8,400,16,,ISIC_0064102.JPG
break,html.Screen,4_65_1,2023-09-08T19:56:30.316Z,,0,,,NaN,,,,,,false,,,,470976.7999999523,470976.7000000477,,470976.40000009537,,470922.671,8,400,,,
break_continue,html.Screen,4_65_2,2023-09-08T19:56:30.316Z,,0,,,NaN,,,,,,false,,,,470977.2000000477,470977.09999990463,,470977,,470922.671,8,400,,,
sequence,flow.Sequence,4_65,2023-09-08T19:56:30.316Z,,0,,,6533.705999904661,completion,,,,,false,,,,470977.40000009537,470977.09999990463,464426.812,464493.7000000477,464443.394,470922.671,8,400,,,
trial,html.Screen,4_66_0,2023-09-08T19:56:34.787Z,,0,2,,4525.128999952343,response,ISIC_9574191.JPG,5,ISIC_4791589.JPG,ISIC_9574191.JPG,false,1,keypress(m),500,475447.7999999523,475447.7999999523,470905.901,470977.5,470922.671,475397.999,8,400,17,,ISIC_4791589.JPG
break,html.Screen,4_66_1,2023-09-08T19:56:34.787Z,,0,,,NaN,,,,,,false,,,,475448.2000000477,475448.09999990463,,475447.90000009537,,475397.999,8,400,,,
break_continue,html.Screen,4_66_2,2023-09-08T19:56:34.787Z,,0,,,NaN,,,,,,false,,,,475448.2999999523,475448.2999999523,,475448.2000000477,,475397.999,8,400,,,
sequence,flow.Sequence,4_66,2023-09-08T19:56:34.787Z,,0,,,4525.628999952343,completion,,,,,false,,,,475448.40000009537,475448.2999999523,470905.901,470977.5,470922.671,475397.999,8,400,,,
trial,html.Screen,4_67_0,2023-09-08T19:56:45.140Z,,0,2,,10403.100999904622,response,ISIC_1975042.JPG,5,ISIC_1788979.JPG,ISIC_1788979.JPG,false,0,keypress(z),500,485801.40000009537,485801.09999990463,475381.405,475448.40000009537,475397.999,485751.554,8,400,18,,ISIC_1975042.JPG
break,html.Screen,4_67_1,2023-09-08T19:56:45.141Z,,0,,,NaN,,,,,,false,,,,485802.2000000477,485802,,485801.59999990463,,485751.554,8,400,,,
break_continue,html.Screen,4_67_2,2023-09-08T19:56:45.142Z,,0,,,NaN,,,,,,false,,,,485802.7999999523,485802.59999990463,,485802.5,,485751.554,8,400,,,
sequence,flow.Sequence,4_67,2023-09-08T19:56:45.142Z,,0,,,10404.600999904622,completion,,,,,false,,,,485803,485802.59999990463,475381.405,475448.40000009537,475397.999,485751.554,8,400,,,
trial,html.Screen,4_68_0,2023-09-08T19:56:49.289Z,,0,2,,4198.245999952313,response,ISIC_0030541.JPG,5,ISIC_0031389.JPG,ISIC_0030541.JPG,false,1,keypress(m),500,489949.90000009537,489949.7999999523,485734.775,485803.09999990463,485751.554,489892.878,8,400,19,,ISIC_0031389.JPG
break,html.Screen,4_68_1,2023-09-08T19:56:49.289Z,,0,,,NaN,,,,,,false,,,,489950.2000000477,489950.09999990463,,489950,,489892.878,8,400,,,
break_continue,html.Screen,4_68_2,2023-09-08T19:56:49.289Z,,0,,,NaN,,,,,,false,,,,489950.5,489950.40000009537,,489950.40000009537,,489892.878,8,400,,,
sequence,flow.Sequence,4_68,2023-09-08T19:56:49.290Z,,0,,,4198.846000095364,completion,,,,,false,,,,489950.59999990463,489950.40000009537,485734.775,485803.09999990463,485751.554,489892.878,8,400,,,
trial,html.Screen,4_69_0,2023-09-08T19:56:54.908Z,,0,2,,5675.522000095341,response,ISIC_0069050.JPG,5,ISIC_0000077.JPG,ISIC_0069050.JPG,false,1,keypress(m),500,495568.59999990463,495568.40000009537,489876.329,489951.2999999523,489892.878,495520.497,8,400,20,,ISIC_0000077.JPG
break,html.Screen,4_69_1,2023-09-08T19:56:54.909Z,,0,,,NaN,,,,,,false,,,,495569.59999990463,495569.2999999523,,495568.90000009537,,495520.497,8,400,,,
break_continue,html.Screen,4_69_2,2023-09-08T19:56:54.909Z,,0,,,NaN,,,,,,false,,,,495570,495569.7999999523,,495569.7000000477,,495520.497,8,400,,,
sequence,flow.Sequence,4_69,2023-09-08T19:56:54.909Z,,0,,,5676.92199995229,completion,,,,,false,,,,495570.09999990463,495569.7999999523,489876.329,489951.2000000477,489892.878,495520.497,8,400,,,
trial,html.Screen,4_70_0,2023-09-08T19:56:58.384Z,,0,2,,3524.003000000026,response,ISIC_0004217.JPG,5,ISIC_0030718.JPG,ISIC_0004217.JPG,false,1,keypress(m),500,499044.7000000477,499044.5,495503.871,495570.40000009537,495520.497,498993.99,8,400,21,,ISIC_0030718.JPG
break,html.Screen,4_70_1,2023-09-08T19:56:58.384Z,,0,,,NaN,,,,,,false,,,,499045.09999990463,499045.09999990463,,499044.90000009537,,498993.99,8,400,,,
break_continue,html.Screen,4_70_2,2023-09-08T19:56:58.384Z,,0,,,NaN,,,,,,false,,,,499045.2999999523,499045.2000000477,,499045.2000000477,,498993.99,8,400,,,
sequence,flow.Sequence,4_70,2023-09-08T19:56:58.384Z,,0,,,3524.70300004771,completion,,,,,false,,,,499045.40000009537,499045.2000000477,495503.871,495570.40000009537,495520.497,498993.99,8,400,,,
trial,html.Screen,4_71_0,2023-09-08T19:57:03.938Z,,0,2,,5605.010000000009,response,ISIC_8901371.JPG,5,ISIC_0068100.JPG,ISIC_0068100.JPG,false,0,keypress(z),500,504599.2999999523,504599,498977.191,499045.5,498993.99,504556.17,8,400,22,,ISIC_8901371.JPG
break,html.Screen,4_71_1,2023-09-08T19:57:03.939Z,,0,,,NaN,,,,,,false,,,,504600.40000009537,504600.09999990463,,504599.7000000477,,504556.17,8,400,,,
break_continue,html.Screen,4_71_2,2023-09-08T19:57:03.940Z,,0,,,NaN,,,,,,false,,,,504601.09999990463,504600.7999999523,,504600.59999990463,,504556.17,8,400,,,
sequence,flow.Sequence,4_71,2023-09-08T19:57:03.940Z,,0,,,5606.809999952326,completion,,,,,false,,,,504601.2999999523,504600.7999999523,498977.191,499045.5,498993.99,504556.17,8,400,,,
trial,html.Screen,4_72_0,2023-09-08T19:57:12.599Z,,0,2,,8703.429999904649,response,ISIC_0026112.JPG,5,ISIC_0073015.JPG,ISIC_0073015.JPG,false,0,keypress(z),500,513259.7000000477,513259.59999990463,504521.415,504601.59999990463,504556.17,513204.872,8,400,23,,ISIC_0026112.JPG
break,html.Screen,4_72_1,2023-09-08T19:57:12.599Z,,0,,,NaN,,,,,,false,,,,513260,513259.90000009537,,513259.7999999523,,513204.872,8,400,,,
break_continue,html.Screen,4_72_2,2023-09-08T19:57:12.599Z,,0,,,NaN,,,,,,false,,,,513260.2999999523,513260.2999999523,,513260.09999990463,,513204.872,8,400,,,
sequence,flow.Sequence,4_72,2023-09-08T19:57:12.599Z,,0,,,8704.129999952333,completion,,,,,false,,,,513260.40000009537,513260.2999999523,504521.415,504601.5,504556.17,513204.872,8,400,,,
trial,html.Screen,4_73_0,2023-09-08T19:57:18.105Z,,0,2,,5560.927999952342,response,ISIC_7453676.JPG,4,ISIC_0063026.JPG,ISIC_0063026.JPG,false,0,keypress(z),500,518766,518765.7999999523,513188.213,513260.59999990463,513204.872,518715.716,8,400,24,,ISIC_7453676.JPG
break,html.Screen,4_73_1,2023-09-08T19:57:18.106Z,,0,,,NaN,,,,,,false,,,,518766.7999999523,518766.59999990463,,518766.2000000477,,518715.716,8,400,,,
break_continue,html.Screen,4_73_2,2023-09-08T19:57:18.106Z,,0,,,NaN,,,,,,false,,,,518767.2000000477,518767,,518766.90000009537,,518715.716,8,400,,,
sequence,flow.Sequence,4_73,2023-09-08T19:57:18.106Z,,0,,,5562.128000000026,completion,,,,,false,,,,518767.40000009537,518767,513188.213,513260.5,513204.872,518715.716,8,400,,,
trial,html.Screen,4_74_0,2023-09-08T19:57:23.468Z,,0,2,,5413.583999952301,response,ISIC_1453671.JPG,6,ISIC_1396573.JPG,ISIC_1453671.JPG,false,1,keypress(m),500,524129.5,524129.2999999523,518698.983,518767.5,518715.716,524076.057,8,400,25,,ISIC_1396573.JPG
break,html.Screen,4_74_1,2023-09-08T19:57:23.469Z,,0,,,NaN,,,,,,false,,,,524129.7999999523,524129.7000000477,,524129.5,,524076.057,8,400,,,
break_continue,html.Screen,4_74_2,2023-09-08T19:57:23.469Z,,0,,,NaN,,,,,,false,,,,524129.90000009537,524129.7999999523,,524129.7999999523,,524076.057,8,400,,,
sequence,flow.Sequence,4_74,2023-09-08T19:57:23.469Z,,0,,,5414.083999952301,completion,,,,,false,,,,524130,524129.7999999523,518698.983,518767.5,518715.716,524076.057,8,400,,,
trial,html.Screen,4_75_0,2023-09-08T19:57:28.800Z,,0,2,,5384.242999952345,response,ISIC_7586566.JPG,5,ISIC_9301346.JPG,ISIC_9301346.JPG,false,0,keypress(z),500,529460.5999999046,529460.2999999523,524059.381,524130,524076.057,529403.08,8,400,26,,ISIC_7586566.JPG
break,html.Screen,4_75_1,2023-09-08T19:57:28.802Z,,0,,,NaN,,,,,,false,,,,529463.2000000477,529461.9000000954,,529461,,529403.08,8,400,,,
break_continue,html.Screen,4_75_2,2023-09-08T19:57:28.804Z,,0,,,NaN,,,,,,false,,,,529465.2000000477,529464.7999999523,,529464.5,,529403.08,8,400,,,
sequence,flow.Sequence,4_75,2023-09-08T19:57:28.804Z,,0,,,5388.742999952345,completion,,,,,false,,,,529465.2999999523,529464.7999999523,524059.381,524130,524076.057,529403.08,8,400,,,
trial,html.Screen,4_76_0,2023-09-08T19:57:35.736Z,,0,2,,6993.620000047726,response,ISIC_0010503.JPG,5,ISIC_0058149.JPG,ISIC_0010503.JPG,false,1,keypress(m),500,536396.7999999523,536396.7000000477,529386.361,529465.4000000954,529403.08,536349.918,8,400,27,,ISIC_0058149.JPG
break,html.Screen,4_76_1,2023-09-08T19:57:35.736Z,,0,,,NaN,,,,,,false,,,,536397.0999999046,536396.9000000954,,536396.9000000954,,536349.918,8,400,,,
break_continue,html.Screen,4_76_2,2023-09-08T19:57:35.736Z,,0,,,NaN,,,,,,false,,,,536397.2000000477,536397.2000000477,,536397.2000000477,,536349.918,8,400,,,
sequence,flow.Sequence,4_76,2023-09-08T19:57:35.737Z,,0,,,6994.120000047726,completion,,,,,false,,,,536397.2999999523,536397.2000000477,529386.361,529465.2999999523,529403.08,536349.918,8,400,,,
trial,html.Screen,4_77_0,2023-09-08T19:57:42.335Z,,0,2,,6645.681999904686,response,ISIC_6362735.JPG,4,ISIC_0011516.JPG,ISIC_6362735.JPG,false,1,keypress(m),500,542995.7000000477,542995.5999999046,536333.224,536397.4000000954,536349.918,542946.092,8,400,28,,ISIC_0011516.JPG
break,html.Screen,4_77_1,2023-09-08T19:57:42.336Z,,0,,,NaN,,,,,,false,,,,542997.0999999046,542997,,542996.7999999523,,542946.092,8,400,,,
break_continue,html.Screen,4_77_2,2023-09-08T19:57:42.337Z,,0,,,NaN,,,,,,false,,,,542997.5,542997.2999999523,,542997.2000000477,,542946.092,8,400,,,
sequence,flow.Sequence,4_77,2023-09-08T19:57:42.337Z,,0,,,6647.381999952369,completion,,,,,false,,,,542997.7000000477,542997.2999999523,536333.224,536397.2999999523,536349.918,542946.092,8,400,,,
trial,html.Screen,4_78_0,2023-09-08T19:57:47.812Z,,0,2,,5526.408000000054,response,ISIC_0014392.JPG,5,ISIC_8579259.JPG,ISIC_0014392.JPG,false,1,keypress(m),500,548472.5999999046,548472.5,542929.565,542997.7999999523,542946.092,548423.472,8,400,29,,ISIC_8579259.JPG
break,html.Screen,4_78_1,2023-09-08T19:57:47.812Z,,0,,,NaN,,,,,,false,,,,548473.0999999046,548473,,548472.7000000477,,548423.472,8,400,,,
break_continue,html.Screen,4_78_2,2023-09-08T19:57:47.813Z,,0,,,NaN,,,,,,false,,,,548473.2999999523,548473.2999999523,,548473.0999999046,,548423.472,8,400,,,
sequence,flow.Sequence,4_78,2023-09-08T19:57:47.813Z,,0,,,5527.20799995237,completion,,,,,false,,,,548473.5,548473.2999999523,542929.565,542997.7999999523,542946.092,548423.472,8,400,,,
trial,html.Screen,4_79_0,2023-09-08T19:57:53.593Z,,0,2,,5830.228000047733,response,ISIC_1369967.JPG,4,ISIC_9168700.JPG,ISIC_9168700.JPG,false,0,keypress(z),500,554254,554253.7000000477,548406.787,548473.5999999046,548423.472,554201.413,8,400,30,,ISIC_1369967.JPG
break,html.Screen,4_79_1,2023-09-08T19:57:53.594Z,,0,,,NaN,,,,,,false,,,,554254.7000000477,554254.5,,554254.2000000477,,554201.413,8,400,,,
break_continue,html.Screen,4_79_2,2023-09-08T19:57:53.594Z,,0,,,NaN,,,,,,false,,,,554255,554254.9000000954,,554254.7999999523,,554201.413,8,400,,,
sequence,flow.Sequence,4_79,2023-09-08T19:57:53.594Z,,0,,,5831.428000095417,completion,,,,,false,,,,554255.2000000477,554254.9000000954,548406.787,548473.5999999046,548423.472,554201.413,8,400,,,
trial,html.Screen,4_80_0,2023-09-08T19:58:00.435Z,,0,2,,6894.487000095425,response,ISIC_1924949.JPG,6,ISIC_9303849.JPG,ISIC_1924949.JPG,false,1,keypress(m),500,561096,561095.9000000954,554184.785,554255.4000000954,554201.413,561048.021,8,400,31,,ISIC_9303849.JPG
break,html.Screen,4_80_1,2023-09-08T19:58:00.436Z,,0,,,NaN,,,,,,false,,,,561096.4000000954,561096.2999999523,,561096.0999999046,,561048.021,8,400,,,
break_continue,html.Screen,4_80_2,2023-09-08T19:58:00.436Z,,0,,,NaN,,,,,,false,,,,561096.5999999046,561096.5,,561096.5,,561048.021,8,400,,,
sequence,flow.Sequence,4_80,2023-09-08T19:58:00.436Z,,0,,,6895.087000000058,completion,,,,,false,,,,561096.7000000477,561096.5,554184.785,554255.4000000954,554201.413,561048.021,8,400,,,
trial,html.Screen,4_81_0,2023-09-08T19:58:05.814Z,,0,2,,5426.879000095418,response,ISIC_0059314.JPG,5,ISIC_0061705.JPG,ISIC_0061705.JPG,false,0,keypress(z),500,566475.2999999523,566474.9000000954,561031.348,561096.9000000954,561048.021,566425.225,8,400,32,,ISIC_0059314.JPG
break,html.Screen,4_81_1,2023-09-08T19:58:05.816Z,,0,,,NaN,,,,,,false,,,,566476.2999999523,566476,,566475.5,,566425.225,8,400,,,
break_continue,html.Screen,4_81_2,2023-09-08T19:58:05.816Z,,0,,,NaN,,,,,,false,,,,566476.9000000954,566476.7999999523,,566476.5999999046,,566425.225,8,400,,,
sequence,flow.Sequence,4_81,2023-09-08T19:58:05.816Z,,0,,,5428.778999952367,completion,,,,,false,,,,566477.2999999523,566476.7999999523,561031.348,561096.7999999523,561048.021,566425.225,8,400,,,
trial,html.Screen,4_82_0,2023-09-08T19:58:10.907Z,,0,2,,5142.675000095391,response,ISIC_0061623.JPG,5,ISIC_4136832.JPG,ISIC_4136832.JPG,false,0,keypress(z),500,571568.0999999046,571567.9000000954,566408.535,566477.5,566425.225,571518.388,8,400,33,,ISIC_0061623.JPG
break,html.Screen,4_82_1,2023-09-08T19:58:10.908Z,,0,,,NaN,,,,,,false,,,,571568.5,571568.2999999523,,571568.2000000477,,571518.388,8,400,,,
break_continue,html.Screen,4_82_2,2023-09-08T19:58:10.908Z,,0,,,NaN,,,,,,false,,,,571568.7999999523,571568.7999999523,,571568.7000000477,,571518.388,8,400,,,
sequence,flow.Sequence,4_82,2023-09-08T19:58:10.908Z,,0,,,5143.57499995234,completion,,,,,false,,,,571569,571568.7999999523,566408.535,566477.5,566425.225,571518.388,8,400,,,
trial,html.Screen,4_83_0,2023-09-08T19:58:15.360Z,,0,2,,4502.312000047648,response,ISIC_0026916.JPG,5,ISIC_0026407.JPG,ISIC_0026407.JPG,false,0,keypress(z),500,576020.7999999523,576020.7000000477,571501.696,571569.0999999046,571518.388,575960.349,8,400,34,,ISIC_0026916.JPG
break,html.Screen,4_83_1,2023-09-08T19:58:15.360Z,,0,,,NaN,,,,,,false,,,,576021.2000000477,576021.0999999046,,576021,,575960.349,8,400,,,
break_continue,html.Screen,4_83_2,2023-09-08T19:58:15.361Z,,0,,,NaN,,,,,,false,,,,576021.4000000954,576021.2999999523,,576021.2999999523,,575960.349,8,400,,,
sequence,flow.Sequence,4_83,2023-09-08T19:58:15.361Z,,0,,,4502.911999952281,completion,,,,,false,,,,576021.5,576021.2999999523,571501.696,571569.0999999046,571518.388,575960.349,8,400,,,
trial,html.Screen,4_84_0,2023-09-08T19:58:20.530Z,,0,2,,5230.250999904587,response,ISIC_0031070.JPG,4,ISIC_0056930.JPG,ISIC_0056930.JPG,false,0,keypress(z),500,581191,581190.5999999046,575943.685,576021.5,575960.349,581137.185,8,400,35,,ISIC_0031070.JPG
break,html.Screen,4_84_1,2023-09-08T19:58:20.531Z,,0,,,NaN,,,,,,false,,,,581192.2000000477,581191.7999999523,,581191.5,,581137.185,8,400,,,
break_continue,html.Screen,4_84_2,2023-09-08T19:58:20.532Z,,0,,,NaN,,,,,,false,,,,581193.0999999046,581192.7000000477,,581192.5,,581137.185,8,400,,,
sequence,flow.Sequence,4_84,2023-09-08T19:58:20.533Z,,0,,,5232.351000047638,completion,,,,,false,,,,581193.7999999523,581192.7000000477,575943.685,576021.5,575960.349,581137.185,8,400,,,
trial,html.Screen,4_85_0,2023-09-08T19:58:27.244Z,,0,2,,6767.215000095312,response,ISIC_9154716.JPG,5,ISIC_1615485.JPG,ISIC_9154716.JPG,false,1,keypress(m),500,587904.5,587904.4000000954,581120.408,581194.0999999046,581137.185,587850.158,8,400,36,,ISIC_1615485.JPG
break,html.Screen,4_85_1,2023-09-08T19:58:27.244Z,,0,,,NaN,,,,,,false,,,,587904.9000000954,587904.7999999523,,587904.5999999046,,587850.158,8,400,,,
break_continue,html.Screen,4_85_2,2023-09-08T19:58:27.244Z,,0,,,NaN,,,,,,false,,,,587905.2000000477,587905.2000000477,,587905.0999999046,,587850.158,8,400,,,
sequence,flow.Sequence,4_85,2023-09-08T19:58:27.245Z,,0,,,6768.015000047628,completion,,,,,false,,,,587905.4000000954,587905.2000000477,581120.408,581194,581137.185,587850.158,8,400,,,
trial,html.Screen,4_86_0,2023-09-08T19:58:34.438Z,,0,2,,7248.242000095313,response,ISIC_9786863.JPG,5,ISIC_0072991.JPG,ISIC_0072991.JPG,false,0,keypress(z),500,595098.5,595098.4000000954,587833.538,587905.4000000954,587850.158,595047.517,8,400,37,,ISIC_9786863.JPG
break,html.Screen,4_86_1,2023-09-08T19:58:34.439Z,,0,,,NaN,,,,,,false,,,,595099.2999999523,595099,,595098.7000000477,,595047.517,8,400,,,
break_continue,html.Screen,4_86_2,2023-09-08T19:58:34.439Z,,0,,,NaN,,,,,,false,,,,595099.7000000477,595099.5999999046,,595099.5,,595047.517,8,400,,,
sequence,flow.Sequence,4_86,2023-09-08T19:58:34.439Z,,0,,,7249.441999904579,completion,,,,,false,,,,595099.9000000954,595099.5999999046,587833.538,587905.4000000954,587850.158,595047.517,8,400,,,
trial,html.Screen,4_87_0,2023-09-08T19:58:38.729Z,,0,2,,4341.983000000007,response,ISIC_0013984.JPG,4,ISIC_0504165.JPG,ISIC_0013984.JPG,false,1,keypress(m),500,599389.5999999046,599389.5,595030.955,595100,595047.517,599339.198,8,400,38,,ISIC_0504165.JPG
break,html.Screen,4_87_1,2023-09-08T19:58:38.729Z,,0,,,NaN,,,,,,false,,,,599389.9000000954,599389.7999999523,,599389.5999999046,,599339.198,8,400,,,
break_continue,html.Screen,4_87_2,2023-09-08T19:58:38.729Z,,0,,,NaN,,,,,,false,,,,599390,599389.9000000954,,599389.9000000954,,599339.198,8,400,,,
sequence,flow.Sequence,4_87,2023-09-08T19:58:38.729Z,,0,,,4342.383000095375,completion,,,,,false,,,,599390,599389.9000000954,595030.955,595099.9000000954,595047.517,599339.198,8,400,,,
trial,html.Screen,4_88_0,2023-09-08T19:58:46.588Z,,0,2,,7908.802000000025,response,ISIC_0000490.JPG,5,ISIC_2266715.JPG,ISIC_2266715.JPG,false,0,keypress(z),500,607248.2000000477,607248,599322.679,599390,599339.198,607187.83,8,400,39,,ISIC_0000490.JPG
break,html.Screen,4_88_1,2023-09-08T19:58:46.588Z,,0,,,NaN,,,,,,false,,,,607249,607248.7000000477,,607248.4000000954,,607187.83,8,400,,,
break_continue,html.Screen,4_88_2,2023-09-08T19:58:46.589Z,,0,,,NaN,,,,,,false,,,,607249.4000000954,607249.2999999523,,607249.0999999046,,607187.83,8,400,,,
sequence,flow.Sequence,4_88,2023-09-08T19:58:46.589Z,,0,,,7910.101999952341,completion,,,,,false,,,,607249.5,607249.2999999523,599322.679,599390,599339.198,607187.83,8,400,,,
trial,html.Screen,4_89_0,2023-09-08T19:58:54.035Z,,0,2,,7507.370000047726,response,ISIC_9810276.JPG,5,ISIC_7984569.JPG,ISIC_9810276.JPG,false,1,keypress(m),500,614695.4000000954,614695.2000000477,607171.073,607249.5999999046,607187.83,614635.637,8,400,40,,ISIC_7984569.JPG
break,html.Screen,4_89_1,2023-09-08T19:58:54.036Z,,0,,,NaN,,,,,,false,,,,614696.2000000477,614695.9000000954,,614695.5999999046,,614635.637,8,400,,,
break_continue,html.Screen,4_89_2,2023-09-08T19:58:54.036Z,,0,,,NaN,,,,,,false,,,,614696.5999999046,614696.5,,614696.2999999523,,614635.637,8,400,,,
sequence,flow.Sequence,4_89,2023-09-08T19:58:54.036Z,,0,,,7508.670000000042,completion,,,,,false,,,,614696.7999999523,614696.5,607171.073,607249.5,607187.83,614635.637,8,400,,,
trial,html.Screen,4_90_0,2023-09-08T19:58:58.188Z,,0,2,,4212.7630000953795,response,ISIC_0033641.JPG,4,ISIC_1690909.JPG,ISIC_1690909.JPG,false,0,keypress(z),500,618848.7999999523,618848.4000000954,614619.01,614696.9000000954,614635.637,618793.755,8,400,41,,ISIC_0033641.JPG
break,html.Screen,4_90_1,2023-09-08T19:58:58.189Z,,0,,,NaN,,,,,,false,,,,618849.5999999046,618849.4000000954,,618849,,618793.755,8,400,,,
break_continue,html.Screen,4_90_2,2023-09-08T19:58:58.189Z,,0,,,NaN,,,,,,false,,,,618849.9000000954,618849.9000000954,,618849.7000000477,,618793.755,8,400,,,
sequence,flow.Sequence,4_90,2023-09-08T19:58:58.190Z,,0,,,4214.2630000953795,completion,,,,,false,,,,618850.2000000477,618849.9000000954,614619.01,614696.7999999523,614635.637,618793.755,8,400,,,
trial,html.Screen,4_91_0,2023-09-08T19:59:02.385Z,,0,2,,4251.844999904628,response,ISIC_2245325.JPG,6,ISIC_1608524.JPG,ISIC_2245325.JPG,false,1,keypress(m),500,623045.7999999523,623045.5999999046,618777.007,618850.2999999523,618793.755,622985.246,8,400,42,,ISIC_1608524.JPG
break,html.Screen,4_91_1,2023-09-08T19:59:02.386Z,,0,,,NaN,,,,,,false,,,,623046.4000000954,623046.2999999523,,623046.0999999046,,622985.246,8,400,,,
break_continue,html.Screen,4_91_2,2023-09-08T19:59:02.386Z,,0,,,NaN,,,,,,false,,,,623046.9000000954,623046.7999999523,,623046.7000000477,,622985.246,8,400,,,
sequence,flow.Sequence,4_91,2023-09-08T19:59:02.386Z,,0,,,4253.044999952312,completion,,,,,false,,,,623047.0999999046,623046.7999999523,618777.007,618850.2999999523,618793.755,622985.246,8,400,,,
trial,html.Screen,4_92_0,2023-09-08T19:59:06.748Z,,0,2,,4422.85399990459,response,ISIC_0010592.JPG,5,ISIC_7438013.JPG,ISIC_0010592.JPG,false,1,keypress(m),500,627408.2999999523,627408.0999999046,622968.517,623047.2000000477,622985.246,627360.394,8,400,43,,ISIC_7438013.JPG
break,html.Screen,4_92_1,2023-09-08T19:59:06.748Z,,0,,,NaN,,,,,,false,,,,627408.5999999046,627408.5,,627408.4000000954,,627360.394,8,400,,,
break_continue,html.Screen,4_92_2,2023-09-08T19:59:06.748Z,,0,,,NaN,,,,,,false,,,,627408.7999999523,627408.7999999523,,627408.5999999046,,627360.394,8,400,,,
sequence,flow.Sequence,4_92,2023-09-08T19:59:06.748Z,,0,,,4423.553999952273,completion,,,,,false,,,,627408.9000000954,627408.7999999523,622968.517,623047.2000000477,622985.246,627360.394,8,400,,,
trial,html.Screen,4_93_0,2023-09-08T19:59:14.862Z,,0,2,,8161.806000047713,response,ISIC_0011030.JPG,4,ISIC_0064863.JPG,ISIC_0011030.JPG,false,1,keypress(m),500,635522.2000000477,635522.2000000477,627343.678,627409,627360.394,635459.432,8,400,44,,ISIC_0064863.JPG
break,html.Screen,4_93_1,2023-09-08T19:59:14.862Z,,0,,,NaN,,,,,,false,,,,635522.5999999046,635522.5,,635522.2999999523,,635459.432,8,400,,,
break_continue,html.Screen,4_93_2,2023-09-08T19:59:14.862Z,,0,,,NaN,,,,,,false,,,,635522.7999999523,635522.7000000477,,635522.7000000477,,635459.432,8,400,,,
sequence,flow.Sequence,4_93,2023-09-08T19:59:14.862Z,,0,,,8162.306000047713,completion,,,,,false,,,,635522.9000000954,635522.7000000477,627343.678,627408.9000000954,627360.394,635459.432,8,400,,,
trial,html.Screen,4_94_0,2023-09-08T19:59:19.856Z,,0,2,,5057.268000047654,response,ISIC_0012072.JPG,5,ISIC_3170155.JPG,ISIC_3170155.JPG,false,0,keypress(z),500,640517.0999999046,640516.7000000477,635442.737,635523,635459.432,640469.271,8,400,45,,ISIC_0012072.JPG
break,html.Screen,4_94_1,2023-09-08T19:59:19.857Z,,0,,,NaN,,,,,,false,,,,640518.0999999046,640517.9000000954,,640517.4000000954,,640469.271,8,400,,,
break_continue,html.Screen,4_94_2,2023-09-08T19:59:19.858Z,,0,,,NaN,,,,,,false,,,,640518.5999999046,640518.4000000954,,640518.2999999523,,640469.271,8,400,,,
sequence,flow.Sequence,4_94,2023-09-08T19:59:19.859Z,,0,,,5058.968000095338,completion,,,,,false,,,,640519.2000000477,640518.4000000954,635442.737,635523,635459.432,640469.271,8,400,,,
trial,html.Screen,4_95_0,2023-09-08T19:59:25.862Z,,0,2,,6053.129000095418,response,ISIC_6668093.JPG,5,ISIC_0072021.JPG,ISIC_6668093.JPG,false,1,keypress(m),500,646522.7999999523,646522.4000000954,640452.514,640519.4000000954,640469.271,646464.249,8,400,46,,ISIC_0072021.JPG
break,html.Screen,4_95_1,2023-09-08T19:59:25.863Z,,0,,,NaN,,,,,,false,,,,646523.7999999523,646523.5999999046,,646523.0999999046,,646464.249,8,400,,,
break_continue,html.Screen,4_95_2,2023-09-08T19:59:25.864Z,,0,,,NaN,,,,,,false,,,,646524.4000000954,646524.2000000477,,646524,,646464.249,8,400,,,
sequence,flow.Sequence,4_95,2023-09-08T19:59:25.864Z,,0,,,6054.929000047734,completion,,,,,false,,,,646524.5,646524.2000000477,640452.514,640519.4000000954,640469.271,646464.249,8,400,,,
trial,html.Screen,4_96_0,2023-09-08T19:59:34.298Z,,0,2,,8494.050999952364,response,ISIC_0071778.JPG,6,ISIC_0014486.JPG,ISIC_0071778.JPG,false,1,keypress(m),500,654958.4000000954,654958.2999999523,646447.674,646524.7000000477,646464.249,654897.303,8,400,47,,ISIC_0014486.JPG
break,html.Screen,4_96_1,2023-09-08T19:59:34.298Z,,0,,,NaN,,,,,,false,,,,654958.7999999523,654958.5999999046,,654958.5,,654897.303,8,400,,,
break_continue,html.Screen,4_96_2,2023-09-08T19:59:34.299Z,,0,,,NaN,,,,,,false,,,,654959.0999999046,654959,,654958.9000000954,,654897.303,8,400,,,
sequence,flow.Sequence,4_96,2023-09-08T19:59:34.299Z,,0,,,8494.751000000047,completion,,,,,false,,,,654959.2000000477,654959,646447.674,646524.7000000477,646464.249,654897.303,8,400,,,
trial,html.Screen,4_97_0,2023-09-08T19:59:39.457Z,,0,2,,5219.597000095411,response,ISIC_7164403.JPG,5,ISIC_0069204.JPG,ISIC_7164403.JPG,false,1,keypress(m),500,660117.2999999523,660116.9000000954,654880.724,654959.2000000477,654897.303,660057.469,8,400,48,,ISIC_0069204.JPG
break,html.Screen,4_97_1,2023-09-08T19:59:39.458Z,,0,,,NaN,,,,,,false,,,,660118.5,660118.0999999046,,660117.7000000477,,660057.469,8,400,,,
break_continue,html.Screen,4_97_2,2023-09-08T19:59:39.459Z,,0,,,NaN,,,,,,false,,,,660119.0999999046,660118.9000000954,,660118.7000000477,,660057.469,8,400,,,
sequence,flow.Sequence,4_97,2023-09-08T19:59:39.459Z,,0,,,5221.597000095411,completion,,,,,false,,,,660119.4000000954,660118.9000000954,654880.724,654959.2000000477,654897.303,660057.469,8,400,,,
trial,html.Screen,4_98_0,2023-09-08T19:59:45.293Z,,0,2,,5895.330999952275,response,ISIC_0015200.JPG,5,ISIC_1323048.JPG,ISIC_1323048.JPG,false,0,keypress(z),500,665953,665952.7999999523,660040.801,660119.5999999046,660057.469,665902.108,8,400,49,,ISIC_0015200.JPG
break,html.Screen,4_98_1,2023-09-08T19:59:45.293Z,,0,,,NaN,,,,,,false,,,,665953.4000000954,665953.2999999523,,665953.0999999046,,665902.108,8,400,,,
break_continue,html.Screen,4_98_2,2023-09-08T19:59:45.293Z,,0,,,NaN,,,,,,false,,,,665953.5,665953.5,,665953.5,,665902.108,8,400,,,
sequence,flow.Sequence,4_98,2023-09-08T19:59:45.293Z,,0,,,5896.030999999959,completion,,,,,false,,,,665953.5999999046,665953.5,660040.801,660119.5,660057.469,665902.108,8,400,,,
trial,html.Screen,4_99_0,2023-09-08T19:59:50.976Z,,0,2,,5734.29200009536,response,ISIC_8197240.JPG,4,ISIC_0062914.JPG,ISIC_8197240.JPG,false,1,keypress(m),500,671636.5,671636.4000000954,665885.506,665953.5999999046,665902.108,671579.782,8,400,50,,ISIC_0062914.JPG
break,html.Screen,4_99_1,2023-09-08T20:00:00.970Z,,0,,,10002.890000000014,timeout,,,,,false,,,,681629.9000000954,681565.991,671563.084,671636.5,671579.782,681582.672,8,400,,,
break_continue,html.Screen,4_99_2,2023-09-08T20:00:03.938Z,,0,,,3000.127999952296,response,,,,,false,continue,keypress(Space),,684598,684582.7999999523,681565.991,681630.2000000477,681582.672,684538.349,8,400,,,
sequence,flow.Sequence,4_99,2023-09-08T20:00:03.938Z,,0,,,18680.69199995231,completion,,,,,false,,,,684598.2000000477,684582.7999999523,665885.506,665953.5999999046,665902.108,684538.349,8,400,,,
trial,html.Screen,4_100_0,2023-09-08T20:00:07.172Z,,0,3,,3293.551000095322,response,ISIC_1552232.JPG,6,ISIC_0070601.JPG,ISIC_1552232.JPG,false,1,keypress(m),500,687832.0999999046,687831.9000000954,684521.725,684598.2000000477,684538.349,687777.925,8,400,1,,ISIC_0070601.JPG
break,html.Screen,4_100_1,2023-09-08T20:00:07.172Z,,0,,,NaN,,,,,,false,,,,687832.4000000954,687832.2999999523,,687832.0999999046,,687777.925,8,400,,,
break_continue,html.Screen,4_100_2,2023-09-08T20:00:07.172Z,,0,,,NaN,,,,,,false,,,,687832.5,687832.5,,687832.5,,687777.925,8,400,,,
sequence,flow.Sequence,4_100,2023-09-08T20:00:07.173Z,,0,,,3294.1509999999544,completion,,,,,false,,,,687833.2000000477,687832.5,684521.725,684598.2000000477,684538.349,687777.925,8,400,,,
trial,html.Screen,4_101_0,2023-09-08T20:00:16.710Z,,0,3,,9592.47500009532,response,ISIC_1293743.JPG,5,ISIC_1605629.JPG,ISIC_1605629.JPG,false,0,keypress(z),500,697370.5,697370.4000000954,687761.248,687833.2999999523,687777.925,697313.14,8,400,2,,ISIC_1293743.JPG
break,html.Screen,4_101_1,2023-09-08T20:00:16.710Z,,0,,,NaN,,,,,,false,,,,697370.7999999523,697370.7000000477,,697370.5999999046,,697313.14,8,400,,,
break_continue,html.Screen,4_101_2,2023-09-08T20:00:16.711Z,,0,,,NaN,,,,,,false,,,,697371,697370.9000000954,,697370.7999999523,,697313.14,8,400,,,
sequence,flow.Sequence,4_101,2023-09-08T20:00:16.711Z,,0,,,9592.97500009532,completion,,,,,false,,,,697371.0999999046,697370.9000000954,687761.248,687833.2999999523,687777.925,697313.14,8,400,,,
trial,html.Screen,4_102_0,2023-09-08T20:00:22.590Z,,0,3,,5936.459999904619,response,ISIC_1930598.JPG,5,ISIC_0061580.JPG,ISIC_1930598.JPG,false,1,keypress(m),500,703250,703249.5999999046,697296.446,697371.0999999046,697313.14,703191.304,8,400,3,,ISIC_0061580.JPG
break,html.Screen,4_102_1,2023-09-08T20:00:22.591Z,,0,,,NaN,,,,,,false,,,,703251.0999999046,703250.7999999523,,703250.4000000954,,703191.304,8,400,,,
break_continue,html.Screen,4_102_2,2023-09-08T20:00:22.591Z,,0,,,NaN,,,,,,false,,,,703251.7999999523,703251.5999999046,,703251.5,,703191.304,8,400,,,
sequence,flow.Sequence,4_102,2023-09-08T20:00:22.592Z,,0,,,5938.459999904619,completion,,,,,false,,,,703252.0999999046,703251.5999999046,697296.446,697371.0999999046,697313.14,703191.304,8,400,,,
trial,html.Screen,4_103_0,2023-09-08T20:00:27.623Z,,0,3,,5091.795999904629,response,ISIC_2893340.JPG,5,ISIC_1558504.JPG,ISIC_2893340.JPG,false,1,keypress(m),500,708283.2000000477,708283.0999999046,703174.585,703252.2999999523,703191.304,708234.437,8,400,4,,ISIC_1558504.JPG
break,html.Screen,4_103_1,2023-09-08T20:00:27.623Z,,0,,,NaN,,,,,,false,,,,708283.5999999046,708283.5,,708283.4000000954,,708234.437,8,400,,,
break_continue,html.Screen,4_103_2,2023-09-08T20:00:27.623Z,,0,,,NaN,,,,,,false,,,,708283.7999999523,708283.7000000477,,708283.7000000477,,708234.437,8,400,,,
sequence,flow.Sequence,4_103,2023-09-08T20:00:27.623Z,,0,,,5092.39600004768,completion,,,,,false,,,,708283.9000000954,708283.7000000477,703174.585,703252.2999999523,703191.304,708234.437,8,400,,,
trial,html.Screen,4_104_0,2023-09-08T20:00:34.461Z,,0,3,,6887.0629999999655,response,ISIC_0071532.JPG,4,ISIC_0011196.JPG,ISIC_0071532.JPG,false,1,keypress(m),500,715121.5999999046,715121.5,708217.753,708284.0999999046,708234.437,715064.358,8,400,5,,ISIC_0011196.JPG
break,html.Screen,4_104_1,2023-09-08T20:00:34.462Z,,0,,,NaN,,,,,,false,,,,715122,715121.9000000954,,715121.7000000477,,715064.358,8,400,,,
break_continue,html.Screen,4_104_2,2023-09-08T20:00:34.462Z,,0,,,NaN,,,,,,false,,,,715122.2000000477,715122.0999999046,,715122.0999999046,,715064.358,8,400,,,
sequence,flow.Sequence,4_104,2023-09-08T20:00:34.462Z,,0,,,6887.662999904598,completion,,,,,false,,,,715122.2999999523,715122.0999999046,708217.753,708284,708234.437,715064.358,8,400,,,
trial,html.Screen,4_105_0,2023-09-08T20:00:38.192Z,,0,3,,3787.54200009536,response,ISIC_8354042.JPG,6,ISIC_0005319.JPG,ISIC_0005319.JPG,false,0,keypress(z),500,718852,718851.9000000954,715047.776,715122.4000000954,715064.358,718805.084,8,400,6,,ISIC_8354042.JPG
break,html.Screen,4_105_1,2023-09-08T20:00:38.192Z,,0,,,NaN,,,,,,false,,,,718852.4000000954,718852.2999999523,,718852.0999999046,,718805.084,8,400,,,
break_continue,html.Screen,4_105_2,2023-09-08T20:00:38.192Z,,0,,,NaN,,,,,,false,,,,718852.5999999046,718852.5,,718852.5,,718805.084,8,400,,,
sequence,flow.Sequence,4_105,2023-09-08T20:00:38.192Z,,0,,,3788.1419999999925,completion,,,,,false,,,,718852.7000000477,718852.5,715047.776,715122.2999999523,715064.358,718805.084,8,400,,,
trial,html.Screen,4_106_0,2023-09-08T20:00:44.676Z,,0,3,,6531.116000047652,response,ISIC_0033472.JPG,5,ISIC_0066588.JPG,ISIC_0066588.JPG,false,0,keypress(z),500,725336.2000000477,725336.2000000477,718788.301,718852.7000000477,718805.084,725284.256,8,400,7,,ISIC_0033472.JPG
break,html.Screen,4_106_1,2023-09-08T20:00:44.676Z,,0,,,NaN,,,,,,false,,,,725336.5,725336.5,,725336.2999999523,,725284.256,8,400,,,
break_continue,html.Screen,4_106_2,2023-09-08T20:00:44.676Z,,0,,,NaN,,,,,,false,,,,725336.7999999523,725336.7000000477,,725336.5999999046,,725284.256,8,400,,,
sequence,flow.Sequence,4_106,2023-09-08T20:00:44.677Z,,0,,,6531.616000047652,completion,,,,,false,,,,725336.9000000954,725336.7000000477,718788.301,718852.7000000477,718805.084,725284.256,8,400,,,
trial,html.Screen,4_107_0,2023-09-08T20:00:50.636Z,,0,3,,6012.144000095315,response,ISIC_0010486.JPG,4,ISIC_0026498.JPG,ISIC_0026498.JPG,false,0,keypress(z),500,731296.4000000954,731296.4000000954,725267.737,725336.9000000954,725284.256,731245.961,8,400,8,,ISIC_0010486.JPG
break,html.Screen,4_107_1,2023-09-08T20:00:50.637Z,,0,,,NaN,,,,,,false,,,,731296.9000000954,731296.7999999523,,731296.5999999046,,731245.961,8,400,,,
break_continue,html.Screen,4_107_2,2023-09-08T20:00:50.637Z,,0,,,NaN,,,,,,false,,,,731297,731297,,731296.9000000954,,731245.961,8,400,,,
sequence,flow.Sequence,4_107,2023-09-08T20:00:50.637Z,,0,,,6012.743999999948,completion,,,,,false,,,,731297.2000000477,731297,725267.737,725336.9000000954,725284.256,731245.961,8,400,,,
trial,html.Screen,4_108_0,2023-09-08T20:00:56.575Z,,0,3,,5988.7390000476735,response,ISIC_0071931.JPG,6,ISIC_8505412.JPG,ISIC_8505412.JPG,false,0,keypress(z),500,737234.7999999523,737234.7000000477,731229.217,731297.2000000477,731245.961,737174.052,8,400,9,,ISIC_0071931.JPG
break,html.Screen,4_108_1,2023-09-08T20:00:56.575Z,,0,,,NaN,,,,,,false,,,,737235.0999999046,737235.0999999046,,737234.9000000954,,737174.052,8,400,,,
break_continue,html.Screen,4_108_2,2023-09-08T20:00:56.575Z,,0,,,NaN,,,,,,false,,,,737235.2000000477,737235.2000000477,,737235.0999999046,,737174.052,8,400,,,
sequence,flow.Sequence,4_108,2023-09-08T20:00:56.575Z,,0,,,5989.2390000476735,completion,,,,,false,,,,737235.4000000954,737235.2000000477,731229.217,731297.2000000477,731245.961,737174.052,8,400,,,
trial,html.Screen,4_109_0,2023-09-08T20:01:03.014Z,,0,3,,6499.747999952291,response,ISIC_2151727.JPG,6,ISIC_0071707.JPG,ISIC_2151727.JPG,false,1,keypress(m),500,743673.9000000954,743673.7999999523,737157.564,737235.4000000954,737174.052,743620.064,8,400,10,,ISIC_0071707.JPG
break,html.Screen,4_109_1,2023-09-08T20:01:03.014Z,,0,,,NaN,,,,,,false,,,,743674.2999999523,743674.0999999046,,743674,,743620.064,8,400,,,
break_continue,html.Screen,4_109_2,2023-09-08T20:01:03.014Z,,0,,,NaN,,,,,,false,,,,743674.5,743674.4000000954,,743674.4000000954,,743620.064,8,400,,,
sequence,flow.Sequence,4_109,2023-09-08T20:01:03.014Z,,0,,,6500.348000095342,completion,,,,,false,,,,743674.5999999046,743674.4000000954,737157.564,737235.4000000954,737174.052,743620.064,8,400,,,
trial,html.Screen,4_110_0,2023-09-08T20:01:08.008Z,,0,3,,5048.5359999046195,response,ISIC_2333274.JPG,5,ISIC_0010162.JPG,ISIC_2333274.JPG,false,1,keypress(m),500,748668.7999999523,748668.5999999046,743603.465,743674.5999999046,743620.064,748613.104,8,400,11,,ISIC_0010162.JPG
break,html.Screen,4_110_1,2023-09-08T20:01:08.009Z,,0,,,NaN,,,,,,false,,,,748669.0999999046,748669,,748668.7999999523,,748613.104,8,400,,,
break_continue,html.Screen,4_110_2,2023-09-08T20:01:08.009Z,,0,,,NaN,,,,,,false,,,,748669.2000000477,748669.2000000477,,748669.0999999046,,748613.104,8,400,,,
sequence,flow.Sequence,4_110,2023-09-08T20:01:08.009Z,,0,,,5049.136000047671,completion,,,,,false,,,,748669.2000000477,748669.2000000477,743603.465,743674.5999999046,743620.064,748613.104,8,400,,,
trial,html.Screen,4_111_0,2023-09-08T20:01:13.858Z,,0,3,,5904.995999904582,response,ISIC_0033679.JPG,6,ISIC_0030596.JPG,ISIC_0030596.JPG,false,0,keypress(z),500,754518.4000000954,754518.0999999046,748596.325,748669.2999999523,748613.104,754457.707,8,400,12,,ISIC_0033679.JPG
break,html.Screen,4_111_1,2023-09-08T20:01:13.859Z,,0,,,NaN,,,,,,false,,,,754518.9000000954,754518.7000000477,,754518.5,,754457.707,8,400,,,
break_continue,html.Screen,4_111_2,2023-09-08T20:01:13.859Z,,0,,,NaN,,,,,,false,,,,754519.2000000477,754519,,754519,,754457.707,8,400,,,
sequence,flow.Sequence,4_111,2023-09-08T20:01:13.859Z,,0,,,5905.89599999995,completion,,,,,false,,,,754519.2000000477,754519,748596.325,748669.2999999523,748613.104,754457.707,8,400,,,
trial,html.Screen,4_112_0,2023-09-08T20:01:21.477Z,,0,3,,7679.193000095314,response,ISIC_9782083.JPG,5,ISIC_0026694.JPG,ISIC_0026694.JPG,false,0,keypress(z),500,762137.0999999046,762136.9000000954,754441.032,754519.2999999523,754457.707,762089.314,8,400,13,,ISIC_9782083.JPG
break,html.Screen,4_112_1,2023-09-08T20:01:21.477Z,,0,,,NaN,,,,,,false,,,,762137.5999999046,762137.4000000954,,762137.2000000477,,762089.314,8,400,,,
break_continue,html.Screen,4_112_2,2023-09-08T20:01:21.478Z,,0,,,NaN,,,,,,false,,,,762137.9000000954,762137.7999999523,,762137.7000000477,,762089.314,8,400,,,
sequence,flow.Sequence,4_112,2023-09-08T20:01:21.478Z,,0,,,7680.092999952263,completion,,,,,false,,,,762138,762137.7999999523,754441.032,754519.2999999523,754457.707,762089.314,8,400,,,
trial,html.Screen,4_113_0,2023-09-08T20:01:25.948Z,,0,3,,4519.086000095354,response,ISIC_0012840.JPG,6,ISIC_7511557.JPG,ISIC_7511557.JPG,false,0,keypress(z),500,766608.5999999046,766608.4000000954,762072.717,762138,762089.314,766547.95,8,400,14,,ISIC_0012840.JPG
break,html.Screen,4_113_1,2023-09-08T20:01:25.949Z,,0,,,NaN,,,,,,false,,,,766609.2999999523,766609.0999999046,,766608.7999999523,,766547.95,8,400,,,
break_continue,html.Screen,4_113_2,2023-09-08T20:01:25.949Z,,0,,,NaN,,,,,,false,,,,766609.7000000477,766609.5,,766609.5,,766547.95,8,400,,,
sequence,flow.Sequence,4_113,2023-09-08T20:01:25.950Z,,0,,,4520.185999999987,completion,,,,,false,,,,766609.9000000954,766609.5,762072.717,762138,762089.314,766547.95,8,400,,,
trial,html.Screen,4_114_0,2023-09-08T20:01:32.391Z,,0,3,,6502.550000000047,response,ISIC_5732201.JPG,6,ISIC_0026352.JPG,ISIC_5732201.JPG,false,1,keypress(m),500,773050.5999999046,773050.5,766531.293,766610,766547.95,772993.794,8,400,15,,ISIC_0026352.JPG
break,html.Screen,4_114_1,2023-09-08T20:01:32.391Z,,0,,,NaN,,,,,,false,,,,773050.9000000954,773050.7999999523,,773050.5999999046,,772993.794,8,400,,,
break_continue,html.Screen,4_114_2,2023-09-08T20:01:32.391Z,,0,,,NaN,,,,,,false,,,,773051.2000000477,773051.0999999046,,773051.0999999046,,772993.794,8,400,,,
sequence,flow.Sequence,4_114,2023-09-08T20:01:32.391Z,,0,,,6503.149999904679,completion,,,,,false,,,,773051.2000000477,773051.0999999046,766531.293,766610,766547.95,772993.794,8,400,,,
trial,html.Screen,4_115_0,2023-09-08T20:01:37.160Z,,0,3,,4826.305999904638,response,ISIC_0069635.JPG,4,ISIC_7336383.JPG,ISIC_7336383.JPG,false,0,keypress(z),500,777820.5,777820.0999999046,772977.242,773051.2999999523,772993.794,777769.778,8,400,16,,ISIC_0069635.JPG
break,html.Screen,4_115_1,2023-09-08T20:01:37.161Z,,0,,,NaN,,,,,,false,,,,777821.5,777821.2000000477,,777820.7999999523,,777769.778,8,400,,,
break_continue,html.Screen,4_115_2,2023-09-08T20:01:37.162Z,,0,,,NaN,,,,,,false,,,,777822.2999999523,777822.0999999046,,777821.7999999523,,777769.778,8,400,,,
sequence,flow.Sequence,4_115,2023-09-08T20:01:37.163Z,,0,,,4828.305999904638,completion,,,,,false,,,,777822.5999999046,777822.0999999046,772977.242,773051.2999999523,772993.794,777769.778,8,400,,,
trial,html.Screen,4_116_0,2023-09-08T20:01:43.796Z,,0,3,,6686.021999952267,response,ISIC_0070342.JPG,4,ISIC_0016131.JPG,ISIC_0070342.JPG,false,1,keypress(m),500,784455.9000000954,784455.7999999523,777753.256,777822.7999999523,777769.778,784399.4,8,400,17,,ISIC_0016131.JPG
break,html.Screen,4_116_1,2023-09-08T20:01:43.796Z,,0,,,NaN,,,,,,false,,,,784456.2000000477,784456.0999999046,,784456,,784399.4,8,400,,,
break_continue,html.Screen,4_116_2,2023-09-08T20:01:43.797Z,,0,,,NaN,,,,,,false,,,,784456.5,784456.4000000954,,784456.4000000954,,784399.4,8,400,,,
sequence,flow.Sequence,4_116,2023-09-08T20:01:43.797Z,,0,,,6686.622000095318,completion,,,,,false,,,,784456.5999999046,784456.4000000954,777753.256,777822.7999999523,777769.778,784399.4,8,400,,,
trial,html.Screen,4_117_0,2023-09-08T20:01:49.206Z,,0,3,,5466.500000095344,response,ISIC_8651053.JPG,5,ISIC_4907595.JPG,ISIC_8651053.JPG,false,1,keypress(m),500,789866,789865.9000000954,784382.698,784456.7000000477,784399.4,789809.883,8,400,18,,ISIC_4907595.JPG
break,html.Screen,4_117_1,2023-09-08T20:01:49.206Z,,0,,,NaN,,,,,,false,,,,789866.2999999523,789866.2999999523,,789866.2000000477,,789809.883,8,400,,,
break_continue,html.Screen,4_117_2,2023-09-08T20:01:49.206Z,,0,,,NaN,,,,,,false,,,,789866.5,789866.5,,789866.4000000954,,789809.883,8,400,,,
sequence,flow.Sequence,4_117,2023-09-08T20:01:49.207Z,,0,,,5467.099999999977,completion,,,,,false,,,,789866.5999999046,789866.5,784382.698,784456.7000000477,784399.4,789809.883,8,400,,,
trial,html.Screen,4_118_0,2023-09-08T20:01:56.056Z,,0,3,,6905.616999999969,response,ISIC_8297563.JPG,5,ISIC_1450548.JPG,ISIC_1450548.JPG,false,0,keypress(z),500,796715.5999999046,796715.5,789793.266,789866.5999999046,789809.883,796656.501,8,400,19,,ISIC_8297563.JPG
break,html.Screen,4_118_1,2023-09-08T20:01:56.056Z,,0,,,NaN,,,,,,false,,,,796716.0999999046,796715.9000000954,,796715.7999999523,,796656.501,8,400,,,
break_continue,html.Screen,4_118_2,2023-09-08T20:01:56.056Z,,0,,,NaN,,,,,,false,,,,796716.5,796716.4000000954,,796716.2999999523,,796656.501,8,400,,,
sequence,flow.Sequence,4_118,2023-09-08T20:01:56.057Z,,0,,,6906.517000095337,completion,,,,,false,,,,796716.5999999046,796716.4000000954,789793.266,789866.5999999046,789809.883,796656.501,8,400,,,
trial,html.Screen,4_119_0,2023-09-08T20:02:01.242Z,,0,3,,5245.298999952269,response,ISIC_9745562.JPG,5,ISIC_1152559.JPG,ISIC_1152559.JPG,false,0,keypress(z),500,801901.9000000954,801901.7999999523,796639.958,796716.7000000477,796656.501,801849.93,8,400,20,,ISIC_9745562.JPG
break,html.Screen,4_119_1,2023-09-08T20:02:01.242Z,,0,,,NaN,,,,,,false,,,,801902.2000000477,801902.0999999046,,801901.9000000954,,801849.93,8,400,,,
break_continue,html.Screen,4_119_2,2023-09-08T20:02:01.242Z,,0,,,NaN,,,,,,false,,,,801902.2999999523,801902.2999999523,,801902.2000000477,,801849.93,8,400,,,
sequence,flow.Sequence,4_119,2023-09-08T20:02:01.242Z,,0,,,5245.798999952269,completion,,,,,false,,,,801902.4000000954,801902.2999999523,796639.958,796716.7000000477,796656.501,801849.93,8,400,,,
trial,html.Screen,4_120_0,2023-09-08T20:02:09.132Z,,0,3,,7942.069999999949,response,ISIC_0064034.JPG,5,ISIC_0012708.JPG,ISIC_0012708.JPG,false,0,keypress(z),500,809792,809792,801833.367,801902.4000000954,801849.93,809731.968,8,400,21,,ISIC_0064034.JPG
break,html.Screen,4_120_1,2023-09-08T20:02:09.132Z,,0,,,NaN,,,,,,false,,,,809792.2999999523,809792.2999999523,,809792.2000000477,,809731.968,8,400,,,
break_continue,html.Screen,4_120_2,2023-09-08T20:02:09.133Z,,0,,,NaN,,,,,,false,,,,809792.5999999046,809792.5,,809792.5,,809731.968,8,400,,,
sequence,flow.Sequence,4_120,2023-09-08T20:02:09.133Z,,0,,,7942.569999999949,completion,,,,,false,,,,809792.7999999523,809792.5,801833.367,801902.4000000954,801849.93,809731.968,8,400,,,
trial,html.Screen,4_121_0,2023-09-08T20:02:14.496Z,,0,3,,5423.932000095374,response,ISIC_0034052.JPG,5,ISIC_4024062.JPG,ISIC_4024062.JPG,false,0,keypress(z),500,815156.0999999046,815155.9000000954,809715.257,809792.7999999523,809731.968,815109.09,8,400,22,,ISIC_0034052.JPG
break,html.Screen,4_121_1,2023-09-08T20:02:14.496Z,,0,,,NaN,,,,,,false,,,,815156.4000000954,815156.2999999523,,815156.0999999046,,815109.09,8,400,,,
break_continue,html.Screen,4_121_2,2023-09-08T20:02:14.497Z,,0,,,NaN,,,,,,false,,,,815156.5999999046,815156.5,,815156.5,,815109.09,8,400,,,
sequence,flow.Sequence,4_121,2023-09-08T20:02:14.497Z,,0,,,5424.5320000000065,completion,,,,,false,,,,815156.7000000477,815156.5,809715.257,809792.7999999523,809731.968,815109.09,8,400,,,
trial,html.Screen,4_122_0,2023-09-08T20:02:19.938Z,,0,3,,5489.110000047716,response,ISIC_5272837.JPG,5,ISIC_0062301.JPG,ISIC_0062301.JPG,false,0,keypress(z),500,820598.2999999523,820598.2000000477,815092.465,815156.7000000477,815109.09,820536.314,8,400,23,,ISIC_5272837.JPG
break,html.Screen,4_122_1,2023-09-08T20:02:19.939Z,,0,,,NaN,,,,,,false,,,,820598.7000000477,820598.5999999046,,820598.4000000954,,820536.314,8,400,,,
break_continue,html.Screen,4_122_2,2023-09-08T20:02:19.939Z,,0,,,NaN,,,,,,false,,,,820599.0999999046,820598.9000000954,,820598.7999999523,,820536.314,8,400,,,
sequence,flow.Sequence,4_122,2023-09-08T20:02:19.939Z,,0,,,5489.8100000954,completion,,,,,false,,,,820599.0999999046,820598.9000000954,815092.465,815156.7000000477,815109.09,820536.314,8,400,,,
trial,html.Screen,4_123_0,2023-09-08T20:02:25.627Z,,0,3,,5750.886000047671,response,ISIC_0013861.JPG,5,ISIC_9228573.JPG,ISIC_9228573.JPG,false,0,keypress(z),500,826287.2999999523,826287.2000000477,820519.766,820599.2000000477,820536.314,826230.713,8,400,24,,ISIC_0013861.JPG
break,html.Screen,4_123_1,2023-09-08T20:02:25.628Z,,0,,,NaN,,,,,,false,,,,826287.5999999046,826287.5999999046,,826287.2999999523,,826230.713,8,400,,,
break_continue,html.Screen,4_123_2,2023-09-08T20:02:25.628Z,,0,,,NaN,,,,,,false,,,,826287.9000000954,826287.7999999523,,826287.7999999523,,826230.713,8,400,,,
sequence,flow.Sequence,4_123,2023-09-08T20:02:25.628Z,,0,,,5751.485999952303,completion,,,,,false,,,,826288,826287.7999999523,820519.766,820599.0999999046,820536.314,826230.713,8,400,,,
trial,html.Screen,4_124_0,2023-09-08T20:02:34.545Z,,0,3,,8974.386999904644,response,ISIC_0072294.JPG,5,ISIC_1870415.JPG,ISIC_1870415.JPG,false,0,keypress(z),500,835205.2999999523,835205.0999999046,826214.114,826288.0999999046,826230.713,835148.069,8,400,25,,ISIC_0072294.JPG
break,html.Screen,4_124_1,2023-09-08T20:02:34.547Z,,0,,,NaN,,,,,,false,,,,835206.5999999046,835206.5,,835206.2000000477,,835148.069,8,400,,,
break_continue,html.Screen,4_124_2,2023-09-08T20:02:34.547Z,,0,,,NaN,,,,,,false,,,,835206.9000000954,835206.9000000954,,835206.7999999523,,835148.069,8,400,,,
sequence,flow.Sequence,4_124,2023-09-08T20:02:34.547Z,,0,,,8976.187000095379,completion,,,,,false,,,,835207.0999999046,835206.9000000954,826214.114,826288.0999999046,826230.713,835148.069,8,400,,,
trial,html.Screen,4_125_0,2023-09-08T20:02:39.716Z,,0,3,,5227.930999999982,response,ISIC_0010587.JPG,5,ISIC_3439215.JPG,ISIC_0010587.JPG,false,1,keypress(m),500,840376,840376,835131.524,835207.0999999046,835148.069,840324.793,8,400,26,,ISIC_3439215.JPG
break,html.Screen,4_125_1,2023-09-08T20:02:39.717Z,,0,,,NaN,,,,,,false,,,,840376.4000000954,840376.2999999523,,840376.2000000477,,840324.793,8,400,,,
break_continue,html.Screen,4_125_2,2023-09-08T20:02:39.717Z,,0,,,NaN,,,,,,false,,,,840376.5999999046,840376.5999999046,,840376.5,,840324.793,8,400,,,
sequence,flow.Sequence,4_125,2023-09-08T20:02:39.717Z,,0,,,5228.530999904615,completion,,,,,false,,,,840376.7000000477,840376.5999999046,835131.524,835207.0999999046,835148.069,840324.793,8,400,,,
trial,html.Screen,4_126_0,2023-09-08T20:02:46.635Z,,0,3,,6969.806999904686,response,ISIC_0014684.JPG,5,ISIC_3666219.JPG,ISIC_0014684.JPG,false,1,keypress(m),500,847294.7000000477,847294.5999999046,840308.205,840376.7000000477,840324.793,847238.248,8,400,27,,ISIC_3666219.JPG
