sender,sender_type,sender_id,timestamp,meta,,blockNo,condition,duration,ended_on,img_left,img_reveal,img_right,loser,practice,response,response_action,selection_duration,time_commit,time_end,time_render,time_run,time_show,time_switch,total_blocks,total_trials,trialNo,url,winner
informed_consent,html.Screen,0,2023-09-08T16:06:13.504Z,"{""labjs_version"":""20.2.4"",""labjs_build"":{""flavor"":""development"",""commit"":""f5b4a49f956347addd546a832a3327688c2c0fef""},""location"":""https://labjs.felixhenninger.com/api/labjs_preview/index.html"",""userAgent"":""Mozilla/5.0 (Windows NT 10.0; Win64; x64) AppleWebKit/537.36 (KHTML, like Gecko) Chrome/116.0.0.0 Safari/537.36"",""platform"":""Win32"",""language"":""en-AU"",""locale"":""en-US"",""timeZone"":""America/Chicago"",""timezoneOffset"":300,""screen_width"":1680,""screen_height"":1050,""scroll_width"":1296,""scroll_height"":688,""window_innerWidth"":1296,""window_innerHeight"":736,""devicePixelRatio"":1}",,,,73796.18499990464,response,,,,,,consent,click button,,74518.59999990463,74510.09999990463,697.203,875.7999999523163,713.915,74357.213,,,,{},
Welcome,html.Screen,1,2023-09-08T16:06:43.457Z,,,,irregular,30112.98700004768,response,,,,,,continue,click button,,104471,104470.20000004768,74340.528,74518.90000009537,74357.213,104315.491,,,,,
trial,html.Screen,2_0_0,2023-09-08T16:06:50.196Z,,0,0,,6894.5090000000055,response,ISIC_0061792.JPG,,ISIC_4679428.JPG,ISIC_4679428.JPG,true,0,keypress(z),500,111210.20000004768,111210,104298.829,104471.20000004768,104315.491,111045.26,1,6,1,,ISIC_0061792.JPG
sequence,flow.Sequence,2_0,2023-09-08T16:06:50.196Z,,0,,,6894.5090000000055,completion,,,,,true,,,,111210.40000009537,111210,104298.829,104471.20000004768,104315.491,111045.26,1,6,,,
trial,html.Screen,2_1_0,2023-09-08T16:06:52.871Z,,0,0,,2839.7400000000052,response,ISIC_0776486.JPG,,ISIC_5199497.JPG,ISIC_5199497.JPG,true,0,keypress(z),500,113885.09999990463,113885,111028.736,111210.5,111045.26,113717.162,1,6,2,,ISIC_0776486.JPG
sequence,flow.Sequence,2_1,2023-09-08T16:06:52.871Z,,0,,,2839.7400000000052,completion,,,,,true,,,,113885.29999995232,113885,111028.736,111210.5,111045.26,113717.162,1,6,,,
trial,html.Screen,2_2_0,2023-09-08T16:06:58.169Z,,0,0,,5465.738000095371,response,ISIC_8575776.JPG,,ISIC_2556187.JPG,ISIC_2556187.JPG,true,0,keypress(z),500,119183.40000009537,119182.90000009537,113700.454,113885.5,113717.162,119027.568,1,6,3,,ISIC_8575776.JPG
sequence,flow.Sequence,2_2,2023-09-08T16:06:58.170Z,,0,,,5465.738000095371,completion,,,,,true,,,,119184.09999990463,119182.90000009537,113700.454,113885.5,113717.162,119027.568,1,6,,,
trial,html.Screen,2_3_0,2023-09-08T16:07:01.314Z,,0,0,,3300.1320000476844,response,ISIC_9238366.JPG,,ISIC_8141769.JPG,ISIC_8141769.JPG,true,0,keypress(z),500,122327.79999995232,122327.70000004768,119010.771,119184.59999990463,119027.568,122166.911,1,6,4,,ISIC_9238366.JPG
sequence,flow.Sequence,2_3,2023-09-08T16:07:01.314Z,,0,,,3300.1320000476844,completion,,,,,true,,,,122328.29999995232,122327.70000004768,119010.771,119184.40000009537,119027.568,122166.911,1,6,,,
trial,html.Screen,2_4_0,2023-09-08T16:07:04.838Z,,0,0,,3683.68899990464,response,ISIC_8949026.JPG,,ISIC_9959593.JPG,ISIC_9959593.JPG,true,0,keypress(z),500,125851.20000004768,125850.59999990463,122150.404,122328.40000009537,122166.911,125690.419,1,6,5,,ISIC_8949026.JPG
sequence,flow.Sequence,2_4,2023-09-08T16:07:04.839Z,,0,,,3683.68899990464,completion,,,,,true,,,,125851.90000009537,125850.59999990463,122150.404,122328.40000009537,122166.911,125690.419,1,6,,,
trial,html.Screen,2_5_0,2023-09-08T16:07:08.202Z,,0,0,,3524.481000095373,response,ISIC_0460240.JPG,,ISIC_0010479.JPG,ISIC_0010479.JPG,true,0,keypress(z),500,129215.40000009537,129214.90000009537,125673.782,125852.29999995232,125690.419,129063.715,1,6,6,,ISIC_0460240.JPG
sequence,flow.Sequence,2_5,2023-09-08T16:07:08.203Z,,0,,,3524.481000095373,completion,,,,,true,,,,129216.09999990463,129214.90000009537,125673.782,125852.09999990463,125690.419,129063.715,1,6,,,
loop,flow.Loop,2,2023-09-08T16:07:08.203Z,,,,,24899.409000095373,completion,,,,,true,,,,129216.59999990463,129214.90000009537,104298.829,104471.20000004768,104315.491,129063.715,1,6,,,
exp_instructions,html.Screen,3,2023-09-08T16:07:28.540Z,,,,,20488.285000000003,response,,,,,,continue,keypress(Space),,149552.90000009537,149552,129030.446,129216.90000009537,129063.715,149403.324,,,,,
trial,html.Screen,4_0_0,2023-09-08T16:07:33.894Z,,0,1,,5503.676000000007,response,ISIC_0033485.JPG,5,ISIC_0031821.JPG,ISIC_0031821.JPG,false,0,keypress(z),500,154907.5,154907,149370.087,149553.29999995232,149403.324,154763.707,8,400,1,,ISIC_0033485.JPG
break,html.Screen,4_0_1,2023-09-08T16:07:33.896Z,,0,,,NaN,,,,,,false,,,,154909.59999990463,154909,,154907.79999995232,,154763.707,8,400,,,
break_continue,html.Screen,4_0_2,2023-09-08T16:07:33.898Z,,0,,,NaN,,,,,,false,,,,154910.79999995232,154910.40000009537,,154910,,154763.707,8,400,,,
sequence,flow.Sequence,4_0,2023-09-08T16:07:33.898Z,,0,,,5507.076000095374,completion,,,,,false,,,,154911.29999995232,154910.40000009537,149370.087,149553.29999995232,149403.324,154763.707,8,400,,,
trial,html.Screen,4_1_0,2023-09-08T16:07:41.700Z,,0,1,,7948.892999904638,response,ISIC_0028275.JPG,5,ISIC_0030751.JPG,ISIC_0028275.JPG,false,1,keypress(m),500,162713,162712.59999990463,154730.324,154911.59999990463,154763.707,162545.632,8,400,2,,ISIC_0030751.JPG
break,html.Screen,4_1_1,2023-09-08T16:07:41.702Z,,0,,,NaN,,,,,,false,,,,162714.79999995232,162714.29999995232,,162713.5,,162545.632,8,400,,,
break_continue,html.Screen,4_1_2,2023-09-08T16:07:41.702Z,,0,,,NaN,,,,,,false,,,,162715.70000004768,162715.5,,162715.09999990463,,162545.632,8,400,,,
sequence,flow.Sequence,4_1,2023-09-08T16:07:41.703Z,,0,,,7951.793000000005,completion,,,,,false,,,,162716.20000004768,162715.5,154730.324,154911.40000009537,154763.707,162545.632,8,400,,,
trial,html.Screen,4_2_0,2023-09-08T16:07:47.104Z,,0,1,,5571.068000047671,response,ISIC_1605945.JPG,5,ISIC_1962845.JPG,ISIC_1962845.JPG,false,0,keypress(z),500,168117.09999990463,168116.70000004768,162529.021,162716.5,162545.632,167956.836,8,400,3,,ISIC_1605945.JPG
break,html.Screen,4_2_1,2023-09-08T16:07:47.106Z,,0,,,NaN,,,,,,false,,,,168118.79999995232,168118.20000004768,,168117.5,,167956.836,8,400,,,
break_continue,html.Screen,4_2_2,2023-09-08T16:07:47.106Z,,0,,,NaN,,,,,,false,,,,168119.70000004768,168119.40000009537,,168119,,167956.836,8,400,,,
sequence,flow.Sequence,4_2,2023-09-08T16:07:47.107Z,,0,,,5573.768000095355,completion,,,,,false,,,,168120,168119.40000009537,162529.021,162716.40000009537,162545.632,167956.836,8,400,,,
trial,html.Screen,4_3_0,2023-09-08T16:07:53.007Z,,0,1,,6062.564000095357,response,ISIC_0025489.JPG,5,ISIC_0032709.JPG,ISIC_0025489.JPG,false,1,keypress(m),500,174019.79999995232,174019.40000009537,167939.497,168120.29999995232,167956.836,173850.954,8,400,4,,ISIC_0032709.JPG
break,html.Screen,4_3_1,2023-09-08T16:07:53.008Z,,0,,,NaN,,,,,,false,,,,174021.59999990463,174021,,174020.20000004768,,173850.954,8,400,,,
break_continue,html.Screen,4_3_2,2023-09-08T16:07:53.009Z,,0,,,NaN,,,,,,false,,,,174022.5,174022.29999995232,,174021.79999995232,,173850.954,8,400,,,
sequence,flow.Sequence,4_3,2023-09-08T16:07:53.010Z,,0,,,6065.463999952306,completion,,,,,false,,,,174022.90000009537,174022.29999995232,167939.497,168120.20000004768,167956.836,173850.954,8,400,,,
trial,html.Screen,4_4_0,2023-09-08T16:07:58.501Z,,0,1,,5662.746000047686,response,ISIC_0033114.JPG,6,ISIC_2908315.JPG,ISIC_2908315.JPG,false,0,keypress(z),500,179513.90000009537,179513.70000004768,173834.284,174023.29999995232,173850.954,179344.864,8,400,5,,ISIC_0033114.JPG
break,html.Screen,4_4_1,2023-09-08T16:07:58.501Z,,0,,,NaN,,,,,,false,,,,179514.29999995232,179514.20000004768,,179513.90000009537,,179344.864,8,400,,,
break_continue,html.Screen,4_4_2,2023-09-08T16:07:58.501Z,,0,,,NaN,,,,,,false,,,,179514.5,179514.40000009537,,179514.40000009537,,179344.864,8,400,,,
sequence,flow.Sequence,4_4,2023-09-08T16:07:58.501Z,,0,,,5663.4460000953695,completion,,,,,false,,,,179514.59999990463,179514.40000009537,173834.284,174023.20000004768,173850.954,179344.864,8,400,,,
trial,html.Screen,4_5_0,2023-09-08T16:08:03.815Z,,0,1,,5483.435999952315,response,ISIC_0065727.JPG,4,ISIC_0006772.JPG,ISIC_0006772.JPG,false,0,keypress(z),500,184828.5,184828.29999995232,179328.308,179514.59999990463,179344.864,184671.994,8,400,6,,ISIC_0065727.JPG
break,html.Screen,4_5_1,2023-09-08T16:08:03.816Z,,0,,,NaN,,,,,,false,,,,184829.40000009537,184829.09999990463,,184828.70000004768,,184671.994,8,400,,,
break_continue,html.Screen,4_5_2,2023-09-08T16:08:03.817Z,,0,,,NaN,,,,,,false,,,,184829.70000004768,184829.59999990463,,184829.5,,184671.994,8,400,,,
sequence,flow.Sequence,4_5,2023-09-08T16:08:03.817Z,,0,,,5484.735999904631,completion,,,,,false,,,,184829.90000009537,184829.59999990463,179328.308,179514.59999990463,179344.864,184671.994,8,400,,,
trial,html.Screen,4_6_0,2023-09-08T16:08:09.885Z,,0,1,,6225.505999999994,response,ISIC_0010967.JPG,5,ISIC_2975167.JPG,ISIC_2975167.JPG,false,0,keypress(z),500,190897.5,190897.5,184655.396,184830,184671.994,190733.67,8,400,7,,ISIC_0010967.JPG
break,html.Screen,4_6_1,2023-09-08T16:08:09.886Z,,0,,,NaN,,,,,,false,,,,190898.40000009537,190898,,190897.70000004768,,190733.67,8,400,,,
break_continue,html.Screen,4_6_2,2023-09-08T16:08:09.886Z,,0,,,NaN,,,,,,false,,,,190898.90000009537,190898.70000004768,,190898.5,,190733.67,8,400,,,
sequence,flow.Sequence,4_6,2023-09-08T16:08:09.886Z,,0,,,6226.706000047678,completion,,,,,false,,,,190899,190898.70000004768,184655.396,184829.90000009537,184671.994,190733.67,8,400,,,
trial,html.Screen,4_7_0,2023-09-08T16:08:15.041Z,,0,1,,5320.230000095355,response,ISIC_0027260.JPG,5,ISIC_0069260.JPG,ISIC_0027260.JPG,false,1,keypress(m),500,196054,196053.90000009537,190717.014,190899.20000004768,190733.67,195893.878,8,400,8,,ISIC_0069260.JPG
break,html.Screen,4_7_1,2023-09-08T16:08:15.042Z,,0,,,NaN,,,,,,false,,,,196054.70000004768,196054.5,,196054.20000004768,,195893.878,8,400,,,
break_continue,html.Screen,4_7_2,2023-09-08T16:08:15.042Z,,0,,,NaN,,,,,,false,,,,196055,196055,,196054.79999995232,,195893.878,8,400,,,
sequence,flow.Sequence,4_7,2023-09-08T16:08:15.042Z,,0,,,5321.329999999987,completion,,,,,false,,,,196055.20000004768,196055,190717.014,190899.09999990463,190733.67,195893.878,8,400,,,
trial,html.Screen,4_8_0,2023-09-08T16:08:19.686Z,,0,1,,4804.421999952319,response,ISIC_0001152.JPG,5,ISIC_8468512.JPG,ISIC_8468512.JPG,false,0,keypress(z),500,200698.59999990463,200698.29999995232,195877.103,196055.29999995232,195893.878,200536.115,8,400,9,,ISIC_0001152.JPG
break,html.Screen,4_8_1,2023-09-08T16:08:19.686Z,,0,,,NaN,,,,,,false,,,,200699.20000004768,200699,,200698.70000004768,,200536.115,8,400,,,
break_continue,html.Screen,4_8_2,2023-09-08T16:08:19.687Z,,0,,,NaN,,,,,,false,,,,200699.5,200699.5,,200699.29999995232,,200536.115,8,400,,,
sequence,flow.Sequence,4_8,2023-09-08T16:08:19.687Z,,0,,,4805.622000000003,completion,,,,,false,,,,200699.59999990463,200699.5,195877.103,196055.20000004768,195893.878,200536.115,8,400,,,
trial,html.Screen,4_9_0,2023-09-08T16:08:25.338Z,,0,1,,5814.085000047693,response,ISIC_3979323.JPG,6,ISIC_0063852.JPG,ISIC_3979323.JPG,false,1,keypress(m),500,206350.5,206350.20000004768,200519.394,200699.59999990463,200536.115,206180.453,8,400,10,,ISIC_0063852.JPG
break,html.Screen,4_9_1,2023-09-08T16:08:25.339Z,,0,,,NaN,,,,,,false,,,,206351.79999995232,206351.40000009537,,206350.90000009537,,206180.453,8,400,,,
break_continue,html.Screen,4_9_2,2023-09-08T16:08:25.340Z,,0,,,NaN,,,,,,false,,,,206352.70000004768,206352.5,,206352.09999990463,,206180.453,8,400,,,
sequence,flow.Sequence,4_9,2023-09-08T16:08:25.340Z,,0,,,5816.385000000009,completion,,,,,false,,,,206353,206352.5,200519.394,200699.59999990463,200536.115,206180.453,8,400,,,
trial,html.Screen,4_10_0,2023-09-08T16:08:33.592Z,,0,1,,8423.947000095359,response,ISIC_1372928.JPG,6,ISIC_0033004.JPG,ISIC_0033004.JPG,false,0,keypress(z),500,214604.70000004768,214604.40000009537,206163.785,206353.20000004768,206180.453,214446.592,8,400,11,,ISIC_1372928.JPG
break,html.Screen,4_10_1,2023-09-08T16:08:33.593Z,,0,,,NaN,,,,,,false,,,,214606.29999995232,214605.70000004768,,214605,,214446.592,8,400,,,
break_continue,html.Screen,4_10_2,2023-09-08T16:08:33.594Z,,0,,,NaN,,,,,,false,,,,214607,214606.79999995232,,214606.5,,214446.592,8,400,,,
sequence,flow.Sequence,4_10,2023-09-08T16:08:33.594Z,,0,,,8426.346999952308,completion,,,,,false,,,,214607.29999995232,214606.79999995232,206163.785,206353.20000004768,206180.453,214446.592,8,400,,,
trial,html.Screen,4_11_0,2023-09-08T16:08:38.134Z,,0,1,,4700.1080000476795,response,ISIC_5629390.JPG,6,ISIC_8028631.JPG,ISIC_8028631.JPG,false,0,keypress(z),500,219146.79999995232,219146.70000004768,214429.84,214607.59999990463,214446.592,218988.816,8,400,12,,ISIC_5629390.JPG
break,html.Screen,4_11_1,2023-09-08T16:08:38.135Z,,0,,,NaN,,,,,,false,,,,219147.40000009537,219147.20000004768,,219147,,218988.816,8,400,,,
break_continue,html.Screen,4_11_2,2023-09-08T16:08:38.135Z,,0,,,NaN,,,,,,false,,,,219147.79999995232,219147.70000004768,,219147.5,,218988.816,8,400,,,
sequence,flow.Sequence,4_11,2023-09-08T16:08:38.135Z,,0,,,4701.1080000476795,completion,,,,,false,,,,219147.90000009537,219147.70000004768,214429.84,214607.5,214446.592,218988.816,8,400,,,
trial,html.Screen,4_12_0,2023-09-08T16:08:41.946Z,,0,1,,3969.384000047692,response,ISIC_6963954.JPG,5,ISIC_0027721.JPG,ISIC_6963954.JPG,false,1,keypress(m),500,222958.40000009537,222958.20000004768,218972.148,219147.90000009537,218988.816,222796.241,8,400,13,,ISIC_0027721.JPG
break,html.Screen,4_12_1,2023-09-08T16:08:41.946Z,,0,,,NaN,,,,,,false,,,,222959.09999990463,222958.90000009537,,222958.5,,222796.241,8,400,,,
break_continue,html.Screen,4_12_2,2023-09-08T16:08:41.947Z,,0,,,NaN,,,,,,false,,,,222959.5,222959.40000009537,,222959.20000004768,,222796.241,8,400,,,
sequence,flow.Sequence,4_12,2023-09-08T16:08:41.947Z,,0,,,3970.584000095376,completion,,,,,false,,,,222959.59999990463,222959.40000009537,218972.148,219147.90000009537,218988.816,222796.241,8,400,,,
trial,html.Screen,4_13_0,2023-09-08T16:08:49.230Z,,0,1,,7446.159000095358,response,ISIC_6606131.JPG,5,ISIC_5048124.JPG,ISIC_6606131.JPG,false,1,keypress(m),500,230242.70000004768,230242.40000009537,222779.539,222959.70000004768,222796.241,230076.995,8,400,14,,ISIC_5048124.JPG
break,html.Screen,4_13_1,2023-09-08T16:08:49.231Z,,0,,,NaN,,,,,,false,,,,230243.79999995232,230243.5,,230243,,230076.995,8,400,,,
break_continue,html.Screen,4_13_2,2023-09-08T16:08:49.231Z,,0,,,NaN,,,,,,false,,,,230244.29999995232,230244.09999990463,,230243.90000009537,,230076.995,8,400,,,
sequence,flow.Sequence,4_13,2023-09-08T16:08:49.232Z,,0,,,7447.8589999046235,completion,,,,,false,,,,230244.5,230244.09999990463,222779.539,222959.70000004768,222796.241,230076.995,8,400,,,
trial,html.Screen,4_14_0,2023-09-08T16:08:53.544Z,,0,1,,4479.405000095372,response,ISIC_5913155.JPG,5,ISIC_0862350.JPG,ISIC_5913155.JPG,false,1,keypress(m),500,234556.5,234556.40000009537,230060.298,230244.70000004768,230076.995,234385.297,8,400,15,,ISIC_0862350.JPG
break,html.Screen,4_14_1,2023-09-08T16:08:53.544Z,,0,,,NaN,,,,,,false,,,,234557.20000004768,234556.79999995232,,234556.59999990463,,234385.297,8,400,,,
break_continue,html.Screen,4_14_2,2023-09-08T16:08:53.545Z,,0,,,NaN,,,,,,false,,,,234557.59999990463,234557.5,,234557.40000009537,,234385.297,8,400,,,
sequence,flow.Sequence,4_14,2023-09-08T16:08:53.545Z,,0,,,4480.505000000005,completion,,,,,false,,,,234557.79999995232,234557.5,230060.298,230244.59999990463,230076.995,234385.297,8,400,,,
trial,html.Screen,4_15_0,2023-09-08T16:08:58.684Z,,0,1,,5310.802999904641,response,ISIC_8901784.JPG,4,ISIC_6801988.JPG,ISIC_8901784.JPG,false,1,keypress(m),500,239696.5,239696.09999990463,234368.805,234557.79999995232,234385.297,239528.722,8,400,16,,ISIC_6801988.JPG
break,html.Screen,4_15_1,2023-09-08T16:08:58.685Z,,0,,,NaN,,,,,,false,,,,239698.29999995232,239697.79999995232,,239697,,239528.722,8,400,,,
break_continue,html.Screen,4_15_2,2023-09-08T16:08:58.686Z,,0,,,NaN,,,,,,false,,,,239699.20000004768,239699,,239698.59999990463,,239528.722,8,400,,,
sequence,flow.Sequence,4_15,2023-09-08T16:08:58.687Z,,0,,,5313.703000000009,completion,,,,,false,,,,239699.70000004768,239699,234368.805,234557.79999995232,234385.297,239528.722,8,400,,,
trial,html.Screen,4_16_0,2023-09-08T16:09:03.480Z,,0,1,,4964.377999904624,response,ISIC_0057307.JPG,5,ISIC_0015390.JPG,ISIC_0057307.JPG,false,1,keypress(m),500,244493.20000004768,244493.09999990463,239512.115,239700,239528.722,244338.025,8,400,17,,ISIC_0015390.JPG
break,html.Screen,4_16_1,2023-09-08T16:09:03.481Z,,0,,,NaN,,,,,,false,,,,244493.70000004768,244493.59999990463,,244493.29999995232,,244338.025,8,400,,,
break_continue,html.Screen,4_16_2,2023-09-08T16:09:03.481Z,,0,,,NaN,,,,,,false,,,,244493.79999995232,244493.79999995232,,244493.70000004768,,244338.025,8,400,,,
sequence,flow.Sequence,4_16,2023-09-08T16:09:03.481Z,,0,,,4965.077999952307,completion,,,,,false,,,,244493.90000009537,244493.79999995232,239512.115,239699.90000009537,239528.722,244338.025,8,400,,,
trial,html.Screen,4_17_0,2023-09-08T16:09:09.531Z,,0,1,,6205.574999904638,response,ISIC_8916136.JPG,5,ISIC_0360367.JPG,ISIC_8916136.JPG,false,1,keypress(m),500,250544,250543.59999990463,244321.457,244494,244338.025,250383.238,8,400,18,,ISIC_0360367.JPG
break,html.Screen,4_17_1,2023-09-08T16:09:09.533Z,,0,,,NaN,,,,,,false,,,,250545.5,250545,,250544.40000009537,,250383.238,8,400,,,
break_continue,html.Screen,4_17_2,2023-09-08T16:09:09.534Z,,0,,,NaN,,,,,,false,,,,250546.59999990463,250546,,250545.79999995232,,250383.238,8,400,,,
sequence,flow.Sequence,4_17,2023-09-08T16:09:09.535Z,,0,,,6207.975000000006,completion,,,,,false,,,,250547,250546,244321.457,244494,244338.025,250383.238,8,400,,,
trial,html.Screen,4_18_0,2023-09-08T16:09:16.622Z,,0,1,,7250.761999999988,response,ISIC_0182730.JPG,6,ISIC_5518595.JPG,ISIC_5518595.JPG,false,0,keypress(z),500,257634.09999990463,257634,250366.4,250547.40000009537,250383.238,257463.571,8,400,19,,ISIC_0182730.JPG
break,html.Screen,4_18_1,2023-09-08T16:09:16.622Z,,0,,,NaN,,,,,,false,,,,257634.79999995232,257634.5,,257634.29999995232,,257463.571,8,400,,,
break_continue,html.Screen,4_18_2,2023-09-08T16:09:16.623Z,,0,,,NaN,,,,,,false,,,,257635,257635,,257634.79999995232,,257463.571,8,400,,,
sequence,flow.Sequence,4_18,2023-09-08T16:09:16.623Z,,0,,,7251.761999999988,completion,,,,,false,,,,257635.20000004768,257635,250366.4,250547.29999995232,250383.238,257463.571,8,400,,,
trial,html.Screen,4_19_0,2023-09-08T16:09:23.154Z,,0,1,,6702.429000000004,response,ISIC_0016161.JPG,6,ISIC_0010587.JPG,ISIC_0010587.JPG,false,0,keypress(z),500,264166.40000009537,264166,257446.874,257635.20000004768,257463.571,264009.636,8,400,20,,ISIC_0016161.JPG
break,html.Screen,4_19_1,2023-09-08T16:09:23.156Z,,0,,,NaN,,,,,,false,,,,264168.09999990463,264167.7000000477,,264166.90000009537,,264009.636,8,400,,,
break_continue,html.Screen,4_19_2,2023-09-08T16:09:23.156Z,,0,,,NaN,,,,,,false,,,,264169,264168.7000000477,,264168.40000009537,,264009.636,8,400,,,
sequence,flow.Sequence,4_19,2023-09-08T16:09:23.157Z,,0,,,6705.129000047687,completion,,,,,false,,,,264169.40000009537,264168.7000000477,257446.874,257635.20000004768,257463.571,264009.636,8,400,,,
trial,html.Screen,4_20_0,2023-09-08T16:09:28.714Z,,0,1,,5716.463999904634,response,ISIC_0001148.JPG,4,ISIC_4762702.JPG,ISIC_4762702.JPG,false,0,keypress(z),500,269726.5,269726.09999990463,263993.169,264169.7000000477,264009.636,269587.285,8,400,21,,ISIC_0001148.JPG
break,html.Screen,4_20_1,2023-09-08T16:09:28.716Z,,0,,,NaN,,,,,,false,,,,269728.09999990463,269727.7999999523,,269727.2999999523,,269587.285,8,400,,,
break_continue,html.Screen,4_20_2,2023-09-08T16:09:28.716Z,,0,,,NaN,,,,,,false,,,,269728.59999990463,269728.5,,269728.2000000477,,269587.285,8,400,,,
sequence,flow.Sequence,4_20,2023-09-08T16:09:28.716Z,,0,,,5718.864000000001,completion,,,,,false,,,,269728.7000000477,269728.5,263993.169,264169.59999990463,264009.636,269587.285,8,400,,,
trial,html.Screen,4_21_0,2023-09-08T16:09:32.900Z,,0,1,,4325.115000095393,response,ISIC_8197240.JPG,5,ISIC_6557642.JPG,ISIC_6557642.JPG,false,0,keypress(z),500,273912.7000000477,273912.40000009537,269570.502,269729,269587.285,273745.272,8,400,22,,ISIC_8197240.JPG
break,html.Screen,4_21_1,2023-09-08T16:09:32.901Z,,0,,,NaN,,,,,,false,,,,273913.59999990463,273913.2999999523,,273912.7999999523,,273745.272,8,400,,,
break_continue,html.Screen,4_21_2,2023-09-08T16:09:32.902Z,,0,,,NaN,,,,,,false,,,,273914.09999990463,273913.90000009537,,273913.7000000477,,273745.272,8,400,,,
sequence,flow.Sequence,4_21,2023-09-08T16:09:32.902Z,,0,,,4326.615000095393,completion,,,,,false,,,,273914.2000000477,273913.90000009537,269570.502,269728.90000009537,269587.285,273745.272,8,400,,,
trial,html.Screen,4_22_0,2023-09-08T16:09:37.897Z,,0,1,,5163.728000000003,response,ISIC_5751956.JPG,4,ISIC_0030342.JPG,ISIC_0030342.JPG,false,0,keypress(z),500,278909.40000009537,278909,273728.742,273914.40000009537,273745.272,278755.084,8,400,23,,ISIC_5751956.JPG
break,html.Screen,4_22_1,2023-09-08T16:09:37.899Z,,0,,,NaN,,,,,,false,,,,278911.09999990463,278910.59999990463,,278909.90000009537,,278755.084,8,400,,,
break_continue,html.Screen,4_22_2,2023-09-08T16:09:37.899Z,,0,,,NaN,,,,,,false,,,,278912,278911.7999999523,,278911.40000009537,,278755.084,8,400,,,
sequence,flow.Sequence,4_22,2023-09-08T16:09:37.900Z,,0,,,5166.527999952319,completion,,,,,false,,,,278912.40000009537,278911.7999999523,273728.742,273914.2999999523,273745.272,278755.084,8,400,,,
trial,html.Screen,4_23_0,2023-09-08T16:09:42.630Z,,0,1,,4887.11600004771,response,ISIC_3074949.JPG,5,ISIC_0033689.JPG,ISIC_3074949.JPG,false,1,keypress(m),500,283642.2000000477,283642.2000000477,278738.442,278912.7000000477,278755.084,283480.981,8,400,24,,ISIC_0033689.JPG
break,html.Screen,4_23_1,2023-09-08T16:09:42.630Z,,0,,,NaN,,,,,,false,,,,283643,283642.7000000477,,283642.40000009537,,283480.981,8,400,,,
break_continue,html.Screen,4_23_2,2023-09-08T16:09:42.631Z,,0,,,NaN,,,,,,false,,,,283643.40000009537,283643.2000000477,,283643.09999990463,,283480.981,8,400,,,
sequence,flow.Sequence,4_23,2023-09-08T16:09:42.631Z,,0,,,4888.11600004771,completion,,,,,false,,,,283643.5,283643.2000000477,278738.442,278912.59999990463,278755.084,283480.981,8,400,,,
trial,html.Screen,4_24_0,2023-09-08T16:09:47.578Z,,0,1,,5109.818999952287,response,ISIC_8967786.JPG,5,ISIC_1858989.JPG,ISIC_1858989.JPG,false,0,keypress(z),500,288590.90000009537,288590.7999999523,283464.342,283643.5,283480.981,288423.777,8,400,25,,ISIC_8967786.JPG
break,html.Screen,4_24_1,2023-09-08T16:09:47.579Z,,0,,,NaN,,,,,,false,,,,288591.5,288591.2999999523,,288591,,288423.777,8,400,,,
break_continue,html.Screen,4_24_2,2023-09-08T16:09:47.579Z,,0,,,NaN,,,,,,false,,,,288591.7999999523,288591.7999999523,,288591.59999990463,,288423.777,8,400,,,
sequence,flow.Sequence,4_24,2023-09-08T16:09:47.579Z,,0,,,5110.818999952287,completion,,,,,false,,,,288591.90000009537,288591.7999999523,283464.342,283643.5,283480.981,288423.777,8,400,,,
trial,html.Screen,4_25_0,2023-09-08T16:09:54.847Z,,0,1,,7435.722999999998,response,ISIC_5688950.JPG,5,ISIC_4009870.JPG,ISIC_5688950.JPG,false,1,keypress(m),500,295859.7000000477,295859.5,288407.081,288592.09999990463,288423.777,295704.768,8,400,26,,ISIC_4009870.JPG
break,html.Screen,4_25_1,2023-09-08T16:09:54.848Z,,0,,,NaN,,,,,,false,,,,295860.2999999523,295860.09999990463,,295859.7999999523,,295704.768,8,400,,,
break_continue,html.Screen,4_25_2,2023-09-08T16:09:54.848Z,,0,,,NaN,,,,,,false,,,,295860.59999990463,295860.59999990463,,295860.40000009537,,295704.768,8,400,,,
sequence,flow.Sequence,4_25,2023-09-08T16:09:54.848Z,,0,,,7436.822999904631,completion,,,,,false,,,,295860.7000000477,295860.59999990463,288407.081,288592.09999990463,288423.777,295704.768,8,400,,,
trial,html.Screen,4_26_0,2023-09-08T16:10:03.082Z,,0,1,,8389.33199990465,response,ISIC_0058432.JPG,5,ISIC_0010555.JPG,ISIC_0058432.JPG,false,1,keypress(m),500,304094.2999999523,304094.09999990463,295688.041,295860.7999999523,295704.768,303937.406,8,400,27,,ISIC_0010555.JPG
break,html.Screen,4_26_1,2023-09-08T16:10:03.082Z,,0,,,NaN,,,,,,false,,,,304094.90000009537,304094.59999990463,,304094.40000009537,,303937.406,8,400,,,
break_continue,html.Screen,4_26_2,2023-09-08T16:10:03.083Z,,0,,,NaN,,,,,,false,,,,304095.2999999523,304095.09999990463,,304095,,303937.406,8,400,,,
sequence,flow.Sequence,4_26,2023-09-08T16:10:03.083Z,,0,,,8390.33199990465,completion,,,,,false,,,,304095.2999999523,304095.09999990463,295688.041,295860.7999999523,295704.768,303937.406,8,400,,,
trial,html.Screen,4_27_0,2023-09-08T16:10:07.698Z,,0,1,,4772.49400009535,response,ISIC_0029711.JPG,5,ISIC_0027666.JPG,ISIC_0029711.JPG,false,1,keypress(m),500,308710.09999990463,308709.90000009537,303920.786,304095.40000009537,303937.406,308546.359,8,400,28,,ISIC_0027666.JPG
break,html.Screen,4_27_1,2023-09-08T16:10:07.699Z,,0,,,NaN,,,,,,false,,,,308711.09999990463,308710.7999999523,,308710.40000009537,,308546.359,8,400,,,
break_continue,html.Screen,4_27_2,2023-09-08T16:10:07.699Z,,0,,,NaN,,,,,,false,,,,308711.5,308711.40000009537,,308711.2000000477,,308546.359,8,400,,,
sequence,flow.Sequence,4_27,2023-09-08T16:10:07.700Z,,0,,,4773.99400009535,completion,,,,,false,,,,308711.7000000477,308711.40000009537,303920.786,304095.2999999523,303937.406,308546.359,8,400,,,
trial,html.Screen,4_28_0,2023-09-08T16:10:12.360Z,,0,1,,4825.341000047687,response,ISIC_4765919.JPG,4,ISIC_6119830.JPG,ISIC_6119830.JPG,false,0,keypress(z),500,313372,313371.7000000477,308529.608,308711.7999999523,308546.359,313205.469,8,400,29,,ISIC_4765919.JPG
break,html.Screen,4_28_1,2023-09-08T16:10:12.362Z,,0,,,NaN,,,,,,false,,,,313373.7000000477,313373.2999999523,,313372.5,,313205.469,8,400,,,
break_continue,html.Screen,4_28_2,2023-09-08T16:10:12.362Z,,0,,,NaN,,,,,,false,,,,313374.59999990463,313374.40000009537,,313374,,313205.469,8,400,,,
sequence,flow.Sequence,4_28,2023-09-08T16:10:12.363Z,,0,,,4828.041000095371,completion,,,,,false,,,,313374.90000009537,313374.40000009537,308529.608,308711.7999999523,308546.359,313205.469,8,400,,,
trial,html.Screen,4_29_0,2023-09-08T16:10:17.092Z,,0,1,,4898.8309999523335,response,ISIC_0028692.JPG,6,ISIC_3590997.JPG,ISIC_3590997.JPG,false,0,keypress(z),500,318104.59999990463,318104.2999999523,313188.752,313375.2999999523,313205.469,317948.1,8,400,30,,ISIC_0028692.JPG
break,html.Screen,4_29_1,2023-09-08T16:10:17.093Z,,0,,,NaN,,,,,,false,,,,318105,318104.90000009537,,318104.7000000477,,317948.1,8,400,,,
break_continue,html.Screen,4_29_2,2023-09-08T16:10:17.093Z,,0,,,NaN,,,,,,false,,,,318105.2000000477,318105.09999990463,,318105,,317948.1,8,400,,,
sequence,flow.Sequence,4_29,2023-09-08T16:10:17.093Z,,0,,,4899.63099990465,completion,,,,,false,,,,318105.2999999523,318105.09999990463,313188.752,313375.2000000477,313205.469,317948.1,8,400,,,
trial,html.Screen,4_30_0,2023-09-08T16:10:22.103Z,,0,1,,5166.900000000023,response,ISIC_9155855.JPG,5,ISIC_7658729.JPG,ISIC_7658729.JPG,false,0,keypress(z),500,323115.2000000477,323115,317931.333,318105.40000009537,317948.1,322957.76,8,400,31,,ISIC_9155855.JPG
break,html.Screen,4_30_1,2023-09-08T16:10:22.104Z,,0,,,NaN,,,,,,false,,,,323115.90000009537,323115.7000000477,,323115.2999999523,,322957.76,8,400,,,
break_continue,html.Screen,4_30_2,2023-09-08T16:10:22.104Z,,0,,,NaN,,,,,,false,,,,323116.2999999523,323116.2000000477,,323116.09999990463,,322957.76,8,400,,,
sequence,flow.Sequence,4_30,2023-09-08T16:10:22.104Z,,0,,,5168.100000047707,completion,,,,,false,,,,323116.2999999523,323116.2000000477,317931.333,318105.40000009537,317948.1,322957.76,8,400,,,
trial,html.Screen,4_31_0,2023-09-08T16:10:25.981Z,,0,1,,4034.9400000476744,response,ISIC_0010765.JPG,5,ISIC_5098778.JPG,ISIC_5098778.JPG,false,0,keypress(z),500,326992.7999999523,326992.7000000477,322940.971,323116.40000009537,322957.76,326831.965,8,400,32,,ISIC_0010765.JPG
break,html.Screen,4_31_1,2023-09-08T16:10:25.981Z,,0,,,NaN,,,,,,false,,,,326993.40000009537,326993.2000000477,,326992.90000009537,,326831.965,8,400,,,
break_continue,html.Screen,4_31_2,2023-09-08T16:10:25.982Z,,0,,,NaN,,,,,,false,,,,326993.7000000477,326993.59999990463,,326993.40000009537,,326831.965,8,400,,,
sequence,flow.Sequence,4_31,2023-09-08T16:10:25.982Z,,0,,,4035.8399999046233,completion,,,,,false,,,,326993.7000000477,326993.59999990463,322940.971,323116.2999999523,322957.76,326831.965,8,400,,,
trial,html.Screen,4_32_0,2023-09-08T16:10:29.649Z,,0,1,,3828.435000095342,response,ISIC_1020369.JPG,4,ISIC_0010707.JPG,ISIC_1020369.JPG,false,1,keypress(m),500,330660.7000000477,330660.40000009537,326815.15,326993.7999999523,326831.965,330506.409,8,400,33,,ISIC_0010707.JPG
break,html.Screen,4_32_1,2023-09-08T16:10:29.650Z,,0,,,NaN,,,,,,false,,,,330662.59999990463,330662,,330661.2000000477,,330506.409,8,400,,,
break_continue,html.Screen,4_32_2,2023-09-08T16:10:29.652Z,,0,,,NaN,,,,,,false,,,,330663.90000009537,330663.7000000477,,330662.90000009537,,330506.409,8,400,,,
sequence,flow.Sequence,4_32,2023-09-08T16:10:29.652Z,,0,,,3831.735000047658,completion,,,,,false,,,,330664.40000009537,330663.7000000477,326815.15,326993.7999999523,326831.965,330506.409,8,400,,,
trial,html.Screen,4_33_0,2023-09-08T16:10:35.120Z,,0,1,,5625.390999952331,response,ISIC_7697022.JPG,5,ISIC_7865214.JPG,ISIC_7697022.JPG,false,1,keypress(m),500,336132,336131.7999999523,330489.224,330664.59999990463,330506.409,335966.317,8,400,34,,ISIC_7865214.JPG
break,html.Screen,4_33_1,2023-09-08T16:10:35.120Z,,0,,,NaN,,,,,,false,,,,336132.5,336132.2999999523,,336132,,335966.317,8,400,,,
break_continue,html.Screen,4_33_2,2023-09-08T16:10:35.121Z,,0,,,NaN,,,,,,false,,,,336132.90000009537,336132.7999999523,,336132.7000000477,,335966.317,8,400,,,
sequence,flow.Sequence,4_33,2023-09-08T16:10:35.121Z,,0,,,5626.390999952331,completion,,,,,false,,,,336133,336132.7999999523,330489.224,330664.59999990463,330506.409,335966.317,8,400,,,
trial,html.Screen,4_34_0,2023-09-08T16:10:41.160Z,,0,1,,6205.782999904652,response,ISIC_3868662.JPG,5,ISIC_0024811.JPG,ISIC_3868662.JPG,false,1,keypress(m),500,342172.2999999523,342172.09999990463,335949.598,336133,335966.317,342011.493,8,400,35,,ISIC_0024811.JPG
break,html.Screen,4_34_1,2023-09-08T16:10:41.161Z,,0,,,NaN,,,,,,false,,,,342173,342172.7000000477,,342172.40000009537,,342011.493,8,400,,,
break_continue,html.Screen,4_34_2,2023-09-08T16:10:41.161Z,,0,,,NaN,,,,,,false,,,,342173.40000009537,342173.2000000477,,342173.09999990463,,342011.493,8,400,,,
sequence,flow.Sequence,4_34,2023-09-08T16:10:41.161Z,,0,,,6206.883000047703,completion,,,,,false,,,,342173.40000009537,342173.2000000477,335949.598,336133,335966.317,342011.493,8,400,,,
trial,html.Screen,4_35_0,2023-09-08T16:10:44.372Z,,0,1,,3372.707000047667,response,ISIC_4116770.JPG,5,ISIC_3304982.JPG,ISIC_4116770.JPG,false,1,keypress(m),500,345384.40000009537,345384.2000000477,341994.709,342173.5,342011.493,345217.643,8,400,36,,ISIC_3304982.JPG
break,html.Screen,4_35_1,2023-09-08T16:10:44.373Z,,0,,,NaN,,,,,,false,,,,345385.2999999523,345385,,345384.59999990463,,345217.643,8,400,,,
break_continue,html.Screen,4_35_2,2023-09-08T16:10:44.373Z,,0,,,NaN,,,,,,false,,,,345385.59999990463,345385.5,,345385.2999999523,,345217.643,8,400,,,
sequence,flow.Sequence,4_35,2023-09-08T16:10:44.374Z,,0,,,3374.0069999999832,completion,,,,,false,,,,345385.7999999523,345385.5,341994.709,342173.5,342011.493,345217.643,8,400,,,
trial,html.Screen,4_36_0,2023-09-08T16:10:50.505Z,,0,1,,6299.456999904651,response,ISIC_0069204.JPG,4,ISIC_0064247.JPG,ISIC_0069204.JPG,false,1,keypress(m),500,351517.2000000477,351517.09999990463,345201.143,345385.7999999523,345217.643,351364.004,8,400,37,,ISIC_0064247.JPG
break,html.Screen,4_36_1,2023-09-08T16:10:50.506Z,,0,,,NaN,,,,,,false,,,,351517.90000009537,351517.7000000477,,351517.40000009537,,351364.004,8,400,,,
break_continue,html.Screen,4_36_2,2023-09-08T16:10:50.506Z,,0,,,NaN,,,,,,false,,,,351518.2999999523,351518.2000000477,,351518.09999990463,,351364.004,8,400,,,
sequence,flow.Sequence,4_36,2023-09-08T16:10:50.506Z,,0,,,6300.557000047702,completion,,,,,false,,,,351518.40000009537,351518.2000000477,345201.143,345385.7999999523,345217.643,351364.004,8,400,,,
trial,html.Screen,4_37_0,2023-09-08T16:10:57.805Z,,0,1,,7452.795999952301,response,ISIC_0028986.JPG,5,ISIC_0066470.JPG,ISIC_0066470.JPG,false,0,keypress(z),500,358816.90000009537,358816.7999999523,351329.682,351518.5,351364.004,358660.524,8,400,38,,ISIC_0028986.JPG
break,html.Screen,4_37_1,2023-09-08T16:10:57.805Z,,0,,,NaN,,,,,,false,,,,358817.59999990463,358817.2999999523,,358817,,358660.524,8,400,,,
break_continue,html.Screen,4_37_2,2023-09-08T16:10:57.806Z,,0,,,NaN,,,,,,false,,,,358818,358817.7999999523,,358817.7000000477,,358660.524,8,400,,,
sequence,flow.Sequence,4_37,2023-09-08T16:10:57.806Z,,0,,,7453.795999952301,completion,,,,,false,,,,358818,358817.7999999523,351329.682,351518.5,351364.004,358660.524,8,400,,,
trial,html.Screen,4_38_0,2023-09-08T16:11:03.905Z,,0,1,,6255.976000000024,response,ISIC_5282642.JPG,6,ISIC_0009950.JPG,ISIC_0009950.JPG,false,0,keypress(z),500,364916.90000009537,364916.5,358643.824,358818.09999990463,358660.524,364755.714,8,400,39,,ISIC_5282642.JPG
break,html.Screen,4_38_1,2023-09-08T16:11:03.907Z,,0,,,NaN,,,,,,false,,,,364918.7999999523,364918.2000000477,,364917.2999999523,,364755.714,8,400,,,
break_continue,html.Screen,4_38_2,2023-09-08T16:11:03.908Z,,0,,,NaN,,,,,,false,,,,364920.09999990463,364919.7999999523,,364919.2999999523,,364755.714,8,400,,,
sequence,flow.Sequence,4_38,2023-09-08T16:11:03.908Z,,0,,,6259.2759999523405,completion,,,,,false,,,,364920.59999990463,364919.7999999523,358643.824,358818.09999990463,358660.524,364755.714,8,400,,,
trial,html.Screen,4_39_0,2023-09-08T16:11:09.041Z,,0,1,,5296.286000000022,response,ISIC_2799447.JPG,6,ISIC_0015256.JPG,ISIC_2799447.JPG,false,1,keypress(m),500,370052.5,370052,364739.167,364920.90000009537,364755.714,369915.848,8,400,40,,ISIC_0015256.JPG
break,html.Screen,4_39_1,2023-09-08T16:11:09.043Z,,0,,,NaN,,,,,,false,,,,370054.5,370054,,370053,,369915.848,8,400,,,
break_continue,html.Screen,4_39_2,2023-09-08T16:11:09.044Z,,0,,,NaN,,,,,,false,,,,370055.5,370055.2999999523,,370054.90000009537,,369915.848,8,400,,,
sequence,flow.Sequence,4_39,2023-09-08T16:11:09.044Z,,0,,,5299.585999952338,completion,,,,,false,,,,370055.90000009537,370055.2999999523,364739.167,364920.7999999523,364755.714,369915.848,8,400,,,
trial,html.Screen,4_40_0,2023-09-08T16:11:13.383Z,,0,1,,4478.951999952318,response,ISIC_0806303.JPG,5,ISIC_1877535.JPG,ISIC_0806303.JPG,false,1,keypress(m),500,374394.7999999523,374394.7999999523,369899.226,370056.2000000477,369915.848,374242.233,8,400,41,,ISIC_1877535.JPG
break,html.Screen,4_40_1,2023-09-08T16:11:13.384Z,,0,,,NaN,,,,,,false,,,,374395.5,374395.2999999523,,374395,,374242.233,8,400,,,
break_continue,html.Screen,4_40_2,2023-09-08T16:11:13.384Z,,0,,,NaN,,,,,,false,,,,374395.90000009537,374395.7999999523,,374395.7000000477,,374242.233,8,400,,,
sequence,flow.Sequence,4_40,2023-09-08T16:11:13.384Z,,0,,,4479.951999952318,completion,,,,,false,,,,374396,374395.7999999523,369899.226,370056.09999990463,369915.848,374242.233,8,400,,,
trial,html.Screen,4_41_0,2023-09-08T16:11:18.443Z,,0,1,,5212.566999952309,response,ISIC_0070308.JPG,5,ISIC_0946923.JPG,ISIC_0946923.JPG,false,0,keypress(z),500,379455,379454.7999999523,374207.562,374396,374242.233,379301.555,8,400,42,,ISIC_0070308.JPG
break,html.Screen,4_41_1,2023-09-08T16:11:18.444Z,,0,,,NaN,,,,,,false,,,,379455.59999990463,379455.40000009537,,379455.09999990463,,379301.555,8,400,,,
break_continue,html.Screen,4_41_2,2023-09-08T16:11:18.444Z,,0,,,NaN,,,,,,false,,,,379455.90000009537,379455.90000009537,,379455.7000000477,,379301.555,8,400,,,
sequence,flow.Sequence,4_41,2023-09-08T16:11:18.444Z,,0,,,5213.66700009536,completion,,,,,false,,,,379456,379455.90000009537,374207.562,374396,374242.233,379301.555,8,400,,,
trial,html.Screen,4_42_0,2023-09-08T16:11:26.256Z,,0,1,,7965.54499990464,response,ISIC_0070032.JPG,4,ISIC_0294399.JPG,ISIC_0294399.JPG,false,0,keypress(z),500,387267.5,387267.09999990463,379267.415,379456.09999990463,379301.555,387099.223,8,400,43,,ISIC_0070032.JPG
break,html.Screen,4_42_1,2023-09-08T16:11:26.258Z,,0,,,NaN,,,,,,false,,,,387269.7999999523,387268.7999999523,,387268,,387099.223,8,400,,,
break_continue,html.Screen,4_42_2,2023-09-08T16:11:26.259Z,,0,,,NaN,,,,,,false,,,,387270.7000000477,387270.40000009537,,387270,,387099.223,8,400,,,
sequence,flow.Sequence,4_42,2023-09-08T16:11:26.260Z,,0,,,7968.845000095374,completion,,,,,false,,,,387271.2000000477,387270.40000009537,379267.415,379456.09999990463,379301.555,387099.223,8,400,,,
trial,html.Screen,4_43_0,2023-09-08T16:11:30.588Z,,0,1,,4500.376999904634,response,ISIC_0028285.JPG,6,ISIC_0033037.JPG,ISIC_0033037.JPG,false,0,keypress(z),500,391599.7999999523,391599.59999990463,387082.606,387271.59999990463,387099.223,391440.951,8,400,44,,ISIC_0028285.JPG
break,html.Screen,4_43_1,2023-09-08T16:11:30.589Z,,0,,,NaN,,,,,,false,,,,391600.2999999523,391600.09999990463,,391599.7999999523,,391440.951,8,400,,,
break_continue,html.Screen,4_43_2,2023-09-08T16:11:30.589Z,,0,,,NaN,,,,,,false,,,,391600.7000000477,391600.59999990463,,391600.5,,391440.951,8,400,,,
sequence,flow.Sequence,4_43,2023-09-08T16:11:30.589Z,,0,,,4501.376999904634,completion,,,,,false,,,,391600.7000000477,391600.59999990463,387082.606,387271.5,387099.223,391440.951,8,400,,,
trial,html.Screen,4_44_0,2023-09-08T16:11:37.809Z,,0,1,,7379.548999999999,response,ISIC_0010241.JPG,6,ISIC_9631669.JPG,ISIC_9631669.JPG,false,0,keypress(z),500,398820.5,398820.5,391424.324,391600.7999999523,391440.951,398655.047,8,400,45,,ISIC_0010241.JPG
break,html.Screen,4_44_1,2023-09-08T16:11:37.810Z,,0,,,NaN,,,,,,false,,,,398821.2000000477,398821,,398820.7000000477,,398655.047,8,400,,,
break_continue,html.Screen,4_44_2,2023-09-08T16:11:37.810Z,,0,,,NaN,,,,,,false,,,,398821.59999990463,398821.5,,398821.2999999523,,398655.047,8,400,,,
sequence,flow.Sequence,4_44,2023-09-08T16:11:37.810Z,,0,,,7380.548999999999,completion,,,,,false,,,,398821.59999990463,398821.5,391424.324,391600.7999999523,391440.951,398655.047,8,400,,,
trial,html.Screen,4_45_0,2023-09-08T16:11:43.035Z,,0,1,,5391.552999904612,response,ISIC_0033063.JPG,4,ISIC_3897960.JPG,ISIC_3897960.JPG,false,0,keypress(z),500,404046.7000000477,404046.59999990463,398638.287,398821.7000000477,398655.047,403898.618,8,400,46,,ISIC_0033063.JPG
break,html.Screen,4_45_1,2023-09-08T16:11:43.035Z,,0,,,NaN,,,,,,false,,,,404047.09999990463,404047,,404046.7999999523,,403898.618,8,400,,,
break_continue,html.Screen,4_45_2,2023-09-08T16:11:43.036Z,,0,,,NaN,,,,,,false,,,,404047.2999999523,404047.2999999523,,404047.09999990463,,403898.618,8,400,,,
sequence,flow.Sequence,4_45,2023-09-08T16:11:43.036Z,,0,,,5392.252999952296,completion,,,,,false,,,,404047.40000009537,404047.2999999523,398638.287,398821.7000000477,398655.047,403898.618,8,400,,,
trial,html.Screen,4_46_0,2023-09-08T16:11:48.674Z,,0,1,,5786.381999999983,response,ISIC_3933658.JPG,5,ISIC_0030932.JPG,ISIC_3933658.JPG,false,1,keypress(m),500,409685.2999999523,409685,403881.897,404047.5,403898.618,409526.112,8,400,47,,ISIC_0030932.JPG
break,html.Screen,4_46_1,2023-09-08T16:11:48.675Z,,0,,,NaN,,,,,,false,,,,409687.09999990463,409686.59999990463,,409685.7999999523,,409526.112,8,400,,,
break_continue,html.Screen,4_46_2,2023-09-08T16:11:48.676Z,,0,,,NaN,,,,,,false,,,,409687.90000009537,409687.7999999523,,409687.2999999523,,409526.112,8,400,,,
sequence,flow.Sequence,4_46,2023-09-08T16:11:48.677Z,,0,,,5789.1819999522995,completion,,,,,false,,,,409688.40000009537,409687.7999999523,403881.897,404047.5,403898.618,409526.112,8,400,,,
trial,html.Screen,4_47_0,2023-09-08T16:11:53.769Z,,0,1,,5254.887999999977,response,ISIC_0031304.JPG,5,ISIC_4653503.JPG,ISIC_4653503.JPG,false,0,keypress(z),500,414781.09999990463,414781,409509.522,409688.7000000477,409526.112,414619.373,8,400,48,,ISIC_0031304.JPG
break,html.Screen,4_47_1,2023-09-08T16:11:53.770Z,,0,,,NaN,,,,,,false,,,,414781.59999990463,414781.5,,414781.2000000477,,414619.373,8,400,,,
break_continue,html.Screen,4_47_2,2023-09-08T16:11:53.770Z,,0,,,NaN,,,,,,false,,,,414781.7999999523,414781.7999999523,,414781.7000000477,,414619.373,8,400,,,
sequence,flow.Sequence,4_47,2023-09-08T16:11:53.770Z,,0,,,5255.6879999522935,completion,,,,,false,,,,414781.90000009537,414781.7999999523,409509.522,409688.5,409526.112,414619.373,8,400,,,
trial,html.Screen,4_48_0,2023-09-08T16:11:57.500Z,,0,1,,3892.027000095346,response,ISIC_1389563.JPG,6,ISIC_1781273.JPG,ISIC_1781273.JPG,false,0,keypress(z),500,418511.59999990463,418511.40000009537,414602.783,414781.90000009537,414619.373,418360.007,8,400,49,,ISIC_1389563.JPG
break,html.Screen,4_48_1,2023-09-08T16:11:57.500Z,,0,,,NaN,,,,,,false,,,,418512,418511.90000009537,,418511.7000000477,,418360.007,8,400,,,
break_continue,html.Screen,4_48_2,2023-09-08T16:11:57.501Z,,0,,,NaN,,,,,,false,,,,418512.2000000477,418512.09999990463,,418512,,418360.007,8,400,,,
sequence,flow.Sequence,4_48,2023-09-08T16:11:57.501Z,,0,,,3892.726999904611,completion,,,,,false,,,,418512.2999999523,418512.09999990463,414602.783,414781.90000009537,414619.373,418360.007,8,400,,,
trial,html.Screen,4_49_0,2023-09-08T16:12:03.167Z,,0,1,,5818.393000095384,response,ISIC_0028788.JPG,5,ISIC_0012450.JPG,ISIC_0012450.JPG,false,0,keypress(z),500,424178.5,424178.40000009537,418343.248,418512.2999999523,418360.007,424020.978,8,400,50,,ISIC_0028788.JPG
break,html.Screen,4_49_1,2023-09-08T16:12:13.026Z,,0,,,9852.645000000019,timeout,,,,,false,,,,434037.2999999523,434037.09999990463,424004.279,424178.7000000477,424020.978,433873.623,8,400,,,
break_continue,html.Screen,4_49_2,2023-09-08T16:12:13.422Z,,0,,,555.5770000476623,response,,,,,false,continue,keypress(Space),,434433.2999999523,434429.2000000477,434037.09999990463,434037.40000009537,433873.623,434274.464,8,400,,,
sequence,flow.Sequence,4_49,2023-09-08T16:12:13.422Z,,0,,,16069.1930000477,completion,,,,,false,,,,434433.5,434429.2000000477,418343.248,418512.2999999523,418360.007,434274.464,8,400,,,
trial,html.Screen,4_50_0,2023-09-08T16:12:18.053Z,,0,2,,4790.135999904654,response,ISIC_0067008.JPG,4,ISIC_0058346.JPG,ISIC_0067008.JPG,false,1,keypress(m),500,439064.7999999523,439064.59999990463,434257.637,434433.5,434274.464,438899.974,8,400,1,,ISIC_0058346.JPG
break,html.Screen,4_50_1,2023-09-08T16:12:18.054Z,,0,,,NaN,,,,,,false,,,,439065.2999999523,439065.09999990463,,439064.90000009537,,438899.974,8,400,,,
break_continue,html.Screen,4_50_2,2023-09-08T16:12:18.054Z,,0,,,NaN,,,,,,false,,,,439065.59999990463,439065.59999990463,,439065.40000009537,,438899.974,8,400,,,
sequence,flow.Sequence,4_50,2023-09-08T16:12:18.054Z,,0,,,4791.135999904654,completion,,,,,false,,,,439065.7999999523,439065.59999990463,434257.637,434433.5,434274.464,438899.974,8,400,,,
trial,html.Screen,4_51_0,2023-09-08T16:12:25.017Z,,0,2,,7128.026000000013,response,ISIC_3315146.JPG,4,ISIC_6052437.JPG,ISIC_6052437.JPG,false,0,keypress(z),500,446028.40000009537,446028,438883.26,439065.7999999523,438899.974,445863.523,8,400,2,,ISIC_3315146.JPG
break,html.Screen,4_51_1,2023-09-08T16:12:25.018Z,,0,,,NaN,,,,,,false,,,,446029.59999990463,446029.2999999523,,446028.7999999523,,445863.523,8,400,,,
break_continue,html.Screen,4_51_2,2023-09-08T16:12:25.019Z,,0,,,NaN,,,,,,false,,,,446030.09999990463,446030,,446029.7999999523,,445863.523,8,400,,,
sequence,flow.Sequence,4_51,2023-09-08T16:12:25.019Z,,0,,,7130.026000000013,completion,,,,,false,,,,446030.40000009537,446030,438883.26,439065.7999999523,438899.974,445863.523,8,400,,,
trial,html.Screen,4_52_0,2023-09-08T16:12:28.558Z,,0,2,,3705.877000095381,response,ISIC_4131353.JPG,4,ISIC_3884221.JPG,ISIC_4131353.JPG,false,1,keypress(m),500,449569.5,449569.40000009537,445846.885,446030.5,445863.523,449403.674,8,400,3,,ISIC_3884221.JPG
break,html.Screen,4_52_1,2023-09-08T16:12:28.559Z,,0,,,NaN,,,,,,false,,,,449570.2000000477,449570,,449569.59999990463,,449403.674,8,400,,,
break_continue,html.Screen,4_52_2,2023-09-08T16:12:28.559Z,,0,,,NaN,,,,,,false,,,,449570.59999990463,449570.5,,449570.2999999523,,449403.674,8,400,,,
sequence,flow.Sequence,4_52,2023-09-08T16:12:28.559Z,,0,,,3706.9770000000135,completion,,,,,false,,,,449570.7999999523,449570.5,445846.885,446030.5,445863.523,449403.674,8,400,,,
trial,html.Screen,4_53_0,2023-09-08T16:12:32.690Z,,0,2,,4297.4259999046335,response,ISIC_0026302.JPG,6,ISIC_0054355.JPG,ISIC_0054355.JPG,false,0,keypress(z),500,453701.2000000477,453701.09999990463,449387.205,449570.7999999523,449403.674,453545.268,8,400,4,,ISIC_0026302.JPG
break,html.Screen,4_53_1,2023-09-08T16:12:32.691Z,,0,,,NaN,,,,,,false,,,,453701.90000009537,453701.7000000477,,453701.40000009537,,453545.268,8,400,,,
break_continue,html.Screen,4_53_2,2023-09-08T16:12:32.691Z,,0,,,NaN,,,,,,false,,,,453702.2999999523,453702.2000000477,,453702.09999990463,,453545.268,8,400,,,
sequence,flow.Sequence,4_53,2023-09-08T16:12:32.691Z,,0,,,4298.526000047685,completion,,,,,false,,,,453702.40000009537,453702.2000000477,449387.205,449570.7999999523,449403.674,453545.268,8,400,,,
trial,html.Screen,4_54_0,2023-09-08T16:12:36.902Z,,0,2,,4367.632000095386,response,ISIC_0028705.JPG,5,ISIC_9355535.JPG,ISIC_0028705.JPG,false,1,keypress(m),500,457913,457912.90000009537,453528.551,453702.5,453545.268,457753.336,8,400,5,,ISIC_9355535.JPG
break,html.Screen,4_54_1,2023-09-08T16:12:36.902Z,,0,,,NaN,,,,,,false,,,,457913.5,457913.40000009537,,457913.09999990463,,457753.336,8,400,,,
break_continue,html.Screen,4_54_2,2023-09-08T16:12:36.902Z,,0,,,NaN,,,,,,false,,,,457913.7000000477,457913.59999990463,,457913.5,,457753.336,8,400,,,
sequence,flow.Sequence,4_54,2023-09-08T16:12:36.902Z,,0,,,4368.331999904651,completion,,,,,false,,,,457913.7999999523,457913.59999990463,453528.551,453702.5,453545.268,457753.336,8,400,,,
trial,html.Screen,4_55_0,2023-09-08T16:12:43.097Z,,0,2,,6354.3640000476735,response,ISIC_0071892.JPG,5,ISIC_9865814.JPG,ISIC_9865814.JPG,false,0,keypress(z),500,464108.2000000477,464107.7000000477,457736.634,457913.7999999523,457753.336,463948.847,8,400,6,,ISIC_0071892.JPG
break,html.Screen,4_55_1,2023-09-08T16:12:43.099Z,,0,,,NaN,,,,,,false,,,,464109.90000009537,464109.2999999523,,464108.59999990463,,463948.847,8,400,,,
break_continue,html.Screen,4_55_2,2023-09-08T16:12:43.099Z,,0,,,NaN,,,,,,false,,,,464110.7000000477,464110.5,,464110.09999990463,,463948.847,8,400,,,
sequence,flow.Sequence,4_55,2023-09-08T16:12:43.100Z,,0,,,6357.16399999999,completion,,,,,false,,,,464111.09999990463,464110.5,457736.634,457913.7999999523,457753.336,463948.847,8,400,,,
trial,html.Screen,4_56_0,2023-09-08T16:12:47.633Z,,0,2,,4694.952999952307,response,ISIC_0003767.JPG,5,ISIC_2807121.JPG,ISIC_0003767.JPG,false,1,keypress(m),500,468644,468643.7999999523,463931.999,464111.2999999523,463948.847,468474.258,8,400,7,,ISIC_2807121.JPG
break,html.Screen,4_56_1,2023-09-08T16:12:47.634Z,,0,,,NaN,,,,,,false,,,,468644.90000009537,468644.7000000477,,468644.2000000477,,468474.258,8,400,,,
break_continue,html.Screen,4_56_2,2023-09-08T16:12:47.634Z,,0,,,NaN,,,,,,false,,,,468645.5,468645.2999999523,,468645.09999990463,,468474.258,8,400,,,
sequence,flow.Sequence,4_56,2023-09-08T16:12:47.634Z,,0,,,4696.452999952307,completion,,,,,false,,,,468645.7000000477,468645.2999999523,463931.999,464111.2999999523,463948.847,468474.258,8,400,,,
trial,html.Screen,4_57_0,2023-09-08T16:12:51.616Z,,0,2,,4152.142000095395,response,ISIC_3397377.JPG,4,ISIC_0033708.JPG,ISIC_3397377.JPG,false,1,keypress(m),500,472626.90000009537,472626.40000009537,468457.623,468645.90000009537,468474.258,472465.427,8,400,8,,ISIC_0033708.JPG
break,html.Screen,4_57_1,2023-09-08T16:12:51.617Z,,0,,,NaN,,,,,,false,,,,472628.59999990463,472628.09999990463,,472627.2999999523,,472465.427,8,400,,,
break_continue,html.Screen,4_57_2,2023-09-08T16:12:51.618Z,,0,,,NaN,,,,,,false,,,,472629.5,472629.2999999523,,472628.90000009537,,472465.427,8,400,,,
sequence,flow.Sequence,4_57,2023-09-08T16:12:51.619Z,,0,,,4155.041999952344,completion,,,,,false,,,,472629.7999999523,472629.2999999523,468457.623,468645.7999999523,468474.258,472465.427,8,400,,,
trial,html.Screen,4_58_0,2023-09-08T16:12:57.593Z,,0,2,,6138.872999952291,response,ISIC_0069669.JPG,6,ISIC_2087913.JPG,ISIC_2087913.JPG,false,0,keypress(z),500,478604.7999999523,478604.2999999523,472448.711,472630.2000000477,472465.427,478443.697,8,400,9,,ISIC_0069669.JPG
break,html.Screen,4_58_1,2023-09-08T16:12:57.595Z,,0,,,NaN,,,,,,false,,,,478606.7000000477,478606.2000000477,,478605.2000000477,,478443.697,8,400,,,
break_continue,html.Screen,4_58_2,2023-09-08T16:12:57.596Z,,0,,,NaN,,,,,,false,,,,478607.59999990463,478607.2999999523,,478606.90000009537,,478443.697,8,400,,,
sequence,flow.Sequence,4_58,2023-09-08T16:12:57.597Z,,0,,,6141.872999952291,completion,,,,,false,,,,478608,478607.2999999523,472448.711,472630.09999990463,472465.427,478443.697,8,400,,,
trial,html.Screen,4_59_0,2023-09-08T16:13:01.539Z,,0,2,,4106.102999952331,response,ISIC_7161002.JPG,5,ISIC_7505254.JPG,ISIC_7505254.JPG,false,0,keypress(z),500,482549.90000009537,482549.7999999523,478426.917,478608.2000000477,478443.697,482384.712,8,400,10,,ISIC_7161002.JPG
break,html.Screen,4_59_1,2023-09-08T16:13:01.539Z,,0,,,NaN,,,,,,false,,,,482550.5,482550.2999999523,,482550,,482384.712,8,400,,,
break_continue,html.Screen,4_59_2,2023-09-08T16:13:01.540Z,,0,,,NaN,,,,,,false,,,,482550.90000009537,482550.7999999523,,482550.59999990463,,482384.712,8,400,,,
sequence,flow.Sequence,4_59,2023-09-08T16:13:01.540Z,,0,,,4107.102999952331,completion,,,,,false,,,,482550.90000009537,482550.7999999523,478426.917,478608.09999990463,478443.697,482384.712,8,400,,,
trial,html.Screen,4_60_0,2023-09-08T16:13:07.383Z,,0,2,,6008.7880000000005,response,ISIC_8095877.JPG,5,ISIC_6800044.JPG,ISIC_6800044.JPG,false,0,keypress(z),500,488393.59999990463,488393.5,482368.025,482551,482384.712,488229.453,8,400,11,,ISIC_8095877.JPG
break,html.Screen,4_60_1,2023-09-08T16:13:07.383Z,,0,,,NaN,,,,,,false,,,,488394.40000009537,488394.09999990463,,488393.7999999523,,488229.453,8,400,,,
break_continue,html.Screen,4_60_2,2023-09-08T16:13:07.384Z,,0,,,NaN,,,,,,false,,,,488394.7999999523,488394.7000000477,,488394.5,,488229.453,8,400,,,
sequence,flow.Sequence,4_60,2023-09-08T16:13:07.384Z,,0,,,6009.988000047684,completion,,,,,false,,,,488394.90000009537,488394.7000000477,482368.025,482551,482384.712,488229.453,8,400,,,
trial,html.Screen,4_61_0,2023-09-08T16:13:12.762Z,,0,2,,5543.447000095388,response,ISIC_8671119.JPG,6,ISIC_9470876.JPG,ISIC_8671119.JPG,false,1,keypress(m),500,493773,493772.90000009537,488212.77,488394.90000009537,488229.453,493606.483,8,400,12,,ISIC_9470876.JPG
break,html.Screen,4_61_1,2023-09-08T16:13:12.763Z,,0,,,NaN,,,,,,false,,,,493773.7000000477,493773.40000009537,,493773.09999990463,,493606.483,8,400,,,
break_continue,html.Screen,4_61_2,2023-09-08T16:13:12.763Z,,0,,,NaN,,,,,,false,,,,493773.90000009537,493773.7999999523,,493773.7000000477,,493606.483,8,400,,,
sequence,flow.Sequence,4_61,2023-09-08T16:13:12.763Z,,0,,,5544.346999952337,completion,,,,,false,,,,493774,493773.7999999523,488212.77,488394.90000009537,488229.453,493606.483,8,400,,,
trial,html.Screen,4_62_0,2023-09-08T16:13:19.236Z,,0,2,,6639.91700009536,response,ISIC_0029017.JPG,6,ISIC_0026188.JPG,ISIC_0029017.JPG,false,1,keypress(m),500,500246.7000000477,500246.40000009537,493589.786,493774.09999990463,493606.483,500085.733,8,400,13,,ISIC_0026188.JPG
break,html.Screen,4_62_1,2023-09-08T16:13:19.237Z,,0,,,NaN,,,,,,false,,,,500248,500247.59999990463,,500247,,500085.733,8,400,,,
break_continue,html.Screen,4_62_2,2023-09-08T16:13:19.238Z,,0,,,NaN,,,,,,false,,,,500248.59999990463,500248.40000009537,,500248.2000000477,,500085.733,8,400,,,
sequence,flow.Sequence,4_62,2023-09-08T16:13:19.238Z,,0,,,6641.91700009536,completion,,,,,false,,,,500248.7999999523,500248.40000009537,493589.786,493774.09999990463,493606.483,500085.733,8,400,,,
trial,html.Screen,4_63_0,2023-09-08T16:13:23.567Z,,0,2,,4491.16700009536,response,ISIC_5682259.JPG,4,ISIC_4692454.JPG,ISIC_4692454.JPG,false,0,keypress(z),500,504577.59999990463,504576.90000009537,500069.192,500249,500085.733,504427.432,8,400,14,,ISIC_5682259.JPG
break,html.Screen,4_63_1,2023-09-08T16:13:23.568Z,,0,,,NaN,,,,,,false,,,,504578.7000000477,504578.2999999523,,504577.90000009537,,504427.432,8,400,,,
break_continue,html.Screen,4_63_2,2023-09-08T16:13:23.568Z,,0,,,NaN,,,,,,false,,,,504579.2000000477,504579.09999990463,,504578.90000009537,,504427.432,8,400,,,
sequence,flow.Sequence,4_63,2023-09-08T16:13:23.568Z,,0,,,4493.366999904625,completion,,,,,false,,,,504579.2999999523,504579.09999990463,500069.192,500248.90000009537,500085.733,504427.432,8,400,,,
trial,html.Screen,4_64_0,2023-09-08T16:13:28.172Z,,0,2,,4755.167999904661,response,ISIC_4471367.JPG,6,ISIC_6588982.JPG,ISIC_6588982.JPG,false,0,keypress(z),500,509182.7999999523,509182.59999990463,504410.761,504579.40000009537,504427.432,509019.736,8,400,15,,ISIC_4471367.JPG
break,html.Screen,4_64_1,2023-09-08T16:13:28.172Z,,0,,,NaN,,,,,,false,,,,509183.2000000477,509183.09999990463,,509182.7999999523,,509019.736,8,400,,,
break_continue,html.Screen,4_64_2,2023-09-08T16:13:28.172Z,,0,,,NaN,,,,,,false,,,,509183.40000009537,509183.2999999523,,509183.2000000477,,509019.736,8,400,,,
sequence,flow.Sequence,4_64,2023-09-08T16:13:28.173Z,,0,,,4755.867999952345,completion,,,,,false,,,,509183.40000009537,509183.2999999523,504410.761,504579.40000009537,504427.432,509019.736,8,400,,,
trial,html.Screen,4_65_0,2023-09-08T16:13:33.247Z,,0,2,,5238.363999904657,response,ISIC_1461068.JPG,5,ISIC_0054523.JPG,ISIC_1461068.JPG,false,1,keypress(m),500,514258.2999999523,514258.09999990463,509003.037,509184.2999999523,509019.736,514096.415,8,400,16,,ISIC_0054523.JPG
break,html.Screen,4_65_1,2023-09-08T16:13:33.248Z,,0,,,NaN,,,,,,false,,,,514259.09999990463,514258.90000009537,,514258.5,,514096.415,8,400,,,
break_continue,html.Screen,4_65_2,2023-09-08T16:13:33.248Z,,0,,,NaN,,,,,,false,,,,514259.40000009537,514259.2999999523,,514259.2000000477,,514096.415,8,400,,,
sequence,flow.Sequence,4_65,2023-09-08T16:13:33.249Z,,0,,,5239.563999952341,completion,,,,,false,,,,514259.5,514259.2999999523,509003.037,509184.2999999523,509019.736,514096.415,8,400,,,
trial,html.Screen,4_66_0,2023-09-08T16:13:39.396Z,,0,2,,6310.285000047705,response,ISIC_0059257.JPG,6,ISIC_5226353.JPG,ISIC_5226353.JPG,false,0,keypress(z),500,520406.7999999523,520406.7000000477,514079.856,514259.59999990463,514096.415,520241.594,8,400,17,,ISIC_0059257.JPG
break,html.Screen,4_66_1,2023-09-08T16:13:39.396Z,,0,,,NaN,,,,,,false,,,,520407.40000009537,520407.2000000477,,520407,,520241.594,8,400,,,
break_continue,html.Screen,4_66_2,2023-09-08T16:13:39.397Z,,0,,,NaN,,,,,,false,,,,520407.7000000477,520407.59999990463,,520407.5,,520241.594,8,400,,,
sequence,flow.Sequence,4_66,2023-09-08T16:13:39.397Z,,0,,,6311.1849999046535,completion,,,,,false,,,,520407.7000000477,520407.59999990463,514079.856,514259.5,514096.415,520241.594,8,400,,,
trial,html.Screen,4_67_0,2023-09-08T16:13:47.527Z,,0,2,,8295.906000000017,response,ISIC_0031517.JPG,6,ISIC_3920274.JPG,ISIC_3920274.JPG,false,0,keypress(z),500,528537.7000000477,528537.5,520225.063,520407.7999999523,520241.594,528374.12,8,400,18,,ISIC_0031517.JPG
break,html.Screen,4_67_1,2023-09-08T16:13:47.527Z,,0,,,NaN,,,,,,false,,,,528538.2999999523,528538.0999999046,,528537.7999999523,,528374.12,8,400,,,
break_continue,html.Screen,4_67_2,2023-09-08T16:13:47.528Z,,0,,,NaN,,,,,,false,,,,528538.5999999046,528538.5,,528538.4000000954,,528374.12,8,400,,,
sequence,flow.Sequence,4_67,2023-09-08T16:13:47.528Z,,0,,,8296.906000000017,completion,,,,,false,,,,528538.7000000477,528538.5,520225.063,520407.7999999523,520241.594,528374.12,8,400,,,
trial,html.Screen,4_68_0,2023-09-08T16:13:53.034Z,,0,2,,5670.179999952321,response,ISIC_6446753.JPG,6,ISIC_0010587.JPG,ISIC_0010587.JPG,false,0,keypress(z),500,534044.5,534044.2999999523,528357.534,528538.7999999523,528374.12,533884.769,8,400,19,,ISIC_6446753.JPG
break,html.Screen,4_68_1,2023-09-08T16:13:53.035Z,,0,,,NaN,,,,,,false,,,,534045.5999999046,534045.2999999523,,534044.7000000477,,533884.769,8,400,,,
break_continue,html.Screen,4_68_2,2023-09-08T16:13:53.035Z,,0,,,NaN,,,,,,false,,,,534046,534045.9000000954,,534045.7000000477,,533884.769,8,400,,,
sequence,flow.Sequence,4_68,2023-09-08T16:13:53.035Z,,0,,,5671.780000095372,completion,,,,,false,,,,534046.2000000477,534045.9000000954,528357.534,528538.7999999523,528374.12,533884.769,8,400,,,
trial,html.Screen,4_69_0,2023-09-08T16:13:58.739Z,,0,2,,5865.131000095396,response,ISIC_6673956.JPG,5,ISIC_0072021.JPG,ISIC_6673956.JPG,false,1,keypress(m),500,539750.0999999046,539749.9000000954,533868.248,534046.2999999523,533884.769,539579.223,8,400,20,,ISIC_0072021.JPG
break,html.Screen,4_69_1,2023-09-08T16:13:58.740Z,,0,,,NaN,,,,,,false,,,,539750.7999999523,539750.5999999046,,539750.2999999523,,539579.223,8,400,,,
break_continue,html.Screen,4_69_2,2023-09-08T16:13:58.740Z,,0,,,NaN,,,,,,false,,,,539751.2999999523,539751.2000000477,,539751,,539579.223,8,400,,,
sequence,flow.Sequence,4_69,2023-09-08T16:13:58.740Z,,0,,,5866.431000047713,completion,,,,,false,,,,539751.5,539751.2000000477,533868.248,534046.2999999523,533884.769,539579.223,8,400,,,
trial,html.Screen,4_70_0,2023-09-08T16:14:03.240Z,,0,2,,4671.177000095369,response,ISIC_4212044.JPG,5,ISIC_0033570.JPG,ISIC_4212044.JPG,false,1,keypress(m),500,544250.5999999046,544250.4000000954,539562.462,539751.5,539579.223,544088.127,8,400,21,,ISIC_0033570.JPG
break,html.Screen,4_70_1,2023-09-08T16:14:03.240Z,,0,,,NaN,,,,,,false,,,,544251.2000000477,544250.9000000954,,544250.7000000477,,544088.127,8,400,,,
break_continue,html.Screen,4_70_2,2023-09-08T16:14:03.241Z,,0,,,NaN,,,,,,false,,,,544251.5999999046,544251.5,,544251.2999999523,,544088.127,8,400,,,
sequence,flow.Sequence,4_70,2023-09-08T16:14:03.241Z,,0,,,4672.277000000002,completion,,,,,false,,,,544251.7000000477,544251.5,539562.462,539751.5,539579.223,544088.127,8,400,,,
trial,html.Screen,4_71_0,2023-09-08T16:14:08.500Z,,0,2,,5421.873000000021,response,ISIC_7235371.JPG,5,ISIC_0027538.JPG,ISIC_0027538.JPG,false,0,keypress(z),500,549510.2000000477,549510,544071.46,544251.7999999523,544088.127,549348.292,8,400,22,,ISIC_7235371.JPG
break,html.Screen,4_71_1,2023-09-08T16:14:08.501Z,,0,,,NaN,,,,,,false,,,,549511.2000000477,549511,,549510.4000000954,,549348.292,8,400,,,
break_continue,html.Screen,4_71_2,2023-09-08T16:14:08.501Z,,0,,,NaN,,,,,,false,,,,549511.5,549511.5,,549511.2999999523,,549348.292,8,400,,,
sequence,flow.Sequence,4_71,2023-09-08T16:14:08.501Z,,0,,,5423.373000000021,completion,,,,,false,,,,549511.7000000477,549511.5,544071.46,544251.7999999523,544088.127,549348.292,8,400,,,
trial,html.Screen,4_72_0,2023-09-08T16:14:13.453Z,,0,2,,5115.307999904617,response,ISIC_0001135.JPG,5,ISIC_6768006.JPG,ISIC_6768006.JPG,false,0,keypress(z),500,554464,554463.5999999046,549331.65,549511.7999999523,549348.292,554308.024,8,400,23,,ISIC_0001135.JPG
break,html.Screen,4_72_1,2023-09-08T16:14:13.455Z,,0,,,NaN,,,,,,false,,,,554465.9000000954,554465.2000000477,,554464.5,,554308.024,8,400,,,
break_continue,html.Screen,4_72_2,2023-09-08T16:14:13.456Z,,0,,,NaN,,,,,,false,,,,554466.9000000954,554466.5999999046,,554466.2000000477,,554308.024,8,400,,,
sequence,flow.Sequence,4_72,2023-09-08T16:14:13.457Z,,0,,,5118.307999904617,completion,,,,,false,,,,554467.2000000477,554466.5999999046,549331.65,549511.7999999523,549348.292,554308.024,8,400,,,
trial,html.Screen,4_73_0,2023-09-08T16:14:18.651Z,,0,2,,5353.376000095392,response,ISIC_7066723.JPG,5,ISIC_0485914.JPG,ISIC_0485914.JPG,false,0,keypress(z),500,559661.5999999046,559661.4000000954,554291.318,554467.5999999046,554308.024,559501.543,8,400,24,,ISIC_7066723.JPG
break,html.Screen,4_73_1,2023-09-08T16:14:18.652Z,,0,,,NaN,,,,,,false,,,,559662.5,559662.2000000477,,559661.7999999523,,559501.543,8,400,,,
break_continue,html.Screen,4_73_2,2023-09-08T16:14:18.652Z,,0,,,NaN,,,,,,false,,,,559662.7999999523,559662.7000000477,,559662.5999999046,,559501.543,8,400,,,
sequence,flow.Sequence,4_73,2023-09-08T16:14:18.652Z,,0,,,5354.676000047708,completion,,,,,false,,,,559663,559662.7000000477,554291.318,554467.5,554308.024,559501.543,8,400,,,
trial,html.Screen,4_74_0,2023-09-08T16:14:22.085Z,,0,2,,3593.7569999523694,response,ISIC_0032928.JPG,5,ISIC_6678508.JPG,ISIC_6678508.JPG,false,0,keypress(z),500,563095.5,563095.2999999523,559484.758,559663.0999999046,559501.543,562924.659,8,400,25,,ISIC_0032928.JPG
break,html.Screen,4_74_1,2023-09-08T16:14:22.086Z,,0,,,NaN,,,,,,false,,,,563096.2000000477,563096,,563095.5999999046,,562924.659,8,400,,,
break_continue,html.Screen,4_74_2,2023-09-08T16:14:22.086Z,,0,,,NaN,,,,,,false,,,,563096.5,563096.4000000954,,563096.2999999523,,562924.659,8,400,,,
sequence,flow.Sequence,4_74,2023-09-08T16:14:22.086Z,,0,,,3594.8570000954205,completion,,,,,false,,,,563096.5999999046,563096.4000000954,559484.758,559663.0999999046,559501.543,562924.659,8,400,,,
trial,html.Screen,4_75_0,2023-09-08T16:14:26.382Z,,0,2,,4468.140999952331,response,ISIC_0071931.JPG,6,ISIC_0064066.JPG,ISIC_0071931.JPG,false,1,keypress(m),500,567393,567392.7999999523,562908.048,563096.7000000477,562924.659,567233.009,8,400,26,,ISIC_0064066.JPG
break,html.Screen,4_75_1,2023-09-08T16:14:26.383Z,,0,,,NaN,,,,,,false,,,,567393.5999999046,567393.2999999523,,567393.0999999046,,567233.009,8,400,,,
break_continue,html.Screen,4_75_2,2023-09-08T16:14:26.383Z,,0,,,NaN,,,,,,false,,,,567394,567393.7999999523,,567393.7000000477,,567233.009,8,400,,,
sequence,flow.Sequence,4_75,2023-09-08T16:14:26.383Z,,0,,,4469.140999952331,completion,,,,,false,,,,567394,567393.7999999523,562908.048,563096.7000000477,562924.659,567233.009,8,400,,,
trial,html.Screen,4_76_0,2023-09-08T16:14:32.467Z,,0,2,,6244.2909999523545,response,ISIC_1595103.JPG,5,ISIC_8796456.JPG,ISIC_1595103.JPG,false,1,keypress(m),500,573477.7000000477,573477.2999999523,567216.443,567394.0999999046,567233.009,573311.625,8,400,27,,ISIC_8796456.JPG
break,html.Screen,4_76_1,2023-09-08T16:14:32.469Z,,0,,,NaN,,,,,,false,,,,573479.5,573478.9000000954,,573478.0999999046,,573311.625,8,400,,,
break_continue,html.Screen,4_76_2,2023-09-08T16:14:32.470Z,,0,,,NaN,,,,,,false,,,,573480.4000000954,573480.0999999046,,573479.7000000477,,573311.625,8,400,,,
sequence,flow.Sequence,4_76,2023-09-08T16:14:32.470Z,,0,,,6247.090999904671,completion,,,,,false,,,,573480.7000000477,573480.0999999046,567216.443,567394.0999999046,567233.009,573311.625,8,400,,,
trial,html.Screen,4_77_0,2023-09-08T16:14:39.212Z,,0,2,,6910.775000095367,response,ISIC_7278885.JPG,5,ISIC_0030656.JPG,ISIC_7278885.JPG,false,1,keypress(m),500,580222.5999999046,580222.4000000954,573294.816,573481,573311.625,580057.965,8,400,28,,ISIC_0030656.JPG
break,html.Screen,4_77_1,2023-09-08T16:14:39.213Z,,0,,,NaN,,,,,,false,,,,580223.5999999046,580223.2999999523,,580222.9000000954,,580057.965,8,400,,,
break_continue,html.Screen,4_77_2,2023-09-08T16:14:39.213Z,,0,,,NaN,,,,,,false,,,,580224.0999999046,580223.9000000954,,580223.7000000477,,580057.965,8,400,,,
sequence,flow.Sequence,4_77,2023-09-08T16:14:39.214Z,,0,,,6912.275000095367,completion,,,,,false,,,,580224.2000000477,580223.9000000954,573294.816,573480.7999999523,573311.625,580057.965,8,400,,,
trial,html.Screen,4_78_0,2023-09-08T16:14:46.408Z,,0,2,,7360.035000000033,response,ISIC_4640293.JPG,5,ISIC_0010319.JPG,ISIC_4640293.JPG,false,1,keypress(m),500,587418.2000000477,587418,580041.425,580224.4000000954,580057.965,587255.333,8,400,29,,ISIC_0010319.JPG
break,html.Screen,4_78_1,2023-09-08T16:14:46.408Z,,0,,,NaN,,,,,,false,,,,587418.7999999523,587418.5999999046,,587418.2999999523,,587255.333,8,400,,,
break_continue,html.Screen,4_78_2,2023-09-08T16:14:46.408Z,,0,,,NaN,,,,,,false,,,,587419.0999999046,587419,,587418.7999999523,,587255.333,8,400,,,
sequence,flow.Sequence,4_78,2023-09-08T16:14:46.409Z,,0,,,7361.035000000033,completion,,,,,false,,,,587419.2000000477,587419,580041.425,580224.2999999523,580057.965,587255.333,8,400,,,
trial,html.Screen,4_79_0,2023-09-08T16:14:50.717Z,,0,2,,4471.8670000477,response,ISIC_0008934.JPG,5,ISIC_1247683.JPG,ISIC_0008934.JPG,false,1,keypress(m),500,591727.2999999523,591727.2000000477,587238.686,587419.2999999523,587255.333,591563.742,8,400,30,,ISIC_1247683.JPG
break,html.Screen,4_79_1,2023-09-08T16:14:50.717Z,,0,,,NaN,,,,,,false,,,,591727.9000000954,591727.7000000477,,591727.4000000954,,591563.742,8,400,,,
break_continue,html.Screen,4_79_2,2023-09-08T16:14:50.718Z,,0,,,NaN,,,,,,false,,,,591728.2999999523,591728.2000000477,,591728,,591563.742,8,400,,,
sequence,flow.Sequence,4_79,2023-09-08T16:14:50.718Z,,0,,,4472.8670000477,completion,,,,,false,,,,591728.4000000954,591728.2000000477,587238.686,587419.2000000477,587255.333,591563.742,8,400,,,
trial,html.Screen,4_80_0,2023-09-08T16:14:54.064Z,,0,2,,3510.3579999046633,response,ISIC_9742891.JPG,5,ISIC_0011491.JPG,ISIC_9742891.JPG,false,1,keypress(m),500,595074.2999999523,595074.0999999046,591547.195,591728.4000000954,591563.742,594903.574,8,400,31,,ISIC_0011491.JPG
break,html.Screen,4_80_1,2023-09-08T16:14:54.064Z,,0,,,NaN,,,,,,false,,,,595074.9000000954,595074.7000000477,,595074.4000000954,,594903.574,8,400,,,
break_continue,html.Screen,4_80_2,2023-09-08T16:14:54.065Z,,0,,,NaN,,,,,,false,,,,595075.2000000477,595075.2000000477,,595075,,594903.574,8,400,,,
sequence,flow.Sequence,4_80,2023-09-08T16:14:54.065Z,,0,,,3511.4580000477144,completion,,,,,false,,,,595075.4000000954,595075.2000000477,591547.195,591728.4000000954,591563.742,594903.574,8,400,,,
trial,html.Screen,4_81_0,2023-09-08T16:14:57.716Z,,0,2,,3822.826000095345,response,ISIC_2860618.JPG,5,ISIC_0067326.JPG,ISIC_2860618.JPG,false,1,keypress(m),500,598726.5999999046,598726.4000000954,594886.91,595075.5,594903.574,598560.758,8,400,32,,ISIC_0067326.JPG
break,html.Screen,4_81_1,2023-09-08T16:14:57.717Z,,0,,,NaN,,,,,,false,,,,598727.2000000477,598727,,598726.7000000477,,598560.758,8,400,,,
break_continue,html.Screen,4_81_2,2023-09-08T16:14:57.717Z,,0,,,NaN,,,,,,false,,,,598727.5,598727.5,,598727.2999999523,,598560.758,8,400,,,
sequence,flow.Sequence,4_81,2023-09-08T16:14:57.717Z,,0,,,3823.9259999999776,completion,,,,,false,,,,598727.7000000477,598727.5,594886.91,595075.4000000954,594903.574,598560.758,8,400,,,
trial,html.Screen,4_82_0,2023-09-08T16:15:03.272Z,,0,2,,5721.541999952286,response,ISIC_7455460.JPG,6,ISIC_8401332.JPG,ISIC_8401332.JPG,false,0,keypress(z),500,604282.7999999523,604282.2999999523,598544.073,598727.7999999523,598560.758,604121.699,8,400,33,,ISIC_7455460.JPG
break,html.Screen,4_82_1,2023-09-08T16:15:03.274Z,,0,,,NaN,,,,,,false,,,,604284.5999999046,604284,,604283.2000000477,,604121.699,8,400,,,
break_continue,html.Screen,4_82_2,2023-09-08T16:15:03.275Z,,0,,,NaN,,,,,,false,,,,604285.5,604285.2000000477,,604284.7999999523,,604121.699,8,400,,,
sequence,flow.Sequence,4_82,2023-09-08T16:15:03.275Z,,0,,,5724.442000047653,completion,,,,,false,,,,604285.7999999523,604285.2000000477,598544.073,598727.7000000477,598560.758,604121.699,8,400,,,
trial,html.Screen,4_83_0,2023-09-08T16:15:09.094Z,,0,2,,5982.600999952294,response,ISIC_0010068.JPG,6,ISIC_0073136.JPG,ISIC_0010068.JPG,false,1,keypress(m),500,610104.4000000954,610104.2999999523,604104.779,604286,604121.699,609949.629,8,400,34,,ISIC_0073136.JPG
break,html.Screen,4_83_1,2023-09-08T16:15:09.095Z,,0,,,NaN,,,,,,false,,,,610105.2999999523,610105.0999999046,,610104.7000000477,,609949.629,8,400,,,
break_continue,html.Screen,4_83_2,2023-09-08T16:15:09.095Z,,0,,,NaN,,,,,,false,,,,610105.7000000477,610105.5999999046,,610105.5,,609949.629,8,400,,,
sequence,flow.Sequence,4_83,2023-09-08T16:15:09.095Z,,0,,,5983.90099990461,completion,,,,,false,,,,610105.7000000477,610105.5999999046,604104.779,604286,604121.699,609949.629,8,400,,,
trial,html.Screen,4_84_0,2023-09-08T16:15:14.186Z,,0,2,,5246.170999952359,response,ISIC_8851038.JPG,6,ISIC_0033704.JPG,ISIC_8851038.JPG,false,1,keypress(m),500,615196,615195.7999999523,609932.9,610105.7999999523,609949.629,615026.044,8,400,35,,ISIC_0033704.JPG
break,html.Screen,4_84_1,2023-09-08T16:15:14.186Z,,0,,,NaN,,,,,,false,,,,615196.4000000954,615196.2999999523,,615196.0999999046,,615026.044,8,400,,,
break_continue,html.Screen,4_84_2,2023-09-08T16:15:14.186Z,,0,,,NaN,,,,,,false,,,,615196.5999999046,615196.5,,615196.4000000954,,615026.044,8,400,,,
sequence,flow.Sequence,4_84,2023-09-08T16:15:14.186Z,,0,,,5246.871000000043,completion,,,,,false,,,,615196.7000000477,615196.5,609932.9,610105.7999999523,609949.629,615026.044,8,400,,,
trial,html.Screen,4_85_0,2023-09-08T16:15:18.797Z,,0,2,,4780.656000047689,response,ISIC_0069056.JPG,4,ISIC_7212271.JPG,ISIC_0069056.JPG,false,1,keypress(m),500,619807.2999999523,619806.7000000477,615009.51,615196.7999999523,615026.044,619668.582,8,400,36,,ISIC_7212271.JPG
break,html.Screen,4_85_1,2023-09-08T16:15:18.799Z,,0,,,NaN,,,,,,false,,,,619809.2000000477,619808.7999999523,,619807.7999999523,,619668.582,8,400,,,
break_continue,html.Screen,4_85_2,2023-09-08T16:15:18.800Z,,0,,,NaN,,,,,,false,,,,619810.2000000477,619809.9000000954,,619809.5,,619668.582,8,400,,,
sequence,flow.Sequence,4_85,2023-09-08T16:15:18.800Z,,0,,,4783.856000095373,completion,,,,,false,,,,619810.5,619809.9000000954,615009.51,615196.7999999523,615026.044,619668.582,8,400,,,
trial,html.Screen,4_86_0,2023-09-08T16:15:22.071Z,,0,2,,3412.717999952263,response,ISIC_1124434.JPG,5,ISIC_0028692.JPG,ISIC_1124434.JPG,false,1,keypress(m),500,623081.4000000954,623081.2999999523,619651.889,619810.7999999523,619668.582,622924.926,8,400,37,,ISIC_0028692.JPG
break,html.Screen,4_86_1,2023-09-08T16:15:22.072Z,,0,,,NaN,,,,,,false,,,,623082.0999999046,623081.7999999523,,623081.5999999046,,622924.926,8,400,,,
break_continue,html.Screen,4_86_2,2023-09-08T16:15:22.072Z,,0,,,NaN,,,,,,false,,,,623082.5,623082.2999999523,,623082.2000000477,,622924.926,8,400,,,
sequence,flow.Sequence,4_86,2023-09-08T16:15:22.072Z,,0,,,3413.717999952263,completion,,,,,false,,,,623082.5,623082.2999999523,619651.889,619810.7000000477,619668.582,622924.926,8,400,,,
trial,html.Screen,4_87_0,2023-09-08T16:15:27.326Z,,0,2,,5408.274000047706,response,ISIC_4536709.JPG,6,ISIC_6793983.JPG,ISIC_6793983.JPG,false,0,keypress(z),500,628335.7999999523,628333.2000000477,622908.09,623082.5999999046,622924.926,628168.351,8,400,38,,ISIC_4536709.JPG
break,html.Screen,4_87_1,2023-09-08T16:15:27.327Z,,0,,,NaN,,,,,,false,,,,628337.5999999046,628337.2000000477,,628336.2999999523,,628168.351,8,400,,,
break_continue,html.Screen,4_87_2,2023-09-08T16:15:27.328Z,,0,,,NaN,,,,,,false,,,,628338.5,628338.2999999523,,628337.9000000954,,628168.351,8,400,,,
sequence,flow.Sequence,4_87,2023-09-08T16:15:27.329Z,,0,,,5413.373999952339,completion,,,,,false,,,,628338.9000000954,628338.2999999523,622908.09,623082.5999999046,622924.926,628168.351,8,400,,,
trial,html.Screen,4_88_0,2023-09-08T16:15:32.137Z,,0,2,,4978.648999999976,response,ISIC_1069587.JPG,6,ISIC_0066321.JPG,ISIC_0066321.JPG,false,0,keypress(z),500,633147.4000000954,633147,628151.714,628339.2000000477,628168.351,632995.488,8,400,39,,ISIC_1069587.JPG
break,html.Screen,4_88_1,2023-09-08T16:15:32.139Z,,0,,,NaN,,,,,,false,,,,633149.2999999523,633148.7000000477,,633147.9000000954,,632995.488,8,400,,,
break_continue,html.Screen,4_88_2,2023-09-08T16:15:32.140Z,,0,,,NaN,,,,,,false,,,,633150.2000000477,633149.9000000954,,633149.5999999046,,632995.488,8,400,,,
sequence,flow.Sequence,4_88,2023-09-08T16:15:32.140Z,,0,,,4981.549000095343,completion,,,,,false,,,,633150.5999999046,633149.9000000954,628151.714,628339.2000000477,628168.351,632995.488,8,400,,,
trial,html.Screen,4_89_0,2023-09-08T16:15:38.199Z,,0,2,,6213.6119999046205,response,ISIC_0046706.JPG,5,ISIC_0026208.JPG,ISIC_0026208.JPG,false,0,keypress(z),500,639209.2000000477,639209.0999999046,632961.096,633150.7999999523,632995.488,639039.466,8,400,40,,ISIC_0046706.JPG
break,html.Screen,4_89_1,2023-09-08T16:15:38.200Z,,0,,,NaN,,,,,,false,,,,639209.7999999523,639209.5999999046,,639209.2999999523,,639039.466,8,400,,,
break_continue,html.Screen,4_89_2,2023-09-08T16:15:38.200Z,,0,,,NaN,,,,,,false,,,,639210.0999999046,639210.0999999046,,639209.9000000954,,639039.466,8,400,,,
sequence,flow.Sequence,4_89,2023-09-08T16:15:38.200Z,,0,,,6214.6119999046205,completion,,,,,false,,,,639210.2999999523,639210.0999999046,632961.096,633150.7999999523,632995.488,639039.466,8,400,,,
trial,html.Screen,4_90_0,2023-09-08T16:15:41.825Z,,0,2,,3796.033999999985,response,ISIC_0025035.JPG,5,ISIC_5391190.JPG,ISIC_5391190.JPG,false,0,keypress(z),500,642835.7000000477,642835.5,639022.896,639210.4000000954,639039.466,642696.692,8,400,41,,ISIC_0025035.JPG
break,html.Screen,4_90_1,2023-09-08T16:15:41.826Z,,0,,,NaN,,,,,,false,,,,642836.2000000477,642836,,642835.7000000477,,642696.692,8,400,,,
break_continue,html.Screen,4_90_2,2023-09-08T16:15:41.826Z,,0,,,NaN,,,,,,false,,,,642836.4000000954,642836.4000000954,,642836.2000000477,,642696.692,8,400,,,
sequence,flow.Sequence,4_90,2023-09-08T16:15:41.826Z,,0,,,3796.9340000953525,completion,,,,,false,,,,642836.5,642836.4000000954,639022.896,639210.2999999523,639039.466,642696.692,8,400,,,
trial,html.Screen,4_91_0,2023-09-08T16:15:46.438Z,,0,2,,4750.807999999961,response,ISIC_3298596.JPG,4,ISIC_0029995.JPG,ISIC_3298596.JPG,false,1,keypress(m),500,647447.7999999523,647447.5,642679.849,642836.5,642696.692,647288.857,8,400,42,,ISIC_0029995.JPG
break,html.Screen,4_91_1,2023-09-08T16:15:46.439Z,,0,,,NaN,,,,,,false,,,,647449.5999999046,647449,,647448.2999999523,,647288.857,8,400,,,
break_continue,html.Screen,4_91_2,2023-09-08T16:15:46.440Z,,0,,,NaN,,,,,,false,,,,647450.5999999046,647450.2999999523,,647449.9000000954,,647288.857,8,400,,,
sequence,flow.Sequence,4_91,2023-09-08T16:15:46.441Z,,0,,,4753.607999952277,completion,,,,,false,,,,647451,647450.2999999523,642679.849,642836.5,642696.692,647288.857,8,400,,,
trial,html.Screen,4_92_0,2023-09-08T16:15:51.725Z,,0,2,,5445.942999952356,response,ISIC_0000306.JPG,5,ISIC_0056531.JPG,ISIC_0000306.JPG,false,1,keypress(m),500,652735.2000000477,652734.7999999523,647272.287,647451.2999999523,647288.857,652583.415,8,400,43,,ISIC_0056531.JPG
break,html.Screen,4_92_1,2023-09-08T16:15:51.727Z,,0,,,NaN,,,,,,false,,,,652737.4000000954,652736.7000000477,,652735.7000000477,,652583.415,8,400,,,
break_continue,html.Screen,4_92_2,2023-09-08T16:15:51.729Z,,0,,,NaN,,,,,,false,,,,652738.7999999523,652738.4000000954,,652737.7999999523,,652583.415,8,400,,,
sequence,flow.Sequence,4_92,2023-09-08T16:15:51.729Z,,0,,,5449.5430000954075,completion,,,,,false,,,,652739.4000000954,652738.4000000954,647272.287,647451.2000000477,647288.857,652583.415,8,400,,,
trial,html.Screen,4_93_0,2023-09-08T16:15:57.171Z,,0,2,,5597.684999904595,response,ISIC_9090822.JPG,5,ISIC_2616327.JPG,ISIC_2616327.JPG,false,0,keypress(z),500,658181.2999999523,658181.0999999046,652549.309,652739.5,652583.415,658026.347,8,400,44,,ISIC_9090822.JPG
break,html.Screen,4_93_1,2023-09-08T16:15:57.172Z,,0,,,NaN,,,,,,false,,,,658182.2999999523,658182,,658181.5,,658026.347,8,400,,,
break_continue,html.Screen,4_93_2,2023-09-08T16:15:57.172Z,,0,,,NaN,,,,,,false,,,,658182.5999999046,658182.5,,658182.2999999523,,658026.347,8,400,,,
sequence,flow.Sequence,4_93,2023-09-08T16:15:57.173Z,,0,,,5599.084999999963,completion,,,,,false,,,,658182.7999999523,658182.5,652549.309,652739.5,652583.415,658026.347,8,400,,,
trial,html.Screen,4_94_0,2023-09-08T16:16:01.224Z,,0,2,,4207.653000000049,response,ISIC_2622189.JPG,5,ISIC_8278458.JPG,ISIC_2622189.JPG,false,1,keypress(m),500,662234.0999999046,662234,658009.737,658182.9000000954,658026.347,662084.421,8,400,45,,ISIC_8278458.JPG
break,html.Screen,4_94_1,2023-09-08T16:16:01.225Z,,0,,,NaN,,,,,,false,,,,662234.7999999523,662234.5999999046,,662234.2000000477,,662084.421,8,400,,,
break_continue,html.Screen,4_94_2,2023-09-08T16:16:01.225Z,,0,,,NaN,,,,,,false,,,,662235.0999999046,662235,,662234.9000000954,,662084.421,8,400,,,
sequence,flow.Sequence,4_94,2023-09-08T16:16:01.225Z,,0,,,4208.653000000049,completion,,,,,false,,,,662235.2000000477,662235,658009.737,658182.9000000954,658026.347,662084.421,8,400,,,
trial,html.Screen,4_95_0,2023-09-08T16:16:05.852Z,,0,2,,4776.979000095394,response,ISIC_0033058.JPG,6,ISIC_0067485.JPG,ISIC_0033058.JPG,false,1,keypress(m),500,666861.5,666861.4000000954,662067.687,662235.2000000477,662084.421,666693.212,8,400,46,,ISIC_0067485.JPG
break,html.Screen,4_95_1,2023-09-08T16:16:05.852Z,,0,,,NaN,,,,,,false,,,,666862.2000000477,666861.9000000954,,666861.5999999046,,666693.212,8,400,,,
break_continue,html.Screen,4_95_2,2023-09-08T16:16:05.853Z,,0,,,NaN,,,,,,false,,,,666862.5,666862.4000000954,,666862.2999999523,,666693.212,8,400,,,
sequence,flow.Sequence,4_95,2023-09-08T16:16:05.853Z,,0,,,4777.979000095394,completion,,,,,false,,,,666862.5,666862.4000000954,662067.687,662235.2000000477,662084.421,666693.212,8,400,,,
trial,html.Screen,4_96_0,2023-09-08T16:16:16.277Z,,0,2,,10592.988000047626,response,ISIC_4108397.JPG,5,ISIC_0024280.JPG,ISIC_4108397.JPG,false,1,keypress(m),500,677286.9000000954,677286.2000000477,666676.527,666862.7000000477,666693.212,677130.316,8,400,47,,ISIC_0024280.JPG
break,html.Screen,4_96_1,2023-09-08T16:16:16.280Z,,0,,,NaN,,,,,,false,,,,677290.0999999046,677289.0999999046,,677287.9000000954,,677130.316,8,400,,,
break_continue,html.Screen,4_96_2,2023-09-08T16:16:16.282Z,,0,,,NaN,,,,,,false,,,,677291.5,677291.0999999046,,677290.5,,677130.316,8,400,,,
sequence,flow.Sequence,4_96,2023-09-08T16:16:16.282Z,,0,,,10597.887999904575,completion,,,,,false,,,,677292.2000000477,677291.0999999046,666676.527,666862.5999999046,666693.212,677130.316,8,400,,,
trial,html.Screen,4_97_0,2023-09-08T16:16:20.520Z,,0,2,,4399.184000000008,response,ISIC_0013988.JPG,4,ISIC_0024310.JPG,ISIC_0013988.JPG,false,1,keypress(m),500,681529.7000000477,681529.5,677113.555,677292.7999999523,677130.316,681371.829,8,400,48,,ISIC_0024310.JPG
break,html.Screen,4_97_1,2023-09-08T16:16:20.520Z,,0,,,NaN,,,,,,false,,,,681530.2999999523,681530.2000000477,,681529.9000000954,,681371.829,8,400,,,
break_continue,html.Screen,4_97_2,2023-09-08T16:16:20.521Z,,0,,,NaN,,,,,,false,,,,681530.7999999523,681530.7000000477,,681530.5,,681371.829,8,400,,,
sequence,flow.Sequence,4_97,2023-09-08T16:16:20.521Z,,0,,,4400.384000047692,completion,,,,,false,,,,681530.9000000954,681530.7000000477,677113.555,677292.5999999046,677130.316,681371.829,8,400,,,
trial,html.Screen,4_98_0,2023-09-08T16:16:27.341Z,,0,2,,6978.270999904606,response,ISIC_2616327.JPG,5,ISIC_2276141.JPG,ISIC_2616327.JPG,false,1,keypress(m),500,688350.4000000954,688350.0999999046,681355.105,681531,681371.829,688185.126,8,400,49,,ISIC_2276141.JPG
break,html.Screen,4_98_1,2023-09-08T16:16:27.341Z,,0,,,NaN,,,,,,false,,,,688351.2000000477,688351,,688350.7999999523,,688185.126,8,400,,,
break_continue,html.Screen,4_98_2,2023-09-08T16:16:27.342Z,,0,,,NaN,,,,,,false,,,,688351.4000000954,688351.4000000954,,688351.2999999523,,688185.126,8,400,,,
sequence,flow.Sequence,4_98,2023-09-08T16:16:27.342Z,,0,,,6979.57100009534,completion,,,,,false,,,,688351.5,688351.4000000954,681355.105,681531,681371.829,688185.126,8,400,,,
trial,html.Screen,4_99_0,2023-09-08T16:16:32.132Z,,0,2,,4956.27400009532,response,ISIC_0028025.JPG,5,ISIC_0010316.JPG,ISIC_0010316.JPG,false,0,keypress(z),500,693141.5,693141.4000000954,688168.559,688351.5999999046,688185.126,692977.865,8,400,50,,ISIC_0028025.JPG
break,html.Screen,4_99_1,2023-09-08T16:16:41.984Z,,0,,,9852.559000000008,timeout,,,,,false,,,,702993.5999999046,702993.2999999523,692961.028,693141.7000000477,692977.865,702830.424,8,400,,,
break_continue,html.Screen,4_99_2,2023-09-08T16:16:54.990Z,,0,,,13136.076000000001,response,,,,,false,continue,keypress(Space),,715999.5999999046,715966.5,702993.2999999523,702993.7999999523,702830.424,715822.162,8,400,,,
sequence,flow.Sequence,4_99,2023-09-08T16:16:54.990Z,,0,,,27781.373999999953,completion,,,,,false,,,,715999.7000000477,715966.5,688168.559,688351.5,688185.126,715822.162,8,400,,,
trial,html.Screen,4_100_0,2023-09-08T16:17:00.545Z,,0,3,,5731.837999999989,response,ISIC_0065477.JPG,6,ISIC_0027087.JPG,ISIC_0027087.JPG,false,0,keypress(z),500,721554.5,721554,715805.474,715999.7999999523,715822.162,721416.442,8,400,1,,ISIC_0065477.JPG
break,html.Screen,4_100_1,2023-09-08T16:17:00.547Z,,0,,,NaN,,,,,,false,,,,721556.7999999523,721556.2000000477,,721555,,721416.442,8,400,,,
break_continue,html.Screen,4_100_2,2023-09-08T16:17:00.548Z,,0,,,NaN,,,,,,false,,,,721557.7000000477,721557.4000000954,,721557.0999999046,,721416.442,8,400,,,
sequence,flow.Sequence,4_100,2023-09-08T16:17:00.548Z,,0,,,5735.238000095356,completion,,,,,false,,,,721558.0999999046,721557.4000000954,715805.474,715999.7999999523,715822.162,721416.442,8,400,,,
trial,html.Screen,4_101_0,2023-09-08T16:17:04.571Z,,0,3,,4164.057999999961,response,ISIC_4241907.JPG,6,ISIC_3361955.JPG,ISIC_4241907.JPG,false,1,keypress(m),500,725580.7999999523,725580.5,721383.021,721558.4000000954,721416.442,725424.265,8,400,2,,ISIC_3361955.JPG
break,html.Screen,4_101_1,2023-09-08T16:17:04.572Z,,0,,,NaN,,,,,,false,,,,725581.9000000954,725581.5,,725581,,725424.265,8,400,,,
break_continue,html.Screen,4_101_2,2023-09-08T16:17:04.573Z,,0,,,NaN,,,,,,false,,,,725582.4000000954,725582.2999999523,,725582.0999999046,,725424.265,8,400,,,
sequence,flow.Sequence,4_101,2023-09-08T16:17:04.573Z,,0,,,4165.857999952277,completion,,,,,false,,,,725582.7000000477,725582.2999999523,721383.021,721558.2999999523,721416.442,725424.265,8,400,,,
trial,html.Screen,4_102_0,2023-09-08T16:17:08.489Z,,0,3,,4074.1350000953535,response,ISIC_0030729.JPG,5,ISIC_0032996.JPG,ISIC_0030729.JPG,false,1,keypress(m),500,729498.5999999046,729498.4000000954,725407.513,725582.7999999523,725424.265,729331.819,8,400,3,,ISIC_0032996.JPG
break,html.Screen,4_102_1,2023-09-08T16:17:08.490Z,,0,,,NaN,,,,,,false,,,,729499.2999999523,729499.0999999046,,729498.7999999523,,729331.819,8,400,,,
break_continue,html.Screen,4_102_2,2023-09-08T16:17:08.490Z,,0,,,NaN,,,,,,false,,,,729499.5999999046,729499.5,,729499.4000000954,,729331.819,8,400,,,
sequence,flow.Sequence,4_102,2023-09-08T16:17:08.490Z,,0,,,4075.234999999986,completion,,,,,false,,,,729499.7999999523,729499.5,725407.513,725582.7999999523,725424.265,729331.819,8,400,,,
trial,html.Screen,4_103_0,2023-09-08T16:17:11.694Z,,0,3,,3371.280999904615,response,ISIC_0062158.JPG,5,ISIC_4848047.JPG,ISIC_4848047.JPG,false,0,keypress(z),500,732703.2999999523,732703.0999999046,729315.17,729499.9000000954,729331.819,732538.108,8,400,4,,ISIC_0062158.JPG
break,html.Screen,4_103_1,2023-09-08T16:17:11.695Z,,0,,,NaN,,,,,,false,,,,732704.2999999523,732704,,732703.5,,732538.108,8,400,,,
break_continue,html.Screen,4_103_2,2023-09-08T16:17:11.695Z,,0,,,NaN,,,,,,false,,,,732704.7999999523,732704.7000000477,,732704.5,,732538.108,8,400,,,
sequence,flow.Sequence,4_103,2023-09-08T16:17:11.696Z,,0,,,3372.881000047666,completion,,,,,false,,,,732705,732704.7000000477,729315.17,729499.7999999523,729331.819,732538.108,8,400,,,
trial,html.Screen,4_104_0,2023-09-08T16:17:16.740Z,,0,3,,5211.391999999993,response,ISIC_0033668.JPG,5,ISIC_0061454.JPG,ISIC_0061454.JPG,false,0,keypress(z),500,737749.5999999046,737749.5,732521.332,732705.2000000477,732538.108,737581.19,8,400,5,,ISIC_0033668.JPG
break,html.Screen,4_104_1,2023-09-08T16:17:16.741Z,,0,,,NaN,,,,,,false,,,,737750.2999999523,737750.0999999046,,737749.7999999523,,737581.19,8,400,,,
break_continue,html.Screen,4_104_2,2023-09-08T16:17:16.741Z,,0,,,NaN,,,,,,false,,,,737750.5999999046,737750.5,,737750.2999999523,,737581.19,8,400,,,
sequence,flow.Sequence,4_104,2023-09-08T16:17:16.741Z,,0,,,5212.391999999993,completion,,,,,false,,,,737750.7000000477,737750.5,732521.332,732705.2000000477,732538.108,737581.19,8,400,,,
trial,html.Screen,4_105_0,2023-09-08T16:17:20.983Z,,0,3,,4411.01000004774,response,ISIC_1519891.JPG,5,ISIC_7381224.JPG,ISIC_1519891.JPG,false,1,keypress(m),500,741992.4000000954,741992.2000000477,737564.515,737750.7000000477,737581.19,741822.812,8,400,6,,ISIC_7381224.JPG
break,html.Screen,4_105_1,2023-09-08T16:17:20.983Z,,0,,,NaN,,,,,,false,,,,741993,741992.7999999523,,741992.5,,741822.812,8,400,,,
break_continue,html.Screen,4_105_2,2023-09-08T16:17:20.984Z,,0,,,NaN,,,,,,false,,,,741993.2999999523,741993.2000000477,,741993,,741822.812,8,400,,,
sequence,flow.Sequence,4_105,2023-09-08T16:17:20.984Z,,0,,,4412.01000004774,completion,,,,,false,,,,741993.5,741993.2000000477,737564.515,737750.7000000477,737581.19,741822.812,8,400,,,
trial,html.Screen,4_106_0,2023-09-08T16:17:25.052Z,,0,3,,4238.388000047649,response,ISIC_0033299.JPG,5,ISIC_0070948.JPG,ISIC_0070948.JPG,false,0,keypress(z),500,746061.2000000477,746061.2000000477,741806.094,741993.5,741822.812,745914.065,8,400,7,,ISIC_0033299.JPG
break,html.Screen,4_106_1,2023-09-08T16:17:25.052Z,,0,,,NaN,,,,,,false,,,,746061.7000000477,746061.5999999046,,746061.4000000954,,745914.065,8,400,,,
break_continue,html.Screen,4_106_2,2023-09-08T16:17:25.052Z,,0,,,NaN,,,,,,false,,,,746061.9000000954,746061.9000000954,,746061.7999999523,,745914.065,8,400,,,
sequence,flow.Sequence,4_106,2023-09-08T16:17:25.052Z,,0,,,4239.088000095333,completion,,,,,false,,,,746062,746061.9000000954,741806.094,741993.5,741822.812,745914.065,8,400,,,
trial,html.Screen,4_107_0,2023-09-08T16:17:31.456Z,,0,3,,6550.734999952372,response,ISIC_0072843.JPG,4,ISIC_0065341.JPG,ISIC_0072843.JPG,false,1,keypress(m),500,752465.2999999523,752464.7999999523,745897.364,746062.0999999046,745914.065,752309.912,8,400,8,,ISIC_0065341.JPG
break,html.Screen,4_107_1,2023-09-08T16:17:31.458Z,,0,,,NaN,,,,,,false,,,,752467.7000000477,752467,,752465.9000000954,,752309.912,8,400,,,
break_continue,html.Screen,4_107_2,2023-09-08T16:17:31.459Z,,0,,,NaN,,,,,,false,,,,752468.5999999046,752468.2999999523,,752467.9000000954,,752309.912,8,400,,,
sequence,flow.Sequence,4_107,2023-09-08T16:17:31.459Z,,0,,,6554.234999952372,completion,,,,,false,,,,752468.9000000954,752468.2999999523,745897.364,746062.0999999046,745914.065,752309.912,8,400,,,
trial,html.Screen,4_108_0,2023-09-08T16:17:36.092Z,,0,3,,4791.488000095356,response,ISIC_0064014.JPG,5,ISIC_5204796.JPG,ISIC_5204796.JPG,false,0,keypress(z),500,757101.4000000954,757101.4000000954,752293.403,752469.2000000477,752309.912,756935.576,8,400,9,,ISIC_0064014.JPG
break,html.Screen,4_108_1,2023-09-08T16:17:36.092Z,,0,,,NaN,,,,,,false,,,,757102,757101.7999999523,,757101.5,,756935.576,8,400,,,
break_continue,html.Screen,4_108_2,2023-09-08T16:17:36.093Z,,0,,,NaN,,,,,,false,,,,757102.2000000477,757102.0999999046,,757102,,756935.576,8,400,,,
sequence,flow.Sequence,4_108,2023-09-08T16:17:36.093Z,,0,,,4792.187999904621,completion,,,,,false,,,,757102.2999999523,757102.0999999046,752293.403,752469.2000000477,752309.912,756935.576,8,400,,,
trial,html.Screen,4_109_0,2023-09-08T16:17:43.142Z,,0,3,,7216.023999904632,response,ISIC_0030889.JPG,5,ISIC_9080774.JPG,ISIC_9080774.JPG,false,0,keypress(z),500,764152,764151.5999999046,756918.825,757102.2999999523,756935.576,763999.293,8,400,10,,ISIC_0030889.JPG
break,html.Screen,4_109_1,2023-09-08T16:17:43.144Z,,0,,,NaN,,,,,,false,,,,764153.2999999523,764152.9000000954,,764152.2999999523,,763999.293,8,400,,,
break_continue,html.Screen,4_109_2,2023-09-08T16:17:43.144Z,,0,,,NaN,,,,,,false,,,,764154,764153.7000000477,,764153.5,,763999.293,8,400,,,
sequence,flow.Sequence,4_109,2023-09-08T16:17:43.145Z,,0,,,7218.124000047683,completion,,,,,false,,,,764154.2000000477,764153.7000000477,756918.825,757102.2999999523,756935.576,763999.293,8,400,,,
trial,html.Screen,4_110_0,2023-09-08T16:17:48.277Z,,0,3,,5287.306999904686,response,ISIC_6440229.JPG,5,ISIC_4770073.JPG,ISIC_4770073.JPG,false,0,keypress(z),500,769286.7999999523,769286.5999999046,763982.675,764154.5,763999.293,769125.927,8,400,11,,ISIC_6440229.JPG
break,html.Screen,4_110_1,2023-09-08T16:17:48.278Z,,0,,,NaN,,,,,,false,,,,769287.9000000954,769287.5999999046,,769287.0999999046,,769125.927,8,400,,,
break_continue,html.Screen,4_110_2,2023-09-08T16:17:48.279Z,,0,,,NaN,,,,,,false,,,,769288.5,769288.2999999523,,769288.0999999046,,769125.927,8,400,,,
sequence,flow.Sequence,4_110,2023-09-08T16:17:48.279Z,,0,,,5289.006999952369,completion,,,,,false,,,,769288.7000000477,769288.2999999523,763982.675,764154.4000000954,763999.293,769125.927,8,400,,,
trial,html.Screen,4_111_0,2023-09-08T16:17:54.477Z,,0,3,,6360.172999904607,response,ISIC_0027921.JPG,6,ISIC_0033520.JPG,ISIC_0033520.JPG,false,0,keypress(z),500,775486.4000000954,775486.0999999046,769109.249,769288.9000000954,769125.927,775321.374,8,400,12,,ISIC_0027921.JPG
break,html.Screen,4_111_1,2023-09-08T16:17:54.479Z,,0,,,NaN,,,,,,false,,,,775488.2999999523,775487.7000000477,,775487,,775321.374,8,400,,,
break_continue,html.Screen,4_111_2,2023-09-08T16:17:54.480Z,,0,,,NaN,,,,,,false,,,,775489.2999999523,775489,,775488.5,,775321.374,8,400,,,
sequence,flow.Sequence,4_111,2023-09-08T16:17:54.480Z,,0,,,6363.072999999975,completion,,,,,false,,,,775489.7000000477,775489,769109.249,769288.7999999523,769125.927,775321.374,8,400,,,
trial,html.Screen,4_112_0,2023-09-08T16:17:58.635Z,,0,3,,4322.526000095415,response,ISIC_7570343.JPG,5,ISIC_1783062.JPG,ISIC_7570343.JPG,false,1,keypress(m),500,779644.2999999523,779643.9000000954,775304.559,775490,775321.374,779479.476,8,400,13,,ISIC_1783062.JPG
break,html.Screen,4_112_1,2023-09-08T16:17:58.637Z,,0,,,NaN,,,,,,false,,,,779646,779645.5,,779644.7000000477,,779479.476,8,400,,,
break_continue,html.Screen,4_112_2,2023-09-08T16:17:58.637Z,,0,,,NaN,,,,,,false,,,,779646.9000000954,779646.5999999046,,779646.2999999523,,779479.476,8,400,,,
sequence,flow.Sequence,4_112,2023-09-08T16:17:58.638Z,,0,,,4325.22599990468,completion,,,,,false,,,,779647.2999999523,779646.5999999046,775304.559,775490,775321.374,779479.476,8,400,,,
trial,html.Screen,4_113_0,2023-09-08T16:18:01.844Z,,0,3,,3373.7240000476595,response,ISIC_8353090.JPG,4,ISIC_0011958.JPG,ISIC_8353090.JPG,false,1,keypress(m),500,782853.2999999523,782853.2000000477,779462.848,779647.7000000477,779479.476,782685.65,8,400,14,,ISIC_0011958.JPG
break,html.Screen,4_113_1,2023-09-08T16:18:01.844Z,,0,,,NaN,,,,,,false,,,,782853.7999999523,782853.7000000477,,782853.4000000954,,782685.65,8,400,,,
break_continue,html.Screen,4_113_2,2023-09-08T16:18:01.845Z,,0,,,NaN,,,,,,false,,,,782854.7999999523,782854.7000000477,,782854.5999999046,,782685.65,8,400,,,
sequence,flow.Sequence,4_113,2023-09-08T16:18:01.845Z,,0,,,3375.2240000476595,completion,,,,,false,,,,782854.9000000954,782854.7000000477,779462.848,779647.5999999046,779479.476,782685.65,8,400,,,
trial,html.Screen,4_114_0,2023-09-08T16:18:05.640Z,,0,3,,3963.149999952293,response,ISIC_0056979.JPG,5,ISIC_3295750.JPG,ISIC_3295750.JPG,false,0,keypress(z),500,786649.2000000477,786648.7999999523,782669.106,782854.9000000954,782685.65,786493.194,8,400,15,,ISIC_0056979.JPG
break,html.Screen,4_114_1,2023-09-08T16:18:05.642Z,,0,,,NaN,,,,,,false,,,,786650.9000000954,786650.5,,786649.5999999046,,786493.194,8,400,,,
break_continue,html.Screen,4_114_2,2023-09-08T16:18:05.643Z,,0,,,NaN,,,,,,false,,,,786651.9000000954,786651.5,,786651.2000000477,,786493.194,8,400,,,
sequence,flow.Sequence,4_114,2023-09-08T16:18:05.643Z,,0,,,3965.8499999999767,completion,,,,,false,,,,786652.2999999523,786651.5,782669.106,782854.9000000954,782685.65,786493.194,8,400,,,
trial,html.Screen,4_115_0,2023-09-08T16:18:10.126Z,,0,3,,4641.905999904615,response,ISIC_5122042.JPG,6,ISIC_6974830.JPG,ISIC_5122042.JPG,false,1,keypress(m),500,791135.5,791135.0999999046,786476.574,786652.5999999046,786493.194,790968.414,8,400,16,,ISIC_6974830.JPG
break,html.Screen,4_115_1,2023-09-08T16:18:10.128Z,,0,,,NaN,,,,,,false,,,,791137.2999999523,791136.7000000477,,791136,,790968.414,8,400,,,
break_continue,html.Screen,4_115_2,2023-09-08T16:18:10.129Z,,0,,,NaN,,,,,,false,,,,791138.2999999523,791137.9000000954,,791137.5999999046,,790968.414,8,400,,,
sequence,flow.Sequence,4_115,2023-09-08T16:18:10.129Z,,0,,,4644.70600009535,completion,,,,,false,,,,791138.5999999046,791137.9000000954,786476.574,786652.5,786493.194,790968.414,8,400,,,
trial,html.Screen,4_116_0,2023-09-08T16:18:14.390Z,,0,3,,4430.08600000001,response,ISIC_0046921.JPG,5,ISIC_0028156.JPG,ISIC_0046921.JPG,false,1,keypress(m),500,795398.9000000954,795398.5,790951.824,791138.9000000954,790968.414,795243.531,8,400,17,,ISIC_0028156.JPG
break,html.Screen,4_116_1,2023-09-08T16:18:14.391Z,,0,,,NaN,,,,,,false,,,,795400.4000000954,795399.9000000954,,795399.2999999523,,795243.531,8,400,,,
break_continue,html.Screen,4_116_2,2023-09-08T16:18:14.392Z,,0,,,NaN,,,,,,false,,,,795401.2000000477,795401,,795400.7000000477,,795243.531,8,400,,,
sequence,flow.Sequence,4_116,2023-09-08T16:18:14.392Z,,0,,,4432.58600000001,completion,,,,,false,,,,795401.5,795401,790951.824,791138.7999999523,790968.414,795243.531,8,400,,,
trial,html.Screen,4_117_0,2023-09-08T16:18:19.101Z,,0,3,,4866.669000047725,response,ISIC_8812621.JPG,6,ISIC_4847584.JPG,ISIC_8812621.JPG,false,1,keypress(m),500,800110.5999999046,800110.2000000477,795226.817,795401.7000000477,795243.531,799952.693,8,400,18,,ISIC_4847584.JPG
break,html.Screen,4_117_1,2023-09-08T16:18:19.103Z,,0,,,NaN,,,,,,false,,,,800112.4000000954,800111.9000000954,,800111,,799952.693,8,400,,,
break_continue,html.Screen,4_117_2,2023-09-08T16:18:19.104Z,,0,,,NaN,,,,,,false,,,,800113.4000000954,800113.0999999046,,800112.7000000477,,799952.693,8,400,,,
sequence,flow.Sequence,4_117,2023-09-08T16:18:19.105Z,,0,,,4869.568999904674,completion,,,,,false,,,,800113.7999999523,800113.0999999046,795226.817,795401.5999999046,795243.531,799952.693,8,400,,,
trial,html.Screen,4_118_0,2023-09-08T16:18:24.747Z,,0,3,,5802.606999952346,response,ISIC_0033782.JPG,5,ISIC_2380341.JPG,ISIC_0033782.JPG,false,1,keypress(m),500,805755.7999999523,805755.2999999523,799936.035,800114,799952.693,805596.913,8,400,19,,ISIC_2380341.JPG
break,html.Screen,4_118_1,2023-09-08T16:18:24.749Z,,0,,,NaN,,,,,,false,,,,805757.7999999523,805757.2000000477,,805756.4000000954,,805596.913,8,400,,,
break_continue,html.Screen,4_118_2,2023-09-08T16:18:24.750Z,,0,,,NaN,,,,,,false,,,,805758.7000000477,805758.5,,805758.0999999046,,805596.913,8,400,,,
sequence,flow.Sequence,4_118,2023-09-08T16:18:24.750Z,,0,,,5805.80700000003,completion,,,,,false,,,,805759.0999999046,805758.5,799936.035,800114,799952.693,805596.913,8,400,,,
trial,html.Screen,4_119_0,2023-09-08T16:18:29.753Z,,0,3,,5165.587000000058,response,ISIC_9798721.JPG,5,ISIC_6520237.JPG,ISIC_9798721.JPG,false,1,keypress(m),500,810762.5999999046,810762.5,805580.169,805759.4000000954,805596.913,810606.631,8,400,20,,ISIC_6520237.JPG
break,html.Screen,4_119_1,2023-09-08T16:18:29.754Z,,0,,,NaN,,,,,,false,,,,810763.0999999046,810762.9000000954,,810762.5999999046,,810606.631,8,400,,,
break_continue,html.Screen,4_119_2,2023-09-08T16:18:29.754Z,,0,,,NaN,,,,,,false,,,,810763.2999999523,810763.2000000477,,810763.0999999046,,810606.631,8,400,,,
sequence,flow.Sequence,4_119,2023-09-08T16:18:29.754Z,,0,,,5166.2870000477415,completion,,,,,false,,,,810763.4000000954,810763.2000000477,805580.169,805759.4000000954,805596.913,810606.631,8,400,,,
trial,html.Screen,4_120_0,2023-09-08T16:18:34.575Z,,0,3,,4977.769000095315,response,ISIC_8979275.JPG,5,ISIC_0032913.JPG,ISIC_8979275.JPG,false,1,keypress(m),500,815584.5999999046,815584.4000000954,810590.178,810763.5,810606.631,815432.689,8,400,21,,ISIC_0032913.JPG
break,html.Screen,4_120_1,2023-09-08T16:18:34.576Z,,0,,,NaN,,,,,,false,,,,815585.2000000477,815585,,815584.7000000477,,815432.689,8,400,,,
break_continue,html.Screen,4_120_2,2023-09-08T16:18:34.576Z,,0,,,NaN,,,,,,false,,,,815585.4000000954,815585.2999999523,,815585.2000000477,,815432.689,8,400,,,
sequence,flow.Sequence,4_120,2023-09-08T16:18:34.576Z,,0,,,4978.668999952264,completion,,,,,false,,,,815585.5,815585.2999999523,810590.178,810763.5,810606.631,815432.689,8,400,,,
trial,html.Screen,4_121_0,2023-09-08T16:18:39.059Z,,0,3,,4635.211000095354,response,ISIC_0025597.JPG,5,ISIC_3685448.JPG,ISIC_3685448.JPG,false,0,keypress(z),500,820068.2999999523,820067.9000000954,815416.016,815585.5999999046,815432.689,819908.2,8,400,22,,ISIC_0025597.JPG
break,html.Screen,4_121_1,2023-09-08T16:18:39.060Z,,0,,,NaN,,,,,,false,,,,820069.4000000954,820069,,820068.5,,819908.2,8,400,,,
break_continue,html.Screen,4_121_2,2023-09-08T16:18:39.061Z,,0,,,NaN,,,,,,false,,,,820069.9000000954,820069.7000000477,,820069.5,,819908.2,8,400,,,
sequence,flow.Sequence,4_121,2023-09-08T16:18:39.061Z,,0,,,4637.011000047671,completion,,,,,false,,,,820070.0999999046,820069.7000000477,815416.016,815585.5999999046,815432.689,819908.2,8,400,,,
trial,html.Screen,4_122_0,2023-09-08T16:18:42.729Z,,0,3,,3829.599999952363,response,ISIC_8872225.JPG,5,ISIC_6535558.JPG,ISIC_8872225.JPG,false,1,keypress(m),500,823738,823737.7999999523,819891.344,820070.2999999523,819908.2,823581.881,8,400,23,,ISIC_6535558.JPG
break,html.Screen,4_122_1,2023-09-08T16:18:42.729Z,,0,,,NaN,,,,,,false,,,,823738.4000000954,823738.2999999523,,823738.0999999046,,823581.881,8,400,,,
break_continue,html.Screen,4_122_2,2023-09-08T16:18:42.729Z,,0,,,NaN,,,,,,false,,,,823738.5999999046,823738.5,,823738.5,,823581.881,8,400,,,
sequence,flow.Sequence,4_122,2023-09-08T16:18:42.730Z,,0,,,3830.3000000000466,completion,,,,,false,,,,823739.2999999523,823738.5,819891.344,820070.2999999523,819908.2,823581.881,8,400,,,
trial,html.Screen,4_123_0,2023-09-08T16:18:49.631Z,,0,3,,7057.618999999948,response,ISIC_0055549.JPG,6,ISIC_2729109.JPG,ISIC_2729109.JPG,false,0,keypress(z),500,830639.9000000954,830639.5,823565.196,823739.2999999523,823581.881,830478.712,8,400,24,,ISIC_0055549.JPG
break,html.Screen,4_123_1,2023-09-08T16:18:49.632Z,,0,,,NaN,,,,,,false,,,,830641.4000000954,830640.9000000954,,830640.4000000954,,830478.712,8,400,,,
break_continue,html.Screen,4_123_2,2023-09-08T16:18:49.633Z,,0,,,NaN,,,,,,false,,,,830642.0999999046,830641.9000000954,,830641.5,,830478.712,8,400,,,
sequence,flow.Sequence,4_123,2023-09-08T16:18:49.633Z,,0,,,7060.019000095315,completion,,,,,false,,,,830642.4000000954,830641.9000000954,823565.196,823739.2999999523,823581.881,830478.712,8,400,,,
trial,html.Screen,4_124_0,2023-09-08T16:18:54.154Z,,0,3,,4683.68800009531,response,ISIC_0011215.JPG,5,ISIC_0865706.JPG,ISIC_0865706.JPG,false,0,keypress(z),500,835162.7999999523,835162.4000000954,830462.192,830642.5999999046,830478.712,835004.099,8,400,25,,ISIC_0011215.JPG
break,html.Screen,4_124_1,2023-09-08T16:18:54.156Z,,0,,,NaN,,,,,,false,,,,835164.7000000477,835164.0999999046,,835163.2999999523,,835004.099,8,400,,,
break_continue,html.Screen,4_124_2,2023-09-08T16:18:54.156Z,,0,,,NaN,,,,,,false,,,,835165.5999999046,835165.4000000954,,835164.9000000954,,835004.099,8,400,,,
sequence,flow.Sequence,4_124,2023-09-08T16:18:54.157Z,,0,,,4686.68800009531,completion,,,,,false,,,,835166,835165.4000000954,830462.192,830642.5,830478.712,835004.099,8,400,,,
trial,html.Screen,4_125_0,2023-09-08T16:18:57.845Z,,0,3,,3850.2009999522706,response,ISIC_0033700.JPG,5,ISIC_6162545.JPG,ISIC_6162545.JPG,false,0,keypress(z),500,838854.4000000954,838854.2999999523,834987.547,835166.2999999523,835004.099,838711.391,8,400,26,,ISIC_0033700.JPG
break,html.Screen,4_125_1,2023-09-08T16:18:57.846Z,,0,,,NaN,,,,,,false,,,,838855.5,838855.0999999046,,838854.5999999046,,838711.391,8,400,,,
break_continue,html.Screen,4_125_2,2023-09-08T16:18:57.847Z,,0,,,NaN,,,,,,false,,,,838856.2000000477,838855.9000000954,,838855.5999999046,,838711.391,8,400,,,
sequence,flow.Sequence,4_125,2023-09-08T16:18:57.847Z,,0,,,3851.801000095322,completion,,,,,false,,,,838856.5,838855.9000000954,834987.547,835166.2000000477,835004.099,838711.391,8,400,,,
trial,html.Screen,4_126_0,2023-09-08T16:19:03.274Z,,0,3,,5571.809000047739,response,ISIC_2131707.JPG,5,ISIC_0031096.JPG,ISIC_2131707.JPG,false,1,keypress(m),500,844283.5999999046,844283.2000000477,838694.663,838856.7000000477,838711.391,844121.978,8,400,27,,ISIC_0031096.JPG
break,html.Screen,4_126_1,2023-09-08T16:19:03.276Z,,0,,,NaN,,,,,,false,,,,844285.4000000954,844284.7999999523,,844284,,844121.978,8,400,,,
