sender,sender_type,sender_id,timestamp,meta,,blockNo,condition,duration,ended_on,img_left,img_reveal,img_right,loser,practice,response,response_action,selection_duration,time_commit,time_end,time_render,time_run,time_show,time_switch,total_blocks,total_trials,trialNo,url,winner
informed_consent,html.Screen,0,2023-09-11T20:04:37.008Z,"{""labjs_version"":""20.2.4"",""labjs_build"":{""flavor"":""development"",""commit"":""f5b4a49f956347addd546a832a3327688c2c0fef""},""location"":""https://labjs.felixhenninger.com/api/labjs_preview/index.html"",""userAgent"":""Mozilla/5.0 (Windows NT 10.0; Win64; x64) AppleWebKit/537.36 (KHTML, like Gecko) Chrome/116.0.0.0 Safari/537.36"",""platform"":""Win32"",""language"":""en-AU"",""locale"":""en-US"",""timeZone"":""America/Chicago"",""timezoneOffset"":300,""screen_width"":1680,""screen_height"":1050,""scroll_width"":1296,""scroll_height"":688,""window_innerWidth"":1296,""window_innerHeight"":736,""devicePixelRatio"":1}",,,,3989.4659999046326,response,,,,,,consent,click button,,4565.700000286102,4564.599999904633,558.491,546.4000000953674,575.134,4566.254,,,,{},
Welcome,html.Screen,1,2023-09-11T20:04:37.336Z,,,,uniform,326.1460000953675,response,,,,,,continue,click button,,4892.900000095367,4892.400000095367,4549.612,4566,4566.254,4900.238,,,,,
trial,html.Screen,2_0_0,2023-09-11T20:04:48.833Z,,0,0,,11522.528999999999,timeout,ISIC_0025593.JPG,,ISIC_0063388.JPG,,true,,,500,16389.900000095367,16389.700000286102,4883.622,4893.099999904633,4900.238,16422.767,1,6,1,,
sequence,flow.Sequence,2_0,2023-09-11T20:04:48.833Z,,0,,,11489.462000286101,completion,,,,,true,,,,16390.300000190735,16389.700000286102,4883.622,4893.099999904633,4900.238,16422.767,1,6,,,
trial,html.Screen,2_1_0,2023-09-11T20:05:00.355Z,,0,0,,11522.332999999999,timeout,ISIC_0028178.JPG,,ISIC_1309015.JPG,,true,,,500,27912.700000286102,27912.300000190735,16405.955,16390.400000095367,16422.767,27945.1,1,6,2,,
sequence,flow.Sequence,2_1,2023-09-11T20:05:00.356Z,,0,,,11489.533000190735,completion,,,,,true,,,,27913,27912.300000190735,16405.955,16390.300000190735,16422.767,27945.1,1,6,,,
trial,html.Screen,2_2_0,2023-09-11T20:05:08.600Z,,0,0,,8210.700000190736,response,ISIC_3314853.JPG,,ISIC_0031128.JPG,ISIC_0031128.JPG,true,0,keypress(z),500,36156.09999990463,36155.800000190735,27928.337,27913.099999904633,27945.1,36161.138,1,6,3,,ISIC_3314853.JPG
sequence,flow.Sequence,2_2,2023-09-11T20:05:08.600Z,,0,,,8210.700000190736,completion,,,,,true,,,,36156.300000190735,36155.800000190735,27928.337,27913.099999904633,27945.1,36161.138,1,6,,,
trial,html.Screen,2_3_0,2023-09-11T20:05:14.042Z,,0,0,,5436.562000286103,response,ISIC_0031612.JPG,,ISIC_8980141.JPG,ISIC_0031612.JPG,true,1,keypress(m),500,41597.90000009537,41597.7000002861,36144.361,36156.40000009537,36161.138,41605,1,6,4,,ISIC_8980141.JPG
sequence,flow.Sequence,2_3,2023-09-11T20:05:14.042Z,,0,,,5436.562000286103,completion,,,,,true,,,,41598.09999990463,41597.7000002861,36144.361,36156.300000190735,36161.138,41605,1,6,,,
trial,html.Screen,2_4_0,2023-09-11T20:05:18.988Z,,0,0,,4938.800000190735,response,ISIC_1197737.JPG,,ISIC_9721604.JPG,ISIC_1197737.JPG,true,1,keypress(m),500,46544.2000002861,46543.800000190735,41588.29,41598.2000002861,41605,46564.661,1,6,5,,ISIC_9721604.JPG
sequence,flow.Sequence,2_4,2023-09-11T20:05:18.989Z,,0,,,4938.800000190735,completion,,,,,true,,,,46544.90000009537,46543.800000190735,41588.29,41598.2000002861,41605,46564.661,1,6,,,
trial,html.Screen,2_5_0,2023-09-11T20:05:23.399Z,,0,0,,4389.639000190735,response,ISIC_0025346.JPG,,ISIC_0010681.JPG,ISIC_0010681.JPG,true,0,keypress(z),500,50954.40000009537,50954.300000190735,46531.374,46545.09999990463,46564.661,50956.536,1,6,6,,ISIC_0025346.JPG
sequence,flow.Sequence,2_5,2023-09-11T20:05:23.399Z,,0,,,4389.639000190735,completion,,,,,true,,,,50954.59999990463,50954.300000190735,46531.374,46545.09999990463,46564.661,50956.536,1,6,,,
loop,flow.Loop,2,2023-09-11T20:05:23.399Z,,,,,46054.06200019074,completion,,,,,true,,,,50954.7000002861,50954.300000190735,4883.622,4893.099999904633,4900.238,50956.536,1,6,,,
exp_instructions,html.Screen,3,2023-09-11T20:33:26.583Z,,,,,1683160.2640001907,response,,,,,,continue,keypress(Space),,1734117.200000286,1734116.8000001907,50939.904,50954.800000190735,50956.536,1734148.732,,,,,
trial,html.Screen,4_0_0,2023-09-11T20:33:33.708Z,,0,1,,7093.867999904556,response,ISIC_0032836.JPG,6,ISIC_2211136.JPG,ISIC_2211136.JPG,false,0,keypress(z),500,1741242.700000286,1741242.5999999046,1734132.072,1734117.3000001907,1734148.732,1741245.854,8,400,1,,ISIC_0032836.JPG
break,html.Screen,4_0_1,2023-09-11T20:33:33.709Z,,0,,,NaN,,,,,,false,,,,1741243.8000001907,1741243.5,,1741243,,1741245.854,8,400,,,
break_continue,html.Screen,4_0_2,2023-09-11T20:33:33.710Z,,0,,,NaN,,,,,,false,,,,1741244.3000001907,1741244.0999999046,,1741243.9000000954,,1741245.854,8,400,,,
sequence,flow.Sequence,4_0,2023-09-11T20:33:33.710Z,,0,,,7095.367999904556,completion,,,,,false,,,,1741244.5,1741244.0999999046,1734132.072,1734117.3000001907,1734148.732,1741245.854,8,400,,,
trial,html.Screen,4_1_0,2023-09-11T20:33:40.840Z,,0,1,,7128.64599999995,response,ISIC_1418304.JPG,5,ISIC_0026868.JPG,ISIC_0026868.JPG,false,0,keypress(z),500,1748374.700000286,1748374.5,1741229.182,1741244.700000286,1741245.854,1748376.374,8,400,2,,ISIC_1418304.JPG
break,html.Screen,4_1_1,2023-09-11T20:33:40.841Z,,0,,,NaN,,,,,,false,,,,1748375.0999999046,1748375,,1748374.700000286,,1748376.374,8,400,,,
break_continue,html.Screen,4_1_2,2023-09-11T20:33:40.841Z,,0,,,NaN,,,,,,false,,,,1748375.3000001907,1748375.3000001907,,1748375.200000286,,1748376.374,8,400,,,
sequence,flow.Sequence,4_1,2023-09-11T20:33:40.841Z,,0,,,7129.446000190685,completion,,,,,false,,,,1748375.4000000954,1748375.3000001907,1741229.182,1741244.5999999046,1741245.854,1748376.374,8,400,,,
trial,html.Screen,4_2_0,2023-09-11T20:33:50.858Z,,0,1,,10016.326000286033,response,ISIC_0011793.JPG,5,ISIC_0817140.JPG,ISIC_0011793.JPG,false,1,keypress(m),500,1758392.8000001907,1758392.700000286,1748359.704,1748375.5,1748376.374,1758395.927,8,400,3,,ISIC_0817140.JPG
break,html.Screen,4_2_1,2023-09-11T20:33:50.859Z,,0,,,NaN,,,,,,false,,,,1758393.4000000954,1758393.200000286,,1758393,,1758395.927,8,400,,,
break_continue,html.Screen,4_2_2,2023-09-11T20:33:50.859Z,,0,,,NaN,,,,,,false,,,,1758393.700000286,1758393.5999999046,,1758393.5,,1758395.927,8,400,,,
sequence,flow.Sequence,4_2,2023-09-11T20:33:50.859Z,,0,,,10017.225999904564,completion,,,,,false,,,,1758393.9000000954,1758393.5999999046,1748359.704,1748375.5,1748376.374,1758395.927,8,400,,,
trial,html.Screen,4_3_0,2023-09-11T20:33:57.953Z,,0,1,,7091.773000286194,response,ISIC_0011855.JPG,4,ISIC_0061336.JPG,ISIC_0061336.JPG,false,0,keypress(z),500,1765487.9000000954,1765487.700000286,1758379.226,1758393.9000000954,1758395.927,1765493.049,8,400,4,,ISIC_0011855.JPG
break,html.Screen,4_3_1,2023-09-11T20:33:57.954Z,,0,,,NaN,,,,,,false,,,,1765488.9000000954,1765488.5999999046,,1765488.0999999046,,1765493.049,8,400,,,
break_continue,html.Screen,4_3_2,2023-09-11T20:33:57.955Z,,0,,,NaN,,,,,,false,,,,1765489.3000001907,1765489.200000286,,1765489,,1765493.049,8,400,,,
sequence,flow.Sequence,4_3,2023-09-11T20:33:57.955Z,,0,,,7093.273000286194,completion,,,,,false,,,,1765489.4000000954,1765489.200000286,1758379.226,1758393.9000000954,1758395.927,1765493.049,8,400,,,
trial,html.Screen,4_4_0,2023-09-11T20:34:07.606Z,,0,1,,9647.050999904517,response,ISIC_8959410.JPG,5,ISIC_6178099.JPG,ISIC_6178099.JPG,false,0,keypress(z),500,1775140.3000001907,1775140.0999999046,1765476.429,1765489.5999999046,1765493.049,1775145.108,8,400,5,,ISIC_8959410.JPG
break,html.Screen,4_4_1,2023-09-11T20:34:07.606Z,,0,,,NaN,,,,,,false,,,,1775140.700000286,1775140.5999999046,,1775140.4000000954,,1775145.108,8,400,,,
break_continue,html.Screen,4_4_2,2023-09-11T20:34:07.606Z,,0,,,NaN,,,,,,false,,,,1775141,1775140.8000001907,,1775140.8000001907,,1775145.108,8,400,,,
sequence,flow.Sequence,4_4,2023-09-11T20:34:07.607Z,,0,,,9647.75100019062,completion,,,,,false,,,,1775141,1775140.8000001907,1765476.429,1765489.5,1765493.049,1775145.108,8,400,,,
trial,html.Screen,4_5_0,2023-09-11T20:34:15.981Z,,0,1,,8370.29200009536,response,ISIC_5422432.JPG,5,ISIC_4220010.JPG,ISIC_5422432.JPG,false,1,keypress(m),500,1783515.5999999046,1783515.4000000954,1775128.56,1775141.0999999046,1775145.108,1783528.161,8,400,6,,ISIC_4220010.JPG
break,html.Screen,4_5_1,2023-09-11T20:34:15.982Z,,0,,,NaN,,,,,,false,,,,1783516.200000286,1783516,,1783515.8000001907,,1783528.161,8,400,,,
break_continue,html.Screen,4_5_2,2023-09-11T20:34:15.982Z,,0,,,NaN,,,,,,false,,,,1783516.4000000954,1783516.3000001907,,1783516.200000286,,1783528.161,8,400,,,
sequence,flow.Sequence,4_5,2023-09-11T20:34:15.982Z,,0,,,8371.192000190727,completion,,,,,false,,,,1783516.5,1783516.3000001907,1775128.56,1775141.0999999046,1775145.108,1783528.161,8,400,,,
trial,html.Screen,4_6_0,2023-09-11T20:34:22.354Z,,0,1,,6358.739000095287,response,ISIC_5231145.JPG,4,ISIC_0063926.JPG,ISIC_0063926.JPG,false,0,keypress(z),500,1789887.3000001907,1789886.9000000954,1783511.552,1783516.5,1783528.161,1789890.649,8,400,7,,ISIC_5231145.JPG
break,html.Screen,4_6_1,2023-09-11T20:34:22.356Z,,0,,,NaN,,,,,,false,,,,1789889.4000000954,1789888.9000000954,,1789887.9000000954,,1789890.649,8,400,,,
break_continue,html.Screen,4_6_2,2023-09-11T20:34:22.357Z,,0,,,NaN,,,,,,false,,,,1789890.5999999046,1789890.3000001907,,1789889.8000001907,,1789890.649,8,400,,,
sequence,flow.Sequence,4_6,2023-09-11T20:34:22.357Z,,0,,,6362.139000190655,completion,,,,,false,,,,1789891.200000286,1789890.3000001907,1783511.552,1783516.5,1783528.161,1789890.649,8,400,,,
trial,html.Screen,4_7_0,2023-09-11T20:34:29.624Z,,0,1,,7267.251000095392,response,ISIC_0062401.JPG,6,ISIC_0055526.JPG,ISIC_0055526.JPG,false,0,keypress(z),500,1797157.9000000954,1797157.9000000954,1789873.893,1789891.5999999046,1789890.649,1797171.342,8,400,8,,ISIC_0062401.JPG
break,html.Screen,4_7_1,2023-09-11T20:34:29.625Z,,0,,,NaN,,,,,,false,,,,1797158.700000286,1797158.4000000954,,1797158.0999999046,,1797171.342,8,400,,,
break_continue,html.Screen,4_7_2,2023-09-11T20:34:29.625Z,,0,,,NaN,,,,,,false,,,,1797159.0999999046,1797159,,1797158.8000001907,,1797171.342,8,400,,,
sequence,flow.Sequence,4_7,2023-09-11T20:34:29.625Z,,0,,,7268.351000000024,completion,,,,,false,,,,1797159.0999999046,1797159,1789873.893,1789891.4000000954,1789890.649,1797171.342,8,400,,,
trial,html.Screen,4_8_0,2023-09-11T20:34:37.404Z,,0,1,,7765.858000286156,response,ISIC_4619789.JPG,5,ISIC_3800541.JPG,ISIC_3800541.JPG,false,0,keypress(z),500,1804937.4000000954,1804937.200000286,1797154.676,1797159.200000286,1797171.342,1804953.136,8,400,9,,ISIC_4619789.JPG
break,html.Screen,4_8_1,2023-09-11T20:34:37.404Z,,0,,,NaN,,,,,,false,,,,1804937.9000000954,1804937.700000286,,1804937.4000000954,,1804953.136,8,400,,,
break_continue,html.Screen,4_8_2,2023-09-11T20:34:37.404Z,,0,,,NaN,,,,,,false,,,,1804938.200000286,1804938.0999999046,,1804938,,1804953.136,8,400,,,
sequence,flow.Sequence,4_8,2023-09-11T20:34:37.405Z,,0,,,7766.757999904687,completion,,,,,false,,,,1804938.200000286,1804938.0999999046,1797154.676,1797159.200000286,1797171.342,1804953.136,8,400,,,
trial,html.Screen,4_9_0,2023-09-11T20:34:42.430Z,,0,1,,5010.564000286162,response,ISIC_5961092.JPG,5,ISIC_0030032.JPG,ISIC_0030032.JPG,false,0,keypress(z),500,1809963.8000001907,1809963.700000286,1804936.549,1804938.3000001907,1804953.136,1809979.75,8,400,10,,ISIC_5961092.JPG
break,html.Screen,4_9_1,2023-09-11T20:34:42.431Z,,0,,,NaN,,,,,,false,,,,1809964.5,1809964.3000001907,,1809963.9000000954,,1809979.75,8,400,,,
break_continue,html.Screen,4_9_2,2023-09-11T20:34:42.431Z,,0,,,NaN,,,,,,false,,,,1809964.8000001907,1809964.700000286,,1809964.5999999046,,1809979.75,8,400,,,
sequence,flow.Sequence,4_9,2023-09-11T20:34:42.431Z,,0,,,5011.564000286162,completion,,,,,false,,,,1809964.8000001907,1809964.700000286,1804936.549,1804938.3000001907,1804953.136,1809979.75,8,400,,,
trial,html.Screen,4_10_0,2023-09-11T20:34:47.880Z,,0,1,,5433.550000190735,response,ISIC_6093728.JPG,4,ISIC_0069698.JPG,ISIC_6093728.JPG,false,1,keypress(m),500,1815413.4000000954,1815413.3000001907,1809962.939,1809964.9000000954,1809979.75,1815423.507,8,400,11,,ISIC_0069698.JPG
break,html.Screen,4_10_1,2023-09-11T20:34:47.880Z,,0,,,NaN,,,,,,false,,,,1815414,1815413.8000001907,,1815413.5,,1815423.507,8,400,,,
break_continue,html.Screen,4_10_2,2023-09-11T20:34:47.881Z,,0,,,NaN,,,,,,false,,,,1815414.3000001907,1815414.200000286,,1815414.0999999046,,1815423.507,8,400,,,
sequence,flow.Sequence,4_10,2023-09-11T20:34:47.881Z,,0,,,5434.450000286102,completion,,,,,false,,,,1815414.4000000954,1815414.200000286,1809962.939,1809964.9000000954,1809979.75,1815423.507,8,400,,,
trial,html.Screen,4_11_0,2023-09-11T20:34:55.870Z,,0,1,,7980.092999904649,response,ISIC_4640181.JPG,5,ISIC_0058035.JPG,ISIC_0058035.JPG,false,0,keypress(z),500,1823403.9000000954,1823403.5999999046,1815406.969,1815414.4000000954,1815423.507,1823405.742,8,400,12,,ISIC_4640181.JPG
break,html.Screen,4_11_1,2023-09-11T20:34:55.871Z,,0,,,NaN,,,,,,false,,,,1823404.8000001907,1823404.5,,1823404.0999999046,,1823405.742,8,400,,,
break_continue,html.Screen,4_11_2,2023-09-11T20:34:55.871Z,,0,,,NaN,,,,,,false,,,,1823405.0999999046,1823405.0999999046,,1823404.9000000954,,1823405.742,8,400,,,
sequence,flow.Sequence,4_11,2023-09-11T20:34:55.872Z,,0,,,7981.592999904649,completion,,,,,false,,,,1823405.3000001907,1823405.0999999046,1815406.969,1815414.4000000954,1815423.507,1823405.742,8,400,,,
trial,html.Screen,4_12_0,2023-09-11T20:35:02.596Z,,0,1,,6723.658000095282,response,ISIC_0013997.JPG,5,ISIC_7927525.JPG,ISIC_0013997.JPG,false,1,keypress(m),500,1830129.5,1830129.4000000954,1823389.126,1823405.4000000954,1823405.742,1830135.474,8,400,13,,ISIC_7927525.JPG
break,html.Screen,4_12_1,2023-09-11T20:35:02.596Z,,0,,,NaN,,,,,,false,,,,1830130.0999999046,1830129.8000001907,,1830129.5999999046,,1830135.474,8,400,,,
break_continue,html.Screen,4_12_2,2023-09-11T20:35:02.597Z,,0,,,NaN,,,,,,false,,,,1830130.4000000954,1830130.3000001907,,1830130.0999999046,,1830135.474,8,400,,,
sequence,flow.Sequence,4_12,2023-09-11T20:35:02.597Z,,0,,,6724.558000190649,completion,,,,,false,,,,1830130.5,1830130.3000001907,1823389.126,1823405.3000001907,1823405.742,1830135.474,8,400,,,
trial,html.Screen,4_13_0,2023-09-11T20:35:06.345Z,,0,1,,3742.6259999047033,response,ISIC_5923430.JPG,6,ISIC_7293518.JPG,ISIC_7293518.JPG,false,0,keypress(z),500,1833878.3000001907,1833878.0999999046,1830118.901,1830130.5,1830135.474,1833892.817,8,400,14,,ISIC_5923430.JPG
break,html.Screen,4_13_1,2023-09-11T20:35:06.345Z,,0,,,NaN,,,,,,false,,,,1833878.9000000954,1833878.8000001907,,1833878.4000000954,,1833892.817,8,400,,,
break_continue,html.Screen,4_13_2,2023-09-11T20:35:06.346Z,,0,,,NaN,,,,,,false,,,,1833879.0999999046,1833879.0999999046,,1833878.9000000954,,1833892.817,8,400,,,
sequence,flow.Sequence,4_13,2023-09-11T20:35:06.346Z,,0,,,3743.6259999047033,completion,,,,,false,,,,1833879.3000001907,1833879.0999999046,1830118.901,1830130.5,1830135.474,1833892.817,8,400,,,
trial,html.Screen,4_14_0,2023-09-11T20:35:09.547Z,,0,1,,3187.2829999045935,response,ISIC_0011995.JPG,5,ISIC_8922355.JPG,ISIC_8922355.JPG,false,0,keypress(z),500,1837080.200000286,1837080.0999999046,1833876.318,1833879.3000001907,1833892.817,1837082.345,8,400,15,,ISIC_0011995.JPG
break,html.Screen,4_14_1,2023-09-11T20:35:09.547Z,,0,,,NaN,,,,,,false,,,,1837080.700000286,1837080.5,,1837080.4000000954,,1837082.345,8,400,,,
break_continue,html.Screen,4_14_2,2023-09-11T20:35:09.547Z,,0,,,NaN,,,,,,false,,,,1837080.8000001907,1837080.8000001907,,1837080.700000286,,1837082.345,8,400,,,
sequence,flow.Sequence,4_14,2023-09-11T20:35:09.547Z,,0,,,3187.9830001906957,completion,,,,,false,,,,1837080.9000000954,1837080.8000001907,1833876.318,1833879.3000001907,1833892.817,1837082.345,8,400,,,
trial,html.Screen,4_15_0,2023-09-11T20:35:12.931Z,,0,1,,3381.955000190763,response,ISIC_3009564.JPG,6,ISIC_0032976.JPG,ISIC_0032976.JPG,false,0,keypress(z),500,1840464.5,1840464.3000001907,1837065.687,1837081,1837082.345,1840472.281,8,400,16,,ISIC_3009564.JPG
break,html.Screen,4_15_1,2023-09-11T20:35:12.931Z,,0,,,NaN,,,,,,false,,,,1840465.0999999046,1840464.9000000954,,1840464.5999999046,,1840472.281,8,400,,,
break_continue,html.Screen,4_15_2,2023-09-11T20:35:12.932Z,,0,,,NaN,,,,,,false,,,,1840465.3000001907,1840465.0999999046,,1840465.0999999046,,1840472.281,8,400,,,
sequence,flow.Sequence,4_15,2023-09-11T20:35:12.932Z,,0,,,3382.7549999046605,completion,,,,,false,,,,1840465.3000001907,1840465.0999999046,1837065.687,1837080.9000000954,1837082.345,1840472.281,8,400,,,
trial,html.Screen,4_16_0,2023-09-11T20:35:16.039Z,,0,1,,3100.219000000041,response,ISIC_9466794.JPG,5,ISIC_0024697.JPG,ISIC_0024697.JPG,false,0,keypress(z),500,1843572.5999999046,1843572.5,1840455.611,1840465.3000001907,1840472.281,1843578.303,8,400,17,,ISIC_9466794.JPG
break,html.Screen,4_16_1,2023-09-11T20:35:16.040Z,,0,,,NaN,,,,,,false,,,,1843573.3000001907,1843573.0999999046,,1843572.8000001907,,1843578.303,8,400,,,
break_continue,html.Screen,4_16_2,2023-09-11T20:35:16.040Z,,0,,,NaN,,,,,,false,,,,1843573.4000000954,1843573.4000000954,,1843573.3000001907,,1843578.303,8,400,,,
sequence,flow.Sequence,4_16,2023-09-11T20:35:16.040Z,,0,,,3101.1190000954084,completion,,,,,false,,,,1843573.5999999046,1843573.4000000954,1840455.611,1840465.3000001907,1840472.281,1843578.303,8,400,,,
trial,html.Screen,4_17_0,2023-09-11T20:35:21.390Z,,0,1,,5344.097000095295,response,ISIC_8483382.JPG,6,ISIC_2826766.JPG,ISIC_8483382.JPG,false,1,keypress(m),500,1848922.5,1848922.4000000954,1843561.602,1843573.5999999046,1843578.303,1848938.715,8,400,18,,ISIC_2826766.JPG
break,html.Screen,4_17_1,2023-09-11T20:35:21.390Z,,0,,,NaN,,,,,,false,,,,1848923.200000286,1848923,,1848922.700000286,,1848938.715,8,400,,,
break_continue,html.Screen,4_17_2,2023-09-11T20:35:21.391Z,,0,,,NaN,,,,,,false,,,,1848923.5,1848923.4000000954,,1848923.3000001907,,1848938.715,8,400,,,
sequence,flow.Sequence,4_17,2023-09-11T20:35:21.391Z,,0,,,5345.097000095295,completion,,,,,false,,,,1848923.5,1848923.4000000954,1843561.602,1843573.5999999046,1843578.303,1848938.715,8,400,,,
trial,html.Screen,4_18_0,2023-09-11T20:35:25.056Z,,0,1,,3649.784999999916,response,ISIC_0062869.JPG,5,ISIC_6960446.JPG,ISIC_0062869.JPG,false,1,keypress(m),500,1852588.700000286,1852588.5,1848922.011,1848923.5999999046,1848938.715,1852595.886,8,400,19,,ISIC_6960446.JPG
break,html.Screen,4_18_1,2023-09-11T20:35:25.056Z,,0,,,NaN,,,,,,false,,,,1852589.0999999046,1852589,,1852588.8000001907,,1852595.886,8,400,,,
break_continue,html.Screen,4_18_2,2023-09-11T20:35:25.057Z,,0,,,NaN,,,,,,false,,,,1852589.4000000954,1852589.3000001907,,1852589.200000286,,1852595.886,8,400,,,
sequence,flow.Sequence,4_18,2023-09-11T20:35:25.057Z,,0,,,3650.585000190651,completion,,,,,false,,,,1852589.5,1852589.3000001907,1848922.011,1848923.5999999046,1848938.715,1852595.886,8,400,,,
trial,html.Screen,4_19_0,2023-09-11T20:35:28.532Z,,0,1,,3468.814000286162,response,ISIC_0031499.JPG,6,ISIC_0027956.JPG,ISIC_0031499.JPG,false,1,keypress(m),500,1856064.9000000954,1856064.700000286,1852579.268,1852589.5,1852595.886,1856069.317,8,400,20,,ISIC_0027956.JPG
break,html.Screen,4_19_1,2023-09-11T20:35:28.533Z,,0,,,NaN,,,,,,false,,,,1856065.5,1856065.3000001907,,1856065,,1856069.317,8,400,,,
break_continue,html.Screen,4_19_2,2023-09-11T20:35:28.533Z,,0,,,NaN,,,,,,false,,,,1856065.9000000954,1856065.8000001907,,1856065.700000286,,1856069.317,8,400,,,
sequence,flow.Sequence,4_19,2023-09-11T20:35:28.533Z,,0,,,3469.9140001907945,completion,,,,,false,,,,1856066,1856065.8000001907,1852579.268,1852589.5,1852595.886,1856069.317,8,400,,,
trial,html.Screen,4_20_0,2023-09-11T20:35:34.423Z,,0,1,,5885.983000190696,response,ISIC_0011305.JPG,4,ISIC_5420979.JPG,ISIC_5420979.JPG,false,0,keypress(z),500,1861955.5,1861955.3000001907,1856052.735,1856066.0999999046,1856069.317,1861964.172,8,400,21,,ISIC_0011305.JPG
break,html.Screen,4_20_1,2023-09-11T20:35:34.424Z,,0,,,NaN,,,,,,false,,,,1861956.5999999046,1861956.200000286,,1861955.8000001907,,1861964.172,8,400,,,
break_continue,html.Screen,4_20_2,2023-09-11T20:35:34.424Z,,0,,,NaN,,,,,,false,,,,1861957.0999999046,1861957,,1861956.8000001907,,1861964.172,8,400,,,
sequence,flow.Sequence,4_20,2023-09-11T20:35:34.424Z,,0,,,5887.682999999961,completion,,,,,false,,,,1861957.200000286,1861957,1856052.735,1856066.0999999046,1856069.317,1861964.172,8,400,,,
trial,html.Screen,4_21_0,2023-09-11T20:35:43.755Z,,0,1,,9323.427999904612,response,ISIC_0061067.JPG,5,ISIC_0000754.JPG,ISIC_0061067.JPG,false,1,keypress(m),500,1871287.9000000954,1871287.5999999046,1861947.461,1861957.4000000954,1861964.172,1871298.99,8,400,22,,ISIC_0000754.JPG
break,html.Screen,4_21_1,2023-09-11T20:35:43.756Z,,0,,,NaN,,,,,,false,,,,1871289,1871288.5999999046,,1871288.200000286,,1871298.99,8,400,,,
break_continue,html.Screen,4_21_2,2023-09-11T20:35:43.757Z,,0,,,NaN,,,,,,false,,,,1871289.4000000954,1871289.3000001907,,1871289,,1871298.99,8,400,,,
sequence,flow.Sequence,4_21,2023-09-11T20:35:43.757Z,,0,,,9325.128000190714,completion,,,,,false,,,,1871289.5999999046,1871289.3000001907,1861947.461,1861957.4000000954,1861964.172,1871298.99,8,400,,,
trial,html.Screen,4_22_0,2023-09-11T20:35:48.815Z,,0,1,,5048.310000190744,response,ISIC_1737600.JPG,5,ISIC_0000144.JPG,ISIC_0000144.JPG,false,0,keypress(z),500,1876347.4000000954,1876347.3000001907,1871282.25,1871289.8000001907,1871298.99,1876358.86,8,400,23,,ISIC_1737600.JPG
break,html.Screen,4_22_1,2023-09-11T20:35:48.815Z,,0,,,NaN,,,,,,false,,,,1876348,1876347.8000001907,,1876347.5999999046,,1876358.86,8,400,,,
break_continue,html.Screen,4_22_2,2023-09-11T20:35:48.816Z,,0,,,NaN,,,,,,false,,,,1876348.4000000954,1876348.3000001907,,1876348.0999999046,,1876358.86,8,400,,,
sequence,flow.Sequence,4_22,2023-09-11T20:35:48.816Z,,0,,,5049.310000190744,completion,,,,,false,,,,1876348.4000000954,1876348.3000001907,1871282.25,1871289.700000286,1871298.99,1876358.86,8,400,,,
trial,html.Screen,4_23_0,2023-09-11T20:35:52.917Z,,0,1,,4091.23999990453,response,ISIC_0014221.JPG,5,ISIC_0031357.JPG,ISIC_0031357.JPG,false,0,keypress(z),500,1880450.200000286,1880450.0999999046,1876342.174,1876348.5,1876358.86,1880466.84,8,400,24,,ISIC_0014221.JPG
break,html.Screen,4_23_1,2023-09-11T20:35:52.918Z,,0,,,NaN,,,,,,false,,,,1880450.9000000954,1880450.8000001907,,1880450.4000000954,,1880466.84,8,400,,,
break_continue,html.Screen,4_23_2,2023-09-11T20:35:52.918Z,,0,,,NaN,,,,,,false,,,,1880451.3000001907,1880451.3000001907,,1880451.0999999046,,1880466.84,8,400,,,
sequence,flow.Sequence,4_23,2023-09-11T20:35:52.919Z,,0,,,4092.4400001906324,completion,,,,,false,,,,1880451.4000000954,1880451.3000001907,1876342.174,1876348.5,1876358.86,1880466.84,8,400,,,
trial,html.Screen,4_24_0,2023-09-11T20:35:58.137Z,,0,1,,5202.960000190651,response,ISIC_6113524.JPG,6,ISIC_1115013.JPG,ISIC_1115013.JPG,false,0,keypress(z),500,1885670.0999999046,1885669.8000001907,1880450.235,1880451.5999999046,1880466.84,1885676.989,8,400,25,,ISIC_6113524.JPG
break,html.Screen,4_24_1,2023-09-11T20:35:58.139Z,,0,,,NaN,,,,,,false,,,,1885671.8000001907,1885671.3000001907,,1885670.5999999046,,1885676.989,8,400,,,
break_continue,html.Screen,4_24_2,2023-09-11T20:35:58.140Z,,0,,,NaN,,,,,,false,,,,1885672.5,1885672.3000001907,,1885671.9000000954,,1885676.989,8,400,,,
sequence,flow.Sequence,4_24,2023-09-11T20:35:58.140Z,,0,,,5205.460000190651,completion,,,,,false,,,,1885672.9000000954,1885672.3000001907,1880450.235,1880451.5,1880466.84,1885676.989,8,400,,,
trial,html.Screen,4_25_0,2023-09-11T20:36:03.503Z,,0,1,,5358.610999904573,response,ISIC_0011337.JPG,5,ISIC_1452549.JPG,ISIC_0011337.JPG,false,1,keypress(m),500,1891035.700000286,1891035.5999999046,1885660.272,1885673.0999999046,1885676.989,1891037.359,8,400,26,,ISIC_1452549.JPG
break,html.Screen,4_25_1,2023-09-11T20:36:03.503Z,,0,,,NaN,,,,,,false,,,,1891036.3000001907,1891036.0999999046,,1891035.9000000954,,1891037.359,8,400,,,
break_continue,html.Screen,4_25_2,2023-09-11T20:36:03.504Z,,0,,,NaN,,,,,,false,,,,1891036.5,1891036.4000000954,,1891036.3000001907,,1891037.359,8,400,,,
sequence,flow.Sequence,4_25,2023-09-11T20:36:03.504Z,,0,,,5359.411000095308,completion,,,,,false,,,,1891036.5999999046,1891036.4000000954,1885660.272,1885673.0999999046,1885676.989,1891037.359,8,400,,,
trial,html.Screen,4_26_0,2023-09-11T20:36:07.657Z,,0,1,,4152.341000286164,response,ISIC_5629390.JPG,4,ISIC_4252268.JPG,ISIC_4252268.JPG,false,0,keypress(z),500,1895189.8000001907,1895189.700000286,1891020.79,1891036.700000286,1891037.359,1895195.633,8,400,27,,ISIC_5629390.JPG
break,html.Screen,4_26_1,2023-09-11T20:36:07.657Z,,0,,,NaN,,,,,,false,,,,1895190.3000001907,1895190.200000286,,1895190,,1895195.633,8,400,,,
break_continue,html.Screen,4_26_2,2023-09-11T20:36:07.658Z,,0,,,NaN,,,,,,false,,,,1895190.4000000954,1895190.4000000954,,1895190.3000001907,,1895195.633,8,400,,,
sequence,flow.Sequence,4_26,2023-09-11T20:36:07.658Z,,0,,,4153.041000095429,completion,,,,,false,,,,1895190.4000000954,1895190.4000000954,1891020.79,1891036.700000286,1891037.359,1895195.633,8,400,,,
trial,html.Screen,4_27_0,2023-09-11T20:36:14.476Z,,0,1,,6813.567000286188,response,ISIC_0032892.JPG,6,ISIC_0030985.JPG,ISIC_0032892.JPG,false,1,keypress(m),500,1902009.200000286,1902009.200000286,1895178.831,1895190.5,1895195.633,1902025.555,8,400,28,,ISIC_0030985.JPG
break,html.Screen,4_27_1,2023-09-11T20:36:14.477Z,,0,,,NaN,,,,,,false,,,,1902009.700000286,1902009.5999999046,,1902009.4000000954,,1902025.555,8,400,,,
break_continue,html.Screen,4_27_2,2023-09-11T20:36:14.477Z,,0,,,NaN,,,,,,false,,,,1902009.9000000954,1902009.8000001907,,1902009.8000001907,,1902025.555,8,400,,,
sequence,flow.Sequence,4_27,2023-09-11T20:36:14.477Z,,0,,,6814.1670001908205,completion,,,,,false,,,,1902009.9000000954,1902009.8000001907,1895178.831,1895190.5,1895195.633,1902025.555,8,400,,,
trial,html.Screen,4_28_0,2023-09-11T20:36:20.902Z,,0,1,,6408.544999904698,response,ISIC_5857303.JPG,5,ISIC_0027817.JPG,ISIC_0027817.JPG,false,0,keypress(z),500,1908434.5,1908434.0999999046,1902008.727,1902010,1902025.555,1908437.999,8,400,29,,ISIC_5857303.JPG
break,html.Screen,4_28_1,2023-09-11T20:36:20.904Z,,0,,,NaN,,,,,,false,,,,1908437.200000286,1908436.5,,1908435,,1908437.999,8,400,,,
break_continue,html.Screen,4_28_2,2023-09-11T20:36:20.906Z,,0,,,NaN,,,,,,false,,,,1908438.5,1908438.0999999046,,1908437.5999999046,,1908437.999,8,400,,,
sequence,flow.Sequence,4_28,2023-09-11T20:36:20.906Z,,0,,,6412.544999904698,completion,,,,,false,,,,1908438.9000000954,1908438.0999999046,1902008.727,1902009.9000000954,1902025.555,1908437.999,8,400,,,
trial,html.Screen,4_29_0,2023-09-11T20:36:26.430Z,,0,1,,5524.100999904564,response,ISIC_5092834.JPG,5,ISIC_1097830.JPG,ISIC_1097830.JPG,false,0,keypress(z),500,1913962.3000001907,1913962.0999999046,1908421.177,1908439.4000000954,1908437.999,1913965.294,8,400,30,,ISIC_5092834.JPG
break,html.Screen,4_29_1,2023-09-11T20:36:26.431Z,,0,,,NaN,,,,,,false,,,,1913962.8000001907,1913962.700000286,,1913962.4000000954,,1913965.294,8,400,,,
break_continue,html.Screen,4_29_2,2023-09-11T20:36:26.431Z,,0,,,NaN,,,,,,false,,,,1913962.9000000954,1913962.9000000954,,1913962.8000001907,,1913965.294,8,400,,,
sequence,flow.Sequence,4_29,2023-09-11T20:36:26.431Z,,0,,,5524.9010000952985,completion,,,,,false,,,,1913963,1913962.9000000954,1908421.177,1908439.200000286,1908437.999,1913965.294,8,400,,,
trial,html.Screen,4_30_0,2023-09-11T20:36:31.280Z,,0,1,,4847.106000095373,response,ISIC_0053617.JPG,6,ISIC_0053572.JPG,ISIC_0053617.JPG,false,1,keypress(m),500,1918812.5,1918812.4000000954,1913948.591,1913963,1913965.294,1918824.749,8,400,31,,ISIC_0053572.JPG
break,html.Screen,4_30_1,2023-09-11T20:36:31.281Z,,0,,,NaN,,,,,,false,,,,1918813.0999999046,1918813,,1918812.700000286,,1918824.749,8,400,,,
break_continue,html.Screen,4_30_2,2023-09-11T20:36:31.281Z,,0,,,NaN,,,,,,false,,,,1918813.5,1918813.4000000954,,1918813.3000001907,,1918824.749,8,400,,,
sequence,flow.Sequence,4_30,2023-09-11T20:36:31.281Z,,0,,,4848.106000095373,completion,,,,,false,,,,1918813.5999999046,1918813.4000000954,1913948.591,1913963,1913965.294,1918824.749,8,400,,,
trial,html.Screen,4_31_0,2023-09-11T20:36:36.565Z,,0,1,,5271.850999904564,response,ISIC_0034090.JPG,5,ISIC_7278885.JPG,ISIC_0034090.JPG,false,1,keypress(m),500,1924096.700000286,1924096.5999999046,1918808.081,1918813.700000286,1918824.749,1924101.66,8,400,32,,ISIC_7278885.JPG
break,html.Screen,4_31_1,2023-09-11T20:36:36.565Z,,0,,,NaN,,,,,,false,,,,1924097.5,1924097.200000286,,1924096.8000001907,,1924101.66,8,400,,,
break_continue,html.Screen,4_31_2,2023-09-11T20:36:36.566Z,,0,,,NaN,,,,,,false,,,,1924097.8000001907,1924097.700000286,,1924097.5,,1924101.66,8,400,,,
sequence,flow.Sequence,4_31,2023-09-11T20:36:36.566Z,,0,,,5272.951000286033,completion,,,,,false,,,,1924097.8000001907,1924097.700000286,1918808.081,1918813.5999999046,1918824.749,1924101.66,8,400,,,
trial,html.Screen,4_32_0,2023-09-11T20:36:42.119Z,,0,1,,5549.140000190819,response,ISIC_4419686.JPG,5,ISIC_2208006.JPG,ISIC_2208006.JPG,false,0,keypress(z),500,1929650.9000000954,1929650.8000001907,1924085.101,1924097.8000001907,1924101.66,1929662.639,8,400,33,,ISIC_4419686.JPG
break,html.Screen,4_32_1,2023-09-11T20:36:42.119Z,,0,,,NaN,,,,,,false,,,,1929651.4000000954,1929651.200000286,,1929651,,1929662.639,8,400,,,
break_continue,html.Screen,4_32_2,2023-09-11T20:36:42.119Z,,0,,,NaN,,,,,,false,,,,1929651.5,1929651.5,,1929651.4000000954,,1929662.639,8,400,,,
sequence,flow.Sequence,4_32,2023-09-11T20:36:42.119Z,,0,,,5549.840000000084,completion,,,,,false,,,,1929651.5999999046,1929651.5,1924085.101,1924097.8000001907,1924101.66,1929662.639,8,400,,,
trial,html.Screen,4_33_0,2023-09-11T20:36:47.808Z,,0,1,,5677.661000190768,response,ISIC_9685928.JPG,5,ISIC_4811593.JPG,ISIC_9685928.JPG,false,1,keypress(m),500,1935340.5,1935340.3000001907,1929645.887,1929651.5999999046,1929662.639,1935356.925,8,400,34,,ISIC_4811593.JPG
break,html.Screen,4_33_1,2023-09-11T20:36:47.809Z,,0,,,NaN,,,,,,false,,,,1935341,1935340.9000000954,,1935340.5999999046,,1935356.925,8,400,,,
break_continue,html.Screen,4_33_2,2023-09-11T20:36:47.809Z,,0,,,NaN,,,,,,false,,,,1935341.200000286,1935341.0999999046,,1935341.0999999046,,1935356.925,8,400,,,
sequence,flow.Sequence,4_33,2023-09-11T20:36:47.809Z,,0,,,5678.460999904666,completion,,,,,false,,,,1935341.3000001907,1935341.0999999046,1929645.887,1929651.5999999046,1929662.639,1935356.925,8,400,,,
trial,html.Screen,4_34_0,2023-09-11T20:36:52.297Z,,0,1,,4472.174999904586,response,ISIC_0032420.JPG,5,ISIC_0062740.JPG,ISIC_0062740.JPG,false,0,keypress(z),500,1939829.200000286,1939829.0999999046,1935340.48,1935341.3000001907,1935356.925,1939832.321,8,400,35,,ISIC_0032420.JPG
break,html.Screen,4_34_1,2023-09-11T20:36:52.298Z,,0,,,NaN,,,,,,false,,,,1939830.200000286,1939830,,1939829.5,,1939832.321,8,400,,,
break_continue,html.Screen,4_34_2,2023-09-11T20:36:52.298Z,,0,,,NaN,,,,,,false,,,,1939830.5,1939830.4000000954,,1939830.200000286,,1939832.321,8,400,,,
sequence,flow.Sequence,4_34,2023-09-11T20:36:52.298Z,,0,,,4473.475000095321,completion,,,,,false,,,,1939830.5999999046,1939830.4000000954,1935340.48,1935341.3000001907,1935356.925,1939832.321,8,400,,,
trial,html.Screen,4_35_0,2023-09-11T20:36:56.509Z,,0,1,,4208.679000000004,response,ISIC_8650269.JPG,5,ISIC_0962121.JPG,ISIC_8650269.JPG,false,1,keypress(m),500,1944041.0999999046,1944041,1939815.654,1939830.700000286,1939832.321,1944073.883,8,400,36,,ISIC_0962121.JPG
break,html.Screen,4_35_1,2023-09-11T20:36:56.510Z,,0,,,NaN,,,,,,false,,,,1944042.200000286,1944041.8000001907,,1944041.3000001907,,1944073.883,8,400,,,
break_continue,html.Screen,4_35_2,2023-09-11T20:36:56.511Z,,0,,,NaN,,,,,,false,,,,1944042.700000286,1944042.5,,1944042.4000000954,,1944073.883,8,400,,,
sequence,flow.Sequence,4_35,2023-09-11T20:36:56.511Z,,0,,,4210.179000000004,completion,,,,,false,,,,1944042.8000001907,1944042.5,1939815.654,1939830.700000286,1939832.321,1944073.883,8,400,,,
trial,html.Screen,4_36_0,2023-09-11T20:37:01.664Z,,0,1,,5122.117000000086,response,ISIC_1490986.JPG,5,ISIC_7306535.JPG,ISIC_7306535.JPG,false,0,keypress(z),500,1949196.0999999046,1949196,1944057.206,1944042.9000000954,1944073.883,1949200.495,8,400,37,,ISIC_1490986.JPG
break,html.Screen,4_36_1,2023-09-11T20:37:01.665Z,,0,,,NaN,,,,,,false,,,,1949197,1949196.8000001907,,1949196.4000000954,,1949200.495,8,400,,,
break_continue,html.Screen,4_36_2,2023-09-11T20:37:01.665Z,,0,,,NaN,,,,,,false,,,,1949197.5,1949197.3000001907,,1949197.200000286,,1949200.495,8,400,,,
sequence,flow.Sequence,4_36,2023-09-11T20:37:01.666Z,,0,,,5123.4170001908205,completion,,,,,false,,,,1949197.5999999046,1949197.3000001907,1944057.206,1944042.9000000954,1944073.883,1949200.495,8,400,,,
trial,html.Screen,4_37_0,2023-09-11T20:37:06.203Z,,0,1,,4534.004999999888,response,ISIC_2384274.JPG,6,ISIC_0067564.JPG,ISIC_0067564.JPG,false,0,keypress(z),500,1953734.8000001907,1953734.5,1949183.956,1949197.700000286,1949200.495,1953742.693,8,400,38,,ISIC_2384274.JPG
break,html.Screen,4_37_1,2023-09-11T20:37:06.204Z,,0,,,NaN,,,,,,false,,,,1953735.9000000954,1953735.5999999046,,1953735,,1953742.693,8,400,,,
break_continue,html.Screen,4_37_2,2023-09-11T20:37:06.204Z,,0,,,NaN,,,,,,false,,,,1953736.5,1953736.5,,1953736.0999999046,,1953742.693,8,400,,,
sequence,flow.Sequence,4_37,2023-09-11T20:37:06.205Z,,0,,,4536.004999999888,completion,,,,,false,,,,1953736.700000286,1953736.5,1949183.956,1949197.700000286,1949200.495,1953742.693,8,400,,,
trial,html.Screen,4_38_0,2023-09-11T20:37:10.370Z,,0,1,,4159.207000095397,response,ISIC_0046900.JPG,4,ISIC_1108204.JPG,ISIC_0046900.JPG,false,1,keypress(m),500,1957902,1957901.9000000954,1953726.099,1953736.9000000954,1953742.693,1957917.584,8,400,39,,ISIC_1108204.JPG
break,html.Screen,4_38_1,2023-09-11T20:37:10.371Z,,0,,,NaN,,,,,,false,,,,1957902.700000286,1957902.5,,1957902.200000286,,1957917.584,8,400,,,
break_continue,html.Screen,4_38_2,2023-09-11T20:37:10.371Z,,0,,,NaN,,,,,,false,,,,1957903,1957903,,1957902.8000001907,,1957917.584,8,400,,,
sequence,flow.Sequence,4_38,2023-09-11T20:37:10.371Z,,0,,,4160.30700000003,completion,,,,,false,,,,1957903.200000286,1957903,1953726.099,1953736.8000001907,1953742.693,1957917.584,8,400,,,
trial,html.Screen,4_39_0,2023-09-11T20:37:15.557Z,,0,1,,5171.015999904601,response,ISIC_6052860.JPG,5,ISIC_0073015.JPG,ISIC_0073015.JPG,false,0,keypress(z),500,1963088.700000286,1963088.5999999046,1957900.772,1957903.200000286,1957917.584,1963094.23,8,400,40,,ISIC_6052860.JPG
break,html.Screen,4_39_1,2023-09-11T20:37:15.557Z,,0,,,NaN,,,,,,false,,,,1963089.3000001907,1963089.0999999046,,1963088.8000001907,,1963094.23,8,400,,,
break_continue,html.Screen,4_39_2,2023-09-11T20:37:15.557Z,,0,,,NaN,,,,,,false,,,,1963089.5999999046,1963089.5,,1963089.4000000954,,1963094.23,8,400,,,
sequence,flow.Sequence,4_39,2023-09-11T20:37:15.558Z,,0,,,5171.915999999968,completion,,,,,false,,,,1963089.700000286,1963089.5,1957900.772,1957903.200000286,1957917.584,1963094.23,8,400,,,
trial,html.Screen,4_40_0,2023-09-11T20:37:20.494Z,,0,1,,4932.170000095386,response,ISIC_0012040.JPG,5,ISIC_0054422.JPG,ISIC_0012040.JPG,false,1,keypress(m),500,1968026.5999999046,1968026.4000000954,1963077.535,1963089.700000286,1963094.23,1968037.263,8,400,41,,ISIC_0054422.JPG
break,html.Screen,4_40_1,2023-09-11T20:37:20.495Z,,0,,,NaN,,,,,,false,,,,1968027,1968027,,1968026.700000286,,1968037.263,8,400,,,
break_continue,html.Screen,4_40_2,2023-09-11T20:37:20.495Z,,0,,,NaN,,,,,,false,,,,1968027.200000286,1968027.200000286,,1968027.0999999046,,1968037.263,8,400,,,
sequence,flow.Sequence,4_40,2023-09-11T20:37:20.495Z,,0,,,4932.970000286121,completion,,,,,false,,,,1968027.200000286,1968027.200000286,1963077.535,1963089.700000286,1963094.23,1968037.263,8,400,,,
trial,html.Screen,4_41_0,2023-09-11T20:37:25.268Z,,0,1,,4762.236999999965,response,ISIC_0027306.JPG,5,ISIC_0026611.JPG,ISIC_0027306.JPG,false,1,keypress(m),500,1972799.5999999046,1972799.5,1968020.514,1968027.3000001907,1968037.263,1972813.18,8,400,42,,ISIC_0026611.JPG
break,html.Screen,4_41_1,2023-09-11T20:37:25.269Z,,0,,,NaN,,,,,,false,,,,1972800.200000286,1972800,,1972799.700000286,,1972813.18,8,400,,,
break_continue,html.Screen,4_41_2,2023-09-11T20:37:25.269Z,,0,,,NaN,,,,,,false,,,,1972800.5999999046,1972800.5,,1972800.4000000954,,1972813.18,8,400,,,
sequence,flow.Sequence,4_41,2023-09-11T20:37:25.269Z,,0,,,4763.236999999965,completion,,,,,false,,,,1972800.5999999046,1972800.5,1968020.514,1968027.3000001907,1968037.263,1972813.18,8,400,,,
trial,html.Screen,4_42_0,2023-09-11T20:37:31.943Z,,0,1,,6661.1200001908,response,ISIC_7953039.JPG,5,ISIC_0068993.JPG,ISIC_0068993.JPG,false,0,keypress(z),500,1979474.3000001907,1979474.3000001907,1972796.487,1972800.8000001907,1972813.18,1979476.14,8,400,43,,ISIC_7953039.JPG
break,html.Screen,4_42_1,2023-09-11T20:37:31.943Z,,0,,,NaN,,,,,,false,,,,1979474.8000001907,1979474.700000286,,1979474.4000000954,,1979476.14,8,400,,,
break_continue,html.Screen,4_42_2,2023-09-11T20:37:31.944Z,,0,,,NaN,,,,,,false,,,,1979475,1979475,,1979474.9000000954,,1979476.14,8,400,,,
sequence,flow.Sequence,4_42,2023-09-11T20:37:31.944Z,,0,,,6661.820000000065,completion,,,,,false,,,,1979475.0999999046,1979475,1972796.487,1972800.8000001907,1972813.18,1979476.14,8,400,,,
trial,html.Screen,4_43_0,2023-09-11T20:37:36.717Z,,0,1,,4772.26000009547,response,ISIC_9906378.JPG,5,ISIC_3466769.JPG,ISIC_9906378.JPG,false,1,keypress(m),500,1984248.5,1984248.4000000954,1979459.455,1979475.0999999046,1979476.14,1984252.073,8,400,44,,ISIC_3466769.JPG
break,html.Screen,4_43_1,2023-09-11T20:37:36.718Z,,0,,,NaN,,,,,,false,,,,1984249.3000001907,1984249.0999999046,,1984248.8000001907,,1984252.073,8,400,,,
break_continue,html.Screen,4_43_2,2023-09-11T20:37:36.718Z,,0,,,NaN,,,,,,false,,,,1984249.700000286,1984249.5999999046,,1984249.4000000954,,1984252.073,8,400,,,
sequence,flow.Sequence,4_43,2023-09-11T20:37:36.718Z,,0,,,4773.459999904735,completion,,,,,false,,,,1984249.700000286,1984249.5999999046,1979459.455,1979475.0999999046,1979476.14,1984252.073,8,400,,,
trial,html.Screen,4_44_0,2023-09-11T20:37:43.270Z,,0,1,,6549.127000286011,response,ISIC_0897526.JPG,5,ISIC_6285076.JPG,ISIC_0897526.JPG,false,1,keypress(m),500,1990801.4000000954,1990801.200000286,1984235.437,1984249.9000000954,1984252.073,1990831.685,8,400,45,,ISIC_6285076.JPG
break,html.Screen,4_44_1,2023-09-11T20:37:43.270Z,,0,,,NaN,,,,,,false,,,,1990801.700000286,1990801.700000286,,1990801.4000000954,,1990831.685,8,400,,,
break_continue,html.Screen,4_44_2,2023-09-11T20:37:43.270Z,,0,,,NaN,,,,,,false,,,,1990802,1990801.9000000954,,1990801.8000001907,,1990831.685,8,400,,,
sequence,flow.Sequence,4_44,2023-09-11T20:37:43.271Z,,0,,,6549.827000095276,completion,,,,,false,,,,1990802,1990801.9000000954,1984235.437,1984249.9000000954,1984252.073,1990831.685,8,400,,,
trial,html.Screen,4_45_0,2023-09-11T20:37:48.680Z,,0,1,,5379.414999904577,response,ISIC_9742073.JPG,4,ISIC_5607702.JPG,ISIC_9742073.JPG,false,1,keypress(m),500,1996211.200000286,1996211.0999999046,1990814.942,1990802.0999999046,1990831.685,1996242.167,8,400,46,,ISIC_5607702.JPG
break,html.Screen,4_45_1,2023-09-11T20:37:48.680Z,,0,,,NaN,,,,,,false,,,,1996211.5999999046,1996211.5,,1996211.4000000954,,1996242.167,8,400,,,
break_continue,html.Screen,4_45_2,2023-09-11T20:37:48.680Z,,0,,,NaN,,,,,,false,,,,1996211.8000001907,1996211.8000001907,,1996211.700000286,,1996242.167,8,400,,,
sequence,flow.Sequence,4_45,2023-09-11T20:37:48.680Z,,0,,,5380.115000190679,completion,,,,,false,,,,1996211.9000000954,1996211.8000001907,1990814.942,1990802.0999999046,1990831.685,1996242.167,8,400,,,
trial,html.Screen,4_46_0,2023-09-11T20:37:55.872Z,,0,1,,7161.633000190835,response,ISIC_9740245.JPG,5,ISIC_1696516.JPG,ISIC_9740245.JPG,false,1,keypress(m),500,2003403.9000000954,2003403.8000001907,1996225.555,1996212,1996242.167,2003422.72,8,400,47,,ISIC_1696516.JPG
break,html.Screen,4_46_1,2023-09-11T20:37:55.873Z,,0,,,NaN,,,,,,false,,,,2003404.5,2003404.3000001907,,2003404.0999999046,,2003422.72,8,400,,,
break_continue,html.Screen,4_46_2,2023-09-11T20:37:55.873Z,,0,,,NaN,,,,,,false,,,,2003404.5999999046,2003404.5999999046,,2003404.5,,2003422.72,8,400,,,
sequence,flow.Sequence,4_46,2023-09-11T20:37:55.873Z,,0,,,7162.432999904733,completion,,,,,false,,,,2003404.700000286,2003404.5999999046,1996225.555,1996211.9000000954,1996242.167,2003422.72,8,400,,,
trial,html.Screen,4_47_0,2023-09-11T20:38:00.406Z,,0,1,,4514.680000095395,response,ISIC_0033574.JPG,4,ISIC_0027363.JPG,ISIC_0033574.JPG,false,1,keypress(m),500,2007937.5,2007937.4000000954,2003406.047,2003404.8000001907,2003422.72,2007948.211,8,400,48,,ISIC_0027363.JPG
break,html.Screen,4_47_1,2023-09-11T20:38:00.406Z,,0,,,NaN,,,,,,false,,,,2007938,2007937.8000001907,,2007937.700000286,,2007948.211,8,400,,,
break_continue,html.Screen,4_47_2,2023-09-11T20:38:00.407Z,,0,,,NaN,,,,,,false,,,,2007938.200000286,2007938.0999999046,,2007938,,2007948.211,8,400,,,
sequence,flow.Sequence,4_47,2023-09-11T20:38:00.407Z,,0,,,4515.3799999046605,completion,,,,,false,,,,2007938.200000286,2007938.0999999046,2003406.047,2003404.8000001907,2003422.72,2007948.211,8,400,,,
trial,html.Screen,4_48_0,2023-09-11T20:38:05.529Z,,0,1,,5112.388999904739,response,ISIC_1590829.JPG,5,ISIC_0032742.JPG,ISIC_0032742.JPG,false,0,keypress(z),500,2013060.5999999046,2013060.5999999046,2007931.505,2007938.3000001907,2007948.211,2013074.865,8,400,49,,ISIC_1590829.JPG
break,html.Screen,4_48_1,2023-09-11T20:38:05.530Z,,0,,,NaN,,,,,,false,,,,2013061.0999999046,2013061,,2013060.8000001907,,2013074.865,8,400,,,
break_continue,html.Screen,4_48_2,2023-09-11T20:38:05.530Z,,0,,,NaN,,,,,,false,,,,2013061.3000001907,2013061.200000286,,2013061.0999999046,,2013074.865,8,400,,,
sequence,flow.Sequence,4_48,2023-09-11T20:38:05.530Z,,0,,,5112.9890002862085,completion,,,,,false,,,,2013061.4000000954,2013061.200000286,2007931.505,2007938.200000286,2007948.211,2013074.865,8,400,,,
trial,html.Screen,4_49_0,2023-09-11T20:38:11.691Z,,0,1,,6147.835000286112,response,ISIC_0013839.JPG,6,ISIC_5888212.JPG,ISIC_0013839.JPG,false,1,keypress(m),500,2019222.9000000954,2019222.700000286,2013058.142,2013061.4000000954,2013074.865,2019236.854,8,400,50,,ISIC_5888212.JPG
break,html.Screen,4_49_1,2023-09-11T20:38:21.694Z,,0,,,10002.834000000032,timeout,,,,,false,,,,2029224.700000286,2029223,2019220.135,2019223,2019236.854,2029239.688,8,400,,,
break_continue,html.Screen,4_49_2,2023-09-11T20:38:26.386Z,,0,,,4654.411999904551,response,,,,,false,continue,keypress(Space),,2033917.200000286,2033894.0999999046,2029223,2029225.0999999046,2029239.688,2033948.761,8,400,,,
sequence,flow.Sequence,4_49,2023-09-11T20:38:26.386Z,,0,,,20819.234999904642,completion,,,,,false,,,,2033917.3000001907,2033894.0999999046,2013058.142,2013061.4000000954,2013074.865,2033948.761,8,400,,,
trial,html.Screen,4_50_0,2023-09-11T20:38:29.845Z,,0,2,,3426.939000286162,response,ISIC_8188797.JPG,8,ISIC_0301568.JPG,ISIC_0301568.JPG,false,0,keypress(z),500,2037375.9000000954,2037375.700000286,2033932.194,2033917.4000000954,2033948.761,2037388.855,8,400,1,,ISIC_8188797.JPG
break,html.Screen,4_50_1,2023-09-11T20:38:29.846Z,,0,,,NaN,,,,,,false,,,,2037376.9000000954,2037376.5999999046,,2037376.0999999046,,2037388.855,8,400,,,
break_continue,html.Screen,4_50_2,2023-09-11T20:38:29.846Z,,0,,,NaN,,,,,,false,,,,2037377.3000001907,2037377.200000286,,2037377,,2037388.855,8,400,,,
sequence,flow.Sequence,4_50,2023-09-11T20:38:29.846Z,,0,,,3428.439000286162,completion,,,,,false,,,,2037377.5,2037377.200000286,2033932.194,2033917.3000001907,2033948.761,2037388.855,8,400,,,
trial,html.Screen,4_51_0,2023-09-11T20:38:34.570Z,,0,2,,4711.645000000019,response,ISIC_8033373.JPG,6,ISIC_3857463.JPG,ISIC_3857463.JPG,false,0,keypress(z),500,2042100.700000286,2042100.5,2037372.199,2037377.5999999046,2037388.855,2042114.668,8,400,2,,ISIC_8033373.JPG
break,html.Screen,4_51_1,2023-09-11T20:38:34.570Z,,0,,,NaN,,,,,,false,,,,2042101.200000286,2042101.0999999046,,2042100.8000001907,,2042114.668,8,400,,,
break_continue,html.Screen,4_51_2,2023-09-11T20:38:34.570Z,,0,,,NaN,,,,,,false,,,,2042101.4000000954,2042101.3000001907,,2042101.200000286,,2042114.668,8,400,,,
sequence,flow.Sequence,4_51,2023-09-11T20:38:34.570Z,,0,,,4712.4450001907535,completion,,,,,false,,,,2042101.5,2042101.3000001907,2037372.199,2037377.5999999046,2037388.855,2042114.668,8,400,,,
trial,html.Screen,4_52_0,2023-09-11T20:38:37.676Z,,0,2,,3092.532000286039,response,ISIC_0071906.JPG,6,ISIC_0059597.JPG,ISIC_0059597.JPG,false,0,keypress(z),500,2045207.4000000954,2045207.200000286,2042097.981,2042101.5999999046,2042114.668,2045220.774,8,400,3,,ISIC_0071906.JPG
break,html.Screen,4_52_1,2023-09-11T20:38:37.677Z,,0,,,NaN,,,,,,false,,,,2045207.8000001907,2045207.700000286,,2045207.4000000954,,2045220.774,8,400,,,
break_continue,html.Screen,4_52_2,2023-09-11T20:38:37.677Z,,0,,,NaN,,,,,,false,,,,2045207.9000000954,2045207.9000000954,,2045207.8000001907,,2045220.774,8,400,,,
sequence,flow.Sequence,4_52,2023-09-11T20:38:37.677Z,,0,,,3093.232000095304,completion,,,,,false,,,,2045208.0999999046,2045207.9000000954,2042097.981,2042101.5,2042114.668,2045220.774,8,400,,,
trial,html.Screen,4_53_0,2023-09-11T20:38:41.247Z,,0,2,,3557.1260000953916,response,ISIC_0009984.JPG,6,ISIC_4024062.JPG,ISIC_0009984.JPG,false,1,keypress(m),500,2048778.0999999046,2048777.9000000954,2045204.129,2045208.0999999046,2045220.774,2048794.337,8,400,4,,ISIC_4024062.JPG
break,html.Screen,4_53_1,2023-09-11T20:38:41.248Z,,0,,,NaN,,,,,,false,,,,2048779,2048778.9000000954,,2048778.3000001907,,2048794.337,8,400,,,
break_continue,html.Screen,4_53_2,2023-09-11T20:38:41.248Z,,0,,,NaN,,,,,,false,,,,2048779.200000286,2048779.200000286,,2048779.0999999046,,2048794.337,8,400,,,
sequence,flow.Sequence,4_53,2023-09-11T20:38:41.248Z,,0,,,3558.4260002861265,completion,,,,,false,,,,2048779.3000001907,2048779.200000286,2045204.129,2045208.0999999046,2045220.774,2048794.337,8,400,,,
trial,html.Screen,4_54_0,2023-09-11T20:38:45.349Z,,0,2,,4085.262999904575,response,ISIC_9450906.JPG,5,ISIC_0065590.JPG,ISIC_9450906.JPG,false,1,keypress(m),500,2052879.700000286,2052879.5999999046,2048777.661,2048779.3000001907,2048794.337,2052902.338,8,400,5,,ISIC_0065590.JPG
break,html.Screen,4_54_1,2023-09-11T20:38:45.349Z,,0,,,NaN,,,,,,false,,,,2052880.0999999046,2052880,,2052879.9000000954,,2052902.338,8,400,,,
break_continue,html.Screen,4_54_2,2023-09-11T20:38:45.349Z,,0,,,NaN,,,,,,false,,,,2052880.3000001907,2052880.3000001907,,2052880.200000286,,2052902.338,8,400,,,
sequence,flow.Sequence,4_54,2023-09-11T20:38:45.349Z,,0,,,4085.963000190677,completion,,,,,false,,,,2052880.4000000954,2052880.3000001907,2048777.661,2048779.3000001907,2048794.337,2052902.338,8,400,,,
trial,html.Screen,4_55_0,2023-09-11T20:38:49.255Z,,0,2,,3883.5620000953786,response,ISIC_0032774.JPG,5,ISIC_6446753.JPG,ISIC_0032774.JPG,false,1,keypress(m),500,2056786.0999999046,2056785.9000000954,2052885.702,2052880.5,2052902.338,2056793.262,8,400,6,,ISIC_6446753.JPG
break,html.Screen,4_55_1,2023-09-11T20:38:49.255Z,,0,,,NaN,,,,,,false,,,,2056786.5,2056786.4000000954,,2056786.200000286,,2056793.262,8,400,,,
break_continue,html.Screen,4_55_2,2023-09-11T20:38:49.256Z,,0,,,NaN,,,,,,false,,,,2056786.700000286,2056786.700000286,,2056786.5999999046,,2056793.262,8,400,,,
sequence,flow.Sequence,4_55,2023-09-11T20:38:49.256Z,,0,,,3884.3620002861135,completion,,,,,false,,,,2056786.8000001907,2056786.700000286,2052885.702,2052880.4000000954,2052902.338,2056793.262,8,400,,,
trial,html.Screen,4_56_0,2023-09-11T20:38:54.221Z,,0,2,,4958.737999999896,response,ISIC_0007257.JPG,6,ISIC_0059336.JPG,ISIC_0059336.JPG,false,0,keypress(z),500,2061752,2061752,2056776.52,2056786.9000000954,2056793.262,2061769.697,8,400,7,,ISIC_0007257.JPG
break,html.Screen,4_56_1,2023-09-11T20:38:54.221Z,,0,,,NaN,,,,,,false,,,,2061752.5,2061752.3000001907,,2061752.0999999046,,2061769.697,8,400,,,
break_continue,html.Screen,4_56_2,2023-09-11T20:38:54.222Z,,0,,,NaN,,,,,,false,,,,2061752.5999999046,2061752.5999999046,,2061752.5,,2061769.697,8,400,,,
sequence,flow.Sequence,4_56,2023-09-11T20:38:54.222Z,,0,,,4959.337999904528,completion,,,,,false,,,,2061752.700000286,2061752.5999999046,2056776.52,2056786.9000000954,2056793.262,2061769.697,8,400,,,
trial,html.Screen,4_57_0,2023-09-11T20:38:58.496Z,,0,2,,4256.902999904705,response,ISIC_8712559.JPG,5,ISIC_3700351.JPG,ISIC_8712559.JPG,false,1,keypress(m),500,2066026.700000286,2066026.5999999046,2061752.889,2061752.700000286,2061769.697,2066027.903,8,400,8,,ISIC_3700351.JPG
break,html.Screen,4_57_1,2023-09-11T20:38:58.496Z,,0,,,NaN,,,,,,false,,,,2066027.200000286,2066027,,2066026.8000001907,,2066027.903,8,400,,,
break_continue,html.Screen,4_57_2,2023-09-11T20:38:58.496Z,,0,,,NaN,,,,,,false,,,,2066027.3000001907,2066027.3000001907,,2066027.3000001907,,2066027.903,8,400,,,
sequence,flow.Sequence,4_57,2023-09-11T20:38:58.496Z,,0,,,4257.6030001908075,completion,,,,,false,,,,2066027.4000000954,2066027.3000001907,2061752.889,2061752.700000286,2061769.697,2066027.903,8,400,,,
trial,html.Screen,4_58_0,2023-09-11T20:39:02.610Z,,0,2,,4113.097000000067,response,ISIC_0060219.JPG,4,ISIC_0061441.JPG,ISIC_0061441.JPG,false,0,keypress(z),500,2070141.4000000954,2070141,2066011.444,2066027.5,2066027.903,2070152.629,8,400,9,,ISIC_0060219.JPG
break,html.Screen,4_58_1,2023-09-11T20:39:02.612Z,,0,,,NaN,,,,,,false,,,,2070143.0999999046,2070142.8000001907,,2070141.9000000954,,2070152.629,8,400,,,
break_continue,html.Screen,4_58_2,2023-09-11T20:39:02.613Z,,0,,,NaN,,,,,,false,,,,2070144,2070143.8000001907,,2070143.3000001907,,2070152.629,8,400,,,
sequence,flow.Sequence,4_58,2023-09-11T20:39:02.613Z,,0,,,4115.897000190802,completion,,,,,false,,,,2070144.5,2070143.8000001907,2066011.444,2066027.5,2066027.903,2070152.629,8,400,,,
trial,html.Screen,4_59_0,2023-09-11T20:39:06.057Z,,0,2,,3435.371000000043,response,ISIC_0032258.JPG,5,ISIC_0025579.JPG,ISIC_0032258.JPG,false,1,keypress(m),500,2073588.200000286,2073588,2070136.043,2070144.700000286,2070152.629,2073592.611,8,400,10,,ISIC_0025579.JPG
break,html.Screen,4_59_1,2023-09-11T20:39:06.058Z,,0,,,NaN,,,,,,false,,,,2073588.5999999046,2073588.5,,2073588.3000001907,,2073592.611,8,400,,,
break_continue,html.Screen,4_59_2,2023-09-11T20:39:06.058Z,,0,,,NaN,,,,,,false,,,,2073588.700000286,2073588.700000286,,2073588.700000286,,2073592.611,8,400,,,
sequence,flow.Sequence,4_59,2023-09-11T20:39:06.058Z,,0,,,3436.071000286145,completion,,,,,false,,,,2073588.9000000954,2073588.700000286,2070136.043,2070144.5999999046,2070152.629,2073592.611,8,400,,,
trial,html.Screen,4_60_0,2023-09-11T20:39:09.683Z,,0,2,,3621.0890002860688,response,ISIC_0024306.JPG,4,ISIC_4624973.JPG,ISIC_4624973.JPG,false,0,keypress(z),500,2077213.9000000954,2077213.700000286,2073575.95,2073588.9000000954,2073592.611,2077233.008,8,400,11,,ISIC_0024306.JPG
break,html.Screen,4_60_1,2023-09-11T20:39:09.683Z,,0,,,NaN,,,,,,false,,,,2077214.200000286,2077214.0999999046,,2077213.9000000954,,2077233.008,8,400,,,
break_continue,html.Screen,4_60_2,2023-09-11T20:39:09.683Z,,0,,,NaN,,,,,,false,,,,2077214.4000000954,2077214.4000000954,,2077214.3000001907,,2077233.008,8,400,,,
sequence,flow.Sequence,4_60,2023-09-11T20:39:09.683Z,,0,,,3621.789000095334,completion,,,,,false,,,,2077214.5,2077214.4000000954,2073575.95,2073588.9000000954,2073592.611,2077233.008,8,400,,,
trial,html.Screen,4_61_0,2023-09-11T20:39:15.173Z,,0,2,,5470.492000000086,response,ISIC_0010094.JPG,5,ISIC_0033224.JPG,ISIC_0033224.JPG,false,0,keypress(z),500,2082703.5999999046,2082703.5,2077216.494,2077214.5,2077233.008,2082710.318,8,400,12,,ISIC_0010094.JPG
break,html.Screen,4_61_1,2023-09-11T20:39:15.173Z,,0,,,NaN,,,,,,false,,,,2082704.0999999046,2082704,,2082703.700000286,,2082710.318,8,400,,,
break_continue,html.Screen,4_61_2,2023-09-11T20:39:15.173Z,,0,,,NaN,,,,,,false,,,,2082704.3000001907,2082704.3000001907,,2082704.200000286,,2082710.318,8,400,,,
sequence,flow.Sequence,4_61,2023-09-11T20:39:15.173Z,,0,,,5471.2920001908205,completion,,,,,false,,,,2082704.4000000954,2082704.3000001907,2077216.494,2077214.5,2077233.008,2082710.318,8,400,,,
trial,html.Screen,4_62_0,2023-09-11T20:39:18.998Z,,0,2,,3819.0820000953972,response,ISIC_0068217.JPG,5,ISIC_4894802.JPG,ISIC_0068217.JPG,false,1,keypress(m),500,2086529.5999999046,2086529.4000000954,2082693.926,2082704.5,2082710.318,2086534.46,8,400,13,,ISIC_4894802.JPG
break,html.Screen,4_62_1,2023-09-11T20:39:18.999Z,,0,,,NaN,,,,,,false,,,,2086530,2086529.9000000954,,2086529.700000286,,2086534.46,8,400,,,
break_continue,html.Screen,4_62_2,2023-09-11T20:39:18.999Z,,0,,,NaN,,,,,,false,,,,2086530.200000286,2086530.200000286,,2086530.0999999046,,2086534.46,8,400,,,
sequence,flow.Sequence,4_62,2023-09-11T20:39:18.999Z,,0,,,3819.882000286132,completion,,,,,false,,,,2086530.3000001907,2086530.200000286,2082693.926,2082704.5,2082710.318,2086534.46,8,400,,,
trial,html.Screen,4_63_0,2023-09-11T20:39:24.715Z,,0,2,,5710.24000028614,response,ISIC_8101493.JPG,5,ISIC_0613014.JPG,ISIC_8101493.JPG,false,1,keypress(m),500,2092244.8000001907,2092244.700000286,2086517.738,2086530.4000000954,2086534.46,2092245.543,8,400,14,,ISIC_0613014.JPG
break,html.Screen,4_63_1,2023-09-11T20:39:24.715Z,,0,,,NaN,,,,,,false,,,,2092245.3000001907,2092245.200000286,,2092244.9000000954,,2092245.543,8,400,,,
break_continue,html.Screen,4_63_2,2023-09-11T20:39:24.715Z,,0,,,NaN,,,,,,false,,,,2092245.4000000954,2092245.4000000954,,2092245.3000001907,,2092245.543,8,400,,,
sequence,flow.Sequence,4_63,2023-09-11T20:39:24.715Z,,0,,,5710.940000095405,completion,,,,,false,,,,2092245.5,2092245.4000000954,2086517.738,2086530.4000000954,2086534.46,2092245.543,8,400,,,
trial,html.Screen,4_64_0,2023-09-11T20:39:27.571Z,,0,2,,2855.4569999999367,response,ISIC_1177505.JPG,4,ISIC_8615491.JPG,ISIC_1177505.JPG,false,1,keypress(m),500,2095101.0999999046,2095101,2092228.958,2092245.5,2092245.543,2095117.826,8,400,15,,ISIC_8615491.JPG
break,html.Screen,4_64_1,2023-09-11T20:39:27.572Z,,0,,,NaN,,,,,,false,,,,2095102,2095101.8000001907,,2095101.3000001907,,2095117.826,8,400,,,
break_continue,html.Screen,4_64_2,2023-09-11T20:39:27.572Z,,0,,,NaN,,,,,,false,,,,2095102.0999999046,2095102.0999999046,,2095102,,2095117.826,8,400,,,
sequence,flow.Sequence,4_64,2023-09-11T20:39:27.572Z,,0,,,2856.5569999045692,completion,,,,,false,,,,2095102.200000286,2095102.0999999046,2092228.958,2092245.5,2092245.543,2095117.826,8,400,,,
trial,html.Screen,4_65_0,2023-09-11T20:39:30.854Z,,0,2,,3266.074000095483,response,ISIC_1113265.JPG,6,ISIC_0061371.JPG,ISIC_0061371.JPG,false,0,keypress(z),500,2098384,2098383.9000000954,2095101.201,2095102.3000001907,2095117.826,2098390.861,8,400,16,,ISIC_1113265.JPG
break,html.Screen,4_65_1,2023-09-11T20:39:30.855Z,,0,,,NaN,,,,,,false,,,,2098384.700000286,2098384.5999999046,,2098384.200000286,,2098390.861,8,400,,,
break_continue,html.Screen,4_65_2,2023-09-11T20:39:30.855Z,,0,,,NaN,,,,,,false,,,,2098385,2098384.9000000954,,2098384.8000001907,,2098390.861,8,400,,,
sequence,flow.Sequence,4_65,2023-09-11T20:39:30.855Z,,0,,,3267.074000095483,completion,,,,,false,,,,2098385,2098384.9000000954,2095101.201,2095102.3000001907,2095117.826,2098390.861,8,400,,,
trial,html.Screen,4_66_0,2023-09-11T20:39:34.702Z,,0,2,,3841.3390002860688,response,ISIC_4190900.JPG,4,ISIC_9270367.JPG,ISIC_4190900.JPG,false,1,keypress(m),500,2102232.3000001907,2102232.200000286,2098374.279,2098385.0999999046,2098390.861,2102265.155,8,400,17,,ISIC_9270367.JPG
break,html.Screen,4_66_1,2023-09-11T20:39:34.703Z,,0,,,NaN,,,,,,false,,,,2102232.8000001907,2102232.5999999046,,2102232.5,,2102265.155,8,400,,,
break_continue,html.Screen,4_66_2,2023-09-11T20:39:34.703Z,,0,,,NaN,,,,,,false,,,,2102233,2102232.9000000954,,2102232.8000001907,,2102265.155,8,400,,,
sequence,flow.Sequence,4_66,2023-09-11T20:39:34.703Z,,0,,,3842.039000095334,completion,,,,,false,,,,2102233,2102232.9000000954,2098374.279,2098385.0999999046,2098390.861,2102265.155,8,400,,,
trial,html.Screen,4_67_0,2023-09-11T20:39:39.009Z,,0,2,,4273.345000000205,response,ISIC_3181358.JPG,5,ISIC_9295267.JPG,ISIC_9295267.JPG,false,0,keypress(z),500,2106538.5999999046,2106538.5,2102248.354,2102233,2102265.155,2106540.056,8,400,18,,ISIC_3181358.JPG
break,html.Screen,4_67_1,2023-09-11T20:39:39.009Z,,0,,,NaN,,,,,,false,,,,2106539,2106538.9000000954,,2106538.700000286,,2106540.056,8,400,,,
break_continue,html.Screen,4_67_2,2023-09-11T20:39:39.009Z,,0,,,NaN,,,,,,false,,,,2106539.200000286,2106539.0999999046,,2106539,,2106540.056,8,400,,,
sequence,flow.Sequence,4_67,2023-09-11T20:39:39.009Z,,0,,,4273.9449999048375,completion,,,,,false,,,,2106539.200000286,2106539.0999999046,2102248.354,2102233,2102265.155,2106540.056,8,400,,,
trial,html.Screen,4_68_0,2023-09-11T20:39:46.098Z,,0,2,,7088.244000190869,response,ISIC_0490714.JPG,5,ISIC_7130929.JPG,ISIC_7130929.JPG,false,0,keypress(z),500,2113628.4000000954,2113628.3000001907,2106523.326,2106539.3000001907,2106540.056,2113653.896,8,400,19,,ISIC_0490714.JPG
break,html.Screen,4_68_1,2023-09-11T20:39:46.099Z,,0,,,NaN,,,,,,false,,,,2113628.8000001907,2113628.8000001907,,2113628.5,,2113653.896,8,400,,,
break_continue,html.Screen,4_68_2,2023-09-11T20:39:46.099Z,,0,,,NaN,,,,,,false,,,,2113629.0999999046,2113628.9000000954,,2113628.9000000954,,2113653.896,8,400,,,
sequence,flow.Sequence,4_68,2023-09-11T20:39:46.099Z,,0,,,7088.8440000955015,completion,,,,,false,,,,2113629.200000286,2113628.9000000954,2106523.326,2106539.3000001907,2106540.056,2113653.896,8,400,,,
trial,html.Screen,4_69_0,2023-09-11T20:39:50.633Z,,0,2,,4509.404000190552,response,ISIC_0070412.JPG,5,ISIC_0001134.JPG,ISIC_0070412.JPG,false,1,keypress(m),500,2118163.4000000954,2118163.3000001907,2113637.167,2113629.200000286,2113653.896,2118179.383,8,400,20,,ISIC_0001134.JPG
break,html.Screen,4_69_1,2023-09-11T20:39:50.634Z,,0,,,NaN,,,,,,false,,,,2118164.0999999046,2118163.9000000954,,2118163.5999999046,,2118179.383,8,400,,,
break_continue,html.Screen,4_69_2,2023-09-11T20:39:50.634Z,,0,,,NaN,,,,,,false,,,,2118164.4000000954,2118164.4000000954,,2118164.200000286,,2118179.383,8,400,,,
sequence,flow.Sequence,4_69,2023-09-11T20:39:50.634Z,,0,,,4510.504000095185,completion,,,,,false,,,,2118164.5,2118164.4000000954,2113637.167,2113629.200000286,2113653.896,2118179.383,8,400,,,
trial,html.Screen,4_70_0,2023-09-11T20:39:57.986Z,,0,2,,7336.716999904718,response,ISIC_1450548.JPG,4,ISIC_8197240.JPG,ISIC_8197240.JPG,false,0,keypress(z),500,2125516.3000001907,2125516.0999999046,2118162.761,2118164.700000286,2118179.383,2125527.014,8,400,21,,ISIC_1450548.JPG
break,html.Screen,4_70_1,2023-09-11T20:39:57.987Z,,0,,,NaN,,,,,,false,,,,2125516.700000286,2125516.5999999046,,2125516.3000001907,,2125527.014,8,400,,,
break_continue,html.Screen,4_70_2,2023-09-11T20:39:57.987Z,,0,,,NaN,,,,,,false,,,,2125516.9000000954,2125516.9000000954,,2125516.700000286,,2125527.014,8,400,,,
sequence,flow.Sequence,4_70,2023-09-11T20:39:57.987Z,,0,,,7337.517000095453,completion,,,,,false,,,,2125516.9000000954,2125516.9000000954,2118162.761,2118164.700000286,2118179.383,2125527.014,8,400,,,
trial,html.Screen,4_71_0,2023-09-11T20:40:01.355Z,,0,2,,3357.4860000000335,response,ISIC_0056692.JPG,6,ISIC_7349440.JPG,ISIC_0056692.JPG,false,1,keypress(m),500,2128884.700000286,2128884.5,2125510.399,2125517,2125527.014,2128900.302,8,400,22,,ISIC_7349440.JPG
break,html.Screen,4_71_1,2023-09-11T20:40:01.355Z,,0,,,NaN,,,,,,false,,,,2128885.0999999046,2128885,,2128884.8000001907,,2128900.302,8,400,,,
break_continue,html.Screen,4_71_2,2023-09-11T20:40:01.355Z,,0,,,NaN,,,,,,false,,,,2128885.200000286,2128885.200000286,,2128885.200000286,,2128900.302,8,400,,,
sequence,flow.Sequence,4_71,2023-09-11T20:40:01.355Z,,0,,,3358.186000286136,completion,,,,,false,,,,2128885.4000000954,2128885.200000286,2125510.399,2125517,2125527.014,2128900.302,8,400,,,
trial,html.Screen,4_72_0,2023-09-11T20:40:06.254Z,,0,2,,4883.197999999858,response,ISIC_0029343.JPG,4,ISIC_0011403.JPG,ISIC_0011403.JPG,false,0,keypress(z),500,2133783.5999999046,2133783.5,2128883.63,2128885.5,2128900.302,2133809.792,8,400,23,,ISIC_0029343.JPG
break,html.Screen,4_72_1,2023-09-11T20:40:06.254Z,,0,,,NaN,,,,,,false,,,,2133784.200000286,2133784,,2133783.8000001907,,2133809.792,8,400,,,
break_continue,html.Screen,4_72_2,2023-09-11T20:40:06.254Z,,0,,,NaN,,,,,,false,,,,2133784.4000000954,2133784.3000001907,,2133784.200000286,,2133809.792,8,400,,,
sequence,flow.Sequence,4_72,2023-09-11T20:40:06.254Z,,0,,,4883.998000190593,completion,,,,,false,,,,2133784.4000000954,2133784.3000001907,2128883.63,2128885.4000000954,2128900.302,2133809.792,8,400,,,
trial,html.Screen,4_73_0,2023-09-11T20:40:11.349Z,,0,2,,5069.408000286203,response,ISIC_1476361.JPG,6,ISIC_4762702.JPG,ISIC_4762702.JPG,false,0,keypress(z),500,2138879.3000001907,2138879.200000286,2133793.142,2133784.5999999046,2133809.792,2138903.107,8,400,24,,ISIC_1476361.JPG
break,html.Screen,4_73_1,2023-09-11T20:40:11.350Z,,0,,,NaN,,,,,,false,,,,2138879.8000001907,2138879.700000286,,2138879.4000000954,,2138903.107,8,400,,,
break_continue,html.Screen,4_73_2,2023-09-11T20:40:11.350Z,,0,,,NaN,,,,,,false,,,,2138880,2138879.9000000954,,2138879.8000001907,,2138903.107,8,400,,,
sequence,flow.Sequence,4_73,2023-09-11T20:40:11.350Z,,0,,,5070.108000095468,completion,,,,,false,,,,2138880.0999999046,2138879.9000000954,2133793.142,2133784.5999999046,2133809.792,2138903.107,8,400,,,
trial,html.Screen,4_74_0,2023-09-11T20:40:15.959Z,,0,2,,4586.193000190891,response,ISIC_6401657.JPG,5,ISIC_0072252.JPG,ISIC_0072252.JPG,false,0,keypress(z),500,2143489.4000000954,2143489.3000001907,2138886.38,2138880.0999999046,2138903.107,2143495.265,8,400,25,,ISIC_6401657.JPG
break,html.Screen,4_74_1,2023-09-11T20:40:15.960Z,,0,,,NaN,,,,,,false,,,,2143489.8000001907,2143489.700000286,,2143489.5,,2143495.265,8,400,,,
break_continue,html.Screen,4_74_2,2023-09-11T20:40:15.960Z,,0,,,NaN,,,,,,false,,,,2143490,2143489.9000000954,,2143489.8000001907,,2143495.265,8,400,,,
sequence,flow.Sequence,4_74,2023-09-11T20:40:15.960Z,,0,,,4586.793000095524,completion,,,,,false,,,,2143490.0999999046,2143489.9000000954,2138886.38,2138880.0999999046,2138903.107,2143495.265,8,400,,,
trial,html.Screen,4_75_0,2023-09-11T20:40:22.478Z,,0,2,,6513.0350001906045,response,ISIC_0059892.JPG,6,ISIC_4842269.JPG,ISIC_0059892.JPG,false,1,keypress(m),500,2150008.5,2150008.3000001907,2143478.789,2143490.0999999046,2143495.265,2150024.738,8,400,26,,ISIC_4842269.JPG
break,html.Screen,4_75_1,2023-09-11T20:40:22.479Z,,0,,,NaN,,,,,,false,,,,2150009,2150008.8000001907,,2150008.700000286,,2150024.738,8,400,,,
break_continue,html.Screen,4_75_2,2023-09-11T20:40:22.479Z,,0,,,NaN,,,,,,false,,,,2150009.3000001907,2150009.200000286,,2150009.0999999046,,2150024.738,8,400,,,
sequence,flow.Sequence,4_75,2023-09-11T20:40:22.479Z,,0,,,6513.935000285972,completion,,,,,false,,,,2150009.4000000954,2150009.200000286,2143478.789,2143490.0999999046,2143495.265,2150024.738,8,400,,,
trial,html.Screen,4_76_0,2023-09-11T20:40:25.712Z,,0,2,,3217.7620000001043,response,ISIC_6317162.JPG,4,ISIC_0026150.JPG,ISIC_0026150.JPG,false,0,keypress(z),500,2153242.5999999046,2153242.5,2150008.092,2150009.4000000954,2150024.738,2153247.593,8,400,27,,ISIC_6317162.JPG
break,html.Screen,4_76_1,2023-09-11T20:40:25.713Z,,0,,,NaN,,,,,,false,,,,2153242.9000000954,2153242.9000000954,,2153242.5999999046,,2153247.593,8,400,,,
break_continue,html.Screen,4_76_2,2023-09-11T20:40:25.713Z,,0,,,NaN,,,,,,false,,,,2153243.200000286,2153243,,2153243,,2153247.593,8,400,,,
sequence,flow.Sequence,4_76,2023-09-11T20:40:25.713Z,,0,,,3218.2620000001043,completion,,,,,false,,,,2153243.200000286,2153243,2150008.092,2150009.4000000954,2150024.738,2153247.593,8,400,,,
trial,html.Screen,4_77_0,2023-09-11T20:40:30.986Z,,0,2,,5268.407000000123,response,ISIC_0218072.JPG,6,ISIC_0061734.JPG,ISIC_0061734.JPG,false,0,keypress(z),500,2158516.0999999046,2158516,2153230.941,2153243.200000286,2153247.593,2158524.537,8,400,28,,ISIC_0218072.JPG
break,html.Screen,4_77_1,2023-09-11T20:40:30.986Z,,0,,,NaN,,,,,,false,,,,2158516.5,2158516.3000001907,,2158516.0999999046,,2158524.537,8,400,,,
break_continue,html.Screen,4_77_2,2023-09-11T20:40:30.987Z,,0,,,NaN,,,,,,false,,,,2158516.700000286,2158516.5999999046,,2158516.5999999046,,2158524.537,8,400,,,
sequence,flow.Sequence,4_77,2023-09-11T20:40:30.987Z,,0,,,5269.0069999047555,completion,,,,,false,,,,2158516.8000001907,2158516.5999999046,2153230.941,2153243.200000286,2153247.593,2158524.537,8,400,,,
trial,html.Screen,4_78_0,2023-09-11T20:40:34.654Z,,0,2,,3659.163000286091,response,ISIC_6767038.JPG,5,ISIC_4580926.JPG,ISIC_6767038.JPG,false,1,keypress(m),500,2162183.8000001907,2162183.700000286,2158507.823,2158516.9000000954,2158524.537,2162198.502,8,400,29,,ISIC_4580926.JPG
break,html.Screen,4_78_1,2023-09-11T20:40:34.654Z,,0,,,NaN,,,,,,false,,,,2162184.5999999046,2162184.3000001907,,2162183.9000000954,,2162198.502,8,400,,,
break_continue,html.Screen,4_78_2,2023-09-11T20:40:34.655Z,,0,,,NaN,,,,,,false,,,,2162184.9000000954,2162184.8000001907,,2162184.700000286,,2162198.502,8,400,,,
sequence,flow.Sequence,4_78,2023-09-11T20:40:34.655Z,,0,,,3660.2630001907237,completion,,,,,false,,,,2162185.0999999046,2162184.8000001907,2158507.823,2158516.9000000954,2158524.537,2162198.502,8,400,,,
trial,html.Screen,4_79_0,2023-09-11T20:40:38.384Z,,0,2,,3715.998000000138,response,ISIC_0014049.JPG,5,ISIC_0065766.JPG,ISIC_0065766.JPG,false,0,keypress(z),500,2165914.5999999046,2165914.5,2162181.75,2162185.0999999046,2162198.502,2165922.245,8,400,30,,ISIC_0014049.JPG
break,html.Screen,4_79_1,2023-09-11T20:40:38.385Z,,0,,,NaN,,,,,,false,,,,2165914.9000000954,2165914.9000000954,,2165914.700000286,,2165922.245,8,400,,,
break_continue,html.Screen,4_79_2,2023-09-11T20:40:38.385Z,,0,,,NaN,,,,,,false,,,,2165915.0999999046,2165915.0999999046,,2165915,,2165922.245,8,400,,,
sequence,flow.Sequence,4_79,2023-09-11T20:40:38.385Z,,0,,,3716.5979999047704,completion,,,,,false,,,,2165915.200000286,2165915.0999999046,2162181.75,2162185.0999999046,2162198.502,2165922.245,8,400,,,
trial,html.Screen,4_80_0,2023-09-11T20:40:42.706Z,,0,2,,4313.854999904521,response,ISIC_0005769.JPG,5,ISIC_0011305.JPG,ISIC_0011305.JPG,false,0,keypress(z),500,2170236.200000286,2170236.0999999046,2165905.551,2165915.200000286,2165922.245,2170247.457,8,400,31,,ISIC_0005769.JPG
break,html.Screen,4_80_1,2023-09-11T20:40:42.707Z,,0,,,NaN,,,,,,false,,,,2170236.700000286,2170236.5999999046,,2170236.3000001907,,2170247.457,8,400,,,
break_continue,html.Screen,4_80_2,2023-09-11T20:40:42.707Z,,0,,,NaN,,,,,,false,,,,2170237,2170236.9000000954,,2170236.8000001907,,2170247.457,8,400,,,
sequence,flow.Sequence,4_80,2023-09-11T20:40:42.707Z,,0,,,4314.655000095256,completion,,,,,false,,,,2170237.0999999046,2170236.9000000954,2165905.551,2165915.200000286,2165922.245,2170247.457,8,400,,,
trial,html.Screen,4_81_0,2023-09-11T20:40:48.181Z,,0,2,,5463.343000190798,response,ISIC_0000143.JPG,5,ISIC_0071996.JPG,ISIC_0071996.JPG,false,0,keypress(z),500,2175710.9000000954,2175710.8000001907,2170230.79,2170237.0999999046,2170247.457,2175724.689,8,400,32,,ISIC_0000143.JPG
break,html.Screen,4_81_1,2023-09-11T20:40:48.181Z,,0,,,NaN,,,,,,false,,,,2175711.3000001907,2175711.200000286,,2175711,,2175724.689,8,400,,,
break_continue,html.Screen,4_81_2,2023-09-11T20:40:48.181Z,,0,,,NaN,,,,,,false,,,,2175711.5,2175711.5,,2175711.4000000954,,2175724.689,8,400,,,
sequence,flow.Sequence,4_81,2023-09-11T20:40:48.181Z,,0,,,5464.043000000063,completion,,,,,false,,,,2175711.5,2175711.5,2170230.79,2170237.0999999046,2170247.457,2175724.689,8,400,,,
trial,html.Screen,4_82_0,2023-09-11T20:40:55.182Z,,0,2,,6987.611000190955,response,ISIC_0029893.JPG,4,ISIC_7507286.JPG,ISIC_0029893.JPG,false,1,keypress(m),500,2182712.3000001907,2182712.3000001907,2175708.15,2175711.700000286,2175724.689,2182721.608,8,400,33,,ISIC_7507286.JPG
break,html.Screen,4_82_1,2023-09-11T20:40:55.183Z,,0,,,NaN,,,,,,false,,,,2182712.9000000954,2182712.8000001907,,2182712.5,,2182721.608,8,400,,,
break_continue,html.Screen,4_82_2,2023-09-11T20:40:55.183Z,,0,,,NaN,,,,,,false,,,,2182713.200000286,2182713.0999999046,,2182713,,2182721.608,8,400,,,
sequence,flow.Sequence,4_82,2023-09-11T20:40:55.183Z,,0,,,6988.410999904852,completion,,,,,false,,,,2182713.4000000954,2182713.0999999046,2175708.15,2175711.700000286,2175724.689,2182721.608,8,400,,,
trial,html.Screen,4_83_0,2023-09-11T20:40:59.426Z,,0,2,,4234.29200009536,response,ISIC_9291926.JPG,5,ISIC_0056784.JPG,ISIC_0056784.JPG,false,0,keypress(z),500,2186956,2186955.9000000954,2182704.94,2182713.4000000954,2182721.608,2186963.309,8,400,34,,ISIC_9291926.JPG
break,html.Screen,4_83_1,2023-09-11T20:40:59.426Z,,0,,,NaN,,,,,,false,,,,2186956.5,2186956.4000000954,,2186956.200000286,,2186963.309,8,400,,,
break_continue,html.Screen,4_83_2,2023-09-11T20:40:59.427Z,,0,,,NaN,,,,,,false,,,,2186956.5999999046,2186956.5999999046,,2186956.5,,2186963.309,8,400,,,
sequence,flow.Sequence,4_83,2023-09-11T20:40:59.427Z,,0,,,4234.991999904625,completion,,,,,false,,,,2186956.8000001907,2186956.5999999046,2182704.94,2182713.4000000954,2182721.608,2186963.309,8,400,,,
trial,html.Screen,4_84_0,2023-09-11T20:41:05.637Z,,0,2,,6203.290999904741,response,ISIC_4164882.JPG,5,ISIC_5055871.JPG,ISIC_4164882.JPG,false,1,keypress(m),500,2193166.8000001907,2193166.5999999046,2186946.613,2186956.8000001907,2186963.309,2193175.404,8,400,35,,ISIC_5055871.JPG
break,html.Screen,4_84_1,2023-09-11T20:41:05.637Z,,0,,,NaN,,,,,,false,,,,2193167.200000286,2193167.0999999046,,2193166.8000001907,,2193175.404,8,400,,,
break_continue,html.Screen,4_84_2,2023-09-11T20:41:05.637Z,,0,,,NaN,,,,,,false,,,,2193167.4000000954,2193167.3000001907,,2193167.200000286,,2193175.404,8,400,,,
sequence,flow.Sequence,4_84,2023-09-11T20:41:05.637Z,,0,,,6203.991000190843,completion,,,,,false,,,,2193167.5,2193167.3000001907,2186946.613,2186956.8000001907,2186963.309,2193175.404,8,400,,,
trial,html.Screen,4_85_0,2023-09-11T20:41:10.060Z,,0,2,,4414.296000286005,response,ISIC_0057328.JPG,5,ISIC_0030089.JPG,ISIC_0057328.JPG,false,1,keypress(m),500,2197589.8000001907,2197589.700000286,2193158.769,2193167.5999999046,2193175.404,2197600.624,8,400,36,,ISIC_0030089.JPG
break,html.Screen,4_85_1,2023-09-11T20:41:10.060Z,,0,,,NaN,,,,,,false,,,,2197590.200000286,2197590.200000286,,2197589.9000000954,,2197600.624,8,400,,,
break_continue,html.Screen,4_85_2,2023-09-11T20:41:10.060Z,,0,,,NaN,,,,,,false,,,,2197590.4000000954,2197590.4000000954,,2197590.200000286,,2197600.624,8,400,,,
sequence,flow.Sequence,4_85,2023-09-11T20:41:10.060Z,,0,,,4414.996000095271,completion,,,,,false,,,,2197590.4000000954,2197590.4000000954,2193158.769,2193167.5,2193175.404,2197600.624,8,400,,,
trial,html.Screen,4_86_0,2023-09-11T20:41:13.936Z,,0,2,,3865.676000190899,response,ISIC_0013817.JPG,4,ISIC_0029718.JPG,ISIC_0013817.JPG,false,1,keypress(m),500,2201466.4000000954,2201466.3000001907,2197583.926,2197590.5,2197600.624,2201474.817,8,400,37,,ISIC_0029718.JPG
break,html.Screen,4_86_1,2023-09-11T20:41:13.937Z,,0,,,NaN,,,,,,false,,,,2201467.3000001907,2201467.0999999046,,2201466.700000286,,2201474.817,8,400,,,
break_continue,html.Screen,4_86_2,2023-09-11T20:41:13.938Z,,0,,,NaN,,,,,,false,,,,2201467.8000001907,2201467.5999999046,,2201467.5,,2201474.817,8,400,,,
sequence,flow.Sequence,4_86,2023-09-11T20:41:13.938Z,,0,,,3866.9759999047965,completion,,,,,false,,,,2201467.9000000954,2201467.5999999046,2197583.926,2197590.5,2197600.624,2201474.817,8,400,,,
trial,html.Screen,4_87_0,2023-09-11T20:41:21.315Z,,0,2,,7370.583000095561,response,ISIC_0054792.JPG,5,ISIC_3251773.JPG,ISIC_0054792.JPG,false,1,keypress(m),500,2208845.5999999046,2208845.4000000954,2201458.228,2201467.9000000954,2201474.817,2208855.798,8,400,38,,ISIC_3251773.JPG
break,html.Screen,4_87_1,2023-09-11T20:41:21.316Z,,0,,,NaN,,,,,,false,,,,2208846.200000286,2208846.0999999046,,2208845.700000286,,2208855.798,8,400,,,
break_continue,html.Screen,4_87_2,2023-09-11T20:41:21.317Z,,0,,,NaN,,,,,,false,,,,2208846.5999999046,2208846.5,,2208846.3000001907,,2208855.798,8,400,,,
sequence,flow.Sequence,4_87,2023-09-11T20:41:21.317Z,,0,,,7371.683000000194,completion,,,,,false,,,,2208846.8000001907,2208846.5,2201458.228,2201467.9000000954,2201474.817,2208855.798,8,400,,,
trial,html.Screen,4_88_0,2023-09-11T20:41:25.770Z,,0,2,,4443.102000095416,response,ISIC_0063258.JPG,7,ISIC_9011718.JPG,ISIC_0063258.JPG,false,1,keypress(m),500,2213299.200000286,2213298.9000000954,2208839.128,2208847,2208855.798,2213314.514,8,400,39,,ISIC_9011718.JPG
break,html.Screen,4_88_1,2023-09-11T20:41:25.771Z,,0,,,NaN,,,,,,false,,,,2213299.9000000954,2213299.700000286,,2213299.3000001907,,2213314.514,8,400,,,
break_continue,html.Screen,4_88_2,2023-09-11T20:41:25.771Z,,0,,,NaN,,,,,,false,,,,2213300,2213300,,2213299.9000000954,,2213314.514,8,400,,,
sequence,flow.Sequence,4_88,2023-09-11T20:41:25.771Z,,0,,,4444.202000000048,completion,,,,,false,,,,2213300.0999999046,2213300,2208839.128,2208846.9000000954,2208855.798,2213314.514,8,400,,,
trial,html.Screen,4_89_0,2023-09-11T20:41:31.437Z,,0,2,,5651.386000095401,response,ISIC_0032716.JPG,5,ISIC_5611010.JPG,ISIC_0032716.JPG,false,1,keypress(m),500,2218966.0999999046,2218965.9000000954,2213297.856,2213300.200000286,2213314.514,2218975.596,8,400,40,,ISIC_5611010.JPG
break,html.Screen,4_89_1,2023-09-11T20:41:31.438Z,,0,,,NaN,,,,,,false,,,,2218966.4000000954,2218966.3000001907,,2218966.0999999046,,2218975.596,8,400,,,
break_continue,html.Screen,4_89_2,2023-09-11T20:41:31.438Z,,0,,,NaN,,,,,,false,,,,2218966.700000286,2218966.5999999046,,2218966.5,,2218975.596,8,400,,,
sequence,flow.Sequence,4_89,2023-09-11T20:41:31.438Z,,0,,,5652.085999904666,completion,,,,,false,,,,2218966.700000286,2218966.5999999046,2213297.856,2213300.0999999046,2213314.514,2218975.596,8,400,,,
trial,html.Screen,4_90_0,2023-09-11T20:41:35.951Z,,0,2,,4504.404000000097,response,ISIC_0046422.JPG,5,ISIC_7532154.JPG,ISIC_0046422.JPG,false,1,keypress(m),500,2223480.0999999046,2223480,2218958.89,2218966.700000286,2218975.596,2223484.33,8,400,41,,ISIC_7532154.JPG
break,html.Screen,4_90_1,2023-09-11T20:41:35.952Z,,0,,,NaN,,,,,,false,,,,2223480.4000000954,2223480.4000000954,,2223480.200000286,,2223484.33,8,400,,,
break_continue,html.Screen,4_90_2,2023-09-11T20:41:35.952Z,,0,,,NaN,,,,,,false,,,,2223480.5999999046,2223480.5999999046,,2223480.5999999046,,2223484.33,8,400,,,
sequence,flow.Sequence,4_90,2023-09-11T20:41:35.952Z,,0,,,4505.003999904729,completion,,,,,false,,,,2223480.700000286,2223480.5999999046,2218958.89,2218966.700000286,2218975.596,2223484.33,8,400,,,
trial,html.Screen,4_91_0,2023-09-11T20:41:41.025Z,,0,2,,5069.269999904558,response,ISIC_3249783.JPG,5,ISIC_4765919.JPG,ISIC_4765919.JPG,false,0,keypress(z),500,2228553.700000286,2228553.5999999046,2223467.601,2223480.8000001907,2223484.33,2228560.902,8,400,42,,ISIC_3249783.JPG
break,html.Screen,4_91_1,2023-09-11T20:41:41.026Z,,0,,,NaN,,,,,,false,,,,2228554.4000000954,2228554.3000001907,,2228553.9000000954,,2228560.902,8,400,,,
break_continue,html.Screen,4_91_2,2023-09-11T20:41:41.026Z,,0,,,NaN,,,,,,false,,,,2228554.8000001907,2228554.5999999046,,2228554.5999999046,,2228560.902,8,400,,,
sequence,flow.Sequence,4_91,2023-09-11T20:41:41.026Z,,0,,,5070.269999904558,completion,,,,,false,,,,2228554.9000000954,2228554.5999999046,2223467.601,2223480.8000001907,2223484.33,2228560.902,8,400,,,
trial,html.Screen,4_92_0,2023-09-11T20:41:45.973Z,,0,2,,4940.598000000231,response,ISIC_1202976.JPG,5,ISIC_0351547.JPG,ISIC_0351547.JPG,false,0,keypress(z),500,2233501.700000286,2233501.5,2228544.142,2228555,2228560.902,2233503.801,8,400,43,,ISIC_1202976.JPG
break,html.Screen,4_92_1,2023-09-11T20:41:45.974Z,,0,,,NaN,,,,,,false,,,,2233502.700000286,2233502.4000000954,,2233501.9000000954,,2233503.801,8,400,,,
break_continue,html.Screen,4_92_2,2023-09-11T20:41:45.974Z,,0,,,NaN,,,,,,false,,,,2233503,2233502.9000000954,,2233502.8000001907,,2233503.801,8,400,,,
sequence,flow.Sequence,4_92,2023-09-11T20:41:45.974Z,,0,,,4941.998000095598,completion,,,,,false,,,,2233503.200000286,2233502.9000000954,2228544.142,2228554.9000000954,2228560.902,2233503.801,8,400,,,
trial,html.Screen,4_93_0,2023-09-11T20:41:50.344Z,,0,2,,4368.798999904655,response,ISIC_0005304.JPG,6,ISIC_3868662.JPG,ISIC_3868662.JPG,false,0,keypress(z),500,2237872.8000001907,2237872.5999999046,2233487.261,2233503.3000001907,2233503.801,2237878.976,8,400,44,,ISIC_0005304.JPG
break,html.Screen,4_93_1,2023-09-11T20:41:50.345Z,,0,,,NaN,,,,,,false,,,,2237873.4000000954,2237873.200000286,,2237872.9000000954,,2237878.976,8,400,,,
break_continue,html.Screen,4_93_2,2023-09-11T20:41:50.345Z,,0,,,NaN,,,,,,false,,,,2237873.5,2237873.5,,2237873.4000000954,,2237878.976,8,400,,,
sequence,flow.Sequence,4_93,2023-09-11T20:41:50.345Z,,0,,,4369.699000000022,completion,,,,,false,,,,2237873.5999999046,2237873.5,2233487.261,2233503.200000286,2233503.801,2237878.976,8,400,,,
trial,html.Screen,4_94_0,2023-09-11T20:41:55.914Z,,0,2,,5564.024000000209,response,ISIC_4780727.JPG,5,ISIC_9745038.JPG,ISIC_9745038.JPG,false,0,keypress(z),500,2243443.0999999046,2243443,2237862.362,2237873.700000286,2237878.976,2243473.282,8,400,45,,ISIC_4780727.JPG
break,html.Screen,4_94_1,2023-09-11T20:41:55.915Z,,0,,,NaN,,,,,,false,,,,2243443.5,2243443.4000000954,,2243443.200000286,,2243473.282,8,400,,,
break_continue,html.Screen,4_94_2,2023-09-11T20:41:55.915Z,,0,,,NaN,,,,,,false,,,,2243443.5999999046,2243443.5999999046,,2243443.5,,2243473.282,8,400,,,
sequence,flow.Sequence,4_94,2023-09-11T20:41:55.915Z,,0,,,5564.623999904841,completion,,,,,false,,,,2243443.700000286,2243443.5999999046,2237862.362,2237873.700000286,2237878.976,2243473.282,8,400,,,
trial,html.Screen,4_95_0,2023-09-11T20:41:59.757Z,,0,2,,3812.6180000952445,response,ISIC_0013651.JPG,5,ISIC_0027274.JPG,ISIC_0013651.JPG,false,1,keypress(m),500,2247285.9000000954,2247285.9000000954,2243456.674,2243443.8000001907,2243473.282,2247313.997,8,400,46,,ISIC_0027274.JPG
break,html.Screen,4_95_1,2023-09-11T20:41:59.758Z,,0,,,NaN,,,,,,false,,,,2247286.4000000954,2247286.3000001907,,2247286.0999999046,,2247313.997,8,400,,,
break_continue,html.Screen,4_95_2,2023-09-11T20:41:59.758Z,,0,,,NaN,,,,,,false,,,,2247286.5999999046,2247286.4000000954,,2247286.4000000954,,2247313.997,8,400,,,
sequence,flow.Sequence,4_95,2023-09-11T20:41:59.758Z,,0,,,3813.1180000952445,completion,,,,,false,,,,2247286.5999999046,2247286.4000000954,2243456.674,2243443.700000286,2243473.282,2247313.997,8,400,,,
trial,html.Screen,4_96_0,2023-09-11T20:42:05.346Z,,0,2,,5560.803000190761,response,ISIC_0002745.JPG,5,ISIC_4679971.JPG,ISIC_0002745.JPG,false,1,keypress(m),500,2252874.9000000954,2252874.8000001907,2247297.464,2247286.5999999046,2247313.997,2252891.597,8,400,47,,ISIC_4679971.JPG
break,html.Screen,4_96_1,2023-09-11T20:42:05.347Z,,0,,,NaN,,,,,,false,,,,2252875.5,2252875.3000001907,,2252875.0999999046,,2252891.597,8,400,,,
break_continue,html.Screen,4_96_2,2023-09-11T20:42:05.347Z,,0,,,NaN,,,,,,false,,,,2252875.5999999046,2252875.5999999046,,2252875.5,,2252891.597,8,400,,,
sequence,flow.Sequence,4_96,2023-09-11T20:42:05.347Z,,0,,,5561.602999904659,completion,,,,,false,,,,2252875.8000001907,2252875.5999999046,2247297.464,2247286.5999999046,2247313.997,2252891.597,8,400,,,
trial,html.Screen,4_97_0,2023-09-11T20:42:10.133Z,,0,2,,4769.5029999045655,response,ISIC_8714502.JPG,4,ISIC_0026302.JPG,ISIC_0026302.JPG,false,0,keypress(z),500,2257661.200000286,2257661.0999999046,2252874.907,2252875.8000001907,2252891.597,2257667.635,8,400,48,,ISIC_8714502.JPG
break,html.Screen,4_97_1,2023-09-11T20:42:10.133Z,,0,,,NaN,,,,,,false,,,,2257662,2257661.700000286,,2257661.3000001907,,2257667.635,8,400,,,
break_continue,html.Screen,4_97_2,2023-09-11T20:42:10.134Z,,0,,,NaN,,,,,,false,,,,2257662.3000001907,2257662.200000286,,2257662,,2257667.635,8,400,,,
sequence,flow.Sequence,4_97,2023-09-11T20:42:10.134Z,,0,,,4770.603000286035,completion,,,,,false,,,,2257662.3000001907,2257662.200000286,2252874.907,2252875.8000001907,2252891.597,2257667.635,8,400,,,
trial,html.Screen,4_98_0,2023-09-11T20:42:15.708Z,,0,2,,5569.3650000002235,response,ISIC_0026344.JPG,5,ISIC_7302456.JPG,ISIC_7302456.JPG,false,0,keypress(z),500,2263237.0999999046,2263237,2257650.741,2257662.4000000954,2257667.635,2263244.978,8,400,49,,ISIC_0026344.JPG
break,html.Screen,4_98_1,2023-09-11T20:42:15.709Z,,0,,,NaN,,,,,,false,,,,2263237.5999999046,2263237.5,,2263237.200000286,,2263244.978,8,400,,,
break_continue,html.Screen,4_98_2,2023-09-11T20:42:15.709Z,,0,,,NaN,,,,,,false,,,,2263238,2263237.9000000954,,2263237.700000286,,2263244.978,8,400,,,
sequence,flow.Sequence,4_98,2023-09-11T20:42:15.709Z,,0,,,5570.265000095591,completion,,,,,false,,,,2263238,2263237.9000000954,2257650.741,2257662.4000000954,2257667.635,2263244.978,8,400,,,
trial,html.Screen,4_99_0,2023-09-11T20:42:21.857Z,,0,2,,6139.722000285983,response,ISIC_1566215.JPG,4,ISIC_3239813.JPG,ISIC_1566215.JPG,false,1,keypress(m),500,2269384.8000001907,2269384.700000286,2263228.286,2263238.0999999046,2263244.978,2269390.286,8,400,50,,ISIC_3239813.JPG
break,html.Screen,4_99_1,2023-09-11T20:42:31.849Z,,0,,,10002.915000000037,timeout,,,,,false,,,,2279377.3000001907,2279376.538,2269373.69,2269384.9000000954,2269390.286,2279393.201,8,400,,,
break_continue,html.Screen,4_99_2,2023-09-11T20:45:44.837Z,,0,,,192953.59900019085,response,,,,,false,continue,keypress(Space),,2472362.9000000954,2472346.8000001907,2279376.538,2279377.5,2279393.201,2472368.637,8,400,,,
sequence,flow.Sequence,4_99,2023-09-11T20:45:44.837Z,,0,,,209101.82200019062,completion,,,,,false,,,,2472363.0999999046,2472346.8000001907,2263228.286,2263238.0999999046,2263244.978,2472368.637,8,400,,,
trial,html.Screen,4_100_0,2023-09-11T20:45:51.240Z,,0,3,,6397.163000190631,response,ISIC_0059905.JPG,6,ISIC_0001139.JPG,ISIC_0059905.JPG,false,1,keypress(m),500,2478765.8000001907,2478765.8000001907,2472351.933,2472363.0999999046,2472368.637,2478781.244,8,400,1,,ISIC_0001139.JPG
break,html.Screen,4_100_1,2023-09-11T20:45:51.240Z,,0,,,NaN,,,,,,false,,,,2478766.4000000954,2478766.200000286,,2478766,,2478781.244,8,400,,,
break_continue,html.Screen,4_100_2,2023-09-11T20:45:51.240Z,,0,,,NaN,,,,,,false,,,,2478766.700000286,2478766.5999999046,,2478766.5,,2478781.244,8,400,,,
sequence,flow.Sequence,4_100,2023-09-11T20:45:51.240Z,,0,,,6397.962999904528,completion,,,,,false,,,,2478766.8000001907,2478766.5999999046,2472351.933,2472363.0999999046,2472368.637,2478781.244,8,400,,,
trial,html.Screen,4_101_0,2023-09-11T20:45:55.834Z,,0,3,,4579.056000190787,response,ISIC_0027956.JPG,4,ISIC_4438786.JPG,ISIC_0027956.JPG,false,1,keypress(m),500,2483360.4000000954,2483360.3000001907,2478764.501,2478766.9000000954,2478781.244,2483373.452,8,400,2,,ISIC_4438786.JPG
break,html.Screen,4_101_1,2023-09-11T20:45:55.834Z,,0,,,NaN,,,,,,false,,,,2483360.8000001907,2483360.5999999046,,2483360.5,,2483373.452,8,400,,,
break_continue,html.Screen,4_101_2,2023-09-11T20:45:55.835Z,,0,,,NaN,,,,,,false,,,,2483360.9000000954,2483360.8000001907,,2483360.8000001907,,2483373.452,8,400,,,
sequence,flow.Sequence,4_101,2023-09-11T20:45:55.835Z,,0,,,4579.556000190787,completion,,,,,false,,,,2483361,2483360.8000001907,2478764.501,2478766.8000001907,2478781.244,2483373.452,8,400,,,
trial,html.Screen,4_102_0,2023-09-11T20:46:01.796Z,,0,3,,5948.348000190686,response,ISIC_1668831.JPG,5,ISIC_0027280.JPG,ISIC_1668831.JPG,false,1,keypress(m),500,2489322.200000286,2489321.8000001907,2483356.747,2483361,2483373.452,2489335.082,8,400,3,,ISIC_0027280.JPG
break,html.Screen,4_102_1,2023-09-11T20:46:01.798Z,,0,,,NaN,,,,,,false,,,,2489323.9000000954,2489323.4000000954,,2489322.9000000954,,2489335.082,8,400,,,
break_continue,html.Screen,4_102_2,2023-09-11T20:46:01.798Z,,0,,,NaN,,,,,,false,,,,2489324.5,2489324.3000001907,,2489324.0999999046,,2489335.082,8,400,,,
sequence,flow.Sequence,4_102,2023-09-11T20:46:01.798Z,,0,,,5950.848000190686,completion,,,,,false,,,,2489324.8000001907,2489324.3000001907,2483356.747,2483361,2483373.452,2489335.082,8,400,,,
trial,html.Screen,4_103_0,2023-09-11T20:46:06.511Z,,0,3,,4701.618000286166,response,ISIC_0061647.JPG,5,ISIC_0068166.JPG,ISIC_0061647.JPG,false,1,keypress(m),500,2494036.9000000954,2494036.700000286,2489318.324,2489325,2489335.082,2494044.19,8,400,4,,ISIC_0068166.JPG
break,html.Screen,4_103_1,2023-09-11T20:46:06.511Z,,0,,,NaN,,,,,,false,,,,2494037.9000000954,2494037.5,,2494037.0999999046,,2494044.19,8,400,,,
break_continue,html.Screen,4_103_2,2023-09-11T20:46:06.512Z,,0,,,NaN,,,,,,false,,,,2494038.200000286,2494038.0999999046,,2494038,,2494044.19,8,400,,,
sequence,flow.Sequence,4_103,2023-09-11T20:46:06.512Z,,0,,,4703.017999904696,completion,,,,,false,,,,2494038.3000001907,2494038.0999999046,2489318.324,2489324.9000000954,2489335.082,2494044.19,8,400,,,
trial,html.Screen,4_104_0,2023-09-11T20:46:12.244Z,,0,3,,5726.210000095423,response,ISIC_0027252.JPG,4,ISIC_4359258.JPG,ISIC_0027252.JPG,false,1,keypress(m),500,2499770.700000286,2499770.4000000954,2494027.548,2494038.4000000954,2494044.19,2499771.995,8,400,5,,ISIC_4359258.JPG
break,html.Screen,4_104_1,2023-09-11T20:46:12.247Z,,0,,,NaN,,,,,,false,,,,2499772.9000000954,2499771.8000001907,,2499771.200000286,,2499771.995,8,400,,,
break_continue,html.Screen,4_104_2,2023-09-11T20:46:12.248Z,,0,,,NaN,,,,,,false,,,,2499774.5,2499774,,2499773.3000001907,,2499771.995,8,400,,,
sequence,flow.Sequence,4_104,2023-09-11T20:46:12.249Z,,0,,,5729.810000000056,completion,,,,,false,,,,2499774.9000000954,2499774,2494027.548,2494038.4000000954,2494044.19,2499771.995,8,400,,,
trial,html.Screen,4_105_0,2023-09-11T20:46:16.385Z,,0,3,,4139.604999904521,response,ISIC_4538661.JPG,5,ISIC_5795486.JPG,ISIC_5795486.JPG,false,0,keypress(z),500,2503911.8000001907,2503911.5999999046,2499755.417,2499775.4000000954,2499771.995,2503930.049,8,400,6,,ISIC_4538661.JPG
break,html.Screen,4_105_1,2023-09-11T20:46:16.386Z,,0,,,NaN,,,,,,false,,,,2503912.3000001907,2503912.200000286,,2503911.9000000954,,2503930.049,8,400,,,
break_continue,html.Screen,4_105_2,2023-09-11T20:46:16.386Z,,0,,,NaN,,,,,,false,,,,2503912.4000000954,2503912.4000000954,,2503912.3000001907,,2503930.049,8,400,,,
sequence,flow.Sequence,4_105,2023-09-11T20:46:16.386Z,,0,,,4140.405000095256,completion,,,,,false,,,,2503912.5,2503912.4000000954,2499755.417,2499775.3000001907,2499771.995,2503930.049,8,400,,,
trial,html.Screen,4_106_0,2023-09-11T20:46:20.663Z,,0,3,,4259.151000285987,response,ISIC_4564163.JPG,5,ISIC_0011857.JPG,ISIC_0011857.JPG,false,0,keypress(z),500,2508189.3000001907,2508189.200000286,2503913.388,2503912.5,2503930.049,2508205.015,8,400,7,,ISIC_4564163.JPG
break,html.Screen,4_106_1,2023-09-11T20:46:20.663Z,,0,,,NaN,,,,,,false,,,,2508189.8000001907,2508189.700000286,,2508189.4000000954,,2508205.015,8,400,,,
break_continue,html.Screen,4_106_2,2023-09-11T20:46:20.664Z,,0,,,NaN,,,,,,false,,,,2508190,2508189.9000000954,,2508189.8000001907,,2508205.015,8,400,,,
sequence,flow.Sequence,4_106,2023-09-11T20:46:20.664Z,,0,,,4259.851000095252,completion,,,,,false,,,,2508190,2508189.9000000954,2503913.388,2503912.5,2503930.049,2508205.015,8,400,,,
trial,html.Screen,4_107_0,2023-09-11T20:46:26.281Z,,0,3,,5601.98499999987,response,ISIC_2922104.JPG,6,ISIC_7319169.JPG,ISIC_2922104.JPG,false,1,keypress(m),500,2513807.0999999046,2513807,2508188.356,2508190.0999999046,2508205.015,2513832.723,8,400,8,,ISIC_7319169.JPG
break,html.Screen,4_107_1,2023-09-11T20:46:26.281Z,,0,,,NaN,,,,,,false,,,,2513807.5,2513807.5,,2513807.3000001907,,2513832.723,8,400,,,
break_continue,html.Screen,4_107_2,2023-09-11T20:46:26.281Z,,0,,,NaN,,,,,,false,,,,2513807.700000286,2513807.5999999046,,2513807.5999999046,,2513832.723,8,400,,,
sequence,flow.Sequence,4_107,2023-09-11T20:46:26.281Z,,0,,,5602.584999904502,completion,,,,,false,,,,2513807.8000001907,2513807.5999999046,2508188.356,2508190,2508205.015,2513832.723,8,400,,,
trial,html.Screen,4_108_0,2023-09-11T20:46:30.619Z,,0,3,,4312.977000285871,response,ISIC_4981135.JPG,5,ISIC_4129376.JPG,ISIC_4129376.JPG,false,0,keypress(z),500,2518145.700000286,2518145.700000286,2513815.984,2513807.9000000954,2513832.723,2518174.39,8,400,9,,ISIC_4981135.JPG
break,html.Screen,4_108_1,2023-09-11T20:46:30.620Z,,0,,,NaN,,,,,,false,,,,2518146.0999999046,2518146,,2518145.9000000954,,2518174.39,8,400,,,
break_continue,html.Screen,4_108_2,2023-09-11T20:46:30.620Z,,0,,,NaN,,,,,,false,,,,2518146.3000001907,2518146.200000286,,2518146.200000286,,2518174.39,8,400,,,
sequence,flow.Sequence,4_108,2023-09-11T20:46:30.620Z,,0,,,4313.477000285871,completion,,,,,false,,,,2518146.4000000954,2518146.200000286,2513815.984,2513807.8000001907,2513832.723,2518174.39,8,400,,,
trial,html.Screen,4_109_0,2023-09-11T20:46:37.694Z,,0,3,,7045.4100001906045,response,ISIC_0059625.JPG,4,ISIC_2743014.JPG,ISIC_0059625.JPG,false,1,keypress(m),500,2525220,2525219.8000001907,2518157.741,2518146.4000000954,2518174.39,2525221.501,8,400,10,,ISIC_2743014.JPG
break,html.Screen,4_109_1,2023-09-11T20:46:37.694Z,,0,,,NaN,,,,,,false,,,,2525220.5,2525220.3000001907,,2525220.0999999046,,2525221.501,8,400,,,
break_continue,html.Screen,4_109_2,2023-09-11T20:46:37.694Z,,0,,,NaN,,,,,,false,,,,2525220.8000001907,2525220.700000286,,2525220.5,,2525221.501,8,400,,,
sequence,flow.Sequence,4_109,2023-09-11T20:46:37.695Z,,0,,,7046.310000285972,completion,,,,,false,,,,2525220.9000000954,2525220.700000286,2518157.741,2518146.4000000954,2518174.39,2525221.501,8,400,,,
trial,html.Screen,4_110_0,2023-09-11T20:46:43.553Z,,0,3,,5857.799000190571,response,ISIC_8173531.JPG,5,ISIC_0015241.JPG,ISIC_8173531.JPG,false,1,keypress(m),500,2531079.4000000954,2531079.3000001907,2525204.776,2525220.9000000954,2525221.501,2531082.87,8,400,11,,ISIC_0015241.JPG
break,html.Screen,4_110_1,2023-09-11T20:46:43.554Z,,0,,,NaN,,,,,,false,,,,2531079.8000001907,2531079.700000286,,2531079.5,,2531082.87,8,400,,,
break_continue,html.Screen,4_110_2,2023-09-11T20:46:43.554Z,,0,,,NaN,,,,,,false,,,,2531080.0999999046,2531080,,2531080,,2531082.87,8,400,,,
sequence,flow.Sequence,4_110,2023-09-11T20:46:43.554Z,,0,,,5858.498999999836,completion,,,,,false,,,,2531080.200000286,2531080,2525204.776,2525220.9000000954,2525221.501,2531082.87,8,400,,,
trial,html.Screen,4_111_0,2023-09-11T20:46:49.108Z,,0,3,,5550.629999999888,response,ISIC_6317162.JPG,6,ISIC_0523125.JPG,ISIC_6317162.JPG,false,1,keypress(m),500,2536633.5999999046,2536633.5,2531066.232,2531080.200000286,2531082.87,2536643.817,8,400,12,,ISIC_0523125.JPG
break,html.Screen,4_111_1,2023-09-11T20:46:49.109Z,,0,,,NaN,,,,,,false,,,,2536634.0999999046,2536634,,2536633.700000286,,2536643.817,8,400,,,
break_continue,html.Screen,4_111_2,2023-09-11T20:46:49.109Z,,0,,,NaN,,,,,,false,,,,2536634.3000001907,2536634.3000001907,,2536634.0999999046,,2536643.817,8,400,,,
sequence,flow.Sequence,4_111,2023-09-11T20:46:49.109Z,,0,,,5551.430000190623,completion,,,,,false,,,,2536634.4000000954,2536634.3000001907,2531066.232,2531080.200000286,2531082.87,2536643.817,8,400,,,
trial,html.Screen,4_112_0,2023-09-11T20:46:56.408Z,,0,3,,7289.483000190929,response,ISIC_4701900.JPG,5,ISIC_6913272.JPG,ISIC_6913272.JPG,false,0,keypress(z),500,2543933.5999999046,2543933.3000001907,2536627.079,2536634.4000000954,2536643.817,2543941.252,8,400,13,,ISIC_4701900.JPG
break,html.Screen,4_112_1,2023-09-11T20:46:56.410Z,,0,,,NaN,,,,,,false,,,,2543934.9000000954,2543934.5,,2543934,,2543941.252,8,400,,,
break_continue,html.Screen,4_112_2,2023-09-11T20:46:56.410Z,,0,,,NaN,,,,,,false,,,,2543935.700000286,2543935.4000000954,,2543935.0999999046,,2543941.252,8,400,,,
sequence,flow.Sequence,4_112,2023-09-11T20:46:56.411Z,,0,,,7291.583000095561,completion,,,,,false,,,,2543935.9000000954,2543935.4000000954,2536627.079,2536634.4000000954,2536643.817,2543941.252,8,400,,,
trial,html.Screen,4_113_0,2023-09-11T20:47:00.030Z,,0,3,,3613.748000000138,response,ISIC_4393521.JPG,5,ISIC_7844825.JPG,ISIC_7844825.JPG,false,0,keypress(z),500,2547555.200000286,2547555,2543924.727,2543936.200000286,2543941.252,2547564.934,8,400,14,,ISIC_4393521.JPG
break,html.Screen,4_113_1,2023-09-11T20:47:00.030Z,,0,,,NaN,,,,,,false,,,,2547555.5999999046,2547555.4000000954,,2547555.200000286,,2547564.934,8,400,,,
break_continue,html.Screen,4_113_2,2023-09-11T20:47:00.031Z,,0,,,NaN,,,,,,false,,,,2547555.700000286,2547555.700000286,,2547555.5999999046,,2547564.934,8,400,,,
sequence,flow.Sequence,4_113,2023-09-11T20:47:00.031Z,,0,,,3614.44800028624,completion,,,,,false,,,,2547555.700000286,2547555.700000286,2543924.727,2543936.0999999046,2543941.252,2547564.934,8,400,,,
trial,html.Screen,4_114_0,2023-09-11T20:47:04.755Z,,0,3,,4715.165999904741,response,ISIC_0068100.JPG,5,ISIC_8699453.JPG,ISIC_0068100.JPG,false,1,keypress(m),500,2552280.200000286,2552280.0999999046,2547548.338,2547555.9000000954,2547564.934,2552290.833,8,400,15,,ISIC_8699453.JPG
break,html.Screen,4_114_1,2023-09-11T20:47:04.756Z,,0,,,NaN,,,,,,false,,,,2552281,2552280.700000286,,2552280.3000001907,,2552290.833,8,400,,,
break_continue,html.Screen,4_114_2,2023-09-11T20:47:04.756Z,,0,,,NaN,,,,,,false,,,,2552281.3000001907,2552281.3000001907,,2552281.200000286,,2552290.833,8,400,,,
sequence,flow.Sequence,4_114,2023-09-11T20:47:04.756Z,,0,,,4716.366000190843,completion,,,,,false,,,,2552281.4000000954,2552281.3000001907,2547548.338,2547555.8000001907,2547564.934,2552290.833,8,400,,,
trial,html.Screen,4_115_0,2023-09-11T20:47:09.934Z,,0,3,,5168.166999999899,response,ISIC_0025343.JPG,4,ISIC_0055826.JPG,ISIC_0055826.JPG,false,0,keypress(z),500,2557459.0999999046,2557459,2552274.279,2552281.4000000954,2552290.833,2557484.265,8,400,16,,ISIC_0025343.JPG
break,html.Screen,4_115_1,2023-09-11T20:47:09.934Z,,0,,,NaN,,,,,,false,,,,2557459.5999999046,2557459.5,,2557459.3000001907,,2557484.265,8,400,,,
break_continue,html.Screen,4_115_2,2023-09-11T20:47:09.935Z,,0,,,NaN,,,,,,false,,,,2557459.9000000954,2557459.8000001907,,2557459.700000286,,2557484.265,8,400,,,
sequence,flow.Sequence,4_115,2023-09-11T20:47:09.935Z,,0,,,5168.967000190634,completion,,,,,false,,,,2557460,2557459.8000001907,2552274.279,2552281.4000000954,2552290.833,2557484.265,8,400,,,
trial,html.Screen,4_116_0,2023-09-11T20:47:17.009Z,,0,3,,7049.435000285972,response,ISIC_7492682.JPG,5,ISIC_0046900.JPG,ISIC_0046900.JPG,false,0,keypress(z),500,2564533.9000000954,2564533.700000286,2557467.577,2557460,2557484.265,2564548.035,8,400,17,,ISIC_7492682.JPG
break,html.Screen,4_116_1,2023-09-11T20:47:17.010Z,,0,,,NaN,,,,,,false,,,,2564534.700000286,2564534.4000000954,,2564534,,2564548.035,8,400,,,
break_continue,html.Screen,4_116_2,2023-09-11T20:47:17.010Z,,0,,,NaN,,,,,,false,,,,2564535,2564535,,2564534.8000001907,,2564548.035,8,400,,,
sequence,flow.Sequence,4_116,2023-09-11T20:47:17.010Z,,0,,,7050.73499999987,completion,,,,,false,,,,2564535.0999999046,2564535,2557467.577,2557460,2557484.265,2564548.035,8,400,,,
trial,html.Screen,4_117_0,2023-09-11T20:47:22.644Z,,0,3,,5620.865000095218,response,ISIC_0026700.JPG,5,ISIC_0027056.JPG,ISIC_0027056.JPG,false,0,keypress(z),500,2570169,2570168.9000000954,2564531.353,2564535.200000286,2564548.035,2570175.679,8,400,18,,ISIC_0026700.JPG
break,html.Screen,4_117_1,2023-09-11T20:47:22.644Z,,0,,,NaN,,,,,,false,,,,2570169.5999999046,2570169.5,,2570169.200000286,,2570175.679,8,400,,,
break_continue,html.Screen,4_117_2,2023-09-11T20:47:22.645Z,,0,,,NaN,,,,,,false,,,,2570169.8000001907,2570169.700000286,,2570169.5999999046,,2570175.679,8,400,,,
sequence,flow.Sequence,4_117,2023-09-11T20:47:22.645Z,,0,,,5621.665000285953,completion,,,,,false,,,,2570169.9000000954,2570169.700000286,2564531.353,2564535.200000286,2564548.035,2570175.679,8,400,,,
trial,html.Screen,4_118_0,2023-09-11T20:47:27.690Z,,0,3,,5039.721000095364,response,ISIC_6381197.JPG,5,ISIC_2447578.JPG,ISIC_6381197.JPG,false,1,keypress(m),500,2575215.5,2575215.4000000954,2570158.951,2570170,2570175.679,2575218.772,8,400,19,,ISIC_2447578.JPG
break,html.Screen,4_118_1,2023-09-11T20:47:27.691Z,,0,,,NaN,,,,,,false,,,,2575216.3000001907,2575216,,2575215.700000286,,2575218.772,8,400,,,
break_continue,html.Screen,4_118_2,2023-09-11T20:47:27.691Z,,0,,,NaN,,,,,,false,,,,2575216.5999999046,2575216.5999999046,,2575216.4000000954,,2575218.772,8,400,,,
sequence,flow.Sequence,4_118,2023-09-11T20:47:27.692Z,,0,,,5040.920999904629,completion,,,,,false,,,,2575216.700000286,2575216.5999999046,2570158.951,2570169.9000000954,2570175.679,2575218.772,8,400,,,
trial,html.Screen,4_119_0,2023-09-11T20:47:34.435Z,,0,3,,6741.528000190854,response,ISIC_5550263.JPG,5,ISIC_0032747.JPG,ISIC_5550263.JPG,false,1,keypress(m),500,2581960.5,2581960.3000001907,2575202.034,2575216.8000001907,2575218.772,2581981.909,8,400,20,,ISIC_0032747.JPG
break,html.Screen,4_119_1,2023-09-11T20:47:34.436Z,,0,,,NaN,,,,,,false,,,,2581960.9000000954,2581960.8000001907,,2581960.5999999046,,2581981.909,8,400,,,
break_continue,html.Screen,4_119_2,2023-09-11T20:47:34.436Z,,0,,,NaN,,,,,,false,,,,2581961.200000286,2581961.200000286,,2581961,,2581981.909,8,400,,,
sequence,flow.Sequence,4_119,2023-09-11T20:47:34.436Z,,0,,,6742.4280002862215,completion,,,,,false,,,,2581961.4000000954,2581961.200000286,2575202.034,2575216.8000001907,2575218.772,2581981.909,8,400,,,
trial,html.Screen,4_120_0,2023-09-11T20:47:37.868Z,,0,3,,3411.1909999046475,response,ISIC_0010543.JPG,4,ISIC_0011943.JPG,ISIC_0011943.JPG,false,0,keypress(z),500,2585393.200000286,2585393.0999999046,2581965.404,2581961.5,2581981.909,2585421.983,8,400,21,,ISIC_0010543.JPG
break,html.Screen,4_120_1,2023-09-11T20:47:37.869Z,,0,,,NaN,,,,,,false,,,,2585394.0999999046,2585393.9000000954,,2585393.5,,2585421.983,8,400,,,
break_continue,html.Screen,4_120_2,2023-09-11T20:47:37.870Z,,0,,,NaN,,,,,,false,,,,2585395,2585394.8000001907,,2585394.5,,2585421.983,8,400,,,
sequence,flow.Sequence,4_120,2023-09-11T20:47:37.870Z,,0,,,3412.8910001907498,completion,,,,,false,,,,2585395.3000001907,2585394.8000001907,2581965.404,2581961.4000000954,2581981.909,2585421.983,8,400,,,
trial,html.Screen,4_121_0,2023-09-11T20:47:41.224Z,,0,3,,3326.616999904625,response,ISIC_0024864.JPG,5,ISIC_5358568.JPG,ISIC_0024864.JPG,false,1,keypress(m),500,2588748.8000001907,2588748.5999999046,2585405.235,2585395.5,2585421.983,2588778.511,8,400,22,,ISIC_5358568.JPG
break,html.Screen,4_121_1,2023-09-11T20:47:41.224Z,,0,,,NaN,,,,,,false,,,,2588749.5,2588749.3000001907,,2588748.9000000954,,2588778.511,8,400,,,
break_continue,html.Screen,4_121_2,2023-09-11T20:47:41.225Z,,0,,,NaN,,,,,,false,,,,2588749.8000001907,2588749.700000286,,2588749.5,,2588778.511,8,400,,,
sequence,flow.Sequence,4_121,2023-09-11T20:47:41.225Z,,0,,,3327.717000286095,completion,,,,,false,,,,2588749.8000001907,2588749.700000286,2585405.235,2585395.4000000954,2585421.983,2588778.511,8,400,,,
trial,html.Screen,4_122_0,2023-09-11T20:47:45.642Z,,0,3,,4388.389000095427,response,ISIC_0064072.JPG,5,ISIC_0011531.JPG,ISIC_0011531.JPG,false,0,keypress(z),500,2593167,2593166.9000000954,2588761.951,2588749.9000000954,2588778.511,2593187.098,8,400,23,,ISIC_0064072.JPG
break,html.Screen,4_122_1,2023-09-11T20:47:45.642Z,,0,,,NaN,,,,,,false,,,,2593167.4000000954,2593167.3000001907,,2593167.0999999046,,2593187.098,8,400,,,
break_continue,html.Screen,4_122_2,2023-09-11T20:47:45.643Z,,0,,,NaN,,,,,,false,,,,2593167.5,2593167.5,,2593167.4000000954,,2593187.098,8,400,,,
sequence,flow.Sequence,4_122,2023-09-11T20:47:45.643Z,,0,,,4388.98900000006,completion,,,,,false,,,,2593167.5999999046,2593167.5,2588761.951,2588749.9000000954,2588778.511,2593187.098,8,400,,,
trial,html.Screen,4_123_0,2023-09-11T20:47:50.156Z,,0,3,,4494.202000190504,response,ISIC_7875088.JPG,5,ISIC_0028543.JPG,ISIC_0028543.JPG,false,0,keypress(z),500,2597681.3000001907,2597681.3000001907,2593170.453,2593167.5999999046,2593187.098,2597695.878,8,400,24,,ISIC_7875088.JPG
break,html.Screen,4_123_1,2023-09-11T20:47:50.157Z,,0,,,NaN,,,,,,false,,,,2597681.700000286,2597681.700000286,,2597681.5,,2597695.878,8,400,,,
break_continue,html.Screen,4_123_2,2023-09-11T20:47:50.157Z,,0,,,NaN,,,,,,false,,,,2597682,2597681.9000000954,,2597681.8000001907,,2597695.878,8,400,,,
