sender,sender_type,sender_id,timestamp,meta,,blockNo,condition,duration,ended_on,img_left,img_reveal,img_right,loser,practice,response,response_action,selection_duration,time_commit,time_end,time_render,time_run,time_show,time_switch,total_blocks,total_trials,trialNo,url,winner
informed_consent,html.Screen,0,2023-09-12T00:35:36.128Z,"{""labjs_version"":""20.2.4"",""labjs_build"":{""flavor"":""development"",""commit"":""f5b4a49f956347addd546a832a3327688c2c0fef""},""location"":""https://labjs.felixhenninger.com/api/labjs_preview/index.html"",""userAgent"":""Mozilla/5.0 (Windows NT 10.0; Win64; x64) AppleWebKit/537.36 (KHTML, like Gecko) Chrome/116.0.0.0 Safari/537.36"",""platform"":""Win32"",""language"":""en-AU"",""locale"":""en-US"",""timeZone"":""America/Chicago"",""timezoneOffset"":300,""screen_width"":1680,""screen_height"":1050,""scroll_width"":1296,""scroll_height"":688,""window_innerWidth"":1296,""window_innerHeight"":736,""devicePixelRatio"":1}",,,,39200.825,response,,,,,,consent,click button,,39791,39782,564.487,580.8000001907349,581.175,39790.867,,,,{},
Welcome,html.Screen,1,2023-09-12T00:35:36.704Z,,,,symmetry,574.8330002861039,response,,,,,,continue,click button,,40366.40000009537,40365.7000002861,39774.357,39791.40000009537,39790.867,40392.045,,,,,
trial,html.Screen,2_0_0,2023-09-12T00:35:48.219Z,,0,0,,11522.432,timeout,ISIC_6997061.JPG,,ISIC_0069348.JPG,,true,,,500,51881.90000009537,51881.60000038147,40375.455,40366.60000038147,40392.045,51914.477,1,6,1,,
sequence,flow.Sequence,2_0,2023-09-12T00:35:48.220Z,,0,,,11489.555000381471,completion,,,,,true,,,,51882.2000002861,51881.60000038147,40375.455,40366.60000038147,40392.045,51914.477,1,6,,,
trial,html.Screen,2_1_0,2023-09-12T00:35:51.117Z,,0,0,,2865.2230002861033,response,ISIC_0009529.JPG,,ISIC_0057368.JPG,ISIC_0057368.JPG,true,0,keypress(z),500,54779.90000009537,54779.7000002861,51897.822,51882.40000009537,51914.477,54786.764,1,6,2,,ISIC_0009529.JPG
sequence,flow.Sequence,2_1,2023-09-12T00:35:51.117Z,,0,,,2865.2230002861033,completion,,,,,true,,,,54780.10000038147,54779.7000002861,51897.822,51882.300000190735,51914.477,54786.764,1,6,,,
trial,html.Screen,2_2_0,2023-09-12T00:35:54.403Z,,0,0,,3278.9360002860994,response,ISIC_0064954.JPG,,ISIC_9758671.JPG,ISIC_9758671.JPG,true,0,keypress(z),500,58065.800000190735,58065.7000002861,54770.057,54780.2000002861,54786.764,58076.443,1,6,3,,ISIC_0064954.JPG
sequence,flow.Sequence,2_2,2023-09-12T00:35:54.403Z,,0,,,3278.9360002860994,completion,,,,,true,,,,58066,58065.7000002861,54770.057,54780.2000002861,54786.764,58076.443,1,6,,,
trial,html.Screen,2_3_0,2023-09-12T00:35:57.596Z,,0,0,,3181.6570003814704,response,ISIC_0005785.JPG,,ISIC_0000080.JPG,ISIC_0005785.JPG,true,1,keypress(m),500,61258.300000190735,61258.10000038147,58059.757,58066,58076.443,61265.928,1,6,4,,ISIC_0000080.JPG
sequence,flow.Sequence,2_3,2023-09-12T00:35:57.597Z,,0,,,3181.6570003814704,completion,,,,,true,,,,61258.60000038147,61258.10000038147,58059.757,58066,58076.443,61265.928,1,6,,,
trial,html.Screen,2_4_0,2023-09-12T00:36:03.343Z,,0,0,,5738.772000286102,response,ISIC_5390060.JPG,,ISIC_7944028.JPG,ISIC_5390060.JPG,true,1,keypress(m),500,67004.90000009537,67004.7000002861,61249.29,61258.7000002861,61265.928,67010.579,1,6,5,,ISIC_7944028.JPG
sequence,flow.Sequence,2_4,2023-09-12T00:36:03.343Z,,0,,,5738.772000286102,completion,,,,,true,,,,67005,67004.7000002861,61249.29,61258.7000002861,61265.928,67010.579,1,6,,,
trial,html.Screen,2_5_0,2023-09-12T00:36:06.919Z,,0,0,,3569.921000000002,response,ISIC_0010188.JPG,,ISIC_0794216.JPG,ISIC_0010188.JPG,true,1,keypress(m),500,70580.7000002861,70580.5,66993.946,67005.10000038147,67010.579,70584.081,1,6,6,,ISIC_0794216.JPG
sequence,flow.Sequence,2_5,2023-09-12T00:36:06.919Z,,0,,,3569.921000000002,completion,,,,,true,,,,70580.90000009537,70580.5,66993.946,67005.10000038147,67010.579,70584.081,1,6,,,
loop,flow.Loop,2,2023-09-12T00:36:06.919Z,,,,,30188.455,completion,,,,,true,,,,70581,70580.5,40375.455,40366.5,40392.045,70584.081,1,6,,,
exp_instructions,html.Screen,3,2023-09-12T00:36:18.307Z,,,,,11384.519000381464,response,,,,,,continue,keypress(Space),,81969,81968.60000038147,70567.494,70581,70584.081,81989.619,,,,,
trial,html.Screen,4_0_0,2023-09-12T00:36:23.239Z,,0,1,,4911.581000286096,response,ISIC_9088774.JPG,5,ISIC_2046891.JPG,ISIC_9088774.JPG,false,1,keypress(m),500,86901.30000019073,86901.2000002861,81972.937,81969.30000019073,81989.619,86915.874,8,400,1,,ISIC_2046891.JPG
break,html.Screen,4_0_1,2023-09-12T00:36:23.240Z,,0,,,NaN,,,,,,false,,,,86901.80000019073,86901.80000019073,,86901.40000009537,,86915.874,8,400,,,
break_continue,html.Screen,4_0_2,2023-09-12T00:36:23.240Z,,0,,,NaN,,,,,,false,,,,86902.10000038147,86902.10000038147,,86901.90000009537,,86915.874,8,400,,,
sequence,flow.Sequence,4_0,2023-09-12T00:36:23.240Z,,0,,,4912.481000381464,completion,,,,,false,,,,86902.2000002861,86902.10000038147,81972.937,81969.2000002861,81989.619,86915.874,8,400,,,
trial,html.Screen,4_1_0,2023-09-12T00:36:28.605Z,,0,1,,5350.526000095371,response,ISIC_0025759.JPG,5,ISIC_8375123.JPG,ISIC_0025759.JPG,false,1,keypress(m),500,92266.5,92266.40000009537,86899.199,86902.30000019073,86915.874,92293.052,8,400,2,,ISIC_8375123.JPG
break,html.Screen,4_1_1,2023-09-12T00:36:28.605Z,,0,,,NaN,,,,,,false,,,,92267,92266.90000009537,,92266.7000002861,,92293.052,8,400,,,
break_continue,html.Screen,4_1_2,2023-09-12T00:36:28.605Z,,0,,,NaN,,,,,,false,,,,92267.30000019073,92267.2000002861,,92267.10000038147,,92293.052,8,400,,,
sequence,flow.Sequence,4_1,2023-09-12T00:36:28.605Z,,0,,,5351.326000286106,completion,,,,,false,,,,92267.30000019073,92267.2000002861,86899.199,86902.30000019073,86915.874,92293.052,8,400,,,
trial,html.Screen,4_2_0,2023-09-12T00:36:33.678Z,,0,1,,5046.948000000004,response,ISIC_0602494.JPG,4,ISIC_0060158.JPG,ISIC_0060158.JPG,false,0,keypress(z),500,97340.2000002861,97340,92276.431,92267.30000019073,92293.052,97352.892,8,400,3,,ISIC_0602494.JPG
break,html.Screen,4_2_1,2023-09-12T00:36:33.679Z,,0,,,NaN,,,,,,false,,,,97340.7000002861,97340.60000038147,,97340.30000019073,,97352.892,8,400,,,
break_continue,html.Screen,4_2_2,2023-09-12T00:36:33.679Z,,0,,,NaN,,,,,,false,,,,97340.80000019073,97340.80000019073,,97340.7000002861,,97352.892,8,400,,,
sequence,flow.Sequence,4_2,2023-09-12T00:36:33.679Z,,0,,,5047.748000190739,completion,,,,,false,,,,97341,97340.80000019073,92276.431,92267.30000019073,92293.052,97352.892,8,400,,,
trial,html.Screen,4_3_0,2023-09-12T00:36:38.147Z,,0,1,,4456.50800009536,response,ISIC_7164403.JPG,6,ISIC_5831880.JPG,ISIC_7164403.JPG,false,1,keypress(m),500,101809.5,101809.40000009537,97336.376,97341,97352.892,101811.555,8,400,4,,ISIC_5831880.JPG
break,html.Screen,4_3_1,2023-09-12T00:36:38.148Z,,0,,,NaN,,,,,,false,,,,101809.90000009537,101809.90000009537,,101809.5,,101811.555,8,400,,,
break_continue,html.Screen,4_3_2,2023-09-12T00:36:38.148Z,,0,,,NaN,,,,,,false,,,,101810.30000019073,101810.30000019073,,101810,,101811.555,8,400,,,
sequence,flow.Sequence,4_3,2023-09-12T00:36:38.148Z,,0,,,4457.408000190728,completion,,,,,false,,,,101810.40000009537,101810.30000019073,97336.376,97341,97352.892,101811.555,8,400,,,
trial,html.Screen,4_4_0,2023-09-12T00:36:43.031Z,,0,1,,4881.645000286109,response,ISIC_6639094.JPG,5,ISIC_0011564.JPG,ISIC_0011564.JPG,false,0,keypress(z),500,106693.2000002861,106693.2000002861,101794.945,101810.5,101811.555,106721.19,8,400,5,,ISIC_6639094.JPG
break,html.Screen,4_4_1,2023-09-12T00:36:43.032Z,,0,,,NaN,,,,,,false,,,,106693.7000002861,106693.60000038147,,106693.40000009537,,106721.19,8,400,,,
break_continue,html.Screen,4_4_2,2023-09-12T00:36:43.032Z,,0,,,NaN,,,,,,false,,,,106693.80000019073,106693.80000019073,,106693.7000002861,,106721.19,8,400,,,
sequence,flow.Sequence,4_4,2023-09-12T00:36:43.032Z,,0,,,4882.245000190742,completion,,,,,false,,,,106694,106693.80000019073,101794.945,101810.5,101811.555,106721.19,8,400,,,
trial,html.Screen,4_5_0,2023-09-12T00:36:47.423Z,,0,1,,4363.809999999998,response,ISIC_8100185.JPG,5,ISIC_0682543.JPG,ISIC_0682543.JPG,false,0,keypress(z),500,111085.10000038147,111085,106704.388,106694,106721.19,111112.975,8,400,6,,ISIC_8100185.JPG
break,html.Screen,4_5_1,2023-09-12T00:36:47.424Z,,0,,,NaN,,,,,,false,,,,111085.7000002861,111085.60000038147,,111085.30000019073,,111112.975,8,400,,,
break_continue,html.Screen,4_5_2,2023-09-12T00:36:47.424Z,,0,,,NaN,,,,,,false,,,,111085.90000009537,111085.80000019073,,111085.80000019073,,111112.975,8,400,,,
sequence,flow.Sequence,4_5,2023-09-12T00:36:47.424Z,,0,,,4364.6100001907325,completion,,,,,false,,,,111086,111085.80000019073,106704.388,106694,106721.19,111112.975,8,400,,,
trial,html.Screen,4_6_0,2023-09-12T00:36:52.482Z,,0,1,,5030.625000381464,response,ISIC_5874357.JPG,5,ISIC_4255013.JPG,ISIC_5874357.JPG,false,1,keypress(m),500,116143.80000019073,116143.60000038147,111096.441,111086.10000038147,111112.975,116156.295,8,400,7,,ISIC_4255013.JPG
break,html.Screen,4_6_1,2023-09-12T00:36:52.482Z,,0,,,NaN,,,,,,false,,,,116144.2000002861,116144.10000038147,,116143.80000019073,,116156.295,8,400,,,
break_continue,html.Screen,4_6_2,2023-09-12T00:36:52.482Z,,0,,,NaN,,,,,,false,,,,116144.40000009537,116144.30000019073,,116144.2000002861,,116156.295,8,400,,,
sequence,flow.Sequence,4_6,2023-09-12T00:36:52.482Z,,0,,,5031.325000190729,completion,,,,,false,,,,116144.40000009537,116144.30000019073,111096.441,111086.10000038147,111112.975,116156.295,8,400,,,
trial,html.Screen,4_7_0,2023-09-12T00:36:57.333Z,,0,1,,4838.405000286104,response,ISIC_6811363.JPG,5,ISIC_0063961.JPG,ISIC_0063961.JPG,false,0,keypress(z),500,120994.7000002861,120994.7000002861,116139.454,116144.60000038147,116156.295,121015.6,8,400,8,,ISIC_6811363.JPG
break,html.Screen,4_7_1,2023-09-12T00:36:57.333Z,,0,,,NaN,,,,,,false,,,,120995.10000038147,120995.10000038147,,120994.80000019073,,121015.6,8,400,,,
break_continue,html.Screen,4_7_2,2023-09-12T00:36:57.334Z,,0,,,NaN,,,,,,false,,,,120995.30000019073,120995.30000019073,,120995.2000002861,,121015.6,8,400,,,
sequence,flow.Sequence,4_7,2023-09-12T00:36:57.334Z,,0,,,4839.005000190737,completion,,,,,false,,,,120995.40000009537,120995.30000019073,116139.454,116144.5,116156.295,121015.6,8,400,,,
trial,html.Screen,4_8_0,2023-09-12T00:37:01.688Z,,0,1,,4334.300000095362,response,ISIC_1732527.JPG,6,ISIC_0011700.JPG,ISIC_0011700.JPG,false,0,keypress(z),500,125350,125349.90000009537,120998.886,120995.5,121015.6,125357.57,8,400,9,,ISIC_1732527.JPG
break,html.Screen,4_8_1,2023-09-12T00:37:01.689Z,,0,,,NaN,,,,,,false,,,,125350.5,125350.40000009537,,125350.10000038147,,125357.57,8,400,,,
break_continue,html.Screen,4_8_2,2023-09-12T00:37:01.689Z,,0,,,NaN,,,,,,false,,,,125350.7000002861,125350.7000002861,,125350.5,,125357.57,8,400,,,
sequence,flow.Sequence,4_8,2023-09-12T00:37:01.689Z,,0,,,4335.1000002860965,completion,,,,,false,,,,125350.7000002861,125350.7000002861,120998.886,120995.5,121015.6,125357.57,8,400,,,
trial,html.Screen,4_9_0,2023-09-12T00:37:06.827Z,,0,1,,5130.530000381463,response,ISIC_0062223.JPG,6,ISIC_0032425.JPG,ISIC_0032425.JPG,false,0,keypress(z),500,130488.30000019073,130488.10000038147,125340.702,125350.80000019073,125357.57,130500.79,8,400,10,,ISIC_0062223.JPG
break,html.Screen,4_9_1,2023-09-12T00:37:06.827Z,,0,,,NaN,,,,,,false,,,,130489.2000002861,130488.80000019073,,130488.5,,130500.79,8,400,,,
break_continue,html.Screen,4_9_2,2023-09-12T00:37:06.828Z,,0,,,NaN,,,,,,false,,,,130489.5,130489.40000009537,,130489.30000019073,,130500.79,8,400,,,
sequence,flow.Sequence,4_9,2023-09-12T00:37:06.828Z,,0,,,5131.83000009536,completion,,,,,false,,,,130489.60000038147,130489.40000009537,125340.702,125350.80000019073,125357.57,130500.79,8,400,,,
trial,html.Screen,4_10_0,2023-09-12T00:37:13.157Z,,0,1,,6317.810000381476,response,ISIC_5099569.JPG,6,ISIC_5073160.JPG,ISIC_5099569.JPG,false,1,keypress(m),500,136818.80000019073,136818.60000038147,130484.195,130489.7000002861,130500.79,136829.785,8,400,11,,ISIC_5073160.JPG
break,html.Screen,4_10_1,2023-09-12T00:37:13.158Z,,0,,,NaN,,,,,,false,,,,136819.30000019073,136819.2000002861,,136818.90000009537,,136829.785,8,400,,,
break_continue,html.Screen,4_10_2,2023-09-12T00:37:13.158Z,,0,,,NaN,,,,,,false,,,,136819.5,136819.40000009537,,136819.40000009537,,136829.785,8,400,,,
sequence,flow.Sequence,4_10,2023-09-12T00:37:13.158Z,,0,,,6318.610000095374,completion,,,,,false,,,,136819.60000038147,136819.40000009537,130484.195,130489.7000002861,130500.79,136829.785,8,400,,,
trial,html.Screen,4_11_0,2023-09-12T00:37:19.082Z,,0,1,,5914.2149999999965,response,ISIC_0034188.JPG,5,ISIC_0032134.JPG,ISIC_0032134.JPG,false,0,keypress(z),500,142744.10000038147,142744,136813.068,136819.60000038147,136829.785,142757.914,8,400,12,,ISIC_0034188.JPG
break,html.Screen,4_11_1,2023-09-12T00:37:19.083Z,,0,,,NaN,,,,,,false,,,,142744.60000038147,142744.5,,142744.2000002861,,142757.914,8,400,,,
break_continue,html.Screen,4_11_2,2023-09-12T00:37:19.083Z,,0,,,NaN,,,,,,false,,,,142744.80000019073,142744.80000019073,,142744.60000038147,,142757.914,8,400,,,
sequence,flow.Sequence,4_11,2023-09-12T00:37:19.083Z,,0,,,5915.015000190731,completion,,,,,false,,,,142745,142744.80000019073,136813.068,136819.60000038147,136829.785,142757.914,8,400,,,
trial,html.Screen,4_12_0,2023-09-12T00:37:25.746Z,,0,1,,6649.58600000001,response,ISIC_0054851.JPG,4,ISIC_0031477.JPG,ISIC_0054851.JPG,false,1,keypress(m),500,149407.60000038147,149407.5,142741.356,142745,142757.914,149420.969,8,400,13,,ISIC_0031477.JPG
break,html.Screen,4_12_1,2023-09-12T00:37:25.746Z,,0,,,NaN,,,,,,false,,,,149408.10000038147,149407.90000009537,,149407.7000002861,,149420.969,8,400,,,
break_continue,html.Screen,4_12_2,2023-09-12T00:37:25.746Z,,0,,,NaN,,,,,,false,,,,149408.2000002861,149408.2000002861,,149408.10000038147,,149420.969,8,400,,,
sequence,flow.Sequence,4_12,2023-09-12T00:37:25.747Z,,0,,,6650.2860002861125,completion,,,,,false,,,,149408.30000019073,149408.2000002861,142741.356,142745,142757.914,149420.969,8,400,,,
trial,html.Screen,4_13_0,2023-09-12T00:37:30.969Z,,0,1,,5209.931000095356,response,ISIC_0679494.JPG,6,ISIC_2936321.JPG,ISIC_2936321.JPG,false,0,keypress(z),500,154631,154630.90000009537,149404.185,149408.30000019073,149420.969,154647.678,8,400,14,,ISIC_0679494.JPG
break,html.Screen,4_13_1,2023-09-12T00:37:30.970Z,,0,,,NaN,,,,,,false,,,,154632,154631.7000002861,,154631.30000019073,,154647.678,8,400,,,
break_continue,html.Screen,4_13_2,2023-09-12T00:37:30.970Z,,0,,,NaN,,,,,,false,,,,154632.2000002861,154632.10000038147,,154632,,154647.678,8,400,,,
sequence,flow.Sequence,4_13,2023-09-12T00:37:30.971Z,,0,,,5211.131000381458,completion,,,,,false,,,,154632.30000019073,154632.10000038147,149404.185,149408.30000019073,149420.969,154647.678,8,400,,,
trial,html.Screen,4_14_0,2023-09-12T00:37:36.044Z,,0,1,,5057.821999999986,response,ISIC_7503950.JPG,5,ISIC_0071678.JPG,ISIC_0071678.JPG,false,0,keypress(z),500,159705.60000038147,159705.5,154631.139,154632.40000009537,154647.678,159707.551,8,400,15,,ISIC_7503950.JPG
break,html.Screen,4_14_1,2023-09-12T00:37:36.044Z,,0,,,NaN,,,,,,false,,,,159706.2000002861,159706,,159705.7000002861,,159707.551,8,400,,,
break_continue,html.Screen,4_14_2,2023-09-12T00:37:36.045Z,,0,,,NaN,,,,,,false,,,,159706.5,159706.5,,159706.30000019073,,159707.551,8,400,,,
sequence,flow.Sequence,4_14,2023-09-12T00:37:36.045Z,,0,,,5058.821999999986,completion,,,,,false,,,,159706.60000038147,159706.5,154631.139,154632.30000019073,154647.678,159707.551,8,400,,,
trial,html.Screen,4_15_0,2023-09-12T00:37:42.288Z,,0,1,,6241.849000095361,response,ISIC_9067033.JPG,5,ISIC_0069595.JPG,ISIC_0069595.JPG,false,0,keypress(z),500,165949.5,165949.40000009537,159690.923,159706.7000002861,159707.551,165953.122,8,400,16,,ISIC_9067033.JPG
break,html.Screen,4_15_1,2023-09-12T00:37:42.288Z,,0,,,NaN,,,,,,false,,,,165949.90000009537,165949.80000019073,,165949.60000038147,,165953.122,8,400,,,
break_continue,html.Screen,4_15_2,2023-09-12T00:37:42.288Z,,0,,,NaN,,,,,,false,,,,165950.10000038147,165950.10000038147,,165949.90000009537,,165953.122,8,400,,,
sequence,flow.Sequence,4_15,2023-09-12T00:37:42.288Z,,0,,,6242.549000381463,completion,,,,,false,,,,165950.2000002861,165950.10000038147,159690.923,159706.60000038147,159707.551,165953.122,8,400,,,
trial,html.Screen,4_16_0,2023-09-12T00:37:47.746Z,,0,1,,5454.278000095364,response,ISIC_0055003.JPG,5,ISIC_0026611.JPG,ISIC_0026611.JPG,false,0,keypress(z),500,171407.5,171407.40000009537,165936.327,165950.30000019073,165953.122,171413.653,8,400,17,,ISIC_0055003.JPG
break,html.Screen,4_16_1,2023-09-12T00:37:47.746Z,,0,,,NaN,,,,,,false,,,,171407.90000009537,171407.80000019073,,171407.60000038147,,171413.653,8,400,,,
break_continue,html.Screen,4_16_2,2023-09-12T00:37:47.746Z,,0,,,NaN,,,,,,false,,,,171408.10000038147,171408,,171408,,171413.653,8,400,,,
sequence,flow.Sequence,4_16,2023-09-12T00:37:47.746Z,,0,,,5454.877999999997,completion,,,,,false,,,,171408.2000002861,171408,165936.327,165950.2000002861,165953.122,171413.653,8,400,,,
trial,html.Screen,4_17_0,2023-09-12T00:37:54.153Z,,0,1,,6400.947000381479,response,ISIC_0011267.JPG,6,ISIC_8036544.JPG,ISIC_0011267.JPG,false,1,keypress(m),500,177814.80000019073,177814.60000038147,171396.978,171408.30000019073,171413.653,177826.125,8,400,18,,ISIC_8036544.JPG
break,html.Screen,4_17_1,2023-09-12T00:37:54.154Z,,0,,,NaN,,,,,,false,,,,177815.30000019073,177815.2000002861,,177814.90000009537,,177826.125,8,400,,,
break_continue,html.Screen,4_17_2,2023-09-12T00:37:54.154Z,,0,,,NaN,,,,,,false,,,,177815.5,177815.5,,177815.40000009537,,177826.125,8,400,,,
sequence,flow.Sequence,4_17,2023-09-12T00:37:54.154Z,,0,,,6401.847000000009,completion,,,,,false,,,,177815.60000038147,177815.5,171396.978,171408.2000002861,171413.653,177826.125,8,400,,,
trial,html.Screen,4_18_0,2023-09-12T00:37:59.394Z,,0,1,,5228.97500038147,response,ISIC_0786233.JPG,6,ISIC_7428248.JPG,ISIC_0786233.JPG,false,1,keypress(m),500,183055.2000002861,183055.10000038147,177809.449,177815.60000038147,177826.125,183069.646,8,400,19,,ISIC_7428248.JPG
break,html.Screen,4_18_1,2023-09-12T00:37:59.394Z,,0,,,NaN,,,,,,false,,,,183055.60000038147,183055.5,,183055.30000019073,,183069.646,8,400,,,
break_continue,html.Screen,4_18_2,2023-09-12T00:37:59.394Z,,0,,,NaN,,,,,,false,,,,183055.90000009537,183055.7000002861,,183055.7000002861,,183069.646,8,400,,,
sequence,flow.Sequence,4_18,2023-09-12T00:37:59.394Z,,0,,,5229.575000286102,completion,,,,,false,,,,183056,183055.7000002861,177809.449,177815.60000038147,177826.125,183069.646,8,400,,,
trial,html.Screen,4_19_0,2023-09-12T00:38:05.141Z,,0,1,,5732.554000286094,response,ISIC_0033432.JPG,5,ISIC_7685761.JPG,ISIC_7685761.JPG,false,0,keypress(z),500,188802.40000009537,188802.2000002861,183053.002,183056,183069.646,188814.175,8,400,20,,ISIC_0033432.JPG
break,html.Screen,4_19_1,2023-09-12T00:38:05.142Z,,0,,,NaN,,,,,,false,,,,188803.40000009537,188803.2000002861,,188802.7000002861,,188814.175,8,400,,,
break_continue,html.Screen,4_19_2,2023-09-12T00:38:05.143Z,,0,,,NaN,,,,,,false,,,,188804,188803.90000009537,,188803.60000038147,,188814.175,8,400,,,
sequence,flow.Sequence,4_19,2023-09-12T00:38:05.143Z,,0,,,5734.2540000953595,completion,,,,,false,,,,188804.2000002861,188803.90000009537,183053.002,183056,183069.646,188814.175,8,400,,,
trial,html.Screen,4_20_0,2023-09-12T00:38:11.464Z,,0,1,,6311.325000000012,response,ISIC_0025778.JPG,5,ISIC_0021894.JPG,ISIC_0025778.JPG,false,1,keypress(m),500,195125.7000002861,195125.5,188797.485,188804.30000019073,188814.175,195143.214,8,400,21,,ISIC_0021894.JPG
break,html.Screen,4_20_1,2023-09-12T00:38:11.465Z,,0,,,NaN,,,,,,false,,,,195126.60000038147,195126.40000009537,,195126,,195143.214,8,400,,,
break_continue,html.Screen,4_20_2,2023-09-12T00:38:11.466Z,,0,,,NaN,,,,,,false,,,,195127.30000019073,195127.10000038147,,195126.90000009537,,195143.214,8,400,,,
sequence,flow.Sequence,4_20,2023-09-12T00:38:11.466Z,,0,,,6312.925000381481,completion,,,,,false,,,,195127.40000009537,195127.10000038147,188797.485,188804.30000019073,188814.175,195143.214,8,400,,,
trial,html.Screen,4_21_0,2023-09-12T00:38:16.290Z,,0,1,,4808.486000286095,response,ISIC_8747095.JPG,5,ISIC_0025595.JPG,ISIC_8747095.JPG,false,1,keypress(m),500,199951.80000019073,199951.7000002861,195126.512,195127.5,195143.214,199952.504,8,400,22,,ISIC_0025595.JPG
break,html.Screen,4_21_1,2023-09-12T00:38:16.291Z,,0,,,NaN,,,,,,false,,,,199952.30000019073,199952.10000038147,,199951.90000009537,,199952.504,8,400,,,
break_continue,html.Screen,4_21_2,2023-09-12T00:38:16.291Z,,0,,,NaN,,,,,,false,,,,199952.5,199952.40000009537,,199952.30000019073,,199952.504,8,400,,,
sequence,flow.Sequence,4_21,2023-09-12T00:38:16.291Z,,0,,,4809.18600009536,completion,,,,,false,,,,199952.7000002861,199952.40000009537,195126.512,195127.5,195143.214,199952.504,8,400,,,
trial,html.Screen,4_22_0,2023-09-12T00:38:21.577Z,,0,1,,5285.696000286116,response,ISIC_1353668.JPG,5,ISIC_4224064.JPG,ISIC_1353668.JPG,false,1,keypress(m),500,205238.2000002861,205238.2000002861,199935.896,199952.80000019073,199952.504,205246.179,8,400,23,,ISIC_4224064.JPG
break,html.Screen,4_22_1,2023-09-12T00:38:21.577Z,,0,,,NaN,,,,,,false,,,,205238.60000038147,205238.5,,205238.40000009537,,205246.179,8,400,,,
break_continue,html.Screen,4_22_2,2023-09-12T00:38:21.577Z,,0,,,NaN,,,,,,false,,,,205238.90000009537,205238.80000019073,,205238.7000002861,,205246.179,8,400,,,
sequence,flow.Sequence,4_22,2023-09-12T00:38:21.577Z,,0,,,5286.296000190749,completion,,,,,false,,,,205238.90000009537,205238.80000019073,199935.896,199952.80000019073,199952.504,205246.179,8,400,,,
trial,html.Screen,4_23_0,2023-09-12T00:38:27.579Z,,0,1,,5994.121000190731,response,ISIC_0010319.JPG,4,ISIC_4874581.JPG,ISIC_0010319.JPG,false,1,keypress(m),500,211240.40000009537,211240.30000019073,205229.467,205239,205246.179,211241.158,8,400,24,,ISIC_4874581.JPG
break,html.Screen,4_23_1,2023-09-12T00:38:27.579Z,,0,,,NaN,,,,,,false,,,,211240.80000019073,211240.7000002861,,211240.5,,211241.158,8,400,,,
break_continue,html.Screen,4_23_2,2023-09-12T00:38:27.580Z,,0,,,NaN,,,,,,false,,,,211241,211241,,211240.80000019073,,211241.158,8,400,,,
sequence,flow.Sequence,4_23,2023-09-12T00:38:27.580Z,,0,,,5994.820999999996,completion,,,,,false,,,,211241.10000038147,211241,205229.467,205238.90000009537,205246.179,211241.158,8,400,,,
trial,html.Screen,4_24_0,2023-09-12T00:38:33.204Z,,0,1,,5624.242000095372,response,ISIC_0005139.JPG,6,ISIC_0032561.JPG,ISIC_0032561.JPG,false,0,keypress(z),500,216865.60000038147,216865.40000009537,211224.435,211241.10000038147,211241.158,216868.825,8,400,25,,ISIC_0005139.JPG
break,html.Screen,4_24_1,2023-09-12T00:38:33.205Z,,0,,,NaN,,,,,,false,,,,216866.30000019073,216866.10000038147,,216865.80000019073,,216868.825,8,400,,,
break_continue,html.Screen,4_24_2,2023-09-12T00:38:33.205Z,,0,,,NaN,,,,,,false,,,,216866.60000038147,216866.5,,216866.40000009537,,216868.825,8,400,,,
sequence,flow.Sequence,4_24,2023-09-12T00:38:33.205Z,,0,,,5625.342000000004,completion,,,,,false,,,,216866.80000019073,216866.5,211224.435,211241.10000038147,211241.158,216868.825,8,400,,,
trial,html.Screen,4_25_0,2023-09-12T00:38:38.199Z,,0,1,,4991.575000095356,response,ISIC_1226440.JPG,5,ISIC_8295834.JPG,ISIC_8295834.JPG,false,0,keypress(z),500,221860.5,221860.40000009537,216852.169,216866.80000019073,216868.825,221861.855,8,400,26,,ISIC_1226440.JPG
break,html.Screen,4_25_1,2023-09-12T00:38:38.200Z,,0,,,NaN,,,,,,false,,,,221861.10000038147,221860.90000009537,,221860.7000002861,,221861.855,8,400,,,
break_continue,html.Screen,4_25_2,2023-09-12T00:38:38.200Z,,0,,,NaN,,,,,,false,,,,221861.40000009537,221861.40000009537,,221861.2000002861,,221861.855,8,400,,,
sequence,flow.Sequence,4_25,2023-09-12T00:38:38.200Z,,0,,,4992.575000095356,completion,,,,,false,,,,221861.5,221861.40000009537,216852.169,216866.80000019073,216868.825,221861.855,8,400,,,
trial,html.Screen,4_26_0,2023-09-12T00:38:42.939Z,,0,1,,4738.545000095357,response,ISIC_0031575.JPG,6,ISIC_4853597.JPG,ISIC_0031575.JPG,false,1,keypress(m),500,226600.5,226600.40000009537,221845.194,221861.5,221861.855,226604.37,8,400,27,,ISIC_4853597.JPG
break,html.Screen,4_26_1,2023-09-12T00:38:42.940Z,,0,,,NaN,,,,,,false,,,,226601.10000038147,226600.90000009537,,226600.60000038147,,226604.37,8,400,,,
break_continue,html.Screen,4_26_2,2023-09-12T00:38:42.940Z,,0,,,NaN,,,,,,false,,,,226601.30000019073,226601.2000002861,,226601.2000002861,,226604.37,8,400,,,
sequence,flow.Sequence,4_26,2023-09-12T00:38:42.940Z,,0,,,4739.345000286092,completion,,,,,false,,,,226601.30000019073,226601.2000002861,221845.194,221861.5,221861.855,226604.37,8,400,,,
trial,html.Screen,4_27_0,2023-09-12T00:38:48.847Z,,0,1,,5903.730000381474,response,ISIC_0011086.JPG,5,ISIC_3556039.JPG,ISIC_0011086.JPG,false,1,keypress(m),500,232508.2000002861,232508.10000038147,226587.702,226601.40000009537,226604.37,232515.92,8,400,28,,ISIC_3556039.JPG
break,html.Screen,4_27_1,2023-09-12T00:38:48.847Z,,0,,,NaN,,,,,,false,,,,232508.80000019073,232508.60000038147,,232508.40000009537,,232515.92,8,400,,,
break_continue,html.Screen,4_27_2,2023-09-12T00:38:48.848Z,,0,,,NaN,,,,,,false,,,,232509.2000002861,232509.10000038147,,232509,,232515.92,8,400,,,
sequence,flow.Sequence,4_27,2023-09-12T00:38:48.848Z,,0,,,5904.730000381474,completion,,,,,false,,,,232509.30000019073,232509.10000038147,226587.702,226601.40000009537,226604.37,232515.92,8,400,,,
trial,html.Screen,4_28_0,2023-09-12T00:38:54.601Z,,0,1,,5746.180000381457,response,ISIC_7781213.JPG,5,ISIC_0034246.JPG,ISIC_7781213.JPG,false,1,keypress(m),500,238262.30000019073,238262.10000038147,232499.363,232509.40000009537,232515.92,238277.177,8,400,29,,ISIC_0034246.JPG
break,html.Screen,4_28_1,2023-09-12T00:38:54.601Z,,0,,,NaN,,,,,,false,,,,238262.80000019073,238262.7000002861,,238262.40000009537,,238277.177,8,400,,,
break_continue,html.Screen,4_28_2,2023-09-12T00:38:54.602Z,,0,,,NaN,,,,,,false,,,,238263,238263,,238263,,238277.177,8,400,,,
sequence,flow.Sequence,4_28,2023-09-12T00:38:54.602Z,,0,,,5747.079999999987,completion,,,,,false,,,,238263.10000038147,238263,232499.363,232509.30000019073,232515.92,238277.177,8,400,,,
trial,html.Screen,4_29_0,2023-09-12T00:39:00.435Z,,0,1,,5818.723000095371,response,ISIC_0010299.JPG,6,ISIC_0169604.JPG,ISIC_0169604.JPG,false,0,keypress(z),500,244096,244095.90000009537,238260.371,238263.2000002861,238277.177,244105.182,8,400,30,,ISIC_0010299.JPG
break,html.Screen,4_29_1,2023-09-12T00:39:00.436Z,,0,,,NaN,,,,,,false,,,,244096.7000002861,244096.5,,244096.2000002861,,244105.182,8,400,,,
break_continue,html.Screen,4_29_2,2023-09-12T00:39:00.436Z,,0,,,NaN,,,,,,false,,,,244097,244096.90000009537,,244096.80000019073,,244105.182,8,400,,,
sequence,flow.Sequence,4_29,2023-09-12T00:39:00.436Z,,0,,,5819.723000095371,completion,,,,,false,,,,244097.10000038147,244096.90000009537,238260.371,238263.2000002861,238277.177,244105.182,8,400,,,
trial,html.Screen,4_30_0,2023-09-12T00:39:04.950Z,,0,1,,4505.817999999999,response,ISIC_0065121.JPG,4,ISIC_0055024.JPG,ISIC_0065121.JPG,false,1,keypress(m),500,248611.30000019073,248611,244088.425,244097.30000019073,244105.182,248630.554,8,400,31,,ISIC_0055024.JPG
break,html.Screen,4_30_1,2023-09-12T00:39:04.951Z,,0,,,NaN,,,,,,false,,,,248612,248611.80000019073,,248611.40000009537,,248630.554,8,400,,,
break_continue,html.Screen,4_30_2,2023-09-12T00:39:04.951Z,,0,,,NaN,,,,,,false,,,,248612.40000009537,248612.30000019073,,248612.2000002861,,248630.554,8,400,,,
sequence,flow.Sequence,4_30,2023-09-12T00:39:04.951Z,,0,,,4507.118000190734,completion,,,,,false,,,,248612.5,248612.30000019073,244088.425,244097.30000019073,244105.182,248630.554,8,400,,,
trial,html.Screen,4_31_0,2023-09-12T00:39:10.097Z,,0,1,,5126.846000095364,response,ISIC_1619470.JPG,6,ISIC_4341261.JPG,ISIC_4341261.JPG,false,0,keypress(z),500,253757.7000002861,253757.40000009537,248613.906,248612.60000038147,248630.554,253773.944,8,400,32,,ISIC_1619470.JPG
break,html.Screen,4_31_1,2023-09-12T00:39:10.097Z,,0,,,NaN,,,,,,false,,,,253758.5,253758.40000009537,,253758.10000038147,,253773.944,8,400,,,
break_continue,html.Screen,4_31_2,2023-09-12T00:39:10.098Z,,0,,,NaN,,,,,,false,,,,253758.80000019073,253758.7000002861,,253758.60000038147,,253773.944,8,400,,,
sequence,flow.Sequence,4_31,2023-09-12T00:39:10.098Z,,0,,,5128.146000286099,completion,,,,,false,,,,253758.90000009537,253758.7000002861,248613.906,248612.60000038147,248630.554,253773.944,8,400,,,
trial,html.Screen,4_32_0,2023-09-12T00:39:15.094Z,,0,1,,4980.856000190746,response,ISIC_0033754.JPG,5,ISIC_0025428.JPG,ISIC_0025428.JPG,false,0,keypress(z),500,258754.90000009537,258754.80000019073,253757.229,253758.90000009537,253773.944,258766.935,8,400,33,,ISIC_0033754.JPG
break,html.Screen,4_32_1,2023-09-12T00:39:15.094Z,,0,,,NaN,,,,,,false,,,,258755.5,258755.30000019073,,258755,,258766.935,8,400,,,
break_continue,html.Screen,4_32_2,2023-09-12T00:39:15.095Z,,0,,,NaN,,,,,,false,,,,258755.60000038147,258755.60000038147,,258755.60000038147,,258766.935,8,400,,,
sequence,flow.Sequence,4_32,2023-09-12T00:39:15.095Z,,0,,,4981.656000381481,completion,,,,,false,,,,258755.80000019073,258755.60000038147,253757.229,253758.90000009537,253773.944,258766.935,8,400,,,
trial,html.Screen,4_33_0,2023-09-12T00:39:20.168Z,,0,1,,5062.265000286105,response,ISIC_3952694.JPG,5,ISIC_5514594.JPG,ISIC_3952694.JPG,false,1,keypress(m),500,263829.30000019073,263829.2000002861,258750.258,258755.90000009537,258766.935,263843.536,8,400,34,,ISIC_5514594.JPG
break,html.Screen,4_33_1,2023-09-12T00:39:20.169Z,,0,,,NaN,,,,,,false,,,,263829.90000009537,263829.80000019073,,263829.5,,263843.536,8,400,,,
break_continue,html.Screen,4_33_2,2023-09-12T00:39:20.169Z,,0,,,NaN,,,,,,false,,,,263830.2000002861,263830.10000038147,,263830.10000038147,,263843.536,8,400,,,
sequence,flow.Sequence,4_33,2023-09-12T00:39:20.169Z,,0,,,5063.165000381472,completion,,,,,false,,,,263830.2000002861,263830.10000038147,258750.258,258755.80000019073,258766.935,263843.536,8,400,,,
trial,html.Screen,4_34_0,2023-09-12T00:39:24.797Z,,0,1,,4614.16400028608,response,ISIC_3825641.JPG,4,ISIC_0027302.JPG,ISIC_3825641.JPG,false,1,keypress(m),500,268458.2000002861,268457.7000002861,263826.839,263830.30000019073,263843.536,268469.199,8,400,35,,ISIC_0027302.JPG
break,html.Screen,4_34_1,2023-09-12T00:39:24.799Z,,0,,,NaN,,,,,,false,,,,268459.80000019073,268459.30000019073,,268458.60000038147,,268469.199,8,400,,,
break_continue,html.Screen,4_34_2,2023-09-12T00:39:24.800Z,,0,,,NaN,,,,,,false,,,,268460.7000002861,268460.5,,268460.10000038147,,268469.199,8,400,,,
sequence,flow.Sequence,4_34,2023-09-12T00:39:24.800Z,,0,,,4616.963999999978,completion,,,,,false,,,,268461,268460.5,263826.839,263830.30000019073,263843.536,268469.199,8,400,,,
trial,html.Screen,4_35_0,2023-09-12T00:39:30.806Z,,0,1,,5998.300999999978,response,ISIC_0679781.JPG,5,ISIC_9159730.JPG,ISIC_9159730.JPG,false,0,keypress(z),500,274467.60000038147,274467.5,268452.516,268461.30000019073,268469.199,274497.7,8,400,36,,ISIC_0679781.JPG
break,html.Screen,4_35_1,2023-09-12T00:39:30.807Z,,0,,,NaN,,,,,,false,,,,274468,274467.90000009537,,274467.80000019073,,274497.7,8,400,,,
break_continue,html.Screen,4_35_2,2023-09-12T00:39:30.807Z,,0,,,NaN,,,,,,false,,,,274468.2000002861,274468.2000002861,,274468.10000038147,,274497.7,8,400,,,
sequence,flow.Sequence,4_35,2023-09-12T00:39:30.807Z,,0,,,5999.00100028608,completion,,,,,false,,,,274468.30000019073,274468.2000002861,268452.516,268461.2000002861,268469.199,274497.7,8,400,,,
trial,html.Screen,4_36_0,2023-09-12T00:39:36.009Z,,0,1,,5171.700000095356,response,ISIC_0413804.JPG,4,ISIC_5948901.JPG,ISIC_5948901.JPG,false,0,keypress(z),500,279669.80000019073,279669.40000009537,274480.91,274468.40000009537,274497.7,279691.047,8,400,37,,ISIC_0413804.JPG
break,html.Screen,4_36_1,2023-09-12T00:39:36.010Z,,0,,,NaN,,,,,,false,,,,279671.40000009537,279671,,279670.30000019073,,279691.047,8,400,,,
break_continue,html.Screen,4_36_2,2023-09-12T00:39:36.011Z,,0,,,NaN,,,,,,false,,,,279672.30000019073,279672.10000038147,,279671.7000002861,,279691.047,8,400,,,
sequence,flow.Sequence,4_36,2023-09-12T00:39:36.011Z,,0,,,5174.400000381458,completion,,,,,false,,,,279672.60000038147,279672.10000038147,274480.91,274468.40000009537,274497.7,279691.047,8,400,,,
trial,html.Screen,4_37_0,2023-09-12T00:39:40.833Z,,0,1,,4802.9529999999795,response,ISIC_0030824.JPG,6,ISIC_6531118.JPG,ISIC_0030824.JPG,false,1,keypress(m),500,284494.2000002861,284494,279674.414,279672.90000009537,279691.047,284517.116,8,400,38,,ISIC_6531118.JPG
break,html.Screen,4_37_1,2023-09-12T00:39:40.833Z,,0,,,NaN,,,,,,false,,,,284494.5,284494.40000009537,,284494.2000002861,,284517.116,8,400,,,
break_continue,html.Screen,4_37_2,2023-09-12T00:39:40.834Z,,0,,,NaN,,,,,,false,,,,284494.7000002861,284494.7000002861,,284494.60000038147,,284517.116,8,400,,,
sequence,flow.Sequence,4_37,2023-09-12T00:39:40.834Z,,0,,,4803.653000286082,completion,,,,,false,,,,284494.80000019073,284494.7000002861,279674.414,279672.90000009537,279691.047,284517.116,8,400,,,
trial,html.Screen,4_38_0,2023-09-12T00:39:46.421Z,,0,1,,5564.98400038149,response,ISIC_6613079.JPG,5,ISIC_9509813.JPG,ISIC_9509813.JPG,false,0,keypress(z),500,290082.2000002861,290082.10000038147,284500.396,284494.80000019073,284517.116,290094.774,8,400,39,,ISIC_6613079.JPG
break,html.Screen,4_38_1,2023-09-12T00:39:46.422Z,,0,,,NaN,,,,,,false,,,,290082.90000009537,290082.7000002861,,290082.30000019073,,290094.774,8,400,,,
break_continue,html.Screen,4_38_2,2023-09-12T00:39:46.422Z,,0,,,NaN,,,,,,false,,,,290083.10000038147,290083.10000038147,,290083,,290094.774,8,400,,,
sequence,flow.Sequence,4_38,2023-09-12T00:39:46.422Z,,0,,,5565.98400038149,completion,,,,,false,,,,290083.2000002861,290083.10000038147,284500.396,284494.80000019073,284517.116,290094.774,8,400,,,
trial,html.Screen,4_39_0,2023-09-12T00:39:51.019Z,,0,1,,4585.4260002861265,response,ISIC_4412555.JPG,5,ISIC_2733043.JPG,ISIC_4412555.JPG,false,1,keypress(m),500,294680.30000019073,294680.2000002861,290078.012,290083.2000002861,290094.774,294687.125,8,400,40,,ISIC_2733043.JPG
break,html.Screen,4_39_1,2023-09-12T00:39:51.020Z,,0,,,NaN,,,,,,false,,,,294680.90000009537,294680.7000002861,,294680.40000009537,,294687.125,8,400,,,
break_continue,html.Screen,4_39_2,2023-09-12T00:39:51.020Z,,0,,,NaN,,,,,,false,,,,294681.10000038147,294681.10000038147,,294681,,294687.125,8,400,,,
sequence,flow.Sequence,4_39,2023-09-12T00:39:51.020Z,,0,,,4586.326000381494,completion,,,,,false,,,,294681.2000002861,294681.10000038147,290078.012,290083.2000002861,290094.774,294687.125,8,400,,,
trial,html.Screen,4_40_0,2023-09-12T00:39:57.188Z,,0,1,,6161.575000286102,response,ISIC_0011349.JPG,5,ISIC_3893354.JPG,ISIC_0011349.JPG,false,1,keypress(m),500,300848.90000009537,300848.7000002861,294670.191,294681.30000019073,294687.125,300865.544,8,400,41,,ISIC_3893354.JPG
break,html.Screen,4_40_1,2023-09-12T00:39:57.190Z,,0,,,NaN,,,,,,false,,,,300850.7000002861,300850.10000038147,,300849.40000009537,,300865.544,8,400,,,
break_continue,html.Screen,4_40_2,2023-09-12T00:39:57.191Z,,0,,,NaN,,,,,,false,,,,300851.40000009537,300851.2000002861,,300850.90000009537,,300865.544,8,400,,,
sequence,flow.Sequence,4_40,2023-09-12T00:39:57.191Z,,0,,,6164.075000286102,completion,,,,,false,,,,300851.7000002861,300851.2000002861,294670.191,294681.2000002861,294687.125,300865.544,8,400,,,
trial,html.Screen,4_41_0,2023-09-12T00:40:02.058Z,,0,1,,4852.856000095373,response,ISIC_5386244.JPG,6,ISIC_0056771.JPG,ISIC_0056771.JPG,false,0,keypress(z),500,305718.5,305718.40000009537,300848.856,300852,300865.544,305725.036,8,400,42,,ISIC_5386244.JPG
break,html.Screen,4_41_1,2023-09-12T00:40:02.058Z,,0,,,NaN,,,,,,false,,,,305719,305718.90000009537,,305718.60000038147,,305725.036,8,400,,,
break_continue,html.Screen,4_41_2,2023-09-12T00:40:02.058Z,,0,,,NaN,,,,,,false,,,,305719.40000009537,305719.2000002861,,305719.10000038147,,305725.036,8,400,,,
sequence,flow.Sequence,4_41,2023-09-12T00:40:02.059Z,,0,,,4853.656000286108,completion,,,,,false,,,,305719.5,305719.2000002861,300848.856,300852,300865.544,305725.036,8,400,,,
trial,html.Screen,4_42_0,2023-09-12T00:40:07.199Z,,0,1,,5134.864000095346,response,ISIC_7919133.JPG,6,ISIC_0056692.JPG,ISIC_0056692.JPG,false,0,keypress(z),500,310860.10000038147,310859.90000009537,305708.441,305719.5,305725.036,310885.121,8,400,43,,ISIC_7919133.JPG
break,html.Screen,4_42_1,2023-09-12T00:40:07.200Z,,0,,,NaN,,,,,,false,,,,310860.5,310860.30000019073,,310860.2000002861,,310885.121,8,400,,,
break_continue,html.Screen,4_42_2,2023-09-12T00:40:07.200Z,,0,,,NaN,,,,,,false,,,,310860.60000038147,310860.60000038147,,310860.5,,310885.121,8,400,,,
sequence,flow.Sequence,4_42,2023-09-12T00:40:07.200Z,,0,,,5135.564000381448,completion,,,,,false,,,,310860.7000002861,310860.60000038147,305708.441,305719.5,305725.036,310885.121,8,400,,,
trial,html.Screen,4_43_0,2023-09-12T00:40:12.050Z,,0,1,,4825.279000095383,response,ISIC_0055079.JPG,6,ISIC_0058529.JPG,ISIC_0055079.JPG,false,1,keypress(m),500,315710.60000038147,315710.40000009537,310868.423,310860.7000002861,310885.121,315727.85,8,400,44,,ISIC_0058529.JPG
break,html.Screen,4_43_1,2023-09-12T00:40:12.051Z,,0,,,NaN,,,,,,false,,,,315711.5,315711.2000002861,,315710.7000002861,,315727.85,8,400,,,
break_continue,html.Screen,4_43_2,2023-09-12T00:40:12.051Z,,0,,,NaN,,,,,,false,,,,315711.90000009537,315711.80000019073,,315711.60000038147,,315727.85,8,400,,,
sequence,flow.Sequence,4_43,2023-09-12T00:40:12.051Z,,0,,,4826.67900019075,completion,,,,,false,,,,315712.10000038147,315711.80000019073,310868.423,310860.7000002861,310885.121,315727.85,8,400,,,
trial,html.Screen,4_44_0,2023-09-12T00:40:17.175Z,,0,1,,5107.350000286126,response,ISIC_0011752.JPG,4,ISIC_2395624.JPG,ISIC_0011752.JPG,false,1,keypress(m),500,320835.7000002861,320835.2000002861,315711.196,315712.10000038147,315727.85,320854.519,8,400,45,,ISIC_2395624.JPG
break,html.Screen,4_44_1,2023-09-12T00:40:17.177Z,,0,,,NaN,,,,,,false,,,,320837.60000038147,320837.10000038147,,320836.2000002861,,320854.519,8,400,,,
break_continue,html.Screen,4_44_2,2023-09-12T00:40:17.178Z,,0,,,NaN,,,,,,false,,,,320838.40000009537,320838.2000002861,,320837.80000019073,,320854.519,8,400,,,
sequence,flow.Sequence,4_44,2023-09-12T00:40:17.178Z,,0,,,5110.350000286126,completion,,,,,false,,,,320838.7000002861,320838.2000002861,315711.196,315712.10000038147,315727.85,320854.519,8,400,,,
trial,html.Screen,4_45_0,2023-09-12T00:40:22.878Z,,0,1,,5684.681000286131,response,ISIC_1438269.JPG,5,ISIC_6590303.JPG,ISIC_6590303.JPG,false,0,keypress(z),500,326539.30000019073,326539.2000002861,320837.788,320838.90000009537,320854.519,326548.922,8,400,46,,ISIC_1438269.JPG
break,html.Screen,4_45_1,2023-09-12T00:40:22.879Z,,0,,,NaN,,,,,,false,,,,326539.80000019073,326539.60000038147,,326539.40000009537,,326548.922,8,400,,,
break_continue,html.Screen,4_45_2,2023-09-12T00:40:22.879Z,,0,,,NaN,,,,,,false,,,,326539.90000009537,326539.90000009537,,326539.90000009537,,326548.922,8,400,,,
sequence,flow.Sequence,4_45,2023-09-12T00:40:22.879Z,,0,,,5685.381000095396,completion,,,,,false,,,,326540,326539.90000009537,320837.788,320838.90000009537,320854.519,326548.922,8,400,,,
trial,html.Screen,4_46_0,2023-09-12T00:40:28.289Z,,0,1,,5400.378000190714,response,ISIC_0054422.JPG,4,ISIC_0024294.JPG,ISIC_0054422.JPG,false,1,keypress(m),500,331949.5,331949.30000019073,326532.279,326540.10000038147,326548.922,331959.626,8,400,47,,ISIC_0024294.JPG
break,html.Screen,4_46_1,2023-09-12T00:40:28.289Z,,0,,,NaN,,,,,,false,,,,331949.90000009537,331949.80000019073,,331949.5,,331959.626,8,400,,,
break_continue,html.Screen,4_46_2,2023-09-12T00:40:28.289Z,,0,,,NaN,,,,,,false,,,,331950.10000038147,331950,,331949.90000009537,,331959.626,8,400,,,
sequence,flow.Sequence,4_46,2023-09-12T00:40:28.289Z,,0,,,5401.0779999999795,completion,,,,,false,,,,331950.2000002861,331950,326532.279,326540,326548.922,331959.626,8,400,,,
trial,html.Screen,4_47_0,2023-09-12T00:40:32.506Z,,0,1,,4206.774000095378,response,ISIC_9422630.JPG,5,ISIC_0028136.JPG,ISIC_9422630.JPG,false,1,keypress(m),500,336166.5,336166.40000009537,331942.819,331950.2000002861,331959.626,336167.572,8,400,48,,ISIC_0028136.JPG
break,html.Screen,4_47_1,2023-09-12T00:40:32.506Z,,0,,,NaN,,,,,,false,,,,336167,336166.90000009537,,336166.60000038147,,336167.572,8,400,,,
break_continue,html.Screen,4_47_2,2023-09-12T00:40:32.506Z,,0,,,NaN,,,,,,false,,,,336167.2000002861,336167.2000002861,,336167.10000038147,,336167.572,8,400,,,
sequence,flow.Sequence,4_47,2023-09-12T00:40:32.507Z,,0,,,4207.574000286113,completion,,,,,false,,,,336167.30000019073,336167.2000002861,331942.819,331950.2000002861,331959.626,336167.572,8,400,,,
trial,html.Screen,4_48_0,2023-09-12T00:40:38.065Z,,0,1,,5558.128000286117,response,ISIC_6162545.JPG,6,ISIC_0059864.JPG,ISIC_6162545.JPG,false,1,keypress(m),500,341725.90000009537,341725.7000002861,336150.927,336167.5,336167.572,341728.463,8,400,49,,ISIC_0059864.JPG
break,html.Screen,4_48_1,2023-09-12T00:40:38.065Z,,0,,,NaN,,,,,,false,,,,341726.40000009537,341726.30000019073,,341726,,341728.463,8,400,,,
break_continue,html.Screen,4_48_2,2023-09-12T00:40:38.066Z,,0,,,NaN,,,,,,false,,,,341726.5,341726.40000009537,,341726.40000009537,,341728.463,8,400,,,
sequence,flow.Sequence,4_48,2023-09-12T00:40:38.066Z,,0,,,5558.828000095382,completion,,,,,false,,,,341726.5,341726.40000009537,336150.927,336167.40000009537,336167.572,341728.463,8,400,,,
trial,html.Screen,4_49_0,2023-09-12T00:40:44.359Z,,0,1,,6291.437000095379,response,ISIC_9612228.JPG,5,ISIC_0066262.JPG,ISIC_0066262.JPG,false,0,keypress(z),500,348020.30000019073,348019.90000009537,341711.721,341726.60000038147,341728.463,348024.028,8,400,50,,ISIC_9612228.JPG
break,html.Screen,4_49_1,2023-09-12T00:40:54.352Z,,0,,,10002.955000000016,timeout,,,,,false,,,,358012.7000002861,358010.313,348007.324,348020.60000038147,348024.028,358026.983,8,400,,,
break_continue,html.Screen,4_49_2,2023-09-12T00:40:56.842Z,,0,,,2461.3170001907274,response,,,,,false,continue,keypress(Space),,360502.40000009537,360488.30000019073,358010.313,358013.2000002861,358026.983,360515.099,8,400,,,
sequence,flow.Sequence,4_49,2023-09-12T00:40:56.842Z,,0,,,18759.837000190746,completion,,,,,false,,,,360502.60000038147,360488.30000019073,341711.721,341726.60000038147,341728.463,360515.099,8,400,,,
trial,html.Screen,4_50_0,2023-09-12T00:41:01.740Z,,0,2,,4885.101000286115,response,ISIC_0034065.JPG,5,ISIC_0014844.JPG,ISIC_0034065.JPG,false,1,keypress(m),500,365400.30000019073,365400.2000002861,360498.403,360502.7000002861,360515.099,365407.806,8,400,1,,ISIC_0014844.JPG
break,html.Screen,4_50_1,2023-09-12T00:41:01.740Z,,0,,,NaN,,,,,,false,,,,365400.90000009537,365400.7000002861,,365400.5,,365407.806,8,400,,,
break_continue,html.Screen,4_50_2,2023-09-12T00:41:01.741Z,,0,,,NaN,,,,,,false,,,,365401.30000019073,365401.10000038147,,365401.10000038147,,365407.806,8,400,,,
sequence,flow.Sequence,4_50,2023-09-12T00:41:01.741Z,,0,,,4886.001000381482,completion,,,,,false,,,,365401.30000019073,365401.10000038147,360498.403,360502.60000038147,360515.099,365407.806,8,400,,,
trial,html.Screen,4_51_0,2023-09-12T00:41:06.318Z,,0,2,,4570.294000381487,response,ISIC_6250970.JPG,4,ISIC_0024802.JPG,ISIC_0024802.JPG,false,0,keypress(z),500,369978.2000002861,369978.10000038147,365391.309,365401.40000009537,365407.806,369983.377,8,400,2,,ISIC_6250970.JPG
break,html.Screen,4_51_1,2023-09-12T00:41:06.318Z,,0,,,NaN,,,,,,false,,,,369978.7000002861,369978.60000038147,,369978.40000009537,,369983.377,8,400,,,
break_continue,html.Screen,4_51_2,2023-09-12T00:41:06.318Z,,0,,,NaN,,,,,,false,,,,369978.80000019073,369978.80000019073,,369978.7000002861,,369983.377,8,400,,,
sequence,flow.Sequence,4_51,2023-09-12T00:41:06.318Z,,0,,,4570.994000190753,completion,,,,,false,,,,369978.90000009537,369978.80000019073,365391.309,365401.40000009537,365407.806,369983.377,8,400,,,
trial,html.Screen,4_52_0,2023-09-12T00:41:10.610Z,,0,2,,4286.923000190756,response,ISIC_9072309.JPG,4,ISIC_9358630.JPG,ISIC_9358630.JPG,false,0,keypress(z),500,374270.40000009537,374270.30000019073,369966.85,369979,369983.377,374291.788,8,400,3,,ISIC_9072309.JPG
break,html.Screen,4_52_1,2023-09-12T00:41:10.610Z,,0,,,NaN,,,,,,false,,,,374270.80000019073,374270.7000002861,,374270.60000038147,,374291.788,8,400,,,
break_continue,html.Screen,4_52_2,2023-09-12T00:41:10.610Z,,0,,,NaN,,,,,,false,,,,374271,374271,,374270.90000009537,,374291.788,8,400,,,
sequence,flow.Sequence,4_52,2023-09-12T00:41:10.611Z,,0,,,4287.623000000021,completion,,,,,false,,,,374271.10000038147,374271,369966.85,369979,369983.377,374291.788,8,400,,,
trial,html.Screen,4_53_0,2023-09-12T00:41:15.092Z,,0,2,,4460.2119999999995,response,ISIC_0030725.JPG,5,ISIC_0034022.JPG,ISIC_0034022.JPG,false,0,keypress(z),500,378752.10000038147,378752,374275.103,374271.2000002861,374291.788,378767.331,8,400,4,,ISIC_0030725.JPG
break,html.Screen,4_53_1,2023-09-12T00:41:15.092Z,,0,,,NaN,,,,,,false,,,,378752.7000002861,378752.5,,378752.30000019073,,378767.331,8,400,,,
break_continue,html.Screen,4_53_2,2023-09-12T00:41:15.092Z,,0,,,NaN,,,,,,false,,,,378752.90000009537,378752.90000009537,,378752.7000002861,,378767.331,8,400,,,
sequence,flow.Sequence,4_53,2023-09-12T00:41:15.092Z,,0,,,4461.112000095367,completion,,,,,false,,,,378753,378752.90000009537,374275.103,374271.2000002861,374291.788,378767.331,8,400,,,
trial,html.Screen,4_54_0,2023-09-12T00:41:19.390Z,,0,2,,4282.668999999994,response,ISIC_4081632.JPG,4,ISIC_1185006.JPG,ISIC_1185006.JPG,false,0,keypress(z),500,383050.10000038147,383050,378750.657,378753.10000038147,378767.331,383058.833,8,400,5,,ISIC_4081632.JPG
break,html.Screen,4_54_1,2023-09-12T00:41:19.390Z,,0,,,NaN,,,,,,false,,,,383050.5,383050.40000009537,,383050.30000019073,,383058.833,8,400,,,
break_continue,html.Screen,4_54_2,2023-09-12T00:41:19.390Z,,0,,,NaN,,,,,,false,,,,383050.7000002861,383050.60000038147,,383050.5,,383058.833,8,400,,,
sequence,flow.Sequence,4_54,2023-09-12T00:41:19.390Z,,0,,,4283.269000381464,completion,,,,,false,,,,383050.80000019073,383050.60000038147,378750.657,378753,378767.331,383058.833,8,400,,,
trial,html.Screen,4_55_0,2023-09-12T00:41:25.407Z,,0,2,,6008.767000381486,response,ISIC_0011007.JPG,5,ISIC_0062099.JPG,ISIC_0011007.JPG,false,1,keypress(m),500,389067.7000002861,389067.60000038147,383042.263,383050.80000019073,383058.833,389070.576,8,400,6,,ISIC_0062099.JPG
break,html.Screen,4_55_1,2023-09-12T00:41:25.408Z,,0,,,NaN,,,,,,false,,,,389068.2000002861,389068.10000038147,,389067.90000009537,,389070.576,8,400,,,
break_continue,html.Screen,4_55_2,2023-09-12T00:41:25.408Z,,0,,,NaN,,,,,,false,,,,389068.5,389068.40000009537,,389068.30000019073,,389070.576,8,400,,,
sequence,flow.Sequence,4_55,2023-09-12T00:41:25.408Z,,0,,,6009.567000095383,completion,,,,,false,,,,389068.60000038147,389068.40000009537,383042.263,383050.80000019073,383058.833,389070.576,8,400,,,
trial,html.Screen,4_56_0,2023-09-12T00:41:30.378Z,,0,2,,4967.524000381469,response,ISIC_3378691.JPG,4,ISIC_2801008.JPG,ISIC_3378691.JPG,false,1,keypress(m),500,394038.30000019073,394038.10000038147,389053.971,389068.60000038147,389070.576,394047.133,8,400,7,,ISIC_2801008.JPG
break,html.Screen,4_56_1,2023-09-12T00:41:30.378Z,,0,,,NaN,,,,,,false,,,,394038.80000019073,394038.60000038147,,394038.40000009537,,394047.133,8,400,,,
break_continue,html.Screen,4_56_2,2023-09-12T00:41:30.378Z,,0,,,NaN,,,,,,false,,,,394038.90000009537,394038.80000019073,,394038.80000019073,,394047.133,8,400,,,
sequence,flow.Sequence,4_56,2023-09-12T00:41:30.378Z,,0,,,4968.224000190734,completion,,,,,false,,,,394038.90000009537,394038.80000019073,389053.971,389068.60000038147,389070.576,394047.133,8,400,,,
trial,html.Screen,4_57_0,2023-09-12T00:41:34.732Z,,0,2,,4345.267000095395,response,ISIC_9513918.JPG,6,ISIC_7939816.JPG,ISIC_9513918.JPG,false,1,keypress(m),500,398392.60000038147,398392.40000009537,394030.367,394039.10000038147,394047.133,398405.403,8,400,8,,ISIC_7939816.JPG
break,html.Screen,4_57_1,2023-09-12T00:41:34.733Z,,0,,,NaN,,,,,,false,,,,398393.30000019073,398393.10000038147,,398392.7000002861,,398405.403,8,400,,,
break_continue,html.Screen,4_57_2,2023-09-12T00:41:34.733Z,,0,,,NaN,,,,,,false,,,,398393.7000002861,398393.60000038147,,398393.5,,398405.403,8,400,,,
sequence,flow.Sequence,4_57,2023-09-12T00:41:34.733Z,,0,,,4346.467000381497,completion,,,,,false,,,,398393.80000019073,398393.60000038147,394030.367,394039,394047.133,398405.403,8,400,,,
trial,html.Screen,4_58_0,2023-09-12T00:41:40.817Z,,0,2,,6071.897000190744,response,ISIC_0006672.JPG,5,ISIC_0032549.JPG,ISIC_0032549.JPG,false,0,keypress(z),500,404477.40000009537,404477.30000019073,398388.649,398393.90000009537,398405.403,404483.845,8,400,9,,ISIC_0006672.JPG
break,html.Screen,4_58_1,2023-09-12T00:41:40.817Z,,0,,,NaN,,,,,,false,,,,404477.90000009537,404477.7000002861,,404477.5,,404483.845,8,400,,,
break_continue,html.Screen,4_58_2,2023-09-12T00:41:40.818Z,,0,,,NaN,,,,,,false,,,,404478.2000002861,404478.2000002861,,404478.10000038147,,404483.845,8,400,,,
sequence,flow.Sequence,4_58,2023-09-12T00:41:40.818Z,,0,,,6072.797000286111,completion,,,,,false,,,,404478.40000009537,404478.2000002861,398388.649,398393.80000019073,398405.403,404483.845,8,400,,,
trial,html.Screen,4_59_0,2023-09-12T00:41:46.005Z,,0,2,,5181.055000095395,response,ISIC_0990298.JPG,5,ISIC_0013792.JPG,ISIC_0990298.JPG,false,1,keypress(m),500,409665.30000019073,409664.90000009537,404467.328,404478.5,404483.845,409677.373,8,400,10,,ISIC_0013792.JPG
break,html.Screen,4_59_1,2023-09-12T00:41:46.007Z,,0,,,NaN,,,,,,false,,,,409667.40000009537,409666.90000009537,,409666.10000038147,,409677.373,8,400,,,
break_continue,html.Screen,4_59_2,2023-09-12T00:41:46.008Z,,0,,,NaN,,,,,,false,,,,409668.2000002861,409668,,409667.60000038147,,409677.373,8,400,,,
sequence,flow.Sequence,4_59,2023-09-12T00:41:46.008Z,,0,,,5184.155000000028,completion,,,,,false,,,,409668.7000002861,409668,404467.328,404478.40000009537,404483.845,409677.373,8,400,,,
trial,html.Screen,4_60_0,2023-09-12T00:41:50.235Z,,0,2,,4218.126999999979,response,ISIC_0013840.JPG,5,ISIC_6970607.JPG,ISIC_0013840.JPG,false,1,keypress(m),500,413895.7000002861,413895.5,409660.807,409669,409677.373,413902.18,8,400,11,,ISIC_6970607.JPG
break,html.Screen,4_60_1,2023-09-12T00:41:50.236Z,,0,,,NaN,,,,,,false,,,,413896.2000002861,413896,,413895.80000019073,,413902.18,8,400,,,
break_continue,html.Screen,4_60_2,2023-09-12T00:41:50.236Z,,0,,,NaN,,,,,,false,,,,413896.5,413896.5,,413896.30000019073,,413902.18,8,400,,,
sequence,flow.Sequence,4_60,2023-09-12T00:41:50.236Z,,0,,,4219.126999999979,completion,,,,,false,,,,413896.60000038147,413896.5,409660.807,409668.90000009537,409677.373,413902.18,8,400,,,
trial,html.Screen,4_61_0,2023-09-12T00:41:55.006Z,,0,2,,4764.020000286109,response,ISIC_3478473.JPG,5,ISIC_6717322.JPG,ISIC_3478473.JPG,false,1,keypress(m),500,418666.30000019073,418666.2000002861,413885.684,413896.60000038147,413902.18,418678.213,8,400,12,,ISIC_6717322.JPG
break,html.Screen,4_61_1,2023-09-12T00:41:55.006Z,,0,,,NaN,,,,,,false,,,,418667,418666.90000009537,,418666.5,,418678.213,8,400,,,
break_continue,html.Screen,4_61_2,2023-09-12T00:41:55.007Z,,0,,,NaN,,,,,,false,,,,418667.2000002861,418667.10000038147,,418667.10000038147,,418678.213,8,400,,,
sequence,flow.Sequence,4_61,2023-09-12T00:41:55.007Z,,0,,,4764.920000381477,completion,,,,,false,,,,418667.30000019073,418667.10000038147,413885.684,413896.60000038147,413902.18,418678.213,8,400,,,
trial,html.Screen,4_62_0,2023-09-12T00:41:59.524Z,,0,2,,4505.787000000011,response,ISIC_1461068.JPG,5,ISIC_0069093.JPG,ISIC_0069093.JPG,false,0,keypress(z),500,423184.2000002861,423184,418661.457,418667.40000009537,418678.213,423186.921,8,400,13,,ISIC_1461068.JPG
break,html.Screen,4_62_1,2023-09-12T00:41:59.524Z,,0,,,NaN,,,,,,false,,,,423184.60000038147,423184.5,,423184.30000019073,,423186.921,8,400,,,
break_continue,html.Screen,4_62_2,2023-09-12T00:41:59.524Z,,0,,,NaN,,,,,,false,,,,423184.80000019073,423184.80000019073,,423184.7000002861,,423186.921,8,400,,,
sequence,flow.Sequence,4_62,2023-09-12T00:41:59.524Z,,0,,,4506.587000190746,completion,,,,,false,,,,423184.90000009537,423184.80000019073,418661.457,418667.40000009537,418678.213,423186.921,8,400,,,
trial,html.Screen,4_63_0,2023-09-12T00:42:05.310Z,,0,2,,5783.079000000027,response,ISIC_8803600.JPG,5,ISIC_0031146.JPG,ISIC_0031146.JPG,false,0,keypress(z),500,428970.2000002861,428970,423170.354,423185,423186.921,428981.658,8,400,14,,ISIC_8803600.JPG
break,html.Screen,4_63_1,2023-09-12T00:42:05.312Z,,0,,,NaN,,,,,,false,,,,428972.30000019073,428971.5,,428970.7000002861,,428981.658,8,400,,,
break_continue,html.Screen,4_63_2,2023-09-12T00:42:05.313Z,,0,,,NaN,,,,,,false,,,,428973.2000002861,428972.80000019073,,428972.5,,428981.658,8,400,,,
sequence,flow.Sequence,4_63,2023-09-12T00:42:05.313Z,,0,,,5785.879000190762,completion,,,,,false,,,,428973.5,428972.80000019073,423170.354,423185,423186.921,428981.658,8,400,,,
trial,html.Screen,4_64_0,2023-09-12T00:42:10.645Z,,0,2,,5323.842000000004,response,ISIC_2562668.JPG,6,ISIC_0030974.JPG,ISIC_0030974.JPG,false,0,keypress(z),500,434305.7000002861,434305.5,428964.978,428973.7000002861,428981.658,434308.621,8,400,15,,ISIC_2562668.JPG
break,html.Screen,4_64_1,2023-09-12T00:42:10.646Z,,0,,,NaN,,,,,,false,,,,434306.5,434306.30000019073,,434305.90000009537,,434308.621,8,400,,,
break_continue,html.Screen,4_64_2,2023-09-12T00:42:10.646Z,,0,,,NaN,,,,,,false,,,,434306.80000019073,434306.80000019073,,434306.60000038147,,434308.621,8,400,,,
sequence,flow.Sequence,4_64,2023-09-12T00:42:10.647Z,,0,,,5325.142000190739,completion,,,,,false,,,,434307,434306.80000019073,428964.978,428973.7000002861,428981.658,434308.621,8,400,,,
trial,html.Screen,4_65_0,2023-09-12T00:42:14.920Z,,0,2,,4272.079000286118,response,ISIC_8483458.JPG,5,ISIC_1925590.JPG,ISIC_1925590.JPG,false,0,keypress(z),500,438580.7000002861,438580.7000002861,434291.919,434307.10000038147,434308.621,438583.555,8,400,16,,ISIC_8483458.JPG
break,html.Screen,4_65_1,2023-09-12T00:42:14.921Z,,0,,,NaN,,,,,,false,,,,438581.10000038147,438581.10000038147,,438580.90000009537,,438583.555,8,400,,,
break_continue,html.Screen,4_65_2,2023-09-12T00:42:14.921Z,,0,,,NaN,,,,,,false,,,,438581.40000009537,438581.30000019073,,438581.2000002861,,438583.555,8,400,,,
sequence,flow.Sequence,4_65,2023-09-12T00:42:14.921Z,,0,,,4272.67900019075,completion,,,,,false,,,,438581.5,438581.30000019073,434291.919,434307,434308.621,438583.555,8,400,,,
trial,html.Screen,4_66_0,2023-09-12T00:42:19.547Z,,0,2,,4623.745000190742,response,ISIC_3556980.JPG,5,ISIC_0011500.JPG,ISIC_0011500.JPG,false,0,keypress(z),500,443207.40000009537,443207.30000019073,438566.945,438581.60000038147,438583.555,443209.244,8,400,17,,ISIC_3556980.JPG
break,html.Screen,4_66_1,2023-09-12T00:42:19.547Z,,0,,,NaN,,,,,,false,,,,443207.80000019073,443207.7000002861,,443207.60000038147,,443209.244,8,400,,,
break_continue,html.Screen,4_66_2,2023-09-12T00:42:19.547Z,,0,,,NaN,,,,,,false,,,,443208,443207.90000009537,,443207.80000019073,,443209.244,8,400,,,
sequence,flow.Sequence,4_66,2023-09-12T00:42:19.548Z,,0,,,4624.345000095374,completion,,,,,false,,,,443208.10000038147,443207.90000009537,438566.945,438581.60000038147,438583.555,443209.244,8,400,,,
trial,html.Screen,4_67_0,2023-09-12T00:42:24.802Z,,0,2,,5252.656000095361,response,ISIC_7935989.JPG,6,ISIC_9720518.JPG,ISIC_7935989.JPG,false,1,keypress(m),500,448462,448461.90000009537,443192.658,443208.10000038147,443209.244,448486.19,8,400,18,,ISIC_9720518.JPG
break,html.Screen,4_67_1,2023-09-12T00:42:24.802Z,,0,,,NaN,,,,,,false,,,,448462.40000009537,448462.40000009537,,448462.10000038147,,448486.19,8,400,,,
break_continue,html.Screen,4_67_2,2023-09-12T00:42:24.802Z,,0,,,NaN,,,,,,false,,,,448462.60000038147,448462.60000038147,,448462.5,,448486.19,8,400,,,
sequence,flow.Sequence,4_67,2023-09-12T00:42:24.802Z,,0,,,5253.356000381464,completion,,,,,false,,,,448462.7000002861,448462.60000038147,443192.658,443208.10000038147,443209.244,448486.19,8,400,,,
trial,html.Screen,4_68_0,2023-09-12T00:42:29.785Z,,0,2,,4959.0100002861,response,ISIC_0009880.JPG,5,ISIC_4320200.JPG,ISIC_4320200.JPG,false,0,keypress(z),500,453445.40000009537,453445.2000002861,448469.554,448462.7000002861,448486.19,453462.539,8,400,19,,ISIC_0009880.JPG
break,html.Screen,4_68_1,2023-09-12T00:42:29.786Z,,0,,,NaN,,,,,,false,,,,453446.40000009537,453446,,453445.60000038147,,453462.539,8,400,,,
break_continue,html.Screen,4_68_2,2023-09-12T00:42:29.786Z,,0,,,NaN,,,,,,false,,,,453446.80000019073,453446.7000002861,,453446.5,,453462.539,8,400,,,
sequence,flow.Sequence,4_68,2023-09-12T00:42:29.786Z,,0,,,4960.5100002861,completion,,,,,false,,,,453446.90000009537,453446.7000002861,448469.554,448462.7000002861,448486.19,453462.539,8,400,,,
trial,html.Screen,4_69_0,2023-09-12T00:42:36.732Z,,0,2,,6929.96100000001,response,ISIC_3950753.JPG,5,ISIC_1912589.JPG,ISIC_1912589.JPG,false,0,keypress(z),500,460393,460392.5,453445.808,453447.10000038147,453462.539,460409.605,8,400,20,,ISIC_3950753.JPG
break,html.Screen,4_69_1,2023-09-12T00:42:36.734Z,,0,,,NaN,,,,,,false,,,,460394,460393.80000019073,,460393.30000019073,,460409.605,8,400,,,
break_continue,html.Screen,4_69_2,2023-09-12T00:42:36.734Z,,0,,,NaN,,,,,,false,,,,460394.30000019073,460394.30000019073,,460394.2000002861,,460409.605,8,400,,,
sequence,flow.Sequence,4_69,2023-09-12T00:42:36.734Z,,0,,,6931.761000190745,completion,,,,,false,,,,460394.5,460394.30000019073,453445.808,453447.10000038147,453462.539,460409.605,8,400,,,
trial,html.Screen,4_70_0,2023-09-12T00:42:41.425Z,,0,2,,4675.795000095386,response,ISIC_0958701.JPG,5,ISIC_0055820.JPG,ISIC_0055820.JPG,false,0,keypress(z),500,465085.60000038147,465085.40000009537,460392.671,460394.7000002861,460409.605,465101.836,8,400,21,,ISIC_0958701.JPG
break,html.Screen,4_70_1,2023-09-12T00:42:41.426Z,,0,,,NaN,,,,,,false,,,,465086.2000002861,465086.10000038147,,465085.7000002861,,465101.836,8,400,,,
break_continue,html.Screen,4_70_2,2023-09-12T00:42:41.426Z,,0,,,NaN,,,,,,false,,,,465086.60000038147,465086.5,,465086.30000019073,,465101.836,8,400,,,
sequence,flow.Sequence,4_70,2023-09-12T00:42:41.426Z,,0,,,4676.895000000019,completion,,,,,false,,,,465086.80000019073,465086.5,460392.671,460394.7000002861,460409.605,465101.836,8,400,,,
trial,html.Screen,4_71_0,2023-09-12T00:42:45.804Z,,0,2,,4362.064000095357,response,ISIC_3485482.JPG,5,ISIC_9667297.JPG,ISIC_3485482.JPG,false,1,keypress(m),500,469464,469463.90000009537,465085.308,465086.80000019073,465101.836,469477.059,8,400,22,,ISIC_9667297.JPG
break,html.Screen,4_71_1,2023-09-12T00:42:45.804Z,,0,,,NaN,,,,,,false,,,,469464.7000002861,469464.5,,469464.2000002861,,469477.059,8,400,,,
break_continue,html.Screen,4_71_2,2023-09-12T00:42:45.805Z,,0,,,NaN,,,,,,false,,,,469465.10000038147,469465,,469464.80000019073,,469477.059,8,400,,,
sequence,flow.Sequence,4_71,2023-09-12T00:42:45.805Z,,0,,,4363.16399999999,completion,,,,,false,,,,469465.2000002861,469465,465085.308,465086.80000019073,465101.836,469477.059,8,400,,,
trial,html.Screen,4_72_0,2023-09-12T00:42:50.721Z,,0,2,,4903.940999999992,response,ISIC_0000168.JPG,6,ISIC_0070447.JPG,ISIC_0000168.JPG,false,1,keypress(m),500,474381.10000038147,474381,469460.365,469465.30000019073,469477.059,474386.659,8,400,23,,ISIC_0070447.JPG
break,html.Screen,4_72_1,2023-09-12T00:42:50.721Z,,0,,,NaN,,,,,,false,,,,474381.90000009537,474381.60000038147,,474381.2000002861,,474386.659,8,400,,,
break_continue,html.Screen,4_72_2,2023-09-12T00:42:50.722Z,,0,,,NaN,,,,,,false,,,,474382.30000019073,474382.2000002861,,474382,,474386.659,8,400,,,
sequence,flow.Sequence,4_72,2023-09-12T00:42:50.722Z,,0,,,4905.141000286094,completion,,,,,false,,,,474382.40000009537,474382.2000002861,469460.365,469465.30000019073,469477.059,474386.659,8,400,,,
trial,html.Screen,4_73_0,2023-09-12T00:42:55.027Z,,0,2,,4300.941000381485,response,ISIC_9808863.JPG,5,ISIC_0740449.JPG,ISIC_0740449.JPG,false,0,keypress(z),500,478687.80000019073,478687.60000038147,474369.965,474382.5,474386.659,478694.979,8,400,24,,ISIC_9808863.JPG
break,html.Screen,4_73_1,2023-09-12T00:42:55.028Z,,0,,,NaN,,,,,,false,,,,478688.30000019073,478688.2000002861,,478687.90000009537,,478694.979,8,400,,,
break_continue,html.Screen,4_73_2,2023-09-12T00:42:55.028Z,,0,,,NaN,,,,,,false,,,,478688.60000038147,478688.60000038147,,478688.40000009537,,478694.979,8,400,,,
sequence,flow.Sequence,4_73,2023-09-12T00:42:55.028Z,,0,,,4301.941000381485,completion,,,,,false,,,,478688.7000002861,478688.60000038147,474369.965,474382.40000009537,474386.659,478694.979,8,400,,,
trial,html.Screen,4_74_0,2023-09-12T00:43:00.142Z,,0,2,,5106.621000381478,response,ISIC_0027718.JPG,4,ISIC_0061491.JPG,ISIC_0061491.JPG,false,0,keypress(z),500,483801.80000019073,483801.60000038147,478678.263,478688.80000019073,478694.979,483804.889,8,400,25,,ISIC_0027718.JPG
break,html.Screen,4_74_1,2023-09-12T00:43:00.142Z,,0,,,NaN,,,,,,false,,,,483802.5,483802.40000009537,,483802,,483804.889,8,400,,,
break_continue,html.Screen,4_74_2,2023-09-12T00:43:00.143Z,,0,,,NaN,,,,,,false,,,,483802.80000019073,483802.80000019073,,483802.60000038147,,483804.889,8,400,,,
sequence,flow.Sequence,4_74,2023-09-12T00:43:00.143Z,,0,,,5107.821000190743,completion,,,,,false,,,,483803,483802.80000019073,478678.263,478688.7000002861,478694.979,483804.889,8,400,,,
trial,html.Screen,4_75_0,2023-09-12T00:43:04.849Z,,0,2,,4703.91100019071,response,ISIC_0028022.JPG,4,ISIC_6710082.JPG,ISIC_0028022.JPG,false,1,keypress(m),500,488509,488508.80000019073,483788.37,483803.2000002861,483804.889,488514.05,8,400,26,,ISIC_6710082.JPG
break,html.Screen,4_75_1,2023-09-12T00:43:04.850Z,,0,,,NaN,,,,,,false,,,,488509.7000002861,488509.40000009537,,488509.10000038147,,488514.05,8,400,,,
break_continue,html.Screen,4_75_2,2023-09-12T00:43:04.850Z,,0,,,NaN,,,,,,false,,,,488510,488509.90000009537,,488509.7000002861,,488514.05,8,400,,,
sequence,flow.Sequence,4_75,2023-09-12T00:43:04.850Z,,0,,,4705.011000095343,completion,,,,,false,,,,488510.10000038147,488509.90000009537,483788.37,483803.2000002861,483804.889,488514.05,8,400,,,
trial,html.Screen,4_76_0,2023-09-12T00:43:10.364Z,,0,2,,5509.850000095379,response,ISIC_0013084.JPG,5,ISIC_0000292.JPG,ISIC_0000292.JPG,false,0,keypress(z),500,494024,494023.90000009537,488497.565,488510.2000002861,488514.05,494024.803,8,400,27,,ISIC_0013084.JPG
break,html.Screen,4_76_1,2023-09-12T00:43:10.364Z,,0,,,NaN,,,,,,false,,,,494024.40000009537,494024.30000019073,,494024.10000038147,,494024.803,8,400,,,
break_continue,html.Screen,4_76_2,2023-09-12T00:43:10.365Z,,0,,,NaN,,,,,,false,,,,494024.5,494024.5,,494024.5,,494024.803,8,400,,,
sequence,flow.Sequence,4_76,2023-09-12T00:43:10.365Z,,0,,,5510.450000000012,completion,,,,,false,,,,494024.60000038147,494024.5,488497.565,488510.10000038147,488514.05,494024.803,8,400,,,
trial,html.Screen,4_77_0,2023-09-12T00:43:15.214Z,,0,2,,4848.797000381455,response,ISIC_9741917.JPG,5,ISIC_5832901.JPG,ISIC_5832901.JPG,false,0,keypress(z),500,498873.80000019073,498873.60000038147,494008.285,494024.80000019073,494024.803,498884.244,8,400,28,,ISIC_9741917.JPG
break,html.Screen,4_77_1,2023-09-12T00:43:15.214Z,,0,,,NaN,,,,,,false,,,,498874.30000019073,498874.2000002861,,498873.90000009537,,498884.244,8,400,,,
break_continue,html.Screen,4_77_2,2023-09-12T00:43:15.214Z,,0,,,NaN,,,,,,false,,,,498874.40000009537,498874.30000019073,,498874.30000019073,,498884.244,8,400,,,
sequence,flow.Sequence,4_77,2023-09-12T00:43:15.214Z,,0,,,4849.49700019072,completion,,,,,false,,,,498874.5,498874.30000019073,494008.285,494024.7000002861,494024.803,498884.244,8,400,,,
trial,html.Screen,4_78_0,2023-09-12T00:43:19.600Z,,0,2,,4375.456000286096,response,ISIC_5048124.JPG,5,ISIC_0009998.JPG,ISIC_0009998.JPG,false,0,keypress(z),500,503260,503259.7000002861,498867.648,498874.5,498884.244,503276.138,8,400,29,,ISIC_5048124.JPG
break,html.Screen,4_78_1,2023-09-12T00:43:19.601Z,,0,,,NaN,,,,,,false,,,,503261,503260.7000002861,,503260.5,,503276.138,8,400,,,
break_continue,html.Screen,4_78_2,2023-09-12T00:43:19.601Z,,0,,,NaN,,,,,,false,,,,503261.2000002861,503261.10000038147,,503261,,503276.138,8,400,,,
sequence,flow.Sequence,4_78,2023-09-12T00:43:19.601Z,,0,,,4376.856000381464,completion,,,,,false,,,,503261.30000019073,503261.10000038147,498867.648,498874.5,498884.244,503276.138,8,400,,,
trial,html.Screen,4_79_0,2023-09-12T00:43:24.995Z,,0,2,,5378.76200009539,response,ISIC_7452410.JPG,5,ISIC_7057495.JPG,ISIC_7452410.JPG,false,1,keypress(m),500,508655.10000038147,508654.90000009537,503259.485,503261.40000009537,503276.138,508669.972,8,400,30,,ISIC_7057495.JPG
break,html.Screen,4_79_1,2023-09-12T00:43:24.996Z,,0,,,NaN,,,,,,false,,,,508655.80000019073,508655.7000002861,,508655.30000019073,,508669.972,8,400,,,
break_continue,html.Screen,4_79_2,2023-09-12T00:43:24.996Z,,0,,,NaN,,,,,,false,,,,508656,508655.90000009537,,508655.90000009537,,508669.972,8,400,,,
sequence,flow.Sequence,4_79,2023-09-12T00:43:24.996Z,,0,,,5379.76200009539,completion,,,,,false,,,,508656.10000038147,508655.90000009537,503259.485,503261.30000019073,503276.138,508669.972,8,400,,,
trial,html.Screen,4_80_0,2023-09-12T00:43:29.574Z,,0,2,,4563.828000190726,response,ISIC_1225511.JPG,4,ISIC_0033157.JPG,ISIC_0033157.JPG,false,0,keypress(z),500,513233.80000019073,513233.80000019073,508653.288,508656.2000002861,508669.972,513262.217,8,400,31,,ISIC_1225511.JPG
break,html.Screen,4_80_1,2023-09-12T00:43:29.574Z,,0,,,NaN,,,,,,false,,,,513234.2000002861,513234.10000038147,,513234,,513262.217,8,400,,,
break_continue,html.Screen,4_80_2,2023-09-12T00:43:29.574Z,,0,,,NaN,,,,,,false,,,,513234.40000009537,513234.30000019073,,513234.30000019073,,513262.217,8,400,,,
sequence,flow.Sequence,4_80,2023-09-12T00:43:29.574Z,,0,,,4564.328000190726,completion,,,,,false,,,,513234.5,513234.30000019073,508653.288,508656.2000002861,508669.972,513262.217,8,400,,,
trial,html.Screen,4_81_0,2023-09-12T00:43:34.397Z,,0,2,,4794.983000286098,response,ISIC_0054874.JPG,4,ISIC_2000959.JPG,ISIC_0054874.JPG,false,1,keypress(m),500,518057.30000019073,518057.2000002861,513245.713,513234.5,513262.217,518071.572,8,400,32,,ISIC_2000959.JPG
break,html.Screen,4_81_1,2023-09-12T00:43:34.398Z,,0,,,NaN,,,,,,false,,,,518057.80000019073,518057.60000038147,,518057.40000009537,,518071.572,8,400,,,
break_continue,html.Screen,4_81_2,2023-09-12T00:43:34.398Z,,0,,,NaN,,,,,,false,,,,518058,518057.90000009537,,518057.90000009537,,518071.572,8,400,,,
sequence,flow.Sequence,4_81,2023-09-12T00:43:34.398Z,,0,,,4795.683000095363,completion,,,,,false,,,,518058,518057.90000009537,513245.713,513234.5,513262.217,518071.572,8,400,,,
trial,html.Screen,4_82_0,2023-09-12T00:43:39.986Z,,0,2,,5574.328000095382,response,ISIC_0057898.JPG,6,ISIC_0027514.JPG,ISIC_0057898.JPG,false,1,keypress(m),500,523646.10000038147,523645.90000009537,518054.909,518058.10000038147,518071.572,523649.067,8,400,33,,ISIC_0027514.JPG
break,html.Screen,4_82_1,2023-09-12T00:43:39.987Z,,0,,,NaN,,,,,,false,,,,523646.7000002861,523646.60000038147,,523646.30000019073,,523649.067,8,400,,,
break_continue,html.Screen,4_82_2,2023-09-12T00:43:39.987Z,,0,,,NaN,,,,,,false,,,,523646.90000009537,523646.90000009537,,523646.80000019073,,523649.067,8,400,,,
sequence,flow.Sequence,4_82,2023-09-12T00:43:39.987Z,,0,,,5575.328000095382,completion,,,,,false,,,,523647,523646.90000009537,518054.909,518058.10000038147,518071.572,523649.067,8,400,,,
trial,html.Screen,4_83_0,2023-09-12T00:43:45.717Z,,0,2,,5727.433000000019,response,ISIC_5313574.JPG,5,ISIC_0061379.JPG,ISIC_0061379.JPG,false,0,keypress(z),500,529376.6000003815,529376.5,523632.414,523647.10000038147,523649.067,529393.709,8,400,34,,ISIC_5313574.JPG
break,html.Screen,4_83_1,2023-09-12T00:43:45.717Z,,0,,,NaN,,,,,,false,,,,529377.1000003815,529376.8000001907,,529376.6000003815,,529393.709,8,400,,,
break_continue,html.Screen,4_83_2,2023-09-12T00:43:45.717Z,,0,,,NaN,,,,,,false,,,,529377.3000001907,529377.3000001907,,529377.1000003815,,529393.709,8,400,,,
sequence,flow.Sequence,4_83,2023-09-12T00:43:45.717Z,,0,,,5728.233000190754,completion,,,,,false,,,,529377.5,529377.3000001907,523632.414,523647.10000038147,523649.067,529393.709,8,400,,,
trial,html.Screen,4_84_0,2023-09-12T00:43:50.058Z,,0,2,,4323.891000381438,response,ISIC_1035480.JPG,5,ISIC_3791309.JPG,ISIC_3791309.JPG,false,0,keypress(z),500,533717.7000002861,533717.6000003815,529360.323,529377.5,529393.709,533718.71,8,400,35,,ISIC_1035480.JPG
break,html.Screen,4_84_1,2023-09-12T00:43:50.058Z,,0,,,NaN,,,,,,false,,,,533718.4000000954,533718.2000002861,,533717.9000000954,,533718.71,8,400,,,
break_continue,html.Screen,4_84_2,2023-09-12T00:43:50.059Z,,0,,,NaN,,,,,,false,,,,533718.7000002861,533718.7000002861,,533718.5,,533718.71,8,400,,,
sequence,flow.Sequence,4_84,2023-09-12T00:43:50.059Z,,0,,,4324.991000286071,completion,,,,,false,,,,533718.8000001907,533718.7000002861,529360.323,529377.5,529393.709,533718.71,8,400,,,
trial,html.Screen,4_85_0,2023-09-12T00:43:54.029Z,,0,2,,3970.2900000000373,response,ISIC_2839431.JPG,5,ISIC_1996356.JPG,ISIC_1996356.JPG,false,0,keypress(z),500,537689.2000002861,537689,533702.032,533718.9000000954,533718.71,537693.11,8,400,36,,ISIC_2839431.JPG
break,html.Screen,4_85_1,2023-09-12T00:43:54.030Z,,0,,,NaN,,,,,,false,,,,537689.5,537689.5,,537689.2000002861,,537693.11,8,400,,,
break_continue,html.Screen,4_85_2,2023-09-12T00:43:54.030Z,,0,,,NaN,,,,,,false,,,,537689.7000002861,537689.7000002861,,537689.6000003815,,537693.11,8,400,,,
sequence,flow.Sequence,4_85,2023-09-12T00:43:54.030Z,,0,,,3970.9900002861395,completion,,,,,false,,,,537689.9000000954,537689.7000002861,533702.032,533718.9000000954,533718.71,537693.11,8,400,,,
trial,html.Screen,4_86_0,2023-09-12T00:43:58.767Z,,0,2,,4733.690000190749,response,ISIC_0057655.JPG,5,ISIC_0015044.JPG,ISIC_0015044.JPG,false,0,keypress(z),500,542427,542426.8000001907,537676.454,537689.9000000954,537693.11,542435.664,8,400,37,,ISIC_0057655.JPG
break,html.Screen,4_86_1,2023-09-12T00:43:58.768Z,,0,,,NaN,,,,,,false,,,,542427.9000000954,542427.6000003815,,542427.2000002861,,542435.664,8,400,,,
break_continue,html.Screen,4_86_2,2023-09-12T00:43:58.769Z,,0,,,NaN,,,,,,false,,,,542428.4000000954,542428.2000002861,,542428.1000003815,,542435.664,8,400,,,
sequence,flow.Sequence,4_86,2023-09-12T00:43:58.769Z,,0,,,4735.090000286116,completion,,,,,false,,,,542428.5,542428.2000002861,537676.454,537689.9000000954,537693.11,542435.664,8,400,,,
trial,html.Screen,4_87_0,2023-09-12T00:44:04.979Z,,0,2,,6203.136000190745,response,ISIC_0025450.JPG,4,ISIC_2876073.JPG,ISIC_0025450.JPG,false,1,keypress(m),500,548638.8000001907,548638.8000001907,542419.138,542428.7000002861,542435.664,548647.771,8,400,38,,ISIC_2876073.JPG
break,html.Screen,4_87_1,2023-09-12T00:44:04.980Z,,0,,,NaN,,,,,,false,,,,548639.3000001907,548639.1000003815,,548638.9000000954,,548647.771,8,400,,,
break_continue,html.Screen,4_87_2,2023-09-12T00:44:04.980Z,,0,,,NaN,,,,,,false,,,,548639.4000000954,548639.4000000954,,548639.3000001907,,548647.771,8,400,,,
sequence,flow.Sequence,4_87,2023-09-12T00:44:04.980Z,,0,,,6203.736000095378,completion,,,,,false,,,,548639.5,548639.4000000954,542419.138,542428.7000002861,542435.664,548647.771,8,400,,,
trial,html.Screen,4_88_0,2023-09-12T00:44:10.565Z,,0,2,,5576.529000190785,response,ISIC_0032907.JPG,5,ISIC_0028225.JPG,ISIC_0028225.JPG,false,0,keypress(z),500,554224.5,554224.3000001907,548631.251,548639.6000003815,548647.771,554225.305,8,400,39,,ISIC_0032907.JPG
break,html.Screen,4_88_1,2023-09-12T00:44:10.566Z,,0,,,NaN,,,,,,false,,,,554225.3000001907,554225,,554224.7000002861,,554225.305,8,400,,,
break_continue,html.Screen,4_88_2,2023-09-12T00:44:10.566Z,,0,,,NaN,,,,,,false,,,,554225.6000003815,554225.6000003815,,554225.4000000954,,554225.305,8,400,,,
sequence,flow.Sequence,4_88,2023-09-12T00:44:10.566Z,,0,,,5577.82900038152,completion,,,,,false,,,,554225.7000002861,554225.6000003815,548631.251,548639.5,548647.771,554225.305,8,400,,,
trial,html.Screen,4_89_0,2023-09-12T00:44:16.344Z,,0,2,,5778.495000190684,response,ISIC_0005248.JPG,5,ISIC_0033368.JPG,ISIC_0033368.JPG,false,0,keypress(z),500,560004,560003.8000001907,554208.616,554225.8000001907,554225.305,560019.895,8,400,40,,ISIC_0005248.JPG
break,html.Screen,4_89_1,2023-09-12T00:44:16.345Z,,0,,,NaN,,,,,,false,,,,560004.8000001907,560004.7000002861,,560004.3000001907,,560019.895,8,400,,,
break_continue,html.Screen,4_89_2,2023-09-12T00:44:16.345Z,,0,,,NaN,,,,,,false,,,,560005,560005,,560004.9000000954,,560019.895,8,400,,,
sequence,flow.Sequence,4_89,2023-09-12T00:44:16.345Z,,0,,,5779.694999999949,completion,,,,,false,,,,560005.2000002861,560005,554208.616,554225.8000001907,554225.305,560019.895,8,400,,,
trial,html.Screen,4_90_0,2023-09-12T00:44:21.420Z,,0,2,,5059.705000381451,response,ISIC_0015443.JPG,5,ISIC_0028723.JPG,ISIC_0028723.JPG,false,0,keypress(z),500,565080,565079.6000003815,560003.189,560005.2000002861,560019.895,565096.581,8,400,41,,ISIC_0015443.JPG
break,html.Screen,4_90_1,2023-09-12T00:44:21.422Z,,0,,,NaN,,,,,,false,,,,565081.9000000954,565081.5,,565080.4000000954,,565096.581,8,400,,,
break_continue,html.Screen,4_90_2,2023-09-12T00:44:21.423Z,,0,,,NaN,,,,,,false,,,,565082.7000002861,565082.5,,565082.2000002861,,565096.581,8,400,,,
sequence,flow.Sequence,4_90,2023-09-12T00:44:21.423Z,,0,,,5062.604999999981,completion,,,,,false,,,,565083,565082.5,560003.189,560005.2000002861,560019.895,565096.581,8,400,,,
trial,html.Screen,4_91_0,2023-09-12T00:44:27.511Z,,0,2,,6074.219000190729,response,ISIC_0067156.JPG,5,ISIC_5194705.JPG,ISIC_0067156.JPG,false,1,keypress(m),500,571171,571170.8000001907,565079.832,565083.2000002861,565096.581,571174.953,8,400,42,,ISIC_5194705.JPG
break,html.Screen,4_91_1,2023-09-12T00:44:27.512Z,,0,,,NaN,,,,,,false,,,,571171.4000000954,571171.3000001907,,571171.1000003815,,571174.953,8,400,,,
break_continue,html.Screen,4_91_2,2023-09-12T00:44:27.512Z,,0,,,NaN,,,,,,false,,,,571171.7000002861,571171.6000003815,,571171.5,,571174.953,8,400,,,
sequence,flow.Sequence,4_91,2023-09-12T00:44:27.512Z,,0,,,6075.019000381464,completion,,,,,false,,,,571171.8000001907,571171.6000003815,565079.832,565083.2000002861,565096.581,571174.953,8,400,,,
trial,html.Screen,4_92_0,2023-09-12T00:44:33.802Z,,0,2,,6286.247000286123,response,ISIC_8363485.JPG,4,ISIC_0062906.JPG,ISIC_8363485.JPG,false,1,keypress(m),500,577461.4000000954,577461.2000002861,571158.249,571171.9000000954,571174.953,577470.684,8,400,43,,ISIC_0062906.JPG
break,html.Screen,4_92_1,2023-09-12T00:44:33.802Z,,0,,,NaN,,,,,,false,,,,577462,577461.8000001907,,577461.4000000954,,577470.684,8,400,,,
break_continue,html.Screen,4_92_2,2023-09-12T00:44:33.803Z,,0,,,NaN,,,,,,false,,,,577462.4000000954,577462.3000001907,,577462.1000003815,,577470.684,8,400,,,
sequence,flow.Sequence,4_92,2023-09-12T00:44:33.803Z,,0,,,6287.347000190755,completion,,,,,false,,,,577462.6000003815,577462.3000001907,571158.249,571171.8000001907,571174.953,577470.684,8,400,,,
trial,html.Screen,4_93_0,2023-09-12T00:44:39.948Z,,0,2,,6137.1160001907265,response,ISIC_0072768.JPG,5,ISIC_0030235.JPG,ISIC_0072768.JPG,false,1,keypress(m),500,583608,583607.8000001907,577454.009,577462.7000002861,577470.684,583615.894,8,400,44,,ISIC_0030235.JPG
break,html.Screen,4_93_1,2023-09-12T00:44:39.949Z,,0,,,NaN,,,,,,false,,,,583608.5,583608.4000000954,,583608.1000003815,,583615.894,8,400,,,
break_continue,html.Screen,4_93_2,2023-09-12T00:44:39.949Z,,0,,,NaN,,,,,,false,,,,583608.7000002861,583608.7000002861,,583608.6000003815,,583615.894,8,400,,,
sequence,flow.Sequence,4_93,2023-09-12T00:44:39.949Z,,0,,,6138.016000286094,completion,,,,,false,,,,583608.9000000954,583608.7000002861,577454.009,577462.7000002861,577470.684,583615.894,8,400,,,
trial,html.Screen,4_94_0,2023-09-12T00:44:44.303Z,,0,2,,4346.706000381499,response,ISIC_0067719.JPG,5,ISIC_0034071.JPG,ISIC_0034071.JPG,false,0,keypress(z),500,587962.7000002861,587962.6000003815,583599.264,583608.9000000954,583615.894,587974.354,8,400,45,,ISIC_0067719.JPG
break,html.Screen,4_94_1,2023-09-12T00:44:44.303Z,,0,,,NaN,,,,,,false,,,,587963.1000003815,587963,,587962.8000001907,,587974.354,8,400,,,
break_continue,html.Screen,4_94_2,2023-09-12T00:44:44.304Z,,0,,,NaN,,,,,,false,,,,587963.3000001907,587963.3000001907,,587963.1000003815,,587974.354,8,400,,,
sequence,flow.Sequence,4_94,2023-09-12T00:44:44.304Z,,0,,,4347.406000190764,completion,,,,,false,,,,587963.3000001907,587963.3000001907,583599.264,583608.9000000954,583615.894,587974.354,8,400,,,
trial,html.Screen,4_95_0,2023-09-12T00:44:49.816Z,,0,2,,5501.046000095317,response,ISIC_5039396.JPG,5,ISIC_0031598.JPG,ISIC_5039396.JPG,false,1,keypress(m),500,593475.6000003815,593475.4000000954,587957.651,587963.4000000954,587974.354,593501.701,8,400,46,,ISIC_0031598.JPG
break,html.Screen,4_95_1,2023-09-12T00:44:49.816Z,,0,,,NaN,,,,,,false,,,,593476,593475.8000001907,,593475.7000002861,,593501.701,8,400,,,
break_continue,html.Screen,4_95_2,2023-09-12T00:44:49.817Z,,0,,,NaN,,,,,,false,,,,593476.2000002861,593476.2000002861,,593476,,593501.701,8,400,,,
sequence,flow.Sequence,4_95,2023-09-12T00:44:49.817Z,,0,,,5501.846000286052,completion,,,,,false,,,,593476.3000001907,593476.2000002861,587957.651,587963.4000000954,587974.354,593501.701,8,400,,,
trial,html.Screen,4_96_0,2023-09-12T00:44:54.353Z,,0,2,,4510.499000286101,response,ISIC_9631669.JPG,5,ISIC_7236842.JPG,ISIC_7236842.JPG,false,0,keypress(z),500,598012.4000000954,598012.2000002861,593485.026,593476.3000001907,593501.701,598027.271,8,400,47,,ISIC_9631669.JPG
break,html.Screen,4_96_1,2023-09-12T00:44:54.354Z,,0,,,NaN,,,,,,false,,,,598013.2000002861,598012.9000000954,,598012.6000003815,,598027.271,8,400,,,
break_continue,html.Screen,4_96_2,2023-09-12T00:44:54.354Z,,0,,,NaN,,,,,,false,,,,598013.5,598013.4000000954,,598013.3000001907,,598027.271,8,400,,,
sequence,flow.Sequence,4_96,2023-09-12T00:44:54.354Z,,0,,,4511.6990000953665,completion,,,,,false,,,,598013.6000003815,598013.4000000954,593485.026,593476.3000001907,593501.701,598027.271,8,400,,,
trial,html.Screen,4_97_0,2023-09-12T00:45:01.332Z,,0,2,,6963.929000286153,response,ISIC_0062770.JPG,6,ISIC_7980339.JPG,ISIC_7980339.JPG,false,0,keypress(z),500,604991.4000000954,604991.2000002861,598010.514,598013.7000002861,598027.271,605007.531,8,400,48,,ISIC_0062770.JPG
break,html.Screen,4_97_1,2023-09-12T00:45:01.333Z,,0,,,NaN,,,,,,false,,,,604992,604991.8000001907,,604991.6000003815,,605007.531,8,400,,,
break_continue,html.Screen,4_97_2,2023-09-12T00:45:01.333Z,,0,,,NaN,,,,,,false,,,,604992.2000002861,604992.1000003815,,604992,,605007.531,8,400,,,
sequence,flow.Sequence,4_97,2023-09-12T00:45:01.333Z,,0,,,6964.82900038152,completion,,,,,false,,,,604992.3000001907,604992.1000003815,598010.514,598013.6000003815,598027.271,605007.531,8,400,,,
trial,html.Screen,4_98_0,2023-09-12T00:45:07.734Z,,0,2,,6385.569000381511,response,ISIC_0071906.JPG,5,ISIC_0028467.JPG,ISIC_0071906.JPG,false,1,keypress(m),500,611393.2000002861,611393.1000003815,604990.847,604992.3000001907,605007.531,611403.293,8,400,49,,ISIC_0028467.JPG
break,html.Screen,4_98_1,2023-09-12T00:45:07.734Z,,0,,,NaN,,,,,,false,,,,611393.7000002861,611393.6000003815,,611393.4000000954,,611403.293,8,400,,,
break_continue,html.Screen,4_98_2,2023-09-12T00:45:07.734Z,,0,,,NaN,,,,,,false,,,,611393.9000000954,611393.9000000954,,611393.7000002861,,611403.293,8,400,,,
sequence,flow.Sequence,4_98,2023-09-12T00:45:07.735Z,,0,,,6386.369000095408,completion,,,,,false,,,,611393.9000000954,611393.9000000954,604990.847,604992.3000001907,605007.531,611403.293,8,400,,,
trial,html.Screen,4_99_0,2023-09-12T00:45:12.864Z,,0,2,,5119.707000000053,response,ISIC_0011698.JPG,4,ISIC_0031960.JPG,ISIC_0011698.JPG,false,1,keypress(m),500,616523.1000003815,616523,611386.609,611394.1000003815,611403.293,616546.544,8,400,50,,ISIC_0031960.JPG
break,html.Screen,4_99_1,2023-09-12T00:45:22.874Z,,0,,,10002.94000000006,timeout,,,,,false,,,,626533.6000003815,626532.744,616529.948,616523.2000002861,616546.544,626549.484,8,400,,,
break_continue,html.Screen,4_99_2,2023-09-12T00:45:23.164Z,,0,,,264.8160001906799,response,,,,,false,continue,keypress(Space),,626823.3000001907,626814.3000001907,626532.744,626533.8000001907,626549.484,626833.336,8,400,,,
sequence,flow.Sequence,4_99,2023-09-12T00:45:23.164Z,,0,,,15411.007000190788,completion,,,,,false,,,,626823.5,626814.3000001907,611386.609,611394,611403.293,626833.336,8,400,,,
trial,html.Screen,4_100_0,2023-09-12T00:45:28.190Z,,0,3,,5015.364000286092,response,ISIC_0056740.JPG,4,ISIC_0028612.JPG,ISIC_0056740.JPG,false,1,keypress(m),500,631849,631848.7000002861,626816.669,626823.6000003815,626833.336,631859.709,8,400,1,,ISIC_0028612.JPG
break,html.Screen,4_100_1,2023-09-12T00:45:28.191Z,,0,,,NaN,,,,,,false,,,,631850,631849.7000002861,,631849.2000002861,,631859.709,8,400,,,
break_continue,html.Screen,4_100_2,2023-09-12T00:45:28.191Z,,0,,,NaN,,,,,,false,,,,631850.4000000954,631850.3000001907,,631850.1000003815,,631859.709,8,400,,,
sequence,flow.Sequence,4_100,2023-09-12T00:45:28.191Z,,0,,,5016.964000190725,completion,,,,,false,,,,631850.6000003815,631850.3000001907,626816.669,626823.5,626833.336,631859.709,8,400,,,
trial,html.Screen,4_101_0,2023-09-12T00:45:32.386Z,,0,3,,4185.691000095336,response,ISIC_3277722.JPG,4,ISIC_0000569.JPG,ISIC_3277722.JPG,false,1,keypress(m),500,636045.5,636045.4000000954,631843,631850.8000001907,631859.709,636051.195,8,400,2,,ISIC_0000569.JPG
break,html.Screen,4_101_1,2023-09-12T00:45:32.387Z,,0,,,NaN,,,,,,false,,,,636046.2000002861,636045.9000000954,,636045.7000002861,,636051.195,8,400,,,
break_continue,html.Screen,4_101_2,2023-09-12T00:45:32.387Z,,0,,,NaN,,,,,,false,,,,636046.5,636046.5,,636046.3000001907,,636051.195,8,400,,,
sequence,flow.Sequence,4_101,2023-09-12T00:45:32.387Z,,0,,,4186.790999999968,completion,,,,,false,,,,636046.6000003815,636046.5,631843,631850.8000001907,631859.709,636051.195,8,400,,,
trial,html.Screen,4_102_0,2023-09-12T00:45:37.093Z,,0,3,,4700.905000381521,response,ISIC_2513481.JPG,5,ISIC_6320497.JPG,ISIC_2513481.JPG,false,1,keypress(m),500,640752.2000002861,640752.1000003815,636034.601,636046.6000003815,636051.195,640760.365,8,400,3,,ISIC_6320497.JPG
break,html.Screen,4_102_1,2023-09-12T00:45:37.093Z,,0,,,NaN,,,,,,false,,,,640752.7000002861,640752.6000003815,,640752.4000000954,,640760.365,8,400,,,
break_continue,html.Screen,4_102_2,2023-09-12T00:45:37.093Z,,0,,,NaN,,,,,,false,,,,640752.9000000954,640752.8000001907,,640752.7000002861,,640760.365,8,400,,,
sequence,flow.Sequence,4_102,2023-09-12T00:45:37.094Z,,0,,,4701.605000190786,completion,,,,,false,,,,640753,640752.8000001907,636034.601,636046.6000003815,636051.195,640760.365,8,400,,,
trial,html.Screen,4_103_0,2023-09-12T00:45:42.232Z,,0,3,,5130.635000000009,response,ISIC_7101810.JPG,5,ISIC_0032690.JPG,ISIC_0032690.JPG,false,0,keypress(z),500,645891,645891,640743.655,640753,640760.365,645920.428,8,400,4,,ISIC_7101810.JPG
break,html.Screen,4_103_1,2023-09-12T00:45:42.232Z,,0,,,NaN,,,,,,false,,,,645891.5,645891.4000000954,,645891.1000003815,,645920.428,8,400,,,
break_continue,html.Screen,4_103_2,2023-09-12T00:45:42.232Z,,0,,,NaN,,,,,,false,,,,645891.7000002861,645891.5,,645891.5,,645920.428,8,400,,,
sequence,flow.Sequence,4_103,2023-09-12T00:45:42.232Z,,0,,,5131.135000000009,completion,,,,,false,,,,645891.7000002861,645891.5,640743.655,640753,640760.365,645920.428,8,400,,,
trial,html.Screen,4_104_0,2023-09-12T00:45:46.704Z,,0,3,,4442.372000190779,response,ISIC_4933735.JPG,6,ISIC_0033029.JPG,ISIC_4933735.JPG,false,1,keypress(m),500,650363.1000003815,650362.8000001907,645903.694,645891.8000001907,645920.428,650395.767,8,400,5,,ISIC_0033029.JPG
break,html.Screen,4_104_1,2023-09-12T00:45:46.704Z,,0,,,NaN,,,,,,false,,,,650363.9000000954,650363.6000003815,,650363.2000002861,,650395.767,8,400,,,
break_continue,html.Screen,4_104_2,2023-09-12T00:45:46.705Z,,0,,,NaN,,,,,,false,,,,650364.3000001907,650364.2000002861,,650364,,650395.767,8,400,,,
sequence,flow.Sequence,4_104,2023-09-12T00:45:46.705Z,,0,,,4443.772000286146,completion,,,,,false,,,,650364.5,650364.2000002861,645903.694,645891.8000001907,645920.428,650395.767,8,400,,,
trial,html.Screen,4_105_0,2023-09-12T00:45:51.187Z,,0,3,,4450.533000190742,response,ISIC_2241388.JPG,5,ISIC_3313701.JPG,ISIC_2241388.JPG,false,1,keypress(m),500,654846.5,654846.3000001907,650379.061,650364.6000003815,650395.767,654854.448,8,400,6,,ISIC_3313701.JPG
break,html.Screen,4_105_1,2023-09-12T00:45:51.187Z,,0,,,NaN,,,,,,false,,,,654846.9000000954,654846.8000001907,,654846.6000003815,,654854.448,8,400,,,
break_continue,html.Screen,4_105_2,2023-09-12T00:45:51.188Z,,0,,,NaN,,,,,,false,,,,654847.1000003815,654847,,654847,,654854.448,8,400,,,
sequence,flow.Sequence,4_105,2023-09-12T00:45:51.188Z,,0,,,4451.233000000007,completion,,,,,false,,,,654847.2000002861,654847,650379.061,650364.5,650395.767,654854.448,8,400,,,
trial,html.Screen,4_106_0,2023-09-12T00:45:57.206Z,,0,3,,6010.85200019076,response,ISIC_0011930.JPG,6,ISIC_1693458.JPG,ISIC_0011930.JPG,false,1,keypress(m),500,660865.6000003815,660865.3000001907,654837.758,654847.2000002861,654854.448,660882.901,8,400,7,,ISIC_1693458.JPG
break,html.Screen,4_106_1,2023-09-12T00:45:57.209Z,,0,,,NaN,,,,,,false,,,,660868.6000003815,660867.8000001907,,660866.2000002861,,660882.901,8,400,,,
break_continue,html.Screen,4_106_2,2023-09-12T00:45:57.211Z,,0,,,NaN,,,,,,false,,,,660869.8000001907,660869.4000000954,,660869,,660882.901,8,400,,,
sequence,flow.Sequence,4_106,2023-09-12T00:45:57.211Z,,0,,,6014.952000095393,completion,,,,,false,,,,660870.3000001907,660869.4000000954,654837.758,654847.2000002861,654854.448,660882.901,8,400,,,
trial,html.Screen,4_107_0,2023-09-12T00:46:01.342Z,,0,3,,4117.599000000046,response,ISIC_0008881.JPG,5,ISIC_0046340.JPG,ISIC_0046340.JPG,false,0,keypress(z),500,665000.7000002861,665000.5,660866.122,660870.6000003815,660882.901,665007.605,8,400,8,,ISIC_0008881.JPG
break,html.Screen,4_107_1,2023-09-12T00:46:01.342Z,,0,,,NaN,,,,,,false,,,,665001.3000001907,665001.1000003815,,665000.8000001907,,665007.605,8,400,,,
break_continue,html.Screen,4_107_2,2023-09-12T00:46:01.343Z,,0,,,NaN,,,,,,false,,,,665001.7000002861,665001.6000003815,,665001.4000000954,,665007.605,8,400,,,
sequence,flow.Sequence,4_107,2023-09-12T00:46:01.343Z,,0,,,4118.699000381515,completion,,,,,false,,,,665001.8000001907,665001.6000003815,660866.122,660870.5,660882.901,665007.605,8,400,,,
trial,html.Screen,4_108_0,2023-09-12T00:46:06.640Z,,0,3,,5291.595000286121,response,ISIC_3391254.JPG,5,ISIC_6672654.JPG,ISIC_6672654.JPG,false,0,keypress(z),500,670299.3000001907,670299.2000002861,664990.852,665001.9000000954,665007.605,670301.152,8,400,9,,ISIC_3391254.JPG
break,html.Screen,4_108_1,2023-09-12T00:46:06.641Z,,0,,,NaN,,,,,,false,,,,670299.7000002861,670299.6000003815,,670299.4000000954,,670301.152,8,400,,,
break_continue,html.Screen,4_108_2,2023-09-12T00:46:06.641Z,,0,,,NaN,,,,,,false,,,,670299.9000000954,670299.8000001907,,670299.8000001907,,670301.152,8,400,,,
sequence,flow.Sequence,4_108,2023-09-12T00:46:06.641Z,,0,,,5292.1950001907535,completion,,,,,false,,,,670300,670299.8000001907,664990.852,665001.9000000954,665007.605,670301.152,8,400,,,
trial,html.Screen,4_109_0,2023-09-12T00:46:12.290Z,,0,3,,5648.0480002861,response,ISIC_3816833.JPG,5,ISIC_5721677.JPG,ISIC_3816833.JPG,false,1,keypress(m),500,675949.3000001907,675949.2000002861,670284.575,670300.1000003815,670301.152,675962.202,8,400,10,,ISIC_5721677.JPG
break,html.Screen,4_109_1,2023-09-12T00:46:12.291Z,,0,,,NaN,,,,,,false,,,,675949.9000000954,675949.6000003815,,675949.4000000954,,675962.202,8,400,,,
break_continue,html.Screen,4_109_2,2023-09-12T00:46:12.291Z,,0,,,NaN,,,,,,false,,,,675950.2000002861,675950.1000003815,,675949.9000000954,,675962.202,8,400,,,
sequence,flow.Sequence,4_109,2023-09-12T00:46:12.291Z,,0,,,5648.948000381468,completion,,,,,false,,,,675950.3000001907,675950.1000003815,670284.575,670300,670301.152,675962.202,8,400,,,
trial,html.Screen,4_110_0,2023-09-12T00:46:17.652Z,,0,3,,5349.198000095319,response,ISIC_4129376.JPG,5,ISIC_0068696.JPG,ISIC_0068696.JPG,false,0,keypress(z),500,681311.5,681311.4000000954,675945.497,675950.3000001907,675962.202,681322.598,8,400,11,,ISIC_4129376.JPG
break,html.Screen,4_110_1,2023-09-12T00:46:17.653Z,,0,,,NaN,,,,,,false,,,,681312,681311.8000001907,,681311.7000002861,,681322.598,8,400,,,
break_continue,html.Screen,4_110_2,2023-09-12T00:46:17.653Z,,0,,,NaN,,,,,,false,,,,681312.2000002861,681312.1000003815,,681312,,681322.598,8,400,,,
sequence,flow.Sequence,4_110,2023-09-12T00:46:17.653Z,,0,,,5349.898000381421,completion,,,,,false,,,,681312.4000000954,681312.1000003815,675945.497,675950.3000001907,675962.202,681322.598,8,400,,,
trial,html.Screen,4_111_0,2023-09-12T00:46:22.855Z,,0,3,,5191.702000190737,response,ISIC_2203239.JPG,5,ISIC_0011132.JPG,ISIC_0011132.JPG,false,0,keypress(z),500,686514.4000000954,686514.3000001907,681305.961,681312.5,681322.598,686516.071,8,400,12,,ISIC_2203239.JPG
break,html.Screen,4_111_1,2023-09-12T00:46:22.856Z,,0,,,NaN,,,,,,false,,,,686515,686514.8000001907,,686514.5,,686516.071,8,400,,,
break_continue,html.Screen,4_111_2,2023-09-12T00:46:22.856Z,,0,,,NaN,,,,,,false,,,,686515.2000002861,686515.1000003815,,686515,,686516.071,8,400,,,
sequence,flow.Sequence,4_111,2023-09-12T00:46:22.856Z,,0,,,5192.502000381472,completion,,,,,false,,,,686515.3000001907,686515.1000003815,681305.961,681312.4000000954,681322.598,686516.071,8,400,,,
trial,html.Screen,4_112_0,2023-09-12T00:46:28.100Z,,0,3,,5242.529000381473,response,ISIC_1436929.JPG,5,ISIC_5808758.JPG,ISIC_1436929.JPG,false,1,keypress(m),500,691758.8000001907,691758.6000003815,686499.444,686515.3000001907,686516.071,691776.317,8,400,13,,ISIC_5808758.JPG
break,html.Screen,4_112_1,2023-09-12T00:46:28.100Z,,0,,,NaN,,,,,,false,,,,691759.5,691759.3000001907,,691759,,691776.317,8,400,,,
break_continue,html.Screen,4_112_2,2023-09-12T00:46:28.101Z,,0,,,NaN,,,,,,false,,,,691759.8000001907,691759.7000002861,,691759.5,,691776.317,8,400,,,
sequence,flow.Sequence,4_112,2023-09-12T00:46:28.101Z,,0,,,5243.629000286106,completion,,,,,false,,,,691760.1000003815,691759.7000002861,686499.444,686515.3000001907,686516.071,691776.317,8,400,,,
trial,html.Screen,4_113_0,2023-09-12T00:46:32.379Z,,0,3,,4261.483000190696,response,ISIC_0010094.JPG,5,ISIC_4595741.JPG,ISIC_4595741.JPG,false,0,keypress(z),500,696037.9000000954,696037.8000001907,691759.573,691760.2000002861,691776.317,696051.36,8,400,14,,ISIC_0010094.JPG
break,html.Screen,4_113_1,2023-09-12T00:46:32.379Z,,0,,,NaN,,,,,,false,,,,696038.3000001907,696038.3000001907,,696038,,696051.36,8,400,,,
break_continue,html.Screen,4_113_2,2023-09-12T00:46:32.379Z,,0,,,NaN,,,,,,false,,,,696038.6000003815,696038.5,,696038.5,,696051.36,8,400,,,
sequence,flow.Sequence,4_113,2023-09-12T00:46:32.380Z,,0,,,4262.182999999961,completion,,,,,false,,,,696038.7000002861,696038.5,691759.573,691760.2000002861,691776.317,696051.36,8,400,,,
trial,html.Screen,4_114_0,2023-09-12T00:46:37.486Z,,0,3,,5093.740000381484,response,ISIC_2852805.JPG,5,ISIC_0028127.JPG,ISIC_0028127.JPG,false,0,keypress(z),500,701145.3000001907,701145.1000003815,696034.618,696038.8000001907,696051.36,701161.262,8,400,15,,ISIC_2852805.JPG
break,html.Screen,4_114_1,2023-09-12T00:46:37.487Z,,0,,,NaN,,,,,,false,,,,701146.1000003815,701145.9000000954,,701145.5,,701161.262,8,400,,,
break_continue,html.Screen,4_114_2,2023-09-12T00:46:37.487Z,,0,,,NaN,,,,,,false,,,,701146.4000000954,701146.3000001907,,701146.2000002861,,701161.262,8,400,,,
sequence,flow.Sequence,4_114,2023-09-12T00:46:37.487Z,,0,,,5094.940000190749,completion,,,,,false,,,,701146.4000000954,701146.3000001907,696034.618,696038.7000002861,696051.36,701161.262,8,400,,,
trial,html.Screen,4_115_0,2023-09-12T00:46:41.781Z,,0,3,,4278.6380000953795,response,ISIC_0030666.JPG,5,ISIC_0001111.JPG,ISIC_0001111.JPG,false,0,keypress(z),500,705440.1000003815,705439.9000000954,701144.697,701146.5,701161.262,705452.883,8,400,16,,ISIC_0030666.JPG
break,html.Screen,4_115_1,2023-09-12T00:46:41.781Z,,0,,,NaN,,,,,,false,,,,705440.4000000954,705440.4000000954,,705440.1000003815,,705452.883,8,400,,,
break_continue,html.Screen,4_115_2,2023-09-12T00:46:41.781Z,,0,,,NaN,,,,,,false,,,,705440.6000003815,705440.6000003815,,705440.5,,705452.883,8,400,,,
sequence,flow.Sequence,4_115,2023-09-12T00:46:41.782Z,,0,,,4279.338000381482,completion,,,,,false,,,,705440.7000002861,705440.6000003815,701144.697,701146.5,701161.262,705452.883,8,400,,,
trial,html.Screen,4_116_0,2023-09-12T00:46:47.255Z,,0,3,,5461.017000095337,response,ISIC_4582670.JPG,5,ISIC_6471212.JPG,ISIC_4582670.JPG,false,1,keypress(m),500,710914.1000003815,710913.9000000954,705436.306,705440.7000002861,705452.883,710930.251,8,400,17,,ISIC_6471212.JPG
break,html.Screen,4_116_1,2023-09-12T00:46:47.255Z,,0,,,NaN,,,,,,false,,,,710914.4000000954,710914.4000000954,,710914.1000003815,,710930.251,8,400,,,
break_continue,html.Screen,4_116_2,2023-09-12T00:46:47.256Z,,0,,,NaN,,,,,,false,,,,710914.7000002861,710914.6000003815,,710914.5,,710930.251,8,400,,,
sequence,flow.Sequence,4_116,2023-09-12T00:46:47.256Z,,0,,,5461.717000381439,completion,,,,,false,,,,710914.7000002861,710914.6000003815,705436.306,705440.7000002861,705452.883,710930.251,8,400,,,
trial,html.Screen,4_117_0,2023-09-12T00:46:53.680Z,,0,3,,6408.349000381422,response,ISIC_3212050.JPG,6,ISIC_7368239.JPG,ISIC_3212050.JPG,false,1,keypress(m),500,717338.7000002861,717338.6000003815,710913.638,710914.8000001907,710930.251,717342.685,8,400,18,,ISIC_7368239.JPG
break,html.Screen,4_117_1,2023-09-12T00:46:53.680Z,,0,,,NaN,,,,,,false,,,,717339.2000002861,717339.1000003815,,717338.9000000954,,717342.685,8,400,,,
break_continue,html.Screen,4_117_2,2023-09-12T00:46:53.680Z,,0,,,NaN,,,,,,false,,,,717339.3000001907,717339.3000001907,,717339.2000002861,,717342.685,8,400,,,
sequence,flow.Sequence,4_117,2023-09-12T00:46:53.680Z,,0,,,6409.049000190687,completion,,,,,false,,,,717339.4000000954,717339.3000001907,710913.638,710914.8000001907,710930.251,717342.685,8,400,,,
trial,html.Screen,4_118_0,2023-09-12T00:46:57.944Z,,0,3,,4260.215000095312,response,ISIC_9407667.JPG,5,ISIC_0066262.JPG,ISIC_0066262.JPG,false,0,keypress(z),500,721603.1000003815,721602.9000000954,717326.098,717339.5,717342.685,721617.789,8,400,19,,ISIC_9407667.JPG
break,html.Screen,4_118_1,2023-09-12T00:46:57.945Z,,0,,,NaN,,,,,,false,,,,721603.6000003815,721603.5,,721603.3000001907,,721617.789,8,400,,,
break_continue,html.Screen,4_118_2,2023-09-12T00:46:57.945Z,,0,,,NaN,,,,,,false,,,,721603.8000001907,721603.7000002861,,721603.7000002861,,721617.789,8,400,,,
sequence,flow.Sequence,4_118,2023-09-12T00:46:57.945Z,,0,,,4261.015000286046,completion,,,,,false,,,,721603.8000001907,721603.7000002861,717326.098,717339.5,717342.685,721617.789,8,400,,,
trial,html.Screen,4_119_0,2023-09-12T00:47:02.954Z,,0,3,,4994.71100000001,response,ISIC_9957389.JPG,5,ISIC_6033222.JPG,ISIC_9957389.JPG,false,1,keypress(m),500,726612.7000002861,726612.5,721600.979,721603.9000000954,721617.789,726627.531,8,400,20,,ISIC_6033222.JPG
break,html.Screen,4_119_1,2023-09-12T00:47:02.954Z,,0,,,NaN,,,,,,false,,,,726613.2000002861,726613.1000003815,,726612.8000001907,,726627.531,8,400,,,
break_continue,html.Screen,4_119_2,2023-09-12T00:47:02.955Z,,0,,,NaN,,,,,,false,,,,726613.5,726613.4000000954,,726613.3000001907,,726627.531,8,400,,,
sequence,flow.Sequence,4_119,2023-09-12T00:47:02.955Z,,0,,,4995.611000095378,completion,,,,,false,,,,726613.6000003815,726613.4000000954,721600.979,721603.9000000954,721617.789,726627.531,8,400,,,
trial,html.Screen,4_120_0,2023-09-12T00:47:08.093Z,,0,3,,5124.369000095408,response,ISIC_4846741.JPG,5,ISIC_0033405.JPG,ISIC_0033405.JPG,false,0,keypress(z),500,731752.1000003815,731751.9000000954,726610.835,726613.8000001907,726627.531,731754.127,8,400,21,,ISIC_4846741.JPG
break,html.Screen,4_120_1,2023-09-12T00:47:08.094Z,,0,,,NaN,,,,,,false,,,,731753,731752.7000002861,,731752.3000001907,,731754.127,8,400,,,
break_continue,html.Screen,4_120_2,2023-09-12T00:47:08.095Z,,0,,,NaN,,,,,,false,,,,731753.4000000954,731753.3000001907,,731753.2000002861,,731754.127,8,400,,,
sequence,flow.Sequence,4_120,2023-09-12T00:47:08.095Z,,0,,,5125.769000190776,completion,,,,,false,,,,731753.5,731753.3000001907,726610.835,726613.8000001907,726627.531,731754.127,8,400,,,
trial,html.Screen,4_121_0,2023-09-12T00:47:13.440Z,,0,3,,5344.673000190756,response,ISIC_8865595.JPG,5,ISIC_1234463.JPG,ISIC_8865595.JPG,false,1,keypress(m),500,737099,737098.8000001907,731737.405,731753.8000001907,731754.127,737114.567,8,400,22,,ISIC_1234463.JPG
break,html.Screen,4_121_1,2023-09-12T00:47:13.440Z,,0,,,NaN,,,,,,false,,,,737099.4000000954,737099.2000002861,,737099,,737114.567,8,400,,,
break_continue,html.Screen,4_121_2,2023-09-12T00:47:13.441Z,,0,,,NaN,,,,,,false,,,,737099.5,737099.5,,737099.4000000954,,737114.567,8,400,,,
sequence,flow.Sequence,4_121,2023-09-12T00:47:13.441Z,,0,,,5345.373000000021,completion,,,,,false,,,,737099.6000003815,737099.5,731737.405,731753.7000002861,731754.127,737114.567,8,400,,,
trial,html.Screen,4_122_0,2023-09-12T00:47:18.120Z,,0,3,,4664.133000286063,response,ISIC_4619903.JPG,6,ISIC_0025184.JPG,ISIC_4619903.JPG,false,1,keypress(m),500,741778.9000000954,741778.7000002861,737097.913,737099.7000002861,737114.567,741806.993,8,400,23,,ISIC_0025184.JPG
break,html.Screen,4_122_1,2023-09-12T00:47:18.121Z,,0,,,NaN,,,,,,false,,,,741779.5,741779.3000001907,,741779,,741806.993,8,400,,,
break_continue,html.Screen,4_122_2,2023-09-12T00:47:18.121Z,,0,,,NaN,,,,,,false,,,,741779.8000001907,741779.6000003815,,741779.5,,741806.993,8,400,,,
sequence,flow.Sequence,4_122,2023-09-12T00:47:18.121Z,,0,,,4665.033000381431,completion,,,,,false,,,,741779.9000000954,741779.6000003815,737097.913,737099.6000003815,737114.567,741806.993,8,400,,,
trial,html.Screen,4_123_0,2023-09-12T00:47:22.763Z,,0,3,,4615.107000381453,response,ISIC_0032369.JPG,4,ISIC_1658623.JPG,ISIC_0032369.JPG,false,1,keypress(m),500,746422.2000002861,746422.1000003815,741790.309,741780,741806.993,746432.668,8,400,24,,ISIC_1658623.JPG
break,html.Screen,4_123_1,2023-09-12T00:47:22.764Z,,0,,,NaN,,,,,,false,,,,746422.7000002861,746422.5,,746422.3000001907,,746432.668,8,400,,,
break_continue,html.Screen,4_123_2,2023-09-12T00:47:22.764Z,,0,,,NaN,,,,,,false,,,,746422.9000000954,746422.8000001907,,746422.7000002861,,746432.668,8,400,,,
sequence,flow.Sequence,4_123,2023-09-12T00:47:22.764Z,,0,,,4615.807000190718,completion,,,,,false,,,,746423,746422.8000001907,741790.309,741779.9000000954,741806.993,746432.668,8,400,,,
trial,html.Screen,4_124_0,2023-09-12T00:47:27.459Z,,0,3,,4684.7320000954205,response,ISIC_0055917.JPG,5,ISIC_0046526.JPG,ISIC_0046526.JPG,false,0,keypress(z),500,751117.5,751117.4000000954,746415.981,746423.2000002861,746432.668,751125.142,8,400,25,,ISIC_0055917.JPG
break,html.Screen,4_124_1,2023-09-12T00:47:27.459Z,,0,,,NaN,,,,,,false,,,,751118.1000003815,751118,,751117.7000002861,,751125.142,8,400,,,
break_continue,html.Screen,4_124_2,2023-09-12T00:47:27.460Z,,0,,,NaN,,,,,,false,,,,751118.4000000954,751118.4000000954,,751118.2000002861,,751125.142,8,400,,,
sequence,flow.Sequence,4_124,2023-09-12T00:47:27.460Z,,0,,,4685.7320000954205,completion,,,,,false,,,,751118.5,751118.4000000954,746415.981,746423.2000002861,746432.668,751125.142,8,400,,,
trial,html.Screen,4_125_0,2023-09-12T00:47:32.709Z,,0,3,,5242.158000190742,response,ISIC_0033091.JPG,5,ISIC_4177450.JPG,ISIC_4177450.JPG,false,0,keypress(z),500,756367.4000000954,756367.3000001907,751108.49,751118.6000003815,751125.142,756385.449,8,400,26,,ISIC_0033091.JPG
break,html.Screen,4_125_1,2023-09-12T00:47:32.709Z,,0,,,NaN,,,,,,false,,,,756367.9000000954,756367.8000001907,,756367.6000003815,,756385.449,8,400,,,
break_continue,html.Screen,4_125_2,2023-09-12T00:47:32.709Z,,0,,,NaN,,,,,,false,,,,756368.1000003815,756368,,756367.9000000954,,756385.449,8,400,,,
sequence,flow.Sequence,4_125,2023-09-12T00:47:32.709Z,,0,,,5242.858000000007,completion,,,,,false,,,,756368.1000003815,756368,751108.49,751118.6000003815,751125.142,756385.449,8,400,,,
trial,html.Screen,4_126_0,2023-09-12T00:47:37.511Z,,0,3,,4784.25100028608,response,ISIC_6208107.JPG,4,ISIC_0377965.JPG,ISIC_0377965.JPG,false,0,keypress(z),500,761169.8000001907,761169.7000002861,756368.66,756368.2000002861,756385.449,761177.999,8,400,27,,ISIC_6208107.JPG
