sender,sender_type,sender_id,timestamp,meta,,blockNo,condition,duration,ended_on,img_left,img_reveal,img_right,loser,practice,response,response_action,selection_duration,time_commit,time_end,time_render,time_run,time_show,time_switch,total_blocks,total_trials,trialNo,url,winner
informed_consent,html.Screen,0,2023-09-11T20:04:45.896Z,"{""labjs_version"":""20.2.4"",""labjs_build"":{""flavor"":""development"",""commit"":""f5b4a49f956347addd546a832a3327688c2c0fef""},""location"":""https://labjs.felixhenninger.com/api/labjs_preview/index.html"",""userAgent"":""Mozilla/5.0 (Windows NT 10.0; Win64; x64) AppleWebKit/537.36 (KHTML, like Gecko) Chrome/116.0.0.0 Safari/537.36"",""platform"":""Win32"",""language"":""en-AU"",""locale"":""en-US"",""timeZone"":""America/Chicago"",""timezoneOffset"":300,""screen_width"":1680,""screen_height"":1050,""scroll_width"":1296,""scroll_height"":688,""window_innerWidth"":1296,""window_innerHeight"":736,""devicePixelRatio"":1}",,,,5112.158000190735,response,,,,,,consent,click button,,5672.900000095367,5671.800000190735,542.953,555,559.642,5702.952,,,,{},
Welcome,html.Screen,1,2023-09-11T20:04:46.616Z,,,,uniform,689.1480003814695,response,,,,,,continue,click button,,6392.800000190735,6392.10000038147,5686.28,5673.200000286102,5702.952,6404.344,,,,,
trial,html.Screen,2_0_0,2023-09-11T20:04:58.119Z,,0,0,,11522.408,timeout,ISIC_0025593.JPG,,ISIC_0063388.JPG,,true,,,500,17894.400000095367,17894,6387.683,6392.900000095367,6404.344,17926.752,1,6,1,,
sequence,flow.Sequence,2_0,2023-09-11T20:04:58.119Z,,0,,,11489.655999999999,completion,,,,,true,,,,17894.800000190735,17894,6387.683,6392.900000095367,6404.344,17926.752,1,6,,,
trial,html.Screen,2_1_0,2023-09-11T20:05:09.147Z,,0,0,,10995.048000190734,response,ISIC_1309015.JPG,,ISIC_0028178.JPG,ISIC_0028178.JPG,true,0,keypress(z),500,28922.10000038147,28921.800000190735,17910.135,17894.900000095367,17926.752,28931.576,1,6,2,,ISIC_1309015.JPG
sequence,flow.Sequence,2_1,2023-09-11T20:05:09.147Z,,0,,,10995.048000190734,completion,,,,,true,,,,28922.200000286102,28921.800000190735,17910.135,17894.900000095367,17926.752,28931.576,1,6,,,
trial,html.Screen,2_2_0,2023-09-11T20:05:14.797Z,,0,0,,5640.3240000953665,response,ISIC_0031128.JPG,,ISIC_3314853.JPG,ISIC_0031128.JPG,true,1,keypress(m),500,34572.300000190735,34571.90000009537,28915.03,28922.400000095367,28931.576,34575.847,1,6,3,,ISIC_3314853.JPG
sequence,flow.Sequence,2_2,2023-09-11T20:05:14.797Z,,0,,,5640.3240000953665,completion,,,,,true,,,,34572.60000038147,34571.90000009537,28915.03,28922.400000095367,28931.576,34575.847,1,6,,,
trial,html.Screen,2_3_0,2023-09-11T20:05:20.783Z,,0,0,,5982.053000095366,response,ISIC_0031612.JPG,,ISIC_8980141.JPG,ISIC_8980141.JPG,true,0,keypress(z),500,40558,40557.90000009537,34559.266,34572.800000190735,34575.847,40571.04,1,6,4,,ISIC_0031612.JPG
sequence,flow.Sequence,2_3,2023-09-11T20:05:20.783Z,,0,,,5982.053000095366,completion,,,,,true,,,,40558.10000038147,40557.90000009537,34559.266,34572.800000190735,34575.847,40571.04,1,6,,,
trial,html.Screen,2_4_0,2023-09-11T20:05:23.922Z,,0,0,,3126.060000381469,response,ISIC_9721604.JPG,,ISIC_1197737.JPG,ISIC_1197737.JPG,true,0,keypress(z),500,43697.7000002861,43697.10000038147,40554.205,40558.2000002861,40571.04,43710.291,1,6,5,,ISIC_9721604.JPG
sequence,flow.Sequence,2_4,2023-09-11T20:05:23.923Z,,0,,,3126.060000381469,completion,,,,,true,,,,43698.2000002861,43697.10000038147,40554.205,40558.2000002861,40571.04,43710.291,1,6,,,
trial,html.Screen,2_5_0,2023-09-11T20:05:26.901Z,,0,0,,2966.3090003814723,response,ISIC_0010681.JPG,,ISIC_0025346.JPG,ISIC_0025346.JPG,true,0,keypress(z),500,46676.7000002861,46676.60000038147,43693.649,43698.40000009537,43710.291,46682.758,1,6,6,,ISIC_0010681.JPG
sequence,flow.Sequence,2_5,2023-09-11T20:05:26.901Z,,0,,,2966.3090003814723,completion,,,,,true,,,,46676.800000190735,46676.60000038147,43693.649,43698.40000009537,43710.291,46682.758,1,6,,,
loop,flow.Loop,2,2023-09-11T20:05:26.902Z,,,,,40272.25600038147,completion,,,,,true,,,,46677,46676.60000038147,6387.683,6392.900000095367,6404.344,46682.758,1,6,,,
exp_instructions,html.Screen,3,2023-09-11T20:33:26.973Z,,,,,1680036.1420000955,response,,,,,,continue,keypress(Space),,1726726.9000000954,1726718.9000000954,46666.118,46677.10000038147,46682.758,1726735.496,,,,,
trial,html.Screen,4_0_0,2023-09-11T20:33:34.704Z,,0,1,,7721.804000190692,response,ISIC_4307626.JPG,5,ISIC_5848892.JPG,ISIC_4307626.JPG,false,1,keypress(m),500,1734457.5,1734457.3000001907,1726718.746,1726727.1000003815,1726735.496,1734467.203,8,400,1,,ISIC_5848892.JPG
break,html.Screen,4_0_1,2023-09-11T20:33:34.705Z,,0,,,NaN,,,,,,false,,,,1734458.6000003815,1734458.3000001907,,1734457.8000001907,,1734467.203,8,400,,,
break_continue,html.Screen,4_0_2,2023-09-11T20:33:34.705Z,,0,,,NaN,,,,,,false,,,,1734459.200000286,1734459,,1734458.700000286,,1734467.203,8,400,,,
sequence,flow.Sequence,4_0,2023-09-11T20:33:34.706Z,,0,,,7723.503999999957,completion,,,,,false,,,,1734459.4000000954,1734459,1726718.746,1726727.1000003815,1726735.496,1734467.203,8,400,,,
trial,html.Screen,4_1_0,2023-09-11T20:33:41.955Z,,0,1,,7241.7970000000205,response,ISIC_0062204.JPG,5,ISIC_0006754.JPG,ISIC_0062204.JPG,false,1,keypress(m),500,1741709.1000003815,1741709,1734450.472,1734459.5,1734467.203,1741714.633,8,400,2,,ISIC_0006754.JPG
break,html.Screen,4_1_1,2023-09-11T20:33:41.956Z,,0,,,NaN,,,,,,false,,,,1741709.6000003815,1741709.5,,1741709.200000286,,1741714.633,8,400,,,
break_continue,html.Screen,4_1_2,2023-09-11T20:33:41.956Z,,0,,,NaN,,,,,,false,,,,1741709.8000001907,1741709.8000001907,,1741709.700000286,,1741714.633,8,400,,,
sequence,flow.Sequence,4_1,2023-09-11T20:33:41.956Z,,0,,,7242.597000190755,completion,,,,,false,,,,1741709.8000001907,1741709.8000001907,1734450.472,1734459.5,1734467.203,1741714.633,8,400,,,
trial,html.Screen,4_2_0,2023-09-11T20:33:51.446Z,,0,1,,9484.867000000086,response,ISIC_0056788.JPG,4,ISIC_4070687.JPG,ISIC_0056788.JPG,false,1,keypress(m),500,1751199.700000286,1751199.5,1741697.923,1741709.9000000954,1741714.633,1751216.427,8,400,3,,ISIC_4070687.JPG
break,html.Screen,4_2_1,2023-09-11T20:33:51.447Z,,0,,,NaN,,,,,,false,,,,1751200.5,1751200.200000286,,1751199.9000000954,,1751216.427,8,400,,,
break_continue,html.Screen,4_2_2,2023-09-11T20:33:51.447Z,,0,,,NaN,,,,,,false,,,,1751200.9000000954,1751200.700000286,,1751200.6000003815,,1751216.427,8,400,,,
sequence,flow.Sequence,4_2,2023-09-11T20:33:51.447Z,,0,,,9486.067000286188,completion,,,,,false,,,,1751201,1751200.700000286,1741697.923,1741709.9000000954,1741714.633,1751216.427,8,400,,,
trial,html.Screen,4_3_0,2023-09-11T20:33:59.774Z,,0,1,,8311.373000190826,response,ISIC_0031422.JPG,5,ISIC_0024586.JPG,ISIC_0024586.JPG,false,0,keypress(z),500,1759527.9000000954,1759527.8000001907,1751199.725,1751201.1000003815,1751216.427,1759532.64,8,400,4,,ISIC_0031422.JPG
break,html.Screen,4_3_1,2023-09-11T20:33:59.775Z,,0,,,NaN,,,,,,false,,,,1759528.4000000954,1759528.4000000954,,1759528.1000003815,,1759532.64,8,400,,,
break_continue,html.Screen,4_3_2,2023-09-11T20:33:59.775Z,,0,,,NaN,,,,,,false,,,,1759528.700000286,1759528.6000003815,,1759528.6000003815,,1759532.64,8,400,,,
sequence,flow.Sequence,4_3,2023-09-11T20:33:59.775Z,,0,,,8312.173000381561,completion,,,,,false,,,,1759528.8000001907,1759528.6000003815,1751199.725,1751201.1000003815,1751216.427,1759532.64,8,400,,,
trial,html.Screen,4_4_0,2023-09-11T20:34:08.626Z,,0,1,,8846.460000381572,response,ISIC_6548734.JPG,5,ISIC_5404908.JPG,ISIC_6548734.JPG,false,1,keypress(m),500,1768379.3000001907,1768379.1000003815,1759516.197,1759528.8000001907,1759532.64,1768383.14,8,400,5,,ISIC_5404908.JPG
break,html.Screen,4_4_1,2023-09-11T20:34:08.626Z,,0,,,NaN,,,,,,false,,,,1768379.6000003815,1768379.6000003815,,1768379.3000001907,,1768383.14,8,400,,,
break_continue,html.Screen,4_4_2,2023-09-11T20:34:08.626Z,,0,,,NaN,,,,,,false,,,,1768379.9000000954,1768379.9000000954,,1768379.8000001907,,1768383.14,8,400,,,
sequence,flow.Sequence,4_4,2023-09-11T20:34:08.626Z,,0,,,8847.26000009547,completion,,,,,false,,,,1768380,1768379.9000000954,1759516.197,1759528.8000001907,1759532.64,1768383.14,8,400,,,
trial,html.Screen,4_5_0,2023-09-11T20:34:16.596Z,,0,1,,7966.26000009547,response,ISIC_6971606.JPG,4,ISIC_9564379.JPG,ISIC_6971606.JPG,false,1,keypress(m),500,1776349.5,1776349.4000000954,1768366.435,1768380,1768383.14,1776365.435,8,400,6,,ISIC_9564379.JPG
break,html.Screen,4_5_1,2023-09-11T20:34:16.597Z,,0,,,NaN,,,,,,false,,,,1776350.700000286,1776350.5,,1776349.8000001907,,1776365.435,8,400,,,
break_continue,html.Screen,4_5_2,2023-09-11T20:34:16.597Z,,0,,,NaN,,,,,,false,,,,1776351.1000003815,1776351,,1776350.9000000954,,1776365.435,8,400,,,
sequence,flow.Sequence,4_5,2023-09-11T20:34:16.598Z,,0,,,7967.860000000102,completion,,,,,false,,,,1776351.200000286,1776351,1768366.435,1768380,1768383.14,1776365.435,8,400,,,
trial,html.Screen,4_6_0,2023-09-11T20:34:23.389Z,,0,1,,6776.165000381414,response,ISIC_1228845.JPG,5,ISIC_3170155.JPG,ISIC_1228845.JPG,false,1,keypress(m),500,1783141.700000286,1783141.6000003815,1776348.759,1776351.3000001907,1776365.435,1783145.236,8,400,7,,ISIC_3170155.JPG
break,html.Screen,4_6_1,2023-09-11T20:34:23.389Z,,0,,,NaN,,,,,,false,,,,1783142.3000001907,1783142.1000003815,,1783141.9000000954,,1783145.236,8,400,,,
break_continue,html.Screen,4_6_2,2023-09-11T20:34:23.390Z,,0,,,NaN,,,,,,false,,,,1783142.6000003815,1783142.6000003815,,1783142.4000000954,,1783145.236,8,400,,,
sequence,flow.Sequence,4_6,2023-09-11T20:34:23.390Z,,0,,,6777.165000381414,completion,,,,,false,,,,1783142.700000286,1783142.6000003815,1776348.759,1776351.3000001907,1776365.435,1783145.236,8,400,,,
trial,html.Screen,4_7_0,2023-09-11T20:34:31.413Z,,0,1,,8020.064000190701,response,ISIC_0010411.JPG,5,ISIC_4252887.JPG,ISIC_4252887.JPG,false,0,keypress(z),500,1791165.700000286,1791165.3000001907,1783128.565,1783142.8000001907,1783145.236,1791177.567,8,400,8,,ISIC_0010411.JPG
break,html.Screen,4_7_1,2023-09-11T20:34:31.414Z,,0,,,NaN,,,,,,false,,,,1791167.200000286,1791166.700000286,,1791166.1000003815,,1791177.567,8,400,,,
break_continue,html.Screen,4_7_2,2023-09-11T20:34:31.415Z,,0,,,NaN,,,,,,false,,,,1791167.8000001907,1791167.700000286,,1791167.4000000954,,1791177.567,8,400,,,
sequence,flow.Sequence,4_7,2023-09-11T20:34:31.415Z,,0,,,8022.464000286069,completion,,,,,false,,,,1791168.1000003815,1791167.700000286,1783128.565,1783142.8000001907,1783145.236,1791177.567,8,400,,,
trial,html.Screen,4_8_0,2023-09-11T20:34:38.380Z,,0,1,,6954.833000095328,response,ISIC_8009880.JPG,5,ISIC_5055871.JPG,ISIC_5055871.JPG,false,0,keypress(z),500,1798132.6000003815,1798132.4000000954,1791160.843,1791168.200000286,1791177.567,1798141.066,8,400,9,,ISIC_8009880.JPG
break,html.Screen,4_8_1,2023-09-11T20:34:38.381Z,,0,,,NaN,,,,,,false,,,,1798133.700000286,1798133.200000286,,1798132.8000001907,,1798141.066,8,400,,,
break_continue,html.Screen,4_8_2,2023-09-11T20:34:38.381Z,,0,,,NaN,,,,,,false,,,,1798134.200000286,1798134.1000003815,,1798133.9000000954,,1798141.066,8,400,,,
sequence,flow.Sequence,4_8,2023-09-11T20:34:38.382Z,,0,,,6956.533000381431,completion,,,,,false,,,,1798134.6000003815,1798134.1000003815,1791160.843,1791168.200000286,1791177.567,1798141.066,8,400,,,
trial,html.Screen,4_9_0,2023-09-11T20:34:43.072Z,,0,1,,4683.334000095259,response,ISIC_0490714.JPG,4,ISIC_4445729.JPG,ISIC_4445729.JPG,false,0,keypress(z),500,1802824.6000003815,1802824.4000000954,1798124.399,1798134.8000001907,1798141.066,1802833.534,8,400,10,,ISIC_0490714.JPG
break,html.Screen,4_9_1,2023-09-11T20:34:43.073Z,,0,,,NaN,,,,,,false,,,,1802825.700000286,1802825.4000000954,,1802824.8000001907,,1802833.534,8,400,,,
break_continue,html.Screen,4_9_2,2023-09-11T20:34:43.073Z,,0,,,NaN,,,,,,false,,,,1802826.200000286,1802826,,1802825.8000001907,,1802833.534,8,400,,,
sequence,flow.Sequence,4_9,2023-09-11T20:34:43.073Z,,0,,,4684.933999999892,completion,,,,,false,,,,1802826.3000001907,1802826,1798124.399,1798134.700000286,1798141.066,1802833.534,8,400,,,
trial,html.Screen,4_10_0,2023-09-11T20:34:49.926Z,,0,1,,6845.366000095382,response,ISIC_0064997.JPG,6,ISIC_0067953.JPG,ISIC_0064997.JPG,false,1,keypress(m),500,1809679,1809678.9000000954,1802816.855,1802826.5,1802833.534,1809697.758,8,400,11,,ISIC_0067953.JPG
break,html.Screen,4_10_1,2023-09-11T20:34:49.927Z,,0,,,NaN,,,,,,false,,,,1809679.700000286,1809679.5,,1809679.200000286,,1809697.758,8,400,,,
break_continue,html.Screen,4_10_2,2023-09-11T20:34:49.927Z,,0,,,NaN,,,,,,false,,,,1809680,1809680,,1809679.8000001907,,1809697.758,8,400,,,
sequence,flow.Sequence,4_10,2023-09-11T20:34:49.927Z,,0,,,6846.466000000015,completion,,,,,false,,,,1809680.200000286,1809680,1802816.855,1802826.5,1802833.534,1809697.758,8,400,,,
trial,html.Screen,4_11_0,2023-09-11T20:34:56.943Z,,0,1,,6998.342000381555,response,ISIC_9021685.JPG,4,ISIC_5258657.JPG,ISIC_5258657.JPG,false,0,keypress(z),500,1816696.3000001907,1816696.1000003815,1809663.59,1809680.200000286,1809697.758,1816710.637,8,400,12,,ISIC_9021685.JPG
break,html.Screen,4_11_1,2023-09-11T20:34:56.944Z,,0,,,NaN,,,,,,false,,,,1816697.5,1816697.200000286,,1816696.6000003815,,1816710.637,8,400,,,
break_continue,html.Screen,4_11_2,2023-09-11T20:34:56.945Z,,0,,,NaN,,,,,,false,,,,1816697.9000000954,1816697.8000001907,,1816697.6000003815,,1816710.637,8,400,,,
sequence,flow.Sequence,4_11,2023-09-11T20:34:56.945Z,,0,,,7000.0420001908205,completion,,,,,false,,,,1816698.1000003815,1816697.8000001907,1809663.59,1809680.200000286,1809697.758,1816710.637,8,400,,,
trial,html.Screen,4_12_0,2023-09-11T20:35:03.369Z,,0,1,,6411.463000381365,response,ISIC_9197665.JPG,6,ISIC_0000144.JPG,ISIC_0000144.JPG,false,0,keypress(z),500,1823122.200000286,1823122.1000003815,1816693.874,1816698.3000001907,1816710.637,1823123.02,8,400,13,,ISIC_9197665.JPG
break,html.Screen,4_12_1,2023-09-11T20:35:03.370Z,,0,,,NaN,,,,,,false,,,,1823122.700000286,1823122.5,,1823122.3000001907,,1823123.02,8,400,,,
break_continue,html.Screen,4_12_2,2023-09-11T20:35:03.370Z,,0,,,NaN,,,,,,false,,,,1823122.9000000954,1823122.9000000954,,1823122.700000286,,1823123.02,8,400,,,
sequence,flow.Sequence,4_12,2023-09-11T20:35:03.370Z,,0,,,6412.263000095263,completion,,,,,false,,,,1823123,1823122.9000000954,1816693.874,1816698.200000286,1816710.637,1823123.02,8,400,,,
trial,html.Screen,4_13_0,2023-09-11T20:35:06.883Z,,0,1,,3512.580000381451,response,ISIC_5624273.JPG,4,ISIC_0059435.JPG,ISIC_0059435.JPG,false,0,keypress(z),500,1826635.8000001907,1826635.6000003815,1823106.35,1823123.200000286,1823123.02,1826663.248,8,400,14,,ISIC_5624273.JPG
break,html.Screen,4_13_1,2023-09-11T20:35:06.883Z,,0,,,NaN,,,,,,false,,,,1826636.5,1826636.3000001907,,1826636,,1826663.248,8,400,,,
break_continue,html.Screen,4_13_2,2023-09-11T20:35:06.884Z,,0,,,NaN,,,,,,false,,,,1826636.9000000954,1826636.8000001907,,1826636.6000003815,,1826663.248,8,400,,,
sequence,flow.Sequence,4_13,2023-09-11T20:35:06.884Z,,0,,,3513.7800001907162,completion,,,,,false,,,,1826637,1826636.8000001907,1823106.35,1823123.1000003815,1823123.02,1826663.248,8,400,,,
trial,html.Screen,4_14_0,2023-09-11T20:35:10.012Z,,0,1,,3101.4520002861973,response,ISIC_0054422.JPG,5,ISIC_0072991.JPG,ISIC_0072991.JPG,false,0,keypress(z),500,1829764.8000001907,1829764.700000286,1826646.676,1826637.1000003815,1826663.248,1829769.261,8,400,15,,ISIC_0054422.JPG
break,html.Screen,4_14_1,2023-09-11T20:35:10.012Z,,0,,,NaN,,,,,,false,,,,1829765.200000286,1829765,,1829764.9000000954,,1829769.261,8,400,,,
break_continue,html.Screen,4_14_2,2023-09-11T20:35:10.012Z,,0,,,NaN,,,,,,false,,,,1829765.4000000954,1829765.3000001907,,1829765.200000286,,1829769.261,8,400,,,
sequence,flow.Sequence,4_14,2023-09-11T20:35:10.012Z,,0,,,3102.05200019083,completion,,,,,false,,,,1829765.5,1829765.3000001907,1826646.676,1826637,1826663.248,1829769.261,8,400,,,
trial,html.Screen,4_15_0,2023-09-11T20:35:13.407Z,,0,1,,3390.139000095427,response,ISIC_0056257.JPG,5,ISIC_7637597.JPG,ISIC_0056257.JPG,false,1,keypress(m),500,1833159.6000003815,1833159.4000000954,1829752.714,1829765.5,1829769.261,1833176.037,8,400,16,,ISIC_7637597.JPG
break,html.Screen,4_15_1,2023-09-11T20:35:13.407Z,,0,,,NaN,,,,,,false,,,,1833160.3000001907,1833160.1000003815,,1833159.700000286,,1833176.037,8,400,,,
break_continue,html.Screen,4_15_2,2023-09-11T20:35:13.408Z,,0,,,NaN,,,,,,false,,,,1833160.5,1833160.5,,1833160.4000000954,,1833176.037,8,400,,,
sequence,flow.Sequence,4_15,2023-09-11T20:35:13.408Z,,0,,,3391.2390000000596,completion,,,,,false,,,,1833160.700000286,1833160.5,1829752.714,1829765.5,1829769.261,1833176.037,8,400,,,
trial,html.Screen,4_16_0,2023-09-11T20:35:16.530Z,,0,1,,3106.663000286091,response,ISIC_3105136.JPG,6,ISIC_7642591.JPG,ISIC_3105136.JPG,false,1,keypress(m),500,1836282.8000001907,1836282.700000286,1833159.233,1833160.8000001907,1833176.037,1836298.65,8,400,17,,ISIC_7642591.JPG
break,html.Screen,4_16_1,2023-09-11T20:35:16.530Z,,0,,,NaN,,,,,,false,,,,1836283.4000000954,1836283.200000286,,1836282.9000000954,,1836298.65,8,400,,,
break_continue,html.Screen,4_16_2,2023-09-11T20:35:16.531Z,,0,,,NaN,,,,,,false,,,,1836283.6000003815,1836283.5,,1836283.4000000954,,1836298.65,8,400,,,
sequence,flow.Sequence,4_16,2023-09-11T20:35:16.531Z,,0,,,3107.462999999989,completion,,,,,false,,,,1836283.700000286,1836283.5,1833159.233,1833160.8000001907,1833176.037,1836298.65,8,400,,,
trial,html.Screen,4_17_0,2023-09-11T20:35:22.053Z,,0,1,,5506.650000190828,response,ISIC_0067562.JPG,4,ISIC_4957315.JPG,ISIC_0067562.JPG,false,1,keypress(m),500,1841805.4000000954,1841805.3000001907,1836281.965,1836283.8000001907,1836298.65,1841809.352,8,400,18,,ISIC_4957315.JPG
break,html.Screen,4_17_1,2023-09-11T20:35:22.054Z,,0,,,NaN,,,,,,false,,,,1841806,1841805.8000001907,,1841805.6000003815,,1841809.352,8,400,,,
break_continue,html.Screen,4_17_2,2023-09-11T20:35:22.054Z,,0,,,NaN,,,,,,false,,,,1841806.200000286,1841806.1000003815,,1841806,,1841809.352,8,400,,,
sequence,flow.Sequence,4_17,2023-09-11T20:35:22.054Z,,0,,,5507.450000381563,completion,,,,,false,,,,1841806.3000001907,1841806.1000003815,1836281.965,1836283.700000286,1836298.65,1841809.352,8,400,,,
trial,html.Screen,4_18_0,2023-09-11T20:35:25.674Z,,0,1,,3616.4480001907796,response,ISIC_0034166.JPG,4,ISIC_0070017.JPG,ISIC_0070017.JPG,false,0,keypress(z),500,1845425.9000000954,1845425.8000001907,1841792.657,1841806.4000000954,1841809.352,1845433.091,8,400,19,,ISIC_0034166.JPG
break,html.Screen,4_18_1,2023-09-11T20:35:25.674Z,,0,,,NaN,,,,,,false,,,,1845426.3000001907,1845426.200000286,,1845425.9000000954,,1845433.091,8,400,,,
break_continue,html.Screen,4_18_2,2023-09-11T20:35:25.674Z,,0,,,NaN,,,,,,false,,,,1845426.4000000954,1845426.4000000954,,1845426.3000001907,,1845433.091,8,400,,,
sequence,flow.Sequence,4_18,2023-09-11T20:35:25.674Z,,0,,,3617.048000095412,completion,,,,,false,,,,1845426.5,1845426.4000000954,1841792.657,1841806.4000000954,1841809.352,1845433.091,8,400,,,
trial,html.Screen,4_19_0,2023-09-11T20:35:29.184Z,,0,1,,3502.509000381455,response,ISIC_5994007.JPG,5,ISIC_4066726.JPG,ISIC_4066726.JPG,false,0,keypress(z),500,1848935.8000001907,1848935.6000003815,1845416.427,1845426.5,1845433.091,1848939.913,8,400,20,,ISIC_5994007.JPG
break,html.Screen,4_19_1,2023-09-11T20:35:29.184Z,,0,,,NaN,,,,,,false,,,,1848936.200000286,1848936.200000286,,1848936,,1848939.913,8,400,,,
break_continue,html.Screen,4_19_2,2023-09-11T20:35:29.184Z,,0,,,NaN,,,,,,false,,,,1848936.4000000954,1848936.4000000954,,1848936.3000001907,,1848939.913,8,400,,,
sequence,flow.Sequence,4_19,2023-09-11T20:35:29.184Z,,0,,,3503.3090000953525,completion,,,,,false,,,,1848936.5,1848936.4000000954,1845416.427,1845426.5,1845433.091,1848939.913,8,400,,,
trial,html.Screen,4_20_0,2023-09-11T20:35:38.803Z,,0,1,,9614.887000190793,response,ISIC_0000301.JPG,5,ISIC_0072507.JPG,ISIC_0072507.JPG,false,0,keypress(z),500,1858555,1858554.8000001907,1848923.264,1848936.6000003815,1848939.913,1858558.629,8,400,21,,ISIC_0000301.JPG
break,html.Screen,4_20_1,2023-09-11T20:35:38.803Z,,0,,,NaN,,,,,,false,,,,1858555.3000001907,1858555.3000001907,,1858555,,1858558.629,8,400,,,
break_continue,html.Screen,4_20_2,2023-09-11T20:35:38.803Z,,0,,,NaN,,,,,,false,,,,1858555.5,1858555.5,,1858555.4000000954,,1858558.629,8,400,,,
sequence,flow.Sequence,4_20,2023-09-11T20:35:38.803Z,,0,,,9615.587000000058,completion,,,,,false,,,,1858555.6000003815,1858555.5,1848923.264,1848936.6000003815,1848939.913,1858558.629,8,400,,,
trial,html.Screen,4_21_0,2023-09-11T20:35:45.015Z,,0,1,,6208.77100009541,response,ISIC_8712559.JPG,5,ISIC_0054963.JPG,ISIC_0054963.JPG,false,0,keypress(z),500,1864767.6000003815,1864767.4000000954,1858541.989,1858555.700000286,1858558.629,1864770.791,8,400,22,,ISIC_8712559.JPG
break,html.Screen,4_21_1,2023-09-11T20:35:45.016Z,,0,,,NaN,,,,,,false,,,,1864768.5,1864768.3000001907,,1864767.8000001907,,1864770.791,8,400,,,
break_continue,html.Screen,4_21_2,2023-09-11T20:35:45.017Z,,0,,,NaN,,,,,,false,,,,1864768.8000001907,1864768.8000001907,,1864768.6000003815,,1864770.791,8,400,,,
sequence,flow.Sequence,4_21,2023-09-11T20:35:45.017Z,,0,,,6210.171000190778,completion,,,,,false,,,,1864769,1864768.8000001907,1858541.989,1858555.6000003815,1858558.629,1864770.791,8,400,,,
trial,html.Screen,4_22_0,2023-09-11T20:35:49.291Z,,0,1,,4272.309000381501,response,ISIC_0056723.JPG,5,ISIC_0527350.JPG,ISIC_0056723.JPG,false,1,keypress(m),500,1869043.200000286,1869043.1000003815,1864754.042,1864769.1000003815,1864770.791,1869045.754,8,400,23,,ISIC_0527350.JPG
break,html.Screen,4_22_1,2023-09-11T20:35:49.292Z,,0,,,NaN,,,,,,false,,,,1869043.700000286,1869043.6000003815,,1869043.3000001907,,1869045.754,8,400,,,
break_continue,html.Screen,4_22_2,2023-09-11T20:35:49.292Z,,0,,,NaN,,,,,,false,,,,1869043.8000001907,1869043.8000001907,,1869043.8000001907,,1869045.754,8,400,,,
sequence,flow.Sequence,4_22,2023-09-11T20:35:49.292Z,,0,,,4273.0090001907665,completion,,,,,false,,,,1869044,1869043.8000001907,1864754.042,1864769.1000003815,1864770.791,1869045.754,8,400,,,
trial,html.Screen,4_23_0,2023-09-11T20:35:53.667Z,,0,1,,4372.746000000043,response,ISIC_0010630.JPG,5,ISIC_3963183.JPG,ISIC_3963183.JPG,false,0,keypress(z),500,1873418.8000001907,1873418.5,1869029.205,1869044,1869045.754,1873437.589,8,400,24,,ISIC_0010630.JPG
break,html.Screen,4_23_1,2023-09-11T20:35:53.668Z,,0,,,NaN,,,,,,false,,,,1873419.9000000954,1873419.700000286,,1873419.1000003815,,1873437.589,8,400,,,
break_continue,html.Screen,4_23_2,2023-09-11T20:35:53.668Z,,0,,,NaN,,,,,,false,,,,1873420.6000003815,1873420.3000001907,,1873420.1000003815,,1873437.589,8,400,,,
sequence,flow.Sequence,4_23,2023-09-11T20:35:53.669Z,,0,,,4374.546000190778,completion,,,,,false,,,,1873420.8000001907,1873420.3000001907,1869029.205,1869044,1869045.754,1873437.589,8,400,,,
trial,html.Screen,4_24_0,2023-09-11T20:35:58.608Z,,0,1,,4922.3110000954475,response,ISIC_9433473.JPG,6,ISIC_0010723.JPG,ISIC_0010723.JPG,false,0,keypress(z),500,1878360,1878359.9000000954,1873420.951,1873421,1873437.589,1878363.826,8,400,25,,ISIC_9433473.JPG
break,html.Screen,4_24_1,2023-09-11T20:35:58.609Z,,0,,,NaN,,,,,,false,,,,1878360.700000286,1878360.5,,1878360.200000286,,1878363.826,8,400,,,
break_continue,html.Screen,4_24_2,2023-09-11T20:35:58.609Z,,0,,,NaN,,,,,,false,,,,1878361,1878360.9000000954,,1878360.8000001907,,1878363.826,8,400,,,
sequence,flow.Sequence,4_24,2023-09-11T20:35:58.609Z,,0,,,4923.3110000954475,completion,,,,,false,,,,1878361.1000003815,1878360.9000000954,1873420.951,1873420.9000000954,1873437.589,1878363.826,8,400,,,
trial,html.Screen,4_25_0,2023-09-11T20:36:04.098Z,,0,1,,5486.6740000001155,response,ISIC_3446357.JPG,6,ISIC_1072321.JPG,ISIC_3446357.JPG,false,1,keypress(m),500,1883850.5,1883850.5,1878347.237,1878361.1000003815,1878363.826,1883857.85,8,400,26,,ISIC_1072321.JPG
break,html.Screen,4_25_1,2023-09-11T20:36:04.099Z,,0,,,NaN,,,,,,false,,,,1883851.1000003815,1883851,,1883850.6000003815,,1883857.85,8,400,,,
break_continue,html.Screen,4_25_2,2023-09-11T20:36:04.099Z,,0,,,NaN,,,,,,false,,,,1883851.3000001907,1883851.3000001907,,1883851.200000286,,1883857.85,8,400,,,
sequence,flow.Sequence,4_25,2023-09-11T20:36:04.099Z,,0,,,5487.47400019085,completion,,,,,false,,,,1883851.4000000954,1883851.3000001907,1878347.237,1878361.1000003815,1878363.826,1883857.85,8,400,,,
trial,html.Screen,4_26_0,2023-09-11T20:36:08.566Z,,0,1,,4460.350000286009,response,ISIC_0031545.JPG,5,ISIC_0032690.JPG,ISIC_0031545.JPG,false,1,keypress(m),500,1888318.3000001907,1888318.200000286,1883841.245,1883851.5,1883857.85,1888349.937,8,400,27,,ISIC_0032690.JPG
break,html.Screen,4_26_1,2023-09-11T20:36:08.567Z,,0,,,NaN,,,,,,false,,,,1888319,1888318.700000286,,1888318.5,,1888349.937,8,400,,,
break_continue,html.Screen,4_26_2,2023-09-11T20:36:08.567Z,,0,,,NaN,,,,,,false,,,,1888319.3000001907,1888319.200000286,,1888319,,1888349.937,8,400,,,
sequence,flow.Sequence,4_26,2023-09-11T20:36:08.567Z,,0,,,4461.350000286009,completion,,,,,false,,,,1888319.3000001907,1888319.200000286,1883841.245,1883851.5,1883857.85,1888349.937,8,400,,,
trial,html.Screen,4_27_0,2023-09-11T20:36:15.705Z,,0,1,,7106.863000190817,response,ISIC_0031883.JPG,4,ISIC_0071783.JPG,ISIC_0031883.JPG,false,1,keypress(m),500,1895456.9000000954,1895456.8000001907,1888333.273,1888319.4000000954,1888349.937,1895463.746,8,400,28,,ISIC_0071783.JPG
break,html.Screen,4_27_1,2023-09-11T20:36:15.705Z,,0,,,NaN,,,,,,false,,,,1895457.5,1895457.4000000954,,1895457.1000003815,,1895463.746,8,400,,,
break_continue,html.Screen,4_27_2,2023-09-11T20:36:15.706Z,,0,,,NaN,,,,,,false,,,,1895458,1895457.9000000954,,1895457.700000286,,1895463.746,8,400,,,
sequence,flow.Sequence,4_27,2023-09-11T20:36:15.706Z,,0,,,7107.963000095449,completion,,,,,false,,,,1895458,1895457.9000000954,1888333.273,1888319.4000000954,1888349.937,1895463.746,8,400,,,
trial,html.Screen,4_28_0,2023-09-11T20:36:21.613Z,,0,1,,5900.354000381427,response,ISIC_3069695.JPG,5,ISIC_0011193.JPG,ISIC_3069695.JPG,false,1,keypress(m),500,1901364.3000001907,1901364.1000003815,1895447.117,1895458.200000286,1895463.746,1901375.303,8,400,29,,ISIC_0011193.JPG
break,html.Screen,4_28_1,2023-09-11T20:36:21.614Z,,0,,,NaN,,,,,,false,,,,1901365.1000003815,1901364.9000000954,,1901364.5,,1901375.303,8,400,,,
break_continue,html.Screen,4_28_2,2023-09-11T20:36:21.614Z,,0,,,NaN,,,,,,false,,,,1901365.4000000954,1901365.3000001907,,1901365.3000001907,,1901375.303,8,400,,,
sequence,flow.Sequence,4_28,2023-09-11T20:36:21.614Z,,0,,,5901.554000190692,completion,,,,,false,,,,1901365.5,1901365.3000001907,1895447.117,1895458.200000286,1895463.746,1901375.303,8,400,,,
trial,html.Screen,4_29_0,2023-09-11T20:36:27.089Z,,0,1,,5465.597000095295,response,ISIC_7852890.JPG,5,ISIC_3418245.JPG,ISIC_3418245.JPG,false,0,keypress(z),500,1906841.1000003815,1906840.9000000954,1901358.603,1901365.6000003815,1901375.303,1906852.599,8,400,30,,ISIC_7852890.JPG
break,html.Screen,4_29_1,2023-09-11T20:36:27.090Z,,0,,,NaN,,,,,,false,,,,1906841.5,1906841.3000001907,,1906841.200000286,,1906852.599,8,400,,,
break_continue,html.Screen,4_29_2,2023-09-11T20:36:27.090Z,,0,,,NaN,,,,,,false,,,,1906841.700000286,1906841.700000286,,1906841.6000003815,,1906852.599,8,400,,,
sequence,flow.Sequence,4_29,2023-09-11T20:36:27.090Z,,0,,,5466.39700028603,completion,,,,,false,,,,1906841.8000001907,1906841.700000286,1901358.603,1901365.6000003815,1901375.303,1906852.599,8,400,,,
trial,html.Screen,4_30_0,2023-09-11T20:36:31.876Z,,0,1,,4774.901000000071,response,ISIC_0062468.JPG,5,ISIC_2822622.JPG,ISIC_0062468.JPG,false,1,keypress(m),500,1911627.6000003815,1911627.5,1906835.916,1906841.8000001907,1906852.599,1911628.562,8,400,31,,ISIC_2822622.JPG
break,html.Screen,4_30_1,2023-09-11T20:36:31.876Z,,0,,,NaN,,,,,,false,,,,1911628,1911627.9000000954,,1911627.8000001907,,1911628.562,8,400,,,
break_continue,html.Screen,4_30_2,2023-09-11T20:36:31.877Z,,0,,,NaN,,,,,,false,,,,1911628.200000286,1911628.200000286,,1911628.1000003815,,1911628.562,8,400,,,
sequence,flow.Sequence,4_30,2023-09-11T20:36:31.877Z,,0,,,4775.601000286173,completion,,,,,false,,,,1911628.3000001907,1911628.200000286,1906835.916,1906841.8000001907,1906852.599,1911628.562,8,400,,,
trial,html.Screen,4_31_0,2023-09-11T20:36:37.068Z,,0,1,,5191.138000286184,response,ISIC_6766153.JPG,5,ISIC_6119208.JPG,ISIC_6766153.JPG,false,1,keypress(m),500,1916819.9000000954,1916819.700000286,1911611.905,1911628.3000001907,1911628.562,1916838.693,8,400,32,,ISIC_6119208.JPG
break,html.Screen,4_31_1,2023-09-11T20:36:37.069Z,,0,,,NaN,,,,,,false,,,,1916820.6000003815,1916820.4000000954,,1916820.1000003815,,1916838.693,8,400,,,
break_continue,html.Screen,4_31_2,2023-09-11T20:36:37.069Z,,0,,,NaN,,,,,,false,,,,1916820.9000000954,1916820.8000001907,,1916820.700000286,,1916838.693,8,400,,,
sequence,flow.Sequence,4_31,2023-09-11T20:36:37.069Z,,0,,,5192.238000190817,completion,,,,,false,,,,1916821,1916820.8000001907,1911611.905,1911628.3000001907,1911628.562,1916838.693,8,400,,,
trial,html.Screen,4_32_0,2023-09-11T20:36:42.646Z,,0,1,,5558.80700000003,response,ISIC_1985763.JPG,5,ISIC_4640293.JPG,ISIC_1985763.JPG,false,1,keypress(m),500,1922397.9000000954,1922397.5,1916822.063,1916821.1000003815,1916838.693,1922399.603,8,400,33,,ISIC_4640293.JPG
break,html.Screen,4_32_1,2023-09-11T20:36:42.648Z,,0,,,NaN,,,,,,false,,,,1922399.4000000954,1922398.9000000954,,1922398.3000001907,,1922399.603,8,400,,,
break_continue,html.Screen,4_32_2,2023-09-11T20:36:42.649Z,,0,,,NaN,,,,,,false,,,,1922400.6000003815,1922400.3000001907,,1922399.6000003815,,1922399.603,8,400,,,
sequence,flow.Sequence,4_32,2023-09-11T20:36:42.649Z,,0,,,5561.607000190765,completion,,,,,false,,,,1922401.1000003815,1922400.3000001907,1916822.063,1916821,1916838.693,1922399.603,8,400,,,
trial,html.Screen,4_33_0,2023-09-11T20:36:48.348Z,,0,1,,5699.797000095481,response,ISIC_0066328.JPG,5,ISIC_0031784.JPG,ISIC_0031784.JPG,false,0,keypress(z),500,1928099.6000003815,1928099.4000000954,1922382.954,1922401.200000286,1922399.603,1928110.691,8,400,34,,ISIC_0066328.JPG
break,html.Screen,4_33_1,2023-09-11T20:36:48.349Z,,0,,,NaN,,,,,,false,,,,1928100.1000003815,1928100,,1928099.700000286,,1928110.691,8,400,,,
break_continue,html.Screen,4_33_2,2023-09-11T20:36:48.349Z,,0,,,NaN,,,,,,false,,,,1928100.4000000954,1928100.3000001907,,1928100.200000286,,1928110.691,8,400,,,
sequence,flow.Sequence,4_33,2023-09-11T20:36:48.349Z,,0,,,5700.6970001908485,completion,,,,,false,,,,1928100.5,1928100.3000001907,1922382.954,1922401.1000003815,1922399.603,1928110.691,8,400,,,
trial,html.Screen,4_34_0,2023-09-11T20:36:52.910Z,,0,1,,4550.709000095259,response,ISIC_6721869.JPG,5,ISIC_9335652.JPG,ISIC_6721869.JPG,false,1,keypress(m),500,1932661.5,1932661.4000000954,1928093.986,1928100.5,1928110.691,1932669.613,8,400,35,,ISIC_9335652.JPG
break,html.Screen,4_34_1,2023-09-11T20:36:52.911Z,,0,,,NaN,,,,,,false,,,,1932662.5,1932662.200000286,,1932661.700000286,,1932669.613,8,400,,,
break_continue,html.Screen,4_34_2,2023-09-11T20:36:52.911Z,,0,,,NaN,,,,,,false,,,,1932663,1932662.8000001907,,1932662.6000003815,,1932669.613,8,400,,,
sequence,flow.Sequence,4_34,2023-09-11T20:36:52.912Z,,0,,,4552.109000190627,completion,,,,,false,,,,1932663.200000286,1932662.8000001907,1928093.986,1928100.5,1928110.691,1932669.613,8,400,,,
trial,html.Screen,4_35_0,2023-09-11T20:36:57.110Z,,0,1,,4191.387000000104,response,ISIC_8357420.JPG,5,ISIC_8897947.JPG,ISIC_8357420.JPG,false,1,keypress(m),500,1936861.1000003815,1936861,1932652.902,1932663.4000000954,1932669.613,1936877.858,8,400,36,,ISIC_8897947.JPG
break,html.Screen,4_35_1,2023-09-11T20:36:57.110Z,,0,,,NaN,,,,,,false,,,,1936861.700000286,1936861.6000003815,,1936861.200000286,,1936877.858,8,400,,,
break_continue,html.Screen,4_35_2,2023-09-11T20:36:57.110Z,,0,,,NaN,,,,,,false,,,,1936861.9000000954,1936861.9000000954,,1936861.700000286,,1936877.858,8,400,,,
sequence,flow.Sequence,4_35,2023-09-11T20:36:57.110Z,,0,,,4192.287000095472,completion,,,,,false,,,,1936861.9000000954,1936861.9000000954,1932652.902,1932663.3000001907,1932669.613,1936877.858,8,400,,,
trial,html.Screen,4_36_0,2023-09-11T20:37:02.489Z,,0,1,,5362.04200009536,response,ISIC_0028220.JPG,5,ISIC_0032597.JPG,ISIC_0032597.JPG,false,0,keypress(z),500,1942240,1942239.9000000954,1936861.124,1936862,1936877.858,1942254.943,8,400,37,,ISIC_0028220.JPG
break,html.Screen,4_36_1,2023-09-11T20:37:02.489Z,,0,,,NaN,,,,,,false,,,,1942240.5,1942240.4000000954,,1942240.200000286,,1942254.943,8,400,,,
break_continue,html.Screen,4_36_2,2023-09-11T20:37:02.489Z,,0,,,NaN,,,,,,false,,,,1942240.6000003815,1942240.6000003815,,1942240.6000003815,,1942254.943,8,400,,,
sequence,flow.Sequence,4_36,2023-09-11T20:37:02.489Z,,0,,,5362.742000381462,completion,,,,,false,,,,1942240.700000286,1942240.6000003815,1936861.124,1936862,1936877.858,1942254.943,8,400,,,
trial,html.Screen,4_37_0,2023-09-11T20:37:07.258Z,,0,1,,4754.55700000003,response,ISIC_7853136.JPG,4,ISIC_1484525.JPG,ISIC_1484525.JPG,false,0,keypress(z),500,1947009.700000286,1947009.5,1942238.194,1942240.8000001907,1942254.943,1947014.085,8,400,38,,ISIC_7853136.JPG
break,html.Screen,4_37_1,2023-09-11T20:37:07.259Z,,0,,,NaN,,,,,,false,,,,1947010.1000003815,1947010,,1947009.700000286,,1947014.085,8,400,,,
break_continue,html.Screen,4_37_2,2023-09-11T20:37:07.259Z,,0,,,NaN,,,,,,false,,,,1947010.3000001907,1947010.3000001907,,1947010.1000003815,,1947014.085,8,400,,,
sequence,flow.Sequence,4_37,2023-09-11T20:37:07.259Z,,0,,,4755.357000190765,completion,,,,,false,,,,1947010.4000000954,1947010.3000001907,1942238.194,1942240.8000001907,1942254.943,1947014.085,8,400,,,
trial,html.Screen,4_38_0,2023-09-11T20:37:10.989Z,,0,1,,3726.015000381507,response,ISIC_0028397.JPG,5,ISIC_0010658.JPG,ISIC_0010658.JPG,false,0,keypress(z),500,1950740.3000001907,1950740.1000003815,1946997.459,1947010.4000000954,1947014.085,1950754.795,8,400,39,,ISIC_0028397.JPG
break,html.Screen,4_38_1,2023-09-11T20:37:10.989Z,,0,,,NaN,,,,,,false,,,,1950740.700000286,1950740.6000003815,,1950740.3000001907,,1950754.795,8,400,,,
break_continue,html.Screen,4_38_2,2023-09-11T20:37:10.990Z,,0,,,NaN,,,,,,false,,,,1950741.1000003815,1950741.1000003815,,1950740.9000000954,,1950754.795,8,400,,,
sequence,flow.Sequence,4_38,2023-09-11T20:37:10.990Z,,0,,,3727.015000381507,completion,,,,,false,,,,1950741.3000001907,1950741.1000003815,1946997.459,1947010.4000000954,1947014.085,1950754.795,8,400,,,
trial,html.Screen,4_39_0,2023-09-11T20:37:16.095Z,,0,1,,5091.7050000000745,response,ISIC_0030703.JPG,4,ISIC_1819071.JPG,ISIC_0030703.JPG,false,1,keypress(m),500,1955846.5,1955846.5,1950738.029,1950741.4000000954,1950754.795,1955847.984,8,400,40,,ISIC_1819071.JPG
break,html.Screen,4_39_1,2023-09-11T20:37:16.095Z,,0,,,NaN,,,,,,false,,,,1955846.9000000954,1955846.9000000954,,1955846.700000286,,1955847.984,8,400,,,
break_continue,html.Screen,4_39_2,2023-09-11T20:37:16.096Z,,0,,,NaN,,,,,,false,,,,1955847.1000003815,1955847,,1955847,,1955847.984,8,400,,,
sequence,flow.Sequence,4_39,2023-09-11T20:37:16.096Z,,0,,,5092.2050000000745,completion,,,,,false,,,,1955847.200000286,1955847,1950738.029,1950741.3000001907,1950754.795,1955847.984,8,400,,,
trial,html.Screen,4_40_0,2023-09-11T20:37:21.081Z,,0,1,,4983.816000190796,response,ISIC_4459125.JPG,6,ISIC_4177450.JPG,ISIC_4177450.JPG,false,0,keypress(z),500,1960831.9000000954,1960831.8000001907,1955831.366,1955847.3000001907,1955847.984,1960841.087,8,400,41,,ISIC_4459125.JPG
break,html.Screen,4_40_1,2023-09-11T20:37:21.082Z,,0,,,NaN,,,,,,false,,,,1960832.5,1960832.3000001907,,1960832.1000003815,,1960841.087,8,400,,,
break_continue,html.Screen,4_40_2,2023-09-11T20:37:21.082Z,,0,,,NaN,,,,,,false,,,,1960832.6000003815,1960832.6000003815,,1960832.5,,1960841.087,8,400,,,
sequence,flow.Sequence,4_40,2023-09-11T20:37:21.082Z,,0,,,4984.616000381531,completion,,,,,false,,,,1960832.8000001907,1960832.6000003815,1955831.366,1955847.200000286,1955847.984,1960841.087,8,400,,,
trial,html.Screen,4_41_0,2023-09-11T20:37:26.495Z,,0,1,,5404.713000190677,response,ISIC_0192893.JPG,5,ISIC_1369273.JPG,ISIC_0192893.JPG,false,1,keypress(m),500,1966246,1966245.8000001907,1960824.321,1960832.8000001907,1960841.087,1966251.667,8,400,42,,ISIC_1369273.JPG
break,html.Screen,4_41_1,2023-09-11T20:37:26.496Z,,0,,,NaN,,,,,,false,,,,1966247,1966246.6000003815,,1966246.1000003815,,1966251.667,8,400,,,
break_continue,html.Screen,4_41_2,2023-09-11T20:37:26.497Z,,0,,,NaN,,,,,,false,,,,1966247.4000000954,1966247.3000001907,,1966247.1000003815,,1966251.667,8,400,,,
sequence,flow.Sequence,4_41,2023-09-11T20:37:26.497Z,,0,,,5406.213000190677,completion,,,,,false,,,,1966247.6000003815,1966247.3000001907,1960824.321,1960832.8000001907,1960841.087,1966251.667,8,400,,,
trial,html.Screen,4_42_0,2023-09-11T20:37:32.994Z,,0,1,,6493.533000286203,response,ISIC_9223156.JPG,5,ISIC_0072041.JPG,ISIC_0072041.JPG,false,0,keypress(z),500,1972745.3000001907,1972745.200000286,1966234.832,1966247.700000286,1966251.667,1972747.528,8,400,43,,ISIC_9223156.JPG
break,html.Screen,4_42_1,2023-09-11T20:37:32.995Z,,0,,,NaN,,,,,,false,,,,1972745.700000286,1972745.6000003815,,1972745.4000000954,,1972747.528,8,400,,,
break_continue,html.Screen,4_42_2,2023-09-11T20:37:32.995Z,,0,,,NaN,,,,,,false,,,,1972746,1972745.9000000954,,1972745.8000001907,,1972747.528,8,400,,,
sequence,flow.Sequence,4_42,2023-09-11T20:37:32.995Z,,0,,,6494.233000095468,completion,,,,,false,,,,1972746,1972745.9000000954,1966234.832,1966247.6000003815,1966251.667,1972747.528,8,400,,,
trial,html.Screen,4_43_0,2023-09-11T20:37:38.010Z,,0,1,,5012.8720000954345,response,ISIC_7592920.JPG,5,ISIC_1497800.JPG,ISIC_7592920.JPG,false,1,keypress(m),500,1977760.4000000954,1977760.4000000954,1972730.978,1972746.1000003815,1972747.528,1977774.013,8,400,44,,ISIC_1497800.JPG
break,html.Screen,4_43_1,2023-09-11T20:37:38.010Z,,0,,,NaN,,,,,,false,,,,1977760.8000001907,1977760.8000001907,,1977760.5,,1977774.013,8,400,,,
break_continue,html.Screen,4_43_2,2023-09-11T20:37:38.010Z,,0,,,NaN,,,,,,false,,,,1977761,1977761,,1977760.9000000954,,1977774.013,8,400,,,
sequence,flow.Sequence,4_43,2023-09-11T20:37:38.010Z,,0,,,5013.472000000067,completion,,,,,false,,,,1977761.1000003815,1977761,1972730.978,1972746.1000003815,1972747.528,1977774.013,8,400,,,
trial,html.Screen,4_44_0,2023-09-11T20:37:44.108Z,,0,1,,6085.087000381434,response,ISIC_0030795.JPG,4,ISIC_2687641.JPG,ISIC_2687641.JPG,false,0,keypress(z),500,1983859.3000001907,1983859.1000003815,1977757.26,1977761.1000003815,1977774.013,1983869.169,8,400,45,,ISIC_0030795.JPG
break,html.Screen,4_44_1,2023-09-11T20:37:44.109Z,,0,,,NaN,,,,,,false,,,,1983860.1000003815,1983859.9000000954,,1983859.5,,1983869.169,8,400,,,
break_continue,html.Screen,4_44_2,2023-09-11T20:37:44.110Z,,0,,,NaN,,,,,,false,,,,1983860.4000000954,1983860.3000001907,,1983860.200000286,,1983869.169,8,400,,,
sequence,flow.Sequence,4_44,2023-09-11T20:37:44.110Z,,0,,,6086.2870001906995,completion,,,,,false,,,,1983860.5,1983860.3000001907,1977757.26,1977761.1000003815,1977774.013,1983869.169,8,400,,,
trial,html.Screen,4_45_0,2023-09-11T20:37:49.254Z,,0,1,,5135.931000381475,response,ISIC_1805163.JPG,5,ISIC_6162308.JPG,ISIC_6162308.JPG,false,0,keypress(z),500,1989005.3000001907,1989005.1000003815,1983852.633,1983860.700000286,1983869.169,1989012.558,8,400,46,,ISIC_1805163.JPG
break,html.Screen,4_45_1,2023-09-11T20:37:49.255Z,,0,,,NaN,,,,,,false,,,,1989005.700000286,1989005.6000003815,,1989005.3000001907,,1989012.558,8,400,,,
break_continue,html.Screen,4_45_2,2023-09-11T20:37:49.255Z,,0,,,NaN,,,,,,false,,,,1989005.9000000954,1989005.8000001907,,1989005.700000286,,1989012.558,8,400,,,
sequence,flow.Sequence,4_45,2023-09-11T20:37:49.255Z,,0,,,5136.63100019074,completion,,,,,false,,,,1989006,1989005.8000001907,1983852.633,1983860.700000286,1983869.169,1989012.558,8,400,,,
trial,html.Screen,4_46_0,2023-09-11T20:37:56.312Z,,0,1,,7050.442000000039,response,ISIC_2909153.JPG,5,ISIC_8747095.JPG,ISIC_8747095.JPG,false,0,keypress(z),500,1996063.1000003815,1996063,1988995.841,1989006.1000003815,1989012.558,1996076.253,8,400,47,,ISIC_2909153.JPG
break,html.Screen,4_46_1,2023-09-11T20:37:56.313Z,,0,,,NaN,,,,,,false,,,,1996063.6000003815,1996063.5,,1996063.3000001907,,1996076.253,8,400,,,
break_continue,html.Screen,4_46_2,2023-09-11T20:37:56.313Z,,0,,,NaN,,,,,,false,,,,1996063.8000001907,1996063.700000286,,1996063.6000003815,,1996076.253,8,400,,,
sequence,flow.Sequence,4_46,2023-09-11T20:37:56.313Z,,0,,,7051.142000286141,completion,,,,,false,,,,1996063.9000000954,1996063.700000286,1988995.841,1989006,1989012.558,1996076.253,8,400,,,
trial,html.Screen,4_47_0,2023-09-11T20:38:00.811Z,,0,1,,4485.047000190709,response,ISIC_7937065.JPG,6,ISIC_0011645.JPG,ISIC_0011645.JPG,false,0,keypress(z),500,2000561.4000000954,2000561.3000001907,1996059.533,1996063.9000000954,1996076.253,2000568.346,8,400,48,,ISIC_7937065.JPG
break,html.Screen,4_47_1,2023-09-11T20:38:00.811Z,,0,,,NaN,,,,,,false,,,,2000561.9000000954,2000561.700000286,,2000561.5,,2000568.346,8,400,,,
break_continue,html.Screen,4_47_2,2023-09-11T20:38:00.811Z,,0,,,NaN,,,,,,false,,,,2000562.1000003815,2000561.9000000954,,2000561.9000000954,,2000568.346,8,400,,,
sequence,flow.Sequence,4_47,2023-09-11T20:38:00.811Z,,0,,,4485.647000095341,completion,,,,,false,,,,2000562.1000003815,2000561.9000000954,1996059.533,1996063.9000000954,1996076.253,2000568.346,8,400,,,
trial,html.Screen,4_48_0,2023-09-11T20:38:07.140Z,,0,1,,6321.954000190832,response,ISIC_5789052.JPG,5,ISIC_0046340.JPG,ISIC_0046340.JPG,false,0,keypress(z),500,2006890.5,2006890.3000001907,2000551.638,2000562.200000286,2000568.346,2006897.311,8,400,49,,ISIC_5789052.JPG
break,html.Screen,4_48_1,2023-09-11T20:38:07.140Z,,0,,,NaN,,,,,,false,,,,2006891,2006890.9000000954,,2006890.6000003815,,2006897.311,8,400,,,
break_continue,html.Screen,4_48_2,2023-09-11T20:38:07.140Z,,0,,,NaN,,,,,,false,,,,2006891.200000286,2006891.1000003815,,2006891.1000003815,,2006897.311,8,400,,,
sequence,flow.Sequence,4_48,2023-09-11T20:38:07.140Z,,0,,,6322.754000381567,completion,,,,,false,,,,2006891.200000286,2006891.1000003815,2000551.638,2000562.200000286,2000568.346,2006897.311,8,400,,,
trial,html.Screen,4_49_0,2023-09-11T20:38:12.186Z,,0,1,,5038.989000190748,response,ISIC_7145788.JPG,4,ISIC_0014501.JPG,ISIC_0014501.JPG,false,0,keypress(z),500,2011936.4000000954,2011936.3000001907,2006880.636,2006891.3000001907,2006897.311,2011940.432,8,400,50,,ISIC_7145788.JPG
break,html.Screen,4_49_1,2023-09-11T20:38:22.178Z,,0,,,10002.892999999924,timeout,,,,,false,,,,2021928.1000003815,2021926.753,2011923.758,2011936.5,2011940.432,2021943.325,8,400,,,
break_continue,html.Screen,4_49_2,2023-09-11T20:38:26.753Z,,0,,,4543.775000381516,response,,,,,false,continue,keypress(Space),,2026503.5,2026487.1000003815,2021926.753,2021928.3000001907,2021943.325,2026518.849,8,400,,,
sequence,flow.Sequence,4_49,2023-09-11T20:38:26.753Z,,0,,,19589.789000381483,completion,,,,,false,,,,2026503.6000003815,2026487.1000003815,2006880.636,2006891.3000001907,2006897.311,2026518.849,8,400,,,
trial,html.Screen,4_50_0,2023-09-11T20:38:30.388Z,,0,2,,3619.2510003815405,response,ISIC_0865706.JPG,5,ISIC_0030447.JPG,ISIC_0030447.JPG,false,0,keypress(z),500,2030138.6000003815,2030138.1000003815,2026502.084,2026503.700000286,2026518.849,2030159.263,8,400,1,,ISIC_0865706.JPG
break,html.Screen,4_50_1,2023-09-11T20:38:30.390Z,,0,,,NaN,,,,,,false,,,,2030140.1000003815,2030139.6000003815,,2030138.9000000954,,2030159.263,8,400,,,
break_continue,html.Screen,4_50_2,2023-09-11T20:38:30.390Z,,0,,,NaN,,,,,,false,,,,2030140.8000001907,2030140.6000003815,,2030140.200000286,,2030159.263,8,400,,,
sequence,flow.Sequence,4_50,2023-09-11T20:38:30.391Z,,0,,,3621.7510003815405,completion,,,,,false,,,,2030141.1000003815,2030140.6000003815,2026502.084,2026503.700000286,2026518.849,2030159.263,8,400,,,
trial,html.Screen,4_51_0,2023-09-11T20:38:35.009Z,,0,2,,4599.437000286067,response,ISIC_3544821.JPG,5,ISIC_0010767.JPG,ISIC_0010767.JPG,false,0,keypress(z),500,2034759.1000003815,2034758.700000286,2030125.868,2030141.3000001907,2030159.263,2034784.938,8,400,2,,ISIC_3544821.JPG
break,html.Screen,4_51_1,2023-09-11T20:38:35.010Z,,0,,,NaN,,,,,,false,,,,2034760.5,2034760.200000286,,2034759.4000000954,,2034784.938,8,400,,,
break_continue,html.Screen,4_51_2,2023-09-11T20:38:35.011Z,,0,,,NaN,,,,,,false,,,,2034761.200000286,2034761,,2034760.700000286,,2034784.938,8,400,,,
sequence,flow.Sequence,4_51,2023-09-11T20:38:35.011Z,,0,,,4601.736999999965,completion,,,,,false,,,,2034761.5,2034761,2030125.868,2030141.3000001907,2030159.263,2034784.938,8,400,,,
trial,html.Screen,4_52_0,2023-09-11T20:38:38.171Z,,0,2,,3136.7620002860203,response,ISIC_0674746.JPG,6,ISIC_6145261.JPG,ISIC_0674746.JPG,false,1,keypress(m),500,2037921.8000001907,2037921.700000286,2034751.673,2034761.700000286,2034784.938,2037924.316,8,400,3,,ISIC_6145261.JPG
break,html.Screen,4_52_1,2023-09-11T20:38:38.172Z,,0,,,NaN,,,,,,false,,,,2037922.3000001907,2037922.200000286,,2037922,,2037924.316,8,400,,,
break_continue,html.Screen,4_52_2,2023-09-11T20:38:38.172Z,,0,,,NaN,,,,,,false,,,,2037922.5,2037922.5,,2037922.4000000954,,2037924.316,8,400,,,
sequence,flow.Sequence,4_52,2023-09-11T20:38:38.172Z,,0,,,3137.561999999918,completion,,,,,false,,,,2037922.6000003815,2037922.5,2034751.673,2034761.6000003815,2034784.938,2037924.316,8,400,,,
trial,html.Screen,4_53_0,2023-09-11T20:38:41.645Z,,0,2,,3471.3840002859943,response,ISIC_3305153.JPG,4,ISIC_8357679.JPG,ISIC_8357679.JPG,false,0,keypress(z),500,2041395.8000001907,2041395.700000286,2037907.637,2037922.700000286,2037924.316,2041397.771,8,400,4,,ISIC_3305153.JPG
break,html.Screen,4_53_1,2023-09-11T20:38:41.646Z,,0,,,NaN,,,,,,false,,,,2041396.200000286,2041396.1000003815,,2041395.9000000954,,2041397.771,8,400,,,
break_continue,html.Screen,4_53_2,2023-09-11T20:38:41.646Z,,0,,,NaN,,,,,,false,,,,2041396.4000000954,2041396.3000001907,,2041396.200000286,,2041397.771,8,400,,,
sequence,flow.Sequence,4_53,2023-09-11T20:38:41.646Z,,0,,,3471.984000190627,completion,,,,,false,,,,2041396.4000000954,2041396.3000001907,2037907.637,2037922.6000003815,2037924.316,2041397.771,8,400,,,
trial,html.Screen,4_54_0,2023-09-11T20:38:45.936Z,,0,2,,4288.72900000005,response,ISIC_5971591.JPG,5,ISIC_0185918.JPG,ISIC_5971591.JPG,false,1,keypress(m),500,2045686.6000003815,2045686.5,2041381.161,2041396.6000003815,2041397.771,2045689.472,8,400,5,,ISIC_0185918.JPG
break,html.Screen,4_54_1,2023-09-11T20:38:45.937Z,,0,,,NaN,,,,,,false,,,,2045686.9000000954,2045686.9000000954,,2045686.6000003815,,2045689.472,8,400,,,
break_continue,html.Screen,4_54_2,2023-09-11T20:38:45.937Z,,0,,,NaN,,,,,,false,,,,2045687.200000286,2045687.1000003815,,2045687,,2045689.472,8,400,,,
sequence,flow.Sequence,4_54,2023-09-11T20:38:45.937Z,,0,,,4289.32900038152,completion,,,,,false,,,,2045687.200000286,2045687.1000003815,2041381.161,2041396.5,2041397.771,2045689.472,8,400,,,
trial,html.Screen,4_55_0,2023-09-11T20:38:49.882Z,,0,2,,3942.7280002860352,response,ISIC_4768512.JPG,5,ISIC_8096177.JPG,ISIC_4768512.JPG,false,1,keypress(m),500,2049632.3000001907,2049632.200000286,2045672.866,2045687.3000001907,2045689.472,2049647.166,8,400,6,,ISIC_8096177.JPG
break,html.Screen,4_55_1,2023-09-11T20:38:49.882Z,,0,,,NaN,,,,,,false,,,,2049632.9000000954,2049632.8000001907,,2049632.4000000954,,2049647.166,8,400,,,
break_continue,html.Screen,4_55_2,2023-09-11T20:38:49.883Z,,0,,,NaN,,,,,,false,,,,2049633.1000003815,2049633,,2049632.9000000954,,2049647.166,8,400,,,
sequence,flow.Sequence,4_55,2023-09-11T20:38:49.883Z,,0,,,3943.527999999933,completion,,,,,false,,,,2049633.200000286,2049633,2045672.866,2045687.3000001907,2045689.472,2049647.166,8,400,,,
trial,html.Screen,4_56_0,2023-09-11T20:38:54.716Z,,0,2,,4819.1340001907665,response,ISIC_7145788.JPG,5,ISIC_0032723.JPG,ISIC_0032723.JPG,false,0,keypress(z),500,2054466.5,2054466.3000001907,2049630.476,2049633.3000001907,2049647.166,2054473.229,8,400,7,,ISIC_7145788.JPG
break,html.Screen,4_56_1,2023-09-11T20:38:54.717Z,,0,,,NaN,,,,,,false,,,,2054467.1000003815,2054466.9000000954,,2054466.5,,2054473.229,8,400,,,
break_continue,html.Screen,4_56_2,2023-09-11T20:38:54.717Z,,0,,,NaN,,,,,,false,,,,2054467.4000000954,2054467.3000001907,,2054467.200000286,,2054473.229,8,400,,,
sequence,flow.Sequence,4_56,2023-09-11T20:38:54.717Z,,0,,,4820.1340001907665,completion,,,,,false,,,,2054467.5,2054467.3000001907,2049630.476,2049633.3000001907,2049647.166,2054473.229,8,400,,,
trial,html.Screen,4_57_0,2023-09-11T20:38:59.088Z,,0,2,,4365.27099999995,response,ISIC_6895016.JPG,5,ISIC_0004961.JPG,ISIC_0004961.JPG,false,0,keypress(z),500,2058838.6000003815,2058838.5,2054456.701,2054467.6000003815,2054473.229,2058848.441,8,400,8,,ISIC_6895016.JPG
break,html.Screen,4_57_1,2023-09-11T20:38:59.089Z,,0,,,NaN,,,,,,false,,,,2058839,2058839,,2058838.700000286,,2058848.441,8,400,,,
break_continue,html.Screen,4_57_2,2023-09-11T20:38:59.089Z,,0,,,NaN,,,,,,false,,,,2058839.200000286,2058839.200000286,,2058839.1000003815,,2058848.441,8,400,,,
sequence,flow.Sequence,4_57,2023-09-11T20:38:59.089Z,,0,,,4365.971000286052,completion,,,,,false,,,,2058839.3000001907,2058839.200000286,2054456.701,2054467.6000003815,2054473.229,2058848.441,8,400,,,
trial,html.Screen,4_58_0,2023-09-11T20:39:03.090Z,,0,2,,3991.859000190627,response,ISIC_2987613.JPG,5,ISIC_5682259.JPG,ISIC_2987613.JPG,false,1,keypress(m),500,2062840.5,2062840.3000001907,2058831.876,2058839.4000000954,2058848.441,2062856.178,8,400,9,,ISIC_5682259.JPG
break,html.Screen,4_58_1,2023-09-11T20:39:03.091Z,,0,,,NaN,,,,,,false,,,,2062840.9000000954,2062840.9000000954,,2062840.6000003815,,2062856.178,8,400,,,
break_continue,html.Screen,4_58_2,2023-09-11T20:39:03.091Z,,0,,,NaN,,,,,,false,,,,2062841.1000003815,2062841.1000003815,,2062841,,2062856.178,8,400,,,
sequence,flow.Sequence,4_58,2023-09-11T20:39:03.091Z,,0,,,3992.6590003813617,completion,,,,,false,,,,2062841.1000003815,2062841.1000003815,2058831.876,2058839.4000000954,2058848.441,2062856.178,8,400,,,
trial,html.Screen,4_59_0,2023-09-11T20:39:06.539Z,,0,2,,3432.622000190662,response,ISIC_0010411.JPG,4,ISIC_0072828.JPG,ISIC_0072828.JPG,false,0,keypress(z),500,2066289,2066288.8000001907,2062839.617,2062841.3000001907,2062856.178,2066296.25,8,400,10,,ISIC_0010411.JPG
break,html.Screen,4_59_1,2023-09-11T20:39:06.539Z,,0,,,NaN,,,,,,false,,,,2066289.4000000954,2066289.3000001907,,2066289.1000003815,,2066296.25,8,400,,,
break_continue,html.Screen,4_59_2,2023-09-11T20:39:06.539Z,,0,,,NaN,,,,,,false,,,,2066289.6000003815,2066289.5,,2066289.4000000954,,2066296.25,8,400,,,
sequence,flow.Sequence,4_59,2023-09-11T20:39:06.539Z,,0,,,3433.3219999999274,completion,,,,,false,,,,2066289.8000001907,2066289.5,2062839.617,2062841.3000001907,2062856.178,2066296.25,8,400,,,
trial,html.Screen,4_60_0,2023-09-11T20:39:10.157Z,,0,2,,3611.4500002861023,response,ISIC_4768512.JPG,5,ISIC_9977672.JPG,ISIC_9977672.JPG,false,0,keypress(z),500,2069907.8000001907,2069907.700000286,2066279.664,2066289.8000001907,2066296.25,2069919.946,8,400,11,,ISIC_4768512.JPG
break,html.Screen,4_60_1,2023-09-11T20:39:10.158Z,,0,,,NaN,,,,,,false,,,,2069908.200000286,2069908.1000003815,,2069907.9000000954,,2069919.946,8,400,,,
break_continue,html.Screen,4_60_2,2023-09-11T20:39:10.158Z,,0,,,NaN,,,,,,false,,,,2069908.4000000954,2069908.4000000954,,2069908.3000001907,,2069919.946,8,400,,,
sequence,flow.Sequence,4_60,2023-09-11T20:39:10.158Z,,0,,,3612.1500000953674,completion,,,,,false,,,,2069908.5,2069908.4000000954,2066279.664,2066289.8000001907,2066296.25,2069919.946,8,400,,,
trial,html.Screen,4_61_0,2023-09-11T20:39:15.631Z,,0,2,,5461.554000000004,response,ISIC_6562871.JPG,6,ISIC_3246746.JPG,ISIC_6562871.JPG,false,1,keypress(m),500,2075381.8000001907,2075381.5,2069903.428,2069908.6000003815,2069919.946,2075397.382,8,400,12,,ISIC_3246746.JPG
break,html.Screen,4_61_1,2023-09-11T20:39:15.632Z,,0,,,NaN,,,,,,false,,,,2075382.3000001907,2075382.1000003815,,2075381.8000001907,,2075397.382,8,400,,,
break_continue,html.Screen,4_61_2,2023-09-11T20:39:15.632Z,,0,,,NaN,,,,,,false,,,,2075382.5,2075382.5,,2075382.4000000954,,2075397.382,8,400,,,
sequence,flow.Sequence,4_61,2023-09-11T20:39:15.632Z,,0,,,5462.554000000004,completion,,,,,false,,,,2075382.6000003815,2075382.5,2069903.428,2069908.5,2069919.946,2075397.382,8,400,,,
trial,html.Screen,4_62_0,2023-09-11T20:39:19.686Z,,0,2,,4039.018000095384,response,ISIC_0058823.JPG,6,ISIC_0000660.JPG,ISIC_0058823.JPG,false,1,keypress(m),500,2079436.6000003815,2079436.4000000954,2075380.743,2075382.6000003815,2075397.382,2079438.51,8,400,13,,ISIC_0000660.JPG
break,html.Screen,4_62_1,2023-09-11T20:39:19.687Z,,0,,,NaN,,,,,,false,,,,2079437.200000286,2079437,,2079436.700000286,,2079438.51,8,400,,,
break_continue,html.Screen,4_62_2,2023-09-11T20:39:19.687Z,,0,,,NaN,,,,,,false,,,,2079437.5,2079437.4000000954,,2079437.3000001907,,2079438.51,8,400,,,
sequence,flow.Sequence,4_62,2023-09-11T20:39:19.687Z,,0,,,4040.018000095384,completion,,,,,false,,,,2079437.6000003815,2079437.4000000954,2075380.743,2075382.6000003815,2075397.382,2079438.51,8,400,,,
trial,html.Screen,4_63_0,2023-09-11T20:39:25.275Z,,0,2,,5585.390000095358,response,ISIC_0056063.JPG,5,ISIC_0753491.JPG,ISIC_0056063.JPG,false,1,keypress(m),500,2085024,2085023.9000000954,2079421.797,2079437.700000286,2079438.51,2085032.711,8,400,14,,ISIC_0753491.JPG
break,html.Screen,4_63_1,2023-09-11T20:39:25.275Z,,0,,,NaN,,,,,,false,,,,2085024.700000286,2085024.5,,2085024.200000286,,2085032.711,8,400,,,
break_continue,html.Screen,4_63_2,2023-09-11T20:39:25.276Z,,0,,,NaN,,,,,,false,,,,2085025,2085025,,2085024.8000001907,,2085032.711,8,400,,,
sequence,flow.Sequence,4_63,2023-09-11T20:39:25.276Z,,0,,,5586.489999999991,completion,,,,,false,,,,2085025.1000003815,2085025,2079421.797,2079437.6000003815,2079438.51,2085032.711,8,400,,,
trial,html.Screen,4_64_0,2023-09-11T20:39:28.227Z,,0,2,,2943.589000190841,response,ISIC_7079349.JPG,5,ISIC_9134453.JPG,ISIC_7079349.JPG,false,1,keypress(m),500,2087976.5,2087976.3000001907,2085015.98,2085025.200000286,2085032.711,2087988.568,8,400,15,,ISIC_9134453.JPG
break,html.Screen,4_64_1,2023-09-11T20:39:28.228Z,,0,,,NaN,,,,,,false,,,,2087977,2087976.8000001907,,2087976.6000003815,,2087988.568,8,400,,,
break_continue,html.Screen,4_64_2,2023-09-11T20:39:28.228Z,,0,,,NaN,,,,,,false,,,,2087977.1000003815,2087977.1000003815,,2087977,,2087988.568,8,400,,,
sequence,flow.Sequence,4_64,2023-09-11T20:39:28.228Z,,0,,,2944.389000381576,completion,,,,,false,,,,2087977.200000286,2087977.1000003815,2085015.98,2085025.200000286,2085032.711,2087988.568,8,400,,,
trial,html.Screen,4_65_0,2023-09-11T20:39:31.606Z,,0,2,,3366.93200000003,response,ISIC_6207688.JPG,4,ISIC_7299025.JPG,ISIC_7299025.JPG,false,0,keypress(z),500,2091355.700000286,2091355.5,2087971.898,2087977.4000000954,2087988.568,2091361.835,8,400,16,,ISIC_6207688.JPG
break,html.Screen,4_65_1,2023-09-11T20:39:31.607Z,,0,,,NaN,,,,,,false,,,,2091356.1000003815,2091356,,2091355.8000001907,,2091361.835,8,400,,,
break_continue,html.Screen,4_65_2,2023-09-11T20:39:31.607Z,,0,,,NaN,,,,,,false,,,,2091356.5,2091356.5,,2091356.4000000954,,2091361.835,8,400,,,
sequence,flow.Sequence,4_65,2023-09-11T20:39:31.607Z,,0,,,3367.93200000003,completion,,,,,false,,,,2091356.6000003815,2091356.5,2087971.898,2087977.200000286,2087988.568,2091361.835,8,400,,,
trial,html.Screen,4_66_0,2023-09-11T20:39:35.324Z,,0,2,,3711.3650002861395,response,ISIC_9895436.JPG,4,ISIC_0026329.JPG,ISIC_0026329.JPG,false,0,keypress(z),500,2095073.4000000954,2095073.200000286,2091344.987,2091356.700000286,2091361.835,2095085.661,8,400,17,,ISIC_9895436.JPG
break,html.Screen,4_66_1,2023-09-11T20:39:35.325Z,,0,,,NaN,,,,,,false,,,,2095074.1000003815,2095073.9000000954,,2095073.5,,2095085.661,8,400,,,
break_continue,html.Screen,4_66_2,2023-09-11T20:39:35.325Z,,0,,,NaN,,,,,,false,,,,2095074.3000001907,2095074.3000001907,,2095074.200000286,,2095085.661,8,400,,,
sequence,flow.Sequence,4_66,2023-09-11T20:39:35.325Z,,0,,,3712.465000190772,completion,,,,,false,,,,2095074.4000000954,2095074.3000001907,2091344.987,2091356.700000286,2091361.835,2095085.661,8,400,,,
trial,html.Screen,4_67_0,2023-09-11T20:39:39.454Z,,0,2,,4117.93900038139,response,ISIC_1023339.JPG,6,ISIC_9917640.JPG,ISIC_1023339.JPG,false,1,keypress(m),500,2099203.700000286,2099203.6000003815,2095068.913,2095074.5,2095085.661,2099210.3,8,400,18,,ISIC_9917640.JPG
break,html.Screen,4_67_1,2023-09-11T20:39:39.455Z,,0,,,NaN,,,,,,false,,,,2099204.4000000954,2099204.200000286,,2099203.9000000954,,2099210.3,8,400,,,
break_continue,html.Screen,4_67_2,2023-09-11T20:39:39.455Z,,0,,,NaN,,,,,,false,,,,2099204.6000003815,2099204.6000003815,,2099204.4000000954,,2099210.3,8,400,,,
sequence,flow.Sequence,4_67,2023-09-11T20:39:39.455Z,,0,,,4118.93900038139,completion,,,,,false,,,,2099204.700000286,2099204.6000003815,2095068.913,2095074.5,2095085.661,2099210.3,8,400,,,
trial,html.Screen,4_68_0,2023-09-11T20:39:47.492Z,,0,2,,8030.700000000186,response,ISIC_0027411.JPG,5,ISIC_0009908.JPG,ISIC_0027411.JPG,false,1,keypress(m),500,2107241.1000003815,2107241,2099193.816,2099204.8000001907,2099210.3,2107242.559,8,400,19,,ISIC_0009908.JPG
break,html.Screen,4_68_1,2023-09-11T20:39:47.492Z,,0,,,NaN,,,,,,false,,,,2107241.6000003815,2107241.4000000954,,2107241.200000286,,2107242.559,8,400,,,
break_continue,html.Screen,4_68_2,2023-09-11T20:39:47.492Z,,0,,,NaN,,,,,,false,,,,2107241.8000001907,2107241.700000286,,2107241.6000003815,,2107242.559,8,400,,,
sequence,flow.Sequence,4_68,2023-09-11T20:39:47.492Z,,0,,,8031.400000286289,completion,,,,,false,,,,2107241.8000001907,2107241.700000286,2099193.816,2099204.700000286,2099210.3,2107242.559,8,400,,,
trial,html.Screen,4_69_0,2023-09-11T20:39:51.174Z,,0,2,,3680.441000000108,response,ISIC_9791275.JPG,5,ISIC_0032473.JPG,ISIC_9791275.JPG,false,1,keypress(m),500,2110923.200000286,2110923,2107225.864,2107241.9000000954,2107242.559,2110933.085,8,400,20,,ISIC_0032473.JPG
break,html.Screen,4_69_1,2023-09-11T20:39:51.174Z,,0,,,NaN,,,,,,false,,,,2110923.6000003815,2110923.5,,2110923.3000001907,,2110933.085,8,400,,,
break_continue,html.Screen,4_69_2,2023-09-11T20:39:51.174Z,,0,,,NaN,,,,,,false,,,,2110923.8000001907,2110923.8000001907,,2110923.6000003815,,2110933.085,8,400,,,
sequence,flow.Sequence,4_69,2023-09-11T20:39:51.175Z,,0,,,3681.241000190843,completion,,,,,false,,,,2110923.9000000954,2110923.8000001907,2107225.864,2107241.9000000954,2107242.559,2110933.085,8,400,,,
trial,html.Screen,4_70_0,2023-09-11T20:39:58.488Z,,0,2,,7304.315000095405,response,ISIC_0055742.JPG,5,ISIC_6157226.JPG,ISIC_0055742.JPG,false,1,keypress(m),500,2118237.4000000954,2118237.4000000954,2110916.428,2110924.1000003815,2110933.085,2118247.32,8,400,21,,ISIC_6157226.JPG
break,html.Screen,4_70_1,2023-09-11T20:39:58.488Z,,0,,,NaN,,,,,,false,,,,2118237.8000001907,2118237.8000001907,,2118237.6000003815,,2118247.32,8,400,,,
break_continue,html.Screen,4_70_2,2023-09-11T20:39:58.489Z,,0,,,NaN,,,,,,false,,,,2118238.1000003815,2118238,,2118237.9000000954,,2118247.32,8,400,,,
sequence,flow.Sequence,4_70,2023-09-11T20:39:58.489Z,,0,,,7304.915000000037,completion,,,,,false,,,,2118238.200000286,2118238,2110916.428,2110924,2110933.085,2118247.32,8,400,,,
trial,html.Screen,4_71_0,2023-09-11T20:40:01.883Z,,0,2,,3384.7800003816374,response,ISIC_9510497.JPG,5,ISIC_5983500.JPG,ISIC_5983500.JPG,false,0,keypress(z),500,2121632.3000001907,2121632.1000003815,2118230.735,2118238.3000001907,2118247.32,2121637.339,8,400,22,,ISIC_9510497.JPG
break,html.Screen,4_71_1,2023-09-11T20:40:01.885Z,,0,,,NaN,,,,,,false,,,,2121634.4000000954,2121633.700000286,,2121632.700000286,,2121637.339,8,400,,,
break_continue,html.Screen,4_71_2,2023-09-11T20:40:01.886Z,,0,,,NaN,,,,,,false,,,,2121635.9000000954,2121635.5,,2121635.1000003815,,2121637.339,8,400,,,
sequence,flow.Sequence,4_71,2023-09-11T20:40:01.887Z,,0,,,3388.1800000001676,completion,,,,,false,,,,2121636.200000286,2121635.5,2118230.735,2118238.3000001907,2118247.32,2121637.339,8,400,,,
trial,html.Screen,4_72_0,2023-09-11T20:40:06.696Z,,0,2,,4808.261000381317,response,ISIC_2076902.JPG,5,ISIC_9571842.JPG,ISIC_9571842.JPG,false,0,keypress(z),500,2126445.8000001907,2126445.6000003815,2121620.591,2121636.3000001907,2121637.339,2126446.656,8,400,23,,ISIC_2076902.JPG
break,html.Screen,4_72_1,2023-09-11T20:40:06.697Z,,0,,,NaN,,,,,,false,,,,2126446.5,2126446.200000286,,2126445.9000000954,,2126446.656,8,400,,,
break_continue,html.Screen,4_72_2,2023-09-11T20:40:06.697Z,,0,,,NaN,,,,,,false,,,,2126446.8000001907,2126446.8000001907,,2126446.6000003815,,2126446.656,8,400,,,
sequence,flow.Sequence,4_72,2023-09-11T20:40:06.698Z,,0,,,4809.461000190582,completion,,,,,false,,,,2126447,2126446.8000001907,2121620.591,2121636.3000001907,2121637.339,2126446.656,8,400,,,
trial,html.Screen,4_73_0,2023-09-11T20:40:11.919Z,,0,2,,5221.344000000041,response,ISIC_0064692.JPG,6,ISIC_5152859.JPG,ISIC_0064692.JPG,false,1,keypress(m),500,2131668.1000003815,2131668,2126429.965,2126447.1000003815,2126446.656,2131690.173,8,400,24,,ISIC_5152859.JPG
break,html.Screen,4_73_1,2023-09-11T20:40:11.919Z,,0,,,NaN,,,,,,false,,,,2131668.700000286,2131668.5,,2131668.3000001907,,2131690.173,8,400,,,
break_continue,html.Screen,4_73_2,2023-09-11T20:40:11.919Z,,0,,,NaN,,,,,,false,,,,2131668.9000000954,2131668.8000001907,,2131668.700000286,,2131690.173,8,400,,,
sequence,flow.Sequence,4_73,2023-09-11T20:40:11.920Z,,0,,,5222.144000190776,completion,,,,,false,,,,2131669,2131668.8000001907,2126429.965,2126447.1000003815,2126446.656,2131690.173,8,400,,,
trial,html.Screen,4_74_0,2023-09-11T20:40:17.368Z,,0,2,,5427.127000190783,response,ISIC_0062364.JPG,5,ISIC_0066399.JPG,ISIC_0066399.JPG,false,0,keypress(z),500,2137117.4000000954,2137117.3000001907,2131673.478,2131669,2131690.173,2137134.067,8,400,25,,ISIC_0062364.JPG
break,html.Screen,4_74_1,2023-09-11T20:40:17.368Z,,0,,,NaN,,,,,,false,,,,2137117.9000000954,2137117.8000001907,,2137117.6000003815,,2137134.067,8,400,,,
break_continue,html.Screen,4_74_2,2023-09-11T20:40:17.369Z,,0,,,NaN,,,,,,false,,,,2137118,2137117.9000000954,,2137117.9000000954,,2137134.067,8,400,,,
sequence,flow.Sequence,4_74,2023-09-11T20:40:17.369Z,,0,,,5427.727000095416,completion,,,,,false,,,,2137118.1000003815,2137117.9000000954,2131673.478,2131669,2131690.173,2137134.067,8,400,,,
trial,html.Screen,4_75_0,2023-09-11T20:40:22.944Z,,0,2,,5558.233000190929,response,ISIC_5548914.JPG,4,ISIC_0001141.JPG,ISIC_0001141.JPG,false,0,keypress(z),500,2142692.5,2142692.3000001907,2137117.396,2137118.200000286,2137134.067,2142694.905,8,400,26,,ISIC_5548914.JPG
break,html.Screen,4_75_1,2023-09-11T20:40:22.945Z,,0,,,NaN,,,,,,false,,,,2142693.700000286,2142693.3000001907,,2142692.700000286,,2142694.905,8,400,,,
break_continue,html.Screen,4_75_2,2023-09-11T20:40:22.945Z,,0,,,NaN,,,,,,false,,,,2142694.1000003815,2142694,,2142693.8000001907,,2142694.905,8,400,,,
sequence,flow.Sequence,4_75,2023-09-11T20:40:22.945Z,,0,,,5559.933000000194,completion,,,,,false,,,,2142694.200000286,2142694,2137117.396,2137118.200000286,2137134.067,2142694.905,8,400,,,
trial,html.Screen,4_76_0,2023-09-11T20:40:26.180Z,,0,2,,3233.295000286307,response,ISIC_0911264.JPG,4,ISIC_3691320.JPG,ISIC_0911264.JPG,false,1,keypress(m),500,2145928.3000001907,2145928.200000286,2142678.296,2142694.4000000954,2142694.905,2145934.538,8,400,27,,ISIC_3691320.JPG
break,html.Screen,4_76_1,2023-09-11T20:40:26.180Z,,0,,,NaN,,,,,,false,,,,2145928.8000001907,2145928.6000003815,,2145928.4000000954,,2145934.538,8,400,,,
break_continue,html.Screen,4_76_2,2023-09-11T20:40:26.180Z,,0,,,NaN,,,,,,false,,,,2145929.200000286,2145929.1000003815,,2145928.9000000954,,2145934.538,8,400,,,
sequence,flow.Sequence,4_76,2023-09-11T20:40:26.180Z,,0,,,3234.1950003816746,completion,,,,,false,,,,2145929.200000286,2145929.1000003815,2142678.296,2142694.3000001907,2142694.905,2145934.538,8,400,,,
trial,html.Screen,4_77_0,2023-09-11T20:40:31.483Z,,0,2,,5297.062000381295,response,ISIC_4331481.JPG,5,ISIC_9473492.JPG,ISIC_4331481.JPG,false,1,keypress(m),500,2151231.700000286,2151231.6000003815,2145917.861,2145929.3000001907,2145934.538,2151245.099,8,400,28,,ISIC_9473492.JPG
break,html.Screen,4_77_1,2023-09-11T20:40:31.483Z,,0,,,NaN,,,,,,false,,,,2151232.1000003815,2151232,,2151231.8000001907,,2151245.099,8,400,,,
break_continue,html.Screen,4_77_2,2023-09-11T20:40:31.484Z,,0,,,NaN,,,,,,false,,,,2151232.3000001907,2151232.200000286,,2151232.200000286,,2151245.099,8,400,,,
sequence,flow.Sequence,4_77,2023-09-11T20:40:31.484Z,,0,,,5297.662000285927,completion,,,,,false,,,,2151232.4000000954,2151232.200000286,2145917.861,2145929.3000001907,2145934.538,2151245.099,8,400,,,
trial,html.Screen,4_78_0,2023-09-11T20:40:35.389Z,,0,2,,3892.5010003815405,response,ISIC_0056749.JPG,5,ISIC_5370803.JPG,ISIC_5370803.JPG,false,0,keypress(z),500,2155138,2155137.6000003815,2151228.201,2151232.4000000954,2151245.099,2155152.534,8,400,29,,ISIC_0056749.JPG
break,html.Screen,4_78_1,2023-09-11T20:40:35.391Z,,0,,,NaN,,,,,,false,,,,2155139.700000286,2155139,,2155138.3000001907,,2155152.534,8,400,,,
break_continue,html.Screen,4_78_2,2023-09-11T20:40:35.392Z,,0,,,NaN,,,,,,false,,,,2155141.200000286,2155140.8000001907,,2155140.1000003815,,2155152.534,8,400,,,
sequence,flow.Sequence,4_78,2023-09-11T20:40:35.393Z,,0,,,3895.7010001908056,completion,,,,,false,,,,2155141.700000286,2155140.8000001907,2151228.201,2151232.4000000954,2151245.099,2155152.534,8,400,,,
trial,html.Screen,4_79_0,2023-09-11T20:40:38.900Z,,0,2,,3496.466000000015,response,ISIC_6996553.JPG,5,ISIC_0000358.JPG,ISIC_6996553.JPG,false,1,keypress(m),500,2158649.1000003815,2158649,2155135.8,2155142,2155152.534,2158659.365,8,400,30,,ISIC_0000358.JPG
break,html.Screen,4_79_1,2023-09-11T20:40:38.901Z,,0,,,NaN,,,,,,false,,,,2158649.5,2158649.4000000954,,2158649.1000003815,,2158659.365,8,400,,,
break_continue,html.Screen,4_79_2,2023-09-11T20:40:38.901Z,,0,,,NaN,,,,,,false,,,,2158649.700000286,2158649.6000003815,,2158649.5,,2158659.365,8,400,,,
sequence,flow.Sequence,4_79,2023-09-11T20:40:38.901Z,,0,,,3497.0660003814846,completion,,,,,false,,,,2158649.8000001907,2158649.6000003815,2155135.8,2155142,2155152.534,2158659.365,8,400,,,
trial,html.Screen,4_80_0,2023-09-11T20:40:43.286Z,,0,2,,4375.235000381246,response,ISIC_0027306.JPG,6,ISIC_0000349.JPG,ISIC_0027306.JPG,false,1,keypress(m),500,2163034.700000286,2163034.6000003815,2158642.794,2158649.9000000954,2158659.365,2163051.308,8,400,31,,ISIC_0000349.JPG
break,html.Screen,4_80_1,2023-09-11T20:40:43.287Z,,0,,,NaN,,,,,,false,,,,2163035.5,2163035.3000001907,,2163034.9000000954,,2163051.308,8,400,,,
break_continue,html.Screen,4_80_2,2023-09-11T20:40:43.287Z,,0,,,NaN,,,,,,false,,,,2163035.700000286,2163035.700000286,,2163035.6000003815,,2163051.308,8,400,,,
sequence,flow.Sequence,4_80,2023-09-11T20:40:43.287Z,,0,,,4376.335000285879,completion,,,,,false,,,,2163035.8000001907,2163035.700000286,2158642.794,2158649.9000000954,2158659.365,2163051.308,8,400,,,
trial,html.Screen,4_81_0,2023-09-11T20:40:49.032Z,,0,2,,5729.792000381276,response,ISIC_4477599.JPG,5,ISIC_8505243.JPG,ISIC_8505243.JPG,false,0,keypress(z),500,2168781.3000001907,2168781.1000003815,2163034.578,2163035.9000000954,2163051.308,2168795.839,8,400,32,,ISIC_4477599.JPG
break,html.Screen,4_81_1,2023-09-11T20:40:49.033Z,,0,,,NaN,,,,,,false,,,,2168782,2168781.700000286,,2168781.5,,2168795.839,8,400,,,
break_continue,html.Screen,4_81_2,2023-09-11T20:40:49.034Z,,0,,,NaN,,,,,,false,,,,2168782.5,2168782.4000000954,,2168782.1000003815,,2168795.839,8,400,,,
sequence,flow.Sequence,4_81,2023-09-11T20:40:49.034Z,,0,,,5731.092000095174,completion,,,,,false,,,,2168782.5,2168782.4000000954,2163034.578,2163035.9000000954,2163051.308,2168795.839,8,400,,,
trial,html.Screen,4_82_0,2023-09-11T20:40:55.708Z,,0,2,,6660.36100028595,response,ISIC_0024280.JPG,6,ISIC_7517082.JPG,ISIC_0024280.JPG,false,1,keypress(m),500,2175456.5,2175456.200000286,2168779.148,2168782.6000003815,2168795.839,2175458.797,8,400,33,,ISIC_7517082.JPG
break,html.Screen,4_82_1,2023-09-11T20:40:55.710Z,,0,,,NaN,,,,,,false,,,,2175458.3000001907,2175457.700000286,,2175457.1000003815,,2175458.797,8,400,,,
break_continue,html.Screen,4_82_2,2023-09-11T20:40:55.711Z,,0,,,NaN,,,,,,false,,,,2175459.3000001907,2175458.9000000954,,2175458.5,,2175458.797,8,400,,,
sequence,flow.Sequence,4_82,2023-09-11T20:40:55.711Z,,0,,,6663.061000095215,completion,,,,,false,,,,2175459.8000001907,2175458.9000000954,2168779.148,2168782.6000003815,2168795.839,2175458.797,8,400,,,
trial,html.Screen,4_83_0,2023-09-11T20:41:01.029Z,,0,2,,5318.903000286315,response,ISIC_0941332.JPG,5,ISIC_0065206.JPG,ISIC_0065206.JPG,false,0,keypress(z),500,2180777.8000001907,2180777.700000286,2175442.052,2175460.200000286,2175458.797,2180785.656,8,400,34,,ISIC_0941332.JPG
break,html.Screen,4_83_1,2023-09-11T20:41:01.030Z,,0,,,NaN,,,,,,false,,,,2180778.3000001907,2180778.200000286,,2180777.9000000954,,2180785.656,8,400,,,
break_continue,html.Screen,4_83_2,2023-09-11T20:41:01.030Z,,0,,,NaN,,,,,,false,,,,2180778.700000286,2180778.6000003815,,2180778.4000000954,,2180785.656,8,400,,,
sequence,flow.Sequence,4_83,2023-09-11T20:41:01.030Z,,0,,,5319.803000381682,completion,,,,,false,,,,2180778.8000001907,2180778.6000003815,2175442.052,2175460.1000003815,2175458.797,2180785.656,8,400,,,
trial,html.Screen,4_84_0,2023-09-11T20:41:06.600Z,,0,2,,5562.844000000041,response,ISIC_0032718.JPG,5,ISIC_0218072.JPG,ISIC_0032718.JPG,false,1,keypress(m),500,2186348.700000286,2186348.5,2180769.152,2180778.8000001907,2180785.656,2186363.202,8,400,35,,ISIC_0218072.JPG
break,html.Screen,4_84_1,2023-09-11T20:41:06.601Z,,0,,,NaN,,,,,,false,,,,2186349.3000001907,2186349,,2186348.8000001907,,2186363.202,8,400,,,
break_continue,html.Screen,4_84_2,2023-09-11T20:41:06.601Z,,0,,,NaN,,,,,,false,,,,2186349.6000003815,2186349.5,,2186349.4000000954,,2186363.202,8,400,,,
sequence,flow.Sequence,4_84,2023-09-11T20:41:06.601Z,,0,,,5563.844000000041,completion,,,,,false,,,,2186349.700000286,2186349.5,2180769.152,2180778.8000001907,2180785.656,2186363.202,8,400,,,
trial,html.Screen,4_85_0,2023-09-11T20:41:10.673Z,,0,2,,4057.998000286054,response,ISIC_8324870.JPG,5,ISIC_8156101.JPG,ISIC_8156101.JPG,false,0,keypress(z),500,2190421.6000003815,2190421.200000286,2186346.806,2186349.700000286,2186363.202,2190437.941,8,400,36,,ISIC_8324870.JPG
break,html.Screen,4_85_1,2023-09-11T20:41:10.674Z,,0,,,NaN,,,,,,false,,,,2190422.9000000954,2190422.5,,2190422.1000003815,,2190437.941,8,400,,,
break_continue,html.Screen,4_85_2,2023-09-11T20:41:10.675Z,,0,,,NaN,,,,,,false,,,,2190423.4000000954,2190423.3000001907,,2190423.200000286,,2190437.941,8,400,,,
sequence,flow.Sequence,4_85,2023-09-11T20:41:10.675Z,,0,,,4060.0980001906864,completion,,,,,false,,,,2190423.6000003815,2190423.3000001907,2186346.806,2186349.700000286,2186363.202,2190437.941,8,400,,,
trial,html.Screen,4_86_0,2023-09-11T20:41:14.493Z,,0,2,,3803.558999999892,response,ISIC_7697022.JPG,5,ISIC_1763577.JPG,ISIC_1763577.JPG,false,0,keypress(z),500,2194241.8000001907,2194241.5,2190421.243,2190423.700000286,2190437.941,2194245.273,8,400,37,,ISIC_7697022.JPG
break,html.Screen,4_86_1,2023-09-11T20:41:14.494Z,,0,,,NaN,,,,,,false,,,,2194242.6000003815,2194242.3000001907,,2194241.9000000954,,2194245.273,8,400,,,
break_continue,html.Screen,4_86_2,2023-09-11T20:41:14.494Z,,0,,,NaN,,,,,,false,,,,2194243,2194242.8000001907,,2194242.700000286,,2194245.273,8,400,,,
sequence,flow.Sequence,4_86,2023-09-11T20:41:14.494Z,,0,,,3804.859000190627,completion,,,,,false,,,,2194243.1000003815,2194242.8000001907,2190421.243,2190423.6000003815,2190437.941,2194245.273,8,400,,,
trial,html.Screen,4_87_0,2023-09-11T20:41:22.241Z,,0,2,,7743.327000381425,response,ISIC_5377237.JPG,4,ISIC_4915897.JPG,ISIC_5377237.JPG,false,1,keypress(m),500,2201988.700000286,2201988.6000003815,2194228.534,2194243.200000286,2194245.273,2201993.599,8,400,38,,ISIC_4915897.JPG
break,html.Screen,4_87_1,2023-09-11T20:41:22.241Z,,0,,,NaN,,,,,,false,,,,2201989.200000286,2201989.1000003815,,2201988.9000000954,,2201993.599,8,400,,,
break_continue,html.Screen,4_87_2,2023-09-11T20:41:22.241Z,,0,,,NaN,,,,,,false,,,,2201989.4000000954,2201989.3000001907,,2201989.200000286,,2201993.599,8,400,,,
sequence,flow.Sequence,4_87,2023-09-11T20:41:22.241Z,,0,,,7744.02700019069,completion,,,,,false,,,,2201989.4000000954,2201989.3000001907,2194228.534,2194243.200000286,2194245.273,2201993.599,8,400,,,
trial,html.Screen,4_88_0,2023-09-11T20:41:27.603Z,,0,2,,5357.0010003815405,response,ISIC_0031649.JPG,5,ISIC_7017547.JPG,ISIC_0031649.JPG,false,1,keypress(m),500,2207350.700000286,2207350.6000003815,2201976.938,2201989.5,2201993.599,2207354.049,8,400,39,,ISIC_7017547.JPG
break,html.Screen,4_88_1,2023-09-11T20:41:27.603Z,,0,,,NaN,,,,,,false,,,,2207351.200000286,2207351,,2207350.8000001907,,2207354.049,8,400,,,
break_continue,html.Screen,4_88_2,2023-09-11T20:41:27.604Z,,0,,,NaN,,,,,,false,,,,2207351.5,2207351.5,,2207351.4000000954,,2207354.049,8,400,,,
sequence,flow.Sequence,4_88,2023-09-11T20:41:27.604Z,,0,,,5357.901000000071,completion,,,,,false,,,,2207351.700000286,2207351.5,2201976.938,2201989.5,2201993.599,2207354.049,8,400,,,
trial,html.Screen,4_89_0,2023-09-11T20:41:32.663Z,,0,2,,5057.351000095252,response,ISIC_0028127.JPG,4,ISIC_0032717.JPG,ISIC_0028127.JPG,false,1,keypress(m),500,2212411.5,2212411.4000000954,2207337.349,2207351.700000286,2207354.049,2212413.879,8,400,40,,ISIC_0032717.JPG
break,html.Screen,4_89_1,2023-09-11T20:41:32.664Z,,0,,,NaN,,,,,,false,,,,2212412,2212411.9000000954,,2212411.6000003815,,2212413.879,8,400,,,
break_continue,html.Screen,4_89_2,2023-09-11T20:41:32.664Z,,0,,,NaN,,,,,,false,,,,2212412.4000000954,2212412.3000001907,,2212412.1000003815,,2212413.879,8,400,,,
sequence,flow.Sequence,4_89,2023-09-11T20:41:32.664Z,,0,,,5058.251000190619,completion,,,,,false,,,,2212412.5,2212412.3000001907,2207337.349,2207351.700000286,2207354.049,2212413.879,8,400,,,
trial,html.Screen,4_90_0,2023-09-11T20:41:36.891Z,,0,2,,4224.62099999981,response,ISIC_0027742.JPG,4,ISIC_8727962.JPG,ISIC_0027742.JPG,false,1,keypress(m),500,2216638.6000003815,2216638.5,2212397.225,2212412.5,2212413.879,2216655.683,8,400,41,,ISIC_8727962.JPG
break,html.Screen,4_90_1,2023-09-11T20:41:36.891Z,,0,,,NaN,,,,,,false,,,,2216639.200000286,2216639,,2216638.700000286,,2216655.683,8,400,,,
break_continue,html.Screen,4_90_2,2023-09-11T20:41:36.891Z,,0,,,NaN,,,,,,false,,,,2216639.4000000954,2216639.4000000954,,2216639.3000001907,,2216655.683,8,400,,,
sequence,flow.Sequence,4_90,2023-09-11T20:41:36.891Z,,0,,,4225.521000095177,completion,,,,,false,,,,2216639.6000003815,2216639.4000000954,2212397.225,2212412.5,2212413.879,2216655.683,8,400,,,
trial,html.Screen,4_91_0,2023-09-11T20:41:41.757Z,,0,2,,4849.617000190541,response,ISIC_0013835.JPG,5,ISIC_4728167.JPG,ISIC_0013835.JPG,false,1,keypress(m),500,2221505.5,2221505.3000001907,2216638.882,2216639.6000003815,2216655.683,2221514.939,8,400,42,,ISIC_4728167.JPG
break,html.Screen,4_91_1,2023-09-11T20:41:41.758Z,,0,,,NaN,,,,,,false,,,,2221506.4000000954,2221506.1000003815,,2221505.700000286,,2221514.939,8,400,,,
break_continue,html.Screen,4_91_2,2023-09-11T20:41:41.759Z,,0,,,NaN,,,,,,false,,,,2221506.700000286,2221506.6000003815,,2221506.4000000954,,2221514.939,8,400,,,
sequence,flow.Sequence,4_91,2023-09-11T20:41:41.759Z,,0,,,4850.917000381276,completion,,,,,false,,,,2221506.8000001907,2221506.6000003815,2216638.882,2216639.6000003815,2216655.683,2221514.939,8,400,,,
trial,html.Screen,4_92_0,2023-09-11T20:41:46.961Z,,0,2,,5193.56100000022,response,ISIC_0026853.JPG,5,ISIC_0033121.JPG,ISIC_0026853.JPG,false,1,keypress(m),500,2226709,2226708.5,2221498.329,2221506.9000000954,2221514.939,2226725.092,8,400,43,,ISIC_0033121.JPG
break,html.Screen,4_92_1,2023-09-11T20:41:46.962Z,,0,,,NaN,,,,,,false,,,,2226710.3000001907,2226710,,2226709.5,,2226725.092,8,400,,,
break_continue,html.Screen,4_92_2,2023-09-11T20:41:46.963Z,,0,,,NaN,,,,,,false,,,,2226710.8000001907,2226710.700000286,,2226710.4000000954,,2226725.092,8,400,,,
sequence,flow.Sequence,4_92,2023-09-11T20:41:46.963Z,,0,,,5195.761000286322,completion,,,,,false,,,,2226711,2226710.700000286,2221498.329,2221506.8000001907,2221514.939,2226725.092,8,400,,,
trial,html.Screen,4_93_0,2023-09-11T20:41:51.174Z,,0,2,,4196.508000381291,response,ISIC_0031214.JPG,5,ISIC_0011387.JPG,ISIC_0011387.JPG,false,0,keypress(z),500,2230922,2230921.6000003815,2226708.476,2226711.200000286,2226725.092,2230949.998,8,400,44,,ISIC_0031214.JPG
break,html.Screen,4_93_1,2023-09-11T20:41:51.176Z,,0,,,NaN,,,,,,false,,,,2230923.700000286,2230923.200000286,,2230922.4000000954,,2230949.998,8,400,,,
break_continue,html.Screen,4_93_2,2023-09-11T20:41:51.177Z,,0,,,NaN,,,,,,false,,,,2230924.9000000954,2230924.5,,2230924,,2230949.998,8,400,,,
sequence,flow.Sequence,4_93,2023-09-11T20:41:51.177Z,,0,,,4199.407999999821,completion,,,,,false,,,,2230925.5,2230924.5,2226708.476,2226711.1000003815,2226725.092,2230949.998,8,400,,,
trial,html.Screen,4_94_0,2023-09-11T20:41:56.340Z,,0,2,,5137.802000190597,response,ISIC_6425888.JPG,5,ISIC_0030492.JPG,ISIC_0030492.JPG,false,0,keypress(z),500,2236088,2236087.8000001907,2230916.677,2230925.9000000954,2230949.998,2236093.316,8,400,45,,ISIC_6425888.JPG
break,html.Screen,4_94_1,2023-09-11T20:41:56.341Z,,0,,,NaN,,,,,,false,,,,2236088.700000286,2236088.5,,2236088.200000286,,2236093.316,8,400,,,
break_continue,html.Screen,4_94_2,2023-09-11T20:41:56.341Z,,0,,,NaN,,,,,,false,,,,2236088.9000000954,2236088.9000000954,,2236088.700000286,,2236093.316,8,400,,,
sequence,flow.Sequence,4_94,2023-09-11T20:41:56.341Z,,0,,,5138.90200009523,completion,,,,,false,,,,2236089,2236088.9000000954,2230916.677,2230925.8000001907,2230949.998,2236093.316,8,400,,,
trial,html.Screen,4_95_0,2023-09-11T20:42:01.222Z,,0,2,,4876.784000381362,response,ISIC_0025653.JPG,6,ISIC_6723937.JPG,ISIC_6723937.JPG,false,0,keypress(z),500,2240970.200000286,2240970.1000003815,2236076.641,2236089,2236093.316,2241003.094,8,400,46,,ISIC_0025653.JPG
break,html.Screen,4_95_1,2023-09-11T20:42:01.223Z,,0,,,NaN,,,,,,false,,,,2240970.9000000954,2240970.8000001907,,2240970.5,,2241003.094,8,400,,,
break_continue,html.Screen,4_95_2,2023-09-11T20:42:01.223Z,,0,,,NaN,,,,,,false,,,,2240971.200000286,2240971.1000003815,,2240970.9000000954,,2241003.094,8,400,,,
sequence,flow.Sequence,4_95,2023-09-11T20:42:01.223Z,,0,,,4877.784000381362,completion,,,,,false,,,,2240971.3000001907,2240971.1000003815,2236076.641,2236089,2236093.316,2241003.094,8,400,,,
trial,html.Screen,4_96_0,2023-09-11T20:42:05.928Z,,0,2,,4673.206000190694,response,ISIC_2378428.JPG,5,ISIC_6654619.JPG,ISIC_6654619.JPG,false,0,keypress(z),500,2245676.4000000954,2245676.3000001907,2240986.17,2240971.3000001907,2241003.094,2245678.68,8,400,47,,ISIC_2378428.JPG
break,html.Screen,4_96_1,2023-09-11T20:42:05.929Z,,0,,,NaN,,,,,,false,,,,2245677.5,2245677.200000286,,2245676.8000001907,,2245678.68,8,400,,,
break_continue,html.Screen,4_96_2,2023-09-11T20:42:05.930Z,,0,,,NaN,,,,,,false,,,,2245678,2245677.9000000954,,2245677.6000003815,,2245678.68,8,400,,,
sequence,flow.Sequence,4_96,2023-09-11T20:42:05.930Z,,0,,,4674.806000095326,completion,,,,,false,,,,2245678.1000003815,2245677.9000000954,2240986.17,2240971.3000001907,2241003.094,2245678.68,8,400,,,
trial,html.Screen,4_97_0,2023-09-11T20:42:10.703Z,,0,2,,4772.020000285935,response,ISIC_0010757.JPG,5,ISIC_0027663.JPG,ISIC_0027663.JPG,false,0,keypress(z),500,2250450.9000000954,2250450.700000286,2245662.057,2245678.200000286,2245678.68,2250454.629,8,400,48,,ISIC_0010757.JPG
break,html.Screen,4_97_1,2023-09-11T20:42:10.704Z,,0,,,NaN,,,,,,false,,,,2250451.6000003815,2250451.4000000954,,2250451,,2250454.629,8,400,,,
break_continue,html.Screen,4_97_2,2023-09-11T20:42:10.704Z,,0,,,NaN,,,,,,false,,,,2250451.9000000954,2250451.8000001907,,2250451.700000286,,2250454.629,8,400,,,
sequence,flow.Sequence,4_97,2023-09-11T20:42:10.704Z,,0,,,4773.120000190567,completion,,,,,false,,,,2250452,2250451.8000001907,2245662.057,2245678.200000286,2245678.68,2250454.629,8,400,,,
trial,html.Screen,4_98_0,2023-09-11T20:42:16.866Z,,0,2,,6158.771000095177,response,ISIC_2136533.JPG,5,ISIC_5087951.JPG,ISIC_5087951.JPG,false,0,keypress(z),500,2256613.700000286,2256613.4000000954,2250437.927,2250452.1000003815,2250454.629,2256616.643,8,400,49,,ISIC_2136533.JPG
break,html.Screen,4_98_1,2023-09-11T20:42:16.867Z,,0,,,NaN,,,,,,false,,,,2256615.3000001907,2256614.700000286,,2256614.1000003815,,2256616.643,8,400,,,
break_continue,html.Screen,4_98_2,2023-09-11T20:42:16.868Z,,0,,,NaN,,,,,,false,,,,2256616.4000000954,2256616,,2256615.6000003815,,2256616.643,8,400,,,
sequence,flow.Sequence,4_98,2023-09-11T20:42:16.869Z,,0,,,6161.37099999981,completion,,,,,false,,,,2256616.8000001907,2256616,2250437.927,2250452,2250454.629,2256616.643,8,400,,,
trial,html.Screen,4_99_0,2023-09-11T20:42:22.665Z,,0,2,,5795.957000381313,response,ISIC_3596877.JPG,5,ISIC_6209119.JPG,ISIC_3596877.JPG,false,1,keypress(m),500,2262412.700000286,2262412.6000003815,2256600.002,2256617.4000000954,2256616.643,2262427.914,8,400,50,,ISIC_6209119.JPG
break,html.Screen,4_99_1,2023-09-11T20:42:32.667Z,,0,,,10002.95100000035,timeout,,,,,false,,,,2272414.6000003815,2272414.05,2262411.242,2262412.8000001907,2262427.914,2272430.865,8,400,,,
break_continue,html.Screen,4_99_2,2023-09-11T20:45:45.212Z,,0,,,192503.83500028588,response,,,,,false,continue,keypress(Space),,2464957,2464934.700000286,2272414.05,2272414.700000286,2272430.865,2464955.307,8,400,,,
sequence,flow.Sequence,4_99,2023-09-11T20:45:45.212Z,,0,,,208318.05700028595,completion,,,,,false,,,,2464957.1000003815,2464934.700000286,2256600.002,2256617.3000001907,2256616.643,2464955.307,8,400,,,
trial,html.Screen,4_100_0,2023-09-11T20:45:52.129Z,,0,3,,6918.593000095338,response,ISIC_0030003.JPG,4,ISIC_0071957.JPG,ISIC_0030003.JPG,false,1,keypress(m),500,2471874.1000003815,2471873.9000000954,2464938.697,2464957.200000286,2464955.307,2471885.587,8,400,1,,ISIC_0071957.JPG
break,html.Screen,4_100_1,2023-09-11T20:45:52.130Z,,0,,,NaN,,,,,,false,,,,2471875,2471874.700000286,,2471874.3000001907,,2471885.587,8,400,,,
break_continue,html.Screen,4_100_2,2023-09-11T20:45:52.130Z,,0,,,NaN,,,,,,false,,,,2471875.5,2471875.3000001907,,2471875.1000003815,,2471885.587,8,400,,,
sequence,flow.Sequence,4_100,2023-09-11T20:45:52.130Z,,0,,,6919.993000190705,completion,,,,,false,,,,2471875.6000003815,2471875.3000001907,2464938.697,2464957.1000003815,2464955.307,2471885.587,8,400,,,
trial,html.Screen,4_101_0,2023-09-11T20:45:56.711Z,,0,3,,4569.913000000175,response,ISIC_0011894.JPG,5,ISIC_0032701.JPG,ISIC_0011894.JPG,false,1,keypress(m),500,2476455.700000286,2476455.5,2471868.91,2471875.700000286,2471885.587,2476461.129,8,400,2,,ISIC_0032701.JPG
break,html.Screen,4_101_1,2023-09-11T20:45:56.712Z,,0,,,NaN,,,,,,false,,,,2476456.6000003815,2476456.4000000954,,2476455.9000000954,,2476461.129,8,400,,,
break_continue,html.Screen,4_101_2,2023-09-11T20:45:56.712Z,,0,,,NaN,,,,,,false,,,,2476456.9000000954,2476456.8000001907,,2476456.8000001907,,2476461.129,8,400,,,
sequence,flow.Sequence,4_101,2023-09-11T20:45:56.712Z,,0,,,4571.21300019091,completion,,,,,false,,,,2476457.1000003815,2476456.8000001907,2471868.91,2471875.700000286,2471885.587,2476461.129,8,400,,,
trial,html.Screen,4_102_0,2023-09-11T20:46:02.459Z,,0,3,,5742.771000095177,response,ISIC_0029150.JPG,5,ISIC_4062017.JPG,ISIC_4062017.JPG,false,0,keypress(z),500,2482204,2482203.9000000954,2476444.419,2476457.1000003815,2476461.129,2482205.591,8,400,3,,ISIC_0029150.JPG
break,html.Screen,4_102_1,2023-09-11T20:46:02.459Z,,0,,,NaN,,,,,,false,,,,2482204.4000000954,2482204.3000001907,,2482204,,2482205.591,8,400,,,
break_continue,html.Screen,4_102_2,2023-09-11T20:46:02.460Z,,0,,,NaN,,,,,,false,,,,2482204.6000003815,2482204.6000003815,,2482204.5,,2482205.591,8,400,,,
sequence,flow.Sequence,4_102,2023-09-11T20:46:02.460Z,,0,,,5743.47100038128,completion,,,,,false,,,,2482204.700000286,2482204.6000003815,2476444.419,2476457.1000003815,2476461.129,2482205.591,8,400,,,
trial,html.Screen,4_103_0,2023-09-11T20:46:08.196Z,,0,3,,5735.70900019072,response,ISIC_0057898.JPG,5,ISIC_0058376.JPG,ISIC_0057898.JPG,false,1,keypress(m),500,2487941.5,2487941.3000001907,2482188.971,2482204.700000286,2482205.591,2487950.079,8,400,4,,ISIC_0058376.JPG
break,html.Screen,4_103_1,2023-09-11T20:46:08.197Z,,0,,,NaN,,,,,,false,,,,2487942.1000003815,2487941.8000001907,,2487941.5,,2487950.079,8,400,,,
break_continue,html.Screen,4_103_2,2023-09-11T20:46:08.197Z,,0,,,NaN,,,,,,false,,,,2487942.4000000954,2487942.3000001907,,2487942.200000286,,2487950.079,8,400,,,
sequence,flow.Sequence,4_103,2023-09-11T20:46:08.197Z,,0,,,5736.70900019072,completion,,,,,false,,,,2487942.5,2487942.3000001907,2482188.971,2482204.700000286,2482205.591,2487950.079,8,400,,,
trial,html.Screen,4_104_0,2023-09-11T20:46:12.921Z,,0,3,,4715.521000381559,response,ISIC_3329255.JPG,6,ISIC_7287540.JPG,ISIC_3329255.JPG,false,1,keypress(m),500,2492665.700000286,2492665.6000003815,2487933.587,2487942.6000003815,2487950.079,2492675.951,8,400,5,,ISIC_7287540.JPG
break,html.Screen,4_104_1,2023-09-11T20:46:12.921Z,,0,,,NaN,,,,,,false,,,,2492666.200000286,2492666,,2492665.8000001907,,2492675.951,8,400,,,
break_continue,html.Screen,4_104_2,2023-09-11T20:46:12.921Z,,0,,,NaN,,,,,,false,,,,2492666.5,2492666.5,,2492666.3000001907,,2492675.951,8,400,,,
sequence,flow.Sequence,4_104,2023-09-11T20:46:12.922Z,,0,,,4716.421000000089,completion,,,,,false,,,,2492666.6000003815,2492666.5,2487933.587,2487942.6000003815,2487950.079,2492675.951,8,400,,,
trial,html.Screen,4_105_0,2023-09-11T20:46:17.034Z,,0,3,,4103.249000286218,response,ISIC_6128108.JPG,5,ISIC_2948811.JPG,ISIC_6128108.JPG,false,1,keypress(m),500,2496779.3000001907,2496779.200000286,2492659.333,2492666.6000003815,2492675.951,2496783.965,8,400,6,,ISIC_2948811.JPG
break,html.Screen,4_105_1,2023-09-11T20:46:17.035Z,,0,,,NaN,,,,,,false,,,,2496780,2496779.8000001907,,2496779.5,,2496783.965,8,400,,,
break_continue,html.Screen,4_105_2,2023-09-11T20:46:17.035Z,,0,,,NaN,,,,,,false,,,,2496780.3000001907,2496780.200000286,,2496780,,2496783.965,8,400,,,
sequence,flow.Sequence,4_105,2023-09-11T20:46:17.035Z,,0,,,4104.249000286218,completion,,,,,false,,,,2496780.4000000954,2496780.200000286,2492659.333,2492666.6000003815,2492675.951,2496783.965,8,400,,,
trial,html.Screen,4_106_0,2023-09-11T20:46:21.680Z,,0,3,,4641.135000381619,response,ISIC_1292607.JPG,5,ISIC_0046626.JPG,ISIC_0046626.JPG,false,0,keypress(z),500,2501425.3000001907,2501425.1000003815,2496767.44,2496780.5,2496783.965,2501426.306,8,400,7,,ISIC_1292607.JPG
break,html.Screen,4_106_1,2023-09-11T20:46:21.681Z,,0,,,NaN,,,,,,false,,,,2501425.9000000954,2501425.8000001907,,2501425.4000000954,,2501426.306,8,400,,,
break_continue,html.Screen,4_106_2,2023-09-11T20:46:21.681Z,,0,,,NaN,,,,,,false,,,,2501426.1000003815,2501426.1000003815,,2501425.9000000954,,2501426.306,8,400,,,
sequence,flow.Sequence,4_106,2023-09-11T20:46:21.681Z,,0,,,4642.135000381619,completion,,,,,false,,,,2501426.200000286,2501426.1000003815,2496767.44,2496780.5,2496783.965,2501426.306,8,400,,,
trial,html.Screen,4_107_0,2023-09-11T20:46:27.010Z,,0,3,,5328.794000381604,response,ISIC_6373689.JPG,4,ISIC_0024265.JPG,ISIC_0024265.JPG,false,0,keypress(z),500,2506755.3000001907,2506755.1000003815,2501409.745,2501426.3000001907,2501426.306,2506786.868,8,400,8,,ISIC_6373689.JPG
break,html.Screen,4_107_1,2023-09-11T20:46:27.011Z,,0,,,NaN,,,,,,false,,,,2506756.4000000954,2506756.1000003815,,2506755.6000003815,,2506786.868,8,400,,,
break_continue,html.Screen,4_107_2,2023-09-11T20:46:27.012Z,,0,,,NaN,,,,,,false,,,,2506757,2506756.8000001907,,2506756.6000003815,,2506786.868,8,400,,,
sequence,flow.Sequence,4_107,2023-09-11T20:46:27.012Z,,0,,,5330.494000190869,completion,,,,,false,,,,2506757.200000286,2506756.8000001907,2501409.745,2501426.3000001907,2501426.306,2506786.868,8,400,,,
trial,html.Screen,4_108_0,2023-09-11T20:46:31.190Z,,0,3,,4148.432000190951,response,ISIC_0034120.JPG,5,ISIC_0301568.JPG,ISIC_0034120.JPG,false,1,keypress(m),500,2510935.5,2510935.3000001907,2506770.124,2506757.5,2506786.868,2510945.018,8,400,9,,ISIC_0301568.JPG
break,html.Screen,4_108_1,2023-09-11T20:46:31.191Z,,0,,,NaN,,,,,,false,,,,2510936,2510935.9000000954,,2510935.6000003815,,2510945.018,8,400,,,
break_continue,html.Screen,4_108_2,2023-09-11T20:46:31.191Z,,0,,,NaN,,,,,,false,,,,2510936.4000000954,2510936.3000001907,,2510936.200000286,,2510945.018,8,400,,,
sequence,flow.Sequence,4_108,2023-09-11T20:46:31.191Z,,0,,,4149.432000190951,completion,,,,,false,,,,2510936.5,2510936.3000001907,2506770.124,2506757.4000000954,2506786.868,2510945.018,8,400,,,
trial,html.Screen,4_109_0,2023-09-11T20:46:38.409Z,,0,3,,7208.682000285946,response,ISIC_0963536.JPG,5,ISIC_6406517.JPG,ISIC_6406517.JPG,false,0,keypress(z),500,2518153.9000000954,2518153.700000286,2510928.156,2510936.5,2510945.018,2518158.976,8,400,10,,ISIC_0963536.JPG
break,html.Screen,4_109_1,2023-09-11T20:46:38.410Z,,0,,,NaN,,,,,,false,,,,2518155.1000003815,2518154.8000001907,,2518154.200000286,,2518158.976,8,400,,,
break_continue,html.Screen,4_109_2,2023-09-11T20:46:38.411Z,,0,,,NaN,,,,,,false,,,,2518155.700000286,2518155.5,,2518155.200000286,,2518158.976,8,400,,,
sequence,flow.Sequence,4_109,2023-09-11T20:46:38.411Z,,0,,,7210.4819999998435,completion,,,,,false,,,,2518155.9000000954,2518155.5,2510928.156,2510936.5,2510945.018,2518158.976,8,400,,,
trial,html.Screen,4_110_0,2023-09-11T20:46:44.494Z,,0,3,,6079.124000381678,response,ISIC_0010958.JPG,5,ISIC_5164416.JPG,ISIC_5164416.JPG,false,0,keypress(z),500,2524238.200000286,2524238.1000003815,2518142.215,2518156,2518158.976,2524254.118,8,400,11,,ISIC_0010958.JPG
break,html.Screen,4_110_1,2023-09-11T20:46:44.494Z,,0,,,NaN,,,,,,false,,,,2524238.6000003815,2524238.5,,2524238.3000001907,,2524254.118,8,400,,,
break_continue,html.Screen,4_110_2,2023-09-11T20:46:44.494Z,,0,,,NaN,,,,,,false,,,,2524238.700000286,2524238.700000286,,2524238.700000286,,2524254.118,8,400,,,
sequence,flow.Sequence,4_110,2023-09-11T20:46:44.494Z,,0,,,6079.724000286311,completion,,,,,false,,,,2524238.8000001907,2524238.700000286,2518142.215,2518155.9000000954,2518158.976,2524254.118,8,400,,,
trial,html.Screen,4_111_0,2023-09-11T20:46:50.000Z,,0,3,,5490.2820000955835,response,ISIC_7260013.JPG,5,ISIC_0011369.JPG,ISIC_0011369.JPG,false,0,keypress(z),500,2529744.5,2529744.4000000954,2524237.479,2524238.8000001907,2524254.118,2529748.178,8,400,12,,ISIC_7260013.JPG
break,html.Screen,4_111_1,2023-09-11T20:46:50.000Z,,0,,,NaN,,,,,,false,,,,2529744.9000000954,2529744.8000001907,,2529744.5,,2529748.178,8,400,,,
break_continue,html.Screen,4_111_2,2023-09-11T20:46:50.001Z,,0,,,NaN,,,,,,false,,,,2529745,2529745,,2529745,,2529748.178,8,400,,,
sequence,flow.Sequence,4_111,2023-09-11T20:46:50.001Z,,0,,,5490.882000000216,completion,,,,,false,,,,2529745.200000286,2529745,2524237.479,2524238.8000001907,2524254.118,2529748.178,8,400,,,
trial,html.Screen,4_112_0,2023-09-11T20:46:57.378Z,,0,3,,7374.32200000016,response,ISIC_0000429.JPG,5,ISIC_8953848.JPG,ISIC_0000429.JPG,false,1,keypress(m),500,2537122.700000286,2537122.5,2529731.442,2529745.200000286,2529748.178,2537129.116,8,400,13,,ISIC_8953848.JPG
break,html.Screen,4_112_1,2023-09-11T20:46:57.379Z,,0,,,NaN,,,,,,false,,,,2537123.1000003815,2537122.9000000954,,2537122.8000001907,,2537129.116,8,400,,,
break_continue,html.Screen,4_112_2,2023-09-11T20:46:57.379Z,,0,,,NaN,,,,,,false,,,,2537123.200000286,2537123.200000286,,2537123.200000286,,2537129.116,8,400,,,
sequence,flow.Sequence,4_112,2023-09-11T20:46:57.379Z,,0,,,7375.0220002862625,completion,,,,,false,,,,2537123.4000000954,2537123.200000286,2529731.442,2529745.200000286,2529748.178,2537129.116,8,400,,,
trial,html.Screen,4_113_0,2023-09-11T20:47:00.685Z,,0,3,,3300.484000381548,response,ISIC_3106058.JPG,5,ISIC_0010476.JPG,ISIC_3106058.JPG,false,1,keypress(m),500,2540429.8000001907,2540429.6000003815,2537112.612,2537123.4000000954,2537129.116,2540435.653,8,400,14,,ISIC_0010476.JPG
break,html.Screen,4_113_1,2023-09-11T20:47:00.686Z,,0,,,NaN,,,,,,false,,,,2540430.4000000954,2540430.3000001907,,2540429.9000000954,,2540435.653,8,400,,,
break_continue,html.Screen,4_113_2,2023-09-11T20:47:00.686Z,,0,,,NaN,,,,,,false,,,,2540430.8000001907,2540430.700000286,,2540430.5,,2540435.653,8,400,,,
sequence,flow.Sequence,4_113,2023-09-11T20:47:00.686Z,,0,,,3301.5840002861805,completion,,,,,false,,,,2540430.8000001907,2540430.700000286,2537112.612,2537123.4000000954,2537129.116,2540435.653,8,400,,,
trial,html.Screen,4_114_0,2023-09-11T20:47:05.728Z,,0,3,,5036.547000286169,response,ISIC_0003851.JPG,5,ISIC_0011459.JPG,ISIC_0011459.JPG,false,0,keypress(z),500,2545472.3000001907,2545472.200000286,2540418.975,2540431,2540435.653,2545478.82,8,400,15,,ISIC_0003851.JPG
break,html.Screen,4_114_1,2023-09-11T20:47:05.728Z,,0,,,NaN,,,,,,false,,,,2545472.9000000954,2545472.700000286,,2545472.4000000954,,2545478.82,8,400,,,
break_continue,html.Screen,4_114_2,2023-09-11T20:47:05.729Z,,0,,,NaN,,,,,,false,,,,2545473.200000286,2545473,,2545472.9000000954,,2545478.82,8,400,,,
sequence,flow.Sequence,4_114,2023-09-11T20:47:05.729Z,,0,,,5037.347000000067,completion,,,,,false,,,,2545473.3000001907,2545473,2540418.975,2540430.9000000954,2540435.653,2545478.82,8,400,,,
trial,html.Screen,4_115_0,2023-09-11T20:47:10.914Z,,0,3,,5179.280000381637,response,ISIC_2739449.JPG,6,ISIC_6915759.JPG,ISIC_6915759.JPG,false,0,keypress(z),500,2550658.3000001907,2550658.1000003815,2545462.117,2545473.3000001907,2545478.82,2550672.335,8,400,16,,ISIC_2739449.JPG
break,html.Screen,4_115_1,2023-09-11T20:47:10.914Z,,0,,,NaN,,,,,,false,,,,2550658.8000001907,2550658.6000003815,,2550658.4000000954,,2550672.335,8,400,,,
break_continue,html.Screen,4_115_2,2023-09-11T20:47:10.915Z,,0,,,NaN,,,,,,false,,,,2550659.200000286,2550659.1000003815,,2550659,,2550672.335,8,400,,,
sequence,flow.Sequence,4_115,2023-09-11T20:47:10.915Z,,0,,,5180.280000381637,completion,,,,,false,,,,2550659.3000001907,2550659.1000003815,2545462.117,2545473.3000001907,2545478.82,2550672.335,8,400,,,
trial,html.Screen,4_116_0,2023-09-11T20:47:18.036Z,,0,3,,7107.665000000037,response,ISIC_1915890.JPG,5,ISIC_9364350.JPG,ISIC_9364350.JPG,false,0,keypress(z),500,2557780.3000001907,2557780,2550655.437,2550659.3000001907,2550672.335,2557786.017,8,400,17,,ISIC_1915890.JPG
break,html.Screen,4_116_1,2023-09-11T20:47:18.037Z,,0,,,NaN,,,,,,false,,,,2557781.1000003815,2557780.9000000954,,2557780.4000000954,,2557786.017,8,400,,,
break_continue,html.Screen,4_116_2,2023-09-11T20:47:18.037Z,,0,,,NaN,,,,,,false,,,,2557781.5,2557781.4000000954,,2557781.200000286,,2557786.017,8,400,,,
sequence,flow.Sequence,4_116,2023-09-11T20:47:18.037Z,,0,,,7109.065000095405,completion,,,,,false,,,,2557781.6000003815,2557781.4000000954,2550655.437,2550659.3000001907,2550672.335,2557786.017,8,400,,,
trial,html.Screen,4_117_0,2023-09-11T20:47:23.383Z,,0,3,,5341.68300028611,response,ISIC_3300710.JPG,4,ISIC_0027590.JPG,ISIC_0027590.JPG,false,0,keypress(z),500,2563127.8000001907,2563127.700000286,2557769.375,2557781.700000286,2557786.017,2563129.767,8,400,18,,ISIC_3300710.JPG
break,html.Screen,4_117_1,2023-09-11T20:47:23.384Z,,0,,,NaN,,,,,,false,,,,2563128.200000286,2563128.1000003815,,2563127.9000000954,,2563129.767,8,400,,,
break_continue,html.Screen,4_117_2,2023-09-11T20:47:23.384Z,,0,,,NaN,,,,,,false,,,,2563128.5,2563128.4000000954,,2563128.3000001907,,2563129.767,8,400,,,
sequence,flow.Sequence,4_117,2023-09-11T20:47:23.384Z,,0,,,5342.383000095375,completion,,,,,false,,,,2563128.5,2563128.4000000954,2557769.375,2557781.700000286,2557786.017,2563129.767,8,400,,,
trial,html.Screen,4_118_0,2023-09-11T20:47:28.417Z,,0,3,,5031.133000095375,response,ISIC_6942437.JPG,5,ISIC_2071966.JPG,ISIC_2071966.JPG,false,0,keypress(z),500,2568161,2568160.9000000954,2563113.133,2563128.6000003815,2563129.767,2568172.85,8,400,19,,ISIC_6942437.JPG
break,html.Screen,4_118_1,2023-09-11T20:47:28.417Z,,0,,,NaN,,,,,,false,,,,2568161.5,2568161.4000000954,,2568161.200000286,,2568172.85,8,400,,,
break_continue,html.Screen,4_118_2,2023-09-11T20:47:28.417Z,,0,,,NaN,,,,,,false,,,,2568161.700000286,2568161.6000003815,,2568161.5,,2568172.85,8,400,,,
sequence,flow.Sequence,4_118,2023-09-11T20:47:28.417Z,,0,,,5031.833000381477,completion,,,,,false,,,,2568161.8000001907,2568161.6000003815,2563113.133,2563128.5,2563129.767,2568172.85,8,400,,,
trial,html.Screen,4_119_0,2023-09-11T20:47:34.967Z,,0,3,,6538.550000095274,response,ISIC_4374554.JPG,4,ISIC_0062740.JPG,ISIC_0062740.JPG,false,0,keypress(z),500,2574711.6000003815,2574711.4000000954,2568156.2,2568161.8000001907,2568172.85,2574719.026,8,400,20,,ISIC_4374554.JPG
break,html.Screen,4_119_1,2023-09-11T20:47:34.968Z,,0,,,NaN,,,,,,false,,,,2574712.4000000954,2574712.1000003815,,2574711.700000286,,2574719.026,8,400,,,
break_continue,html.Screen,4_119_2,2023-09-11T20:47:34.968Z,,0,,,NaN,,,,,,false,,,,2574712.700000286,2574712.700000286,,2574712.6000003815,,2574719.026,8,400,,,
sequence,flow.Sequence,4_119,2023-09-11T20:47:34.968Z,,0,,,6539.850000286009,completion,,,,,false,,,,2574712.9000000954,2574712.700000286,2568156.2,2568161.8000001907,2568172.85,2574719.026,8,400,,,
trial,html.Screen,4_120_0,2023-09-11T20:47:38.460Z,,0,3,,3484.8740000952967,response,ISIC_0015185.JPG,6,ISIC_6620377.JPG,ISIC_0015185.JPG,false,1,keypress(m),500,2578204.1000003815,2578203.9000000954,2574702.369,2574713,2574719.026,2578225.806,8,400,21,,ISIC_6620377.JPG
break,html.Screen,4_120_1,2023-09-11T20:47:38.461Z,,0,,,NaN,,,,,,false,,,,2578205.1000003815,2578204.8000001907,,2578204.4000000954,,2578225.806,8,400,,,
break_continue,html.Screen,4_120_2,2023-09-11T20:47:38.461Z,,0,,,NaN,,,,,,false,,,,2578205.5,2578205.4000000954,,2578205.200000286,,2578225.806,8,400,,,
sequence,flow.Sequence,4_120,2023-09-11T20:47:38.461Z,,0,,,3486.3740000952967,completion,,,,,false,,,,2578205.700000286,2578205.4000000954,2574702.369,2574712.9000000954,2574719.026,2578225.806,8,400,,,
trial,html.Screen,4_121_0,2023-09-11T20:47:41.695Z,,0,3,,3213.494000190869,response,ISIC_0027170.JPG,5,ISIC_8849004.JPG,ISIC_0027170.JPG,false,1,keypress(m),500,2581439.4000000954,2581439.3000001907,2578209.067,2578205.8000001907,2578225.806,2581448.792,8,400,22,,ISIC_8849004.JPG
break,html.Screen,4_121_1,2023-09-11T20:47:41.695Z,,0,,,NaN,,,,,,false,,,,2581439.8000001907,2581439.700000286,,2581439.5,,2581448.792,8,400,,,
break_continue,html.Screen,4_121_2,2023-09-11T20:47:41.696Z,,0,,,NaN,,,,,,false,,,,2581440,2581440,,2581439.9000000954,,2581448.792,8,400,,,
sequence,flow.Sequence,4_121,2023-09-11T20:47:41.696Z,,0,,,3214.194000000134,completion,,,,,false,,,,2581440.1000003815,2581440,2578209.067,2578205.8000001907,2578225.806,2581448.792,8,400,,,
trial,html.Screen,4_122_0,2023-09-11T20:47:47.122Z,,0,3,,5416.608000095468,response,ISIC_9028997.JPG,5,ISIC_0026103.JPG,ISIC_0026103.JPG,false,0,keypress(z),500,2586865.5,2586865.4000000954,2581432.049,2581440.1000003815,2581448.792,2586876.024,8,400,23,,ISIC_9028997.JPG
break,html.Screen,4_122_1,2023-09-11T20:47:47.122Z,,0,,,NaN,,,,,,false,,,,2586866.1000003815,2586865.8000001907,,2586865.6000003815,,2586876.024,8,400,,,
break_continue,html.Screen,4_122_2,2023-09-11T20:47:47.123Z,,0,,,NaN,,,,,,false,,,,2586866.5,2586866.3000001907,,2586866.200000286,,2586876.024,8,400,,,
sequence,flow.Sequence,4_122,2023-09-11T20:47:47.123Z,,0,,,5417.508000190835,completion,,,,,false,,,,2586866.6000003815,2586866.3000001907,2581432.049,2581440.1000003815,2581448.792,2586876.024,8,400,,,
trial,html.Screen,4_123_0,2023-09-11T20:47:50.773Z,,0,3,,3640.9759999997914,response,ISIC_0010319.JPG,5,ISIC_0011855.JPG,ISIC_0011855.JPG,false,0,keypress(z),500,2590517.1000003815,2590517,2586859.357,2586866.6000003815,2586876.024,2590533.083,8,400,24,,ISIC_0010319.JPG
break,html.Screen,4_123_1,2023-09-11T20:47:50.774Z,,0,,,NaN,,,,,,false,,,,2590517.700000286,2590517.5,,2590517.200000286,,2590533.083,8,400,,,
break_continue,html.Screen,4_123_2,2023-09-11T20:47:50.774Z,,0,,,NaN,,,,,,false,,,,2590517.9000000954,2590517.700000286,,2590517.700000286,,2590533.083,8,400,,,
sequence,flow.Sequence,4_123,2023-09-11T20:47:50.774Z,,0,,,3641.6760002858937,completion,,,,,false,,,,2590517.9000000954,2590517.700000286,2586859.357,2586866.6000003815,2586876.024,2590533.083,8,400,,,
