sender,sender_type,sender_id,timestamp,meta,,blockNo,condition,duration,ended_on,img_left,img_reveal,img_right,loser,practice,response,response_action,selection_duration,time_commit,time_end,time_render,time_run,time_show,time_switch,total_blocks,total_trials,trialNo,url,winner
informed_consent,html.Screen,0,2023-09-13T15:46:43.663Z,"{""labjs_version"":""20.2.4"",""labjs_build"":{""flavor"":""development"",""commit"":""f5b4a49f956347addd546a832a3327688c2c0fef""},""location"":""https://labjs.felixhenninger.com/api/labjs_preview/index.html"",""userAgent"":""Mozilla/5.0 (Windows NT 10.0; Win64; x64) AppleWebKit/537.36 (KHTML, like Gecko) Chrome/116.0.0.0 Safari/537.36"",""platform"":""Win32"",""language"":""en-AU"",""locale"":""en-US"",""timeZone"":""America/Chicago"",""timezoneOffset"":300,""screen_width"":2560,""screen_height"":1440,""scroll_width"":1296,""scroll_height"":688,""window_innerWidth"":1296,""window_innerHeight"":736,""devicePixelRatio"":1}",,,,1568.6520000953674,response,,,,,,consent,click button,,2162.5,2161.4000000953674,576.04,569.1999998092651,592.748,2180.299,,,,{},
Welcome,html.Screen,1,2023-09-13T15:46:43.845Z,,,,asymmetry,163.20100000000002,response,,,,,,continue,click button,,2344.0999999046326,2343.5,2145.837,2162.9000000953674,2180.299,2346.129,,,,,
trial,html.Screen,2_0_0,2023-09-13T15:46:51.480Z,,0,0,,7632.570999809265,response,ISIC_6997061.JPG,,ISIC_0069348.JPG,ISIC_0069348.JPG,true,0,keypress(z),500,9979,9978.699999809265,2329.423,2344.2999997138977,2346.129,9994.4,1,6,1,,ISIC_6997061.JPG
sequence,flow.Sequence,2_0,2023-09-13T15:46:51.480Z,,0,,,7632.570999809265,completion,,,,,true,,,,9979.199999809265,9978.699999809265,2329.423,2344.199999809265,2346.129,9994.4,1,6,,,
trial,html.Screen,2_1_0,2023-09-13T15:46:56.942Z,,0,0,,5446.1,response,ISIC_0009529.JPG,,ISIC_0057368.JPG,ISIC_0009529.JPG,true,1,keypress(m),500,15440.599999904633,15440.5,9977.626,9979.299999713898,9994.4,15454.959,1,6,2,,ISIC_0057368.JPG
sequence,flow.Sequence,2_1,2023-09-13T15:46:56.942Z,,0,,,5446.1,completion,,,,,true,,,,15440.900000095367,15440.5,9977.626,9979.199999809265,9994.4,15454.959,1,6,,,
trial,html.Screen,2_2_0,2023-09-13T15:47:03.071Z,,0,0,,6114.840999713897,response,ISIC_9758671.JPG,,ISIC_0064954.JPG,ISIC_0064954.JPG,true,0,keypress(z),500,21569.900000095367,21569.799999713898,15438.243,15441,15454.959,21600.27,1,6,3,,ISIC_9758671.JPG
sequence,flow.Sequence,2_2,2023-09-13T15:47:03.071Z,,0,,,6114.840999713897,completion,,,,,true,,,,21570.099999904633,21569.799999713898,15438.243,15441,15454.959,21600.27,1,6,,,
trial,html.Screen,2_3_0,2023-09-13T15:47:05.705Z,,0,0,,2603.7299999999996,response,ISIC_0005785.JPG,,ISIC_0000080.JPG,ISIC_0000080.JPG,true,0,keypress(z),500,24204.099999904633,24204,21583.661,21570.199999809265,21600.27,24222.012,1,6,4,,ISIC_0005785.JPG
sequence,flow.Sequence,2_3,2023-09-13T15:47:05.705Z,,0,,,2603.7299999999996,completion,,,,,true,,,,24204.199999809265,24204,21583.661,21570.199999809265,21600.27,24222.012,1,6,,,
trial,html.Screen,2_4_0,2023-09-13T15:47:08.444Z,,0,0,,2720.488000000001,response,ISIC_7944028.JPG,,ISIC_5390060.JPG,ISIC_7944028.JPG,true,1,keypress(m),500,26942.699999809265,26942.5,24205.332,24204.400000095367,24222.012,26943.977,1,6,5,,ISIC_5390060.JPG
sequence,flow.Sequence,2_4,2023-09-13T15:47:08.444Z,,0,,,2720.488000000001,completion,,,,,true,,,,26942.900000095367,26942.5,24205.332,24204.400000095367,24222.012,26943.977,1,6,,,
trial,html.Screen,2_5_0,2023-09-13T15:47:12.111Z,,0,0,,3665.722999809266,response,ISIC_0794216.JPG,,ISIC_0010188.JPG,ISIC_0794216.JPG,true,1,keypress(m),500,30610.099999904633,30609.699999809265,26927.279,26942.900000095367,26943.977,30617.802,1,6,6,,ISIC_0010188.JPG
sequence,flow.Sequence,2_5,2023-09-13T15:47:12.111Z,,0,,,3665.722999809266,completion,,,,,true,,,,30610.599999904633,30609.699999809265,26927.279,26942.900000095367,26943.977,30617.802,1,6,,,
loop,flow.Loop,2,2023-09-13T15:47:12.112Z,,,,,28263.570999809264,completion,,,,,true,,,,30610.799999713898,30609.699999809265,2329.423,2344.199999809265,2346.129,30617.802,1,6,,,
exp_instructions,html.Screen,3,2023-09-13T15:47:30.405Z,,,,,18285.897999809265,response,,,,,,continue,keypress(Space),,48904.199999809265,48903.699999809265,30601.136,30610.799999713898,30617.802,48936.773,,,,,
trial,html.Screen,4_0_0,2023-09-13T15:47:38.127Z,,0,1,,7689.627000095366,response,ISIC_3368468.JPG,4,ISIC_0033444.JPG,ISIC_0033444.JPG,false,0,keypress(z),500,56626.59999990463,56626.40000009537,48920.123,48904.40000009537,48936.773,56635.125,8,400,1,,ISIC_3368468.JPG
break,html.Screen,4_0_1,2023-09-13T15:47:38.128Z,,0,,,NaN,,,,,,false,,,,56627.5,56627.2999997139,,56626.7999997139,,56635.125,8,400,,,
break_continue,html.Screen,4_0_2,2023-09-13T15:47:38.129Z,,0,,,NaN,,,,,,false,,,,56627.7999997139,56627.699999809265,,56627.59999990463,,56635.125,8,400,,,
sequence,flow.Sequence,4_0,2023-09-13T15:47:38.129Z,,0,,,7690.926999809264,completion,,,,,false,,,,56628,56627.699999809265,48920.123,48904.40000009537,48936.773,56635.125,8,400,,,
trial,html.Screen,4_1_0,2023-09-13T15:47:44.629Z,,0,1,,6491.174999713898,response,ISIC_9101441.JPG,4,ISIC_0013674.JPG,ISIC_0013674.JPG,false,0,keypress(z),500,63126.40000009537,63126.2999997139,56618.426,56628,56635.125,63131.097,8,400,2,,ISIC_9101441.JPG
break,html.Screen,4_1_1,2023-09-13T15:47:44.629Z,,0,,,NaN,,,,,,false,,,,63126.90000009537,63126.699999809265,,63126.59999990463,,63131.097,8,400,,,
break_continue,html.Screen,4_1_2,2023-09-13T15:47:44.629Z,,0,,,NaN,,,,,,false,,,,63127.09999990463,63127,,63126.90000009537,,63131.097,8,400,,,
sequence,flow.Sequence,4_1,2023-09-13T15:47:44.630Z,,0,,,6491.875,completion,,,,,false,,,,63127.09999990463,63127,56618.426,56628,56635.125,63131.097,8,400,,,
trial,html.Screen,4_2_0,2023-09-13T15:47:51.159Z,,0,1,,6525.002999904631,response,ISIC_5315125.JPG,6,ISIC_4826449.JPG,ISIC_5315125.JPG,false,1,keypress(m),500,69656.2999997139,69656.09999990463,63114.455,63127.199999809265,63131.097,69660.462,8,400,3,,ISIC_4826449.JPG
break,html.Screen,4_2_1,2023-09-13T15:47:51.160Z,,0,,,NaN,,,,,,false,,,,69657.40000009537,69656.90000009537,,69656.5,,69660.462,8,400,,,
break_continue,html.Screen,4_2_2,2023-09-13T15:47:51.160Z,,0,,,NaN,,,,,,false,,,,69657.7999997139,69657.59999990463,,69657.40000009537,,69660.462,8,400,,,
sequence,flow.Sequence,4_2,2023-09-13T15:47:51.160Z,,0,,,6526.502999904631,completion,,,,,false,,,,69658,69657.59999990463,63114.455,63127.09999990463,63131.097,69660.462,8,400,,,
trial,html.Screen,4_3_0,2023-09-13T15:47:58.895Z,,0,1,,7732.337999713898,response,ISIC_5044438.JPG,6,ISIC_0031550.JPG,ISIC_5044438.JPG,false,1,keypress(m),500,77393,77392.7999997139,69643.779,69658.19999980927,69660.462,77409.04,8,400,4,,ISIC_0031550.JPG
break,html.Screen,4_3_1,2023-09-13T15:47:58.896Z,,0,,,NaN,,,,,,false,,,,77393.40000009537,77393.2999997139,,77393.09999990463,,77409.04,8,400,,,
break_continue,html.Screen,4_3_2,2023-09-13T15:47:58.896Z,,0,,,NaN,,,,,,false,,,,77393.5,77393.5,,77393.40000009537,,77409.04,8,400,,,
sequence,flow.Sequence,4_3,2023-09-13T15:47:58.896Z,,0,,,7733.0380000000005,completion,,,,,false,,,,77393.59999990463,77393.5,69643.779,69658.19999980927,69660.462,77409.04,8,400,,,
trial,html.Screen,4_4_0,2023-09-13T15:48:05.235Z,,0,1,,6322.960000000006,response,ISIC_6553579.JPG,5,ISIC_0030554.JPG,ISIC_0030554.JPG,false,0,keypress(z),500,83732.19999980927,83732,77392.247,77393.69999980927,77409.04,83737.88,8,400,5,,ISIC_6553579.JPG
break,html.Screen,4_4_1,2023-09-13T15:48:05.236Z,,0,,,NaN,,,,,,false,,,,83733.09999990463,83732.7999997139,,83732.40000009537,,83737.88,8,400,,,
break_continue,html.Screen,4_4_2,2023-09-13T15:48:05.236Z,,0,,,NaN,,,,,,false,,,,83733.5,83733.40000009537,,83733.19999980927,,83737.88,8,400,,,
sequence,flow.Sequence,4_4,2023-09-13T15:48:05.236Z,,0,,,6324.360000095374,completion,,,,,false,,,,83733.59999990463,83733.40000009537,77392.247,77393.59999990463,77409.04,83737.88,8,400,,,
trial,html.Screen,4_5_0,2023-09-13T15:48:12.333Z,,0,1,,7092.119999999995,response,ISIC_2559074.JPG,5,ISIC_8048668.JPG,ISIC_2559074.JPG,false,1,keypress(m),500,90830.19999980927,90830,83721.146,83733.69999980927,83737.88,90835.025,8,400,6,,ISIC_8048668.JPG
break,html.Screen,4_5_1,2023-09-13T15:48:12.334Z,,0,,,NaN,,,,,,false,,,,90831.19999980927,90830.90000009537,,90830.40000009537,,90835.025,8,400,,,
break_continue,html.Screen,4_5_2,2023-09-13T15:48:12.334Z,,0,,,NaN,,,,,,false,,,,90831.5,90831.5,,90831.19999980927,,90835.025,8,400,,,
sequence,flow.Sequence,4_5,2023-09-13T15:48:12.334Z,,0,,,7093.619999999995,completion,,,,,false,,,,90831.69999980927,90831.5,83721.146,83733.69999980927,83737.88,90835.025,8,400,,,
trial,html.Screen,4_6_0,2023-09-13T15:48:18.628Z,,0,1,,6290.574999904638,response,ISIC_8687105.JPG,5,ISIC_4640293.JPG,ISIC_8687105.JPG,false,1,keypress(m),500,97125.69999980927,97125.59999990463,90818.294,90831.7999997139,90835.025,97130.542,8,400,7,,ISIC_4640293.JPG
break,html.Screen,4_6_1,2023-09-13T15:48:18.629Z,,0,,,NaN,,,,,,false,,,,97126.5,97126.09999990463,,97125.7999997139,,97130.542,8,400,,,
break_continue,html.Screen,4_6_2,2023-09-13T15:48:18.629Z,,0,,,NaN,,,,,,false,,,,97126.7999997139,97126.69999980927,,97126.5,,97130.542,8,400,,,
sequence,flow.Sequence,4_6,2023-09-13T15:48:18.629Z,,0,,,6291.674999809271,completion,,,,,false,,,,97126.7999997139,97126.69999980927,90818.294,90831.69999980927,90835.025,97130.542,8,400,,,
trial,html.Screen,4_7_0,2023-09-13T15:48:24.216Z,,0,1,,5582.657999809264,response,ISIC_0067205.JPG,6,ISIC_7501061.JPG,ISIC_7501061.JPG,false,0,keypress(z),500,102713.19999980927,102713.19999980927,97113.876,97126.90000009537,97130.542,102724.888,8,400,8,,ISIC_0067205.JPG
break,html.Screen,4_7_1,2023-09-13T15:48:24.216Z,,0,,,NaN,,,,,,false,,,,102713.7999997139,102713.59999990463,,102713.2999997139,,102724.888,8,400,,,
break_continue,html.Screen,4_7_2,2023-09-13T15:48:24.217Z,,0,,,NaN,,,,,,false,,,,102714.09999990463,102714.09999990463,,102714,,102724.888,8,400,,,
sequence,flow.Sequence,4_7,2023-09-13T15:48:24.217Z,,0,,,5583.557999904631,completion,,,,,false,,,,102714.2999997139,102714.09999990463,97113.876,97126.7999997139,97130.542,102724.888,8,400,,,
trial,html.Screen,4_8_0,2023-09-13T15:48:29.899Z,,0,1,,5671.311999809259,response,ISIC_4453506.JPG,5,ISIC_7418723.JPG,ISIC_7418723.JPG,false,0,keypress(z),500,108396.2999997139,108396.19999980927,102708.104,102714.2999997139,102724.888,108402.592,8,400,9,,ISIC_4453506.JPG
break,html.Screen,4_8_1,2023-09-13T15:48:29.900Z,,0,,,NaN,,,,,,false,,,,108397.09999990463,108396.90000009537,,108396.59999990463,,108402.592,8,400,,,
break_continue,html.Screen,4_8_2,2023-09-13T15:48:29.900Z,,0,,,NaN,,,,,,false,,,,108397.2999997139,108397.2999997139,,108397.19999980927,,108402.592,8,400,,,
sequence,flow.Sequence,4_8,2023-09-13T15:48:29.900Z,,0,,,5672.411999713891,completion,,,,,false,,,,108397.40000009537,108397.2999997139,102708.104,102714.2999997139,102724.888,108402.592,8,400,,,
trial,html.Screen,4_9_0,2023-09-13T15:48:35.758Z,,0,1,,5852.507999904628,response,ISIC_0010162.JPG,5,ISIC_2276141.JPG,ISIC_2276141.JPG,false,0,keypress(z),500,114255.2999997139,114255.09999990463,108385.761,108397.5,108402.592,114263.945,8,400,10,,ISIC_0010162.JPG
break,html.Screen,4_9_1,2023-09-13T15:48:35.759Z,,0,,,NaN,,,,,,false,,,,114256.19999980927,114255.7999997139,,114255.40000009537,,114263.945,8,400,,,
break_continue,html.Screen,4_9_2,2023-09-13T15:48:35.759Z,,0,,,NaN,,,,,,false,,,,114256.59999990463,114256.5,,114256.2999997139,,114263.945,8,400,,,
sequence,flow.Sequence,4_9,2023-09-13T15:48:35.759Z,,0,,,5853.907999999996,completion,,,,,false,,,,114256.69999980927,114256.5,108385.761,108397.5,108402.592,114263.945,8,400,,,
trial,html.Screen,4_10_0,2023-09-13T15:48:41.914Z,,0,1,,6145.554999999993,response,ISIC_0046828.JPG,5,ISIC_8428097.JPG,ISIC_8428097.JPG,false,0,keypress(z),500,120409.69999980927,120409.5,114247.222,114256.7999997139,114263.945,120425.956,8,400,11,,ISIC_0046828.JPG
break,html.Screen,4_10_1,2023-09-13T15:48:41.914Z,,0,,,NaN,,,,,,false,,,,120410.40000009537,120410.19999980927,,120409.90000009537,,120425.956,8,400,,,
break_continue,html.Screen,4_10_2,2023-09-13T15:48:41.915Z,,0,,,NaN,,,,,,false,,,,120410.90000009537,120410.69999980927,,120410.59999990463,,120425.956,8,400,,,
sequence,flow.Sequence,4_10,2023-09-13T15:48:41.915Z,,0,,,6146.754999809258,completion,,,,,false,,,,120411,120410.69999980927,114247.222,114256.7999997139,114263.945,120425.956,8,400,,,
trial,html.Screen,4_11_0,2023-09-13T15:48:47.613Z,,0,1,,5682.74399980926,response,ISIC_0070679.JPG,4,ISIC_0033800.JPG,ISIC_0070679.JPG,false,1,keypress(m),500,126108.7999997139,126108.69999980927,120409.279,120411.09999990463,120425.956,126120.419,8,400,12,,ISIC_0033800.JPG
break,html.Screen,4_11_1,2023-09-13T15:48:47.613Z,,0,,,NaN,,,,,,false,,,,126109.40000009537,126109.19999980927,,126108.90000009537,,126120.419,8,400,,,
break_continue,html.Screen,4_11_2,2023-09-13T15:48:47.614Z,,0,,,NaN,,,,,,false,,,,126109.69999980927,126109.59999990463,,126109.40000009537,,126120.419,8,400,,,
sequence,flow.Sequence,4_11,2023-09-13T15:48:47.614Z,,0,,,5683.643999904627,completion,,,,,false,,,,126109.69999980927,126109.59999990463,120409.279,120411,120425.956,126120.419,8,400,,,
trial,html.Screen,4_12_0,2023-09-13T15:48:53.200Z,,0,1,,5575.481000095373,response,ISIC_0011744.JPG,4,ISIC_0591226.JPG,ISIC_0591226.JPG,false,0,keypress(z),500,131696,131695.90000009537,126103.72,126109.90000009537,126120.419,131697.807,8,400,13,,ISIC_0011744.JPG
break,html.Screen,4_12_1,2023-09-13T15:48:53.201Z,,0,,,NaN,,,,,,false,,,,131696.7999997139,131696.5,,131696.19999980927,,131697.807,8,400,,,
break_continue,html.Screen,4_12_2,2023-09-13T15:48:53.201Z,,0,,,NaN,,,,,,false,,,,131697.19999980927,131697.09999990463,,131696.90000009537,,131697.807,8,400,,,
sequence,flow.Sequence,4_12,2023-09-13T15:48:53.201Z,,0,,,5576.680999904638,completion,,,,,false,,,,131697.19999980927,131697.09999990463,126103.72,126109.7999997139,126120.419,131697.807,8,400,,,
trial,html.Screen,4_13_0,2023-09-13T15:49:02.195Z,,0,1,,8993.492999713897,response,ISIC_0000295.JPG,5,ISIC_8173531.JPG,ISIC_8173531.JPG,false,0,keypress(z),500,140691.40000009537,140691.2999997139,131681.172,131697.2999997139,131697.807,140698.689,8,400,14,,ISIC_0000295.JPG
break,html.Screen,4_13_1,2023-09-13T15:49:02.196Z,,0,,,NaN,,,,,,false,,,,140691.90000009537,140691.69999980927,,140691.5,,140698.689,8,400,,,
break_continue,html.Screen,4_13_2,2023-09-13T15:49:02.196Z,,0,,,NaN,,,,,,false,,,,140692,140692,,140691.90000009537,,140698.689,8,400,,,
sequence,flow.Sequence,4_13,2023-09-13T15:49:02.196Z,,0,,,8994.193,completion,,,,,false,,,,140692.09999990463,140692,131681.172,131697.2999997139,131697.807,140698.689,8,400,,,
trial,html.Screen,4_14_0,2023-09-13T15:49:07.495Z,,0,1,,5291.9109999046195,response,ISIC_1440377.JPG,5,ISIC_0011884.JPG,ISIC_1440377.JPG,false,1,keypress(m),500,145990.69999980927,145990.59999990463,140681.977,140692.09999990463,140698.689,145992.293,8,400,15,,ISIC_0011884.JPG
break,html.Screen,4_14_1,2023-09-13T15:49:07.495Z,,0,,,NaN,,,,,,false,,,,145991.09999990463,145991,,145990.7999997139,,145992.293,8,400,,,
break_continue,html.Screen,4_14_2,2023-09-13T15:49:07.495Z,,0,,,NaN,,,,,,false,,,,145991.2999997139,145991.19999980927,,145991.19999980927,,145992.293,8,400,,,
sequence,flow.Sequence,4_14,2023-09-13T15:49:07.495Z,,0,,,5292.510999809252,completion,,,,,false,,,,145991.40000009537,145991.19999980927,140681.977,140692.09999990463,140698.689,145992.293,8,400,,,
trial,html.Screen,4_15_0,2023-09-13T15:49:14.505Z,,0,1,,7008.506999713893,response,ISIC_7526548.JPG,5,ISIC_9760652.JPG,ISIC_9760652.JPG,false,0,keypress(z),500,153000.90000009537,153000.7999997139,145975.61,145991.40000009537,145992.293,153006.013,8,400,16,,ISIC_7526548.JPG
break,html.Screen,4_15_1,2023-09-13T15:49:14.505Z,,0,,,NaN,,,,,,false,,,,153001.2999997139,153001.2999997139,,153001.09999990463,,153006.013,8,400,,,
break_continue,html.Screen,4_15_2,2023-09-13T15:49:14.506Z,,0,,,NaN,,,,,,false,,,,153001.59999990463,153001.5,,153001.5,,153006.013,8,400,,,
sequence,flow.Sequence,4_15,2023-09-13T15:49:14.506Z,,0,,,7009.206999999995,completion,,,,,false,,,,153001.69999980927,153001.5,145975.61,145991.40000009537,145992.293,153006.013,8,400,,,
trial,html.Screen,4_16_0,2023-09-13T15:49:20.495Z,,0,1,,5984.986999999994,response,ISIC_0060827.JPG,5,ISIC_0000314.JPG,ISIC_0000314.JPG,false,0,keypress(z),500,158991.19999980927,158991,152989.261,153001.69999980927,153006.013,159000.982,8,400,17,,ISIC_0060827.JPG
break,html.Screen,4_16_1,2023-09-13T15:49:20.496Z,,0,,,NaN,,,,,,false,,,,158991.69999980927,158991.59999990463,,158991.2999997139,,159000.982,8,400,,,
break_continue,html.Screen,4_16_2,2023-09-13T15:49:20.496Z,,0,,,NaN,,,,,,false,,,,158991.90000009537,158991.7999997139,,158991.7999997139,,159000.982,8,400,,,
sequence,flow.Sequence,4_16,2023-09-13T15:49:20.496Z,,0,,,5985.786999713891,completion,,,,,false,,,,158992,158991.7999997139,152989.261,153001.69999980927,153006.013,159000.982,8,400,,,
trial,html.Screen,4_17_0,2023-09-13T15:49:25.794Z,,0,1,,5288.918000095378,response,ISIC_1848300.JPG,5,ISIC_0059440.JPG,ISIC_1848300.JPG,false,1,keypress(m),500,164290.09999990463,164289.90000009537,158984.306,158992.09999990463,159000.982,164294.573,8,400,18,,ISIC_0059440.JPG
break,html.Screen,4_17_1,2023-09-13T15:49:25.795Z,,0,,,NaN,,,,,,false,,,,164290.59999990463,164290.5,,164290.19999980927,,164294.573,8,400,,,
break_continue,html.Screen,4_17_2,2023-09-13T15:49:25.795Z,,0,,,NaN,,,,,,false,,,,164291.09999990463,164290.90000009537,,164290.69999980927,,164294.573,8,400,,,
sequence,flow.Sequence,4_17,2023-09-13T15:49:25.795Z,,0,,,5289.918000095378,completion,,,,,false,,,,164291.19999980927,164290.90000009537,158984.306,158992,159000.982,164294.573,8,400,,,
trial,html.Screen,4_18_0,2023-09-13T15:49:31.877Z,,0,1,,6077.8270000953635,response,ISIC_0027769.JPG,5,ISIC_0030219.JPG,ISIC_0027769.JPG,false,1,keypress(m),500,170372.59999990463,170372.40000009537,164277.987,164291.2999997139,164294.573,170389.853,8,400,19,,ISIC_0030219.JPG
break,html.Screen,4_18_1,2023-09-13T15:49:31.878Z,,0,,,NaN,,,,,,false,,,,170373.69999980927,170373.40000009537,,170372.90000009537,,170389.853,8,400,,,
break_continue,html.Screen,4_18_2,2023-09-13T15:49:31.878Z,,0,,,NaN,,,,,,false,,,,170374.19999980927,170374,,170373.90000009537,,170389.853,8,400,,,
sequence,flow.Sequence,4_18,2023-09-13T15:49:31.878Z,,0,,,6079.426999999996,completion,,,,,false,,,,170374.19999980927,170374,164277.987,164291.19999980927,164294.573,170389.853,8,400,,,
trial,html.Screen,4_19_0,2023-09-13T15:49:38.124Z,,0,1,,6230.146999999997,response,ISIC_1115013.JPG,5,ISIC_0063243.JPG,ISIC_1115013.JPG,false,1,keypress(m),500,176620.19999980927,176620,170373.185,170374.40000009537,170389.853,176635.306,8,400,20,,ISIC_0063243.JPG
break,html.Screen,4_19_1,2023-09-13T15:49:38.124Z,,0,,,NaN,,,,,,false,,,,176620.5,176620.40000009537,,176620.19999980927,,176635.306,8,400,,,
break_continue,html.Screen,4_19_2,2023-09-13T15:49:38.125Z,,0,,,NaN,,,,,,false,,,,176620.69999980927,176620.69999980927,,176620.59999990463,,176635.306,8,400,,,
sequence,flow.Sequence,4_19,2023-09-13T15:49:38.125Z,,0,,,6230.846999809262,completion,,,,,false,,,,176620.7999997139,176620.69999980927,170373.185,170374.40000009537,170389.853,176635.306,8,400,,,
trial,html.Screen,4_20_0,2023-09-13T15:49:44.576Z,,0,1,,6435.193999999989,response,ISIC_9780632.JPG,5,ISIC_0783513.JPG,ISIC_0783513.JPG,false,0,keypress(z),500,183070.59999990463,183070.5,176618.57,176620.7999997139,176635.306,183081.165,8,400,21,,ISIC_9780632.JPG
break,html.Screen,4_20_1,2023-09-13T15:49:44.576Z,,0,,,NaN,,,,,,false,,,,183071,183070.90000009537,,183070.69999980927,,183081.165,8,400,,,
break_continue,html.Screen,4_20_2,2023-09-13T15:49:44.577Z,,0,,,NaN,,,,,,false,,,,183071.09999990463,183071.09999990463,,183071.09999990463,,183081.165,8,400,,,
sequence,flow.Sequence,4_20,2023-09-13T15:49:44.577Z,,0,,,6435.793999904621,completion,,,,,false,,,,183071.19999980927,183071.09999990463,176618.57,176620.7999997139,176635.306,183081.165,8,400,,,
trial,html.Screen,4_21_0,2023-09-13T15:49:50.659Z,,0,1,,6072.235000095359,response,ISIC_9906378.JPG,6,ISIC_0016014.JPG,ISIC_9906378.JPG,false,1,keypress(m),500,189153.5,189153.40000009537,183064.636,183071.2999997139,183081.165,189159.819,8,400,22,,ISIC_0016014.JPG
break,html.Screen,4_21_1,2023-09-13T15:49:50.660Z,,0,,,NaN,,,,,,false,,,,189154.09999990463,189153.90000009537,,189153.69999980927,,189159.819,8,400,,,
break_continue,html.Screen,4_21_2,2023-09-13T15:49:50.660Z,,0,,,NaN,,,,,,false,,,,189154.40000009537,189154.2999997139,,189154.19999980927,,189159.819,8,400,,,
sequence,flow.Sequence,4_21,2023-09-13T15:49:50.660Z,,0,,,6073.13499971389,completion,,,,,false,,,,189154.59999990463,189154.2999997139,183064.636,183071.2999997139,183081.165,189159.819,8,400,,,
trial,html.Screen,4_22_0,2023-09-13T15:49:57.222Z,,0,1,,6556.581000095379,response,ISIC_0000042.JPG,5,ISIC_0025242.JPG,ISIC_0025242.JPG,false,0,keypress(z),500,195716.40000009537,195716.40000009537,189143.033,189154.59999990463,189159.819,195722.449,8,400,23,,ISIC_0000042.JPG
break,html.Screen,4_22_1,2023-09-13T15:49:57.222Z,,0,,,NaN,,,,,,false,,,,195716.90000009537,195716.7999997139,,195716.59999990463,,195722.449,8,400,,,
break_continue,html.Screen,4_22_2,2023-09-13T15:49:57.223Z,,0,,,NaN,,,,,,false,,,,195717.09999990463,195717.09999990463,,195717,,195722.449,8,400,,,
sequence,flow.Sequence,4_22,2023-09-13T15:49:57.223Z,,0,,,6557.280999904644,completion,,,,,false,,,,195717.2999997139,195717.09999990463,189143.033,189154.59999990463,189159.819,195722.449,8,400,,,
trial,html.Screen,4_23_0,2023-09-13T15:50:03.368Z,,0,1,,6139.8509997139045,response,ISIC_3159924.JPG,6,ISIC_0010379.JPG,ISIC_3159924.JPG,false,1,keypress(m),500,201862.2999997139,201862.2999997139,195705.753,195717.2999997139,195722.449,201867.743,8,400,24,,ISIC_0010379.JPG
break,html.Screen,4_23_1,2023-09-13T15:50:03.368Z,,0,,,NaN,,,,,,false,,,,201862.7999997139,201862.69999980927,,201862.40000009537,,201867.743,8,400,,,
break_continue,html.Screen,4_23_2,2023-09-13T15:50:03.368Z,,0,,,NaN,,,,,,false,,,,201863,201862.90000009537,,201862.90000009537,,201867.743,8,400,,,
sequence,flow.Sequence,4_23,2023-09-13T15:50:03.368Z,,0,,,6140.451000095374,completion,,,,,false,,,,201863,201862.90000009537,195705.753,195717.2999997139,195722.449,201867.743,8,400,,,
trial,html.Screen,4_24_0,2023-09-13T15:50:09.402Z,,0,1,,6028.55699971391,response,ISIC_1312827.JPG,5,ISIC_0292775.JPG,ISIC_0292775.JPG,false,0,keypress(z),500,207896.5,207896.2999997139,201851.053,201863.09999990463,201867.743,207912.82,8,400,25,,ISIC_1312827.JPG
break,html.Screen,4_24_1,2023-09-13T15:50:09.403Z,,0,,,NaN,,,,,,false,,,,207897.2999997139,207897.09999990463,,207896.69999980927,,207912.82,8,400,,,
break_continue,html.Screen,4_24_2,2023-09-13T15:50:09.403Z,,0,,,NaN,,,,,,false,,,,207897.5,207897.5,,207897.40000009537,,207912.82,8,400,,,
sequence,flow.Sequence,4_24,2023-09-13T15:50:09.403Z,,0,,,6029.757000000012,completion,,,,,false,,,,207897.69999980927,207897.5,201851.053,201863.09999990463,201867.743,207912.82,8,400,,,
trial,html.Screen,4_25_0,2023-09-13T15:50:14.381Z,,0,1,,4962.58000009536,response,ISIC_0056413.JPG,4,ISIC_3994656.JPG,ISIC_3994656.JPG,false,0,keypress(z),500,212875.5,212875.40000009537,207896.2,207897.69999980927,207912.82,212889.315,8,400,26,,ISIC_0056413.JPG
break,html.Screen,4_25_1,2023-09-13T15:50:14.382Z,,0,,,NaN,,,,,,false,,,,212876.5,212876.09999990463,,212875.69999980927,,212889.315,8,400,,,
break_continue,html.Screen,4_25_2,2023-09-13T15:50:14.382Z,,0,,,NaN,,,,,,false,,,,212876.69999980927,212876.69999980927,,212876.5,,212889.315,8,400,,,
sequence,flow.Sequence,4_25,2023-09-13T15:50:14.382Z,,0,,,4963.879999809258,completion,,,,,false,,,,212877,212876.69999980927,207896.2,207897.69999980927,207912.82,212889.315,8,400,,,
trial,html.Screen,4_26_0,2023-09-13T15:50:21.620Z,,0,1,,7225.28499990463,response,ISIC_0030366.JPG,4,ISIC_6274085.JPG,ISIC_6274085.JPG,false,0,keypress(z),500,220114.69999980927,220114.59999990463,212872.571,212877.5,212889.315,220119.901,8,400,27,,ISIC_0030366.JPG
break,html.Screen,4_26_1,2023-09-13T15:50:21.621Z,,0,,,NaN,,,,,,false,,,,220115.2999997139,220115.19999980927,,220114.7999997139,,220119.901,8,400,,,
break_continue,html.Screen,4_26_2,2023-09-13T15:50:21.621Z,,0,,,NaN,,,,,,false,,,,220115.59999990463,220115.5,,220115.40000009537,,220119.901,8,400,,,
sequence,flow.Sequence,4_26,2023-09-13T15:50:21.621Z,,0,,,7226.184999999998,completion,,,,,false,,,,220115.69999980927,220115.5,212872.571,212877.40000009537,212889.315,220119.901,8,400,,,
trial,html.Screen,4_27_0,2023-09-13T15:50:26.664Z,,0,1,,5038.19899990462,response,ISIC_7223327.JPG,4,ISIC_0058138.JPG,ISIC_7223327.JPG,false,1,keypress(m),500,225158.59999990463,225158.09999990463,220103.393,220115.7999997139,220119.901,225163.186,8,400,28,,ISIC_0058138.JPG
break,html.Screen,4_27_1,2023-09-13T15:50:26.666Z,,0,,,NaN,,,,,,false,,,,225160.40000009537,225159.7999997139,,225159.09999990463,,225163.186,8,400,,,
break_continue,html.Screen,4_27_2,2023-09-13T15:50:26.667Z,,0,,,NaN,,,,,,false,,,,225161.19999980927,225161,,225160.59999990463,,225163.186,8,400,,,
sequence,flow.Sequence,4_27,2023-09-13T15:50:26.667Z,,0,,,5041.098999999987,completion,,,,,false,,,,225161.59999990463,225161,220103.393,220115.69999980927,220119.901,225163.186,8,400,,,
trial,html.Screen,4_28_0,2023-09-13T15:50:31.966Z,,0,1,,5297.2140000953805,response,ISIC_0066213.JPG,6,ISIC_0010393.JPG,ISIC_0066213.JPG,false,1,keypress(m),500,230460.69999980927,230460.40000009537,225146.342,225161.7999997139,225163.186,230473.632,8,400,29,,ISIC_0010393.JPG
break,html.Screen,4_28_1,2023-09-13T15:50:31.967Z,,0,,,NaN,,,,,,false,,,,230461.59999990463,230461.2999997139,,230460.90000009537,,230473.632,8,400,,,
break_continue,html.Screen,4_28_2,2023-09-13T15:50:31.967Z,,0,,,NaN,,,,,,false,,,,230462,230461.7999997139,,230461.59999990463,,230473.632,8,400,,,
sequence,flow.Sequence,4_28,2023-09-13T15:50:31.968Z,,0,,,5298.613999713911,completion,,,,,false,,,,230462.09999990463,230461.7999997139,225146.342,225161.69999980927,225163.186,230473.632,8,400,,,
trial,html.Screen,4_29_0,2023-09-13T15:50:36.229Z,,0,1,,4249.96799990462,response,ISIC_0057949.JPG,5,ISIC_1211506.JPG,ISIC_1211506.JPG,false,0,keypress(z),500,234723.69999980927,234723.59999990463,230456.727,230462.19999980927,230473.632,234731.649,8,400,30,,ISIC_0057949.JPG
break,html.Screen,4_29_1,2023-09-13T15:50:36.229Z,,0,,,NaN,,,,,,false,,,,234724.09999990463,234724,,234723.7999997139,,234731.649,8,400,,,
break_continue,html.Screen,4_29_2,2023-09-13T15:50:36.230Z,,0,,,NaN,,,,,,false,,,,234724.2999997139,234724.2999997139,,234724.09999990463,,234731.649,8,400,,,
sequence,flow.Sequence,4_29,2023-09-13T15:50:36.230Z,,0,,,4250.667999713885,completion,,,,,false,,,,234724.40000009537,234724.2999997139,230456.727,230462.19999980927,230473.632,234731.649,8,400,,,
trial,html.Screen,4_30_0,2023-09-13T15:50:41.405Z,,0,1,,5166.450999904628,response,ISIC_5568834.JPG,5,ISIC_0053810.JPG,ISIC_5568834.JPG,false,1,keypress(m),500,239898.2999997139,239898.09999990463,234715.06,234724.40000009537,234731.649,239908.415,8,400,31,,ISIC_0053810.JPG
break,html.Screen,4_30_1,2023-09-13T15:50:41.406Z,,0,,,NaN,,,,,,false,,,,239899.09999990463,239898.7999997139,,239898.5,,239908.415,8,400,,,
break_continue,html.Screen,4_30_2,2023-09-13T15:50:41.407Z,,0,,,NaN,,,,,,false,,,,239899.5,239899.40000009537,,239899.19999980927,,239908.415,8,400,,,
sequence,flow.Sequence,4_30,2023-09-13T15:50:41.407Z,,0,,,5167.7510000953625,completion,,,,,false,,,,239899.59999990463,239899.40000009537,234715.06,234724.40000009537,234731.649,239908.415,8,400,,,
trial,html.Screen,4_31_0,2023-09-13T15:50:46.945Z,,0,1,,5528.985000095359,response,ISIC_0027838.JPG,6,ISIC_0011268.JPG,ISIC_0011268.JPG,false,0,keypress(z),500,245437.5,245437.40000009537,239891.733,239899.69999980927,239908.415,245452.697,8,400,32,,ISIC_0027838.JPG
break,html.Screen,4_31_1,2023-09-13T15:50:46.945Z,,0,,,NaN,,,,,,false,,,,245438,245437.90000009537,,245437.59999990463,,245452.697,8,400,,,
break_continue,html.Screen,4_31_2,2023-09-13T15:50:46.945Z,,0,,,NaN,,,,,,false,,,,245438.09999990463,245438.09999990463,,245438,,245452.697,8,400,,,
sequence,flow.Sequence,4_31,2023-09-13T15:50:46.945Z,,0,,,5529.684999904624,completion,,,,,false,,,,245438.2999997139,245438.09999990463,239891.733,239899.59999990463,239908.415,245452.697,8,400,,,
trial,html.Screen,4_32_0,2023-09-13T15:50:52.596Z,,0,1,,5636.00299980928,response,ISIC_2466892.JPG,5,ISIC_0062740.JPG,ISIC_2466892.JPG,false,1,keypress(m),500,251088.7999997139,251088.69999980927,245435.979,245438.40000009537,245452.697,251096.868,8,400,33,,ISIC_0062740.JPG
break,html.Screen,4_32_1,2023-09-13T15:50:52.596Z,,0,,,NaN,,,,,,false,,,,251089.2999997139,251089.2999997139,,251089,,251096.868,8,400,,,
break_continue,html.Screen,4_32_2,2023-09-13T15:50:52.597Z,,0,,,NaN,,,,,,false,,,,251089.59999990463,251089.5,,251089.5,,251096.868,8,400,,,
sequence,flow.Sequence,4_32,2023-09-13T15:50:52.597Z,,0,,,5636.803000000014,completion,,,,,false,,,,251089.69999980927,251089.5,245435.979,245438.2999997139,245452.697,251096.868,8,400,,,
trial,html.Screen,4_33_0,2023-09-13T15:50:59.979Z,,0,1,,7374.632000000012,response,ISIC_0034048.JPG,5,ISIC_0009903.JPG,ISIC_0009903.JPG,false,0,keypress(z),500,258471.90000009537,258471.5,251080.26,251089.7999997139,251096.868,258477.956,8,400,34,,ISIC_0034048.JPG
break,html.Screen,4_33_1,2023-09-13T15:50:59.981Z,,0,,,NaN,,,,,,false,,,,258473.59999990463,258473,,258472.40000009537,,258477.956,8,400,,,
break_continue,html.Screen,4_33_2,2023-09-13T15:50:59.981Z,,0,,,NaN,,,,,,false,,,,258474.40000009537,258474.19999980927,,258473.7999997139,,258477.956,8,400,,,
sequence,flow.Sequence,4_33,2023-09-13T15:50:59.982Z,,0,,,7377.3319998092775,completion,,,,,false,,,,258474.7999997139,258474.19999980927,251080.26,251089.7999997139,251096.868,258477.956,8,400,,,
trial,html.Screen,4_34_0,2023-09-13T15:51:07.041Z,,0,1,,7055.843999713892,response,ISIC_8655206.JPG,5,ISIC_5926550.JPG,ISIC_8655206.JPG,false,1,keypress(m),500,265533.90000009537,265533.7999997139,258461.193,258475,258477.956,265541.668,8,400,35,,ISIC_5926550.JPG
break,html.Screen,4_34_1,2023-09-13T15:51:07.042Z,,0,,,NaN,,,,,,false,,,,265534.5,265534.2999997139,,265534.09999990463,,265541.668,8,400,,,
break_continue,html.Screen,4_34_2,2023-09-13T15:51:07.042Z,,0,,,NaN,,,,,,false,,,,265534.90000009537,265534.90000009537,,265534.69999980927,,265541.668,8,400,,,
sequence,flow.Sequence,4_34,2023-09-13T15:51:07.042Z,,0,,,7056.944000095362,completion,,,,,false,,,,265534.90000009537,265534.90000009537,258461.193,258475,258477.956,265541.668,8,400,,,
trial,html.Screen,4_35_0,2023-09-13T15:51:11.107Z,,0,1,,4058.4319999046274,response,ISIC_0028081.JPG,6,ISIC_0028945.JPG,ISIC_0028945.JPG,false,0,keypress(z),500,269600.2999997139,269600.09999990463,265525.037,265535,265541.668,269616.206,8,400,36,,ISIC_0028081.JPG
break,html.Screen,4_35_1,2023-09-13T15:51:11.108Z,,0,,,NaN,,,,,,false,,,,269600.7999997139,269600.59999990463,,269600.2999997139,,269616.206,8,400,,,
break_continue,html.Screen,4_35_2,2023-09-13T15:51:11.108Z,,0,,,NaN,,,,,,false,,,,269601,269601,,269600.90000009537,,269616.206,8,400,,,
sequence,flow.Sequence,4_35,2023-09-13T15:51:11.108Z,,0,,,4059.331999999995,completion,,,,,false,,,,269601.09999990463,269601,265525.037,265534.90000009537,265541.668,269616.206,8,400,,,
trial,html.Screen,4_36_0,2023-09-13T15:51:18.470Z,,0,1,,7346.593999713892,response,ISIC_0015938.JPG,6,ISIC_0027718.JPG,ISIC_0015938.JPG,false,1,keypress(m),500,276962.90000009537,276962.7999997139,269599.556,269601.19999980927,269616.206,276963.87,8,400,37,,ISIC_0027718.JPG
break,html.Screen,4_36_1,2023-09-13T15:51:18.471Z,,0,,,NaN,,,,,,false,,,,276963.5,276963.40000009537,,276963,,276963.87,8,400,,,
break_continue,html.Screen,4_36_2,2023-09-13T15:51:18.471Z,,0,,,NaN,,,,,,false,,,,276963.7999997139,276963.69999980927,,276963.59999990463,,276963.87,8,400,,,
sequence,flow.Sequence,4_36,2023-09-13T15:51:18.471Z,,0,,,7347.49399980926,completion,,,,,false,,,,276964,276963.69999980927,269599.556,269601.09999990463,269616.206,276963.87,8,400,,,
trial,html.Screen,4_37_0,2023-09-13T15:51:24.425Z,,0,1,,5953.630000000005,response,ISIC_0061884.JPG,6,ISIC_2652721.JPG,ISIC_2652721.JPG,false,0,keypress(z),500,282917.59999990463,282917.5,276947.255,276964,276963.87,282925.476,8,400,38,,ISIC_0061884.JPG
break,html.Screen,4_37_1,2023-09-13T15:51:24.425Z,,0,,,NaN,,,,,,false,,,,282918,282917.90000009537,,282917.69999980927,,282925.476,8,400,,,
break_continue,html.Screen,4_37_2,2023-09-13T15:51:24.425Z,,0,,,NaN,,,,,,false,,,,282918.2999997139,282918.19999980927,,282918.09999990463,,282925.476,8,400,,,
sequence,flow.Sequence,4_37,2023-09-13T15:51:24.425Z,,0,,,5954.32999980927,completion,,,,,false,,,,282918.40000009537,282918.19999980927,276947.255,276964,276963.87,282925.476,8,400,,,
trial,html.Screen,4_38_0,2023-09-13T15:51:29.851Z,,0,1,,5418.523999999976,response,ISIC_7129085.JPG,5,ISIC_0013766.JPG,ISIC_0013766.JPG,false,0,keypress(z),500,288344.09999990463,288344,282908.804,282918.40000009537,282925.476,288352.746,8,400,39,,ISIC_7129085.JPG
break,html.Screen,4_38_1,2023-09-13T15:51:29.852Z,,0,,,NaN,,,,,,false,,,,288344.7999997139,288344.59999990463,,288344.2999997139,,288352.746,8,400,,,
break_continue,html.Screen,4_38_2,2023-09-13T15:51:29.852Z,,0,,,NaN,,,,,,false,,,,288345.09999990463,288345.09999990463,,288345,,288352.746,8,400,,,
sequence,flow.Sequence,4_38,2023-09-13T15:51:29.852Z,,0,,,5419.623999904608,completion,,,,,false,,,,288345.2999997139,288345.09999990463,282908.804,282918.40000009537,282925.476,288352.746,8,400,,,
trial,html.Screen,4_39_0,2023-09-13T15:51:34.639Z,,0,1,,4778.553999713913,response,ISIC_9513918.JPG,5,ISIC_0033696.JPG,ISIC_0033696.JPG,false,0,keypress(z),500,293131.5,293131.2999997139,288335.998,288345.40000009537,288352.746,293145.315,8,400,40,,ISIC_9513918.JPG
break,html.Screen,4_39_1,2023-09-13T15:51:34.639Z,,0,,,NaN,,,,,,false,,,,293132.40000009537,293132.09999990463,,293131.69999980927,,293145.315,8,400,,,
break_continue,html.Screen,4_39_2,2023-09-13T15:51:34.640Z,,0,,,NaN,,,,,,false,,,,293132.7999997139,293132.69999980927,,293132.5,,293145.315,8,400,,,
sequence,flow.Sequence,4_39,2023-09-13T15:51:34.640Z,,0,,,4779.9539998092805,completion,,,,,false,,,,293132.90000009537,293132.69999980927,288335.998,288345.2999997139,288352.746,293145.315,8,400,,,
trial,html.Screen,4_40_0,2023-09-13T15:51:41.059Z,,0,1,,6405.484999713895,response,ISIC_3993924.JPG,6,ISIC_0025085.JPG,ISIC_0025085.JPG,false,0,keypress(z),500,299551,299550.7999997139,293128.877,293133.09999990463,293145.315,299557.855,8,400,41,,ISIC_3993924.JPG
break,html.Screen,4_40_1,2023-09-13T15:51:41.059Z,,0,,,NaN,,,,,,false,,,,299551.40000009537,299551.2999997139,,299551.09999990463,,299557.855,8,400,,,
break_continue,html.Screen,4_40_2,2023-09-13T15:51:41.059Z,,0,,,NaN,,,,,,false,,,,299551.59999990463,299551.59999990463,,299551.40000009537,,299557.855,8,400,,,
sequence,flow.Sequence,4_40,2023-09-13T15:51:41.059Z,,0,,,6406.28499990463,completion,,,,,false,,,,299551.59999990463,299551.59999990463,293128.877,293133,293145.315,299557.855,8,400,,,
trial,html.Screen,4_41_0,2023-09-13T15:51:46.901Z,,0,1,,5835.545000095386,response,ISIC_6201199.JPG,4,ISIC_1002979.JPG,ISIC_1002979.JPG,false,0,keypress(z),500,305393.69999980927,305393.40000009537,299541.159,299551.69999980927,299557.855,305402.558,8,400,42,,ISIC_6201199.JPG
break,html.Screen,4_41_1,2023-09-13T15:51:46.902Z,,0,,,NaN,,,,,,false,,,,305394.40000009537,305394.19999980927,,305393.7999997139,,305402.558,8,400,,,
break_continue,html.Screen,4_41_2,2023-09-13T15:51:46.903Z,,0,,,NaN,,,,,,false,,,,305394.7999997139,305394.7999997139,,305394.5,,305402.558,8,400,,,
sequence,flow.Sequence,4_41,2023-09-13T15:51:46.903Z,,0,,,5836.944999713916,completion,,,,,false,,,,305395,305394.7999997139,299541.159,299551.69999980927,299557.855,305402.558,8,400,,,
trial,html.Screen,4_42_0,2023-09-13T15:51:51.804Z,,0,1,,4893.141999809246,response,ISIC_8535451.JPG,5,ISIC_7096389.JPG,ISIC_8535451.JPG,false,1,keypress(m),500,310295.90000009537,310295.69999980927,305385.855,305395.09999990463,305402.558,310328.843,8,400,43,,ISIC_7096389.JPG
break,html.Screen,4_42_1,2023-09-13T15:51:51.804Z,,0,,,NaN,,,,,,false,,,,310296.69999980927,310296.5,,310296.09999990463,,310328.843,8,400,,,
break_continue,html.Screen,4_42_2,2023-09-13T15:51:51.805Z,,0,,,NaN,,,,,,false,,,,310297.09999990463,310297,,310296.90000009537,,310328.843,8,400,,,
sequence,flow.Sequence,4_42,2023-09-13T15:51:51.805Z,,0,,,4894.441999999981,completion,,,,,false,,,,310297.2999997139,310297,305385.855,305395.09999990463,305402.558,310328.843,8,400,,,
trial,html.Screen,4_43_0,2023-09-13T15:51:57.311Z,,0,1,,5474.557000095374,response,ISIC_3031937.JPG,5,ISIC_7513677.JPG,ISIC_3031937.JPG,false,1,keypress(m),500,315803.59999990463,315803.40000009537,310312.164,310297.5,310328.843,315806.119,8,400,44,,ISIC_7513677.JPG
break,html.Screen,4_43_1,2023-09-13T15:51:57.312Z,,0,,,NaN,,,,,,false,,,,315804,315803.90000009537,,315803.69999980927,,315806.119,8,400,,,
break_continue,html.Screen,4_43_2,2023-09-13T15:51:57.312Z,,0,,,NaN,,,,,,false,,,,315804.19999980927,315804.19999980927,,315804.09999990463,,315806.119,8,400,,,
sequence,flow.Sequence,4_43,2023-09-13T15:51:57.312Z,,0,,,5475.356999809272,completion,,,,,false,,,,315804.2999997139,315804.19999980927,310312.164,310297.40000009537,310328.843,315806.119,8,400,,,
trial,html.Screen,4_44_0,2023-09-13T15:52:01.474Z,,0,1,,4159.9809999046265,response,ISIC_5392118.JPG,6,ISIC_7101810.JPG,ISIC_5392118.JPG,false,1,keypress(m),500,319966.2999997139,319966.09999990463,315789.533,315804.2999997139,315806.119,319981.021,8,400,45,,ISIC_7101810.JPG
break,html.Screen,4_44_1,2023-09-13T15:52:01.475Z,,0,,,NaN,,,,,,false,,,,319966.7999997139,319966.69999980927,,319966.40000009537,,319981.021,8,400,,,
break_continue,html.Screen,4_44_2,2023-09-13T15:52:01.475Z,,0,,,NaN,,,,,,false,,,,319967.09999990463,319967.09999990463,,319967,,319981.021,8,400,,,
sequence,flow.Sequence,4_44,2023-09-13T15:52:01.475Z,,0,,,4160.9809999046265,completion,,,,,false,,,,319967.2999997139,319967.09999990463,315789.533,315804.2999997139,315806.119,319981.021,8,400,,,
trial,html.Screen,4_45_0,2023-09-13T15:52:05.957Z,,0,1,,4467.678999809257,response,ISIC_0015005.JPG,5,ISIC_7543736.JPG,ISIC_7543736.JPG,false,0,keypress(z),500,324448.7999997139,324448.69999980927,319964.225,319967.40000009537,319981.021,324456.318,8,400,46,,ISIC_0015005.JPG
break,html.Screen,4_45_1,2023-09-13T15:52:05.957Z,,0,,,NaN,,,,,,false,,,,324449.40000009537,324449.19999980927,,324449,,324456.318,8,400,,,
break_continue,html.Screen,4_45_2,2023-09-13T15:52:05.957Z,,0,,,NaN,,,,,,false,,,,324449.7999997139,324449.59999990463,,324449.5,,324456.318,8,400,,,
sequence,flow.Sequence,4_45,2023-09-13T15:52:05.958Z,,0,,,4468.578999904625,completion,,,,,false,,,,324449.90000009537,324449.59999990463,319964.225,319967.2999997139,319981.021,324456.318,8,400,,,
trial,html.Screen,4_46_0,2023-09-13T15:52:12.631Z,,0,1,,6666.681999999972,response,ISIC_8551124.JPG,5,ISIC_5583159.JPG,ISIC_5583159.JPG,false,0,keypress(z),500,331123.19999980927,331123,324439.587,324449.90000009537,324456.318,331135.933,8,400,47,,ISIC_8551124.JPG
break,html.Screen,4_46_1,2023-09-13T15:52:12.632Z,,0,,,NaN,,,,,,false,,,,331124.2999997139,331124.09999990463,,331123.5,,331135.933,8,400,,,
break_continue,html.Screen,4_46_2,2023-09-13T15:52:12.632Z,,0,,,NaN,,,,,,false,,,,331124.59999990463,331124.5,,331124.40000009537,,331135.933,8,400,,,
sequence,flow.Sequence,4_46,2023-09-13T15:52:12.633Z,,0,,,6668.181999999972,completion,,,,,false,,,,331124.90000009537,331124.5,324439.587,324449.90000009537,324456.318,331135.933,8,400,,,
trial,html.Screen,4_47_0,2023-09-13T15:52:19.390Z,,0,1,,6746.366999713879,response,ISIC_0031293.JPG,6,ISIC_0024961.JPG,ISIC_0031293.JPG,false,1,keypress(m),500,337882.40000009537,337882.2999997139,331119.221,331125,331135.933,337899.051,8,400,48,,ISIC_0024961.JPG
break,html.Screen,4_47_1,2023-09-13T15:52:19.391Z,,0,,,NaN,,,,,,false,,,,337883.09999990463,337882.7999997139,,337882.5,,337899.051,8,400,,,
break_continue,html.Screen,4_47_2,2023-09-13T15:52:19.391Z,,0,,,NaN,,,,,,false,,,,337883.19999980927,337883.19999980927,,337883.09999990463,,337899.051,8,400,,,
sequence,flow.Sequence,4_47,2023-09-13T15:52:19.391Z,,0,,,6747.266999809246,completion,,,,,false,,,,337883.19999980927,337883.19999980927,331119.221,331125,331135.933,337899.051,8,400,,,
trial,html.Screen,4_48_0,2023-09-13T15:52:25.509Z,,0,1,,6102.1489998092875,response,ISIC_8901133.JPG,6,ISIC_0065360.JPG,ISIC_8901133.JPG,false,1,keypress(m),500,344001.2999997139,344001.19999980927,337882.733,337883.40000009537,337899.051,344011.149,8,400,49,,ISIC_0065360.JPG
break,html.Screen,4_48_1,2023-09-13T15:52:25.509Z,,0,,,NaN,,,,,,false,,,,344001.69999980927,344001.59999990463,,344001.40000009537,,344011.149,8,400,,,
break_continue,html.Screen,4_48_2,2023-09-13T15:52:25.510Z,,0,,,NaN,,,,,,false,,,,344001.7999997139,344001.7999997139,,344001.69999980927,,344011.149,8,400,,,
sequence,flow.Sequence,4_48,2023-09-13T15:52:25.510Z,,0,,,6102.74899971392,completion,,,,,false,,,,344002,344001.7999997139,337882.733,337883.40000009537,337899.051,344011.149,8,400,,,
trial,html.Screen,4_49_0,2023-09-13T15:52:30.856Z,,0,1,,5336.950999904657,response,ISIC_8040024.JPG,6,ISIC_2146346.JPG,ISIC_2146346.JPG,false,0,keypress(z),500,349348.2999997139,349348.09999990463,343994.413,344002,344011.149,349371.538,8,400,50,,ISIC_8040024.JPG
break,html.Screen,4_49_1,2023-09-13T15:52:40.868Z,,0,,,10002.824000000022,timeout,,,,,false,,,,359358.7999997139,359357.707,349354.826,349348.5,349371.538,359374.362,8,400,,,
break_continue,html.Screen,4_49_2,2023-09-13T15:54:46.232Z,,0,,,125331.63799999998,response,,,,,false,continue,keypress(Space),,484720.09999990463,484706,359357.707,359359,359374.362,484734.844,8,400,,,
sequence,flow.Sequence,4_49,2023-09-13T15:54:46.232Z,,0,,,140694.85100000002,completion,,,,,false,,,,484720.09999990463,484706,343994.413,344002,344011.149,484734.844,8,400,,,
trial,html.Screen,4_50_0,2023-09-13T15:54:51.851Z,,0,2,,5603.556000095385,response,ISIC_0032017.JPG,5,ISIC_0058753.JPG,ISIC_0058753.JPG,false,0,keypress(z),500,490339.69999980927,490338.40000009537,484718.159,484720.19999980927,484734.844,490362.512,8,400,1,,ISIC_0032017.JPG
break,html.Screen,4_50_1,2023-09-13T15:54:51.854Z,,0,,,NaN,,,,,,false,,,,490342.09999990463,490341.5,,490340.40000009537,,490362.512,8,400,,,
break_continue,html.Screen,4_50_2,2023-09-13T15:54:51.856Z,,0,,,NaN,,,,,,false,,,,490344,490343.59999990463,,490342.5,,490362.512,8,400,,,
sequence,flow.Sequence,4_50,2023-09-13T15:54:51.856Z,,0,,,5608.75599990465,completion,,,,,false,,,,490344.2999997139,490343.59999990463,484718.159,484720.19999980927,484734.844,490362.512,8,400,,,
trial,html.Screen,4_51_0,2023-09-13T15:54:57.987Z,,0,2,,6112.587999904645,response,ISIC_0029898.JPG,5,ISIC_0010960.JPG,ISIC_0010960.JPG,false,0,keypress(z),500,496475.09999990463,496475.09999990463,490329.057,490344.59999990463,490362.512,496491.311,8,400,2,,ISIC_0029898.JPG
break,html.Screen,4_51_1,2023-09-13T15:54:57.987Z,,0,,,NaN,,,,,,false,,,,496475.69999980927,496475.59999990463,,496475.2999997139,,496491.311,8,400,,,
break_continue,html.Screen,4_51_2,2023-09-13T15:54:57.988Z,,0,,,NaN,,,,,,false,,,,496475.90000009537,496475.90000009537,,496475.7999997139,,496491.311,8,400,,,
sequence,flow.Sequence,4_51,2023-09-13T15:54:57.988Z,,0,,,6113.3880000953795,completion,,,,,false,,,,496476,496475.90000009537,490329.057,490344.59999990463,490362.512,496491.311,8,400,,,
trial,html.Screen,4_52_0,2023-09-13T15:55:03.996Z,,0,2,,5992.888999809278,response,ISIC_0062765.JPG,5,ISIC_0021713.JPG,ISIC_0062765.JPG,false,1,keypress(m),500,502484.40000009537,502484.19999980927,496474.557,496476.09999990463,496491.311,502486.042,8,400,3,,ISIC_0021713.JPG
break,html.Screen,4_52_1,2023-09-13T15:55:03.997Z,,0,,,NaN,,,,,,false,,,,502485,502484.90000009537,,502484.5,,502486.042,8,400,,,
break_continue,html.Screen,4_52_2,2023-09-13T15:55:03.997Z,,0,,,NaN,,,,,,false,,,,502485.40000009537,502485.2999997139,,502485.19999980927,,502486.042,8,400,,,
sequence,flow.Sequence,4_52,2023-09-13T15:55:03.997Z,,0,,,5993.988999713911,completion,,,,,false,,,,502485.59999990463,502485.2999997139,496474.557,496476.09999990463,496491.311,502486.042,8,400,,,
trial,html.Screen,4_53_0,2023-09-13T15:55:08.560Z,,0,2,,4562.557999904617,response,ISIC_0059041.JPG,5,ISIC_0000541.JPG,ISIC_0059041.JPG,false,1,keypress(m),500,507048.69999980927,507048.59999990463,502469.357,502485.59999990463,502486.042,507061.663,8,400,4,,ISIC_0000541.JPG
break,html.Screen,4_53_1,2023-09-13T15:55:08.561Z,,0,,,NaN,,,,,,false,,,,507049.40000009537,507049.19999980927,,507048.7999997139,,507061.663,8,400,,,
break_continue,html.Screen,4_53_2,2023-09-13T15:55:08.561Z,,0,,,NaN,,,,,,false,,,,507049.7999997139,507049.69999980927,,507049.5,,507061.663,8,400,,,
sequence,flow.Sequence,4_53,2023-09-13T15:55:08.562Z,,0,,,4563.657999809249,completion,,,,,false,,,,507049.90000009537,507049.69999980927,502469.357,502485.59999990463,502486.042,507061.663,8,400,,,
trial,html.Screen,4_54_0,2023-09-13T15:55:13.530Z,,0,2,,4954.136999713897,response,ISIC_0001681.JPG,5,ISIC_1280780.JPG,ISIC_0001681.JPG,false,1,keypress(m),500,512016,512015.7999997139,507044.956,507050,507061.663,512021.289,8,400,5,,ISIC_1280780.JPG
break,html.Screen,4_54_1,2023-09-13T15:55:13.531Z,,0,,,NaN,,,,,,false,,,,512016.90000009537,512016.5,,512016.09999990463,,512021.289,8,400,,,
break_continue,html.Screen,4_54_2,2023-09-13T15:55:13.531Z,,0,,,NaN,,,,,,false,,,,512017,512017,,512016.90000009537,,512021.289,8,400,,,
sequence,flow.Sequence,4_54,2023-09-13T15:55:13.531Z,,0,,,4955.3369999999995,completion,,,,,false,,,,512017.19999980927,512017,507044.956,507050,507061.663,512021.289,8,400,,,
trial,html.Screen,4_55_0,2023-09-13T15:55:18.781Z,,0,2,,5245.310999904643,response,ISIC_6556622.JPG,6,ISIC_0010768.JPG,ISIC_0010768.JPG,false,0,keypress(z),500,517266.7999997139,517266.59999990463,512004.577,512017.19999980927,512021.289,517281.503,8,400,6,,ISIC_6556622.JPG
break,html.Screen,4_55_1,2023-09-13T15:55:18.781Z,,0,,,NaN,,,,,,false,,,,517267.19999980927,517267.09999990463,,517266.90000009537,,517281.503,8,400,,,
break_continue,html.Screen,4_55_2,2023-09-13T15:55:18.781Z,,0,,,NaN,,,,,,false,,,,517267.5,517267.40000009537,,517267.2999997139,,517281.503,8,400,,,
sequence,flow.Sequence,4_55,2023-09-13T15:55:18.781Z,,0,,,5246.111000095378,completion,,,,,false,,,,517267.5,517267.40000009537,512004.577,512017.19999980927,512021.289,517281.503,8,400,,,
trial,html.Screen,4_56_0,2023-09-13T15:55:23.615Z,,0,2,,4819.296999713872,response,ISIC_0033947.JPG,5,ISIC_0032272.JPG,ISIC_0033947.JPG,false,1,keypress(m),500,522100.90000009537,522100.7999997139,517264.895,517267.59999990463,517281.503,522107.666,8,400,7,,ISIC_0032272.JPG
break,html.Screen,4_56_1,2023-09-13T15:55:23.615Z,,0,,,NaN,,,,,,false,,,,522101.40000009537,522101.19999980927,,522101,,522107.666,8,400,,,
break_continue,html.Screen,4_56_2,2023-09-13T15:55:23.615Z,,0,,,NaN,,,,,,false,,,,522101.5,522101.5,,522101.40000009537,,522107.666,8,400,,,
sequence,flow.Sequence,4_56,2023-09-13T15:55:23.615Z,,0,,,4819.996999999974,completion,,,,,false,,,,522101.59999990463,522101.5,517264.895,517267.59999990463,517281.503,522107.666,8,400,,,
trial,html.Screen,4_57_0,2023-09-13T15:55:28.594Z,,0,2,,4972.033999809239,response,ISIC_3391254.JPG,5,ISIC_0029112.JPG,ISIC_3391254.JPG,false,1,keypress(m),500,527079.9000000954,527079.6999998093,522090.955,522101.69999980927,522107.666,527084.002,8,400,8,,ISIC_0029112.JPG
break,html.Screen,4_57_1,2023-09-13T15:55:28.594Z,,0,,,NaN,,,,,,false,,,,527080.4000000954,527080.1999998093,,527079.9000000954,,527084.002,8,400,,,
break_continue,html.Screen,4_57_2,2023-09-13T15:55:28.595Z,,0,,,NaN,,,,,,false,,,,527080.6999998093,527080.5999999046,,527080.5,,527084.002,8,400,,,
sequence,flow.Sequence,4_57,2023-09-13T15:55:28.595Z,,0,,,4972.933999904606,completion,,,,,false,,,,527080.7999997139,527080.5999999046,522090.955,522101.69999980927,522107.666,527084.002,8,400,,,
trial,html.Screen,4_58_0,2023-09-13T15:55:33.684Z,,0,2,,5086.398000095389,response,ISIC_2728024.JPG,5,ISIC_0033359.JPG,ISIC_2728024.JPG,false,1,keypress(m),500,532170.5,532170.4000000954,527067.264,527080.9000000954,527084.002,532177.146,8,400,9,,ISIC_0033359.JPG
break,html.Screen,4_58_1,2023-09-13T15:55:33.685Z,,0,,,NaN,,,,,,false,,,,532171.0999999046,532171,,532170.6999998093,,532177.146,8,400,,,
break_continue,html.Screen,4_58_2,2023-09-13T15:55:33.685Z,,0,,,NaN,,,,,,false,,,,532171.5,532171.4000000954,,532171.1999998093,,532177.146,8,400,,,
sequence,flow.Sequence,4_58,2023-09-13T15:55:33.685Z,,0,,,5087.398000095389,completion,,,,,false,,,,532171.5,532171.4000000954,527067.264,527080.9000000954,527084.002,532177.146,8,400,,,
trial,html.Screen,4_59_0,2023-09-13T15:55:38.806Z,,0,2,,5115.35400000005,response,ISIC_7416587.JPG,5,ISIC_8207974.JPG,ISIC_8207974.JPG,false,0,keypress(z),500,537292.6999998093,537292.5,532160.478,532171.5999999046,532177.146,537303.909,8,400,10,,ISIC_7416587.JPG
break,html.Screen,4_59_1,2023-09-13T15:55:38.807Z,,0,,,NaN,,,,,,false,,,,537293.0999999046,537292.9000000954,,537292.7999997139,,537303.909,8,400,,,
break_continue,html.Screen,4_59_2,2023-09-13T15:55:38.807Z,,0,,,NaN,,,,,,false,,,,537293.1999998093,537293.1999998093,,537293.1999998093,,537303.909,8,400,,,
sequence,flow.Sequence,4_59,2023-09-13T15:55:38.807Z,,0,,,5116.053999809315,completion,,,,,false,,,,537293.4000000954,537293.1999998093,532160.478,532171.5999999046,532177.146,537303.909,8,400,,,
trial,html.Screen,4_60_0,2023-09-13T15:55:43.854Z,,0,2,,5036.591000000015,response,ISIC_0058174.JPG,5,ISIC_0015035.JPG,ISIC_0015035.JPG,false,0,keypress(z),500,542340.5,542340.5,537287.208,537293.4000000954,537303.909,542347.041,8,400,11,,ISIC_0058174.JPG
break,html.Screen,4_60_1,2023-09-13T15:55:43.855Z,,0,,,NaN,,,,,,false,,,,542341.1999998093,542340.9000000954,,542340.6999998093,,542347.041,8,400,,,
break_continue,html.Screen,4_60_2,2023-09-13T15:55:43.855Z,,0,,,NaN,,,,,,false,,,,542341.5999999046,542341.5,,542341.2999997139,,542347.041,8,400,,,
sequence,flow.Sequence,4_60,2023-09-13T15:55:43.855Z,,0,,,5037.591000000015,completion,,,,,false,,,,542341.5999999046,542341.5,537287.208,537293.4000000954,537303.909,542347.041,8,400,,,
trial,html.Screen,4_61_0,2023-09-13T15:55:49.441Z,,0,2,,5580.459000000032,response,ISIC_0011862.JPG,4,ISIC_0034069.JPG,ISIC_0034069.JPG,false,0,keypress(z),500,547927.6999998093,547927.5,542330.267,542341.6999998093,542347.041,547941.279,8,400,12,,ISIC_0011862.JPG
break,html.Screen,4_61_1,2023-09-13T15:55:49.442Z,,0,,,NaN,,,,,,false,,,,547928.0999999046,547928,,547927.7999997139,,547941.279,8,400,,,
break_continue,html.Screen,4_61_2,2023-09-13T15:55:49.442Z,,0,,,NaN,,,,,,false,,,,547928.4000000954,547928.4000000954,,547928.2999997139,,547941.279,8,400,,,
sequence,flow.Sequence,4_61,2023-09-13T15:55:49.442Z,,0,,,5581.359000095399,completion,,,,,false,,,,547928.5,547928.4000000954,542330.267,542341.6999998093,542347.041,547941.279,8,400,,,
trial,html.Screen,4_62_0,2023-09-13T15:55:54.052Z,,0,2,,4596.320999904652,response,ISIC_7462746.JPG,5,ISIC_0012810.JPG,ISIC_7462746.JPG,false,1,keypress(m),500,552537.7999997139,552537.5999999046,547924.571,547928.5999999046,547941.279,552550.142,8,400,13,,ISIC_0012810.JPG
break,html.Screen,4_62_1,2023-09-13T15:55:54.052Z,,0,,,NaN,,,,,,false,,,,552538.5,552538.2999997139,,552537.9000000954,,552550.142,8,400,,,
break_continue,html.Screen,4_62_2,2023-09-13T15:55:54.053Z,,0,,,NaN,,,,,,false,,,,552538.7999997139,552538.6999998093,,552538.5,,552550.142,8,400,,,
sequence,flow.Sequence,4_62,2023-09-13T15:55:54.053Z,,0,,,4597.420999809285,completion,,,,,false,,,,552538.9000000954,552538.6999998093,547924.571,547928.5999999046,547941.279,552550.142,8,400,,,
trial,html.Screen,4_63_0,2023-09-13T15:55:59.065Z,,0,2,,5001.358000000007,response,ISIC_0296109.JPG,5,ISIC_0072004.JPG,ISIC_0296109.JPG,false,1,keypress(m),500,557551.6999998093,557551.5,552533.632,552539,552550.142,557559.887,8,400,14,,ISIC_0072004.JPG
break,html.Screen,4_63_1,2023-09-13T15:55:59.066Z,,0,,,NaN,,,,,,false,,,,557552.0999999046,557551.9000000954,,557551.7999997139,,557559.887,8,400,,,
break_continue,html.Screen,4_63_2,2023-09-13T15:55:59.066Z,,0,,,NaN,,,,,,false,,,,557552.1999998093,557552.1999998093,,557552.0999999046,,557559.887,8,400,,,
sequence,flow.Sequence,4_63,2023-09-13T15:55:59.066Z,,0,,,5002.057999809273,completion,,,,,false,,,,557552.2999997139,557552.1999998093,552533.632,552539,552550.142,557559.887,8,400,,,
trial,html.Screen,4_64_0,2023-09-13T15:56:04.908Z,,0,2,,5834.41299971391,response,ISIC_0030085.JPG,4,ISIC_4574865.JPG,ISIC_4574865.JPG,false,0,keypress(z),500,563394.5,563394.2999997139,557543.386,557552.4000000954,557559.887,563404.625,8,400,15,,ISIC_0030085.JPG
break,html.Screen,4_64_1,2023-09-13T15:56:04.909Z,,0,,,NaN,,,,,,false,,,,563395,563394.9000000954,,563394.5999999046,,563404.625,8,400,,,
break_continue,html.Screen,4_64_2,2023-09-13T15:56:04.909Z,,0,,,NaN,,,,,,false,,,,563395.1999998093,563395.1999998093,,563395,,563404.625,8,400,,,
sequence,flow.Sequence,4_64,2023-09-13T15:56:04.909Z,,0,,,5835.312999809277,completion,,,,,false,,,,563395.4000000954,563395.1999998093,557543.386,557552.4000000954,557559.887,563404.625,8,400,,,
trial,html.Screen,4_65_0,2023-09-13T15:56:10.174Z,,0,2,,5255.775000095367,response,ISIC_0058837.JPG,4,ISIC_0059571.JPG,ISIC_0059571.JPG,false,0,keypress(z),500,568660.5,568660.4000000954,563387.865,563395.4000000954,563404.625,568664.837,8,400,16,,ISIC_0058837.JPG
break,html.Screen,4_65_1,2023-09-13T15:56:10.175Z,,0,,,NaN,,,,,,false,,,,568661.0999999046,568661,,568660.6999998093,,568664.837,8,400,,,
break_continue,html.Screen,4_65_2,2023-09-13T15:56:10.175Z,,0,,,NaN,,,,,,false,,,,568661.2999997139,568661.2999997139,,568661.1999998093,,568664.837,8,400,,,
sequence,flow.Sequence,4_65,2023-09-13T15:56:10.175Z,,0,,,5256.674999713898,completion,,,,,false,,,,568661.4000000954,568661.2999997139,563387.865,563395.4000000954,563404.625,568664.837,8,400,,,
trial,html.Screen,4_66_0,2023-09-13T15:56:14.579Z,,0,2,,4398.56300009531,response,ISIC_0026916.JPG,4,ISIC_0644590.JPG,ISIC_0644590.JPG,false,0,keypress(z),500,573063.5,573063.4000000954,568648.164,568661.5,568664.837,573073.504,8,400,17,,ISIC_0026916.JPG
break,html.Screen,4_66_1,2023-09-13T15:56:14.580Z,,0,,,NaN,,,,,,false,,,,573064.2999997139,573064,,573063.6999998093,,573073.504,8,400,,,
break_continue,html.Screen,4_66_2,2023-09-13T15:56:14.580Z,,0,,,NaN,,,,,,false,,,,573064.5999999046,573064.5999999046,,573064.2999997139,,573073.504,8,400,,,
sequence,flow.Sequence,4_66,2023-09-13T15:56:14.580Z,,0,,,4399.762999904575,completion,,,,,false,,,,573064.6999998093,573064.5999999046,568648.164,568661.5,568664.837,573073.504,8,400,,,
trial,html.Screen,4_67_0,2023-09-13T15:56:20.694Z,,0,2,,6104.795999713941,response,ISIC_0033950.JPG,5,ISIC_5367118.JPG,ISIC_0033950.JPG,false,1,keypress(m),500,579178.4000000954,579178.2999997139,573056.886,573064.7999997139,573073.504,579185.294,8,400,18,,ISIC_5367118.JPG
break,html.Screen,4_67_1,2023-09-13T15:56:20.694Z,,0,,,NaN,,,,,,false,,,,579178.7999997139,579178.6999998093,,579178.5,,579185.294,8,400,,,
break_continue,html.Screen,4_67_2,2023-09-13T15:56:20.694Z,,0,,,NaN,,,,,,false,,,,579179,579179,,579178.9000000954,,579185.294,8,400,,,
sequence,flow.Sequence,4_67,2023-09-13T15:56:20.694Z,,0,,,6105.496000000043,completion,,,,,false,,,,579179.0999999046,579179,573056.886,573064.7999997139,573073.504,579185.294,8,400,,,
trial,html.Screen,4_68_0,2023-09-13T15:56:26.696Z,,0,2,,5995.305999904638,response,ISIC_2945891.JPG,4,ISIC_0024840.JPG,ISIC_2945891.JPG,false,1,keypress(m),500,585180.6999998093,585180.5999999046,579168.803,579179.1999998093,579185.294,585197.047,8,400,19,,ISIC_0024840.JPG
break,html.Screen,4_68_1,2023-09-13T15:56:26.697Z,,0,,,NaN,,,,,,false,,,,585181.4000000954,585181.1999998093,,585180.9000000954,,585197.047,8,400,,,
break_continue,html.Screen,4_68_2,2023-09-13T15:56:26.697Z,,0,,,NaN,,,,,,false,,,,585181.6999998093,585181.5999999046,,585181.5,,585197.047,8,400,,,
sequence,flow.Sequence,4_68,2023-09-13T15:56:26.697Z,,0,,,5996.305999904638,completion,,,,,false,,,,585181.7999997139,585181.5999999046,579168.803,579179.0999999046,579185.294,585197.047,8,400,,,
trial,html.Screen,4_69_0,2023-09-13T15:56:30.939Z,,0,2,,4226.552999904612,response,ISIC_0011933.JPG,6,ISIC_2800198.JPG,ISIC_2800198.JPG,false,0,keypress(z),500,589423.6999998093,589423.5999999046,585180.339,585181.7999997139,585197.047,589438.561,8,400,20,,ISIC_0011933.JPG
break,html.Screen,4_69_1,2023-09-13T15:56:30.940Z,,0,,,NaN,,,,,,false,,,,589424.4000000954,589424.1999998093,,589423.9000000954,,589438.561,8,400,,,
break_continue,html.Screen,4_69_2,2023-09-13T15:56:30.940Z,,0,,,NaN,,,,,,false,,,,589424.6999998093,589424.5999999046,,589424.5,,589438.561,8,400,,,
sequence,flow.Sequence,4_69,2023-09-13T15:56:30.940Z,,0,,,4227.552999904612,completion,,,,,false,,,,589424.6999998093,589424.5999999046,585180.339,585181.7999997139,585197.047,589438.561,8,400,,,
trial,html.Screen,4_70_0,2023-09-13T15:56:37.710Z,,0,2,,6755.638999809278,response,ISIC_0072412.JPG,6,ISIC_6272501.JPG,ISIC_6272501.JPG,false,0,keypress(z),500,596194.4000000954,596194.1999998093,589421.92,589424.7999997139,589438.561,596201.739,8,400,21,,ISIC_0072412.JPG
break,html.Screen,4_70_1,2023-09-13T15:56:37.710Z,,0,,,NaN,,,,,,false,,,,596194.9000000954,596194.6999998093,,596194.4000000954,,596201.739,8,400,,,
break_continue,html.Screen,4_70_2,2023-09-13T15:56:37.710Z,,0,,,NaN,,,,,,false,,,,596195.1999998093,596195.0999999046,,596194.9000000954,,596201.739,8,400,,,
sequence,flow.Sequence,4_70,2023-09-13T15:56:37.711Z,,0,,,6756.538999904646,completion,,,,,false,,,,596195.2999997139,596195.0999999046,589421.92,589424.7999997139,589438.561,596201.739,8,400,,,
trial,html.Screen,4_71_0,2023-09-13T15:56:42.823Z,,0,2,,5106.261000000057,response,ISIC_0002821.JPG,5,ISIC_0069398.JPG,ISIC_0002821.JPG,false,1,keypress(m),500,601308.0999999046,601308,596185.312,596195.4000000954,596201.739,601311.737,8,400,22,,ISIC_0069398.JPG
break,html.Screen,4_71_1,2023-09-13T15:56:42.824Z,,0,,,NaN,,,,,,false,,,,601309,601308.6999998093,,601308.4000000954,,601311.737,8,400,,,
break_continue,html.Screen,4_71_2,2023-09-13T15:56:42.825Z,,0,,,NaN,,,,,,false,,,,601309.4000000954,601309.1999998093,,601309.0999999046,,601311.737,8,400,,,
sequence,flow.Sequence,4_71,2023-09-13T15:56:42.825Z,,0,,,5107.460999809322,completion,,,,,false,,,,601309.5,601309.1999998093,596185.312,596195.4000000954,596201.739,601311.737,8,400,,,
trial,html.Screen,4_72_0,2023-09-13T15:56:47.771Z,,0,2,,4944.062999713933,response,ISIC_0031625.JPG,5,ISIC_0060355.JPG,ISIC_0031625.JPG,false,1,keypress(m),500,606256.0999999046,606255.7999997139,601294.988,601309.5999999046,601311.737,606271.366,8,400,23,,ISIC_0060355.JPG
break,html.Screen,4_72_1,2023-09-13T15:56:47.773Z,,0,,,NaN,,,,,,false,,,,606257.7999997139,606257.0999999046,,606256.5,,606271.366,8,400,,,
break_continue,html.Screen,4_72_2,2023-09-13T15:56:47.774Z,,0,,,NaN,,,,,,false,,,,606258.5,606258.4000000954,,606258.0999999046,,606271.366,8,400,,,
sequence,flow.Sequence,4_72,2023-09-13T15:56:47.774Z,,0,,,4946.663000095403,completion,,,,,false,,,,606258.7999997139,606258.4000000954,601294.988,601309.5999999046,601311.737,606271.366,8,400,,,
trial,html.Screen,4_73_0,2023-09-13T15:56:53.186Z,,0,2,,5398.733999904594,response,ISIC_0029626.JPG,5,ISIC_0014846.JPG,ISIC_0014846.JPG,false,0,keypress(z),500,611670.2999997139,611670.0999999046,606254.691,606259,606271.366,611681.893,8,400,24,,ISIC_0029626.JPG
break,html.Screen,4_73_1,2023-09-13T15:56:53.186Z,,0,,,NaN,,,,,,false,,,,611670.5999999046,611670.5999999046,,611670.2999997139,,611681.893,8,400,,,
break_continue,html.Screen,4_73_2,2023-09-13T15:56:53.186Z,,0,,,NaN,,,,,,false,,,,611670.6999998093,611670.6999998093,,611670.5999999046,,611681.893,8,400,,,
sequence,flow.Sequence,4_73,2023-09-13T15:56:53.186Z,,0,,,5399.333999809227,completion,,,,,false,,,,611670.9000000954,611670.6999998093,606254.691,606259,606271.366,611681.893,8,400,,,
trial,html.Screen,4_74_0,2023-09-13T15:57:00.148Z,,0,2,,6950.60699999996,response,ISIC_0033643.JPG,5,ISIC_7822725.JPG,ISIC_0033643.JPG,false,1,keypress(m),500,618632.6999998093,618632.5,611665.378,611670.9000000954,611681.893,618645.422,8,400,25,,ISIC_7822725.JPG
break,html.Screen,4_74_1,2023-09-13T15:57:00.148Z,,0,,,NaN,,,,,,false,,,,618633.0999999046,618632.9000000954,,618632.6999998093,,618645.422,8,400,,,
break_continue,html.Screen,4_74_2,2023-09-13T15:57:00.149Z,,0,,,NaN,,,,,,false,,,,618633.2999997139,618633.2999997139,,618633.1999998093,,618645.422,8,400,,,
sequence,flow.Sequence,4_74,2023-09-13T15:57:00.149Z,,0,,,6951.406999713858,completion,,,,,false,,,,618633.2999997139,618633.2999997139,611665.378,611670.9000000954,611681.893,618645.422,8,400,,,
trial,html.Screen,4_75_0,2023-09-13T15:57:04.934Z,,0,2,,4772.777999809245,response,ISIC_0011337.JPG,5,ISIC_7053271.JPG,ISIC_7053271.JPG,false,0,keypress(z),500,623418.4000000954,623418.1999998093,618628.916,618633.4000000954,618645.422,623421.36,8,400,26,,ISIC_0011337.JPG
break,html.Screen,4_75_1,2023-09-13T15:57:04.934Z,,0,,,NaN,,,,,,false,,,,623418.9000000954,623418.7999997139,,623418.5,,623421.36,8,400,,,
break_continue,html.Screen,4_75_2,2023-09-13T15:57:04.934Z,,0,,,NaN,,,,,,false,,,,623419.1999998093,623419,,623418.9000000954,,623421.36,8,400,,,
sequence,flow.Sequence,4_75,2023-09-13T15:57:04.935Z,,0,,,4773.5779999999795,completion,,,,,false,,,,623419.1999998093,623419,618628.916,618633.4000000954,618645.422,623421.36,8,400,,,
trial,html.Screen,4_76_0,2023-09-13T15:57:10.344Z,,0,2,,5407.339999809279,response,ISIC_8020153.JPG,5,ISIC_7509837.JPG,ISIC_8020153.JPG,false,1,keypress(m),500,628828.7999997139,628828.6999998093,623404.698,623419.4000000954,623421.36,628831.904,8,400,27,,ISIC_7509837.JPG
break,html.Screen,4_76_1,2023-09-13T15:57:10.345Z,,0,,,NaN,,,,,,false,,,,628829.4000000954,628829.2999997139,,628829,,628831.904,8,400,,,
break_continue,html.Screen,4_76_2,2023-09-13T15:57:10.345Z,,0,,,NaN,,,,,,false,,,,628829.7999997139,628829.6999998093,,628829.5999999046,,628831.904,8,400,,,
sequence,flow.Sequence,4_76,2023-09-13T15:57:10.345Z,,0,,,5408.339999809279,completion,,,,,false,,,,628829.9000000954,628829.6999998093,623404.698,623419.4000000954,623421.36,628831.904,8,400,,,
trial,html.Screen,4_77_0,2023-09-13T15:57:17.883Z,,0,2,,7534.695999904652,response,ISIC_0026272.JPG,5,ISIC_7870290.JPG,ISIC_0026272.JPG,false,1,keypress(m),500,636366.7999997139,636366.5999999046,628815.36,628829.9000000954,628831.904,636380.047,8,400,28,,ISIC_7870290.JPG
break,html.Screen,4_77_1,2023-09-13T15:57:17.884Z,,0,,,NaN,,,,,,false,,,,636367.0999999046,636367,,636366.7999997139,,636380.047,8,400,,,
break_continue,html.Screen,4_77_2,2023-09-13T15:57:17.884Z,,0,,,NaN,,,,,,false,,,,636367.2999997139,636367.2999997139,,636367.1999998093,,636380.047,8,400,,,
sequence,flow.Sequence,4_77,2023-09-13T15:57:17.884Z,,0,,,7535.395999713917,completion,,,,,false,,,,636367.4000000954,636367.2999997139,628815.36,628829.9000000954,628831.904,636380.047,8,400,,,
trial,html.Screen,4_78_0,2023-09-13T15:57:22.046Z,,0,2,,4149.4529999999795,response,ISIC_3984167.JPG,5,ISIC_0218575.JPG,ISIC_0218575.JPG,false,0,keypress(z),500,640529.6999998093,640529.5,636363.41,636367.4000000954,636380.047,640538.118,8,400,29,,ISIC_3984167.JPG
break,html.Screen,4_78_1,2023-09-13T15:57:22.047Z,,0,,,NaN,,,,,,false,,,,640530.0999999046,640530,,640529.7999997139,,640538.118,8,400,,,
break_continue,html.Screen,4_78_2,2023-09-13T15:57:22.047Z,,0,,,NaN,,,,,,false,,,,640530.2999997139,640530.2999997139,,640530.1999998093,,640538.118,8,400,,,
sequence,flow.Sequence,4_78,2023-09-13T15:57:22.047Z,,0,,,4150.252999713877,completion,,,,,false,,,,640530.5,640530.2999997139,636363.41,636367.4000000954,636380.047,640538.118,8,400,,,
trial,html.Screen,4_79_0,2023-09-13T15:57:26.850Z,,0,2,,4795.282000095351,response,ISIC_3431915.JPG,5,ISIC_6119830.JPG,ISIC_6119830.JPG,false,0,keypress(z),500,645333.5,645333.4000000954,640521.469,640530.5,640538.118,645347.479,8,400,30,,ISIC_3431915.JPG
break,html.Screen,4_79_1,2023-09-13T15:57:26.851Z,,0,,,NaN,,,,,,false,,,,645334.4000000954,645334.0999999046,,645333.6999998093,,645347.479,8,400,,,
break_continue,html.Screen,4_79_2,2023-09-13T15:57:26.851Z,,0,,,NaN,,,,,,false,,,,645334.6999998093,645334.5999999046,,645334.5,,645347.479,8,400,,,
sequence,flow.Sequence,4_79,2023-09-13T15:57:26.852Z,,0,,,4796.481999904616,completion,,,,,false,,,,645334.7999997139,645334.5999999046,640521.469,640530.5,640538.118,645347.479,8,400,,,
trial,html.Screen,4_80_0,2023-09-13T15:57:31.382Z,,0,2,,4517.421000095317,response,ISIC_2412113.JPG,5,ISIC_3209501.JPG,ISIC_3209501.JPG,false,0,keypress(z),500,649865,649864.9000000954,645330.858,645335,645347.479,649873.02,8,400,31,,ISIC_2412113.JPG
break,html.Screen,4_80_1,2023-09-13T15:57:31.382Z,,0,,,NaN,,,,,,false,,,,649865.6999998093,649865.4000000954,,649865.1999998093,,649873.02,8,400,,,
break_continue,html.Screen,4_80_2,2023-09-13T15:57:31.383Z,,0,,,NaN,,,,,,false,,,,649866,649865.9000000954,,649865.7999997139,,649873.02,8,400,,,
sequence,flow.Sequence,4_80,2023-09-13T15:57:31.383Z,,0,,,4518.421000095317,completion,,,,,false,,,,649866.0999999046,649865.9000000954,645330.858,645334.9000000954,645347.479,649873.02,8,400,,,
trial,html.Screen,4_81_0,2023-09-13T15:57:35.516Z,,0,2,,4125.6799998092465,response,ISIC_0032357.JPG,5,ISIC_1877535.JPG,ISIC_1877535.JPG,false,0,keypress(z),500,653999.0999999046,653998.6999998093,649856.131,649866.0999999046,649873.02,654014.28,8,400,32,,ISIC_0032357.JPG
break,html.Screen,4_81_1,2023-09-13T15:57:35.517Z,,0,,,NaN,,,,,,false,,,,654000.0999999046,653999.7999997139,,653999.2999997139,,654014.28,8,400,,,
break_continue,html.Screen,4_81_2,2023-09-13T15:57:35.517Z,,0,,,NaN,,,,,,false,,,,654000.4000000954,654000.4000000954,,654000.1999998093,,654014.28,8,400,,,
sequence,flow.Sequence,4_81,2023-09-13T15:57:35.517Z,,0,,,4127.380000095349,completion,,,,,false,,,,654000.5,654000.4000000954,649856.131,649866.0999999046,649873.02,654014.28,8,400,,,
trial,html.Screen,4_82_0,2023-09-13T15:57:41.040Z,,0,2,,5508.51999971387,response,ISIC_0072828.JPG,6,ISIC_6710411.JPG,ISIC_6710411.JPG,false,0,keypress(z),500,659522.9000000954,659522.7999997139,653997.545,654000.6999998093,654014.28,659525,8,400,33,,ISIC_0072828.JPG
break,html.Screen,4_82_1,2023-09-13T15:57:41.040Z,,0,,,NaN,,,,,,false,,,,659523.2999997139,659523.1999998093,,659522.9000000954,,659525,8,400,,,
break_continue,html.Screen,4_82_2,2023-09-13T15:57:41.040Z,,0,,,NaN,,,,,,false,,,,659523.5999999046,659523.5999999046,,659523.4000000954,,659525,8,400,,,
sequence,flow.Sequence,4_82,2023-09-13T15:57:41.040Z,,0,,,5509.319999904605,completion,,,,,false,,,,659523.6999998093,659523.5999999046,653997.545,654000.6999998093,654014.28,659525,8,400,,,
trial,html.Screen,4_83_0,2023-09-13T15:57:45.619Z,,0,2,,4576.699999809265,response,ISIC_0013634.JPG,5,ISIC_3973431.JPG,ISIC_3973431.JPG,false,0,keypress(z),500,664101.7999997139,664101.6999998093,659508.271,659523.6999998093,659525,664117.268,8,400,34,,ISIC_0013634.JPG
break,html.Screen,4_83_1,2023-09-13T15:57:45.619Z,,0,,,NaN,,,,,,false,,,,664102.4000000954,664102.0999999046,,664101.9000000954,,664117.268,8,400,,,
break_continue,html.Screen,4_83_2,2023-09-13T15:57:45.619Z,,0,,,NaN,,,,,,false,,,,664102.5999999046,664102.5999999046,,664102.5,,664117.268,8,400,,,
sequence,flow.Sequence,4_83,2023-09-13T15:57:45.620Z,,0,,,4577.599999904633,completion,,,,,false,,,,664102.7999997139,664102.5999999046,659508.271,659523.6999998093,659525,664117.268,8,400,,,
trial,html.Screen,4_84_0,2023-09-13T15:57:50.762Z,,0,2,,5127.73199999996,response,ISIC_0033245.JPG,4,ISIC_2379908.JPG,ISIC_2379908.JPG,false,0,keypress(z),500,669245.0999999046,669245,664100.651,664102.9000000954,664117.268,669260.687,8,400,35,,ISIC_0033245.JPG
break,html.Screen,4_84_1,2023-09-13T15:57:50.763Z,,0,,,NaN,,,,,,false,,,,669245.7999997139,669245.5999999046,,669245.2999997139,,669260.687,8,400,,,
break_continue,html.Screen,4_84_2,2023-09-13T15:57:50.763Z,,0,,,NaN,,,,,,false,,,,669246.0999999046,669246,,669245.9000000954,,669260.687,8,400,,,
sequence,flow.Sequence,4_84,2023-09-13T15:57:50.763Z,,0,,,5128.73199999996,completion,,,,,false,,,,669246.1999998093,669246,664100.651,664102.7999997139,664117.268,669260.687,8,400,,,
trial,html.Screen,4_85_0,2023-09-13T15:57:57.628Z,,0,2,,6850.8129999999655,response,ISIC_0011960.JPG,5,ISIC_0064563.JPG,ISIC_0011960.JPG,false,1,keypress(m),500,676111.6999998093,676111.5,669243.918,669246.2999997139,669260.687,676123.957,8,400,36,,ISIC_0064563.JPG
break,html.Screen,4_85_1,2023-09-13T15:57:57.629Z,,0,,,NaN,,,,,,false,,,,676112.2999997139,676112.0999999046,,676111.9000000954,,676123.957,8,400,,,
break_continue,html.Screen,4_85_2,2023-09-13T15:57:57.629Z,,0,,,NaN,,,,,,false,,,,676112.5999999046,676112.5,,676112.2999997139,,676123.957,8,400,,,
sequence,flow.Sequence,4_85,2023-09-13T15:57:57.630Z,,0,,,6851.8129999999655,completion,,,,,false,,,,676112.7999997139,676112.5,669243.918,669246.2999997139,669260.687,676123.957,8,400,,,
trial,html.Screen,4_86_0,2023-09-13T15:58:04.784Z,,0,2,,7142.443000095314,response,ISIC_0080817.JPG,5,ISIC_0067308.JPG,ISIC_0080817.JPG,false,1,keypress(m),500,683267,683266.4000000954,676107.232,676112.9000000954,676123.957,683271.288,8,400,37,,ISIC_0067308.JPG
break,html.Screen,4_86_1,2023-09-13T15:58:04.786Z,,0,,,NaN,,,,,,false,,,,683269.1999998093,683268.9000000954,,683267.5,,683271.288,8,400,,,
break_continue,html.Screen,4_86_2,2023-09-13T15:58:04.787Z,,0,,,NaN,,,,,,false,,,,683270.1999998093,683270,,683269.5,,683271.288,8,400,,,
sequence,flow.Sequence,4_86,2023-09-13T15:58:04.787Z,,0,,,7146.042999999947,completion,,,,,false,,,,683270.5999999046,683270,676107.232,676112.7999997139,676123.957,683271.288,8,400,,,
trial,html.Screen,4_87_0,2023-09-13T15:58:11.591Z,,0,2,,6802.712000000058,response,ISIC_5960765.JPG,6,ISIC_0007678.JPG,ISIC_0007678.JPG,false,0,keypress(z),500,690074.0999999046,690074,683254.631,683270.7999997139,683271.288,690084.638,8,400,38,,ISIC_5960765.JPG
break,html.Screen,4_87_1,2023-09-13T15:58:11.592Z,,0,,,NaN,,,,,,false,,,,690074.6999998093,690074.5,,690074.1999998093,,690084.638,8,400,,,
break_continue,html.Screen,4_87_2,2023-09-13T15:58:11.592Z,,0,,,NaN,,,,,,false,,,,690075.1999998093,690075.0999999046,,690075,,690084.638,8,400,,,
sequence,flow.Sequence,4_87,2023-09-13T15:58:11.592Z,,0,,,6803.81199990469,completion,,,,,false,,,,690075.1999998093,690075.0999999046,683254.631,683270.6999998093,683271.288,690084.638,8,400,,,
trial,html.Screen,4_88_0,2023-09-13T15:58:16.783Z,,0,2,,5180.56199980923,response,ISIC_0033428.JPG,6,ISIC_6128108.JPG,ISIC_6128108.JPG,false,0,keypress(z),500,695265.1999998093,695265.1999998093,690067.906,690075.4000000954,690084.638,695277.882,8,400,39,,ISIC_0033428.JPG
break,html.Screen,4_88_1,2023-09-13T15:58:16.784Z,,0,,,NaN,,,,,,false,,,,695265.9000000954,695265.5999999046,,695265.2999997139,,695277.882,8,400,,,
break_continue,html.Screen,4_88_2,2023-09-13T15:58:16.784Z,,0,,,NaN,,,,,,false,,,,695266.1999998093,695266.1999998093,,695266.0999999046,,695277.882,8,400,,,
sequence,flow.Sequence,4_88,2023-09-13T15:58:16.784Z,,0,,,5181.56199980923,completion,,,,,false,,,,695266.2999997139,695266.1999998093,690067.906,690075.4000000954,690084.638,695277.882,8,400,,,
trial,html.Screen,4_89_0,2023-09-13T15:58:23.588Z,,0,2,,6791.717999904649,response,ISIC_0024757.JPG,5,ISIC_0059390.JPG,ISIC_0024757.JPG,false,1,keypress(m),500,702069.6999998093,702069.5999999046,695261.277,695266.2999997139,695277.882,702074.47,8,400,40,,ISIC_0059390.JPG
break,html.Screen,4_89_1,2023-09-13T15:58:23.589Z,,0,,,NaN,,,,,,false,,,,702070.4000000954,702070.1999998093,,702069.9000000954,,702074.47,8,400,,,
break_continue,html.Screen,4_89_2,2023-09-13T15:58:23.589Z,,0,,,NaN,,,,,,false,,,,702070.5999999046,702070.5999999046,,702070.4000000954,,702074.47,8,400,,,
sequence,flow.Sequence,4_89,2023-09-13T15:58:23.589Z,,0,,,6792.717999904649,completion,,,,,false,,,,702070.7999997139,702070.5999999046,695261.277,695266.2999997139,695277.882,702074.47,8,400,,,
trial,html.Screen,4_90_0,2023-09-13T15:58:30.124Z,,0,2,,6530.930000095395,response,ISIC_2309744.JPG,5,ISIC_0014423.JPG,ISIC_0014423.JPG,false,0,keypress(z),500,708605.5,708605.4000000954,702057.856,702070.9000000954,702074.47,708620.599,8,400,41,,ISIC_2309744.JPG
break,html.Screen,4_90_1,2023-09-13T15:58:30.124Z,,0,,,NaN,,,,,,false,,,,708606.0999999046,708606,,708605.5999999046,,708620.599,8,400,,,
break_continue,html.Screen,4_90_2,2023-09-13T15:58:30.124Z,,0,,,NaN,,,,,,false,,,,708606.2999997139,708606.2999997139,,708606.1999998093,,708620.599,8,400,,,
sequence,flow.Sequence,4_90,2023-09-13T15:58:30.125Z,,0,,,6531.829999713926,completion,,,,,false,,,,708606.4000000954,708606.2999997139,702057.856,702070.9000000954,702074.47,708620.599,8,400,,,
trial,html.Screen,4_91_0,2023-09-13T15:58:35.812Z,,0,2,,5672.900999999954,response,ISIC_0025626.JPG,4,ISIC_0057344.JPG,ISIC_0057344.JPG,false,0,keypress(z),500,714293.5999999046,714293.5,708603.837,708606.5,708620.599,714298.276,8,400,42,,ISIC_0025626.JPG
break,html.Screen,4_91_1,2023-09-13T15:58:35.812Z,,0,,,NaN,,,,,,false,,,,714294.1999998093,714294.0999999046,,714293.7999997139,,714298.276,8,400,,,
break_continue,html.Screen,4_91_2,2023-09-13T15:58:35.813Z,,0,,,NaN,,,,,,false,,,,714294.4000000954,714294.4000000954,,714294.2999997139,,714298.276,8,400,,,
sequence,flow.Sequence,4_91,2023-09-13T15:58:35.813Z,,0,,,5673.801000095322,completion,,,,,false,,,,714294.5,714294.4000000954,708603.837,708606.4000000954,708620.599,714298.276,8,400,,,
trial,html.Screen,4_92_0,2023-09-13T15:58:41.722Z,,0,2,,5905.523999713943,response,ISIC_2517072.JPG,6,ISIC_4884803.JPG,ISIC_2517072.JPG,false,1,keypress(m),500,720203.9000000954,720203.7999997139,714281.559,714294.5999999046,714298.276,720209.75,8,400,43,,ISIC_4884803.JPG
break,html.Screen,4_92_1,2023-09-13T15:58:41.723Z,,0,,,NaN,,,,,,false,,,,720204.4000000954,720204.1999998093,,720204,,720209.75,8,400,,,
break_continue,html.Screen,4_92_2,2023-09-13T15:58:41.723Z,,0,,,NaN,,,,,,false,,,,720204.5999999046,720204.5,,720204.4000000954,,720209.75,8,400,,,
sequence,flow.Sequence,4_92,2023-09-13T15:58:41.723Z,,0,,,5906.224000000046,completion,,,,,false,,,,720204.5999999046,720204.5,714281.559,714294.5999999046,714298.276,720209.75,8,400,,,
trial,html.Screen,4_93_0,2023-09-13T15:58:46.925Z,,0,2,,5196.849999904633,response,ISIC_0182730.JPG,5,ISIC_0000305.JPG,ISIC_0182730.JPG,false,1,keypress(m),500,725406.6999998093,725406.5999999046,720193.096,720204.6999998093,720209.75,725419.896,8,400,44,,ISIC_0000305.JPG
break,html.Screen,4_93_1,2023-09-13T15:58:46.925Z,,0,,,NaN,,,,,,false,,,,725407.0999999046,725407,,725406.7999997139,,725419.896,8,400,,,
break_continue,html.Screen,4_93_2,2023-09-13T15:58:46.925Z,,0,,,NaN,,,,,,false,,,,725407.2999997139,725407.2999997139,,725407.1999998093,,725419.896,8,400,,,
sequence,flow.Sequence,4_93,2023-09-13T15:58:46.926Z,,0,,,5197.549999713898,completion,,,,,false,,,,725407.2999997139,725407.2999997139,720193.096,720204.5999999046,720209.75,725419.896,8,400,,,
trial,html.Screen,4_94_0,2023-09-13T15:58:52.287Z,,0,2,,5348.403999713948,response,ISIC_5796736.JPG,4,ISIC_0026160.JPG,ISIC_5796736.JPG,false,1,keypress(m),500,730768.4000000954,730768.2999997139,725403.206,725407.5,725419.896,730780.3,8,400,45,,ISIC_0026160.JPG
break,html.Screen,4_94_1,2023-09-13T15:58:52.287Z,,0,,,NaN,,,,,,false,,,,730769,730768.7999997139,,730768.5,,730780.3,8,400,,,
break_continue,html.Screen,4_94_2,2023-09-13T15:58:52.288Z,,0,,,NaN,,,,,,false,,,,730769.4000000954,730769.2999997139,,730769.0999999046,,730780.3,8,400,,,
sequence,flow.Sequence,4_94,2023-09-13T15:58:52.288Z,,0,,,5349.403999713948,completion,,,,,false,,,,730769.5,730769.2999997139,725403.206,725407.4000000954,725419.896,730780.3,8,400,,,
trial,html.Screen,4_95_0,2023-09-13T15:58:57.637Z,,0,2,,5338.699999999953,response,ISIC_4170698.JPG,4,ISIC_7935989.JPG,ISIC_7935989.JPG,false,0,keypress(z),500,736119.1999998093,736119,730763.626,730769.5999999046,730780.3,736124.041,8,400,46,,ISIC_4170698.JPG
break,html.Screen,4_95_1,2023-09-13T15:58:57.638Z,,0,,,NaN,,,,,,false,,,,736119.6999998093,736119.5,,736119.2999997139,,736124.041,8,400,,,
break_continue,html.Screen,4_95_2,2023-09-13T15:58:57.638Z,,0,,,NaN,,,,,,false,,,,736119.9000000954,736119.9000000954,,736119.6999998093,,736124.041,8,400,,,
sequence,flow.Sequence,4_95,2023-09-13T15:58:57.638Z,,0,,,5339.600000095321,completion,,,,,false,,,,736120,736119.9000000954,730763.626,730769.5,730780.3,736124.041,8,400,,,
trial,html.Screen,4_96_0,2023-09-13T15:59:03.799Z,,0,2,,6157.058999904664,response,ISIC_0027149.JPG,5,ISIC_0064071.JPG,ISIC_0064071.JPG,false,0,keypress(z),500,742281.1999998093,742281.0999999046,736107.372,736120,736124.041,742286.044,8,400,47,,ISIC_0027149.JPG
break,html.Screen,4_96_1,2023-09-13T15:59:03.800Z,,0,,,NaN,,,,,,false,,,,742281.5999999046,742281.5999999046,,742281.2999997139,,742286.044,8,400,,,
break_continue,html.Screen,4_96_2,2023-09-13T15:59:03.800Z,,0,,,NaN,,,,,,false,,,,742281.7999997139,742281.7999997139,,742281.6999998093,,742286.044,8,400,,,
sequence,flow.Sequence,4_96,2023-09-13T15:59:03.800Z,,0,,,6157.758999713929,completion,,,,,false,,,,742281.9000000954,742281.7999997139,736107.372,736120,736124.041,742286.044,8,400,,,
trial,html.Screen,4_97_0,2023-09-13T15:59:09.626Z,,0,2,,5821.456000000006,response,ISIC_0010862.JPG,5,ISIC_4728589.JPG,ISIC_4728589.JPG,false,0,keypress(z),500,748107.5999999046,748107.5,742269.376,742281.9000000954,742286.044,748114.049,8,400,48,,ISIC_0010862.JPG
break,html.Screen,4_97_1,2023-09-13T15:59:09.626Z,,0,,,NaN,,,,,,false,,,,748108.2999997139,748108.0999999046,,748107.7999997139,,748114.049,8,400,,,
break_continue,html.Screen,4_97_2,2023-09-13T15:59:09.627Z,,0,,,NaN,,,,,,false,,,,748108.5,748108.4000000954,,748108.2999997139,,748114.049,8,400,,,
sequence,flow.Sequence,4_97,2023-09-13T15:59:09.627Z,,0,,,5822.356000095373,completion,,,,,false,,,,748108.6999998093,748108.4000000954,742269.376,742281.9000000954,742286.044,748114.049,8,400,,,
trial,html.Screen,4_98_0,2023-09-13T15:59:14.208Z,,0,2,,4573.750999713899,response,ISIC_0011497.JPG,6,ISIC_8048668.JPG,ISIC_8048668.JPG,false,0,keypress(z),500,752688,752687.7999997139,748097.379,748108.7999997139,748114.049,752689.619,8,400,49,,ISIC_0011497.JPG
break,html.Screen,4_98_1,2023-09-13T15:59:14.208Z,,0,,,NaN,,,,,,false,,,,752688.5999999046,752688.5,,752688.0999999046,,752689.619,8,400,,,
break_continue,html.Screen,4_98_2,2023-09-13T15:59:14.208Z,,0,,,NaN,,,,,,false,,,,752688.9000000954,752688.7999997139,,752688.5999999046,,752689.619,8,400,,,
sequence,flow.Sequence,4_98,2023-09-13T15:59:14.209Z,,0,,,4574.750999713899,completion,,,,,false,,,,752689,752688.7999997139,748097.379,748108.6999998093,748114.049,752689.619,8,400,,,
trial,html.Screen,4_99_0,2023-09-13T15:59:19.449Z,,0,2,,5239.78100009542,response,ISIC_0013615.JPG,5,ISIC_6653311.JPG,ISIC_6653311.JPG,false,0,keypress(z),500,757929.5999999046,757929.4000000954,752672.935,752689,752689.619,757949.977,8,400,50,,ISIC_0013615.JPG
break,html.Screen,4_99_1,2023-09-13T15:59:29.456Z,,0,,,10002.782000000007,timeout,,,,,false,,,,767936.5,767936.047,757933.283,757929.5999999046,757949.977,767952.759,8,400,,,
break_continue,html.Screen,4_99_2,2023-09-13T16:00:25.139Z,,0,,,55647.4409998093,response,,,,,false,continue,keypress(Space),,823618.5999999046,823600.1999998093,767936.047,767936.5999999046,767952.759,823627.75,8,400,,,
sequence,flow.Sequence,4_99,2023-09-13T16:00:25.139Z,,0,,,70910.58099980932,completion,,,,,false,,,,823618.7999997139,823600.1999998093,752672.935,752689,752689.619,823627.75,8,400,,,
trial,html.Screen,4_100_0,2023-09-13T16:00:33.254Z,,0,3,,8105.349999904633,response,ISIC_0013459.JPG,6,ISIC_4292708.JPG,ISIC_0013459.JPG,false,1,keypress(m),500,831733.5,831733.0999999046,823611.113,823618.7999997139,823627.75,831743.543,8,400,1,,ISIC_4292708.JPG
break,html.Screen,4_100_1,2023-09-13T16:00:33.256Z,,0,,,NaN,,,,,,false,,,,831735.4000000954,831734.7999997139,,831733.9000000954,,831743.543,8,400,,,
break_continue,html.Screen,4_100_2,2023-09-13T16:00:33.257Z,,0,,,NaN,,,,,,false,,,,831736.1999998093,831736,,831735.5999999046,,831743.543,8,400,,,
sequence,flow.Sequence,4_100,2023-09-13T16:00:33.257Z,,0,,,8108.25,completion,,,,,false,,,,831736.5,831736,823611.113,823618.7999997139,823627.75,831743.543,8,400,,,
trial,html.Screen,4_101_0,2023-09-13T16:00:40.113Z,,0,3,,6848.957000000053,response,ISIC_0001745.JPG,6,ISIC_0059170.JPG,ISIC_0001745.JPG,false,1,keypress(m),500,838592.5999999046,838592.5,831726.792,831736.7999997139,831743.543,838606.893,8,400,2,,ISIC_0059170.JPG
break,html.Screen,4_101_1,2023-09-13T16:00:40.114Z,,0,,,NaN,,,,,,false,,,,838593.4000000954,838593.0999999046,,838592.6999998093,,838606.893,8,400,,,
break_continue,html.Screen,4_101_2,2023-09-13T16:00:40.114Z,,0,,,NaN,,,,,,false,,,,838593.6999998093,838593.5999999046,,838593.5,,838606.893,8,400,,,
sequence,flow.Sequence,4_101,2023-09-13T16:00:40.114Z,,0,,,6850.056999904686,completion,,,,,false,,,,838593.7999997139,838593.5999999046,831726.792,831736.6999998093,831743.543,838606.893,8,400,,,
trial,html.Screen,4_102_0,2023-09-13T16:00:45.240Z,,0,3,,5111.806999809225,response,ISIC_6406517.JPG,5,ISIC_0033241.JPG,ISIC_6406517.JPG,false,1,keypress(m),500,843718.9000000954,843718.6999998093,838590.214,838593.7999997139,838606.893,843733.64,8,400,3,,ISIC_0033241.JPG
break,html.Screen,4_102_1,2023-09-13T16:00:45.240Z,,0,,,NaN,,,,,,false,,,,843719.1999998093,843719.1999998093,,843719,,843733.64,8,400,,,
break_continue,html.Screen,4_102_2,2023-09-13T16:00:45.240Z,,0,,,NaN,,,,,,false,,,,843719.5,843719.4000000954,,843719.2999997139,,843733.64,8,400,,,
sequence,flow.Sequence,4_102,2023-09-13T16:00:45.240Z,,0,,,5112.507000095327,completion,,,,,false,,,,843719.5,843719.4000000954,838590.214,838593.7999997139,838606.893,843733.64,8,400,,,
trial,html.Screen,4_103_0,2023-09-13T16:00:51.674Z,,0,3,,6419.159999713884,response,ISIC_9021685.JPG,4,ISIC_3256116.JPG,ISIC_9021685.JPG,false,1,keypress(m),500,850152.9000000954,850152.7999997139,843716.796,843719.5,843733.64,850162.677,8,400,4,,ISIC_3256116.JPG
break,html.Screen,4_103_1,2023-09-13T16:00:51.674Z,,0,,,NaN,,,,,,false,,,,850153.7999997139,850153.4000000954,,850153.0999999046,,850162.677,8,400,,,
break_continue,html.Screen,4_103_2,2023-09-13T16:00:51.675Z,,0,,,NaN,,,,,,false,,,,850153.9000000954,850153.9000000954,,850153.7999997139,,850162.677,8,400,,,
sequence,flow.Sequence,4_103,2023-09-13T16:00:51.675Z,,0,,,6420.2600000953535,completion,,,,,false,,,,850154.0999999046,850153.9000000954,843716.796,843719.5,843733.64,850162.677,8,400,,,
trial,html.Screen,4_104_0,2023-09-13T16:00:59.644Z,,0,3,,7961.02299980924,response,ISIC_0057244.JPG,5,ISIC_0030435.JPG,ISIC_0057244.JPG,false,1,keypress(m),500,858123.7999997139,858123.6999998093,850146.127,850154.1999998093,850162.677,858128.23,8,400,5,,ISIC_0030435.JPG
break,html.Screen,4_104_1,2023-09-13T16:00:59.645Z,,0,,,NaN,,,,,,false,,,,858124.2999997139,858124.0999999046,,858123.7999997139,,858128.23,8,400,,,
break_continue,html.Screen,4_104_2,2023-09-13T16:00:59.645Z,,0,,,NaN,,,,,,false,,,,858124.5999999046,858124.5,,858124.5,,858128.23,8,400,,,
sequence,flow.Sequence,4_104,2023-09-13T16:00:59.645Z,,0,,,7961.822999999975,completion,,,,,false,,,,858124.6999998093,858124.5,850146.127,850154.0999999046,850162.677,858128.23,8,400,,,
trial,html.Screen,4_105_0,2023-09-13T16:01:06.032Z,,0,3,,6383.069999713916,response,ISIC_8893501.JPG,4,ISIC_0002026.JPG,ISIC_0002026.JPG,false,0,keypress(z),500,864511.4000000954,864511.2999997139,858111.532,858124.7999997139,858128.23,864540.724,8,400,6,,ISIC_8893501.JPG
break,html.Screen,4_105_1,2023-09-13T16:01:06.032Z,,0,,,NaN,,,,,,false,,,,864511.7999997139,864511.6999998093,,864511.4000000954,,864540.724,8,400,,,
break_continue,html.Screen,4_105_2,2023-09-13T16:01:06.033Z,,0,,,NaN,,,,,,false,,,,864512.0999999046,864512,,864511.9000000954,,864540.724,8,400,,,
sequence,flow.Sequence,4_105,2023-09-13T16:01:06.033Z,,0,,,6383.770000000019,completion,,,,,false,,,,864512.1999998093,864512,858111.532,858124.6999998093,858128.23,864540.724,8,400,,,
trial,html.Screen,4_106_0,2023-09-13T16:01:11.395Z,,0,3,,5333.275999999954,response,ISIC_2614347.JPG,5,ISIC_0011193.JPG,ISIC_2614347.JPG,false,1,keypress(m),500,869874.1999998093,869874,864523.965,864512.2999997139,864540.724,869884.334,8,400,7,,ISIC_0011193.JPG
break,html.Screen,4_106_1,2023-09-13T16:01:11.395Z,,0,,,NaN,,,,,,false,,,,869874.6999998093,869874.5,,869874.1999998093,,869884.334,8,400,,,
break_continue,html.Screen,4_106_2,2023-09-13T16:01:11.396Z,,0,,,NaN,,,,,,false,,,,869874.9000000954,869874.7999997139,,869874.7999997139,,869884.334,8,400,,,
sequence,flow.Sequence,4_106,2023-09-13T16:01:11.396Z,,0,,,5334.075999713852,completion,,,,,false,,,,869875,869874.7999997139,864523.965,864512.2999997139,864540.724,869884.334,8,400,,,
trial,html.Screen,4_107_0,2023-09-13T16:01:17.173Z,,0,3,,5767.765999904601,response,ISIC_0033724.JPG,6,ISIC_0068218.JPG,ISIC_0033724.JPG,false,1,keypress(m),500,875652.1999998093,875652.0999999046,869867.651,869875.0999999046,869884.334,875662.277,8,400,8,,ISIC_0068218.JPG
break,html.Screen,4_107_1,2023-09-13T16:01:17.173Z,,0,,,NaN,,,,,,false,,,,875652.6999998093,875652.5999999046,,875652.2999997139,,875662.277,8,400,,,
break_continue,html.Screen,4_107_2,2023-09-13T16:01:17.174Z,,0,,,NaN,,,,,,false,,,,875652.9000000954,875652.9000000954,,875652.7999997139,,875662.277,8,400,,,
sequence,flow.Sequence,4_107,2023-09-13T16:01:17.174Z,,0,,,5768.566000095336,completion,,,,,false,,,,875653,875652.9000000954,869867.651,869875,869884.334,875662.277,8,400,,,
trial,html.Screen,4_108_0,2023-09-13T16:01:22.395Z,,0,3,,5210.222999999998,response,ISIC_4724660.JPG,5,ISIC_2183722.JPG,ISIC_2183722.JPG,false,0,keypress(z),500,880872.6999998093,880872.5,875645.544,875653.0999999046,875662.277,880889.285,8,400,9,,ISIC_4724660.JPG
break,html.Screen,4_108_1,2023-09-13T16:01:22.396Z,,0,,,NaN,,,,,,false,,,,880873.2999997139,880873.0999999046,,880872.9000000954,,880889.285,8,400,,,
break_continue,html.Screen,4_108_2,2023-09-13T16:01:22.396Z,,0,,,NaN,,,,,,false,,,,880873.5999999046,880873.5,,880873.2999997139,,880889.285,8,400,,,
sequence,flow.Sequence,4_108,2023-09-13T16:01:22.396Z,,0,,,5211.222999999998,completion,,,,,false,,,,880873.6999998093,880873.5,875645.544,875653,875662.277,880889.285,8,400,,,
trial,html.Screen,4_109_0,2023-09-13T16:01:27.855Z,,0,3,,5442.4149998092325,response,ISIC_1939413.JPG,5,ISIC_0305928.JPG,ISIC_0305928.JPG,false,0,keypress(z),500,886331.9000000954,886331.6999998093,880872.525,880873.6999998093,880889.285,886333.054,8,400,10,,ISIC_1939413.JPG
break,html.Screen,4_109_1,2023-09-13T16:01:27.855Z,,0,,,NaN,,,,,,false,,,,886332.5,886332.2999997139,,886332,,886333.054,8,400,,,
break_continue,html.Screen,4_109_2,2023-09-13T16:01:27.855Z,,0,,,NaN,,,,,,false,,,,886332.6999998093,886332.5,,886332.5,,886333.054,8,400,,,
sequence,flow.Sequence,4_109,2023-09-13T16:01:27.855Z,,0,,,5443.214999999967,completion,,,,,false,,,,886332.6999998093,886332.5,880872.525,880873.6999998093,880889.285,886333.054,8,400,,,
trial,html.Screen,4_110_0,2023-09-13T16:01:32.438Z,,0,3,,4581.846000095364,response,ISIC_0058950.JPG,5,ISIC_8154363.JPG,ISIC_0058950.JPG,false,1,keypress(m),500,890915.0999999046,890914.9000000954,886316.373,886332.7999997139,886333.054,890941.985,8,400,11,,ISIC_8154363.JPG
break,html.Screen,4_110_1,2023-09-13T16:01:32.439Z,,0,,,NaN,,,,,,false,,,,890915.9000000954,890915.5999999046,,890915.1999998093,,890941.985,8,400,,,
break_continue,html.Screen,4_110_2,2023-09-13T16:01:32.439Z,,0,,,NaN,,,,,,false,,,,890916.0999999046,890916.0999999046,,890916,,890941.985,8,400,,,
sequence,flow.Sequence,4_110,2023-09-13T16:01:32.439Z,,0,,,4583.045999904629,completion,,,,,false,,,,890916.2999997139,890916.0999999046,886316.373,886332.6999998093,886333.054,890941.985,8,400,,,
trial,html.Screen,4_111_0,2023-09-13T16:01:37.004Z,,0,3,,4539.314999713912,response,ISIC_0057287.JPG,5,ISIC_0033957.JPG,ISIC_0057287.JPG,false,1,keypress(m),500,895481.7999997139,895481.2999997139,890925.284,890916.4000000954,890941.985,895484.309,8,400,12,,ISIC_0033957.JPG
break,html.Screen,4_111_1,2023-09-13T16:01:37.006Z,,0,,,NaN,,,,,,false,,,,895483.2999997139,895482.9000000954,,895482.1999998093,,895484.309,8,400,,,
break_continue,html.Screen,4_111_2,2023-09-13T16:01:37.007Z,,0,,,NaN,,,,,,false,,,,895484.0999999046,895483.9000000954,,895483.5,,895484.309,8,400,,,
sequence,flow.Sequence,4_111,2023-09-13T16:01:37.007Z,,0,,,4541.915000095381,completion,,,,,false,,,,895484.4000000954,895483.9000000954,890925.284,890916.4000000954,890941.985,895484.309,8,400,,,
trial,html.Screen,4_112_0,2023-09-13T16:01:42.358Z,,0,3,,5350.490999713889,response,ISIC_0937261.JPG,5,ISIC_8837443.JPG,ISIC_8837443.JPG,false,0,keypress(z),500,900835,900834.7999997139,895467.486,895484.6999998093,895484.309,900861.3,8,400,13,,ISIC_0937261.JPG
break,html.Screen,4_112_1,2023-09-13T16:01:42.359Z,,0,,,NaN,,,,,,false,,,,900836.5999999046,900836.1999998093,,900835.5,,900861.3,8,400,,,
break_continue,html.Screen,4_112_2,2023-09-13T16:01:42.360Z,,0,,,NaN,,,,,,false,,,,900837.4000000954,900837.1999998093,,900836.9000000954,,900861.3,8,400,,,
sequence,flow.Sequence,4_112,2023-09-13T16:01:42.361Z,,0,,,5352.890999809257,completion,,,,,false,,,,900837.9000000954,900837.1999998093,895467.486,895484.5,895484.309,900861.3,8,400,,,
trial,html.Screen,4_113_0,2023-09-13T16:01:47.691Z,,0,3,,5307.299999904586,response,ISIC_0067390.JPG,5,ISIC_0025546.JPG,ISIC_0067390.JPG,false,1,keypress(m),500,906168.7999997139,906168.5999999046,900844.615,900838.0999999046,900861.3,906171.659,8,400,14,,ISIC_0025546.JPG
break,html.Screen,4_113_1,2023-09-13T16:01:47.692Z,,0,,,NaN,,,,,,false,,,,906169.5,906169.1999998093,,906168.9000000954,,906171.659,8,400,,,
break_continue,html.Screen,4_113_2,2023-09-13T16:01:47.693Z,,0,,,NaN,,,,,,false,,,,906169.9000000954,906169.6999998093,,906169.5999999046,,906171.659,8,400,,,
sequence,flow.Sequence,4_113,2023-09-13T16:01:47.693Z,,0,,,5308.399999809219,completion,,,,,false,,,,906169.9000000954,906169.6999998093,900844.615,900838,900861.3,906171.659,8,400,,,
trial,html.Screen,4_114_0,2023-09-13T16:01:54.254Z,,0,3,,6559.841000000015,response,ISIC_0010719.JPG,5,ISIC_7342840.JPG,ISIC_7342840.JPG,false,0,keypress(z),500,912731.6999998093,912731.5,906155.133,906170.0999999046,906171.659,912751.09,8,400,15,,ISIC_0010719.JPG
break,html.Screen,4_114_1,2023-09-13T16:01:54.255Z,,0,,,NaN,,,,,,false,,,,912732.0999999046,912731.9000000954,,912731.6999998093,,912751.09,8,400,,,
break_continue,html.Screen,4_114_2,2023-09-13T16:01:54.255Z,,0,,,NaN,,,,,,false,,,,912732.5,912732.5,,912732.2999997139,,912751.09,8,400,,,
sequence,flow.Sequence,4_114,2023-09-13T16:01:54.255Z,,0,,,6560.841000000015,completion,,,,,false,,,,912732.5999999046,912732.5,906155.133,906170,906171.659,912751.09,8,400,,,
trial,html.Screen,4_115_0,2023-09-13T16:02:00.945Z,,0,3,,6670.70999971393,response,ISIC_0003132.JPG,5,ISIC_0069050.JPG,ISIC_0003132.JPG,false,1,keypress(m),500,919422.1999998093,919421.7999997139,912717.728,912732.6999998093,912751.09,919430.874,8,400,16,,ISIC_0069050.JPG
break,html.Screen,4_115_1,2023-09-13T16:02:00.947Z,,0,,,NaN,,,,,,false,,,,919424,919423.5,,919422.7999997139,,919430.874,8,400,,,
break_continue,html.Screen,4_115_2,2023-09-13T16:02:00.948Z,,0,,,NaN,,,,,,false,,,,919424.7999997139,919424.5999999046,,919424.2999997139,,919430.874,8,400,,,
sequence,flow.Sequence,4_115,2023-09-13T16:02:00.948Z,,0,,,6673.509999904665,completion,,,,,false,,,,919425.2999997139,919424.5999999046,912717.728,912732.5999999046,912751.09,919430.874,8,400,,,
trial,html.Screen,4_116_0,2023-09-13T16:02:07.047Z,,0,3,,6093.6260000000475,response,ISIC_0030462.JPG,5,ISIC_0067893.JPG,ISIC_0067893.JPG,false,0,keypress(z),500,925524.5999999046,925524.5,919414.069,919425.5999999046,919430.874,925525.973,8,400,17,,ISIC_0030462.JPG
break,html.Screen,4_116_1,2023-09-13T16:02:07.048Z,,0,,,NaN,,,,,,false,,,,925525.6999998093,925525.4000000954,,925524.9000000954,,925525.973,8,400,,,
break_continue,html.Screen,4_116_2,2023-09-13T16:02:07.049Z,,0,,,NaN,,,,,,false,,,,925526.5,925526.2999997139,,925525.9000000954,,925525.973,8,400,,,
sequence,flow.Sequence,4_116,2023-09-13T16:02:07.050Z,,0,,,6095.425999713945,completion,,,,,false,,,,925526.9000000954,925526.2999997139,919414.069,919425.5,919430.874,925525.973,8,400,,,
trial,html.Screen,4_117_0,2023-09-13T16:02:11.580Z,,0,3,,4531.226999809267,response,ISIC_0000043.JPG,4,ISIC_0026685.JPG,ISIC_0026685.JPG,false,0,keypress(z),500,930057.2999997139,930057.1999998093,925509.36,925527.1999998093,925525.973,930068.147,8,400,18,,ISIC_0000043.JPG
break,html.Screen,4_117_1,2023-09-13T16:02:11.580Z,,0,,,NaN,,,,,,false,,,,930057.7999997139,930057.5999999046,,930057.4000000954,,930068.147,8,400,,,
break_continue,html.Screen,4_117_2,2023-09-13T16:02:11.581Z,,0,,,NaN,,,,,,false,,,,930057.9000000954,930057.9000000954,,930057.7999997139,,930068.147,8,400,,,
sequence,flow.Sequence,4_117,2023-09-13T16:02:11.581Z,,0,,,4531.927000095369,completion,,,,,false,,,,930058,930057.9000000954,925509.36,925527.0999999046,925525.973,930068.147,8,400,,,
trial,html.Screen,4_118_0,2023-09-13T16:02:16.259Z,,0,3,,4668.25300009537,response,ISIC_0010750.JPG,5,ISIC_2953279.JPG,ISIC_2953279.JPG,false,0,keypress(z),500,934736.5,934736.4000000954,930051.427,930058.0999999046,930068.147,934743.875,8,400,19,,ISIC_0010750.JPG
break,html.Screen,4_118_1,2023-09-13T16:02:16.260Z,,0,,,NaN,,,,,,false,,,,934737,934736.9000000954,,934736.6999998093,,934743.875,8,400,,,
break_continue,html.Screen,4_118_2,2023-09-13T16:02:16.260Z,,0,,,NaN,,,,,,false,,,,934737.2999997139,934737.1999998093,,934737.0999999046,,934743.875,8,400,,,
sequence,flow.Sequence,4_118,2023-09-13T16:02:16.260Z,,0,,,4669.052999809268,completion,,,,,false,,,,934737.4000000954,934737.1999998093,930051.427,930058.0999999046,930068.147,934743.875,8,400,,,
trial,html.Screen,4_119_0,2023-09-13T16:02:23.615Z,,0,3,,7346.525000095367,response,ISIC_0025653.JPG,5,ISIC_2463014.JPG,ISIC_2463014.JPG,false,0,keypress(z),500,942090.5,942090.4000000954,934727.175,934737.4000000954,934743.875,942091.519,8,400,20,,ISIC_0025653.JPG
break,html.Screen,4_119_1,2023-09-13T16:02:23.615Z,,0,,,NaN,,,,,,false,,,,942091,942090.9000000954,,942090.6999998093,,942091.519,8,400,,,
break_continue,html.Screen,4_119_2,2023-09-13T16:02:23.615Z,,0,,,NaN,,,,,,false,,,,942091.1999998093,942091.1999998093,,942091.0999999046,,942091.519,8,400,,,
sequence,flow.Sequence,4_119,2023-09-13T16:02:23.615Z,,0,,,7347.324999809265,completion,,,,,false,,,,942091.2999997139,942091.1999998093,934727.175,934737.4000000954,934743.875,942091.519,8,400,,,
trial,html.Screen,4_120_0,2023-09-13T16:02:29.362Z,,0,3,,5745.881000095396,response,ISIC_0071778.JPG,5,ISIC_0536321.JPG,ISIC_0536321.JPG,false,0,keypress(z),500,947837.5,947837.4000000954,942074.839,942091.5,942091.519,947869.503,8,400,21,,ISIC_0071778.JPG
break,html.Screen,4_120_1,2023-09-13T16:02:29.362Z,,0,,,NaN,,,,,,false,,,,947838.1999998093,947837.9000000954,,947837.5999999046,,947869.503,8,400,,,
break_continue,html.Screen,4_120_2,2023-09-13T16:02:29.362Z,,0,,,NaN,,,,,,false,,,,947838.5,947838.4000000954,,947838.1999998093,,947869.503,8,400,,,
sequence,flow.Sequence,4_120,2023-09-13T16:02:29.363Z,,0,,,5746.881000095396,completion,,,,,false,,,,947838.5999999046,947838.4000000954,942074.839,942091.5,942091.519,947869.503,8,400,,,
trial,html.Screen,4_121_0,2023-09-13T16:02:37.636Z,,0,3,,8242.596999904606,response,ISIC_0014133.JPG,5,ISIC_0411688.JPG,ISIC_0014133.JPG,false,1,keypress(m),500,956112.1999998093,956112.0999999046,947852.832,947838.5999999046,947869.503,956118.886,8,400,22,,ISIC_0411688.JPG
break,html.Screen,4_121_1,2023-09-13T16:02:37.637Z,,0,,,NaN,,,,,,false,,,,956112.9000000954,956112.6999998093,,956112.4000000954,,956118.886,8,400,,,
break_continue,html.Screen,4_121_2,2023-09-13T16:02:37.637Z,,0,,,NaN,,,,,,false,,,,956113.1999998093,956113.0999999046,,956113,,956118.886,8,400,,,
sequence,flow.Sequence,4_121,2023-09-13T16:02:37.637Z,,0,,,8243.596999904606,completion,,,,,false,,,,956113.2999997139,956113.0999999046,947852.832,947838.5999999046,947869.503,956118.886,8,400,,,
trial,html.Screen,4_122_0,2023-09-13T16:02:43.896Z,,0,3,,6252.813999809208,response,ISIC_6674797.JPG,5,ISIC_7532154.JPG,ISIC_7532154.JPG,false,0,keypress(z),500,962372,962371.6999998093,956102.18,956113.5,956118.886,962381.046,8,400,23,,ISIC_6674797.JPG
break,html.Screen,4_122_1,2023-09-13T16:02:43.898Z,,0,,,NaN,,,,,,false,,,,962373.9000000954,962373.1999998093,,962372.4000000954,,962381.046,8,400,,,
break_continue,html.Screen,4_122_2,2023-09-13T16:02:43.899Z,,0,,,NaN,,,,,,false,,,,962374.7999997139,962374.5999999046,,962374.1999998093,,962381.046,8,400,,,
sequence,flow.Sequence,4_122,2023-09-13T16:02:43.899Z,,0,,,6255.713999904576,completion,,,,,false,,,,962375.0999999046,962374.5999999046,956102.18,956113.4000000954,956118.886,962381.046,8,400,,,
trial,html.Screen,4_123_0,2023-09-13T16:02:50.085Z,,0,3,,6179.454000000027,response,ISIC_7052658.JPG,6,ISIC_9395707.JPG,ISIC_7052658.JPG,false,1,keypress(m),500,968560.5999999046,968560.5,962364.272,962375.4000000954,962381.046,968576.407,8,400,24,,ISIC_9395707.JPG
break,html.Screen,4_123_1,2023-09-13T16:02:50.085Z,,0,,,NaN,,,,,,false,,,,968561,968560.9000000954,,968560.6999998093,,968576.407,8,400,,,
break_continue,html.Screen,4_123_2,2023-09-13T16:02:50.085Z,,0,,,NaN,,,,,,false,,,,968561.1999998093,968561.0999999046,,968561.0999999046,,968576.407,8,400,,,
sequence,flow.Sequence,4_123,2023-09-13T16:02:50.085Z,,0,,,6180.05399990466,completion,,,,,false,,,,968561.1999998093,968561.0999999046,962364.272,962375.2999997139,962381.046,968576.407,8,400,,,
trial,html.Screen,4_124_0,2023-09-13T16:02:58.231Z,,0,3,,8130.892999713891,response,ISIC_3459981.JPG,4,ISIC_5305288.JPG,ISIC_5305288.JPG,false,0,keypress(z),500,976707.4000000954,976707.2999997139,968559.795,968561.1999998093,968576.407,976708.877,8,400,25,,ISIC_3459981.JPG
break,html.Screen,4_124_1,2023-09-13T16:02:58.232Z,,0,,,NaN,,,,,,false,,,,976708,976707.7999997139,,976707.5999999046,,976708.877,8,400,,,
break_continue,html.Screen,4_124_2,2023-09-13T16:02:58.232Z,,0,,,NaN,,,,,,false,,,,976708.2999997139,976708.1999998093,,976708.0999999046,,976708.877,8,400,,,
sequence,flow.Sequence,4_124,2023-09-13T16:02:58.233Z,,0,,,8131.792999809259,completion,,,,,false,,,,976708.4000000954,976708.1999998093,968559.795,968561.1999998093,968576.407,976708.877,8,400,,,
trial,html.Screen,4_125_0,2023-09-13T16:03:02.942Z,,0,3,,4708.922999713919,response,ISIC_0030554.JPG,5,ISIC_9588065.JPG,ISIC_9588065.JPG,false,0,keypress(z),500,981418,981417.7999997139,976692.274,976708.5999999046,976708.877,981434.779,8,400,26,,ISIC_0030554.JPG
break,html.Screen,4_125_1,2023-09-13T16:03:02.943Z,,0,,,NaN,,,,,,false,,,,981418.5999999046,981418.4000000954,,981418.0999999046,,981434.779,8,400,,,
break_continue,html.Screen,4_125_2,2023-09-13T16:03:02.943Z,,0,,,NaN,,,,,,false,,,,981419,981418.9000000954,,981418.6999998093,,981434.779,8,400,,,
sequence,flow.Sequence,4_125,2023-09-13T16:03:02.943Z,,0,,,4710.023000095389,completion,,,,,false,,,,981419.0999999046,981418.9000000954,976692.274,976708.5,976708.877,981434.779,8,400,,,
trial,html.Screen,4_126_0,2023-09-13T16:03:08.375Z,,0,3,,5415.621000095387,response,ISIC_3169133.JPG,4,ISIC_1578253.JPG,ISIC_3169133.JPG,false,1,keypress(m),500,986850.5,986850.4000000954,981418.058,981419.2999997139,981434.779,986862.028,8,400,27,,ISIC_1578253.JPG
break,html.Screen,4_126_1,2023-09-13T16:03:08.375Z,,0,,,NaN,,,,,,false,,,,986851,986850.7999997139,,986850.5999999046,,986862.028,8,400,,,
