sender,sender_type,sender_id,timestamp,meta,,blockNo,condition,duration,ended_on,img_left,img_reveal,img_right,loser,practice,response,response_action,selection_duration,time_commit,time_end,time_render,time_run,time_show,time_switch,total_blocks,total_trials,trialNo,url,winner
informed_consent,html.Screen,0,2023-09-13T15:46:20.067Z,"{""labjs_version"":""20.2.4"",""labjs_build"":{""flavor"":""development"",""commit"":""f5b4a49f956347addd546a832a3327688c2c0fef""},""location"":""https://labjs.felixhenninger.com/api/labjs_preview/index.html"",""userAgent"":""Mozilla/5.0 (Windows NT 10.0; Win64; x64) AppleWebKit/537.36 (KHTML, like Gecko) Chrome/116.0.0.0 Safari/537.36"",""platform"":""Win32"",""language"":""en-AU"",""locale"":""en-US"",""timeZone"":""America/Chicago"",""timezoneOffset"":300,""screen_width"":2560,""screen_height"":1440,""scroll_width"":1296,""scroll_height"":688,""window_innerWidth"":1296,""window_innerHeight"":736,""devicePixelRatio"":1}",,,,4910.33499961853,response,,,,,,consent,click button,,5491.799999713898,5490.89999961853,563.831,574.2999997138977,580.565,5506.802,,,,{},
Welcome,html.Screen,1,2023-09-13T15:46:20.309Z,,,,asymmetry,226.19800000000032,response,,,,,,continue,click button,,5733.599999904633,5733,5490.275,5492.099999904633,5506.802,5740.543,,,,,
trial,html.Screen,2_0_0,2023-09-13T15:46:31.806Z,,0,0,,11522.626000000002,timeout,ISIC_0069348.JPG,,ISIC_6997061.JPG,,true,,,500,17230.39999961853,17230.199999809265,5723.877,5733.799999713898,5740.543,17263.169,1,6,1,,
sequence,flow.Sequence,2_0,2023-09-13T15:46:31.806Z,,0,,,11489.656999809265,completion,,,,,true,,,,17230.599999904633,17230.199999809265,5723.877,5733.799999713898,5740.543,17263.169,1,6,,,
trial,html.Screen,2_1_0,2023-09-13T15:46:43.330Z,,0,0,,11522.337,timeout,ISIC_0057368.JPG,,ISIC_0009529.JPG,,true,,,500,28752.699999809265,28752.599999904633,17246.328,17230.699999809265,17263.169,28785.506,1,6,2,,
sequence,flow.Sequence,2_1,2023-09-13T15:46:43.330Z,,0,,,11489.43099990463,completion,,,,,true,,,,28752.89999961853,28752.599999904633,17246.328,17230.699999809265,17263.169,28785.506,1,6,,,
trial,html.Screen,2_2_0,2023-09-13T15:46:54.852Z,,0,0,,11522.422999999995,timeout,ISIC_0064954.JPG,,ISIC_9758671.JPG,,true,,,500,40275.199999809265,40275,28768.759,28753,28785.506,40307.929,1,6,3,,
sequence,flow.Sequence,2_2,2023-09-13T15:46:54.853Z,,0,,,11489.493999999999,completion,,,,,true,,,,40275.39999961853,40275,28768.759,28752.89999961853,28785.506,40307.929,1,6,,,
trial,html.Screen,2_3_0,2023-09-13T15:47:01.100Z,,0,0,,6215.170999904636,response,ISIC_0005785.JPG,,ISIC_0000080.JPG,ISIC_0000080.JPG,true,0,keypress(z),500,46523.199999809265,46523.09999990463,40291.232,40275.5,40307.929,46536.73,1,6,4,,ISIC_0005785.JPG
sequence,flow.Sequence,2_3,2023-09-13T15:47:01.101Z,,0,,,6215.170999904636,completion,,,,,true,,,,46523.39999961853,46523.09999990463,40291.232,40275.5,40307.929,46536.73,1,6,,,
trial,html.Screen,2_4_0,2023-09-13T15:47:04.110Z,,0,0,,2996.3699999046294,response,ISIC_7944028.JPG,,ISIC_5390060.JPG,ISIC_7944028.JPG,true,1,keypress(m),500,49533.09999990463,49533.09999990463,46520.019,46523.5,46536.73,49542.509,1,6,5,,ISIC_5390060.JPG
sequence,flow.Sequence,2_4,2023-09-13T15:47:04.110Z,,0,,,2996.3699999046294,completion,,,,,true,,,,49533.39999961853,49533.09999990463,46520.019,46523.39999961853,46536.73,49542.509,1,6,,,
trial,html.Screen,2_5_0,2023-09-13T15:47:06.896Z,,0,0,,2775.991000000002,response,ISIC_0010188.JPG,,ISIC_0794216.JPG,ISIC_0794216.JPG,true,0,keypress(z),500,52318.699999809265,52318.5,49525.893,49533.39999961853,49542.509,52331.342,1,6,6,,ISIC_0010188.JPG
sequence,flow.Sequence,2_5,2023-09-13T15:47:06.896Z,,0,,,2775.991000000002,completion,,,,,true,,,,52318.7999997139,52318.5,49525.893,49533.39999961853,49542.509,52331.342,1,6,,,
loop,flow.Loop,2,2023-09-13T15:47:06.896Z,,,,,46577.957,completion,,,,,true,,,,52318.89999961853,52318.5,5723.877,5733.699999809265,5740.543,52331.342,1,6,,,
exp_instructions,html.Screen,3,2023-09-13T15:47:29.307Z,,,,,22397.757999904636,response,,,,,,continue,keypress(Space),,74729.5,74729.09999990463,52314.659,52319,52331.342,74741.487,,,,,
trial,html.Screen,4_0_0,2023-09-13T15:47:35.326Z,,0,1,,6007.212999809271,response,ISIC_3825641.JPG,5,ISIC_0010878.JPG,ISIC_3825641.JPG,false,1,keypress(m),500,80749,80748.69999980927,74724.811,74729.69999980927,74741.487,80769.91,8,400,1,,ISIC_0010878.JPG
break,html.Screen,4_0_1,2023-09-13T15:47:35.327Z,,0,,,NaN,,,,,,false,,,,80750.19999980927,80749.89999961853,,80749.2999997139,,80769.91,8,400,,,
break_continue,html.Screen,4_0_2,2023-09-13T15:47:35.328Z,,0,,,NaN,,,,,,false,,,,80750.69999980927,80750.59999990463,,80750.2999997139,,80769.91,8,400,,,
sequence,flow.Sequence,4_0,2023-09-13T15:47:35.328Z,,0,,,6009.112999904639,completion,,,,,false,,,,80750.89999961853,80750.59999990463,74724.811,74729.59999990463,74741.487,80769.91,8,400,,,
trial,html.Screen,4_1_0,2023-09-13T15:47:42.436Z,,0,1,,7087.689999904629,response,ISIC_0028696.JPG,6,ISIC_0032484.JPG,ISIC_0028696.JPG,false,1,keypress(m),500,87857.7999997139,87857.59999990463,80753.298,80751,80769.91,87867.163,8,400,2,,ISIC_0032484.JPG
break,html.Screen,4_1_1,2023-09-13T15:47:42.437Z,,0,,,NaN,,,,,,false,,,,87858.2999997139,87858.09999990463,,87857.7999997139,,87867.163,8,400,,,
break_continue,html.Screen,4_1_2,2023-09-13T15:47:42.437Z,,0,,,NaN,,,,,,false,,,,87858.59999990463,87858.59999990463,,87858.39999961853,,87867.163,8,400,,,
sequence,flow.Sequence,4_1,2023-09-13T15:47:42.437Z,,0,,,7088.689999904629,completion,,,,,false,,,,87858.69999980927,87858.59999990463,80753.298,80751,80769.91,87867.163,8,400,,,
trial,html.Screen,4_2_0,2023-09-13T15:47:49.415Z,,0,1,,6968.73699961853,response,ISIC_0032682.JPG,6,ISIC_7702857.JPG,ISIC_7702857.JPG,false,0,keypress(z),500,94836,94835.89999961853,87850.403,87858.7999997139,87867.163,94847.336,8,400,3,,ISIC_0032682.JPG
break,html.Screen,4_2_1,2023-09-13T15:47:49.415Z,,0,,,NaN,,,,,,false,,,,94836.59999990463,94836.39999961853,,94836.19999980927,,94847.336,8,400,,,
break_continue,html.Screen,4_2_2,2023-09-13T15:47:49.415Z,,0,,,NaN,,,,,,false,,,,94836.7999997139,94836.69999980927,,94836.59999990463,,94847.336,8,400,,,
sequence,flow.Sequence,4_2,2023-09-13T15:47:49.415Z,,0,,,6969.536999809265,completion,,,,,false,,,,94836.7999997139,94836.69999980927,87850.403,87858.7999997139,87867.163,94847.336,8,400,,,
trial,html.Screen,4_3_0,2023-09-13T15:47:56.986Z,,0,1,,7560.063999618535,response,ISIC_0046597.JPG,4,ISIC_0031582.JPG,ISIC_0031582.JPG,false,0,keypress(z),500,102407.5,102407.39999961853,94830.606,94836.89999961853,94847.336,102412.061,8,400,4,,ISIC_0046597.JPG
break,html.Screen,4_3_1,2023-09-13T15:47:56.987Z,,0,,,NaN,,,,,,false,,,,102407.89999961853,102407.89999961853,,102407.59999990463,,102412.061,8,400,,,
break_continue,html.Screen,4_3_2,2023-09-13T15:47:56.987Z,,0,,,NaN,,,,,,false,,,,102408.09999990463,102408,,102407.89999961853,,102412.061,8,400,,,
sequence,flow.Sequence,4_3,2023-09-13T15:47:56.987Z,,0,,,7560.664000000004,completion,,,,,false,,,,102408.09999990463,102408,94830.606,94836.7999997139,94847.336,102412.061,8,400,,,
trial,html.Screen,4_4_0,2023-09-13T15:48:03.055Z,,0,1,,6064.538999904631,response,ISIC_0904712.JPG,5,ISIC_3291765.JPG,ISIC_0904712.JPG,false,1,keypress(m),500,108476.69999980927,108476.59999990463,102395.456,102408.19999980927,102412.061,108507.336,8,400,5,,ISIC_3291765.JPG
break,html.Screen,4_4_1,2023-09-13T15:48:03.056Z,,0,,,NaN,,,,,,false,,,,108477.09999990463,108477,,108476.7999997139,,108507.336,8,400,,,
break_continue,html.Screen,4_4_2,2023-09-13T15:48:03.056Z,,0,,,NaN,,,,,,false,,,,108477.2999997139,108477.19999980927,,108477.09999990463,,108507.336,8,400,,,
sequence,flow.Sequence,4_4,2023-09-13T15:48:03.056Z,,0,,,6065.138999809264,completion,,,,,false,,,,108477.39999961853,108477.19999980927,102395.456,102408.19999980927,102412.061,108507.336,8,400,,,
trial,html.Screen,4_5_0,2023-09-13T15:48:09.475Z,,0,1,,6388.463999713902,response,ISIC_0027600.JPG,5,ISIC_9462738.JPG,ISIC_0027600.JPG,false,1,keypress(m),500,114896,114895.7999997139,108490.691,108477.5,108507.336,114903.017,8,400,6,,ISIC_9462738.JPG
break,html.Screen,4_5_1,2023-09-13T15:48:09.475Z,,0,,,NaN,,,,,,false,,,,114896.69999980927,114896.39999961853,,114896.09999990463,,114903.017,8,400,,,
break_continue,html.Screen,4_5_2,2023-09-13T15:48:09.476Z,,0,,,NaN,,,,,,false,,,,114897,114896.89999961853,,114896.7999997139,,114903.017,8,400,,,
sequence,flow.Sequence,4_5,2023-09-13T15:48:09.476Z,,0,,,6389.563999618535,completion,,,,,false,,,,114897.09999990463,114896.89999961853,108490.691,108477.39999961853,108507.336,114903.017,8,400,,,
trial,html.Screen,4_6_0,2023-09-13T15:48:16.731Z,,0,1,,7249.5829999046255,response,ISIC_0010440.JPG,5,ISIC_0009882.JPG,ISIC_0010440.JPG,false,1,keypress(m),500,122152.69999980927,122152.59999990463,114886.421,114897.09999990463,114903.017,122167.14,8,400,7,,ISIC_0009882.JPG
break,html.Screen,4_6_1,2023-09-13T15:48:16.732Z,,0,,,NaN,,,,,,false,,,,122153.09999990463,122153,,122152.7999997139,,122167.14,8,400,,,
break_continue,html.Screen,4_6_2,2023-09-13T15:48:16.732Z,,0,,,NaN,,,,,,false,,,,122153.19999980927,122153.19999980927,,122153.19999980927,,122167.14,8,400,,,
sequence,flow.Sequence,4_6,2023-09-13T15:48:16.732Z,,0,,,7250.182999809258,completion,,,,,false,,,,122153.2999997139,122153.19999980927,114886.421,114897.09999990463,114903.017,122167.14,8,400,,,
trial,html.Screen,4_7_0,2023-09-13T15:48:22.434Z,,0,1,,5687.959999904633,response,ISIC_7466678.JPG,5,ISIC_0001102.JPG,ISIC_0001102.JPG,false,0,keypress(z),500,127855.2999997139,127855.09999990463,122150.636,122153.2999997139,122167.14,127861.568,8,400,8,,ISIC_7466678.JPG
break,html.Screen,4_7_1,2023-09-13T15:48:22.434Z,,0,,,NaN,,,,,,false,,,,127855.69999980927,127855.59999990463,,127855.39999961853,,127861.568,8,400,,,
break_continue,html.Screen,4_7_2,2023-09-13T15:48:22.435Z,,0,,,NaN,,,,,,false,,,,127855.89999961853,127855.7999997139,,127855.69999980927,,127861.568,8,400,,,
sequence,flow.Sequence,4_7,2023-09-13T15:48:22.435Z,,0,,,5688.659999713898,completion,,,,,false,,,,127855.89999961853,127855.7999997139,122150.636,122153.2999997139,122167.14,127861.568,8,400,,,
trial,html.Screen,4_8_0,2023-09-13T15:48:27.395Z,,0,1,,4955.031999904633,response,ISIC_4433832.JPG,5,ISIC_3372750.JPG,ISIC_3372750.JPG,false,0,keypress(z),500,132816.7999997139,132816.59999990463,127844.994,127855.89999961853,127861.568,132821.227,8,400,9,,ISIC_4433832.JPG
break,html.Screen,4_8_1,2023-09-13T15:48:27.396Z,,0,,,NaN,,,,,,false,,,,132817.2999997139,132817.09999990463,,132816.7999997139,,132821.227,8,400,,,
break_continue,html.Screen,4_8_2,2023-09-13T15:48:27.396Z,,0,,,NaN,,,,,,false,,,,132817.39999961853,132817.39999961853,,132817.2999997139,,132821.227,8,400,,,
sequence,flow.Sequence,4_8,2023-09-13T15:48:27.396Z,,0,,,4955.831999618531,completion,,,,,false,,,,132817.5,132817.39999961853,127844.994,127855.89999961853,127861.568,132821.227,8,400,,,
trial,html.Screen,4_9_0,2023-09-13T15:48:33.798Z,,0,1,,6398.2729999999865,response,ISIC_0010308.JPG,5,ISIC_0012137.JPG,ISIC_0012137.JPG,false,0,keypress(z),500,139219.69999980927,139219.5,132804.701,132817.5,132821.227,139233.7,8,400,10,,ISIC_0010308.JPG
break,html.Screen,4_9_1,2023-09-13T15:48:33.799Z,,0,,,NaN,,,,,,false,,,,139220.2999997139,139220.09999990463,,139219.7999997139,,139233.7,8,400,,,
break_continue,html.Screen,4_9_2,2023-09-13T15:48:33.799Z,,0,,,NaN,,,,,,false,,,,139220.59999990463,139220.5,,139220.39999961853,,139233.7,8,400,,,
sequence,flow.Sequence,4_9,2023-09-13T15:48:33.799Z,,0,,,6399.2729999999865,completion,,,,,false,,,,139220.59999990463,139220.5,132804.701,132817.5,132821.227,139233.7,8,400,,,
trial,html.Screen,4_10_0,2023-09-13T15:48:40.048Z,,0,1,,6234.199999618519,response,ISIC_6548734.JPG,4,ISIC_0025759.JPG,ISIC_6548734.JPG,false,1,keypress(m),500,145468,145467.89999961853,139217.098,139220.7999997139,139233.7,145495.915,8,400,11,,ISIC_0025759.JPG
break,html.Screen,4_10_1,2023-09-13T15:48:40.049Z,,0,,,NaN,,,,,,false,,,,145468.39999961853,145468.39999961853,,145468.09999990463,,145495.915,8,400,,,
break_continue,html.Screen,4_10_2,2023-09-13T15:48:40.049Z,,0,,,NaN,,,,,,false,,,,145468.59999990463,145468.59999990463,,145468.39999961853,,145495.915,8,400,,,
sequence,flow.Sequence,4_10,2023-09-13T15:48:40.049Z,,0,,,6234.899999904621,completion,,,,,false,,,,145468.69999980927,145468.59999990463,139217.098,139220.69999980927,139233.7,145495.915,8,400,,,
trial,html.Screen,4_11_0,2023-09-13T15:48:45.651Z,,0,1,,5574.88499971389,response,ISIC_0034106.JPG,5,ISIC_0014809.JPG,ISIC_0014809.JPG,false,0,keypress(z),500,151070.89999961853,151070.7999997139,145479.161,145468.69999980927,145495.915,151073.416,8,400,12,,ISIC_0034106.JPG
break,html.Screen,4_11_1,2023-09-13T15:48:45.652Z,,0,,,NaN,,,,,,false,,,,151071.39999961853,151071.2999997139,,151071,,151073.416,8,400,,,
break_continue,html.Screen,4_11_2,2023-09-13T15:48:45.652Z,,0,,,NaN,,,,,,false,,,,151071.7999997139,151071.7999997139,,151071.5,,151073.416,8,400,,,
sequence,flow.Sequence,4_11,2023-09-13T15:48:45.652Z,,0,,,5575.88499971389,completion,,,,,false,,,,151071.89999961853,151071.7999997139,145479.161,145468.69999980927,145495.915,151073.416,8,400,,,
trial,html.Screen,4_12_0,2023-09-13T15:48:50.780Z,,0,1,,5126.283999809268,response,ISIC_7895093.JPG,5,ISIC_0010397.JPG,ISIC_0010397.JPG,false,0,keypress(z),500,156200.09999990463,156199.69999980927,151056.808,151071.89999961853,151073.416,156216.715,8,400,13,,ISIC_7895093.JPG
break,html.Screen,4_12_1,2023-09-13T15:48:50.781Z,,0,,,NaN,,,,,,false,,,,156201.39999961853,156201.19999980927,,156200.5,,156216.715,8,400,,,
break_continue,html.Screen,4_12_2,2023-09-13T15:48:50.782Z,,0,,,NaN,,,,,,false,,,,156201.7999997139,156201.69999980927,,156201.5,,156216.715,8,400,,,
sequence,flow.Sequence,4_12,2023-09-13T15:48:50.782Z,,0,,,5128.283999809268,completion,,,,,false,,,,156202,156201.69999980927,151056.808,151071.89999961853,151073.416,156216.715,8,400,,,
trial,html.Screen,4_13_0,2023-09-13T15:49:00.226Z,,0,1,,9429.584999713901,response,ISIC_3947143.JPG,6,ISIC_0046693.JPG,ISIC_3947143.JPG,false,1,keypress(m),500,165646.39999961853,165646.2999997139,156200.152,156202.19999980927,156216.715,165651.851,8,400,14,,ISIC_0046693.JPG
break,html.Screen,4_13_1,2023-09-13T15:49:00.227Z,,0,,,NaN,,,,,,false,,,,165646.69999980927,165646.69999980927,,165646.5,,165651.851,8,400,,,
break_continue,html.Screen,4_13_2,2023-09-13T15:49:00.227Z,,0,,,NaN,,,,,,false,,,,165646.89999961853,165646.89999961853,,165646.7999997139,,165651.851,8,400,,,
sequence,flow.Sequence,4_13,2023-09-13T15:49:00.227Z,,0,,,9430.184999618534,completion,,,,,false,,,,165647,165646.89999961853,156200.152,156202.09999990463,156216.715,165651.851,8,400,,,
trial,html.Screen,4_14_0,2023-09-13T15:49:05.494Z,,0,1,,5262.2489999046375,response,ISIC_6250970.JPG,6,ISIC_5298608.JPG,ISIC_5298608.JPG,false,0,keypress(z),500,170914.2999997139,170914.09999990463,165635.088,165647,165651.851,170928.719,8,400,15,,ISIC_6250970.JPG
break,html.Screen,4_14_1,2023-09-13T15:49:05.495Z,,0,,,NaN,,,,,,false,,,,170915,170914.7999997139,,170914.5,,170928.719,8,400,,,
break_continue,html.Screen,4_14_2,2023-09-13T15:49:05.495Z,,0,,,NaN,,,,,,false,,,,170915.2999997139,170915.19999980927,,170915,,170928.719,8,400,,,
sequence,flow.Sequence,4_14,2023-09-13T15:49:05.496Z,,0,,,5263.34899980927,completion,,,,,false,,,,170915.5,170915.19999980927,165635.088,165647,165651.851,170928.719,8,400,,,
trial,html.Screen,4_15_0,2023-09-13T15:49:12.329Z,,0,1,,6820.380999904621,response,ISIC_0011158.JPG,5,ISIC_0485914.JPG,ISIC_0485914.JPG,false,0,keypress(z),500,177749.19999980927,177749.09999990463,170912.086,170915.5,170928.719,177758.79,8,400,16,,ISIC_0011158.JPG
break,html.Screen,4_15_1,2023-09-13T15:49:12.330Z,,0,,,NaN,,,,,,false,,,,177749.69999980927,177749.59999990463,,177749.2999997139,,177758.79,8,400,,,
break_continue,html.Screen,4_15_2,2023-09-13T15:49:12.330Z,,0,,,NaN,,,,,,false,,,,177749.89999961853,177749.89999961853,,177749.69999980927,,177758.79,8,400,,,
sequence,flow.Sequence,4_15,2023-09-13T15:49:12.330Z,,0,,,6821.180999618518,completion,,,,,false,,,,177750,177749.89999961853,170912.086,170915.5,170928.719,177758.79,8,400,,,
trial,html.Screen,4_16_0,2023-09-13T15:49:18.139Z,,0,1,,5800.309999904624,response,ISIC_0023162.JPG,6,ISIC_0025832.JPG,ISIC_0025832.JPG,false,0,keypress(z),500,183559.09999990463,183559.09999990463,177742.094,177750.09999990463,177758.79,183569.966,8,400,17,,ISIC_0023162.JPG
break,html.Screen,4_16_1,2023-09-13T15:49:18.140Z,,0,,,NaN,,,,,,false,,,,183559.7999997139,183559.5,,183559.2999997139,,183569.966,8,400,,,
break_continue,html.Screen,4_16_2,2023-09-13T15:49:18.140Z,,0,,,NaN,,,,,,false,,,,183560,183559.89999961853,,183559.7999997139,,183569.966,8,400,,,
sequence,flow.Sequence,4_16,2023-09-13T15:49:18.140Z,,0,,,5801.109999618522,completion,,,,,false,,,,183560.09999990463,183559.89999961853,177742.094,177750.09999990463,177758.79,183569.966,8,400,,,
trial,html.Screen,4_17_0,2023-09-13T15:49:23.537Z,,0,1,,5386.9339996185445,response,ISIC_4654443.JPG,5,ISIC_0013499.JPG,ISIC_4654443.JPG,false,1,keypress(m),500,188957.09999990463,188956.89999961853,183553.402,183560.19999980927,183569.966,188980.538,8,400,18,,ISIC_0013499.JPG
break,html.Screen,4_17_1,2023-09-13T15:49:23.538Z,,0,,,NaN,,,,,,false,,,,188957.5,188957.39999961853,,188957.19999980927,,188980.538,8,400,,,
break_continue,html.Screen,4_17_2,2023-09-13T15:49:23.538Z,,0,,,NaN,,,,,,false,,,,188957.69999980927,188957.59999990463,,188957.5,,188980.538,8,400,,,
sequence,flow.Sequence,4_17,2023-09-13T15:49:23.538Z,,0,,,5387.633999904647,completion,,,,,false,,,,188957.69999980927,188957.59999990463,183553.402,183560.19999980927,183569.966,188980.538,8,400,,,
trial,html.Screen,4_18_0,2023-09-13T15:49:29.555Z,,0,1,,5993.9619999999995,response,ISIC_7575815.JPG,6,ISIC_6515546.JPG,ISIC_6515546.JPG,false,0,keypress(z),500,194974.69999980927,194974.5,188963.994,188957.69999980927,188980.538,194975.501,8,400,19,,ISIC_7575815.JPG
break,html.Screen,4_18_1,2023-09-13T15:49:29.556Z,,0,,,NaN,,,,,,false,,,,194975.39999961853,194975.19999980927,,194974.7999997139,,194975.501,8,400,,,
break_continue,html.Screen,4_18_2,2023-09-13T15:49:29.556Z,,0,,,NaN,,,,,,false,,,,194975.69999980927,194975.59999990463,,194975.39999961853,,194975.501,8,400,,,
sequence,flow.Sequence,4_18,2023-09-13T15:49:29.556Z,,0,,,5995.061999904632,completion,,,,,false,,,,194975.7999997139,194975.59999990463,188963.994,188957.69999980927,188980.538,194975.501,8,400,,,
trial,html.Screen,4_19_0,2023-09-13T15:49:35.436Z,,0,1,,5880.499000000011,response,ISIC_4088647.JPG,6,ISIC_2833213.JPG,ISIC_2833213.JPG,false,0,keypress(z),500,200856.2999997139,200856,194958.846,194975.89999961853,194975.501,200870.302,8,400,20,,ISIC_4088647.JPG
break,html.Screen,4_19_1,2023-09-13T15:49:35.437Z,,0,,,NaN,,,,,,false,,,,200857.19999980927,200857,,200856.5,,200870.302,8,400,,,
break_continue,html.Screen,4_19_2,2023-09-13T15:49:35.438Z,,0,,,NaN,,,,,,false,,,,200857.7999997139,200857.69999980927,,200857.39999961853,,200870.302,8,400,,,
sequence,flow.Sequence,4_19,2023-09-13T15:49:35.438Z,,0,,,5882.198999809276,completion,,,,,false,,,,200858,200857.69999980927,194958.846,194975.7999997139,194975.501,200870.302,8,400,,,
trial,html.Screen,4_20_0,2023-09-13T15:49:41.847Z,,0,1,,6394.698000000004,response,ISIC_5768749.JPG,5,ISIC_0024853.JPG,ISIC_5768749.JPG,false,1,keypress(m),500,207265.09999990463,207265,200853.706,200858.09999990463,200870.302,207282.933,8,400,21,,ISIC_0024853.JPG
break,html.Screen,4_20_1,2023-09-13T15:49:41.847Z,,0,,,NaN,,,,,,false,,,,207265.59999990463,207265.39999961853,,207265.19999980927,,207282.933,8,400,,,
break_continue,html.Screen,4_20_2,2023-09-13T15:49:41.848Z,,0,,,NaN,,,,,,false,,,,207265.89999961853,207265.69999980927,,207265.59999990463,,207282.933,8,400,,,
sequence,flow.Sequence,4_20,2023-09-13T15:49:41.848Z,,0,,,6395.397999809269,completion,,,,,false,,,,207266,207265.69999980927,200853.706,200858,200870.302,207282.933,8,400,,,
trial,html.Screen,4_21_0,2023-09-13T15:49:48.524Z,,0,1,,6659.666999904643,response,ISIC_5147292.JPG,5,ISIC_0061188.JPG,ISIC_5147292.JPG,false,1,keypress(m),500,213942.59999990463,213942.59999990463,207266.104,207266,207282.933,213945.756,8,400,22,,ISIC_0061188.JPG
break,html.Screen,4_21_1,2023-09-13T15:49:48.525Z,,0,,,NaN,,,,,,false,,,,213943.2999997139,213943.09999990463,,213942.69999980927,,213945.756,8,400,,,
break_continue,html.Screen,4_21_2,2023-09-13T15:49:48.525Z,,0,,,NaN,,,,,,false,,,,213943.59999990463,213943.5,,213943.5,,213945.756,8,400,,,
sequence,flow.Sequence,4_21,2023-09-13T15:49:48.526Z,,0,,,6660.56700000001,completion,,,,,false,,,,213943.7999997139,213943.5,207266.104,207266,207282.933,213945.756,8,400,,,
trial,html.Screen,4_22_0,2023-09-13T15:49:55.023Z,,0,1,,6495.143999618536,response,ISIC_0065943.JPG,5,ISIC_8803600.JPG,ISIC_8803600.JPG,false,0,keypress(z),500,220441.09999990463,220440.89999961853,213929.171,213943.7999997139,213945.756,220458.448,8,400,23,,ISIC_0065943.JPG
break,html.Screen,4_22_1,2023-09-13T15:49:55.024Z,,0,,,NaN,,,,,,false,,,,220441.69999980927,220441.59999990463,,220441.19999980927,,220458.448,8,400,,,
break_continue,html.Screen,4_22_2,2023-09-13T15:49:55.024Z,,0,,,NaN,,,,,,false,,,,220442,220441.89999961853,,220441.7999997139,,220458.448,8,400,,,
sequence,flow.Sequence,4_22,2023-09-13T15:49:55.024Z,,0,,,6496.143999618536,completion,,,,,false,,,,220442.09999990463,220441.89999961853,213929.171,213943.7999997139,213945.756,220458.448,8,400,,,
trial,html.Screen,4_23_0,2023-09-13T15:50:01.378Z,,0,1,,6337.351999713894,response,ISIC_0046623.JPG,5,ISIC_9052604.JPG,ISIC_9052604.JPG,false,0,keypress(z),500,226796,226795.7999997139,220441.732,220442.19999980927,220458.448,226804.196,8,400,24,,ISIC_0046623.JPG
break,html.Screen,4_23_1,2023-09-13T15:50:01.378Z,,0,,,NaN,,,,,,false,,,,226796.39999961853,226796.2999997139,,226796,,226804.196,8,400,,,
break_continue,html.Screen,4_23_2,2023-09-13T15:50:01.379Z,,0,,,NaN,,,,,,false,,,,226796.69999980927,226796.69999980927,,226796.5,,226804.196,8,400,,,
sequence,flow.Sequence,4_23,2023-09-13T15:50:01.379Z,,0,,,6338.251999809261,completion,,,,,false,,,,226796.89999961853,226796.69999980927,220441.732,220442.19999980927,220458.448,226804.196,8,400,,,
trial,html.Screen,4_24_0,2023-09-13T15:50:07.684Z,,0,1,,6298.304000000004,response,ISIC_3706743.JPG,5,ISIC_0025169.JPG,ISIC_3706743.JPG,false,1,keypress(m),500,233102.59999990463,233102.5,226787.429,226796.89999961853,226804.196,233116.512,8,400,25,,ISIC_0025169.JPG
break,html.Screen,4_24_1,2023-09-13T15:50:07.685Z,,0,,,NaN,,,,,,false,,,,233103,233102.7999997139,,233102.69999980927,,233116.512,8,400,,,
break_continue,html.Screen,4_24_2,2023-09-13T15:50:07.685Z,,0,,,NaN,,,,,,false,,,,233103.19999980927,233103.19999980927,,233103,,233116.512,8,400,,,
sequence,flow.Sequence,4_24,2023-09-13T15:50:07.685Z,,0,,,6299.003999809269,completion,,,,,false,,,,233103.19999980927,233103.19999980927,226787.429,226796.89999961853,226804.196,233116.512,8,400,,,
trial,html.Screen,4_25_0,2023-09-13T15:50:12.119Z,,0,1,,4420.387999618542,response,ISIC_2241388.JPG,5,ISIC_0058186.JPG,ISIC_0058186.JPG,false,0,keypress(z),500,237537,237536.89999961853,233099.816,233103.2999997139,233116.512,237541.791,8,400,26,,ISIC_2241388.JPG
break,html.Screen,4_25_1,2023-09-13T15:50:12.120Z,,0,,,NaN,,,,,,false,,,,237537.69999980927,237537.5,,237537.19999980927,,237541.791,8,400,,,
break_continue,html.Screen,4_25_2,2023-09-13T15:50:12.120Z,,0,,,NaN,,,,,,false,,,,237537.89999961853,237537.89999961853,,237537.7999997139,,237541.791,8,400,,,
sequence,flow.Sequence,4_25,2023-09-13T15:50:12.120Z,,0,,,4421.387999618542,completion,,,,,false,,,,237538,237537.89999961853,233099.816,233103.2999997139,233116.512,237541.791,8,400,,,
trial,html.Screen,4_26_0,2023-09-13T15:50:19.132Z,,0,1,,7008.0089997139,response,ISIC_3310364.JPG,5,ISIC_0071797.JPG,ISIC_3310364.JPG,false,1,keypress(m),500,244550.09999990463,244549.7999997139,237525.038,237538.09999990463,237541.791,244555.399,8,400,27,,ISIC_0071797.JPG
break,html.Screen,4_26_1,2023-09-13T15:50:19.134Z,,0,,,NaN,,,,,,false,,,,244551.89999961853,244551.19999980927,,244550.39999961853,,244555.399,8,400,,,
break_continue,html.Screen,4_26_2,2023-09-13T15:50:19.135Z,,0,,,NaN,,,,,,false,,,,244552.89999961853,244552.59999990463,,244552.09999990463,,244555.399,8,400,,,
sequence,flow.Sequence,4_26,2023-09-13T15:50:19.135Z,,0,,,7010.808999904635,completion,,,,,false,,,,244553.19999980927,244552.59999990463,237525.038,237538,237541.791,244555.399,8,400,,,
trial,html.Screen,4_27_0,2023-09-13T15:50:24.882Z,,0,1,,5744.80099980926,response,ISIC_3045939.JPG,6,ISIC_2733043.JPG,ISIC_2733043.JPG,false,0,keypress(z),500,250300.5,250300.19999980927,244538.628,244553.39999961853,244555.399,250316.547,8,400,28,,ISIC_3045939.JPG
break,html.Screen,4_27_1,2023-09-13T15:50:24.884Z,,0,,,NaN,,,,,,false,,,,250302.2999997139,250301.89999961853,,250300.89999961853,,250316.547,8,400,,,
break_continue,html.Screen,4_27_2,2023-09-13T15:50:24.885Z,,0,,,NaN,,,,,,false,,,,250303.39999961853,250303.09999990463,,250302.59999990463,,250316.547,8,400,,,
sequence,flow.Sequence,4_27,2023-09-13T15:50:24.886Z,,0,,,5747.700999904628,completion,,,,,false,,,,250303.69999980927,250303.09999990463,244538.628,244553.2999997139,244555.399,250316.547,8,400,,,
trial,html.Screen,4_28_0,2023-09-13T15:50:29.593Z,,0,1,,4694.252999713906,response,ISIC_0033229.JPG,5,ISIC_0174983.JPG,ISIC_0033229.JPG,false,1,keypress(m),500,255010.89999961853,255010.7999997139,250299.909,250303.89999961853,250316.547,255025.776,8,400,29,,ISIC_0174983.JPG
break,html.Screen,4_28_1,2023-09-13T15:50:29.593Z,,0,,,NaN,,,,,,false,,,,255011.2999997139,255011.19999980927,,255011.09999990463,,255025.776,8,400,,,
break_continue,html.Screen,4_28_2,2023-09-13T15:50:29.593Z,,0,,,NaN,,,,,,false,,,,255011.59999990463,255011.5,,255011.5,,255025.776,8,400,,,
sequence,flow.Sequence,4_28,2023-09-13T15:50:29.593Z,,0,,,4694.953000000009,completion,,,,,false,,,,255011.59999990463,255011.5,250299.909,250303.7999997139,250316.547,255025.776,8,400,,,
trial,html.Screen,4_29_0,2023-09-13T15:50:34.715Z,,0,1,,5107.623999618518,response,ISIC_6028082.JPG,4,ISIC_0013136.JPG,ISIC_0013136.JPG,false,0,keypress(z),500,260133.5,260133.39999961853,255009.128,255011.69999980927,255025.776,260152.306,8,400,30,,ISIC_6028082.JPG
break,html.Screen,4_29_1,2023-09-13T15:50:34.716Z,,0,,,NaN,,,,,,false,,,,260133.89999961853,260133.89999961853,,260133.59999990463,,260152.306,8,400,,,
break_continue,html.Screen,4_29_2,2023-09-13T15:50:34.716Z,,0,,,NaN,,,,,,false,,,,260134.09999990463,260134.09999990463,,260134,,260152.306,8,400,,,
sequence,flow.Sequence,4_29,2023-09-13T15:50:34.716Z,,0,,,5108.32399990462,completion,,,,,false,,,,260134.19999980927,260134.09999990463,255009.128,255011.69999980927,255025.776,260152.306,8,400,,,
trial,html.Screen,4_30_0,2023-09-13T15:50:39.522Z,,0,1,,4786.493999713886,response,ISIC_0027882.JPG,5,ISIC_0011870.JPG,ISIC_0027882.JPG,false,1,keypress(m),500,264938.89999961853,264938.7999997139,260135.698,260134.19999980927,260152.306,264961.774,8,400,31,,ISIC_0011870.JPG
break,html.Screen,4_30_1,2023-09-13T15:50:39.523Z,,0,,,NaN,,,,,,false,,,,264939.2999997139,264939.19999980927,,264939,,264961.774,8,400,,,
break_continue,html.Screen,4_30_2,2023-09-13T15:50:39.523Z,,0,,,NaN,,,,,,false,,,,264939.69999980927,264939.5,,264939.39999961853,,264961.774,8,400,,,
sequence,flow.Sequence,4_30,2023-09-13T15:50:39.523Z,,0,,,4787.193999999989,completion,,,,,false,,,,264939.7999997139,264939.5,260135.698,260134.19999980927,260152.306,264961.774,8,400,,,
trial,html.Screen,4_31_0,2023-09-13T15:50:45.092Z,,0,1,,5547.025999713922,response,ISIC_0046526.JPG,5,ISIC_0069167.JPG,ISIC_0069167.JPG,false,0,keypress(z),500,270508.89999961853,270508.7999997139,264945.024,264939.7999997139,264961.774,270539.224,8,400,32,,ISIC_0046526.JPG
break,html.Screen,4_31_1,2023-09-13T15:50:45.093Z,,0,,,NaN,,,,,,false,,,,270509.2999997139,270509.2999997139,,270509,,270539.224,8,400,,,
break_continue,html.Screen,4_31_2,2023-09-13T15:50:45.093Z,,0,,,NaN,,,,,,false,,,,270509.59999990463,270509.5,,270509.39999961853,,270539.224,8,400,,,
sequence,flow.Sequence,4_31,2023-09-13T15:50:45.093Z,,0,,,5547.726000000024,completion,,,,,false,,,,270509.59999990463,270509.5,264945.024,264939.7999997139,264961.774,270539.224,8,400,,,
trial,html.Screen,4_32_0,2023-09-13T15:50:50.315Z,,0,1,,5192.276000000013,response,ISIC_0046725.JPG,5,ISIC_0066328.JPG,ISIC_0066328.JPG,false,0,keypress(z),500,275731.69999980927,275731.5,270522.529,270509.59999990463,270539.224,275749.342,8,400,33,,ISIC_0046725.JPG
break,html.Screen,4_32_1,2023-09-13T15:50:50.315Z,,0,,,NaN,,,,,,false,,,,275732.09999990463,275731.89999961853,,275731.7999997139,,275749.342,8,400,,,
break_continue,html.Screen,4_32_2,2023-09-13T15:50:50.316Z,,0,,,NaN,,,,,,false,,,,275732.2999997139,275732.19999980927,,275732.09999990463,,275749.342,8,400,,,
sequence,flow.Sequence,4_32,2023-09-13T15:50:50.316Z,,0,,,5192.975999809278,completion,,,,,false,,,,275732.2999997139,275732.19999980927,270522.529,270509.59999990463,270539.224,275749.342,8,400,,,
trial,html.Screen,4_33_0,2023-09-13T15:50:57.165Z,,0,1,,6832.657999999996,response,ISIC_0032716.JPG,5,ISIC_0027101.JPG,ISIC_0032716.JPG,false,1,keypress(m),500,282582,282582,275732.659,275732.39999961853,275749.342,282596.097,8,400,34,,ISIC_0027101.JPG
break,html.Screen,4_33_1,2023-09-13T15:50:57.166Z,,0,,,NaN,,,,,,false,,,,282582.39999961853,282582.2999997139,,282582.09999990463,,282596.097,8,400,,,
break_continue,html.Screen,4_33_2,2023-09-13T15:50:57.166Z,,0,,,NaN,,,,,,false,,,,282582.59999990463,282582.59999990463,,282582.5,,282596.097,8,400,,,
sequence,flow.Sequence,4_33,2023-09-13T15:50:57.166Z,,0,,,6833.257999904628,completion,,,,,false,,,,282582.69999980927,282582.59999990463,275732.659,275732.39999961853,275749.342,282596.097,8,400,,,
trial,html.Screen,4_34_0,2023-09-13T15:51:04.339Z,,0,1,,7159.202999713889,response,ISIC_0032140.JPG,6,ISIC_0055701.JPG,ISIC_0032140.JPG,false,1,keypress(m),500,289755.39999961853,289755.2999997139,282579.42,282582.7999997139,282596.097,289776.654,8,400,35,,ISIC_0055701.JPG
break,html.Screen,4_34_1,2023-09-13T15:51:04.339Z,,0,,,NaN,,,,,,false,,,,289755.89999961853,289755.7999997139,,289755.5,,289776.654,8,400,,,
break_continue,html.Screen,4_34_2,2023-09-13T15:51:04.339Z,,0,,,NaN,,,,,,false,,,,289756.09999990463,289756,,289755.89999961853,,289776.654,8,400,,,
sequence,flow.Sequence,4_34,2023-09-13T15:51:04.339Z,,0,,,7159.902999999991,completion,,,,,false,,,,289756.09999990463,289756,282579.42,282582.7999997139,282596.097,289776.654,8,400,,,
trial,html.Screen,4_35_0,2023-09-13T15:51:09.510Z,,0,1,,5149.645999713917,response,ISIC_0054988.JPG,4,ISIC_7319169.JPG,ISIC_7319169.JPG,false,0,keypress(z),500,294926.39999961853,294926.2999997139,289759.91,289756.09999990463,289776.654,294936.765,8,400,36,,ISIC_0054988.JPG
break,html.Screen,4_35_1,2023-09-13T15:51:09.510Z,,0,,,NaN,,,,,,false,,,,294927.09999990463,294926.7999997139,,294926.5,,294936.765,8,400,,,
break_continue,html.Screen,4_35_2,2023-09-13T15:51:09.511Z,,0,,,NaN,,,,,,false,,,,294927.2999997139,294927.2999997139,,294927.19999980927,,294936.765,8,400,,,
sequence,flow.Sequence,4_35,2023-09-13T15:51:09.511Z,,0,,,5150.645999713917,completion,,,,,false,,,,294927.39999961853,294927.2999997139,289759.91,289756.09999990463,289776.654,294936.765,8,400,,,
trial,html.Screen,4_36_0,2023-09-13T15:51:15.736Z,,0,1,,6215.534999713884,response,ISIC_0010596.JPG,5,ISIC_0028412.JPG,ISIC_0028412.JPG,false,0,keypress(z),500,301152.5,301152.2999997139,294920.042,294927.5,294936.765,301182.355,8,400,37,,ISIC_0010596.JPG
break,html.Screen,4_36_1,2023-09-13T15:51:15.736Z,,0,,,NaN,,,,,,false,,,,301152.7999997139,301152.69999980927,,301152.59999990463,,301182.355,8,400,,,
break_continue,html.Screen,4_36_2,2023-09-13T15:51:15.736Z,,0,,,NaN,,,,,,false,,,,301153.09999990463,301153,,301152.7999997139,,301182.355,8,400,,,
sequence,flow.Sequence,4_36,2023-09-13T15:51:15.736Z,,0,,,6216.234999999986,completion,,,,,false,,,,301153.09999990463,301153,294920.042,294927.5,294936.765,301182.355,8,400,,,
trial,html.Screen,4_37_0,2023-09-13T15:51:22.126Z,,0,1,,6360.344999809284,response,ISIC_9280171.JPG,5,ISIC_8969883.JPG,ISIC_9280171.JPG,false,1,keypress(m),500,307543.09999990463,307542.69999980927,301165.5,301153.09999990463,301182.355,307561.26,8,400,38,,ISIC_8969883.JPG
break,html.Screen,4_37_1,2023-09-13T15:51:22.127Z,,0,,,NaN,,,,,,false,,,,307543.69999980927,307543.59999990463,,307543.2999997139,,307561.26,8,400,,,
break_continue,html.Screen,4_37_2,2023-09-13T15:51:22.127Z,,0,,,NaN,,,,,,false,,,,307544.09999990463,307543.89999961853,,307543.7999997139,,307561.26,8,400,,,
sequence,flow.Sequence,4_37,2023-09-13T15:51:22.127Z,,0,,,6361.544999618549,completion,,,,,false,,,,307544.09999990463,307543.89999961853,301165.5,301153.09999990463,301182.355,307561.26,8,400,,,
trial,html.Screen,4_38_0,2023-09-13T15:51:27.536Z,,0,1,,5391.739999999991,response,ISIC_3289574.JPG,6,ISIC_6440229.JPG,ISIC_3289574.JPG,false,1,keypress(m),500,312953.19999980927,312953,307544.535,307544.19999980927,307561.26,312955.063,8,400,39,,ISIC_6440229.JPG
break,html.Screen,4_38_1,2023-09-13T15:51:27.537Z,,0,,,NaN,,,,,,false,,,,312953.59999990463,312953.5,,312953.2999997139,,312955.063,8,400,,,
break_continue,html.Screen,4_38_2,2023-09-13T15:51:27.537Z,,0,,,NaN,,,,,,false,,,,312953.7999997139,312953.7999997139,,312953.59999990463,,312955.063,8,400,,,
sequence,flow.Sequence,4_38,2023-09-13T15:51:27.537Z,,0,,,5392.539999713888,completion,,,,,false,,,,312953.7999997139,312953.7999997139,307544.535,307544.19999980927,307561.26,312955.063,8,400,,,
trial,html.Screen,4_39_0,2023-09-13T15:51:33.033Z,,0,1,,5493.936999999976,response,ISIC_0403458.JPG,5,ISIC_6773367.JPG,ISIC_6773367.JPG,false,0,keypress(z),500,318449.19999980927,318449,312938.499,312953.89999961853,312955.063,318465.902,8,400,40,,ISIC_0403458.JPG
break,html.Screen,4_39_1,2023-09-13T15:51:33.034Z,,0,,,NaN,,,,,,false,,,,318450.19999980927,318449.89999961853,,318449.5,,318465.902,8,400,,,
break_continue,html.Screen,4_39_2,2023-09-13T15:51:33.034Z,,0,,,NaN,,,,,,false,,,,318450.5,318450.39999961853,,318450.2999997139,,318465.902,8,400,,,
sequence,flow.Sequence,4_39,2023-09-13T15:51:33.034Z,,0,,,5495.3369996185065,completion,,,,,false,,,,318450.59999990463,318450.39999961853,312938.499,312953.89999961853,312955.063,318465.902,8,400,,,
trial,html.Screen,4_40_0,2023-09-13T15:51:38.403Z,,0,1,,5353.297999809263,response,ISIC_8513112.JPG,4,ISIC_0055311.JPG,ISIC_8513112.JPG,false,1,keypress(m),500,323819.39999961853,323819.19999980927,318449.244,318450.69999980927,318465.902,323843.033,8,400,41,,ISIC_0055311.JPG
break,html.Screen,4_40_1,2023-09-13T15:51:38.404Z,,0,,,NaN,,,,,,false,,,,323820,323819.7999997139,,323819.5,,323843.033,8,400,,,
break_continue,html.Screen,4_40_2,2023-09-13T15:51:38.404Z,,0,,,NaN,,,,,,false,,,,323820.19999980927,323820.09999990463,,323820,,323843.033,8,400,,,
sequence,flow.Sequence,4_40,2023-09-13T15:51:38.404Z,,0,,,5354.197999904631,completion,,,,,false,,,,323820.19999980927,323820.09999990463,318449.244,318450.59999990463,318465.902,323843.033,8,400,,,
trial,html.Screen,4_41_0,2023-09-13T15:51:44.439Z,,0,1,,6012.166999809269,response,ISIC_0011895.JPG,4,ISIC_0188432.JPG,ISIC_0011895.JPG,false,1,keypress(m),500,329855.2999997139,329855.19999980927,323826.452,323820.39999961853,323843.033,329871.479,8,400,42,,ISIC_0188432.JPG
break,html.Screen,4_41_1,2023-09-13T15:51:44.440Z,,0,,,NaN,,,,,,false,,,,329856,329855.89999961853,,329855.59999990463,,329871.479,8,400,,,
break_continue,html.Screen,4_41_2,2023-09-13T15:51:44.440Z,,0,,,NaN,,,,,,false,,,,329856.2999997139,329856.19999980927,,329856.09999990463,,329871.479,8,400,,,
sequence,flow.Sequence,4_41,2023-09-13T15:51:44.441Z,,0,,,6013.166999809269,completion,,,,,false,,,,329856.2999997139,329856.19999980927,323826.452,323820.2999997139,323843.033,329871.479,8,400,,,
trial,html.Screen,4_42_0,2023-09-13T15:51:50.080Z,,0,1,,5623.820999713906,response,ISIC_0071869.JPG,4,ISIC_6704623.JPG,ISIC_6704623.JPG,false,0,keypress(z),500,335495.39999961853,335495.2999997139,329854.744,329856.39999961853,329871.479,335515.681,8,400,43,,ISIC_0071869.JPG
break,html.Screen,4_42_1,2023-09-13T15:51:50.080Z,,0,,,NaN,,,,,,false,,,,335495.89999961853,335495.69999980927,,335495.59999990463,,335515.681,8,400,,,
break_continue,html.Screen,4_42_2,2023-09-13T15:51:50.080Z,,0,,,NaN,,,,,,false,,,,335496,335496,,335495.89999961853,,335515.681,8,400,,,
sequence,flow.Sequence,4_42,2023-09-13T15:51:50.080Z,,0,,,5624.521000000008,completion,,,,,false,,,,335496.09999990463,335496,329854.744,329856.39999961853,329871.479,335515.681,8,400,,,
trial,html.Screen,4_43_0,2023-09-13T15:51:55.458Z,,0,1,,5358.218999618548,response,ISIC_1488727.JPG,4,ISIC_8043299.JPG,ISIC_1488727.JPG,false,1,keypress(m),500,340874.19999980927,340873.89999961853,335499.013,335496.09999990463,335515.681,340892.752,8,400,44,,ISIC_8043299.JPG
break,html.Screen,4_43_1,2023-09-13T15:51:55.460Z,,0,,,NaN,,,,,,false,,,,340875.5,340875.09999990463,,340874.5,,340892.752,8,400,,,
break_continue,html.Screen,4_43_2,2023-09-13T15:51:55.460Z,,0,,,NaN,,,,,,false,,,,340876,340875.7999997139,,340875.59999990463,,340892.752,8,400,,,
sequence,flow.Sequence,4_43,2023-09-13T15:51:55.461Z,,0,,,5360.118999713915,completion,,,,,false,,,,340876.89999961853,340875.7999997139,335499.013,335496.09999990463,335515.681,340892.752,8,400,,,
trial,html.Screen,4_44_0,2023-09-13T15:51:59.864Z,,0,1,,4386.748000000021,response,ISIC_0031589.JPG,5,ISIC_0007416.JPG,ISIC_0007416.JPG,false,0,keypress(z),500,345279.5,345279.5,340876.114,340877.19999980927,340892.752,345284.774,8,400,45,,ISIC_0031589.JPG
break,html.Screen,4_44_1,2023-09-13T15:51:59.864Z,,0,,,NaN,,,,,,false,,,,345280.2999997139,345280,,345279.69999980927,,345284.774,8,400,,,
break_continue,html.Screen,4_44_2,2023-09-13T15:51:59.865Z,,0,,,NaN,,,,,,false,,,,345280.5,345280.39999961853,,345280.2999997139,,345284.774,8,400,,,
sequence,flow.Sequence,4_44,2023-09-13T15:51:59.865Z,,0,,,4387.647999618552,completion,,,,,false,,,,345280.59999990463,345280.39999961853,340876.114,340877.09999990463,340892.752,345284.774,8,400,,,
trial,html.Screen,4_45_0,2023-09-13T15:52:04.461Z,,0,1,,4591.6259996185545,response,ISIC_2685523.JPG,4,ISIC_5789052.JPG,ISIC_5789052.JPG,false,0,keypress(z),500,349876.5,349876.39999961853,345268.154,345280.59999990463,345284.774,349910.363,8,400,46,,ISIC_2685523.JPG
break,html.Screen,4_45_1,2023-09-13T15:52:04.461Z,,0,,,NaN,,,,,,false,,,,349877,349876.7999997139,,349876.59999990463,,349910.363,8,400,,,
break_continue,html.Screen,4_45_2,2023-09-13T15:52:04.461Z,,0,,,NaN,,,,,,false,,,,349877.2999997139,349877.19999980927,,349877.09999990463,,349910.363,8,400,,,
sequence,flow.Sequence,4_45,2023-09-13T15:52:04.462Z,,0,,,4592.425999809289,completion,,,,,false,,,,349877.39999961853,349877.19999980927,345268.154,345280.59999990463,345284.774,349910.363,8,400,,,
trial,html.Screen,4_46_0,2023-09-13T15:52:10.609Z,,0,1,,6114.436999713886,response,ISIC_1223648.JPG,5,ISIC_0024292.JPG,ISIC_0024292.JPG,false,0,keypress(z),500,356025,356024.7999997139,349893.682,349877.39999961853,349910.363,356038.917,8,400,47,,ISIC_1223648.JPG
break,html.Screen,4_46_1,2023-09-13T15:52:10.610Z,,0,,,NaN,,,,,,false,,,,356025.5,356025.2999997139,,356025.09999990463,,356038.917,8,400,,,
break_continue,html.Screen,4_46_2,2023-09-13T15:52:10.610Z,,0,,,NaN,,,,,,false,,,,356025.69999980927,356025.59999990463,,356025.5,,356038.917,8,400,,,
sequence,flow.Sequence,4_46,2023-09-13T15:52:10.610Z,,0,,,6115.2369999046205,completion,,,,,false,,,,356025.7999997139,356025.59999990463,349893.682,349877.39999961853,349910.363,356038.917,8,400,,,
trial,html.Screen,4_47_0,2023-09-13T15:52:16.724Z,,0,1,,6100.782999809249,response,ISIC_0072943.JPG,6,ISIC_0027247.JPG,ISIC_0027247.JPG,false,0,keypress(z),500,362139.7999997139,362139.69999980927,356022.259,356025.7999997139,356038.917,362150.928,8,400,48,,ISIC_0072943.JPG
break,html.Screen,4_47_1,2023-09-13T15:52:16.724Z,,0,,,NaN,,,,,,false,,,,362140.19999980927,362140.09999990463,,362139.89999961853,,362150.928,8,400,,,
break_continue,html.Screen,4_47_2,2023-09-13T15:52:16.725Z,,0,,,NaN,,,,,,false,,,,362140.5,362140.39999961853,,362140.2999997139,,362150.928,8,400,,,
sequence,flow.Sequence,4_47,2023-09-13T15:52:16.725Z,,0,,,6101.482999618514,completion,,,,,false,,,,362140.59999990463,362140.39999961853,356022.259,356025.7999997139,356038.917,362150.928,8,400,,,
trial,html.Screen,4_48_0,2023-09-13T15:52:23.910Z,,0,1,,7174.471999618516,response,ISIC_0054651.JPG,5,ISIC_0056635.JPG,ISIC_0056635.JPG,false,0,keypress(z),500,369325.7999997139,369325.39999961853,362134.201,362140.59999990463,362150.928,369348.242,8,400,49,,ISIC_0054651.JPG
break,html.Screen,4_48_1,2023-09-13T15:52:23.912Z,,0,,,NaN,,,,,,false,,,,369327.59999990463,369327.09999990463,,369326.2999997139,,369348.242,8,400,,,
break_continue,html.Screen,4_48_2,2023-09-13T15:52:23.912Z,,0,,,NaN,,,,,,false,,,,369328.39999961853,369328.19999980927,,369327.7999997139,,369348.242,8,400,,,
sequence,flow.Sequence,4_48,2023-09-13T15:52:23.913Z,,0,,,7177.271999809251,completion,,,,,false,,,,369328.69999980927,369328.19999980927,362134.201,362140.59999990463,362150.928,369348.242,8,400,,,
trial,html.Screen,4_49_0,2023-09-13T15:52:28.972Z,,0,1,,5039.157999618503,response,ISIC_0030107.JPG,4,ISIC_0025243.JPG,ISIC_0025243.JPG,false,0,keypress(z),500,374387.7999997139,374387.39999961853,369331.552,369329,369348.242,374391.509,8,400,50,,ISIC_0030107.JPG
break,html.Screen,4_49_1,2023-09-13T15:52:38.964Z,,0,,,10002.786999999953,timeout,,,,,false,,,,384378.39999961853,384377.704,374374.737,374388,374391.509,384394.296,8,400,,,
break_continue,html.Screen,4_49_2,2023-09-13T15:54:45.034Z,,0,,,126039.20400000003,response,,,,,false,continue,keypress(Space),,510445,510433.5,384377.704,384378.39999961853,384394.296,510456.097,8,400,,,
sequence,flow.Sequence,4_49,2023-09-13T15:54:45.034Z,,0,,,141085.25799999997,completion,,,,,false,,,,510445.09999990463,510433.5,369331.552,369328.7999997139,369348.242,510456.097,8,400,,,
trial,html.Screen,4_50_0,2023-09-13T15:54:49.899Z,,0,2,,4853.802999618521,response,ISIC_6108795.JPG,5,ISIC_0046416.JPG,ISIC_6108795.JPG,false,1,keypress(m),500,515310.09999990463,515309.89999961853,510439.379,510445.09999990463,510456.097,515315.522,8,400,1,,ISIC_0046416.JPG
break,html.Screen,4_50_1,2023-09-13T15:54:49.899Z,,0,,,NaN,,,,,,false,,,,515310.39999961853,515310.2999997139,,515310.09999990463,,515315.522,8,400,,,
break_continue,html.Screen,4_50_2,2023-09-13T15:54:49.899Z,,0,,,NaN,,,,,,false,,,,515310.59999990463,515310.59999990463,,515310.5,,515315.522,8,400,,,
sequence,flow.Sequence,4_50,2023-09-13T15:54:49.899Z,,0,,,4854.502999904624,completion,,,,,false,,,,515310.69999980927,515310.59999990463,510439.379,510445.09999990463,510456.097,515315.522,8,400,,,
trial,html.Screen,4_51_0,2023-09-13T15:54:55.244Z,,0,2,,5339.978000000003,response,ISIC_0000159.JPG,4,ISIC_0025900.JPG,ISIC_0025900.JPG,false,0,keypress(z),500,520655.59999990463,520655.5,515298.843,515310.69999980927,515315.522,520675.988,8,400,2,,ISIC_0000159.JPG
break,html.Screen,4_51_1,2023-09-13T15:54:55.245Z,,0,,,NaN,,,,,,false,,,,520656.09999990463,520656,,520655.7999997139,,520675.988,8,400,,,
break_continue,html.Screen,4_51_2,2023-09-13T15:54:55.245Z,,0,,,NaN,,,,,,false,,,,520656.19999980927,520656.19999980927,,520656.09999990463,,520675.988,8,400,,,
sequence,flow.Sequence,4_51,2023-09-13T15:54:55.245Z,,0,,,5340.677999809268,completion,,,,,false,,,,520656.2999997139,520656.19999980927,515298.843,515310.69999980927,515315.522,520675.988,8,400,,,
trial,html.Screen,4_52_0,2023-09-13T15:55:02.070Z,,0,2,,6804.811999713886,response,ISIC_6317162.JPG,6,ISIC_2509304.JPG,ISIC_2509304.JPG,false,0,keypress(z),500,527481.2999997139,527480.7999997139,520659.255,520656.2999997139,520675.988,527489.29,8,400,3,,ISIC_6317162.JPG
break,html.Screen,4_52_1,2023-09-13T15:55:02.072Z,,0,,,NaN,,,,,,false,,,,527483.1999998093,527482.6999998093,,527481.5999999046,,527489.29,8,400,,,
break_continue,html.Screen,4_52_2,2023-09-13T15:55:02.073Z,,0,,,NaN,,,,,,false,,,,527484.0999999046,527483.7999997139,,527483.5,,527489.29,8,400,,,
sequence,flow.Sequence,4_52,2023-09-13T15:55:02.073Z,,0,,,6807.811999713886,completion,,,,,false,,,,527484.5,527483.7999997139,520659.255,520656.2999997139,520675.988,527489.29,8,400,,,
trial,html.Screen,4_53_0,2023-09-13T15:55:06.829Z,,0,2,,4750.609999618493,response,ISIC_7614221.JPG,6,ISIC_0067696.JPG,ISIC_7614221.JPG,false,1,keypress(m),500,532240.0999999046,532239.8999996185,527472.519,527484.8999996185,527489.29,532265.221,8,400,4,,ISIC_0067696.JPG
break,html.Screen,4_53_1,2023-09-13T15:55:06.829Z,,0,,,NaN,,,,,,false,,,,532240.5999999046,532240.5,,532240.1999998093,,532265.221,8,400,,,
break_continue,html.Screen,4_53_2,2023-09-13T15:55:06.829Z,,0,,,NaN,,,,,,false,,,,532240.6999998093,532240.6999998093,,532240.5999999046,,532265.221,8,400,,,
sequence,flow.Sequence,4_53,2023-09-13T15:55:06.829Z,,0,,,4751.409999809228,completion,,,,,false,,,,532240.7999997139,532240.6999998093,527472.519,527484.7999997139,527489.29,532265.221,8,400,,,
trial,html.Screen,4_54_0,2023-09-13T15:55:11.795Z,,0,2,,4941.478999809246,response,ISIC_4460849.JPG,5,ISIC_0014598.JPG,ISIC_0014598.JPG,false,0,keypress(z),500,537206.8999996185,537206.6999998093,532248.52,532240.8999996185,532265.221,537208.185,8,400,5,,ISIC_4460849.JPG
break,html.Screen,4_54_1,2023-09-13T15:55:11.796Z,,0,,,NaN,,,,,,false,,,,537207.5,537207.3999996185,,537207,,537208.185,8,400,,,
break_continue,html.Screen,4_54_2,2023-09-13T15:55:11.796Z,,0,,,NaN,,,,,,false,,,,537207.7999997139,537207.6999998093,,537207.5999999046,,537208.185,8,400,,,
sequence,flow.Sequence,4_54,2023-09-13T15:55:11.796Z,,0,,,4942.478999809246,completion,,,,,false,,,,537207.8999996185,537207.6999998093,532248.52,532240.8999996185,532265.221,537208.185,8,400,,,
trial,html.Screen,4_55_0,2023-09-13T15:55:16.457Z,,0,2,,4658.214999618474,response,ISIC_0000523.JPG,7,ISIC_6985114.JPG,ISIC_6985114.JPG,false,0,keypress(z),500,541866.5,541866.3999996185,537191.571,537208,537208.185,541867.276,8,400,6,,ISIC_0000523.JPG
break,html.Screen,4_55_1,2023-09-13T15:55:16.457Z,,0,,,NaN,,,,,,false,,,,541867.0999999046,541866.8999996185,,541866.5999999046,,541867.276,8,400,,,
break_continue,html.Screen,4_55_2,2023-09-13T15:55:16.458Z,,0,,,NaN,,,,,,false,,,,541867.2999997139,541867.2999997139,,541867.1999998093,,541867.276,8,400,,,
sequence,flow.Sequence,4_55,2023-09-13T15:55:16.458Z,,0,,,4659.114999713842,completion,,,,,false,,,,541867.5999999046,541867.2999997139,537191.571,537208,537208.185,541867.276,8,400,,,
trial,html.Screen,4_56_0,2023-09-13T15:55:21.499Z,,0,2,,5041.523999713943,response,ISIC_8211214.JPG,5,ISIC_0069264.JPG,ISIC_8211214.JPG,false,1,keypress(m),500,546908.8999996185,546908.7999997139,541850.488,541867.5999999046,541867.276,546910.365,8,400,7,,ISIC_0069264.JPG
break,html.Screen,4_56_1,2023-09-13T15:55:21.500Z,,0,,,NaN,,,,,,false,,,,546909.5,546909.2999997139,,546909,,546910.365,8,400,,,
break_continue,html.Screen,4_56_2,2023-09-13T15:55:21.500Z,,0,,,NaN,,,,,,false,,,,546909.5999999046,546909.5999999046,,546909.5,,546910.365,8,400,,,
sequence,flow.Sequence,4_56,2023-09-13T15:55:21.500Z,,0,,,5042.323999904678,completion,,,,,false,,,,546909.6999998093,546909.5999999046,541850.488,541867.5999999046,541867.276,546910.365,8,400,,,
trial,html.Screen,4_57_0,2023-09-13T15:55:26.639Z,,0,2,,5138.135000000009,response,ISIC_0057015.JPG,5,ISIC_8292279.JPG,ISIC_8292279.JPG,false,0,keypress(z),500,552048.6999998093,552048.5,546893.688,546909.8999996185,546910.365,552070.409,8,400,8,,ISIC_0057015.JPG
break,html.Screen,4_57_1,2023-09-13T15:55:26.639Z,,0,,,NaN,,,,,,false,,,,552049.1999998093,552049,,552048.7999997139,,552070.409,8,400,,,
break_continue,html.Screen,4_57_2,2023-09-13T15:55:26.640Z,,0,,,NaN,,,,,,false,,,,552049.3999996185,552049.3999996185,,552049.2999997139,,552070.409,8,400,,,
sequence,flow.Sequence,4_57,2023-09-13T15:55:26.640Z,,0,,,5139.03499961854,completion,,,,,false,,,,552049.5,552049.3999996185,546893.688,546909.7999997139,546910.365,552070.409,8,400,,,
trial,html.Screen,4_58_0,2023-09-13T15:55:31.960Z,,0,2,,5299.591000000015,response,ISIC_9865097.JPG,5,ISIC_0000484.JPG,ISIC_9865097.JPG,false,1,keypress(m),500,557370.0999999046,557370,552053.683,552049.5,552070.409,557380.707,8,400,9,,ISIC_0000484.JPG
break,html.Screen,4_58_1,2023-09-13T15:55:31.961Z,,0,,,NaN,,,,,,false,,,,557370.6999998093,557370.6999998093,,557370.2999997139,,557380.707,8,400,,,
break_continue,html.Screen,4_58_2,2023-09-13T15:55:31.961Z,,0,,,NaN,,,,,,false,,,,557370.8999996185,557370.7999997139,,557370.7999997139,,557380.707,8,400,,,
sequence,flow.Sequence,4_58,2023-09-13T15:55:31.961Z,,0,,,5300.390999713913,completion,,,,,false,,,,557371,557370.7999997139,552053.683,552049.5,552070.409,557380.707,8,400,,,
trial,html.Screen,4_59_0,2023-09-13T15:55:36.331Z,,0,2,,4360.192999618477,response,ISIC_1200192.JPG,4,ISIC_0031746.JPG,ISIC_1200192.JPG,false,1,keypress(m),500,561741,561740.8999996185,557364.165,557371,557380.707,561755.975,8,400,10,,ISIC_0031746.JPG
break,html.Screen,4_59_1,2023-09-13T15:55:36.332Z,,0,,,NaN,,,,,,false,,,,561741.5999999046,561741.5,,561741.1999998093,,561755.975,8,400,,,
break_continue,html.Screen,4_59_2,2023-09-13T15:55:36.332Z,,0,,,NaN,,,,,,false,,,,561741.7999997139,561741.6999998093,,561741.5999999046,,561755.975,8,400,,,
sequence,flow.Sequence,4_59,2023-09-13T15:55:36.332Z,,0,,,4360.992999809212,completion,,,,,false,,,,561741.8999996185,561741.6999998093,557364.165,557371,557380.707,561755.975,8,400,,,
trial,html.Screen,4_60_0,2023-09-13T15:55:42.302Z,,0,2,,5955.624999904656,response,ISIC_0046618.JPG,5,ISIC_4131353.JPG,ISIC_4131353.JPG,false,0,keypress(z),500,567711.7999997139,567711.5999999046,561739.34,561742,561755.975,567717.527,8,400,11,,ISIC_0046618.JPG
break,html.Screen,4_60_1,2023-09-13T15:55:42.302Z,,0,,,NaN,,,,,,false,,,,567712.1999998093,567712.0999999046,,567711.8999996185,,567717.527,8,400,,,
break_continue,html.Screen,4_60_2,2023-09-13T15:55:42.303Z,,0,,,NaN,,,,,,false,,,,567712.3999996185,567712.2999997139,,567712.2999997139,,567717.527,8,400,,,
sequence,flow.Sequence,4_60,2023-09-13T15:55:42.303Z,,0,,,5956.324999713921,completion,,,,,false,,,,567712.5,567712.2999997139,561739.34,561741.8999996185,561755.975,567717.527,8,400,,,
trial,html.Screen,4_61_0,2023-09-13T15:55:46.983Z,,0,2,,4675.572999904631,response,ISIC_0033636.JPG,5,ISIC_0065022.JPG,ISIC_0065022.JPG,false,0,keypress(z),500,572393.1999998093,572393.0999999046,567700.844,567712.5999999046,567717.527,572409.999,8,400,12,,ISIC_0033636.JPG
break,html.Screen,4_61_1,2023-09-13T15:55:46.984Z,,0,,,NaN,,,,,,false,,,,572394.1999998093,572393.7999997139,,572393.3999996185,,572409.999,8,400,,,
break_continue,html.Screen,4_61_2,2023-09-13T15:55:46.985Z,,0,,,NaN,,,,,,false,,,,572394.3999996185,572394.2999997139,,572394.1999998093,,572409.999,8,400,,,
sequence,flow.Sequence,4_61,2023-09-13T15:55:46.985Z,,0,,,4676.772999713896,completion,,,,,false,,,,572394.5,572394.2999997139,567700.844,567712.5999999046,567717.527,572409.999,8,400,,,
trial,html.Screen,4_62_0,2023-09-13T15:55:52.254Z,,0,2,,5253.200999809313,response,ISIC_9906378.JPG,6,ISIC_5583159.JPG,ISIC_5583159.JPG,false,0,keypress(z),500,577663.3999996185,577663.1999998093,572393.526,572394.5999999046,572409.999,577686.955,8,400,13,,ISIC_9906378.JPG
break,html.Screen,4_62_1,2023-09-13T15:55:52.254Z,,0,,,NaN,,,,,,false,,,,577663.7999997139,577663.6999998093,,577663.5,,577686.955,8,400,,,
break_continue,html.Screen,4_62_2,2023-09-13T15:55:52.254Z,,0,,,NaN,,,,,,false,,,,577664,577664,,577663.8999996185,,577686.955,8,400,,,
sequence,flow.Sequence,4_62,2023-09-13T15:55:52.254Z,,0,,,5254.0010000000475,completion,,,,,false,,,,577664.0999999046,577664,572393.526,572394.5999999046,572409.999,577686.955,8,400,,,
trial,html.Screen,4_63_0,2023-09-13T15:55:56.823Z,,0,2,,4545.6449999046745,response,ISIC_0009940.JPG,5,ISIC_1020369.JPG,ISIC_1020369.JPG,false,0,keypress(z),500,582232.7999997139,582232.5999999046,577670.247,577664.1999998093,577686.955,582262.582,8,400,14,,ISIC_0009940.JPG
break,html.Screen,4_63_1,2023-09-13T15:55:56.823Z,,0,,,NaN,,,,,,false,,,,582233.0999999046,582233,,582232.7999997139,,582262.582,8,400,,,
break_continue,html.Screen,4_63_2,2023-09-13T15:55:56.824Z,,0,,,NaN,,,,,,false,,,,582233.3999996185,582233.2999997139,,582233.2999997139,,582262.582,8,400,,,
sequence,flow.Sequence,4_63,2023-09-13T15:55:56.824Z,,0,,,4546.34499971394,completion,,,,,false,,,,582233.5,582233.2999997139,577670.247,577664.1999998093,577686.955,582262.582,8,400,,,
trial,html.Screen,4_64_0,2023-09-13T15:56:02.810Z,,0,2,,5956.717999713845,response,ISIC_3133127.JPG,5,ISIC_0032490.JPG,ISIC_3133127.JPG,false,1,keypress(m),500,588219.5,588219.2999997139,582245.945,582233.5999999046,582262.582,588240.76,8,400,15,,ISIC_0032490.JPG
break,html.Screen,4_64_1,2023-09-13T15:56:02.810Z,,0,,,NaN,,,,,,false,,,,588220.0999999046,588219.7999997139,,588219.5,,588240.76,8,400,,,
break_continue,html.Screen,4_64_2,2023-09-13T15:56:02.811Z,,0,,,NaN,,,,,,false,,,,588220.2999997139,588220.2999997139,,588220.1999998093,,588240.76,8,400,,,
sequence,flow.Sequence,4_64,2023-09-13T15:56:02.811Z,,0,,,5957.717999713845,completion,,,,,false,,,,588220.5,588220.2999997139,582245.945,582233.5999999046,582262.582,588240.76,8,400,,,
trial,html.Screen,4_65_0,2023-09-13T15:56:08.577Z,,0,2,,5745.939999809256,response,ISIC_8618835.JPG,6,ISIC_4494516.JPG,ISIC_8618835.JPG,false,1,keypress(m),500,593986.8999996185,593986.6999998093,588224.171,588220.5,588240.76,594002.061,8,400,16,,ISIC_4494516.JPG
break,html.Screen,4_65_1,2023-09-13T15:56:08.578Z,,0,,,NaN,,,,,,false,,,,593987.3999996185,593987.1999998093,,593986.8999996185,,594002.061,8,400,,,
break_continue,html.Screen,4_65_2,2023-09-13T15:56:08.578Z,,0,,,NaN,,,,,,false,,,,593987.5,593987.5,,593987.3999996185,,594002.061,8,400,,,
sequence,flow.Sequence,4_65,2023-09-13T15:56:08.578Z,,0,,,5746.739999999991,completion,,,,,false,,,,593987.5999999046,593987.5,588224.171,588220.5,588240.76,594002.061,8,400,,,
trial,html.Screen,4_66_0,2023-09-13T15:56:12.935Z,,0,2,,4341.138999809278,response,ISIC_0030356.JPG,5,ISIC_8462364.JPG,ISIC_8462364.JPG,false,0,keypress(z),500,598343.3999996185,598343.1999998093,593985.307,593987.6999998093,594002.061,598343.81,8,400,17,,ISIC_0030356.JPG
break,html.Screen,4_66_1,2023-09-13T15:56:12.935Z,,0,,,NaN,,,,,,false,,,,598343.7999997139,598343.6999998093,,598343.3999996185,,598343.81,8,400,,,
break_continue,html.Screen,4_66_2,2023-09-13T15:56:12.936Z,,0,,,NaN,,,,,,false,,,,598344,598344,,598343.7999997139,,598343.81,8,400,,,
sequence,flow.Sequence,4_66,2023-09-13T15:56:12.936Z,,0,,,4341.939000000013,completion,,,,,false,,,,598344.1999998093,598344,593985.307,593987.6999998093,594002.061,598343.81,8,400,,,
trial,html.Screen,4_67_0,2023-09-13T15:56:18.669Z,,0,2,,5733.589999618474,response,ISIC_6008974.JPG,6,ISIC_4166490.JPG,ISIC_4166490.JPG,false,0,keypress(z),500,604077.5999999046,604077.3999996185,598327.09,598344.3999996185,598343.81,604088.32,8,400,18,,ISIC_6008974.JPG
break,html.Screen,4_67_1,2023-09-13T15:56:18.670Z,,0,,,NaN,,,,,,false,,,,604078.3999996185,604078.0999999046,,604077.7999997139,,604088.32,8,400,,,
break_continue,html.Screen,4_67_2,2023-09-13T15:56:18.670Z,,0,,,NaN,,,,,,false,,,,604078.7999997139,604078.5999999046,,604078.5,,604088.32,8,400,,,
sequence,flow.Sequence,4_67,2023-09-13T15:56:18.670Z,,0,,,5734.789999904577,completion,,,,,false,,,,604078.8999996185,604078.5999999046,598327.09,598344.3999996185,598343.81,604088.32,8,400,,,
trial,html.Screen,4_68_0,2023-09-13T15:56:24.481Z,,0,2,,5800.779999904684,response,ISIC_2927673.JPG,6,ISIC_4871616.JPG,ISIC_2927673.JPG,false,1,keypress(m),500,609889.1999998093,609889.0999999046,604071.621,604079,604088.32,609916.331,8,400,19,,ISIC_4871616.JPG
break,html.Screen,4_68_1,2023-09-13T15:56:24.481Z,,0,,,NaN,,,,,,false,,,,609889.5999999046,609889.5,,609889.2999997139,,609916.331,8,400,,,
break_continue,html.Screen,4_68_2,2023-09-13T15:56:24.481Z,,0,,,NaN,,,,,,false,,,,609889.7999997139,609889.6999998093,,609889.6999998093,,609916.331,8,400,,,
sequence,flow.Sequence,4_68,2023-09-13T15:56:24.481Z,,0,,,5801.379999809316,completion,,,,,false,,,,609889.8999996185,609889.6999998093,604071.621,604078.8999996185,604088.32,609916.331,8,400,,,
trial,html.Screen,4_69_0,2023-09-13T15:56:29.475Z,,0,2,,4967.468999713892,response,ISIC_0025897.JPG,5,ISIC_3093026.JPG,ISIC_3093026.JPG,false,0,keypress(z),500,614883.7999997139,614883.7999997139,609899.632,609889.8999996185,609916.331,614892.687,8,400,20,,ISIC_0025897.JPG
break,html.Screen,4_69_1,2023-09-13T15:56:29.476Z,,0,,,NaN,,,,,,false,,,,614884.2999997139,614884.1999998093,,614884,,614892.687,8,400,,,
break_continue,html.Screen,4_69_2,2023-09-13T15:56:29.476Z,,0,,,NaN,,,,,,false,,,,614884.3999996185,614884.3999996185,,614884.3999996185,,614892.687,8,400,,,
sequence,flow.Sequence,4_69,2023-09-13T15:56:29.476Z,,0,,,4968.068999618525,completion,,,,,false,,,,614884.5,614884.3999996185,609899.632,609889.8999996185,609916.331,614892.687,8,400,,,
trial,html.Screen,4_70_0,2023-09-13T15:56:33.925Z,,0,2,,4440.912999904598,response,ISIC_0033485.JPG,5,ISIC_0806303.JPG,ISIC_0806303.JPG,false,0,keypress(z),500,619333.7999997139,619333.5999999046,614875.96,614884.5999999046,614892.687,619351.415,8,400,21,,ISIC_0033485.JPG
break,html.Screen,4_70_1,2023-09-13T15:56:33.926Z,,0,,,NaN,,,,,,false,,,,619334.1999998093,619334.0999999046,,619333.8999996185,,619351.415,8,400,,,
break_continue,html.Screen,4_70_2,2023-09-13T15:56:33.926Z,,0,,,NaN,,,,,,false,,,,619334.3999996185,619334.2999997139,,619334.2999997139,,619351.415,8,400,,,
sequence,flow.Sequence,4_70,2023-09-13T15:56:33.926Z,,0,,,4441.612999713863,completion,,,,,false,,,,619334.5,619334.2999997139,614875.96,614884.5999999046,614892.687,619351.415,8,400,,,
trial,html.Screen,4_71_0,2023-09-13T15:56:40.343Z,,0,2,,6400.184999904595,response,ISIC_9829436.JPG,4,ISIC_0032828.JPG,ISIC_9829436.JPG,false,1,keypress(m),500,625751.7999997139,625751.5999999046,619334.609,619334.5,619351.415,625780.552,8,400,22,,ISIC_0032828.JPG
break,html.Screen,4_71_1,2023-09-13T15:56:40.344Z,,0,,,NaN,,,,,,false,,,,625752.1999998093,625752.0999999046,,625751.8999996185,,625780.552,8,400,,,
break_continue,html.Screen,4_71_2,2023-09-13T15:56:40.344Z,,0,,,NaN,,,,,,false,,,,625752.5,625752.3999996185,,625752.2999997139,,625780.552,8,400,,,
sequence,flow.Sequence,4_71,2023-09-13T15:56:40.344Z,,0,,,6400.984999618493,completion,,,,,false,,,,625752.5999999046,625752.3999996185,619334.609,619334.5,619351.415,625780.552,8,400,,,
trial,html.Screen,4_72_0,2023-09-13T15:56:45.694Z,,0,2,,5321.947999999975,response,ISIC_7412559.JPG,4,ISIC_0024449.JPG,ISIC_7412559.JPG,false,1,keypress(m),500,631102.5,631102.5,625763.894,625752.5999999046,625780.552,631124.301,8,400,23,,ISIC_0024449.JPG
break,html.Screen,4_72_1,2023-09-13T15:56:45.694Z,,0,,,NaN,,,,,,false,,,,631103,631102.7999997139,,631102.5999999046,,631124.301,8,400,,,
break_continue,html.Screen,4_72_2,2023-09-13T15:56:45.695Z,,0,,,NaN,,,,,,false,,,,631103,631103,,631103,,631124.301,8,400,,,
sequence,flow.Sequence,4_72,2023-09-13T15:56:45.695Z,,0,,,5322.447999999975,completion,,,,,false,,,,631103.0999999046,631103,625763.894,625752.5999999046,625780.552,631124.301,8,400,,,
trial,html.Screen,4_73_0,2023-09-13T15:56:50.852Z,,0,2,,5135.8989998092875,response,ISIC_8885809.JPG,6,ISIC_0031931.JPG,ISIC_8885809.JPG,false,1,keypress(m),500,636260.3999996185,636260.1999998093,631107.717,631103.1999998093,631124.301,636267.551,8,400,24,,ISIC_0031931.JPG
break,html.Screen,4_73_1,2023-09-13T15:56:50.852Z,,0,,,NaN,,,,,,false,,,,636260.8999996185,636260.6999998093,,636260.5,,636267.551,8,400,,,
break_continue,html.Screen,4_73_2,2023-09-13T15:56:50.853Z,,0,,,NaN,,,,,,false,,,,636261,636261,,636261,,636267.551,8,400,,,
sequence,flow.Sequence,4_73,2023-09-13T15:56:50.853Z,,0,,,5136.699000000022,completion,,,,,false,,,,636261.1999998093,636261,631107.717,631103.1999998093,631124.301,636267.551,8,400,,,
trial,html.Screen,4_74_0,2023-09-13T15:56:58.152Z,,0,2,,7292.949000000022,response,ISIC_0005006.JPG,5,ISIC_5754070.JPG,ISIC_0005006.JPG,false,1,keypress(m),500,643560.7999997139,643560.5,636250.91,636261.2999997139,636267.551,643565.215,8,400,25,,ISIC_5754070.JPG
break,html.Screen,4_74_1,2023-09-13T15:56:58.155Z,,0,,,NaN,,,,,,false,,,,643563.1999998093,643562.6999998093,,643561.6999998093,,643565.215,8,400,,,
break_continue,html.Screen,4_74_2,2023-09-13T15:56:58.156Z,,0,,,NaN,,,,,,false,,,,643564.0999999046,643563.7999997139,,643563.5,,643565.215,8,400,,,
sequence,flow.Sequence,4_74,2023-09-13T15:56:58.156Z,,0,,,7296.24899971392,completion,,,,,false,,,,643564.3999996185,643563.7999997139,636250.91,636261.1999998093,636267.551,643565.215,8,400,,,
trial,html.Screen,4_75_0,2023-09-13T15:57:03.215Z,,0,2,,5057.984999809298,response,ISIC_7225978.JPG,4,ISIC_0070948.JPG,ISIC_7225978.JPG,false,1,keypress(m),500,648623.3999996185,648623.1999998093,643548.538,643564.6999998093,643565.215,648624.983,8,400,26,,ISIC_0070948.JPG
break,html.Screen,4_75_1,2023-09-13T15:57:03.216Z,,0,,,NaN,,,,,,false,,,,648624,648623.8999996185,,648623.5999999046,,648624.983,8,400,,,
break_continue,html.Screen,4_75_2,2023-09-13T15:57:03.216Z,,0,,,NaN,,,,,,false,,,,648624.2999997139,648624.1999998093,,648624.0999999046,,648624.983,8,400,,,
sequence,flow.Sequence,4_75,2023-09-13T15:57:03.216Z,,0,,,5058.984999809298,completion,,,,,false,,,,648624.3999996185,648624.1999998093,643548.538,643564.5999999046,643565.215,648624.983,8,400,,,
trial,html.Screen,4_76_0,2023-09-13T15:57:07.553Z,,0,2,,4336.716999809258,response,ISIC_8637134.JPG,5,ISIC_0072837.JPG,ISIC_8637134.JPG,false,1,keypress(m),500,652961.7999997139,652961.6999998093,648608.545,648624.5,648624.983,652966.785,8,400,27,,ISIC_0072837.JPG
break,html.Screen,4_76_1,2023-09-13T15:57:07.554Z,,0,,,NaN,,,,,,false,,,,652962.5,652962.2999997139,,652962,,652966.785,8,400,,,
break_continue,html.Screen,4_76_2,2023-09-13T15:57:07.554Z,,0,,,NaN,,,,,,false,,,,652962.6999998093,652962.5999999046,,652962.5,,652966.785,8,400,,,
sequence,flow.Sequence,4_76,2023-09-13T15:57:07.554Z,,0,,,4337.616999904625,completion,,,,,false,,,,652962.6999998093,652962.5999999046,648608.545,648624.3999996185,648624.983,652966.785,8,400,,,
trial,html.Screen,4_77_0,2023-09-13T15:57:15.576Z,,0,2,,8016.3149999046,response,ISIC_6715897.JPG,4,ISIC_0030407.JPG,ISIC_6715897.JPG,false,1,keypress(m),500,660983.1999998093,660983.0999999046,652950.063,652962.7999997139,652966.785,661015.735,8,400,28,,ISIC_0030407.JPG
break,html.Screen,4_77_1,2023-09-13T15:57:15.577Z,,0,,,NaN,,,,,,false,,,,660983.7999997139,660983.6999998093,,660983.2999997139,,661015.735,8,400,,,
break_continue,html.Screen,4_77_2,2023-09-13T15:57:15.577Z,,0,,,NaN,,,,,,false,,,,660984,660983.8999996185,,660983.7999997139,,661015.735,8,400,,,
sequence,flow.Sequence,4_77,2023-09-13T15:57:15.577Z,,0,,,8017.114999618498,completion,,,,,false,,,,660984,660983.8999996185,652950.063,652962.7999997139,652966.785,661015.735,8,400,,,
trial,html.Screen,4_78_0,2023-09-13T15:57:20.475Z,,0,2,,4865.8649999046465,response,ISIC_0054925.JPG,5,ISIC_0069385.JPG,ISIC_0069385.JPG,false,0,keypress(z),500,665881.6999998093,665881.5999999046,660999.064,660984.1999998093,661015.735,665891.987,8,400,29,,ISIC_0054925.JPG
break,html.Screen,4_78_1,2023-09-13T15:57:20.475Z,,0,,,NaN,,,,,,false,,,,665882.2999997139,665882.0999999046,,665881.8999996185,,665891.987,8,400,,,
break_continue,html.Screen,4_78_2,2023-09-13T15:57:20.476Z,,0,,,NaN,,,,,,false,,,,665882.5999999046,665882.3999996185,,665882.2999997139,,665891.987,8,400,,,
sequence,flow.Sequence,4_78,2023-09-13T15:57:20.476Z,,0,,,4866.664999618544,completion,,,,,false,,,,665882.6999998093,665882.3999996185,660999.064,660984.0999999046,661015.735,665891.987,8,400,,,
trial,html.Screen,4_79_0,2023-09-13T15:57:24.884Z,,0,2,,4398.7129998093005,response,ISIC_8172822.JPG,5,ISIC_9125543.JPG,ISIC_9125543.JPG,false,0,keypress(z),500,670290.8999996185,670290.6999998093,665875.232,665882.6999998093,665891.987,670300.502,8,400,30,,ISIC_8172822.JPG
break,html.Screen,4_79_1,2023-09-13T15:57:24.885Z,,0,,,NaN,,,,,,false,,,,670291.3999996185,670291.1999998093,,670291,,670300.502,8,400,,,
break_continue,html.Screen,4_79_2,2023-09-13T15:57:24.885Z,,0,,,NaN,,,,,,false,,,,670291.8999996185,670291.7999997139,,670291.6999998093,,670300.502,8,400,,,
sequence,flow.Sequence,4_79,2023-09-13T15:57:24.885Z,,0,,,4399.812999713933,completion,,,,,false,,,,670291.8999996185,670291.7999997139,665875.232,665882.6999998093,665891.987,670300.502,8,400,,,
trial,html.Screen,4_80_0,2023-09-13T15:57:29.991Z,,0,2,,5097.397999618552,response,ISIC_0065521.JPG,6,ISIC_6027459.JPG,ISIC_6027459.JPG,false,0,keypress(z),500,675398,675397.8999996185,670283.762,670291.8999996185,670300.502,675410.571,8,400,31,,ISIC_0065521.JPG
break,html.Screen,4_80_1,2023-09-13T15:57:29.992Z,,0,,,NaN,,,,,,false,,,,675398.3999996185,675398.2999997139,,675398.0999999046,,675410.571,8,400,,,
break_continue,html.Screen,4_80_2,2023-09-13T15:57:29.992Z,,0,,,NaN,,,,,,false,,,,675398.5999999046,675398.5,,675398.3999996185,,675410.571,8,400,,,
sequence,flow.Sequence,4_80,2023-09-13T15:57:29.992Z,,0,,,5097.998000000021,completion,,,,,false,,,,675398.6999998093,675398.5,670283.762,670291.8999996185,670300.502,675410.571,8,400,,,
trial,html.Screen,4_81_0,2023-09-13T15:57:34.033Z,,0,2,,4028.7289997139014,response,ISIC_4418545.JPG,5,ISIC_0056984.JPG,ISIC_4418545.JPG,false,1,keypress(m),500,679439.3999996185,679439.2999997139,675393.752,675398.6999998093,675410.571,679451.645,8,400,32,,ISIC_0056984.JPG
break,html.Screen,4_81_1,2023-09-13T15:57:34.033Z,,0,,,NaN,,,,,,false,,,,679440,679439.7999997139,,679439.5,,679451.645,8,400,,,
break_continue,html.Screen,4_81_2,2023-09-13T15:57:34.033Z,,0,,,NaN,,,,,,false,,,,679440.2999997139,679440.1999998093,,679440.0999999046,,679451.645,8,400,,,
sequence,flow.Sequence,4_81,2023-09-13T15:57:34.034Z,,0,,,4029.628999809269,completion,,,,,false,,,,679440.3999996185,679440.1999998093,675393.752,675398.6999998093,675410.571,679451.645,8,400,,,
trial,html.Screen,4_82_0,2023-09-13T15:57:39.091Z,,0,2,,5045.954999904614,response,ISIC_4243283.JPG,4,ISIC_1532684.JPG,ISIC_1532684.JPG,false,0,keypress(z),500,684497.7999997139,684497.5999999046,679435.014,679440.5,679451.645,684511.565,8,400,33,,ISIC_4243283.JPG
break,html.Screen,4_82_1,2023-09-13T15:57:39.092Z,,0,,,NaN,,,,,,false,,,,684498.7999997139,684498.3999996185,,684498,,684511.565,8,400,,,
break_continue,html.Screen,4_82_2,2023-09-13T15:57:39.092Z,,0,,,NaN,,,,,,false,,,,684499.1999998093,684499,,684498.8999996185,,684511.565,8,400,,,
sequence,flow.Sequence,4_82,2023-09-13T15:57:39.092Z,,0,,,5047.354999999981,completion,,,,,false,,,,684499.3999996185,684499,679435.014,679440.3999996185,679451.645,684511.565,8,400,,,
trial,html.Screen,4_83_0,2023-09-13T15:57:43.878Z,,0,2,,4773.534999904688,response,ISIC_1323048.JPG,5,ISIC_2852805.JPG,ISIC_2852805.JPG,false,0,keypress(z),500,689285.1999998093,689285.0999999046,684494.851,684499.5,684511.565,689287.45,8,400,34,,ISIC_1323048.JPG
break,html.Screen,4_83_1,2023-09-13T15:57:43.879Z,,0,,,NaN,,,,,,false,,,,689285.6999998093,689285.5999999046,,689285.2999997139,,689287.45,8,400,,,
break_continue,html.Screen,4_83_2,2023-09-13T15:57:43.879Z,,0,,,NaN,,,,,,false,,,,689286.0999999046,689286.0999999046,,689285.8999996185,,689287.45,8,400,,,
sequence,flow.Sequence,4_83,2023-09-13T15:57:43.879Z,,0,,,4774.534999904688,completion,,,,,false,,,,689286.1999998093,689286.0999999046,684494.851,684499.3999996185,684511.565,689287.45,8,400,,,
trial,html.Screen,4_84_0,2023-09-13T15:57:49.065Z,,0,2,,5184.550000000047,response,ISIC_0034193.JPG,5,ISIC_0053469.JPG,ISIC_0034193.JPG,false,1,keypress(m),500,694472.3999996185,694472,689270.906,689286.2999997139,689287.45,694497.602,8,400,35,,ISIC_0053469.JPG
break,html.Screen,4_84_1,2023-09-13T15:57:49.067Z,,0,,,NaN,,,,,,false,,,,694473.5,694473.2999997139,,694472.6999998093,,694497.602,8,400,,,
break_continue,html.Screen,4_84_2,2023-09-13T15:57:49.067Z,,0,,,NaN,,,,,,false,,,,694473.8999996185,694473.8999996185,,694473.6999998093,,694497.602,8,400,,,
sequence,flow.Sequence,4_84,2023-09-13T15:57:49.067Z,,0,,,5186.449999618577,completion,,,,,false,,,,694474.0999999046,694473.8999996185,689270.906,689286.1999998093,689287.45,694497.602,8,400,,,
trial,html.Screen,4_85_0,2023-09-13T15:57:54.926Z,,0,2,,5834.797999618575,response,ISIC_1185006.JPG,6,ISIC_9751013.JPG,ISIC_9751013.JPG,false,0,keypress(z),500,700332.5999999046,700332.3999996185,694480.866,694474.1999998093,694497.602,700342.372,8,400,36,,ISIC_1185006.JPG
break,html.Screen,4_85_1,2023-09-13T15:57:54.926Z,,0,,,NaN,,,,,,false,,,,700333.0999999046,700332.8999996185,,700332.6999998093,,700342.372,8,400,,,
break_continue,html.Screen,4_85_2,2023-09-13T15:57:54.927Z,,0,,,NaN,,,,,,false,,,,700333.3999996185,700333.3999996185,,700333.1999998093,,700342.372,8,400,,,
sequence,flow.Sequence,4_85,2023-09-13T15:57:54.927Z,,0,,,5835.797999618575,completion,,,,,false,,,,700333.5999999046,700333.3999996185,694480.866,694474.1999998093,694497.602,700342.372,8,400,,,
trial,html.Screen,4_86_0,2023-09-13T15:58:00.771Z,,0,2,,5835.227999904659,response,ISIC_9604922.JPG,5,ISIC_6937199.JPG,ISIC_6937199.JPG,false,0,keypress(z),500,706177.6999998093,706177.5999999046,700325.691,700333.5999999046,700342.372,706186.996,8,400,37,,ISIC_9604922.JPG
break,html.Screen,4_86_1,2023-09-13T15:58:00.771Z,,0,,,NaN,,,,,,false,,,,706178,706177.8999996185,,706177.6999998093,,706186.996,8,400,,,
break_continue,html.Screen,4_86_2,2023-09-13T15:58:00.771Z,,0,,,NaN,,,,,,false,,,,706178.2999997139,706178.1999998093,,706178.1999998093,,706186.996,8,400,,,
sequence,flow.Sequence,4_86,2023-09-13T15:58:00.771Z,,0,,,5835.827999809291,completion,,,,,false,,,,706178.3999996185,706178.1999998093,700325.691,700333.5999999046,700342.372,706186.996,8,400,,,
trial,html.Screen,4_87_0,2023-09-13T15:58:08.315Z,,0,2,,7534.803999713855,response,ISIC_9751013.JPG,5,ISIC_0056603.JPG,ISIC_9751013.JPG,false,1,keypress(m),500,713721.8999996185,713721.7999997139,706170.401,706178.3999996185,706186.996,713735.027,8,400,38,,ISIC_0056603.JPG
break,html.Screen,4_87_1,2023-09-13T15:58:08.316Z,,0,,,NaN,,,,,,false,,,,713722.3999996185,713722.1999998093,,713722,,713735.027,8,400,,,
break_continue,html.Screen,4_87_2,2023-09-13T15:58:08.316Z,,0,,,NaN,,,,,,false,,,,713722.5999999046,713722.5999999046,,713722.5,,713735.027,8,400,,,
sequence,flow.Sequence,4_87,2023-09-13T15:58:08.316Z,,0,,,7535.60399990459,completion,,,,,false,,,,713722.5999999046,713722.5999999046,706170.401,706178.3999996185,706186.996,713735.027,8,400,,,
trial,html.Screen,4_88_0,2023-09-13T15:58:14.417Z,,0,2,,6087.072999904631,response,ISIC_2337650.JPG,4,ISIC_0878793.JPG,ISIC_0878793.JPG,false,0,keypress(z),500,719822.1999998093,719822.0999999046,713718.392,713722.6999998093,713735.027,719830.195,8,400,39,,ISIC_2337650.JPG
break,html.Screen,4_88_1,2023-09-13T15:58:14.417Z,,0,,,NaN,,,,,,false,,,,719822.5999999046,719822.5999999046,,719822.2999997139,,719830.195,8,400,,,
break_continue,html.Screen,4_88_2,2023-09-13T15:58:14.417Z,,0,,,NaN,,,,,,false,,,,719822.7999997139,719822.7999997139,,719822.6999998093,,719830.195,8,400,,,
sequence,flow.Sequence,4_88,2023-09-13T15:58:14.417Z,,0,,,6087.772999713896,completion,,,,,false,,,,719822.8999996185,719822.7999997139,713718.392,713722.6999998093,713735.027,719830.195,8,400,,,
trial,html.Screen,4_89_0,2023-09-13T15:58:20.739Z,,0,2,,6314.2049996185815,response,ISIC_6370977.JPG,4,ISIC_0025500.JPG,ISIC_6370977.JPG,false,1,keypress(m),500,726144.3999996185,726144.3999996185,719813.625,719822.8999996185,719830.195,726159.185,8,400,40,,ISIC_0025500.JPG
break,html.Screen,4_89_1,2023-09-13T15:58:20.739Z,,0,,,NaN,,,,,,false,,,,726144.8999996185,726144.6999998093,,726144.5999999046,,726159.185,8,400,,,
break_continue,html.Screen,4_89_2,2023-09-13T15:58:20.740Z,,0,,,NaN,,,,,,false,,,,726145,726145,,726144.8999996185,,726159.185,8,400,,,
sequence,flow.Sequence,4_89,2023-09-13T15:58:20.740Z,,0,,,6314.805000000051,completion,,,,,false,,,,726145.0999999046,726145,719813.625,719822.8999996185,719830.195,726159.185,8,400,,,
trial,html.Screen,4_90_0,2023-09-13T15:58:27.733Z,,0,2,,6979.114999713842,response,ISIC_0059423.JPG,5,ISIC_0056186.JPG,ISIC_0059423.JPG,false,1,keypress(m),500,733138.5,733138.2999997139,726142.495,726145.1999998093,726159.185,733139.454,8,400,41,,ISIC_0056186.JPG
break,html.Screen,4_90_1,2023-09-13T15:58:27.733Z,,0,,,NaN,,,,,,false,,,,733138.8999996185,733138.6999998093,,733138.5,,733139.454,8,400,,,
break_continue,html.Screen,4_90_2,2023-09-13T15:58:27.734Z,,0,,,NaN,,,,,,false,,,,733139.0999999046,733139,,733139,,733139.454,8,400,,,
sequence,flow.Sequence,4_90,2023-09-13T15:58:27.734Z,,0,,,6979.814999999944,completion,,,,,false,,,,733139.0999999046,733139,726142.495,726145.1999998093,726159.185,733139.454,8,400,,,
trial,html.Screen,4_91_0,2023-09-13T15:58:32.903Z,,0,2,,5168.345999713871,response,ISIC_0025955.JPG,5,ISIC_0033359.JPG,ISIC_0025955.JPG,false,1,keypress(m),500,738308,738307.7999997139,733122.824,733139.0999999046,733139.454,738316.155,8,400,42,,ISIC_0033359.JPG
break,html.Screen,4_91_1,2023-09-13T15:58:32.903Z,,0,,,NaN,,,,,,false,,,,738308.6999998093,738308.3999996185,,738308.0999999046,,738316.155,8,400,,,
break_continue,html.Screen,4_91_2,2023-09-13T15:58:32.904Z,,0,,,NaN,,,,,,false,,,,738309,738308.8999996185,,738308.6999998093,,738316.155,8,400,,,
sequence,flow.Sequence,4_91,2023-09-13T15:58:32.904Z,,0,,,5169.445999618503,completion,,,,,false,,,,738309.0999999046,738308.8999996185,733122.824,733139.0999999046,733139.454,738316.155,8,400,,,
trial,html.Screen,4_92_0,2023-09-13T15:58:39.612Z,,0,2,,6700.944999904605,response,ISIC_7939816.JPG,6,ISIC_6570611.JPG,ISIC_6570611.JPG,false,0,keypress(z),500,745017.1999998093,745017.0999999046,738299.563,738309.1999998093,738316.155,745029.237,8,400,43,,ISIC_7939816.JPG
break,html.Screen,4_92_1,2023-09-13T15:58:39.612Z,,0,,,NaN,,,,,,false,,,,745017.6999998093,745017.5999999046,,745017.2999997139,,745029.237,8,400,,,
break_continue,html.Screen,4_92_2,2023-09-13T15:58:39.612Z,,0,,,NaN,,,,,,false,,,,745017.7999997139,745017.7999997139,,745017.6999998093,,745029.237,8,400,,,
sequence,flow.Sequence,4_92,2023-09-13T15:58:39.613Z,,0,,,6701.64499971387,completion,,,,,false,,,,745018,745017.7999997139,738299.563,738309.1999998093,738316.155,745029.237,8,400,,,
trial,html.Screen,4_93_0,2023-09-13T15:58:44.484Z,,0,2,,4859.9629998093005,response,ISIC_6722934.JPG,6,ISIC_0026915.JPG,ISIC_0026915.JPG,false,0,keypress(z),500,749889.3999996185,749889.1999998093,745012.555,745018.0999999046,745029.237,749905.377,8,400,44,,ISIC_6722934.JPG
break,html.Screen,4_93_1,2023-09-13T15:58:44.485Z,,0,,,NaN,,,,,,false,,,,749890.1999998093,749890,,749889.5,,749905.377,8,400,,,
break_continue,html.Screen,4_93_2,2023-09-13T15:58:44.485Z,,0,,,NaN,,,,,,false,,,,749890.8999996185,749890.5999999046,,749890.3999996185,,749905.377,8,400,,,
sequence,flow.Sequence,4_93,2023-09-13T15:58:44.486Z,,0,,,4861.362999904668,completion,,,,,false,,,,749891.0999999046,749890.5999999046,745012.555,745018.0999999046,745029.237,749905.377,8,400,,,
trial,html.Screen,4_94_0,2023-09-13T15:58:50.600Z,,0,2,,6099.822999809287,response,ISIC_0011137.JPG,5,ISIC_0053810.JPG,ISIC_0011137.JPG,false,1,keypress(m),500,756005.3999996185,756005.1999998093,749888.681,749891.1999998093,749905.377,756017.314,8,400,45,,ISIC_0053810.JPG
break,html.Screen,4_94_1,2023-09-13T15:58:50.601Z,,0,,,NaN,,,,,,false,,,,756006,756005.7999997139,,756005.5999999046,,756017.314,8,400,,,
break_continue,html.Screen,4_94_2,2023-09-13T15:58:50.601Z,,0,,,NaN,,,,,,false,,,,756006.1999998093,756006.1999998093,,756006.0999999046,,756017.314,8,400,,,
sequence,flow.Sequence,4_94,2023-09-13T15:58:50.601Z,,0,,,6100.822999809287,completion,,,,,false,,,,756006.2999997139,756006.1999998093,749888.681,749891.1999998093,749905.377,756017.314,8,400,,,
trial,html.Screen,4_95_0,2023-09-13T15:58:55.277Z,,0,2,,4664.585999618517,response,ISIC_7795549.JPG,5,ISIC_0033526.JPG,ISIC_7795549.JPG,false,1,keypress(m),500,760682.0999999046,760681.8999996185,756000.709,756006.3999996185,756017.314,760693.071,8,400,46,,ISIC_0033526.JPG
break,html.Screen,4_95_1,2023-09-13T15:58:55.277Z,,0,,,NaN,,,,,,false,,,,760682.5,760682.3999996185,,760682.1999998093,,760693.071,8,400,,,
break_continue,html.Screen,4_95_2,2023-09-13T15:58:55.277Z,,0,,,NaN,,,,,,false,,,,760682.6999998093,760682.6999998093,,760682.5999999046,,760693.071,8,400,,,
sequence,flow.Sequence,4_95,2023-09-13T15:58:55.277Z,,0,,,4665.385999809252,completion,,,,,false,,,,760682.8999996185,760682.6999998093,756000.709,756006.3999996185,756017.314,760693.071,8,400,,,
trial,html.Screen,4_96_0,2023-09-13T15:59:01.792Z,,0,2,,6503.828999618534,response,ISIC_0024980.JPG,4,ISIC_0028444.JPG,ISIC_0024980.JPG,false,1,keypress(m),500,767197.0999999046,767196.8999996185,760676.369,760683,760693.071,767205.733,8,400,47,,ISIC_0028444.JPG
break,html.Screen,4_96_1,2023-09-13T15:59:01.792Z,,0,,,NaN,,,,,,false,,,,767197.5999999046,767197.5,,767197.1999998093,,767205.733,8,400,,,
break_continue,html.Screen,4_96_2,2023-09-13T15:59:01.792Z,,0,,,NaN,,,,,,false,,,,767197.7999997139,767197.5999999046,,767197.5999999046,,767205.733,8,400,,,
sequence,flow.Sequence,4_96,2023-09-13T15:59:01.792Z,,0,,,6504.528999904636,completion,,,,,false,,,,767197.7999997139,767197.5999999046,760676.369,760683,760693.071,767205.733,8,400,,,
trial,html.Screen,4_97_0,2023-09-13T15:59:07.189Z,,0,2,,5388.866999904625,response,ISIC_0011234.JPG,4,ISIC_0011422.JPG,ISIC_0011422.JPG,false,0,keypress(z),500,772594.6999998093,772594.5999999046,767189.159,767197.8999996185,767205.733,772599.561,8,400,48,,ISIC_0011234.JPG
break,html.Screen,4_97_1,2023-09-13T15:59:07.190Z,,0,,,NaN,,,,,,false,,,,772595.2999997139,772595.1999998093,,772594.7999997139,,772599.561,8,400,,,
break_continue,html.Screen,4_97_2,2023-09-13T15:59:07.190Z,,0,,,NaN,,,,,,false,,,,772595.5999999046,772595.5999999046,,772595.3999996185,,772599.561,8,400,,,
sequence,flow.Sequence,4_97,2023-09-13T15:59:07.190Z,,0,,,5389.866999904625,completion,,,,,false,,,,772595.5999999046,772595.5999999046,767189.159,767197.8999996185,767205.733,772599.561,8,400,,,
trial,html.Screen,4_98_0,2023-09-13T15:59:12.152Z,,0,2,,4957.939000000013,response,ISIC_0028780.JPG,5,ISIC_5758316.JPG,ISIC_5758316.JPG,false,0,keypress(z),500,777557.5999999046,777557.5,772582.969,772595.6999998093,772599.561,777575.92,8,400,49,,ISIC_0028780.JPG
break,html.Screen,4_98_1,2023-09-13T15:59:12.153Z,,0,,,NaN,,,,,,false,,,,777558,777557.8999996185,,777557.6999998093,,777575.92,8,400,,,
break_continue,html.Screen,4_98_2,2023-09-13T15:59:12.153Z,,0,,,NaN,,,,,,false,,,,777558.1999998093,777558.1999998093,,777558,,777575.92,8,400,,,
sequence,flow.Sequence,4_98,2023-09-13T15:59:12.153Z,,0,,,4958.638999809278,completion,,,,,false,,,,777558.1999998093,777558.1999998093,772582.969,772595.6999998093,772599.561,777575.92,8,400,,,
trial,html.Screen,4_99_0,2023-09-13T15:59:17.901Z,,0,2,,5728.779999809223,response,ISIC_4554863.JPG,6,ISIC_1814941.JPG,ISIC_4554863.JPG,false,1,keypress(m),500,783305,783304.6999998093,777559.201,777558.2999997139,777575.92,783337.243,8,400,50,,ISIC_1814941.JPG
break,html.Screen,4_99_1,2023-09-13T15:59:27.920Z,,0,,,10002.809000000008,timeout,,,,,false,,,,793323.8999996185,793323.34,783320.53,783305.0999999046,783337.243,793340.052,8,400,,,
break_continue,html.Screen,4_99_2,2023-09-13T16:00:23.913Z,,0,,,55934.24799971387,response,,,,,false,continue,keypress(Space),,849316,849274.2999997139,793323.34,793324,793340.052,849332.22,8,400,,,
sequence,flow.Sequence,4_99,2023-09-13T16:00:23.913Z,,0,,,71698.37999971386,completion,,,,,false,,,,849316.1999998093,849274.2999997139,777559.201,777558.2999997139,777575.92,849332.22,8,400,,,
trial,html.Screen,4_100_0,2023-09-13T16:00:30.334Z,,0,3,,6404.780000000028,response,ISIC_8206667.JPG,5,ISIC_3786075.JPG,ISIC_3786075.JPG,false,0,keypress(z),500,855737.0999999046,855737,849315.555,849316.2999997139,849332.22,855761.399,8,400,1,,ISIC_8206667.JPG
break,html.Screen,4_100_1,2023-09-13T16:00:30.335Z,,0,,,NaN,,,,,,false,,,,855737.6999998093,855737.5,,855737.1999998093,,855761.399,8,400,,,
break_continue,html.Screen,4_100_2,2023-09-13T16:00:30.335Z,,0,,,NaN,,,,,,false,,,,855738,855737.8999996185,,855737.7999997139,,855761.399,8,400,,,
sequence,flow.Sequence,4_100,2023-09-13T16:00:30.335Z,,0,,,6405.679999618558,completion,,,,,false,,,,855738,855737.8999996185,849315.555,849316.2999997139,849332.22,855761.399,8,400,,,
trial,html.Screen,4_101_0,2023-09-13T16:00:38.065Z,,0,3,,7706.5009996185545,response,ISIC_6517082.JPG,5,ISIC_0033562.JPG,ISIC_6517082.JPG,false,1,keypress(m),500,863468,863467.8999996185,855744.695,855738.0999999046,855761.399,863476.429,8,400,2,,ISIC_0033562.JPG
break,html.Screen,4_101_1,2023-09-13T16:00:38.066Z,,0,,,NaN,,,,,,false,,,,863468.5999999046,863468.3999996185,,863468.0999999046,,863476.429,8,400,,,
break_continue,html.Screen,4_101_2,2023-09-13T16:00:38.066Z,,0,,,NaN,,,,,,false,,,,863468.8999996185,863468.7999997139,,863468.6999998093,,863476.429,8,400,,,
sequence,flow.Sequence,4_101,2023-09-13T16:00:38.066Z,,0,,,7707.400999713922,completion,,,,,false,,,,863469,863468.7999997139,855744.695,855738.0999999046,855761.399,863476.429,8,400,,,
trial,html.Screen,4_102_0,2023-09-13T16:00:43.155Z,,0,3,,5081.870999713894,response,ISIC_0058186.JPG,5,ISIC_9107280.JPG,ISIC_9107280.JPG,false,0,keypress(z),500,868558.3999996185,868558.2999997139,863459.712,863469.0999999046,863476.429,868569.637,8,400,3,,ISIC_0058186.JPG
break,html.Screen,4_102_1,2023-09-13T16:00:43.156Z,,0,,,NaN,,,,,,false,,,,868558.8999996185,868558.7999997139,,868558.5,,868569.637,8,400,,,
break_continue,html.Screen,4_102_2,2023-09-13T16:00:43.156Z,,0,,,NaN,,,,,,false,,,,868559.1999998093,868559.0999999046,,868559,,868569.637,8,400,,,
sequence,flow.Sequence,4_102,2023-09-13T16:00:43.156Z,,0,,,5082.670999904629,completion,,,,,false,,,,868559.1999998093,868559.0999999046,863459.712,863469,863476.429,868569.637,8,400,,,
trial,html.Screen,4_103_0,2023-09-13T16:00:49.372Z,,0,3,,6205.462999904645,response,ISIC_0066889.JPG,5,ISIC_0011349.JPG,ISIC_0066889.JPG,false,1,keypress(m),500,874775.0999999046,874775.0999999046,868553.06,868559.2999997139,868569.637,874781.835,8,400,4,,ISIC_0011349.JPG
break,html.Screen,4_103_1,2023-09-13T16:00:49.373Z,,0,,,NaN,,,,,,false,,,,874775.5999999046,874775.5,,874775.1999998093,,874781.835,8,400,,,
break_continue,html.Screen,4_103_2,2023-09-13T16:00:49.373Z,,0,,,NaN,,,,,,false,,,,874775.6999998093,874775.5999999046,,874775.5999999046,,874781.835,8,400,,,
sequence,flow.Sequence,4_103,2023-09-13T16:00:49.373Z,,0,,,6205.962999904645,completion,,,,,false,,,,874775.7999997139,874775.5999999046,868553.06,868559.2999997139,868569.637,874781.835,8,400,,,
trial,html.Screen,4_104_0,2023-09-13T16:00:54.398Z,,0,3,,5019.165000000037,response,ISIC_8663136.JPG,6,ISIC_0072157.JPG,ISIC_8663136.JPG,false,1,keypress(m),500,879801.1999998093,879801,874765.187,874775.8999996185,874781.835,879824.921,8,400,5,,ISIC_0072157.JPG
break,html.Screen,4_104_1,2023-09-13T16:00:54.399Z,,0,,,NaN,,,,,,false,,,,879801.6999998093,879801.5999999046,,879801.2999997139,,879824.921,8,400,,,
break_continue,html.Screen,4_104_2,2023-09-13T16:00:54.399Z,,0,,,NaN,,,,,,false,,,,879801.8999996185,879801.8999996185,,879801.7999997139,,879824.921,8,400,,,
sequence,flow.Sequence,4_104,2023-09-13T16:00:54.399Z,,0,,,5020.0649996185675,completion,,,,,false,,,,879802.0999999046,879801.8999996185,874765.187,874775.7999997139,874781.835,879824.921,8,400,,,
trial,html.Screen,4_105_0,2023-09-13T16:01:03.520Z,,0,3,,9098.478999618557,response,ISIC_0015156.JPG,4,ISIC_8306983.JPG,ISIC_8306983.JPG,false,0,keypress(z),500,888923.5999999046,888923.3999996185,879808.291,879802.0999999046,879824.921,888925.939,8,400,6,,ISIC_0015156.JPG
break,html.Screen,4_105_1,2023-09-13T16:01:03.521Z,,0,,,NaN,,,,,,false,,,,888924.0999999046,888923.8999996185,,888923.6999998093,,888925.939,8,400,,,
break_continue,html.Screen,4_105_2,2023-09-13T16:01:03.521Z,,0,,,NaN,,,,,,false,,,,888924.2999997139,888924.2999997139,,888924.1999998093,,888925.939,8,400,,,
sequence,flow.Sequence,4_105,2023-09-13T16:01:03.521Z,,0,,,9099.378999713925,completion,,,,,false,,,,888924.3999996185,888924.2999997139,879808.291,879802.0999999046,879824.921,888925.939,8,400,,,
trial,html.Screen,4_106_0,2023-09-13T16:01:09.939Z,,0,3,,6415.860999713885,response,ISIC_0030929.JPG,6,ISIC_0005769.JPG,ISIC_0005769.JPG,false,0,keypress(z),500,895342,895341.7999997139,888909.398,888924.5,888925.939,895372.029,8,400,7,,ISIC_0030929.JPG
break,html.Screen,4_106_1,2023-09-13T16:01:09.939Z,,0,,,NaN,,,,,,false,,,,895342.3999996185,895342.2999997139,,895342,,895372.029,8,400,,,
break_continue,html.Screen,4_106_2,2023-09-13T16:01:09.940Z,,0,,,NaN,,,,,,false,,,,895342.6999998093,895342.6999998093,,895342.5,,895372.029,8,400,,,
sequence,flow.Sequence,4_106,2023-09-13T16:01:09.940Z,,0,,,6416.760999809252,completion,,,,,false,,,,895342.7999997139,895342.6999998093,888909.398,888924.5,888925.939,895372.029,8,400,,,
trial,html.Screen,4_107_0,2023-09-13T16:01:15.094Z,,0,3,,5124.570999904652,response,ISIC_0867503.JPG,5,ISIC_0054914.JPG,ISIC_0867503.JPG,false,1,keypress(m),500,900496.8999996185,900496.5999999046,895355.274,895342.7999997139,895372.029,900515.354,8,400,8,,ISIC_0054914.JPG
break,html.Screen,4_107_1,2023-09-13T16:01:15.095Z,,0,,,NaN,,,,,,false,,,,900497.7999997139,900497.5999999046,,900497.0999999046,,900515.354,8,400,,,
break_continue,html.Screen,4_107_2,2023-09-13T16:01:15.095Z,,0,,,NaN,,,,,,false,,,,900498.1999998093,900498.0999999046,,900497.8999996185,,900515.354,8,400,,,
sequence,flow.Sequence,4_107,2023-09-13T16:01:15.095Z,,0,,,5126.070999904652,completion,,,,,false,,,,900498.3999996185,900498.0999999046,895355.274,895342.7999997139,895372.029,900515.354,8,400,,,
trial,html.Screen,4_108_0,2023-09-13T16:01:19.658Z,,0,3,,4545.245999904582,response,ISIC_6317162.JPG,5,ISIC_0009100.JPG,ISIC_0009100.JPG,false,0,keypress(z),500,905060.6999998093,905060.5999999046,900498.576,900498.5,900515.354,905074.126,8,400,9,,ISIC_6317162.JPG
break,html.Screen,4_108_1,2023-09-13T16:01:19.658Z,,0,,,NaN,,,,,,false,,,,905061.0999999046,905061,,905060.7999997139,,905074.126,8,400,,,
break_continue,html.Screen,4_108_2,2023-09-13T16:01:19.658Z,,0,,,NaN,,,,,,false,,,,905061.2999997139,905061.2999997139,,905061.1999998093,,905074.126,8,400,,,
sequence,flow.Sequence,4_108,2023-09-13T16:01:19.658Z,,0,,,4545.945999713847,completion,,,,,false,,,,905061.3999996185,905061.2999997139,900498.576,900498.5,900515.354,905074.126,8,400,,,
trial,html.Screen,4_109_0,2023-09-13T16:01:26.051Z,,0,3,,6377.273999618483,response,ISIC_0011482.JPG,6,ISIC_0032522.JPG,ISIC_0011482.JPG,false,1,keypress(m),500,911451.5999999046,911451.3999996185,905057.331,905061.5,905074.126,911453.089,8,400,10,,ISIC_0032522.JPG
break,html.Screen,4_109_1,2023-09-13T16:01:26.051Z,,0,,,NaN,,,,,,false,,,,911451.8999996185,911451.7999997139,,911451.5999999046,,911453.089,8,400,,,
break_continue,html.Screen,4_109_2,2023-09-13T16:01:26.051Z,,0,,,NaN,,,,,,false,,,,911452.1999998093,911452.1999998093,,911452.0999999046,,911453.089,8,400,,,
sequence,flow.Sequence,4_109,2023-09-13T16:01:26.051Z,,0,,,6378.073999809218,completion,,,,,false,,,,911452.2999997139,911452.1999998093,905057.331,905061.5,905074.126,911453.089,8,400,,,
trial,html.Screen,4_110_0,2023-09-13T16:01:30.358Z,,0,3,,4306.010999904596,response,ISIC_0156642.JPG,5,ISIC_1441260.JPG,ISIC_1441260.JPG,false,0,keypress(z),500,915759.2999997139,915759.0999999046,911436.523,911452.3999996185,911453.089,915778.27,8,400,11,,ISIC_0156642.JPG
break,html.Screen,4_110_1,2023-09-13T16:01:30.359Z,,0,,,NaN,,,,,,false,,,,915759.6999998093,915759.5999999046,,915759.3999996185,,915778.27,8,400,,,
break_continue,html.Screen,4_110_2,2023-09-13T16:01:30.359Z,,0,,,NaN,,,,,,false,,,,915760,915760,,915759.7999997139,,915778.27,8,400,,,
sequence,flow.Sequence,4_110,2023-09-13T16:01:30.359Z,,0,,,4306.910999999964,completion,,,,,false,,,,915760.0999999046,915760,911436.523,911452.3999996185,911453.089,915778.27,8,400,,,
trial,html.Screen,4_111_0,2023-09-13T16:01:35.337Z,,0,3,,4959.329999904614,response,ISIC_3837132.JPG,4,ISIC_4000087.JPG,ISIC_4000087.JPG,false,0,keypress(z),500,920737.7999997139,920737.5999999046,915761.581,915760.0999999046,915778.27,920754.526,8,400,12,,ISIC_3837132.JPG
break,html.Screen,4_111_1,2023-09-13T16:01:35.338Z,,0,,,NaN,,,,,,false,,,,920738.5999999046,920738.3999996185,,920737.8999996185,,920754.526,8,400,,,
break_continue,html.Screen,4_111_2,2023-09-13T16:01:35.338Z,,0,,,NaN,,,,,,false,,,,920739,920738.8999996185,,920738.6999998093,,920754.526,8,400,,,
sequence,flow.Sequence,4_111,2023-09-13T16:01:35.338Z,,0,,,4960.629999618512,completion,,,,,false,,,,920739.0999999046,920738.8999996185,915761.581,915760.0999999046,915778.27,920754.526,8,400,,,
trial,html.Screen,4_112_0,2023-09-13T16:01:39.570Z,,0,3,,4216.573999904678,response,ISIC_0032171.JPG,5,ISIC_0024271.JPG,ISIC_0024271.JPG,false,0,keypress(z),500,924971.2999997139,924971.0999999046,920737.975,920739.1999998093,920754.526,924996.111,8,400,13,,ISIC_0032171.JPG
break,html.Screen,4_112_1,2023-09-13T16:01:39.571Z,,0,,,NaN,,,,,,false,,,,924971.8999996185,924971.6999998093,,924971.3999996185,,924996.111,8,400,,,
break_continue,html.Screen,4_112_2,2023-09-13T16:01:39.571Z,,0,,,NaN,,,,,,false,,,,924972.0999999046,924972,,924971.8999996185,,924996.111,8,400,,,
sequence,flow.Sequence,4_112,2023-09-13T16:01:39.571Z,,0,,,4217.474000000046,completion,,,,,false,,,,924972.1999998093,924972,920737.975,920739.0999999046,920754.526,924996.111,8,400,,,
trial,html.Screen,4_113_0,2023-09-13T16:01:45.125Z,,0,3,,5529.588999809232,response,ISIC_0011483.JPG,5,ISIC_0027879.JPG,ISIC_0027879.JPG,false,0,keypress(z),500,930525.7999997139,930525.6999998093,924979.419,924972.3999996185,924996.111,930556.978,8,400,14,,ISIC_0011483.JPG
break,html.Screen,4_113_1,2023-09-13T16:01:45.125Z,,0,,,NaN,,,,,,false,,,,930526.1999998093,930526.0999999046,,930525.8999996185,,930556.978,8,400,,,
break_continue,html.Screen,4_113_2,2023-09-13T16:01:45.125Z,,0,,,NaN,,,,,,false,,,,930526.2999997139,930526.2999997139,,930526.1999998093,,930556.978,8,400,,,
sequence,flow.Sequence,4_113,2023-09-13T16:01:45.125Z,,0,,,5530.188999713864,completion,,,,,false,,,,930526.5,930526.2999997139,924979.419,924972.2999997139,924996.111,930556.978,8,400,,,
trial,html.Screen,4_114_0,2023-09-13T16:01:51.368Z,,0,3,,6212.221999809262,response,ISIC_0031626.JPG,5,ISIC_0071647.JPG,ISIC_0031626.JPG,false,1,keypress(m),500,936769.3999996185,936769.1999998093,930540.388,930526.5,930556.978,936785.748,8,400,15,,ISIC_0071647.JPG
break,html.Screen,4_114_1,2023-09-13T16:01:51.369Z,,0,,,NaN,,,,,,false,,,,936770.3999996185,936770,,936769.5999999046,,936785.748,8,400,,,
break_continue,html.Screen,4_114_2,2023-09-13T16:01:51.370Z,,0,,,NaN,,,,,,false,,,,936770.8999996185,936770.6999998093,,936770.5,,936785.748,8,400,,,
sequence,flow.Sequence,4_114,2023-09-13T16:01:51.370Z,,0,,,6213.721999809262,completion,,,,,false,,,,936771,936770.6999998093,930540.388,930526.5,930556.978,936785.748,8,400,,,
trial,html.Screen,4_115_0,2023-09-13T16:01:58.414Z,,0,3,,7028.751999999979,response,ISIC_0010775.JPG,4,ISIC_0034237.JPG,ISIC_0034237.JPG,false,0,keypress(z),500,943814.6999998093,943814.5,936769.089,936771.0999999046,936785.748,943816.068,8,400,16,,ISIC_0010775.JPG
break,html.Screen,4_115_1,2023-09-13T16:01:58.414Z,,0,,,NaN,,,,,,false,,,,943815.0999999046,943815,,943814.7999997139,,943816.068,8,400,,,
break_continue,html.Screen,4_115_2,2023-09-13T16:01:58.414Z,,0,,,NaN,,,,,,false,,,,943815.2999997139,943815.1999998093,,943815.1999998093,,943816.068,8,400,,,
sequence,flow.Sequence,4_115,2023-09-13T16:01:58.414Z,,0,,,7029.451999809244,completion,,,,,false,,,,943815.3999996185,943815.1999998093,936769.089,936771.0999999046,936785.748,943816.068,8,400,,,
trial,html.Screen,4_116_0,2023-09-13T16:02:04.339Z,,0,3,,5923.631999809295,response,ISIC_0009488.JPG,5,ISIC_2805634.JPG,ISIC_0009488.JPG,false,1,keypress(m),500,949739.7999997139,949739.6999998093,943799.493,943815.3999996185,943816.068,949761.012,8,400,17,,ISIC_2805634.JPG
break,html.Screen,4_116_1,2023-09-13T16:02:04.339Z,,0,,,NaN,,,,,,false,,,,949740.1999998093,949740.1999998093,,949739.8999996185,,949761.012,8,400,,,
break_continue,html.Screen,4_116_2,2023-09-13T16:02:04.340Z,,0,,,NaN,,,,,,false,,,,949740.5,949740.3999996185,,949740.2999997139,,949761.012,8,400,,,
sequence,flow.Sequence,4_116,2023-09-13T16:02:04.340Z,,0,,,5924.33199961856,completion,,,,,false,,,,949740.5999999046,949740.3999996185,943799.493,943815.3999996185,943816.068,949761.012,8,400,,,
trial,html.Screen,4_117_0,2023-09-13T16:02:09.740Z,,0,3,,5380.387999618542,response,ISIC_9786863.JPG,5,ISIC_0054527.JPG,ISIC_0054527.JPG,false,0,keypress(z),500,955141.3999996185,955141.3999996185,949744.298,949740.6999998093,949761.012,955154.909,8,400,18,,ISIC_9786863.JPG
break,html.Screen,4_117_1,2023-09-13T16:02:09.741Z,,0,,,NaN,,,,,,false,,,,955141.8999996185,955141.7999997139,,955141.5999999046,,955154.909,8,400,,,
break_continue,html.Screen,4_117_2,2023-09-13T16:02:09.741Z,,0,,,NaN,,,,,,false,,,,955142.0999999046,955142,,955141.8999996185,,955154.909,8,400,,,
sequence,flow.Sequence,4_117,2023-09-13T16:02:09.741Z,,0,,,5380.988000000012,completion,,,,,false,,,,955142.1999998093,955142,949744.298,949740.6999998093,949761.012,955154.909,8,400,,,
trial,html.Screen,4_118_0,2023-09-13T16:02:14.369Z,,0,3,,4614.990999618545,response,ISIC_0000516.JPG,5,ISIC_3335505.JPG,ISIC_3335505.JPG,false,0,keypress(z),500,959770.0999999046,959769.8999996185,955138.12,955142.1999998093,955154.909,959780.45,8,400,19,,ISIC_0000516.JPG
break,html.Screen,4_118_1,2023-09-13T16:02:14.369Z,,0,,,NaN,,,,,,false,,,,959770.5,959770.2999997139,,959770.0999999046,,959780.45,8,400,,,
break_continue,html.Screen,4_118_2,2023-09-13T16:02:14.370Z,,0,,,NaN,,,,,,false,,,,959770.5999999046,959770.5,,959770.5,,959780.45,8,400,,,
sequence,flow.Sequence,4_118,2023-09-13T16:02:14.370Z,,0,,,4615.591000000015,completion,,,,,false,,,,959770.6999998093,959770.5,955138.12,955142.1999998093,955154.909,959780.45,8,400,,,
trial,html.Screen,4_119_0,2023-09-13T16:02:20.021Z,,0,3,,5640.849999713944,response,ISIC_0012758.JPG,6,ISIC_0032372.JPG,ISIC_0012758.JPG,false,1,keypress(m),500,965421.5999999046,965421.2999997139,959763.777,959770.7999997139,959780.45,965441.561,8,400,20,,ISIC_0032372.JPG
break,html.Screen,4_119_1,2023-09-13T16:02:20.021Z,,0,,,NaN,,,,,,false,,,,965422.3999996185,965422.1999998093,,965421.7999997139,,965441.561,8,400,,,
break_continue,html.Screen,4_119_2,2023-09-13T16:02:20.022Z,,0,,,NaN,,,,,,false,,,,965422.6999998093,965422.5,,965422.5,,965441.561,8,400,,,
sequence,flow.Sequence,4_119,2023-09-13T16:02:20.022Z,,0,,,5642.050000000047,completion,,,,,false,,,,965422.7999997139,965422.5,959763.777,959770.6999998093,959780.45,965441.561,8,400,,,
trial,html.Screen,4_120_0,2023-09-13T16:02:26.586Z,,0,3,,6543.738999713911,response,ISIC_0062684.JPG,7,ISIC_0594695.JPG,ISIC_0062684.JPG,false,1,keypress(m),500,971985.5,971985.2999997139,965424.852,965423,965441.561,971987.598,8,400,21,,ISIC_0594695.JPG
break,html.Screen,4_120_1,2023-09-13T16:02:26.587Z,,0,,,NaN,,,,,,false,,,,971986,971986,,971985.6999998093,,971987.598,8,400,,,
break_continue,html.Screen,4_120_2,2023-09-13T16:02:26.587Z,,0,,,NaN,,,,,,false,,,,971986.2999997139,971986.2999997139,,971986.0999999046,,971987.598,8,400,,,
sequence,flow.Sequence,4_120,2023-09-13T16:02:26.587Z,,0,,,6544.738999713911,completion,,,,,false,,,,971986.3999996185,971986.2999997139,965424.852,965422.8999996185,965441.561,971987.598,8,400,,,
trial,html.Screen,4_121_0,2023-09-13T16:02:34.932Z,,0,3,,8344.001999904634,response,ISIC_2447578.JPG,5,ISIC_3642043.JPG,ISIC_3642043.JPG,false,0,keypress(z),500,980331.7999997139,980331.5999999046,971970.938,971986.3999996185,971987.598,980353.907,8,400,22,,ISIC_2447578.JPG
break,html.Screen,4_121_1,2023-09-13T16:02:34.933Z,,0,,,NaN,,,,,,false,,,,980332.3999996185,980332.2999997139,,980332,,980353.907,8,400,,,
break_continue,html.Screen,4_121_2,2023-09-13T16:02:34.933Z,,0,,,NaN,,,,,,false,,,,980332.7999997139,980332.6999998093,,980332.5999999046,,980353.907,8,400,,,
sequence,flow.Sequence,4_121,2023-09-13T16:02:34.933Z,,0,,,8345.101999809267,completion,,,,,false,,,,980333,980332.6999998093,971970.938,971986.3999996185,971987.598,980353.907,8,400,,,
trial,html.Screen,4_122_0,2023-09-13T16:02:41.064Z,,0,3,,6109.392999713891,response,ISIC_0026426.JPG,5,ISIC_3503213.JPG,ISIC_3503213.JPG,false,0,keypress(z),500,986463.3999996185,986463.2999997139,980337.199,980333,980353.907,986482.469,8,400,23,,ISIC_0026426.JPG
break,html.Screen,4_122_1,2023-09-13T16:02:41.064Z,,0,,,NaN,,,,,,false,,,,986463.8999996185,986463.6999998093,,986463.5999999046,,986482.469,8,400,,,
break_continue,html.Screen,4_122_2,2023-09-13T16:02:41.064Z,,0,,,NaN,,,,,,false,,,,986464,986464,,986463.8999996185,,986482.469,8,400,,,
sequence,flow.Sequence,4_122,2023-09-13T16:02:41.065Z,,0,,,6110.0929999999935,completion,,,,,false,,,,986464.0999999046,986464,980337.199,980333,980353.907,986482.469,8,400,,,
trial,html.Screen,4_123_0,2023-09-13T16:02:47.906Z,,0,3,,6823.230999809224,response,ISIC_8452205.JPG,5,ISIC_0026727.JPG,ISIC_8452205.JPG,false,1,keypress(m),500,993305.7999997139,993305.6999998093,986465.765,986464.0999999046,986482.469,993312.39,8,400,24,,ISIC_0026727.JPG
break,html.Screen,4_123_1,2023-09-13T16:02:47.907Z,,0,,,NaN,,,,,,false,,,,993306.2999997139,993306.1999998093,,993305.8999996185,,993312.39,8,400,,,
break_continue,html.Screen,4_123_2,2023-09-13T16:02:47.907Z,,0,,,NaN,,,,,,false,,,,993306.5,993306.3999996185,,993306.3999996185,,993312.39,8,400,,,
sequence,flow.Sequence,4_123,2023-09-13T16:02:47.907Z,,0,,,6823.930999618489,completion,,,,,false,,,,993306.5999999046,993306.3999996185,986465.765,986464.0999999046,986482.469,993312.39,8,400,,,
trial,html.Screen,4_124_0,2023-09-13T16:02:53.751Z,,0,3,,5838.409999713884,response,ISIC_4022621.JPG,4,ISIC_5422432.JPG,ISIC_5422432.JPG,false,0,keypress(z),500,999151,999150.7999997139,993295.91,993306.6999998093,993312.39,999157.198,8,400,25,,ISIC_4022621.JPG
break,html.Screen,4_124_1,2023-09-13T16:02:53.752Z,,0,,,NaN,,,,,,false,,,,999151.5999999046,999151.3999996185,,999151.0999999046,,999157.198,8,400,,,
break_continue,html.Screen,4_124_2,2023-09-13T16:02:53.752Z,,0,,,NaN,,,,,,false,,,,999151.8999996185,999151.7999997139,,999151.5999999046,,999157.198,8,400,,,
sequence,flow.Sequence,4_124,2023-09-13T16:02:53.752Z,,0,,,5839.409999713884,completion,,,,,false,,,,999152,999151.7999997139,993295.91,993306.6999998093,993312.39,999157.198,8,400,,,
trial,html.Screen,4_125_0,2023-09-13T16:03:01.308Z,,0,3,,7550.101999713923,response,ISIC_9412963.JPG,5,ISIC_0025619.JPG,ISIC_9412963.JPG,false,1,keypress(m),500,1006707.3999996185,1006707.2999997139,999140.55,999152,999157.198,1006721.922,8,400,26,,ISIC_0025619.JPG
break,html.Screen,4_125_1,2023-09-13T16:03:01.308Z,,0,,,NaN,,,,,,false,,,,1006707.7999997139,1006707.6999998093,,1006707.5,,1006721.922,8,400,,,
break_continue,html.Screen,4_125_2,2023-09-13T16:03:01.308Z,,0,,,NaN,,,,,,false,,,,1006708,1006708,,1006707.8999996185,,1006721.922,8,400,,,
sequence,flow.Sequence,4_125,2023-09-13T16:03:01.309Z,,0,,,7550.802000000025,completion,,,,,false,,,,1006708.0999999046,1006708,999140.55,999152,999157.198,1006721.922,8,400,,,
trial,html.Screen,4_126_0,2023-09-13T16:03:06.326Z,,0,3,,5003.177999904612,response,ISIC_1850674.JPG,5,ISIC_0010630.JPG,ISIC_1850674.JPG,false,1,keypress(m),500,1011725.2999997139,1011725.0999999046,1006705.107,1006708.1999998093,1006721.922,1011748.378,8,400,27,,ISIC_0010630.JPG
break,html.Screen,4_126_1,2023-09-13T16:03:06.327Z,,0,,,NaN,,,,,,false,,,,1011726.5,1011726.0999999046,,1011725.5999999046,,1011748.378,8,400,,,
