sender,sender_type,sender_id,timestamp,meta,,blockNo,condition,duration,ended_on,img_left,img_reveal,img_right,loser,practice,response,response_action,selection_duration,time_commit,time_end,time_render,time_run,time_show,time_switch,total_blocks,total_trials,trialNo,url,winner
informed_consent,html.Screen,0,2023-09-08T17:06:49.160Z,"{""labjs_version"":""20.2.4"",""labjs_build"":{""flavor"":""development"",""commit"":""f5b4a49f956347addd546a832a3327688c2c0fef""},""location"":""https://labjs.felixhenninger.com/api/labjs_preview/index.html"",""userAgent"":""Mozilla/5.0 (Windows NT 10.0; Win64; x64) AppleWebKit/537.36 (KHTML, like Gecko) Chrome/116.0.0.0 Safari/537.36"",""platform"":""Win32"",""language"":""en-US"",""locale"":""en-US"",""timeZone"":""America/Chicago"",""timezoneOffset"":300,""screen_width"":1280,""screen_height"":720,""scroll_width"":1108,""scroll_height"":600,""window_innerWidth"":1108,""window_innerHeight"":648,""devicePixelRatio"":1.5}",,,,3734.365000011921,response,,,,,,consent,click button,,4809.9000000059605,4808.800000011921,1057.788,1044.800000011921,1074.435,4821.246,,,,{},
Welcome,html.Screen,1,2023-09-08T17:06:50.137Z,,,,asymmetry,964.0540000119208,response,,,,,,continue,click button,,5786.699999988079,5785.300000011921,4804.544,4810.199999988079,4821.246,5810.636,,,,,
trial,html.Screen,2_0_0,2023-09-08T17:06:55.061Z,,0,0,,4899.364,response,ISIC_0069348.JPG,,ISIC_6997061.JPG,ISIC_6997061.JPG,true,0,keypress(z),500,10710.300000011921,10710,5770.509,5786.9000000059605,5810.636,10716.483,1,6,1,,ISIC_0069348.JPG
sequence,flow.Sequence,2_0,2023-09-08T17:06:55.061Z,,0,,,4899.364,completion,,,,,true,,,,10710.699999988079,10710,5770.509,5786.9000000059605,5810.636,10716.483,1,6,,,
trial,html.Screen,2_1_0,2023-09-08T17:06:57.950Z,,0,0,,2882.8170000119208,response,ISIC_0009529.JPG,,ISIC_0057368.JPG,ISIC_0009529.JPG,true,1,keypress(m),500,13599.5,13599.300000011921,10699.918,10710.90000000596,10716.483,13614.056,1,6,2,,ISIC_0057368.JPG
sequence,flow.Sequence,2_1,2023-09-08T17:06:57.950Z,,0,,,2882.8170000119208,completion,,,,,true,,,,13599.699999988079,13599.300000011921,10699.918,10710.800000011921,10716.483,13614.056,1,6,,,
trial,html.Screen,2_2_0,2023-09-08T17:07:01.478Z,,0,0,,3513.6439999880786,response,ISIC_0064954.JPG,,ISIC_9758671.JPG,ISIC_0064954.JPG,true,1,keypress(m),500,17127.80000001192,17127.69999998808,13597.275,13599.699999988079,13614.056,17144.572,1,6,3,,ISIC_9758671.JPG
sequence,flow.Sequence,2_2,2023-09-08T17:07:01.478Z,,0,,,3513.6439999880786,completion,,,,,true,,,,17128,17127.69999998808,13597.275,13599.699999988079,13614.056,17144.572,1,6,,,
trial,html.Screen,2_3_0,2023-09-08T17:07:04.617Z,,0,0,,3121.8280000059603,response,ISIC_0005785.JPG,,ISIC_0000080.JPG,ISIC_0000080.JPG,true,0,keypress(z),500,20266.5,20266.40000000596,17127.786,17128.09999999404,17144.572,20275.323,1,6,4,,ISIC_0005785.JPG
sequence,flow.Sequence,2_3,2023-09-08T17:07:04.617Z,,0,,,3121.8280000059603,completion,,,,,true,,,,20266.59999999404,20266.40000000596,17127.786,17128.09999999404,17144.572,20275.323,1,6,,,
trial,html.Screen,2_4_0,2023-09-08T17:07:07.569Z,,0,0,,2942.776999994039,response,ISIC_7944028.JPG,,ISIC_5390060.JPG,ISIC_7944028.JPG,true,1,keypress(m),500,23218.19999998808,23218.09999999404,20258.518,20266.69999998808,20275.323,23222.849,1,6,5,,ISIC_5390060.JPG
sequence,flow.Sequence,2_4,2023-09-08T17:07:07.569Z,,0,,,2942.776999994039,completion,,,,,true,,,,23218.30000001192,23218.09999999404,20258.518,20266.69999998808,20275.323,23222.849,1,6,,,
trial,html.Screen,2_5_0,2023-09-08T17:07:10.582Z,,0,0,,3008.750999994041,response,ISIC_0794216.JPG,,ISIC_0010188.JPG,ISIC_0794216.JPG,true,1,keypress(m),500,26231.80000001192,26231.59999999404,23206.311,23218.40000000596,23222.849,26237.048,1,6,6,,ISIC_0010188.JPG
sequence,flow.Sequence,2_5,2023-09-08T17:07:10.582Z,,0,,,3008.750999994041,completion,,,,,true,,,,26231.90000000596,26231.59999999404,23206.311,23218.40000000596,23222.849,26237.048,1,6,,,
loop,flow.Loop,2,2023-09-08T17:07:10.582Z,,,,,20420.96399999404,completion,,,,,true,,,,26232,26231.59999999404,5770.509,5786.800000011921,5810.636,26237.048,1,6,,,
exp_instructions,html.Screen,3,2023-09-08T17:07:17.356Z,,,,,6768.252000011922,response,,,,,,continue,keypress(Space),,33005.80000001192,33005.30000001192,26220.527,26232.09999999404,26237.048,33014.867,,,,,
trial,html.Screen,4_0_0,2023-09-08T17:07:21.341Z,,0,1,,3970.1330000000016,response,ISIC_0679494.JPG,9,ISIC_0054048.JPG,ISIC_0679494.JPG,false,1,keypress(m),500,36985.09999999404,36985,32997.246,33005.90000000596,33014.867,36994.989,8,400,1,,ISIC_0054048.JPG
break,html.Screen,4_0_1,2023-09-08T17:07:21.341Z,,0,,,NaN,,,,,,false,,,,36985.5,36985.40000000596,,36985.19999998808,,36994.989,8,400,,,
break_continue,html.Screen,4_0_2,2023-09-08T17:07:21.342Z,,0,,,NaN,,,,,,false,,,,36985.59999999404,36985.59999999404,,36985.59999999404,,36994.989,8,400,,,
sequence,flow.Sequence,4_0,2023-09-08T17:07:21.342Z,,0,,,3970.732999994041,completion,,,,,false,,,,36985.69999998808,36985.59999999404,32997.246,33005.90000000596,33014.867,36994.989,8,400,,,
trial,html.Screen,4_1_0,2023-09-08T17:07:27.331Z,,0,1,,5980.411000005959,response,ISIC_0004728.JPG,13,ISIC_0066328.JPG,ISIC_0004728.JPG,false,1,keypress(m),500,42975.59999999404,42975.40000000596,36978.782,36985.80000001192,36994.989,42990.631,8,400,2,,ISIC_0066328.JPG
break,html.Screen,4_1_1,2023-09-08T17:07:27.332Z,,0,,,NaN,,,,,,false,,,,42975.90000000596,42975.80000001192,,42975.69999998808,,42990.631,8,400,,,
break_continue,html.Screen,4_1_2,2023-09-08T17:07:27.332Z,,0,,,NaN,,,,,,false,,,,42976.09999999404,42976,,42975.90000000596,,42990.631,8,400,,,
sequence,flow.Sequence,4_1,2023-09-08T17:07:27.332Z,,0,,,5981.010999999999,completion,,,,,false,,,,42976.09999999404,42976,36978.782,36985.80000001192,36994.989,42990.631,8,400,,,
trial,html.Screen,4_2_0,2023-09-08T17:07:31.052Z,,0,1,,3705.2690000059592,response,ISIC_0033241.JPG,6,ISIC_9719936.JPG,ISIC_9719936.JPG,false,0,keypress(z),500,46696.09999999404,46695.90000000596,42973.609,42976.09999999404,42990.631,46703.733,8,400,3,,ISIC_0033241.JPG
break,html.Screen,4_2_1,2023-09-08T17:07:31.052Z,,0,,,NaN,,,,,,false,,,,46696.40000000596,46696.40000000596,,46696.19999998808,,46703.733,8,400,,,
break_continue,html.Screen,4_2_2,2023-09-08T17:07:31.052Z,,0,,,NaN,,,,,,false,,,,46696.5,46696.5,,46696.5,,46703.733,8,400,,,
sequence,flow.Sequence,4_2,2023-09-08T17:07:31.053Z,,0,,,3705.868999999999,completion,,,,,false,,,,46696.59999999404,46696.5,42973.609,42976.09999999404,42990.631,46703.733,8,400,,,
trial,html.Screen,4_3_0,2023-09-08T17:07:39.136Z,,0,1,,8075.767,response,ISIC_1784255.JPG,13,ISIC_0006327.JPG,ISIC_1784255.JPG,false,1,keypress(m),500,54779.80000001192,54779.5,46687.06,46696.59999999404,46703.733,54797.274,8,400,4,,ISIC_0006327.JPG
break,html.Screen,4_3_1,2023-09-08T17:07:39.137Z,,0,,,NaN,,,,,,false,,,,54781.30000001192,54781,,54780,,54797.274,8,400,,,
break_continue,html.Screen,4_3_2,2023-09-08T17:07:39.138Z,,0,,,NaN,,,,,,false,,,,54781.80000001192,54781.59999999404,,54781.5,,54797.274,8,400,,,
sequence,flow.Sequence,4_3,2023-09-08T17:07:39.138Z,,0,,,8077.866999994039,completion,,,,,false,,,,54781.90000000596,54781.59999999404,46687.06,46696.59999999404,46703.733,54797.274,8,400,,,
trial,html.Screen,4_4_0,2023-09-08T17:07:42.684Z,,0,1,,3530.5260000119233,response,ISIC_1732527.JPG,7,ISIC_1711134.JPG,ISIC_1711134.JPG,false,0,keypress(z),500,58328,58327.80000001192,54780.613,54782,54797.274,58343.931,8,400,5,,ISIC_1732527.JPG
break,html.Screen,4_4_1,2023-09-08T17:07:42.685Z,,0,,,NaN,,,,,,false,,,,58329.09999999404,58328.5,,58328.09999999404,,58343.931,8,400,,,
break_continue,html.Screen,4_4_2,2023-09-08T17:07:42.685Z,,0,,,NaN,,,,,,false,,,,58329.40000000596,58329.30000001192,,58329.19999998808,,58343.931,8,400,,,
sequence,flow.Sequence,4_4,2023-09-08T17:07:42.685Z,,0,,,3532.0260000119233,completion,,,,,false,,,,58329.40000000596,58329.30000001192,54780.613,54782,54797.274,58343.931,8,400,,,
trial,html.Screen,4_5_0,2023-09-08T17:07:54.193Z,,0,1,,11523.941000000006,timeout,ISIC_0065468.JPG,7,ISIC_5382189.JPG,,false,,,500,69836.90000000596,69836.40000000596,58327.38,58329.5,58343.931,69867.872,8,400,6,,
break,html.Screen,4_5_1,2023-09-08T17:07:54.194Z,,0,,,NaN,,,,,,false,,,,69838.19999998808,69837.90000000596,,69837.40000000596,,69867.872,8,400,,,
break_continue,html.Screen,4_5_2,2023-09-08T17:07:54.195Z,,0,,,NaN,,,,,,false,,,,69838.69999998808,69838.5,,69838.30000001192,,69867.872,8,400,,,
sequence,flow.Sequence,4_5,2023-09-08T17:07:54.195Z,,0,,,11494.569000000003,completion,,,,,false,,,,69838.80000001192,69838.5,58327.38,58329.5,58343.931,69867.872,8,400,,,
trial,html.Screen,4_6_0,2023-09-08T17:08:05.715Z,,0,1,,11523.854999999996,timeout,ISIC_0056849.JPG,7,ISIC_9015182.JPG,,false,,,500,81359,81358.80000001192,69851.392,69839,69867.872,81391.727,8,400,7,,
break,html.Screen,4_6_1,2023-09-08T17:08:05.715Z,,0,,,NaN,,,,,,false,,,,81359.5,81359.40000000596,,81359.09999999404,,81391.727,8,400,,,
break_continue,html.Screen,4_6_2,2023-09-08T17:08:05.716Z,,0,,,NaN,,,,,,false,,,,81359.69999998808,81359.59999999404,,81359.59999999404,,81391.727,8,400,,,
sequence,flow.Sequence,4_6,2023-09-08T17:08:05.716Z,,0,,,11491.727999994037,completion,,,,,false,,,,81359.80000001192,81359.59999999404,69851.392,69838.90000000596,69867.872,81391.727,8,400,,,
trial,html.Screen,4_7_0,2023-09-08T17:08:10.124Z,,0,1,,4376.273000000001,response,ISIC_8194835.JPG,10,ISIC_0009298.JPG,ISIC_8194835.JPG,false,1,keypress(m),500,85768.30000001192,85768,81375.252,81359.80000001192,81391.727,85771.444,8,400,8,,ISIC_0009298.JPG
break,html.Screen,4_7_1,2023-09-08T17:08:10.126Z,,0,,,NaN,,,,,,false,,,,85769.59999999404,85769.40000000596,,85768.59999999404,,85771.444,8,400,,,
break_continue,html.Screen,4_7_2,2023-09-08T17:08:10.126Z,,0,,,NaN,,,,,,false,,,,85769.90000000596,85769.80000001192,,85769.69999998808,,85771.444,8,400,,,
sequence,flow.Sequence,4_7,2023-09-08T17:08:10.126Z,,0,,,4378.073000011922,completion,,,,,false,,,,85770,85769.80000001192,81375.252,81359.80000001192,81391.727,85771.444,8,400,,,
trial,html.Screen,4_8_0,2023-09-08T17:08:14.259Z,,0,1,,4131.555999999997,response,ISIC_4666619.JPG,11,ISIC_0411688.JPG,ISIC_4666619.JPG,false,1,keypress(m),500,89903.40000000596,89903,85755.377,85770.19999998808,85771.444,89918.187,8,400,9,,ISIC_0411688.JPG
break,html.Screen,4_8_1,2023-09-08T17:08:14.261Z,,0,,,NaN,,,,,,false,,,,89904.59999999404,89904.40000000596,,89903.69999998808,,89918.187,8,400,,,
break_continue,html.Screen,4_8_2,2023-09-08T17:08:14.261Z,,0,,,NaN,,,,,,false,,,,89905,89904.90000000596,,89904.69999998808,,89918.187,8,400,,,
sequence,flow.Sequence,4_8,2023-09-08T17:08:14.261Z,,0,,,4133.456000005957,completion,,,,,false,,,,89905.09999999404,89904.90000000596,85755.377,85770.19999998808,85771.444,89918.187,8,400,,,
trial,html.Screen,4_9_0,2023-09-08T17:08:20.872Z,,0,1,,6597.812999999995,response,ISIC_0033519.JPG,5,ISIC_0026103.JPG,ISIC_0033519.JPG,false,1,keypress(m),500,96516.40000000596,96516,89901.949,89905.40000000596,89918.187,96529.326,8,400,10,,ISIC_0026103.JPG
break,html.Screen,4_9_1,2023-09-08T17:08:20.874Z,,0,,,NaN,,,,,,false,,,,96517.80000001192,96517.59999999404,,96516.59999999404,,96529.326,8,400,,,
break_continue,html.Screen,4_9_2,2023-09-08T17:08:20.874Z,,0,,,NaN,,,,,,false,,,,96518.19999998808,96518.19999998808,,96518,,96529.326,8,400,,,
sequence,flow.Sequence,4_9,2023-09-08T17:08:20.874Z,,0,,,6600.012999988074,completion,,,,,false,,,,96518.40000000596,96518.19999998808,89901.949,89905.30000001192,89918.187,96529.326,8,400,,,
trial,html.Screen,4_10_0,2023-09-08T17:08:23.874Z,,0,1,,2988.47400001192,response,ISIC_8689583.JPG,10,ISIC_0310134.JPG,ISIC_0310134.JPG,false,0,keypress(z),500,99518.09999999404,99517.80000001192,96513.333,96518.5,96529.326,99526.88,8,400,11,,ISIC_8689583.JPG
break,html.Screen,4_10_1,2023-09-08T17:08:23.875Z,,0,,,NaN,,,,,,false,,,,99519.5,99519.19999998808,,99518.40000000596,,99526.88,8,400,,,
break_continue,html.Screen,4_10_2,2023-09-08T17:08:23.876Z,,0,,,NaN,,,,,,false,,,,99519.90000000596,99519.80000001192,,99519.69999998808,,99526.88,8,400,,,
sequence,flow.Sequence,4_10,2023-09-08T17:08:23.876Z,,0,,,2990.47400001192,completion,,,,,false,,,,99520.09999999404,99519.80000001192,96513.333,96518.5,96529.326,99526.88,8,400,,,
trial,html.Screen,4_11_0,2023-09-08T17:08:31.593Z,,0,1,,7710.020000005956,response,ISIC_6882080.JPG,10,ISIC_4182801.JPG,ISIC_6882080.JPG,false,1,keypress(m),500,107237.09999999404,107236.90000000596,99509.875,99520.09999999404,99526.88,107254.187,8,400,12,,ISIC_4182801.JPG
break,html.Screen,4_11_1,2023-09-08T17:08:31.594Z,,0,,,NaN,,,,,,false,,,,107238.19999998808,107238,,107237.30000001192,,107254.187,8,400,,,
break_continue,html.Screen,4_11_2,2023-09-08T17:08:31.594Z,,0,,,NaN,,,,,,false,,,,107238.5,107238.40000000596,,107238.30000001192,,107254.187,8,400,,,
sequence,flow.Sequence,4_11,2023-09-08T17:08:31.594Z,,0,,,7711.520000005956,completion,,,,,false,,,,107238.69999998808,107238.40000000596,99509.875,99520.09999999404,99526.88,107254.187,8,400,,,
trial,html.Screen,4_12_0,2023-09-08T17:08:35.156Z,,0,1,,3545.412999994034,response,ISIC_9239632.JPG,7,ISIC_0034208.JPG,ISIC_9239632.JPG,false,1,keypress(m),500,110800,110799.59999999404,107237.003,107238.69999998808,107254.187,110818.248,8,400,13,,ISIC_0034208.JPG
break,html.Screen,4_12_1,2023-09-08T17:08:35.157Z,,0,,,NaN,,,,,,false,,,,110801.40000000596,110801.09999999404,,110800.30000001192,,110818.248,8,400,,,
break_continue,html.Screen,4_12_2,2023-09-08T17:08:35.159Z,,0,,,NaN,,,,,,false,,,,110802.69999998808,110801.59999999404,,110801.5,,110818.248,8,400,,,
sequence,flow.Sequence,4_12,2023-09-08T17:08:35.159Z,,0,,,3547.412999994034,completion,,,,,false,,,,110802.90000000596,110801.59999999404,107237.003,107238.69999998808,107254.187,110818.248,8,400,,,
trial,html.Screen,4_13_0,2023-09-08T17:08:39.006Z,,0,1,,3831.3519999940327,response,ISIC_0034046.JPG,9,ISIC_2092911.JPG,ISIC_2092911.JPG,false,0,keypress(z),500,114649.90000000596,114649.59999999404,110784.847,110803,110818.248,114664.369,8,400,14,,ISIC_0034046.JPG
break,html.Screen,4_13_1,2023-09-08T17:08:39.007Z,,0,,,NaN,,,,,,false,,,,114651.19999998808,114651,,114650.30000001192,,114664.369,8,400,,,
break_continue,html.Screen,4_13_2,2023-09-08T17:08:39.007Z,,0,,,NaN,,,,,,false,,,,114651.69999998808,114651.5,,114651.30000001192,,114664.369,8,400,,,
sequence,flow.Sequence,4_13,2023-09-08T17:08:39.008Z,,0,,,3833.251999999993,completion,,,,,false,,,,114651.69999998808,114651.5,110784.847,110803,110818.248,114664.369,8,400,,,
trial,html.Screen,4_14_0,2023-09-08T17:08:46.163Z,,0,1,,7142.330999988073,response,ISIC_7503950.JPG,5,ISIC_3779424.JPG,ISIC_3779424.JPG,false,0,keypress(z),500,121806.90000000596,121806.69999998808,114648.172,114651.90000000596,114664.369,121808.496,8,400,15,,ISIC_7503950.JPG
break,html.Screen,4_14_1,2023-09-08T17:08:46.164Z,,0,,,NaN,,,,,,false,,,,121807.80000001192,121807.69999998808,,121807.09999999404,,121808.496,8,400,,,
break_continue,html.Screen,4_14_2,2023-09-08T17:08:46.164Z,,0,,,NaN,,,,,,false,,,,121808.19999998808,121808.09999999404,,121807.90000000596,,121808.496,8,400,,,
sequence,flow.Sequence,4_14,2023-09-08T17:08:46.164Z,,0,,,7143.7309999940335,completion,,,,,false,,,,121808.30000001192,121808.09999999404,114648.172,114651.80000001192,114664.369,121808.496,8,400,,,
trial,html.Screen,4_15_0,2023-09-08T17:08:49.433Z,,0,1,,3268.6039999940404,response,ISIC_0027277.JPG,11,ISIC_5979783.JPG,ISIC_5979783.JPG,false,0,keypress(z),500,125077.59999999404,125077.09999999404,121791.657,121808.5,121808.496,125089.308,8,400,16,,ISIC_0027277.JPG
break,html.Screen,4_15_1,2023-09-08T17:08:49.436Z,,0,,,NaN,,,,,,false,,,,125079.69999998808,125079.40000000596,,125078,,125089.308,8,400,,,
break_continue,html.Screen,4_15_2,2023-09-08T17:08:49.436Z,,0,,,NaN,,,,,,false,,,,125080.30000001192,125080.19999998808,,125080,,125089.308,8,400,,,
sequence,flow.Sequence,4_15,2023-09-08T17:08:49.436Z,,0,,,3271.70399998808,completion,,,,,false,,,,125080.59999999404,125080.19999998808,121791.657,121808.40000000596,121808.496,125089.308,8,400,,,
trial,html.Screen,4_16_0,2023-09-08T17:08:54.210Z,,0,1,,4764.992000011916,response,ISIC_6184891.JPG,12,ISIC_0005639.JPG,ISIC_6184891.JPG,false,1,keypress(m),500,129854.59999999404,129854.30000001192,125073.103,125080.80000001192,125089.308,129868.824,8,400,17,,ISIC_0005639.JPG
break,html.Screen,4_16_1,2023-09-08T17:08:54.212Z,,0,,,NaN,,,,,,false,,,,129856,129855.5,,129854.80000001192,,129868.824,8,400,,,
break_continue,html.Screen,4_16_2,2023-09-08T17:08:54.212Z,,0,,,NaN,,,,,,false,,,,129856.40000000596,129856.19999998808,,129856.09999999404,,129868.824,8,400,,,
sequence,flow.Sequence,4_16,2023-09-08T17:08:54.212Z,,0,,,4766.8919999880745,completion,,,,,false,,,,129856.5,129856.19999998808,125073.103,125080.80000001192,125089.308,129868.824,8,400,,,
trial,html.Screen,4_17_0,2023-09-08T17:09:00.704Z,,0,1,,6478.576000005967,response,ISIC_0028755.JPG,10,ISIC_0033508.JPG,ISIC_0033508.JPG,false,0,keypress(z),500,136347.80000001192,136347.40000000596,129852.408,129856.69999998808,129868.824,136363.475,8,400,18,,ISIC_0028755.JPG
break,html.Screen,4_17_1,2023-09-08T17:09:00.705Z,,0,,,NaN,,,,,,false,,,,136349.59999999404,136349.40000000596,,136348.19999998808,,136363.475,8,400,,,
break_continue,html.Screen,4_17_2,2023-09-08T17:09:00.706Z,,0,,,NaN,,,,,,false,,,,136350,136350,,136349.69999998808,,136363.475,8,400,,,
sequence,flow.Sequence,4_17,2023-09-08T17:09:00.706Z,,0,,,6481.176000000007,completion,,,,,false,,,,136350.19999998808,136350,129852.408,129856.59999999404,129868.824,136363.475,8,400,,,
trial,html.Screen,4_18_0,2023-09-08T17:09:04.429Z,,0,1,,3709.6249999940337,response,ISIC_0033981.JPG,10,ISIC_3850432.JPG,ISIC_3850432.JPG,false,0,keypress(z),500,140073.59999999404,140073.09999999404,136346.652,136350.30000001192,136363.475,140076.931,8,400,19,,ISIC_0033981.JPG
break,html.Screen,4_18_1,2023-09-08T17:09:04.432Z,,0,,,NaN,,,,,,false,,,,140075.90000000596,140075.5,,140074.09999999404,,140076.931,8,400,,,
break_continue,html.Screen,4_18_2,2023-09-08T17:09:04.432Z,,0,,,NaN,,,,,,false,,,,140076.59999999404,140076.40000000596,,140076.19999998808,,140076.931,8,400,,,
sequence,flow.Sequence,4_18,2023-09-08T17:09:04.433Z,,0,,,3712.9250000059546,completion,,,,,false,,,,140076.80000001192,140076.40000000596,136346.652,136350.30000001192,136363.475,140076.931,8,400,,,
trial,html.Screen,4_19_0,2023-09-08T17:09:08.317Z,,0,1,,3883.3690000119095,response,ISIC_0013845.JPG,12,ISIC_0028723.JPG,ISIC_0028723.JPG,false,0,keypress(z),500,143960.69999998808,143960.30000001192,140060.622,140077.30000001192,140076.931,143973.741,8,400,20,,ISIC_0013845.JPG
break,html.Screen,4_19_1,2023-09-08T17:09:08.318Z,,0,,,NaN,,,,,,false,,,,143962,143961.80000001192,,143961,,143973.741,8,400,,,
break_continue,html.Screen,4_19_2,2023-09-08T17:09:08.318Z,,0,,,NaN,,,,,,false,,,,143962.40000000596,143962.19999998808,,143962.09999999404,,143973.741,8,400,,,
sequence,flow.Sequence,4_19,2023-09-08T17:09:08.318Z,,0,,,3885.2689999880677,completion,,,,,false,,,,143962.5,143962.19999998808,140060.622,140077,140076.931,143973.741,8,400,,,
trial,html.Screen,4_20_0,2023-09-08T17:09:19.821Z,,0,1,,11524.245999999985,timeout,ISIC_0011868.JPG,12,ISIC_0016085.JPG,,false,,,500,155465.30000001192,155465.09999999404,143957.294,143962.59999999404,143973.741,155497.987,8,400,21,,
break,html.Screen,4_20_1,2023-09-08T17:09:19.822Z,,0,,,NaN,,,,,,false,,,,155466,155465.90000000596,,155465.5,,155497.987,8,400,,,
break_continue,html.Screen,4_20_2,2023-09-08T17:09:19.822Z,,0,,,NaN,,,,,,false,,,,155466.40000000596,155466.30000001192,,155466.09999999404,,155497.987,8,400,,,
sequence,flow.Sequence,4_20,2023-09-08T17:09:19.822Z,,0,,,11492.559000011912,completion,,,,,false,,,,155466.5,155466.30000001192,143957.294,143962.59999999404,143973.741,155497.987,8,400,,,
trial,html.Screen,4_21_0,2023-09-08T17:09:22.915Z,,0,1,,3060.9130000059668,response,ISIC_0029684.JPG,5,ISIC_0000414.JPG,ISIC_0029684.JPG,false,1,keypress(m),500,158559.40000000596,158558.90000000596,155481.308,155466.59999999404,155497.987,158561.688,8,400,22,,ISIC_0000414.JPG
break,html.Screen,4_21_1,2023-09-08T17:09:22.917Z,,0,,,NaN,,,,,,false,,,,158560.69999998808,158560.30000001192,,158559.59999999404,,158561.688,8,400,,,
break_continue,html.Screen,4_21_2,2023-09-08T17:09:22.917Z,,0,,,NaN,,,,,,false,,,,158561.09999999404,158561,,158560.80000001192,,158561.688,8,400,,,
sequence,flow.Sequence,4_21,2023-09-08T17:09:22.917Z,,0,,,3063.0130000000063,completion,,,,,false,,,,158561.19999998808,158561,155481.308,155466.59999999404,155497.987,158561.688,8,400,,,
trial,html.Screen,4_22_0,2023-09-08T17:09:25.983Z,,0,1,,3065.411999994045,response,ISIC_0010415.JPG,13,ISIC_0033956.JPG,ISIC_0033956.JPG,false,0,keypress(z),500,161627.40000000596,161627.09999999404,158545.325,158561.40000000596,158561.688,161642.895,8,400,23,,ISIC_0010415.JPG
break,html.Screen,4_22_1,2023-09-08T17:09:25.985Z,,0,,,NaN,,,,,,false,,,,161628.59999999404,161628.40000000596,,161627.69999998808,,161642.895,8,400,,,
break_continue,html.Screen,4_22_2,2023-09-08T17:09:25.985Z,,0,,,NaN,,,,,,false,,,,161628.90000000596,161628.80000001192,,161628.69999998808,,161642.895,8,400,,,
sequence,flow.Sequence,4_22,2023-09-08T17:09:25.985Z,,0,,,3067.1120000119263,completion,,,,,false,,,,161629.09999999404,161628.80000001192,158545.325,158561.40000000596,158561.688,161642.895,8,400,,,
trial,html.Screen,4_23_0,2023-09-08T17:09:30.228Z,,0,1,,4228.905000011931,response,ISIC_0033573.JPG,7,ISIC_6970607.JPG,ISIC_6970607.JPG,false,0,keypress(z),500,165872.19999998808,165871.80000001192,161626.132,161629.09999999404,161642.895,165907.111,8,400,24,,ISIC_0033573.JPG
break,html.Screen,4_23_1,2023-09-08T17:09:30.229Z,,0,,,NaN,,,,,,false,,,,165873.5,165873.30000001192,,165872.5,,165907.111,8,400,,,
break_continue,html.Screen,4_23_2,2023-09-08T17:09:30.230Z,,0,,,NaN,,,,,,false,,,,165873.90000000596,165873.80000001192,,165873.59999999404,,165907.111,8,400,,,
sequence,flow.Sequence,4_23,2023-09-08T17:09:30.230Z,,0,,,4230.905000011931,completion,,,,,false,,,,165874.09999999404,165873.80000001192,161626.132,161629.09999999404,161642.895,165907.111,8,400,,,
trial,html.Screen,4_24_0,2023-09-08T17:09:33.237Z,,0,1,,2973.789000005956,response,ISIC_0004455.JPG,12,ISIC_0062762.JPG,ISIC_0004455.JPG,false,1,keypress(m),500,168881.30000001192,168880.90000000596,165889.279,165874.19999998808,165907.111,168886.509,8,400,25,,ISIC_0062762.JPG
break,html.Screen,4_24_1,2023-09-08T17:09:33.239Z,,0,,,NaN,,,,,,false,,,,168882.90000000596,168882.5,,168881.59999999404,,168886.509,8,400,,,
break_continue,html.Screen,4_24_2,2023-09-08T17:09:33.239Z,,0,,,NaN,,,,,,false,,,,168883.5,168883.30000001192,,168883.09999999404,,168886.509,8,400,,,
sequence,flow.Sequence,4_24,2023-09-08T17:09:33.240Z,,0,,,2976.1890000119165,completion,,,,,false,,,,168883.69999998808,168883.30000001192,165889.279,165874.19999998808,165907.111,168886.509,8,400,,,
trial,html.Screen,4_25_0,2023-09-08T17:09:37.039Z,,0,1,,3796.5909999940486,response,ISIC_0010441.JPG,5,ISIC_9385996.JPG,ISIC_9385996.JPG,false,0,keypress(z),500,172683.30000001192,172683.09999999404,168869.848,168883.69999998808,168886.509,172717.165,8,400,26,,ISIC_0010441.JPG
break,html.Screen,4_25_1,2023-09-08T17:09:37.040Z,,0,,,NaN,,,,,,false,,,,172684.5,172684.30000001192,,172683.59999999404,,172717.165,8,400,,,
break_continue,html.Screen,4_25_2,2023-09-08T17:09:37.041Z,,0,,,NaN,,,,,,false,,,,172684.90000000596,172684.80000001192,,172684.59999999404,,172717.165,8,400,,,
sequence,flow.Sequence,4_25,2023-09-08T17:09:37.041Z,,0,,,3798.29100001193,completion,,,,,false,,,,172685,172684.80000001192,168869.848,168883.69999998808,168886.509,172717.165,8,400,,,
trial,html.Screen,4_26_0,2023-09-08T17:09:43.003Z,,0,1,,5929.534999988071,response,ISIC_0024246.JPG,6,ISIC_2050512.JPG,ISIC_0024246.JPG,false,1,keypress(m),500,178647.09999999404,178646.69999998808,172700.326,172685.09999999404,172717.165,178662.158,8,400,27,,ISIC_2050512.JPG
break,html.Screen,4_26_1,2023-09-08T17:09:43.005Z,,0,,,NaN,,,,,,false,,,,178648.59999999404,178648.30000001192,,178647.40000000596,,178662.158,8,400,,,
break_continue,html.Screen,4_26_2,2023-09-08T17:09:43.005Z,,0,,,NaN,,,,,,false,,,,178649,178648.90000000596,,178648.69999998808,,178662.158,8,400,,,
sequence,flow.Sequence,4_26,2023-09-08T17:09:43.005Z,,0,,,5931.735000005952,completion,,,,,false,,,,178649.19999998808,178648.90000000596,172700.326,172685.09999999404,172717.165,178662.158,8,400,,,
trial,html.Screen,4_27_0,2023-09-08T17:09:49.462Z,,0,1,,6443.041999988083,response,ISIC_9742891.JPG,4,ISIC_0032922.JPG,ISIC_0032922.JPG,false,0,keypress(z),500,185105.69999998808,185105.19999998808,178646.004,178649.30000001192,178662.158,185123.865,8,400,28,,ISIC_9742891.JPG
break,html.Screen,4_27_1,2023-09-08T17:09:49.464Z,,0,,,NaN,,,,,,false,,,,185107.90000000596,185107.30000001192,,185106.09999999404,,185123.865,8,400,,,
break_continue,html.Screen,4_27_2,2023-09-08T17:09:49.465Z,,0,,,NaN,,,,,,false,,,,185108.69999998808,185108.5,,185108.09999999404,,185123.865,8,400,,,
sequence,flow.Sequence,4_27,2023-09-08T17:09:49.465Z,,0,,,6446.342000000004,completion,,,,,false,,,,185108.90000000596,185108.5,178646.004,178649.30000001192,178662.158,185123.865,8,400,,,
trial,html.Screen,4_28_0,2023-09-08T17:09:52.816Z,,0,1,,3336.234999994049,response,ISIC_1380069.JPG,7,ISIC_0027056.JPG,ISIC_1380069.JPG,false,1,keypress(m),500,188460.40000000596,188460.09999999404,185090.716,185109.09999999404,185123.865,188470.539,8,400,29,,ISIC_0027056.JPG
break,html.Screen,4_28_1,2023-09-08T17:09:52.817Z,,0,,,NaN,,,,,,false,,,,188461.5,188461.30000001192,,188460.69999998808,,188470.539,8,400,,,
break_continue,html.Screen,4_28_2,2023-09-08T17:09:52.818Z,,0,,,NaN,,,,,,false,,,,188462,188461.80000001192,,188461.69999998808,,188470.539,8,400,,,
sequence,flow.Sequence,4_28,2023-09-08T17:09:52.818Z,,0,,,3337.9350000119302,completion,,,,,false,,,,188462.09999999404,188461.80000001192,185090.716,185109,185123.865,188470.539,8,400,,,
trial,html.Screen,4_29_0,2023-09-08T17:09:58.272Z,,0,1,,5444.861000005971,response,ISIC_0012904.JPG,9,ISIC_5703909.JPG,ISIC_5703909.JPG,false,0,keypress(z),500,193915.69999998808,193915.40000000596,188454.187,188462.19999998808,188470.539,193933.034,8,400,30,,ISIC_0012904.JPG
break,html.Screen,4_29_1,2023-09-08T17:09:58.273Z,,0,,,NaN,,,,,,false,,,,193917.09999999404,193916.80000001192,,193916,,193933.034,8,400,,,
break_continue,html.Screen,4_29_2,2023-09-08T17:09:58.273Z,,0,,,NaN,,,,,,false,,,,193917.5,193917.40000000596,,193917.19999998808,,193933.034,8,400,,,
sequence,flow.Sequence,4_29,2023-09-08T17:09:58.274Z,,0,,,5446.861000005971,completion,,,,,false,,,,193917.59999999404,193917.40000000596,188454.187,188462.19999998808,188470.539,193933.034,8,400,,,
trial,html.Screen,4_30_0,2023-09-08T17:10:01.942Z,,0,1,,3652.7660000119067,response,ISIC_9209245.JPG,5,ISIC_4921413.JPG,ISIC_9209245.JPG,false,1,keypress(m),500,197586.19999998808,197585.80000001192,193916.27,193917.69999998808,193933.034,197596.256,8,400,31,,ISIC_4921413.JPG
break,html.Screen,4_30_1,2023-09-08T17:10:01.943Z,,0,,,NaN,,,,,,false,,,,197587.30000001192,197587.09999999404,,197586.5,,197596.256,8,400,,,
break_continue,html.Screen,4_30_2,2023-09-08T17:10:01.944Z,,0,,,NaN,,,,,,false,,,,197587.80000001192,197587.59999999404,,197587.5,,197596.256,8,400,,,
sequence,flow.Sequence,4_30,2023-09-08T17:10:01.944Z,,0,,,3654.5659999940253,completion,,,,,false,,,,197587.90000000596,197587.59999999404,193916.27,193917.69999998808,193933.034,197596.256,8,400,,,
trial,html.Screen,4_31_0,2023-09-08T17:10:05.218Z,,0,1,,3264.943999988085,response,ISIC_2324728.JPG,11,ISIC_6919856.JPG,ISIC_2324728.JPG,false,1,keypress(m),500,200861.69999998808,200861.19999998808,197580.43,197588.09999999404,197596.256,200877.171,8,400,32,,ISIC_6919856.JPG
break,html.Screen,4_31_1,2023-09-08T17:10:05.219Z,,0,,,NaN,,,,,,false,,,,200863.19999998808,200862.90000000596,,200862,,200877.171,8,400,,,
break_continue,html.Screen,4_31_2,2023-09-08T17:10:05.220Z,,0,,,NaN,,,,,,false,,,,200863.69999998808,200863.5,,200863.40000000596,,200877.171,8,400,,,
sequence,flow.Sequence,4_31,2023-09-08T17:10:05.220Z,,0,,,3267.244000000006,completion,,,,,false,,,,200863.80000001192,200863.5,197580.43,197588.09999999404,197596.256,200877.171,8,400,,,
trial,html.Screen,4_32_0,2023-09-08T17:10:10.048Z,,0,1,,4814.629000011919,response,ISIC_0027552.JPG,10,ISIC_0057815.JPG,ISIC_0057815.JPG,false,0,keypress(z),500,205692.09999999404,205691.80000001192,200861.08,200864,200877.171,205706.735,8,400,33,,ISIC_0027552.JPG
break,html.Screen,4_32_1,2023-09-08T17:10:10.049Z,,0,,,NaN,,,,,,false,,,,205693.30000001192,205693.09999999404,,205692.19999998808,,205706.735,8,400,,,
break_continue,html.Screen,4_32_2,2023-09-08T17:10:10.050Z,,0,,,NaN,,,,,,false,,,,205694,205693.90000000596,,205693.59999999404,,205706.735,8,400,,,
sequence,flow.Sequence,4_32,2023-09-08T17:10:10.050Z,,0,,,4816.729000005958,completion,,,,,false,,,,205694.30000001192,205693.90000000596,200861.08,200863.90000000596,200877.171,205706.735,8,400,,,
trial,html.Screen,4_33_0,2023-09-08T17:10:15.320Z,,0,1,,5256.765000000014,response,ISIC_4243283.JPG,9,ISIC_0032140.JPG,ISIC_0032140.JPG,false,0,keypress(z),500,210963.80000001192,210963.5,205690.294,205694.40000000596,205706.735,210968.649,8,400,34,,ISIC_4243283.JPG
break,html.Screen,4_33_1,2023-09-08T17:10:15.322Z,,0,,,NaN,,,,,,false,,,,210965.69999998808,210965.40000000596,,210964.30000001192,,210968.649,8,400,,,
break_continue,html.Screen,4_33_2,2023-09-08T17:10:15.322Z,,0,,,NaN,,,,,,false,,,,210966.30000001192,210966.09999999404,,210965.90000000596,,210968.649,8,400,,,
sequence,flow.Sequence,4_33,2023-09-08T17:10:15.322Z,,0,,,5259.3649999940535,completion,,,,,false,,,,210966.5,210966.09999999404,205690.294,205694.40000000596,205706.735,210968.649,8,400,,,
trial,html.Screen,4_34_0,2023-09-08T17:10:18.961Z,,0,1,,3636.2510000059556,response,ISIC_2378211.JPG,10,ISIC_0024894.JPG,ISIC_0024894.JPG,false,0,keypress(z),500,214605.09999999404,214604.90000000596,210952.631,210966.69999998808,210968.649,214615.717,8,400,35,,ISIC_2378211.JPG
break,html.Screen,4_34_1,2023-09-08T17:10:18.962Z,,0,,,NaN,,,,,,false,,,,214606.40000000596,214606.19999998808,,214605.40000000596,,214615.717,8,400,,,
break_continue,html.Screen,4_34_2,2023-09-08T17:10:18.963Z,,0,,,NaN,,,,,,false,,,,214606.80000001192,214606.59999999404,,214606.5,,214615.717,8,400,,,
sequence,flow.Sequence,4_34,2023-09-08T17:10:18.963Z,,0,,,3637.9509999940346,completion,,,,,false,,,,214606.90000000596,214606.59999999404,210952.631,210966.59999999404,210968.649,214615.717,8,400,,,
trial,html.Screen,4_35_0,2023-09-08T17:10:23.119Z,,0,1,,4146.982999988075,response,ISIC_2622189.JPG,8,ISIC_1399572.JPG,ISIC_1399572.JPG,false,0,keypress(z),500,218763.09999999404,218762.69999998808,214599.824,214607,214615.717,218779.02,8,400,36,,ISIC_2622189.JPG
break,html.Screen,4_35_1,2023-09-08T17:10:23.120Z,,0,,,NaN,,,,,,false,,,,218764.30000001192,218763.90000000596,,218763.30000001192,,218779.02,8,400,,,
break_continue,html.Screen,4_35_2,2023-09-08T17:10:23.121Z,,0,,,NaN,,,,,,false,,,,218764.80000001192,218764.69999998808,,218764.5,,218779.02,8,400,,,
sequence,flow.Sequence,4_35,2023-09-08T17:10:23.121Z,,0,,,4148.982999988075,completion,,,,,false,,,,218765.09999999404,218764.69999998808,214599.824,214606.90000000596,214615.717,218779.02,8,400,,,
trial,html.Screen,4_36_0,2023-09-08T17:10:27.932Z,,0,1,,4796.4800000000105,response,ISIC_0056811.JPG,10,ISIC_0360988.JPG,ISIC_0360988.JPG,false,0,keypress(z),500,223575.90000000596,223575.5,218762.728,218765.30000001192,218779.02,223591.651,8,400,37,,ISIC_0056811.JPG
break,html.Screen,4_36_1,2023-09-08T17:10:27.933Z,,0,,,NaN,,,,,,false,,,,223577.30000001192,223576.90000000596,,223576.19999998808,,223591.651,8,400,,,
break_continue,html.Screen,4_36_2,2023-09-08T17:10:27.933Z,,0,,,NaN,,,,,,false,,,,223577.59999999404,223577.5,,223577.30000001192,,223591.651,8,400,,,
sequence,flow.Sequence,4_36,2023-09-08T17:10:27.934Z,,0,,,4798.4800000000105,completion,,,,,false,,,,223577.80000001192,223577.5,218762.728,218765.19999998808,218779.02,223591.651,8,400,,,
trial,html.Screen,4_37_0,2023-09-08T17:10:34.248Z,,0,1,,6300.0489999880665,response,ISIC_7903838.JPG,12,ISIC_0068048.JPG,ISIC_7903838.JPG,false,1,keypress(m),500,229892,229891.69999998808,223575.563,223579,223591.651,229903.218,8,400,38,,ISIC_0068048.JPG
break,html.Screen,4_37_1,2023-09-08T17:10:34.249Z,,0,,,NaN,,,,,,false,,,,229893.19999998808,229893,,229892.30000001192,,229903.218,8,400,,,
break_continue,html.Screen,4_37_2,2023-09-08T17:10:34.249Z,,0,,,NaN,,,,,,false,,,,229893.59999999404,229893.5,,229893.30000001192,,229903.218,8,400,,,
sequence,flow.Sequence,4_37,2023-09-08T17:10:34.250Z,,0,,,6301.848999999987,completion,,,,,false,,,,229893.69999998808,229893.5,223575.563,223579,223591.651,229903.218,8,400,,,
trial,html.Screen,4_38_0,2023-09-08T17:10:37.321Z,,0,1,,3062.0820000119274,response,ISIC_0032492.JPG,10,ISIC_9126343.JPG,ISIC_9126343.JPG,false,0,keypress(z),500,232965.5,232965.30000001192,229887.018,229893.80000001192,229903.218,232989.03,8,400,39,,ISIC_0032492.JPG
break,html.Screen,4_38_1,2023-09-08T17:10:37.323Z,,0,,,NaN,,,,,,false,,,,232966.80000001192,232966.5,,232965.80000001192,,232989.03,8,400,,,
break_continue,html.Screen,4_38_2,2023-09-08T17:10:37.323Z,,0,,,NaN,,,,,,false,,,,232967.19999998808,232967.09999999404,,232966.90000000596,,232989.03,8,400,,,
sequence,flow.Sequence,4_38,2023-09-08T17:10:37.323Z,,0,,,3063.881999994046,completion,,,,,false,,,,232967.40000000596,232967.09999999404,229887.018,229893.80000001192,229903.218,232989.03,8,400,,,
trial,html.Screen,4_39_0,2023-09-08T17:10:42.501Z,,0,1,,5155.770000011922,response,ISIC_9001948.JPG,9,ISIC_2436560.JPG,ISIC_9001948.JPG,false,1,keypress(m),500,238145.09999999404,238144.80000001192,232951.163,232967.5,232989.03,238168.574,8,400,40,,ISIC_2436560.JPG
break,html.Screen,4_39_1,2023-09-08T17:10:42.502Z,,0,,,NaN,,,,,,false,,,,238146.30000001192,238146.09999999404,,238145.40000000596,,238168.574,8,400,,,
break_continue,html.Screen,4_39_2,2023-09-08T17:10:42.503Z,,0,,,NaN,,,,,,false,,,,238146.69999998808,238146.59999999404,,238146.5,,238168.574,8,400,,,
sequence,flow.Sequence,4_39,2023-09-08T17:10:42.503Z,,0,,,5157.569999994041,completion,,,,,false,,,,238146.90000000596,238146.59999999404,232951.163,232967.5,232989.03,238168.574,8,400,,,
trial,html.Screen,4_40_0,2023-09-08T17:10:47.532Z,,0,1,,5006.826000005967,response,ISIC_2192973.JPG,8,ISIC_6745554.JPG,ISIC_6745554.JPG,false,0,keypress(z),500,243175.80000001192,243175.40000000596,238130.494,238147,238168.574,243192.523,8,400,41,,ISIC_2192973.JPG
break,html.Screen,4_40_1,2023-09-08T17:10:47.533Z,,0,,,NaN,,,,,,false,,,,243177.09999999404,243176.80000001192,,243176,,243192.523,8,400,,,
break_continue,html.Screen,4_40_2,2023-09-08T17:10:47.533Z,,0,,,NaN,,,,,,false,,,,243177.40000000596,243177.30000001192,,243177.09999999404,,243192.523,8,400,,,
sequence,flow.Sequence,4_40,2023-09-08T17:10:47.533Z,,0,,,5008.726000011928,completion,,,,,false,,,,243177.5,243177.30000001192,238130.494,238147,238168.574,243192.523,8,400,,,
trial,html.Screen,4_41_0,2023-09-08T17:10:53.268Z,,0,1,,5719.676999988093,response,ISIC_0032875.JPG,11,ISIC_6188469.JPG,ISIC_6188469.JPG,false,0,keypress(z),500,248912.40000000596,248912.19999998808,243176.218,243177.59999999404,243192.523,248920.879,8,400,42,,ISIC_0032875.JPG
break,html.Screen,4_41_1,2023-09-08T17:10:53.269Z,,0,,,NaN,,,,,,false,,,,248913.59999999404,248913.30000001192,,248912.59999999404,,248920.879,8,400,,,
break_continue,html.Screen,4_41_2,2023-09-08T17:10:53.270Z,,0,,,NaN,,,,,,false,,,,248913.90000000596,248913.69999998808,,248913.69999998808,,248920.879,8,400,,,
sequence,flow.Sequence,4_41,2023-09-08T17:10:53.270Z,,0,,,5721.176999988093,completion,,,,,false,,,,248914,248913.69999998808,243176.218,243177.59999999404,243192.523,248920.879,8,400,,,
trial,html.Screen,4_42_0,2023-09-08T17:11:01.355Z,,0,1,,8078.121000000014,response,ISIC_2458609.JPG,7,ISIC_5170766.JPG,ISIC_2458609.JPG,false,1,keypress(m),500,256999.19999998808,256999,248904.773,248914,248920.879,257014.603,8,400,43,,ISIC_5170766.JPG
break,html.Screen,4_42_1,2023-09-08T17:11:01.356Z,,0,,,NaN,,,,,,false,,,,257000.09999999404,256999.90000000596,,256999.40000000596,,257014.603,8,400,,,
break_continue,html.Screen,4_42_2,2023-09-08T17:11:01.356Z,,0,,,NaN,,,,,,false,,,,257000.40000000596,257000.30000001192,,257000.19999998808,,257014.603,8,400,,,
sequence,flow.Sequence,4_42,2023-09-08T17:11:01.356Z,,0,,,8079.421000011935,completion,,,,,false,,,,257000.5,257000.30000001192,248904.773,248914,248920.879,257014.603,8,400,,,
trial,html.Screen,4_43_0,2023-09-08T17:11:04.739Z,,0,1,,3368.396999999997,response,ISIC_1598039.JPG,5,ISIC_8883212.JPG,ISIC_1598039.JPG,false,1,keypress(m),500,260383.19999998808,260383,256998.043,257000.59999999404,257014.603,260394.733,8,400,44,,ISIC_8883212.JPG
break,html.Screen,4_43_1,2023-09-08T17:11:04.740Z,,0,,,NaN,,,,,,false,,,,260384.40000000596,260384.09999999404,,260383.40000000596,,260394.733,8,400,,,
break_continue,html.Screen,4_43_2,2023-09-08T17:11:04.741Z,,0,,,NaN,,,,,,false,,,,260384.69999998808,260384.59999999404,,260384.5,,260394.733,8,400,,,
sequence,flow.Sequence,4_43,2023-09-08T17:11:04.741Z,,0,,,3369.9969999940367,completion,,,,,false,,,,260384.90000000596,260384.59999999404,256998.043,257000.5,257014.603,260394.733,8,400,,,
trial,html.Screen,4_44_0,2023-09-08T17:11:10.225Z,,0,1,,5474.167000005953,response,ISIC_9439742.JPG,5,ISIC_8492957.JPG,ISIC_9439742.JPG,false,1,keypress(m),500,265869.1999999881,265868.90000000596,260378.653,260384.90000000596,260394.733,265873.507,8,400,45,,ISIC_8492957.JPG
break,html.Screen,4_44_1,2023-09-08T17:11:10.226Z,,0,,,NaN,,,,,,false,,,,265870.59999999404,265870.40000000596,,265869.5,,265873.507,8,400,,,
break_continue,html.Screen,4_44_2,2023-09-08T17:11:10.227Z,,0,,,NaN,,,,,,false,,,,265871,265870.90000000596,,265870.6999999881,,265873.507,8,400,,,
sequence,flow.Sequence,4_44,2023-09-08T17:11:10.227Z,,0,,,5476.167000005953,completion,,,,,false,,,,265871.09999999404,265870.90000000596,260378.653,260384.90000000596,260394.733,265873.507,8,400,,,
trial,html.Screen,4_45_0,2023-09-08T17:11:14.702Z,,0,1,,4471.993000000017,response,ISIC_0011531.JPG,10,ISIC_0004352.JPG,ISIC_0004352.JPG,false,0,keypress(z),500,270345.6999999881,270345.5,265856.908,265871.1999999881,265873.507,270353.17,8,400,46,,ISIC_0011531.JPG
break,html.Screen,4_45_1,2023-09-08T17:11:14.702Z,,0,,,NaN,,,,,,false,,,,270346.59999999404,270346.5,,270346,,270353.17,8,400,,,
break_continue,html.Screen,4_45_2,2023-09-08T17:11:14.703Z,,0,,,NaN,,,,,,false,,,,270346.90000000596,270346.8000000119,,270346.8000000119,,270353.17,8,400,,,
sequence,flow.Sequence,4_45,2023-09-08T17:11:14.703Z,,0,,,4473.293000011938,completion,,,,,false,,,,270347.09999999404,270346.8000000119,265856.908,265871.1999999881,265873.507,270353.17,8,400,,,
trial,html.Screen,4_46_0,2023-09-08T17:11:18.751Z,,0,1,,4041.630000011937,response,ISIC_5218773.JPG,11,ISIC_0056089.JPG,ISIC_5218773.JPG,false,1,keypress(m),500,274395.3000000119,274394.8000000119,270337.058,270347.1999999881,270353.17,274399.856,8,400,47,,ISIC_0056089.JPG
break,html.Screen,4_46_1,2023-09-08T17:11:18.753Z,,0,,,NaN,,,,,,false,,,,274396.6999999881,274396.5,,274395.59999999404,,274399.856,8,400,,,
break_continue,html.Screen,4_46_2,2023-09-08T17:11:18.753Z,,0,,,NaN,,,,,,false,,,,274397.09999999404,274397,,274396.90000000596,,274399.856,8,400,,,
sequence,flow.Sequence,4_46,2023-09-08T17:11:18.753Z,,0,,,4043.8300000000163,completion,,,,,false,,,,274397.3000000119,274397,270337.058,270347.09999999404,270353.17,274399.856,8,400,,,
trial,html.Screen,4_47_0,2023-09-08T17:11:23.432Z,,0,1,,4675.84399998805,response,ISIC_0067326.JPG,13,ISIC_2299749.JPG,ISIC_2299749.JPG,false,0,keypress(z),500,279076.1999999881,279075.6999999881,274384.093,274397.40000000596,274399.856,279079.42,8,400,48,,ISIC_0067326.JPG
break,html.Screen,4_47_1,2023-09-08T17:11:23.434Z,,0,,,NaN,,,,,,false,,,,279078.1999999881,279077.8000000119,,279076.6999999881,,279079.42,8,400,,,
break_continue,html.Screen,4_47_2,2023-09-08T17:11:23.435Z,,0,,,NaN,,,,,,false,,,,279079,279078.8000000119,,279078.5,,279079.42,8,400,,,
sequence,flow.Sequence,4_47,2023-09-08T17:11:23.435Z,,0,,,4678.944000011892,completion,,,,,false,,,,279079.1999999881,279078.8000000119,274384.093,274397.40000000596,274399.856,279079.42,8,400,,,
trial,html.Screen,4_48_0,2023-09-08T17:11:27.955Z,,0,1,,4519.679999994056,response,ISIC_7440724.JPG,13,ISIC_7697022.JPG,ISIC_7440724.JPG,false,1,keypress(m),500,283599.40000000596,283599.09999999404,279063.303,279079.40000000596,279079.42,283609.074,8,400,49,,ISIC_7697022.JPG
break,html.Screen,4_48_1,2023-09-08T17:11:27.956Z,,0,,,NaN,,,,,,false,,,,283600.5,283600.3000000119,,283599.59999999404,,283609.074,8,400,,,
break_continue,html.Screen,4_48_2,2023-09-08T17:11:27.957Z,,0,,,NaN,,,,,,false,,,,283600.90000000596,283600.8000000119,,283600.6999999881,,283609.074,8,400,,,
sequence,flow.Sequence,4_48,2023-09-08T17:11:27.957Z,,0,,,4521.380000011937,completion,,,,,false,,,,283601,283600.8000000119,279063.303,279079.40000000596,279079.42,283609.074,8,400,,,
trial,html.Screen,4_49_0,2023-09-08T17:11:36.244Z,,0,1,,8278.425999999978,response,ISIC_0059368.JPG,11,ISIC_7580408.JPG,ISIC_0059368.JPG,false,1,keypress(m),500,291887.8000000119,291887.5,283592.979,283601.1999999881,283609.074,291902.897,8,400,50,,ISIC_7580408.JPG
break,html.Screen,4_49_1,2023-09-08T17:11:46.235Z,,0,,,9991.340000000026,timeout,,,,,false,,,,301879.1999999881,301877.849,291885.817,291888,291902.897,301894.237,8,400,,,
break_continue,html.Screen,4_49_2,2023-09-08T17:11:47.594Z,,0,,,1332.8629999940167,response,,,,,false,continue,keypress(Space),,303238.3000000119,303227.09999999404,301877.849,301879.5,301894.237,303242.812,8,400,,,
sequence,flow.Sequence,4_49,2023-09-08T17:11:47.594Z,,0,,,19618.025999994017,completion,,,,,false,,,,303238.5,303227.09999999404,283592.979,283601.09999999404,283609.074,303242.812,8,400,,,
trial,html.Screen,4_50_0,2023-09-08T17:11:51.174Z,,0,2,,3575.2879999940633,response,ISIC_0946787.JPG,9,ISIC_6132976.JPG,ISIC_0946787.JPG,false,1,keypress(m),500,306818.40000000596,306818.09999999404,303226.317,303238.59999999404,303242.812,306823.211,8,400,1,,ISIC_6132976.JPG
break,html.Screen,4_50_1,2023-09-08T17:11:51.175Z,,0,,,NaN,,,,,,false,,,,306819.59999999404,306819.40000000596,,306818.59999999404,,306823.211,8,400,,,
break_continue,html.Screen,4_50_2,2023-09-08T17:11:51.176Z,,0,,,NaN,,,,,,false,,,,306819.90000000596,306819.8000000119,,306819.6999999881,,306823.211,8,400,,,
sequence,flow.Sequence,4_50,2023-09-08T17:11:51.176Z,,0,,,3576.9880000119447,completion,,,,,false,,,,306820.09999999404,306819.8000000119,303226.317,303238.59999999404,303242.812,306823.211,8,400,,,
trial,html.Screen,4_51_0,2023-09-08T17:11:57.874Z,,0,2,,6694.988999988069,response,ISIC_0068993.JPG,10,ISIC_8357420.JPG,ISIC_8357420.JPG,false,0,keypress(z),500,313518.59999999404,313518.1999999881,306807.084,306820.09999999404,306823.211,313534.778,8,400,2,,ISIC_0068993.JPG
break,html.Screen,4_51_1,2023-09-08T17:11:57.876Z,,0,,,NaN,,,,,,false,,,,313520.40000000596,313520.1999999881,,313518.90000000596,,313534.778,8,400,,,
break_continue,html.Screen,4_51_2,2023-09-08T17:11:57.877Z,,0,,,NaN,,,,,,false,,,,313520.8000000119,313520.6999999881,,313520.5,,313534.778,8,400,,,
sequence,flow.Sequence,4_51,2023-09-08T17:11:57.881Z,,0,,,6697.488999988069,completion,,,,,false,,,,313525,313520.6999999881,306807.084,306820.09999999404,306823.211,313534.778,8,400,,,
trial,html.Screen,4_52_0,2023-09-08T17:12:01.353Z,,0,2,,3461.52200001193,response,ISIC_0006302.JPG,5,ISIC_0010540.JPG,ISIC_0006302.JPG,false,1,keypress(m),500,316996.6999999881,316996.3000000119,313518.081,313525.1999999881,313534.778,317020.166,8,400,3,,ISIC_0010540.JPG
break,html.Screen,4_52_1,2023-09-08T17:12:01.354Z,,0,,,NaN,,,,,,false,,,,316998.09999999404,316997.90000000596,,316997,,317020.166,8,400,,,
break_continue,html.Screen,4_52_2,2023-09-08T17:12:01.354Z,,0,,,NaN,,,,,,false,,,,316998.59999999404,316998.5,,316998.3000000119,,317020.166,8,400,,,
sequence,flow.Sequence,4_52,2023-09-08T17:12:01.356Z,,0,,,3463.722000000009,completion,,,,,false,,,,316999.8000000119,316998.5,313518.081,313525.1999999881,313534.778,317020.166,8,400,,,
trial,html.Screen,4_53_0,2023-09-08T17:12:07.379Z,,0,2,,6002.5339999880525,response,ISIC_4957315.JPG,5,ISIC_0024288.JPG,ISIC_4957315.JPG,false,1,keypress(m),500,323023.09999999404,323022.6999999881,316981.915,316999.90000000596,317020.166,323026.595,8,400,4,,ISIC_0024288.JPG
break,html.Screen,4_53_1,2023-09-08T17:12:07.380Z,,0,,,NaN,,,,,,false,,,,323024.40000000596,323024.1999999881,,323023.3000000119,,323026.595,8,400,,,
break_continue,html.Screen,4_53_2,2023-09-08T17:12:07.381Z,,0,,,NaN,,,,,,false,,,,323024.8000000119,323024.6999999881,,323024.59999999404,,323026.595,8,400,,,
sequence,flow.Sequence,4_53,2023-09-08T17:12:07.381Z,,0,,,6004.5339999880525,completion,,,,,false,,,,323024.90000000596,323024.6999999881,316981.915,316999.8000000119,317020.166,323026.595,8,400,,,
trial,html.Screen,4_54_0,2023-09-08T17:12:13.372Z,,0,2,,5989.305000005988,response,ISIC_5231145.JPG,5,ISIC_0069638.JPG,ISIC_5231145.JPG,false,1,keypress(m),500,329016.3000000119,329015.90000000596,323010.101,323025,323026.595,329021.665,8,400,5,,ISIC_0069638.JPG
break,html.Screen,4_54_1,2023-09-08T17:12:13.374Z,,0,,,NaN,,,,,,false,,,,329017.8000000119,329017.5,,329016.59999999404,,329021.665,8,400,,,
break_continue,html.Screen,4_54_2,2023-09-08T17:12:13.374Z,,0,,,NaN,,,,,,false,,,,329018.3000000119,329018.1999999881,,329018,,329021.665,8,400,,,
sequence,flow.Sequence,4_54,2023-09-08T17:12:13.374Z,,0,,,5991.604999988107,completion,,,,,false,,,,329018.40000000596,329018.1999999881,323010.101,323025,323026.595,329021.665,8,400,,,
trial,html.Screen,4_55_0,2023-09-08T17:12:16.454Z,,0,2,,3075.7350000059814,response,ISIC_0013775.JPG,8,ISIC_0011305.JPG,ISIC_0013775.JPG,false,1,keypress(m),500,332097.8000000119,332097.40000000596,329005.074,329018.59999999404,329021.665,332102.448,8,400,6,,ISIC_0011305.JPG
break,html.Screen,4_55_1,2023-09-08T17:12:16.455Z,,0,,,NaN,,,,,,false,,,,332098.90000000596,332098.6999999881,,332098,,332102.448,8,400,,,
break_continue,html.Screen,4_55_2,2023-09-08T17:12:16.455Z,,0,,,NaN,,,,,,false,,,,332099.3000000119,332099.1999999881,,332099.09999999404,,332102.448,8,400,,,
sequence,flow.Sequence,4_55,2023-09-08T17:12:16.455Z,,0,,,3077.5349999881,completion,,,,,false,,,,332099.40000000596,332099.1999999881,329005.074,329018.5,329021.665,332102.448,8,400,,,
trial,html.Screen,4_56_0,2023-09-08T17:12:25.834Z,,0,2,,9375.052000000025,response,ISIC_4894929.JPG,9,ISIC_1957685.JPG,ISIC_4894929.JPG,false,1,keypress(m),500,341477.8000000119,341477.5,332086.409,332099.40000000596,332102.448,341511.407,8,400,7,,ISIC_1957685.JPG
break,html.Screen,4_56_1,2023-09-08T17:12:25.835Z,,0,,,NaN,,,,,,false,,,,341479.09999999404,341478.8000000119,,341478,,341511.407,8,400,,,
break_continue,html.Screen,4_56_2,2023-09-08T17:12:25.835Z,,0,,,NaN,,,,,,false,,,,341479.40000000596,341479.40000000596,,341479.1999999881,,341511.407,8,400,,,
sequence,flow.Sequence,4_56,2023-09-08T17:12:25.835Z,,0,,,9376.952000005986,completion,,,,,false,,,,341479.5,341479.40000000596,332086.409,332099.40000000596,332102.448,341511.407,8,400,,,
trial,html.Screen,4_57_0,2023-09-08T17:12:37.359Z,,0,2,,11524.60599999997,timeout,ISIC_0054355.JPG,7,ISIC_3800541.JPG,,false,,,500,353003.5,353003.3000000119,341495.449,341479.59999999404,341511.407,353036.013,8,400,8,,
break,html.Screen,4_57_1,2023-09-08T17:12:37.360Z,,0,,,NaN,,,,,,false,,,,353004.3000000119,353004.1999999881,,353003.8000000119,,353036.013,8,400,,,
break_continue,html.Screen,4_57_2,2023-09-08T17:12:37.361Z,,0,,,NaN,,,,,,false,,,,353004.6999999881,353004.59999999404,,353004.5,,353036.013,8,400,,,
sequence,flow.Sequence,4_57,2023-09-08T17:12:37.361Z,,0,,,11493.192999994033,completion,,,,,false,,,,353004.90000000596,353004.59999999404,341495.449,341479.59999999404,341511.407,353036.013,8,400,,,
trial,html.Screen,4_58_0,2023-09-08T17:12:43.638Z,,0,2,,6245.887000005983,response,ISIC_0009893.JPG,10,ISIC_5747486.JPG,ISIC_0009893.JPG,false,1,keypress(m),500,359282.09999999404,359281.90000000596,353019.338,353004.90000000596,353036.013,359297.286,8,400,9,,ISIC_5747486.JPG
break,html.Screen,4_58_1,2023-09-08T17:12:43.639Z,,0,,,NaN,,,,,,false,,,,359283.40000000596,359283.09999999404,,359282.3000000119,,359297.286,8,400,,,
break_continue,html.Screen,4_58_2,2023-09-08T17:12:43.639Z,,0,,,NaN,,,,,,false,,,,359283.59999999404,359283.59999999404,,359283.40000000596,,359297.286,8,400,,,
sequence,flow.Sequence,4_58,2023-09-08T17:12:43.640Z,,0,,,6247.586999994062,completion,,,,,false,,,,359283.6999999881,359283.59999999404,353019.338,353004.90000000596,353036.013,359297.286,8,400,,,
trial,html.Screen,4_59_0,2023-09-08T17:12:49.585Z,,0,2,,5932.114000005939,response,ISIC_2822622.JPG,10,ISIC_0060897.JPG,ISIC_2822622.JPG,false,1,keypress(m),500,365229.6999999881,365229.40000000596,359280.933,359283.90000000596,359297.286,365242.052,8,400,10,,ISIC_0060897.JPG
break,html.Screen,4_59_1,2023-09-08T17:12:49.587Z,,0,,,NaN,,,,,,false,,,,365231.3000000119,365231,,365230,,365242.052,8,400,,,
break_continue,html.Screen,4_59_2,2023-09-08T17:12:49.588Z,,0,,,NaN,,,,,,false,,,,365231.6999999881,365231.59999999404,,365231.40000000596,,365242.052,8,400,,,
sequence,flow.Sequence,4_59,2023-09-08T17:12:49.588Z,,0,,,5934.313999994018,completion,,,,,false,,,,365232,365231.59999999404,359280.933,359283.90000000596,359297.286,365242.052,8,400,,,
trial,html.Screen,4_60_0,2023-09-08T17:12:52.428Z,,0,2,,2829.748000011896,response,ISIC_0058508.JPG,5,ISIC_0033947.JPG,ISIC_0033947.JPG,false,0,keypress(z),500,368072.09999999404,368071.8000000119,365226.005,365232,365242.052,368090.306,8,400,11,,ISIC_0058508.JPG
break,html.Screen,4_60_1,2023-09-08T17:12:52.430Z,,0,,,NaN,,,,,,false,,,,368073.8000000119,368073.5,,368072.5,,368090.306,8,400,,,
break_continue,html.Screen,4_60_2,2023-09-08T17:12:52.430Z,,0,,,NaN,,,,,,false,,,,368074.3000000119,368074.1999999881,,368074,,368090.306,8,400,,,
sequence,flow.Sequence,4_60,2023-09-08T17:12:52.430Z,,0,,,2832.147999988054,completion,,,,,false,,,,368074.59999999404,368074.1999999881,365226.005,365232,365242.052,368090.306,8,400,,,
trial,html.Screen,4_61_0,2023-09-08T17:12:56.554Z,,0,2,,4107.393999988097,response,ISIC_0063241.JPG,8,ISIC_0010476.JPG,ISIC_0010476.JPG,false,0,keypress(z),500,372198,372197.6999999881,368057.042,368074.8000000119,368090.306,372202.861,8,400,12,,ISIC_0063241.JPG
break,html.Screen,4_61_1,2023-09-08T17:12:56.555Z,,0,,,NaN,,,,,,false,,,,372199.1999999881,372198.8000000119,,372198.3000000119,,372202.861,8,400,,,
break_continue,html.Screen,4_61_2,2023-09-08T17:12:56.555Z,,0,,,NaN,,,,,,false,,,,372199.59999999404,372199.40000000596,,372199.3000000119,,372202.861,8,400,,,
sequence,flow.Sequence,4_61,2023-09-08T17:12:56.555Z,,0,,,4109.094000005978,completion,,,,,false,,,,372199.6999999881,372199.40000000596,368057.042,368074.6999999881,368090.306,372202.861,8,400,,,
trial,html.Screen,4_62_0,2023-09-08T17:13:00.756Z,,0,2,,4197.238999994064,response,ISIC_0000700.JPG,7,ISIC_1265755.JPG,ISIC_0000700.JPG,false,1,keypress(m),500,376400.5,376400.09999999404,372186.847,372199.6999999881,372202.861,376416.243,8,400,13,,ISIC_1265755.JPG
break,html.Screen,4_62_1,2023-09-08T17:13:00.758Z,,0,,,NaN,,,,,,false,,,,376402.1999999881,376401.90000000596,,376400.8000000119,,376416.243,8,400,,,
break_continue,html.Screen,4_62_2,2023-09-08T17:13:00.759Z,,0,,,NaN,,,,,,false,,,,376402.6999999881,376402.59999999404,,376402.3000000119,,376416.243,8,400,,,
sequence,flow.Sequence,4_62,2023-09-08T17:13:00.759Z,,0,,,4199.738999994064,completion,,,,,false,,,,376402.90000000596,376402.59999999404,372186.847,372199.6999999881,372202.861,376416.243,8,400,,,
trial,html.Screen,4_63_0,2023-09-08T17:13:05.601Z,,0,2,,4828.657000005944,response,ISIC_0061371.JPG,8,ISIC_0034170.JPG,ISIC_0034170.JPG,false,0,keypress(z),500,381245.3000000119,381244.90000000596,376399.716,376403.09999999404,376416.243,381262.236,8,400,14,,ISIC_0061371.JPG
break,html.Screen,4_63_1,2023-09-08T17:13:05.603Z,,0,,,NaN,,,,,,false,,,,381247.40000000596,381247,,381245.90000000596,,381262.236,8,400,,,
break_continue,html.Screen,4_63_2,2023-09-08T17:13:05.604Z,,0,,,NaN,,,,,,false,,,,381248,381247.90000000596,,381247.59999999404,,381262.236,8,400,,,
sequence,flow.Sequence,4_63,2023-09-08T17:13:05.604Z,,0,,,4831.657000005944,completion,,,,,false,,,,381248.1999999881,381247.90000000596,376399.716,376403.09999999404,376416.243,381262.236,8,400,,,
trial,html.Screen,4_64_0,2023-09-08T17:13:10.942Z,,0,2,,5324.064000011946,response,ISIC_0012395.JPG,11,ISIC_8101493.JPG,ISIC_8101493.JPG,false,0,keypress(z),500,386586.5,386586.3000000119,381246.257,381248.40000000596,381262.236,386591.028,8,400,15,,ISIC_0012395.JPG
break,html.Screen,4_64_1,2023-09-08T17:13:10.944Z,,0,,,NaN,,,,,,false,,,,386588.40000000596,386587.1999999881,,386586.6999999881,,386591.028,8,400,,,
break_continue,html.Screen,4_64_2,2023-09-08T17:13:10.945Z,,0,,,NaN,,,,,,false,,,,386588.8000000119,386588.6999999881,,386588.5,,386591.028,8,400,,,
sequence,flow.Sequence,4_64,2023-09-08T17:13:10.945Z,,0,,,5326.463999988104,completion,,,,,false,,,,386588.8000000119,386588.6999999881,381246.257,381248.40000000596,381262.236,386591.028,8,400,,,
trial,html.Screen,4_65_0,2023-09-08T17:13:18.996Z,,0,2,,8048.671999988088,response,ISIC_2050638.JPG,6,ISIC_0025428.JPG,ISIC_2050638.JPG,false,1,keypress(m),500,394640,394639.6999999881,386575.493,386588.90000000596,386591.028,394651.477,8,400,16,,ISIC_0025428.JPG
break,html.Screen,4_65_1,2023-09-08T17:13:18.998Z,,0,,,NaN,,,,,,false,,,,394641.8000000119,394640.90000000596,,394640.1999999881,,394651.477,8,400,,,
break_continue,html.Screen,4_65_2,2023-09-08T17:13:18.998Z,,0,,,NaN,,,,,,false,,,,394642.3000000119,394642.1999999881,,394642,,394651.477,8,400,,,
sequence,flow.Sequence,4_65,2023-09-08T17:13:18.998Z,,0,,,8051.171999988088,completion,,,,,false,,,,394642.3000000119,394642.1999999881,386575.493,386588.90000000596,386591.028,394651.477,8,400,,,
trial,html.Screen,4_66_0,2023-09-08T17:13:26.716Z,,0,2,,7708.0229999999865,response,ISIC_6548307.JPG,13,ISIC_4684860.JPG,ISIC_6548307.JPG,false,1,keypress(m),500,402359.90000000596,402359.5,394634.411,394642.5,394651.477,402394.721,8,400,17,,ISIC_4684860.JPG
break,html.Screen,4_66_1,2023-09-08T17:13:26.718Z,,0,,,NaN,,,,,,false,,,,402361.6999999881,402361.40000000596,,402360.40000000596,,402394.721,8,400,,,
break_continue,html.Screen,4_66_2,2023-09-08T17:13:26.718Z,,0,,,NaN,,,,,,false,,,,402362.3000000119,402362.09999999404,,402362,,402394.721,8,400,,,
sequence,flow.Sequence,4_66,2023-09-08T17:13:26.718Z,,0,,,7710.622999994026,completion,,,,,false,,,,402362.5,402362.09999999404,394634.411,394642.40000000596,394651.477,402394.721,8,400,,,
trial,html.Screen,4_67_0,2023-09-08T17:13:30.836Z,,0,2,,4084.679000005941,response,ISIC_0025215.JPG,5,ISIC_0031377.JPG,ISIC_0031377.JPG,false,0,keypress(z),500,406479.8000000119,406479.40000000596,402383.999,402362.6999999881,402394.721,406491.426,8,400,18,,ISIC_0025215.JPG
break,html.Screen,4_67_1,2023-09-08T17:13:30.837Z,,0,,,NaN,,,,,,false,,,,406481.09999999404,406480.8000000119,,406480,,406491.426,8,400,,,
break_continue,html.Screen,4_67_2,2023-09-08T17:13:30.837Z,,0,,,NaN,,,,,,false,,,,406481.5,406481.3000000119,,406481.1999999881,,406491.426,8,400,,,
sequence,flow.Sequence,4_67,2023-09-08T17:13:30.837Z,,0,,,4086.5790000119014,completion,,,,,false,,,,406481.59999999404,406481.3000000119,402383.999,402362.59999999404,402394.721,406491.426,8,400,,,
trial,html.Screen,4_68_0,2023-09-08T17:13:40.265Z,,0,2,,9417.074000000022,response,ISIC_8796769.JPG,6,ISIC_5721110.JPG,ISIC_8796769.JPG,false,1,keypress(m),500,415908.90000000596,415908.5,406475.438,406481.6999999881,406491.426,415916.947,8,400,19,,ISIC_5721110.JPG
break,html.Screen,4_68_1,2023-09-08T17:13:40.266Z,,0,,,NaN,,,,,,false,,,,415910.1999999881,415910,,415909.1999999881,,415916.947,8,400,,,
break_continue,html.Screen,4_68_2,2023-09-08T17:13:40.266Z,,0,,,NaN,,,,,,false,,,,415910.6999999881,415910.59999999404,,415910.40000000596,,415916.947,8,400,,,
sequence,flow.Sequence,4_68,2023-09-08T17:13:40.267Z,,0,,,9419.173999994062,completion,,,,,false,,,,415910.8000000119,415910.59999999404,406475.438,406481.59999999404,406491.426,415916.947,8,400,,,
trial,html.Screen,4_69_0,2023-09-08T17:13:44.546Z,,0,2,,4272.953000005975,response,ISIC_0062770.JPG,9,ISIC_0027065.JPG,ISIC_0062770.JPG,false,1,keypress(m),500,420190.09999999404,420189.90000000596,415900.868,415910.90000000596,415916.947,420196.76,8,400,20,,ISIC_0027065.JPG
break,html.Screen,4_69_1,2023-09-08T17:13:44.547Z,,0,,,NaN,,,,,,false,,,,420190.8000000119,420190.6999999881,,420190.1999999881,,420196.76,8,400,,,
break_continue,html.Screen,4_69_2,2023-09-08T17:13:44.547Z,,0,,,NaN,,,,,,false,,,,420191.09999999404,420191,,420190.90000000596,,420196.76,8,400,,,
sequence,flow.Sequence,4_69,2023-09-08T17:13:44.547Z,,0,,,4274.053000000014,completion,,,,,false,,,,420191.1999999881,420191,415900.868,415910.90000000596,415916.947,420196.76,8,400,,,
trial,html.Screen,4_70_0,2023-09-08T17:13:52.650Z,,0,2,,8096.540000011912,response,ISIC_0029026.JPG,13,ISIC_1694817.JPG,ISIC_1694817.JPG,false,0,keypress(z),500,428294,428293.3000000119,420180.793,420191.3000000119,420196.76,428306.945,8,400,21,,ISIC_0029026.JPG
break,html.Screen,4_70_1,2023-09-08T17:13:52.652Z,,0,,,NaN,,,,,,false,,,,428296.1999999881,428295.6999999881,,428294.59999999404,,428306.945,8,400,,,
break_continue,html.Screen,4_70_2,2023-09-08T17:13:52.653Z,,0,,,NaN,,,,,,false,,,,428297.1999999881,428296.90000000596,,428296.5,,428306.945,8,400,,,
sequence,flow.Sequence,4_70,2023-09-08T17:13:52.653Z,,0,,,8100.140000005951,completion,,,,,false,,,,428297.59999999404,428296.90000000596,420180.793,420191.3000000119,420196.76,428306.945,8,400,,,
trial,html.Screen,4_71_0,2023-09-08T17:13:56.910Z,,0,2,,4247.355000011914,response,ISIC_4590810.JPG,4,ISIC_7380353.JPG,ISIC_4590810.JPG,false,1,keypress(m),500,432554.40000000596,432554.3000000119,428290.116,428297.8000000119,428306.945,432569.963,8,400,22,,ISIC_7380353.JPG
break,html.Screen,4_71_1,2023-09-08T17:13:56.911Z,,0,,,NaN,,,,,,false,,,,432555.09999999404,432554.90000000596,,432554.6999999881,,432569.963,8,400,,,
break_continue,html.Screen,4_71_2,2023-09-08T17:13:56.911Z,,0,,,NaN,,,,,,false,,,,432555.3000000119,432555.3000000119,,432555.1999999881,,432569.963,8,400,,,
sequence,flow.Sequence,4_71,2023-09-08T17:13:56.911Z,,0,,,4248.355000011914,completion,,,,,false,,,,432555.40000000596,432555.3000000119,428290.116,428297.6999999881,428306.945,432569.963,8,400,,,
trial,html.Screen,4_72_0,2023-09-08T17:14:01.078Z,,0,2,,4152.037000000011,response,ISIC_3928910.JPG,12,ISIC_0033962.JPG,ISIC_0033962.JPG,false,0,keypress(z),500,436722.1999999881,436722,432553.318,432555.5,432569.963,436733.234,8,400,23,,ISIC_3928910.JPG
break,html.Screen,4_72_1,2023-09-08T17:14:01.079Z,,0,,,NaN,,,,,,false,,,,436723.09999999404,436722.90000000596,,436722.40000000596,,436733.234,8,400,,,
break_continue,html.Screen,4_72_2,2023-09-08T17:14:01.079Z,,0,,,NaN,,,,,,false,,,,436723.40000000596,436723.3000000119,,436723.1999999881,,436733.234,8,400,,,
sequence,flow.Sequence,4_72,2023-09-08T17:14:01.079Z,,0,,,4153.337000011932,completion,,,,,false,,,,436723.40000000596,436723.3000000119,432553.318,432555.5,432569.963,436733.234,8,400,,,
trial,html.Screen,4_73_0,2023-09-08T17:14:05.282Z,,0,2,,4192.465999988082,response,ISIC_0031611.JPG,8,ISIC_2092911.JPG,ISIC_0031611.JPG,false,1,keypress(m),500,440926.40000000596,440925.6999999881,436716.618,436723.59999999404,436733.234,440929.792,8,400,24,,ISIC_2092911.JPG
break,html.Screen,4_73_1,2023-09-08T17:14:05.285Z,,0,,,NaN,,,,,,false,,,,440928.90000000596,440928.40000000596,,440926.8000000119,,440929.792,8,400,,,
break_continue,html.Screen,4_73_2,2023-09-08T17:14:05.286Z,,0,,,NaN,,,,,,false,,,,440929.6999999881,440929.40000000596,,440929.1999999881,,440929.792,8,400,,,
sequence,flow.Sequence,4_73,2023-09-08T17:14:05.286Z,,0,,,4196.166000005964,completion,,,,,false,,,,440930.5,440929.40000000596,436716.618,436723.5,436733.234,440929.792,8,400,,,
trial,html.Screen,4_74_0,2023-09-08T17:14:08.994Z,,0,2,,3708.008000011905,response,ISIC_2259861.JPG,10,ISIC_0207349.JPG,ISIC_0207349.JPG,false,0,keypress(z),500,444637.90000000596,444637.8000000119,440913.049,440930.8000000119,440929.792,444643.329,8,400,25,,ISIC_2259861.JPG
break,html.Screen,4_74_1,2023-09-08T17:14:08.995Z,,0,,,NaN,,,,,,false,,,,444639.40000000596,444639.1999999881,,444638.09999999404,,444643.329,8,400,,,
break_continue,html.Screen,4_74_2,2023-09-08T17:14:08.995Z,,0,,,NaN,,,,,,false,,,,444639.59999999404,444639.5,,444639.5,,444643.329,8,400,,,
sequence,flow.Sequence,4_74,2023-09-08T17:14:08.996Z,,0,,,3709.707999999984,completion,,,,,false,,,,444639.6999999881,444639.5,440913.049,440930.6999999881,440929.792,444643.329,8,400,,,
trial,html.Screen,4_75_0,2023-09-08T17:14:11.995Z,,0,2,,2995.471000011894,response,ISIC_5388485.JPG,5,ISIC_0058909.JPG,ISIC_5388485.JPG,false,1,keypress(m),500,447639.5,447638.8000000119,444626.672,444639.8000000119,444643.329,447640.959,8,400,26,,ISIC_0058909.JPG
break,html.Screen,4_75_1,2023-09-08T17:14:11.996Z,,0,,,NaN,,,,,,false,,,,447640.09999999404,447639.90000000596,,447639.59999999404,,447640.959,8,400,,,
break_continue,html.Screen,4_75_2,2023-09-08T17:14:11.996Z,,0,,,NaN,,,,,,false,,,,447640.40000000596,447640.1999999881,,447640.1999999881,,447640.959,8,400,,,
sequence,flow.Sequence,4_75,2023-09-08T17:14:11.996Z,,0,,,2996.870999988052,completion,,,,,false,,,,447640.40000000596,447640.1999999881,444626.672,444639.6999999881,444643.329,447640.959,8,400,,,
trial,html.Screen,4_76_0,2023-09-08T17:14:19.619Z,,0,2,,7622.3410000119475,response,ISIC_3779424.JPG,5,ISIC_9776851.JPG,ISIC_9776851.JPG,false,0,keypress(z),500,455263.40000000596,455263.3000000119,447624.253,447640.5,447640.959,455267.939,8,400,27,,ISIC_3779424.JPG
break,html.Screen,4_76_1,2023-09-08T17:14:19.620Z,,0,,,NaN,,,,,,false,,,,455264.1999999881,455264,,455263.59999999404,,455267.939,8,400,,,
break_continue,html.Screen,4_76_2,2023-09-08T17:14:19.620Z,,0,,,NaN,,,,,,false,,,,455264.40000000596,455264.3000000119,,455264.3000000119,,455267.939,8,400,,,
sequence,flow.Sequence,4_76,2023-09-08T17:14:19.620Z,,0,,,7623.3410000119475,completion,,,,,false,,,,455264.5,455264.3000000119,447624.253,447640.5,447640.959,455267.939,8,400,,,
trial,html.Screen,4_77_0,2023-09-08T17:14:28.157Z,,0,2,,8533.461000005947,response,ISIC_5258657.JPG,11,ISIC_1976571.JPG,ISIC_1976571.JPG,false,0,keypress(z),500,463801.59999999404,463801.40000000596,455251.396,455264.59999999404,455267.939,463810.971,8,400,28,,ISIC_5258657.JPG
break,html.Screen,4_77_1,2023-09-08T17:14:28.158Z,,0,,,NaN,,,,,,false,,,,463802.40000000596,463802.1999999881,,463801.8000000119,,463810.971,8,400,,,
break_continue,html.Screen,4_77_2,2023-09-08T17:14:28.158Z,,0,,,NaN,,,,,,false,,,,463802.59999999404,463802.59999999404,,463802.5,,463810.971,8,400,,,
sequence,flow.Sequence,4_77,2023-09-08T17:14:28.159Z,,0,,,8534.660999994026,completion,,,,,false,,,,463802.6999999881,463802.59999999404,455251.396,455264.59999999404,455267.939,463810.971,8,400,,,
trial,html.Screen,4_78_0,2023-09-08T17:14:31.720Z,,0,2,,3552.8290000119014,response,ISIC_2399613.JPG,8,ISIC_0071733.JPG,ISIC_0071733.JPG,false,0,keypress(z),500,467364,467363.8000000119,463794.251,463802.8000000119,463810.971,467374.683,8,400,29,,ISIC_2399613.JPG
break,html.Screen,4_78_1,2023-09-08T17:14:31.720Z,,0,,,NaN,,,,,,false,,,,467364.5,467364.5,,467364.09999999404,,467374.683,8,400,,,
break_continue,html.Screen,4_78_2,2023-09-08T17:14:31.721Z,,0,,,NaN,,,,,,false,,,,467364.59999999404,467364.59999999404,,467364.59999999404,,467374.683,8,400,,,
sequence,flow.Sequence,4_78,2023-09-08T17:14:31.721Z,,0,,,3553.62899999402,completion,,,,,false,,,,467364.6999999881,467364.59999999404,463794.251,463802.6999999881,463810.971,467374.683,8,400,,,
trial,html.Screen,4_79_0,2023-09-08T17:14:34.612Z,,0,2,,2881.7170000059414,response,ISIC_0012222.JPG,11,ISIC_0067412.JPG,ISIC_0012222.JPG,false,1,keypress(m),500,470256.59999999404,470256.40000000596,467358,467364.8000000119,467374.683,470272.291,8,400,30,,ISIC_0067412.JPG
break,html.Screen,4_79_1,2023-09-08T17:14:34.613Z,,0,,,NaN,,,,,,false,,,,470257.1999999881,470257,,470256.6999999881,,470272.291,8,400,,,
break_continue,html.Screen,4_79_2,2023-09-08T17:14:34.613Z,,0,,,NaN,,,,,,false,,,,470257.40000000596,470257.40000000596,,470257.3000000119,,470272.291,8,400,,,
sequence,flow.Sequence,4_79,2023-09-08T17:14:34.613Z,,0,,,2882.7170000059414,completion,,,,,false,,,,470257.5,470257.40000000596,467358,467364.8000000119,467374.683,470272.291,8,400,,,
trial,html.Screen,4_80_0,2023-09-08T17:14:38.314Z,,0,2,,3685.4089999880525,response,ISIC_2412113.JPG,9,ISIC_0071257.JPG,ISIC_0071257.JPG,false,0,keypress(z),500,473957.90000000596,473957.6999999881,470255.704,470257.59999999404,470272.291,473969.247,8,400,31,,ISIC_2412113.JPG
break,html.Screen,4_80_1,2023-09-08T17:14:38.314Z,,0,,,NaN,,,,,,false,,,,473958.59999999404,473958.5,,473958,,473969.247,8,400,,,
break_continue,html.Screen,4_80_2,2023-09-08T17:14:38.315Z,,0,,,NaN,,,,,,false,,,,473958.90000000596,473958.8000000119,,473958.6999999881,,473969.247,8,400,,,
sequence,flow.Sequence,4_80,2023-09-08T17:14:38.315Z,,0,,,3686.5090000118944,completion,,,,,false,,,,473959,473958.8000000119,470255.704,470257.59999999404,470272.291,473969.247,8,400,,,
trial,html.Screen,4_81_0,2023-09-08T17:14:42.088Z,,0,2,,3763.053000011947,response,ISIC_0026802.JPG,9,ISIC_7084553.JPG,ISIC_7084553.JPG,false,0,keypress(z),500,477732.5,477732.3000000119,473952.644,473959.09999999404,473969.247,477749.535,8,400,32,,ISIC_0026802.JPG
break,html.Screen,4_81_1,2023-09-08T17:14:42.089Z,,0,,,NaN,,,,,,false,,,,477733.3000000119,477733.1999999881,,477732.6999999881,,477749.535,8,400,,,
break_continue,html.Screen,4_81_2,2023-09-08T17:14:42.089Z,,0,,,NaN,,,,,,false,,,,477733.5,477733.5,,477733.40000000596,,477749.535,8,400,,,
sequence,flow.Sequence,4_81,2023-09-08T17:14:42.089Z,,0,,,3764.253000000026,completion,,,,,false,,,,477733.6999999881,477733.5,473952.644,473959.09999999404,473969.247,477749.535,8,400,,,
trial,html.Screen,4_82_0,2023-09-08T17:14:49.766Z,,0,2,,7660.564999994065,response,ISIC_0033192.JPG,8,ISIC_0062536.JPG,ISIC_0033192.JPG,false,1,keypress(m),500,485410.40000000596,485410.09999999404,477716.373,477733.6999999881,477749.535,485426.542,8,400,33,,ISIC_0062536.JPG
break,html.Screen,4_82_1,2023-09-08T17:14:49.767Z,,0,,,NaN,,,,,,false,,,,485411.09999999404,485411,,485410.5,,485426.542,8,400,,,
break_continue,html.Screen,4_82_2,2023-09-08T17:14:49.767Z,,0,,,NaN,,,,,,false,,,,485411.59999999404,485411.40000000596,,485411.3000000119,,485426.542,8,400,,,
sequence,flow.Sequence,4_82,2023-09-08T17:14:49.767Z,,0,,,7661.865000005986,completion,,,,,false,,,,485411.6999999881,485411.40000000596,477716.373,477733.6999999881,477749.535,485426.542,8,400,,,
trial,html.Screen,4_83_0,2023-09-08T17:14:54.501Z,,0,2,,4718.657999988063,response,ISIC_0065283.JPG,9,ISIC_8048668.JPG,ISIC_0065283.JPG,false,1,keypress(m),500,490145.3000000119,490145.1999999881,485409.832,485411.6999999881,485426.542,490156.044,8,400,34,,ISIC_8048668.JPG
break,html.Screen,4_83_1,2023-09-08T17:14:54.502Z,,0,,,NaN,,,,,,false,,,,490145.90000000596,490145.6999999881,,490145.5,,490156.044,8,400,,,
break_continue,html.Screen,4_83_2,2023-09-08T17:14:54.502Z,,0,,,NaN,,,,,,false,,,,490146.09999999404,490146.09999999404,,490146,,490156.044,8,400,,,
sequence,flow.Sequence,4_83,2023-09-08T17:14:54.502Z,,0,,,4719.557999994024,completion,,,,,false,,,,490146.3000000119,490146.09999999404,485409.832,485411.6999999881,485426.542,490156.044,8,400,,,
trial,html.Screen,4_84_0,2023-09-08T17:15:00.324Z,,0,2,,5811.7560000119265,response,ISIC_7244604.JPG,7,ISIC_0011446.JPG,ISIC_0011446.JPG,false,0,keypress(z),500,495968.09999999404,495967.8000000119,490139.347,490146.40000000596,490156.044,495984.502,8,400,35,,ISIC_7244604.JPG
break,html.Screen,4_84_1,2023-09-08T17:15:00.325Z,,0,,,NaN,,,,,,false,,,,495968.59999999404,495968.5,,495968.1999999881,,495984.502,8,400,,,
break_continue,html.Screen,4_84_2,2023-09-08T17:15:00.325Z,,0,,,NaN,,,,,,false,,,,495969,495968.90000000596,,495968.6999999881,,495984.502,8,400,,,
sequence,flow.Sequence,4_84,2023-09-08T17:15:00.325Z,,0,,,5812.856000005966,completion,,,,,false,,,,495969,495968.90000000596,490139.347,490146.3000000119,490156.044,495984.502,8,400,,,
trial,html.Screen,4_85_0,2023-09-08T17:15:09.279Z,,0,2,,8938.097999994061,response,ISIC_5966190.JPG,12,ISIC_0032036.JPG,ISIC_5966190.JPG,false,1,keypress(m),500,504922.8000000119,504922.59999999404,495968.115,495969.09999999404,495984.502,504927.169,8,400,36,,ISIC_0032036.JPG
break,html.Screen,4_85_1,2023-09-08T17:15:09.279Z,,0,,,NaN,,,,,,false,,,,504923.5,504923.3000000119,,504922.90000000596,,504927.169,8,400,,,
break_continue,html.Screen,4_85_2,2023-09-08T17:15:09.280Z,,0,,,NaN,,,,,,false,,,,504923.8000000119,504923.6999999881,,504923.59999999404,,504927.169,8,400,,,
sequence,flow.Sequence,4_85,2023-09-08T17:15:09.280Z,,0,,,8939.1979999881,completion,,,,,false,,,,504924.5,504923.6999999881,495968.115,495969,495984.502,504927.169,8,400,,,
trial,html.Screen,4_86_0,2023-09-08T17:15:13.930Z,,0,2,,4646.331000000006,response,ISIC_5971574.JPG,4,ISIC_0010749.JPG,ISIC_5971574.JPG,false,1,keypress(m),500,509573.8000000119,509573.5,504910.637,504924.59999999404,504927.169,509590.035,8,400,37,,ISIC_0010749.JPG
break,html.Screen,4_86_1,2023-09-08T17:15:13.930Z,,0,,,NaN,,,,,,false,,,,509574.40000000596,509574.3000000119,,509573.90000000596,,509590.035,8,400,,,
break_continue,html.Screen,4_86_2,2023-09-08T17:15:13.931Z,,0,,,NaN,,,,,,false,,,,509574.6999999881,509574.59999999404,,509574.5,,509590.035,8,400,,,
sequence,flow.Sequence,4_86,2023-09-08T17:15:13.931Z,,0,,,4647.430999994045,completion,,,,,false,,,,509574.8000000119,509574.59999999404,504910.637,504924.59999999404,504927.169,509590.035,8,400,,,
trial,html.Screen,4_87_0,2023-09-08T17:15:18.607Z,,0,2,,4660.7650000119465,response,ISIC_1074939.JPG,11,ISIC_0033568.JPG,ISIC_1074939.JPG,false,1,keypress(m),500,514251,514250.8000000119,509573.343,509574.90000000596,509590.035,514252.859,8,400,38,,ISIC_0033568.JPG
break,html.Screen,4_87_1,2023-09-08T17:15:18.608Z,,0,,,NaN,,,,,,false,,,,514252.09999999404,514251.90000000596,,514251.1999999881,,514252.859,8,400,,,
break_continue,html.Screen,4_87_2,2023-09-08T17:15:18.608Z,,0,,,NaN,,,,,,false,,,,514252.40000000596,514252.3000000119,,514252.1999999881,,514252.859,8,400,,,
sequence,flow.Sequence,4_87,2023-09-08T17:15:18.608Z,,0,,,4662.2650000119465,completion,,,,,false,,,,514252.5,514252.3000000119,509573.343,509574.90000000596,509590.035,514252.859,8,400,,,
trial,html.Screen,4_88_0,2023-09-08T17:15:23.127Z,,0,2,,4518.441000011924,response,ISIC_0026812.JPG,11,ISIC_9684649.JPG,ISIC_9684649.JPG,false,0,keypress(z),500,518771.6999999881,518771.3000000119,514236.894,514252.59999999404,514252.859,518782.476,8,400,39,,ISIC_0026812.JPG
break,html.Screen,4_88_1,2023-09-08T17:15:23.129Z,,0,,,NaN,,,,,,false,,,,518772.90000000596,518772.6999999881,,518771.90000000596,,518782.476,8,400,,,
break_continue,html.Screen,4_88_2,2023-09-08T17:15:23.129Z,,0,,,NaN,,,,,,false,,,,518773.3000000119,518773.1999999881,,518773,,518782.476,8,400,,,
sequence,flow.Sequence,4_88,2023-09-08T17:15:23.129Z,,0,,,4520.340999988082,completion,,,,,false,,,,518773.40000000596,518773.1999999881,514236.894,514252.59999999404,514252.859,518782.476,8,400,,,
trial,html.Screen,4_89_0,2023-09-08T17:15:26.226Z,,0,2,,3086.8240000118967,response,ISIC_0056788.JPG,8,ISIC_9905633.JPG,ISIC_9905633.JPG,false,0,keypress(z),500,521870,521869.3000000119,518766.254,518773.5,518782.476,521880.389,8,400,40,,ISIC_0056788.JPG
break,html.Screen,4_89_1,2023-09-08T17:15:26.227Z,,0,,,NaN,,,,,,false,,,,521871.1999999881,521871,,521870.1999999881,,521880.389,8,400,,,
break_continue,html.Screen,4_89_2,2023-09-08T17:15:26.227Z,,0,,,NaN,,,,,,false,,,,521871.59999999404,521871.40000000596,,521871.40000000596,,521880.389,8,400,,,
sequence,flow.Sequence,4_89,2023-09-08T17:15:26.228Z,,0,,,3088.9240000059363,completion,,,,,false,,,,521871.59999999404,521871.40000000596,518766.254,518773.5,518782.476,521880.389,8,400,,,
trial,html.Screen,4_90_0,2023-09-08T17:15:35.385Z,,0,2,,9148.210999994015,response,ISIC_7840728.JPG,11,ISIC_0013840.JPG,ISIC_7840728.JPG,false,1,keypress(m),500,531028.900000006,531028.599999994,521863.678,521871.6999999881,521880.389,531039.143,8,400,41,,ISIC_0013840.JPG
break,html.Screen,4_90_1,2023-09-08T17:15:35.386Z,,0,,,NaN,,,,,,false,,,,531030,531029.6999999881,,531029.1999999881,,531039.143,8,400,,,
break_continue,html.Screen,4_90_2,2023-09-08T17:15:35.386Z,,0,,,NaN,,,,,,false,,,,531030.3000000119,531030.1999999881,,531030.099999994,,531039.143,8,400,,,
sequence,flow.Sequence,4_90,2023-09-08T17:15:35.387Z,,0,,,9149.810999988054,completion,,,,,false,,,,531031.1999999881,531030.1999999881,521863.678,521871.6999999881,521880.389,531039.143,8,400,,,
trial,html.Screen,4_91_0,2023-09-08T17:15:45.574Z,,0,2,,10178.85699999996,response,ISIC_1054090.JPG,8,ISIC_5580000.JPG,ISIC_1054090.JPG,false,1,keypress(m),500,541218.400000006,541218,531022.742,531031.3000000119,531039.143,541230.709,8,400,42,,ISIC_5580000.JPG
break,html.Screen,4_91_1,2023-09-08T17:15:45.576Z,,0,,,NaN,,,,,,false,,,,541219.900000006,541219.599999994,,541218.599999994,,541230.709,8,400,,,
break_continue,html.Screen,4_91_2,2023-09-08T17:15:45.576Z,,0,,,NaN,,,,,,false,,,,541220.3000000119,541220.1999999881,,541220.099999994,,541230.709,8,400,,,
sequence,flow.Sequence,4_91,2023-09-08T17:15:45.576Z,,0,,,10181.056999988039,completion,,,,,false,,,,541220.5,541220.1999999881,531022.742,531031.1999999881,531039.143,541230.709,8,400,,,
trial,html.Screen,4_92_0,2023-09-08T17:15:48.819Z,,0,2,,3232.390999994008,response,ISIC_0073136.JPG,12,ISIC_4750271.JPG,ISIC_4750271.JPG,false,0,keypress(z),500,544463.5,544463.099999994,541214.744,541220.599999994,541230.709,544478.117,8,400,43,,ISIC_0073136.JPG
break,html.Screen,4_92_1,2023-09-08T17:15:48.821Z,,0,,,NaN,,,,,,false,,,,544464.6999999881,544464.099999994,,544463.8000000119,,544478.117,8,400,,,
break_continue,html.Screen,4_92_2,2023-09-08T17:15:48.821Z,,0,,,NaN,,,,,,false,,,,544465.099999994,544465,,544464.8000000119,,544478.117,8,400,,,
sequence,flow.Sequence,4_92,2023-09-08T17:15:48.821Z,,0,,,3234.2909999999683,completion,,,,,false,,,,544465.3000000119,544465,541214.744,541220.5,541230.709,544478.117,8,400,,,
trial,html.Screen,4_93_0,2023-09-08T17:15:52.608Z,,0,2,,3773.6830000119517,response,ISIC_7357474.JPG,11,ISIC_0011698.JPG,ISIC_7357474.JPG,false,1,keypress(m),500,548252.099999994,548251.8000000119,544461.882,544465.400000006,544478.117,548258.628,8,400,44,,ISIC_0011698.JPG
break,html.Screen,4_93_1,2023-09-08T17:15:52.609Z,,0,,,NaN,,,,,,false,,,,548252.900000006,548252.6999999881,,548252.1999999881,,548258.628,8,400,,,
break_continue,html.Screen,4_93_2,2023-09-08T17:15:52.609Z,,0,,,NaN,,,,,,false,,,,548253.099999994,548253.099999994,,548253,,548258.628,8,400,,,
sequence,flow.Sequence,4_93,2023-09-08T17:15:52.609Z,,0,,,3774.9829999940703,completion,,,,,false,,,,548253.5,548253.099999994,544461.882,544465.3000000119,544478.117,548258.628,8,400,,,
trial,html.Screen,4_94_0,2023-09-08T17:16:00.426Z,,0,2,,7810.672000011895,response,ISIC_5568525.JPG,7,ISIC_9080774.JPG,ISIC_5568525.JPG,false,1,keypress(m),500,556070.400000006,556069.3000000119,548241.561,548254.099999994,548258.628,556085.175,8,400,45,,ISIC_9080774.JPG
break,html.Screen,4_94_1,2023-09-08T17:16:00.429Z,,0,,,NaN,,,,,,false,,,,556072.900000006,556072.6999999881,,556070.8000000119,,556085.175,8,400,,,
break_continue,html.Screen,4_94_2,2023-09-08T17:16:00.429Z,,0,,,NaN,,,,,,false,,,,556073.3000000119,556073.1999999881,,556073.099999994,,556085.175,8,400,,,
sequence,flow.Sequence,4_94,2023-09-08T17:16:00.429Z,,0,,,7814.571999988053,completion,,,,,false,,,,556073.400000006,556073.1999999881,548241.561,548254,548258.628,556085.175,8,400,,,
trial,html.Screen,4_95_0,2023-09-08T17:16:04.741Z,,0,2,,4299.625000011874,response,ISIC_0010440.JPG,8,ISIC_0024244.JPG,ISIC_0010440.JPG,false,1,keypress(m),500,560385.3000000119,560384.8000000119,556069.178,556073.599999994,556085.175,560398.293,8,400,46,,ISIC_0024244.JPG
break,html.Screen,4_95_1,2023-09-08T17:16:04.743Z,,0,,,NaN,,,,,,false,,,,560387.5,560387.099999994,,560385.6999999881,,560398.293,8,400,,,
break_continue,html.Screen,4_95_2,2023-09-08T17:16:04.744Z,,0,,,NaN,,,,,,false,,,,560388.099999994,560387.900000006,,560387.6999999881,,560398.293,8,400,,,
sequence,flow.Sequence,4_95,2023-09-08T17:16:04.744Z,,0,,,4302.725000005914,completion,,,,,false,,,,560388.3000000119,560387.900000006,556069.178,556073.5,556085.175,560398.293,8,400,,,
trial,html.Screen,4_96_0,2023-09-08T17:16:08.106Z,,0,2,,3351.1070000060135,response,ISIC_2457859.JPG,12,ISIC_0059181.JPG,ISIC_2457859.JPG,false,1,keypress(m),500,563749.599999994,563749.400000006,560381.665,560388.599999994,560398.293,563762.561,8,400,47,,ISIC_0059181.JPG
break,html.Screen,4_96_1,2023-09-08T17:16:08.107Z,,0,,,NaN,,,,,,false,,,,563750.599999994,563750.5,,563749.900000006,,563762.561,8,400,,,
break_continue,html.Screen,4_96_2,2023-09-08T17:16:08.107Z,,0,,,NaN,,,,,,false,,,,563750.900000006,563750.8000000119,,563750.6999999881,,563762.561,8,400,,,
sequence,flow.Sequence,4_96,2023-09-08T17:16:08.107Z,,0,,,3352.507000011974,completion,,,,,false,,,,563751.099999994,563750.8000000119,560381.665,560388.5,560398.293,563762.561,8,400,,,
trial,html.Screen,4_97_0,2023-09-08T17:16:17.535Z,,0,2,,9416.638999988092,response,ISIC_6754835.JPG,7,ISIC_5611515.JPG,ISIC_5611515.JPG,false,0,keypress(z),500,573179.5,573179.1999999881,563746.328,563751.099999994,563762.561,573187.827,8,400,48,,ISIC_6754835.JPG
break,html.Screen,4_97_1,2023-09-08T17:16:17.537Z,,0,,,NaN,,,,,,false,,,,573181.1999999881,573180.900000006,,573179.6999999881,,573187.827,8,400,,,
break_continue,html.Screen,4_97_2,2023-09-08T17:16:17.537Z,,0,,,NaN,,,,,,false,,,,573181.5,573181.400000006,,573181.3000000119,,573187.827,8,400,,,
sequence,flow.Sequence,4_97,2023-09-08T17:16:17.538Z,,0,,,9418.839000005974,completion,,,,,false,,,,573181.599999994,573181.400000006,563746.328,563751.099999994,563762.561,573187.827,8,400,,,
trial,html.Screen,4_98_0,2023-09-08T17:16:25.338Z,,0,2,,7795.272999993991,response,ISIC_0000420.JPG,10,ISIC_0011697.JPG,ISIC_0000420.JPG,false,1,keypress(m),500,580983.3000000119,580983.099999994,573172.033,573181.6999999881,573187.827,580998.677,8,400,49,,ISIC_0011697.JPG
break,html.Screen,4_98_1,2023-09-08T17:16:25.339Z,,0,,,NaN,,,,,,false,,,,580984.5,580984.099999994,,580983.599999994,,580998.677,8,400,,,
break_continue,html.Screen,4_98_2,2023-09-08T17:16:25.340Z,,0,,,NaN,,,,,,false,,,,580985.5,580984.8000000119,,580984.599999994,,580998.677,8,400,,,
sequence,flow.Sequence,4_98,2023-09-08T17:16:25.341Z,,0,,,7796.9730000118725,completion,,,,,false,,,,580985.599999994,580984.8000000119,573172.033,573181.6999999881,573187.827,580998.677,8,400,,,
trial,html.Screen,4_99_0,2023-09-08T17:16:32.674Z,,0,2,,7319.123000011896,response,ISIC_0034237.JPG,6,ISIC_2245709.JPG,ISIC_2245709.JPG,false,0,keypress(z),500,588318.8000000119,588317.8000000119,580981.526,580985.6999999881,580998.677,588325.346,8,400,50,,ISIC_0034237.JPG
break,html.Screen,4_99_1,2023-09-08T17:16:42.657Z,,0,,,9992.140000000014,timeout,,,,,false,,,,598302.1999999881,598300.75,588309.463,588319.099999994,588325.346,598317.486,8,400,,,
break_continue,html.Screen,4_99_2,2023-09-08T17:16:44.139Z,,0,,,1444.914000005927,response,,,,,false,continue,keypress(Space),,599783.8000000119,599762.400000006,598300.75,598304,598317.486,599799.619,8,400,,,
sequence,flow.Sequence,4_99,2023-09-08T17:16:44.139Z,,0,,,18763.723000005935,completion,,,,,false,,,,599783.900000006,599762.400000006,580981.526,580985.6999999881,580998.677,599799.619,8,400,,,
trial,html.Screen,4_100_0,2023-09-08T17:16:48.910Z,,0,3,,4755.381000000052,response,ISIC_0013777.JPG,8,ISIC_7520843.JPG,ISIC_0013777.JPG,false,1,keypress(m),500,604555.3000000119,604555,599766.833,599783.900000006,599799.619,604562.029,8,400,1,,ISIC_7520843.JPG
break,html.Screen,4_100_1,2023-09-08T17:16:48.911Z,,0,,,NaN,,,,,,false,,,,604556.1999999881,604555.900000006,,604555.400000006,,604562.029,8,400,,,
break_continue,html.Screen,4_100_2,2023-09-08T17:16:48.911Z,,0,,,NaN,,,,,,false,,,,604556.5,604556.400000006,,604556.1999999881,,604562.029,8,400,,,
sequence,flow.Sequence,4_100,2023-09-08T17:16:48.911Z,,0,,,4756.781000006013,completion,,,,,false,,,,604556.5,604556.400000006,599766.833,599783.900000006,599799.619,604562.029,8,400,,,
trial,html.Screen,4_101_0,2023-09-08T17:16:52.986Z,,0,3,,4068.37100000598,response,ISIC_5330187.JPG,8,ISIC_0033752.JPG,ISIC_5330187.JPG,false,1,keypress(m),500,608630.6999999881,608630.400000006,604545.743,604556.599999994,604562.029,608642.124,8,400,2,,ISIC_0033752.JPG
break,html.Screen,4_101_1,2023-09-08T17:16:52.988Z,,0,,,NaN,,,,,,false,,,,608632.8000000119,608632.599999994,,608631.8000000119,,608642.124,8,400,,,
break_continue,html.Screen,4_101_2,2023-09-08T17:16:52.988Z,,0,,,NaN,,,,,,false,,,,608633.1999999881,608633,,608633,,608642.124,8,400,,,
sequence,flow.Sequence,4_101,2023-09-08T17:16:52.988Z,,0,,,4070.9710000000196,completion,,,,,false,,,,608633.3000000119,608633,604545.743,604556.599999994,604562.029,608642.124,8,400,,,
trial,html.Screen,4_102_0,2023-09-08T17:16:56.466Z,,0,3,,3468.276000006008,response,ISIC_0000569.JPG,5,ISIC_2007034.JPG,ISIC_0000569.JPG,false,1,keypress(m),500,612110.599999994,612110.400000006,608625.558,608633.400000006,608642.124,612122.62,8,400,3,,ISIC_2007034.JPG
break,html.Screen,4_102_1,2023-09-08T17:16:56.467Z,,0,,,NaN,,,,,,false,,,,612111.599999994,612111.5,,612110.8000000119,,612122.62,8,400,,,
break_continue,html.Screen,4_102_2,2023-09-08T17:16:56.467Z,,0,,,NaN,,,,,,false,,,,612111.900000006,612111.900000006,,612111.6999999881,,612122.62,8,400,,,
sequence,flow.Sequence,4_102,2023-09-08T17:16:56.467Z,,0,,,3469.776000006008,completion,,,,,false,,,,612112,612111.900000006,608625.558,608633.400000006,608642.124,612122.62,8,400,,,
trial,html.Screen,4_103_0,2023-09-08T17:17:02.425Z,,0,3,,5947.680000011926,response,ISIC_8015541.JPG,14,ISIC_0011641.JPG,ISIC_8015541.JPG,false,1,keypress(m),500,618070.5,618070.3000000119,612106.034,612113.099999994,612122.62,618084.234,8,400,4,,ISIC_0011641.JPG
break,html.Screen,4_103_1,2023-09-08T17:17:02.426Z,,0,,,NaN,,,,,,false,,,,618071.1999999881,618071,,618070.8000000119,,618084.234,8,400,,,
break_continue,html.Screen,4_103_2,2023-09-08T17:17:02.426Z,,0,,,NaN,,,,,,false,,,,618071.400000006,618071.3000000119,,618071.3000000119,,618084.234,8,400,,,
sequence,flow.Sequence,4_103,2023-09-08T17:17:02.426Z,,0,,,5948.680000011926,completion,,,,,false,,,,618071.5,618071.3000000119,612106.034,612113.099999994,612122.62,618084.234,8,400,,,
trial,html.Screen,4_104_0,2023-09-08T17:17:13.938Z,,0,3,,11523.911999999895,timeout,ISIC_0064044.JPG,11,ISIC_3123711.JPG,,false,,,500,629583.099999994,629582.8000000119,618068.364,618071.5,618084.234,629608.146,8,400,5,,
break,html.Screen,4_104_1,2023-09-08T17:17:13.939Z,,0,,,NaN,,,,,,false,,,,629584.5,629584.1999999881,,629583.8000000119,,629608.146,8,400,,,
break_continue,html.Screen,4_104_2,2023-09-08T17:17:13.940Z,,0,,,NaN,,,,,,false,,,,629584.900000006,629584.6999999881,,629584.599999994,,629608.146,8,400,,,
sequence,flow.Sequence,4_104,2023-09-08T17:17:13.940Z,,0,,,11500.465999988024,completion,,,,,false,,,,629585.099999994,629584.6999999881,618068.364,618071.5,618084.234,629608.146,8,400,,,
trial,html.Screen,4_105_0,2023-09-08T17:17:19.785Z,,0,3,,5821.45399999409,response,ISIC_6985114.JPG,6,ISIC_0030656.JPG,ISIC_6985114.JPG,false,1,keypress(m),500,635429.900000006,635429.599999994,629591.906,629585.099999994,629608.146,635436.651,8,400,6,,ISIC_0030656.JPG
break,html.Screen,4_105_1,2023-09-08T17:17:19.786Z,,0,,,NaN,,,,,,false,,,,635431.1999999881,635430.900000006,,635430.1999999881,,635436.651,8,400,,,
break_continue,html.Screen,4_105_2,2023-09-08T17:17:19.787Z,,0,,,NaN,,,,,,false,,,,635432.400000006,635432.1999999881,,635432.099999994,,635436.651,8,400,,,
sequence,flow.Sequence,4_105,2023-09-08T17:17:19.787Z,,0,,,5824.053999988129,completion,,,,,false,,,,635432.5,635432.1999999881,629591.906,629585.099999994,629608.146,635436.651,8,400,,,
trial,html.Screen,4_106_0,2023-09-08T17:17:22.855Z,,0,3,,3061.749000006006,response,ISIC_0010791.JPG,11,ISIC_0029993.JPG,ISIC_0029993.JPG,false,0,keypress(z),500,638498.599999994,638498.400000006,635420.492,635432.599999994,635436.651,638500.822,8,400,7,,ISIC_0010791.JPG
break,html.Screen,4_106_1,2023-09-08T17:17:22.856Z,,0,,,NaN,,,,,,false,,,,638500.5,638500.1999999881,,638498.8000000119,,638500.822,8,400,,,
break_continue,html.Screen,4_106_2,2023-09-08T17:17:22.857Z,,0,,,NaN,,,,,,false,,,,638500.8000000119,638500.6999999881,,638500.5,,638500.822,8,400,,,
sequence,flow.Sequence,4_106,2023-09-08T17:17:22.857Z,,0,,,3064.0489999881247,completion,,,,,false,,,,638501.099999994,638500.6999999881,635420.492,635432.5,635436.651,638500.822,8,400,,,
trial,html.Screen,4_107_0,2023-09-08T17:17:26.150Z,,0,3,,3292.2779999939958,response,ISIC_5381712.JPG,7,ISIC_0001140.JPG,ISIC_0001140.JPG,false,0,keypress(z),500,641794,641793.099999994,638484.8,638501.1999999881,638500.822,641798.118,8,400,8,,ISIC_5381712.JPG
break,html.Screen,4_107_1,2023-09-08T17:17:26.152Z,,0,,,NaN,,,,,,false,,,,641795.6999999881,641795.400000006,,641794.5,,641798.118,8,400,,,
break_continue,html.Screen,4_107_2,2023-09-08T17:17:26.153Z,,0,,,NaN,,,,,,false,,,,641797,641796.8000000119,,641796,,641798.118,8,400,,,
sequence,flow.Sequence,4_107,2023-09-08T17:17:26.153Z,,0,,,3295.978000011877,completion,,,,,false,,,,641797.099999994,641796.8000000119,638484.8,638501.1999999881,638500.822,641798.118,8,400,,,
trial,html.Screen,4_108_0,2023-09-08T17:17:29.120Z,,0,3,,2965.9819999940228,response,ISIC_9303594.JPG,5,ISIC_0064427.JPG,ISIC_9303594.JPG,false,1,keypress(m),500,644764.3000000119,644764.099999994,641781.577,641797.1999999881,641798.118,644779.69,8,400,9,,ISIC_0064427.JPG
break,html.Screen,4_108_1,2023-09-08T17:17:29.121Z,,0,,,NaN,,,,,,false,,,,644765.400000006,644765,,644764.5,,644779.69,8,400,,,
break_continue,html.Screen,4_108_2,2023-09-08T17:17:29.121Z,,0,,,NaN,,,,,,false,,,,644765.599999994,644765.5,,644765.400000006,,644779.69,8,400,,,
sequence,flow.Sequence,4_108,2023-09-08T17:17:29.123Z,,0,,,2967.3819999999832,completion,,,,,false,,,,644766.900000006,644765.5,641781.577,641797.1999999881,641798.118,644779.69,8,400,,,
trial,html.Screen,4_109_0,2023-09-08T17:17:40.627Z,,0,3,,11523.19000000006,timeout,ISIC_0011857.JPG,7,ISIC_0062325.JPG,,false,,,500,656271.3000000119,656270.6999999881,644762.725,644767,644779.69,656302.88,8,400,10,,
break,html.Screen,4_109_1,2023-09-08T17:17:40.628Z,,0,,,NaN,,,,,,false,,,,656272.099999994,656271.900000006,,656271.5,,656302.88,8,400,,,
break_continue,html.Screen,4_109_2,2023-09-08T17:17:40.628Z,,0,,,NaN,,,,,,false,,,,656272.400000006,656272.400000006,,656272.1999999881,,656302.88,8,400,,,
sequence,flow.Sequence,4_109,2023-09-08T17:17:40.628Z,,0,,,11492.710000006016,completion,,,,,false,,,,656272.599999994,656272.400000006,644762.725,644767,644779.69,656302.88,8,400,,,
trial,html.Screen,4_110_0,2023-09-08T17:17:49.374Z,,0,3,,8715.420000011916,response,ISIC_9630931.JPG,13,ISIC_1132966.JPG,ISIC_9630931.JPG,false,1,keypress(m),500,665018.599999994,665018.3000000119,656286.409,656272.599999994,656302.88,665029.128,8,400,11,,ISIC_1132966.JPG
break,html.Screen,4_110_1,2023-09-08T17:17:49.376Z,,0,,,NaN,,,,,,false,,,,665019.8000000119,665019.400000006,,665018.8000000119,,665029.128,8,400,,,
break_continue,html.Screen,4_110_2,2023-09-08T17:17:49.377Z,,0,,,NaN,,,,,,false,,,,665020.900000006,665020.6999999881,,665020.599999994,,665029.128,8,400,,,
sequence,flow.Sequence,4_110,2023-09-08T17:17:49.377Z,,0,,,8717.819999988074,completion,,,,,false,,,,665021,665020.6999999881,656286.409,656272.599999994,656302.88,665029.128,8,400,,,
trial,html.Screen,4_111_0,2023-09-08T17:17:52.391Z,,0,3,,3005.371999999974,response,ISIC_0028906.JPG,10,ISIC_6201338.JPG,ISIC_6201338.JPG,false,0,keypress(z),500,668034.6999999881,668034.5,665013.371,665021.1999999881,665029.128,668043.191,8,400,12,,ISIC_0028906.JPG
break,html.Screen,4_111_1,2023-09-08T17:17:52.392Z,,0,,,NaN,,,,,,false,,,,668035.6999999881,668035.400000006,,668034.900000006,,668043.191,8,400,,,
break_continue,html.Screen,4_111_2,2023-09-08T17:17:52.392Z,,0,,,NaN,,,,,,false,,,,668036,668035.900000006,,668035.8000000119,,668043.191,8,400,,,
sequence,flow.Sequence,4_111,2023-09-08T17:17:52.392Z,,0,,,3006.7720000059344,completion,,,,,false,,,,668036.1999999881,668035.900000006,665013.371,665021.1999999881,665029.128,668043.191,8,400,,,
trial,html.Screen,4_112_0,2023-09-08T17:17:58.726Z,,0,3,,6326.908999994048,response,ISIC_0033412.JPG,4,ISIC_4956965.JPG,ISIC_4956965.JPG,false,0,keypress(z),500,674370.400000006,674370.099999994,668026.833,668037,668043.191,674394.364,8,400,13,,ISIC_0033412.JPG
break,html.Screen,4_112_1,2023-09-08T17:17:58.727Z,,0,,,NaN,,,,,,false,,,,674371.400000006,674371.3000000119,,674370.5,,674394.364,8,400,,,
break_continue,html.Screen,4_112_2,2023-09-08T17:17:58.728Z,,0,,,NaN,,,,,,false,,,,674372.5,674371.8000000119,,674371.5,,674394.364,8,400,,,
sequence,flow.Sequence,4_112,2023-09-08T17:17:58.728Z,,0,,,6328.609000011929,completion,,,,,false,,,,674372.599999994,674371.8000000119,668026.833,668037,668043.191,674394.364,8,400,,,
trial,html.Screen,4_113_0,2023-09-08T17:18:09.797Z,,0,3,,11046.436000011978,response,ISIC_6496765.JPG,5,ISIC_0025757.JPG,ISIC_0025757.JPG,false,0,keypress(z),500,685441.099999994,685440.8000000119,674354.96,674372.6999999881,674394.364,685445.582,8,400,14,,ISIC_6496765.JPG
break,html.Screen,4_113_1,2023-09-08T17:18:09.798Z,,0,,,NaN,,,,,,false,,,,685442,685441.8000000119,,685441.3000000119,,685445.582,8,400,,,
break_continue,html.Screen,4_113_2,2023-09-08T17:18:09.799Z,,0,,,NaN,,,,,,false,,,,685443.099999994,685442.400000006,,685442.1999999881,,685445.582,8,400,,,
sequence,flow.Sequence,4_113,2023-09-08T17:18:09.799Z,,0,,,11048.036000006017,completion,,,,,false,,,,685443.3000000119,685442.400000006,674354.96,674372.599999994,674394.364,685445.582,8,400,,,
trial,html.Screen,4_114_0,2023-09-08T17:18:21.277Z,,0,3,,11508.162999999942,timeout,ISIC_0008114.JPG,10,ISIC_9410044.JPG,,false,,,500,696921.6999999881,696921.400000006,685430.062,685443.400000006,685445.582,696953.745,8,400,15,,
break,html.Screen,4_114_1,2023-09-08T17:18:21.278Z,,0,,,NaN,,,,,,false,,,,696922.3000000119,696922.1999999881,,696921.8000000119,,696953.745,8,400,,,
break_continue,html.Screen,4_114_2,2023-09-08T17:18:21.278Z,,0,,,NaN,,,,,,false,,,,696922.6999999881,696922.599999994,,696922.400000006,,696953.745,8,400,,,
sequence,flow.Sequence,4_114,2023-09-08T17:18:21.279Z,,0,,,11477.017999993986,completion,,,,,false,,,,696922.6999999881,696922.599999994,685430.062,685443.3000000119,685445.582,696953.745,8,400,,,
trial,html.Screen,4_115_0,2023-09-08T17:18:27.177Z,,0,3,,5867.155000005965,response,ISIC_6803432.JPG,5,ISIC_0808203.JPG,ISIC_6803432.JPG,false,1,keypress(m),500,702821.1999999881,702820.900000006,696936.619,696922.900000006,696953.745,702831.306,8,400,16,,ISIC_0808203.JPG
break,html.Screen,4_115_1,2023-09-08T17:18:27.178Z,,0,,,NaN,,,,,,false,,,,702822.400000006,702822.099999994,,702821.400000006,,702831.306,8,400,,,
break_continue,html.Screen,4_115_2,2023-09-08T17:18:27.179Z,,0,,,NaN,,,,,,false,,,,702823.5,702823.400000006,,702822.599999994,,702831.306,8,400,,,
sequence,flow.Sequence,4_115,2023-09-08T17:18:27.179Z,,0,,,5869.655000005965,completion,,,,,false,,,,702823.6999999881,702823.400000006,696936.619,696922.8000000119,696953.745,702831.306,8,400,,,
trial,html.Screen,4_116_0,2023-09-08T17:18:29.268Z,,0,3,,2080.2939999940572,response,ISIC_4462773.JPG,13,ISIC_3775417.JPG,ISIC_4462773.JPG,false,1,keypress(m),500,704912,704911.599999994,702815.222,702823.8000000119,702831.306,704934.877,8,400,17,,ISIC_3775417.JPG
break,html.Screen,4_116_1,2023-09-08T17:18:29.269Z,,0,,,NaN,,,,,,false,,,,704913,704912.6999999881,,704912.1999999881,,704934.877,8,400,,,
break_continue,html.Screen,4_116_2,2023-09-08T17:18:29.269Z,,0,,,NaN,,,,,,false,,,,704913.3000000119,704913.1999999881,,704913.099999994,,704934.877,8,400,,,
sequence,flow.Sequence,4_116,2023-09-08T17:18:29.269Z,,0,,,2081.8939999880968,completion,,,,,false,,,,704913.400000006,704913.1999999881,702815.222,702823.6999999881,702831.306,704934.877,8,400,,,
trial,html.Screen,4_117_0,2023-09-08T17:18:33.021Z,,0,3,,3729.6230000000214,response,ISIC_5127759.JPG,7,ISIC_0053469.JPG,ISIC_5127759.JPG,false,1,keypress(m),500,708664.8000000119,708664.5,704897.055,704913.5,704934.877,708677.007,8,400,18,,ISIC_0053469.JPG
break,html.Screen,4_117_1,2023-09-08T17:18:33.022Z,,0,,,NaN,,,,,,false,,,,708666,708665.6999999881,,708665,,708677.007,8,400,,,
break_continue,html.Screen,4_117_2,2023-09-08T17:18:33.022Z,,0,,,NaN,,,,,,false,,,,708666.3000000119,708666.3000000119,,708666.099999994,,708677.007,8,400,,,
sequence,flow.Sequence,4_117,2023-09-08T17:18:33.022Z,,0,,,3731.4230000119423,completion,,,,,false,,,,708666.400000006,708666.3000000119,704897.055,704913.5,704934.877,708677.007,8,400,,,
trial,html.Screen,4_118_0,2023-09-08T17:18:38.450Z,,0,3,,5416.393000005977,response,ISIC_6067430.JPG,7,ISIC_1216698.JPG,ISIC_6067430.JPG,false,1,keypress(m),500,714093.900000006,714093.400000006,708660.61,708666.599999994,708677.007,714105.395,8,400,19,,ISIC_1216698.JPG
break,html.Screen,4_118_1,2023-09-08T17:18:38.451Z,,0,,,NaN,,,,,,false,,,,714095.400000006,714095.3000000119,,714094.5,,714105.395,8,400,,,
break_continue,html.Screen,4_118_2,2023-09-08T17:18:38.452Z,,0,,,NaN,,,,,,false,,,,714095.8000000119,714095.599999994,,714095.5,,714105.395,8,400,,,
sequence,flow.Sequence,4_118,2023-09-08T17:18:38.452Z,,0,,,5418.592999994056,completion,,,,,false,,,,714095.900000006,714095.599999994,708660.61,708666.5,708677.007,714105.395,8,400,,,
trial,html.Screen,4_119_0,2023-09-08T17:18:44.881Z,,0,3,,6419.80499998806,response,ISIC_2391053.JPG,5,ISIC_4826449.JPG,ISIC_4826449.JPG,false,0,keypress(z),500,720525.5,720525.1999999881,714089.298,714096.099999994,714105.395,720533.439,8,400,20,,ISIC_2391053.JPG
break,html.Screen,4_119_1,2023-09-08T17:18:44.882Z,,0,,,NaN,,,,,,false,,,,720526.6999999881,720526.5,,720525.6999999881,,720533.439,8,400,,,
break_continue,html.Screen,4_119_2,2023-09-08T17:18:44.883Z,,0,,,NaN,,,,,,false,,,,720527.099999994,720527,,720526.8000000119,,720533.439,8,400,,,
sequence,flow.Sequence,4_119,2023-09-08T17:18:44.883Z,,0,,,6421.604999999981,completion,,,,,false,,,,720527.1999999881,720527,714089.298,714096,714105.395,720533.439,8,400,,,
trial,html.Screen,4_120_0,2023-09-08T17:18:50.215Z,,0,3,,5325.361000011908,response,ISIC_5194705.JPG,11,ISIC_7844565.JPG,ISIC_7844565.JPG,false,0,keypress(z),500,725859.099999994,725858.8000000119,720517.342,720527.3000000119,720533.439,725879.775,8,400,21,,ISIC_5194705.JPG
break,html.Screen,4_120_1,2023-09-08T17:18:50.216Z,,0,,,NaN,,,,,,false,,,,725860.400000006,725860.1999999881,,725859.400000006,,725879.775,8,400,,,
break_continue,html.Screen,4_120_2,2023-09-08T17:18:50.217Z,,0,,,NaN,,,,,,false,,,,725860.900000006,725860.6999999881,,725860.599999994,,725879.775,8,400,,,
sequence,flow.Sequence,4_120,2023-09-08T17:18:50.217Z,,0,,,5327.260999988066,completion,,,,,false,,,,725861.099999994,725860.6999999881,720517.342,720527.3000000119,720533.439,725879.775,8,400,,,
trial,html.Screen,4_121_0,2023-09-08T17:18:54.543Z,,0,3,,4307.125000005937,response,ISIC_0031146.JPG,10,ISIC_4363603.JPG,ISIC_4363603.JPG,false,0,keypress(z),500,730187.1999999881,730186.900000006,725862.408,725861.1999999881,725879.775,730192.188,8,400,22,,ISIC_0031146.JPG
break,html.Screen,4_121_1,2023-09-08T17:18:54.544Z,,0,,,NaN,,,,,,false,,,,730188.400000006,730188.1999999881,,730187.400000006,,730192.188,8,400,,,
break_continue,html.Screen,4_121_2,2023-09-08T17:18:54.545Z,,0,,,NaN,,,,,,false,,,,730188.8000000119,730188.599999994,,730188.5,,730192.188,8,400,,,
sequence,flow.Sequence,4_121,2023-09-08T17:18:54.545Z,,0,,,4308.824999994016,completion,,,,,false,,,,730188.900000006,730188.599999994,725862.408,725861.1999999881,725879.775,730192.188,8,400,,,
trial,html.Screen,4_122_0,2023-09-08T17:18:58.392Z,,0,3,,3842.911999994074,response,ISIC_5153848.JPG,10,ISIC_0071303.JPG,ISIC_5153848.JPG,false,1,keypress(m),500,734036.5,734035.099999994,730176.302,730189,730192.188,734039.661,8,400,23,,ISIC_0071303.JPG
break,html.Screen,4_122_1,2023-09-08T17:18:58.394Z,,0,,,NaN,,,,,,false,,,,734038,734037.8000000119,,734036.8000000119,,734039.661,8,400,,,
break_continue,html.Screen,4_122_2,2023-09-08T17:18:58.394Z,,0,,,NaN,,,,,,false,,,,734038.3000000119,734038.1999999881,,734038.099999994,,734039.661,8,400,,,
sequence,flow.Sequence,4_122,2023-09-08T17:18:58.394Z,,0,,,3846.0119999881135,completion,,,,,false,,,,734038.5,734038.1999999881,730176.302,730188.900000006,730192.188,734039.661,8,400,,,
trial,html.Screen,4_123_0,2023-09-08T17:19:01.555Z,,0,3,,3159.0389999881154,response,ISIC_0067653.JPG,8,ISIC_4631711.JPG,ISIC_4631711.JPG,false,0,keypress(z),500,737199.1999999881,737198.6999999881,734022.7,734040.1999999881,734039.661,737203.092,8,400,24,,ISIC_0067653.JPG
break,html.Screen,4_123_1,2023-09-08T17:19:01.557Z,,0,,,NaN,,,,,,false,,,,737201.099999994,737200,,737199.3000000119,,737203.092,8,400,,,
break_continue,html.Screen,4_123_2,2023-09-08T17:19:01.557Z,,0,,,NaN,,,,,,false,,,,737201.599999994,737201.400000006,,737201.3000000119,,737203.092,8,400,,,
sequence,flow.Sequence,4_123,2023-09-08T17:19:01.557Z,,0,,,3161.739000005997,completion,,,,,false,,,,737201.6999999881,737201.400000006,734022.7,734040,734039.661,737203.092,8,400,,,
trial,html.Screen,4_124_0,2023-09-08T17:19:07.314Z,,0,3,,5754.607999988133,response,ISIC_9788174.JPG,5,ISIC_0032928.JPG,ISIC_0032928.JPG,false,0,keypress(z),500,742958,742957.6999999881,737186.731,737201.8000000119,737203.092,742965.427,8,400,25,,ISIC_9788174.JPG
break,html.Screen,4_124_1,2023-09-08T17:19:07.315Z,,0,,,NaN,,,,,,false,,,,742959.6999999881,742958.6999999881,,742958.3000000119,,742965.427,8,400,,,
break_continue,html.Screen,4_124_2,2023-09-08T17:19:07.316Z,,0,,,NaN,,,,,,false,,,,742960.099999994,742960,,742959.8000000119,,742965.427,8,400,,,
sequence,flow.Sequence,4_124,2023-09-08T17:19:07.316Z,,0,,,5756.908000000054,completion,,,,,false,,,,742960.1999999881,742960,737186.731,737201.6999999881,737203.092,742965.427,8,400,,,
trial,html.Screen,4_125_0,2023-09-08T17:19:10.480Z,,0,3,,3158.373000011896,response,ISIC_0071430.JPG,7,ISIC_0000171.JPG,ISIC_0000171.JPG,false,0,keypress(z),500,746124.599999994,746123.8000000119,742948.42,742960.3000000119,742965.427,746129.066,8,400,26,,ISIC_0071430.JPG
break,html.Screen,4_125_1,2023-09-08T17:19:10.481Z,,0,,,NaN,,,,,,false,,,,746125.599999994,746125.3000000119,,746124.900000006,,746129.066,8,400,,,
break_continue,html.Screen,4_125_2,2023-09-08T17:19:10.482Z,,0,,,NaN,,,,,,false,,,,746126.3000000119,746125.6999999881,,746125.6999999881,,746129.066,8,400,,,
sequence,flow.Sequence,4_125,2023-09-08T17:19:10.483Z,,0,,,3160.272999988054,completion,,,,,false,,,,746126.900000006,746125.6999999881,742948.42,742960.1999999881,742965.427,746129.066,8,400,,,
trial,html.Screen,4_126_0,2023-09-08T17:19:18.921Z,,0,3,,8435.73400001193,response,ISIC_0011884.JPG,8,ISIC_2489146.JPG,ISIC_2489146.JPG,false,0,keypress(z),500,754565,754564.8000000119,746112.551,746127,746129.066,754572.712,8,400,27,,ISIC_0011884.JPG
break,html.Screen,4_126_1,2023-09-08T17:19:18.922Z,,0,,,NaN,,,,,,false,,,,754566,754565.8000000119,,754565.1999999881,,754572.712,8,400,,,
