sender,sender_type,sender_id,timestamp,meta,,blockNo,condition,duration,ended_on,img_left,img_reveal,img_right,loser,practice,response,response_action,selection_duration,time_commit,time_end,time_render,time_run,time_show,time_switch,total_blocks,total_trials,trialNo,url,winner
informed_consent,html.Screen,0,2023-08-30T13:35:05.268Z,"{""labjs_version"":""20.2.4"",""labjs_build"":{""flavor"":""development"",""commit"":""f5b4a49f956347addd546a832a3327688c2c0fef""},""location"":""https://labjs.felixhenninger.com/api/labjs_preview/index.html"",""userAgent"":""Mozilla/5.0 (Windows NT 10.0; Win64; x64) AppleWebKit/537.36 (KHTML, like Gecko) Chrome/116.0.0.0 Safari/537.36"",""platform"":""Win32"",""language"":""en-AU"",""locale"":""en-US"",""timeZone"":""America/Chicago"",""timezoneOffset"":300,""screen_width"":1536,""screen_height"":864,""scroll_width"":1056,""scroll_height"":626,""window_innerWidth"":1056,""window_innerHeight"":674,""devicePixelRatio"":1.25}",,,,5068.651999976159,response,,,,,,consent,click button,,6013.800000071526,6012.399999976158,927.105,1083.3000000715256,943.748,5888.858,,,,{},
Welcome,html.Screen,1,2023-08-30T13:35:08.330Z,,,,irregular,3186.4420000715254,response,,,,,,continue,click button,,9076.100000023842,9075.300000071526,5872.202,6014.200000047684,5888.858,8940.432,,,,,
trial,html.Screen,2_0_0,2023-08-30T13:35:11.581Z,,0,0,,3386.168000023841,response,ISIC_0061792.JPG,,ISIC_4679428.JPG,ISIC_0061792.JPG,true,1,keypress(m),500,12326.800000071526,12326.600000023842,8923.772,9076.399999976158,8940.432,12178.815,1,6,1,,ISIC_4679428.JPG
sequence,flow.Sequence,2_0,2023-08-30T13:35:11.581Z,,0,,,3386.168000023841,completion,,,,,true,,,,12327,12326.600000023842,8923.772,9076.300000071526,8940.432,12178.815,1,6,,,
trial,html.Screen,2_1_0,2023-08-30T13:35:17.568Z,,0,0,,6134.385000047683,response,ISIC_0776486.JPG,,ISIC_5199497.JPG,ISIC_5199497.JPG,true,0,keypress(z),500,18313.399999976158,18313.200000047684,12176.337,12327.100000023842,12178.815,18164.916,1,6,2,,ISIC_0776486.JPG
sequence,flow.Sequence,2_1,2023-08-30T13:35:17.568Z,,0,,,6134.385000047683,completion,,,,,true,,,,18313.600000023842,18313.200000047684,12176.337,12327,12178.815,18164.916,1,6,,,
trial,html.Screen,2_2_0,2023-08-30T13:35:20.643Z,,0,0,,3223.083999999999,response,ISIC_2556187.JPG,,ISIC_8575776.JPG,ISIC_2556187.JPG,true,1,keypress(m),500,21388.399999976158,21388,18162.847,18313.700000047684,18164.916,21240.318,1,6,3,,ISIC_8575776.JPG
sequence,flow.Sequence,2_2,2023-08-30T13:35:20.643Z,,0,,,3223.083999999999,completion,,,,,true,,,,21388.700000047684,21388,18162.847,18313.600000023842,18164.916,21240.318,1,6,,,
trial,html.Screen,2_3_0,2023-08-30T13:35:23.204Z,,0,0,,2709.4820000715263,response,ISIC_8141769.JPG,,ISIC_9238366.JPG,ISIC_9238366.JPG,true,0,keypress(z),500,23950.100000023842,23949.800000071526,21234.958,21388.800000071526,21240.318,23814.321,1,6,4,,ISIC_8141769.JPG
sequence,flow.Sequence,2_3,2023-08-30T13:35:23.205Z,,0,,,2709.4820000715263,completion,,,,,true,,,,23950.600000023842,23949.800000071526,21234.958,21388.700000047684,21240.318,23814.321,1,6,,,
trial,html.Screen,2_4_0,2023-08-30T13:35:25.864Z,,0,0,,2795.5789999761582,response,ISIC_8949026.JPG,,ISIC_9959593.JPG,ISIC_8949026.JPG,true,1,keypress(m),500,26610.200000047684,26609.899999976158,23795.99,23950.899999976158,23814.321,26461.9,1,6,5,,ISIC_9959593.JPG
sequence,flow.Sequence,2_4,2023-08-30T13:35:25.865Z,,0,,,2795.5789999761582,completion,,,,,true,,,,26610.300000071526,26609.899999976158,23795.99,23950.800000071526,23814.321,26461.9,1,6,,,
trial,html.Screen,2_5_0,2023-08-30T13:35:28.634Z,,0,0,,2917.900000071524,response,ISIC_0010479.JPG,,ISIC_0460240.JPG,ISIC_0460240.JPG,true,0,keypress(z),500,29380,29379.800000071526,26457.274,26610.399999976158,26461.9,29231.789,1,6,6,,ISIC_0010479.JPG
sequence,flow.Sequence,2_5,2023-08-30T13:35:28.634Z,,0,,,2917.900000071524,completion,,,,,true,,,,29380.200000047684,29379.800000071526,26457.274,26610.300000071526,26461.9,29231.789,1,6,,,
loop,flow.Loop,2,2023-08-30T13:35:28.635Z,,,,,20439.368000071525,completion,,,,,true,,,,29380.300000071526,29379.800000071526,8923.772,9076.300000071526,8940.432,29231.789,1,6,,,
exp_instructions,html.Screen,3,2023-08-30T13:35:29.598Z,,,,,1111.2109999999993,response,,,,,,continue,keypress(Space),,30343.600000023842,30343,29226.989,29380.399999976158,29231.789,30212.596,,,,,
trial,html.Screen,4_0_0,2023-08-30T13:35:34.241Z,,0,1,,4773.903999999999,response,ISIC_0063899.JPG,4,ISIC_0066878.JPG,ISIC_0063899.JPG,false,1,keypress(m),500,34986.700000047684,34986.5,30180.967,30343.800000071526,30212.596,34838.574,8,400,1,,ISIC_0066878.JPG
break,html.Screen,4_0_1,2023-08-30T13:35:34.242Z,,0,,,NaN,,,,,,false,,,,34987.700000047684,34987.39999997616,,34986.89999997616,,34838.574,8,400,,,
break_continue,html.Screen,4_0_2,2023-08-30T13:35:34.243Z,,0,,,NaN,,,,,,false,,,,34988.39999997616,34988.39999997616,,34988.200000047684,,34838.574,8,400,,,
sequence,flow.Sequence,4_0,2023-08-30T13:35:34.243Z,,0,,,4775.803999976157,completion,,,,,false,,,,34988.60000002384,34988.39999997616,30180.967,30343.800000071526,30212.596,34838.574,8,400,,,
trial,html.Screen,4_1_0,2023-08-30T13:35:37.333Z,,0,1,,3239.626000047683,response,ISIC_3826001.JPG,5,ISIC_9183042.JPG,ISIC_3826001.JPG,false,1,keypress(m),500,38078.39999997616,38078.200000047684,34831.973,34988.700000047684,34838.574,37946.797,8,400,2,,ISIC_9183042.JPG
break,html.Screen,4_1_1,2023-08-30T13:35:37.334Z,,0,,,NaN,,,,,,false,,,,38080.10000002384,38079.800000071526,,38078.60000002384,,37946.797,8,400,,,
break_continue,html.Screen,4_1_2,2023-08-30T13:35:37.335Z,,0,,,NaN,,,,,,false,,,,38080.39999997616,38080.300000071526,,38080.10000002384,,37946.797,8,400,,,
sequence,flow.Sequence,4_1,2023-08-30T13:35:37.335Z,,0,,,3241.726000071525,completion,,,,,false,,,,38080.5,38080.300000071526,34831.973,34988.700000047684,34838.574,37946.797,8,400,,,
trial,html.Screen,4_2_0,2023-08-30T13:35:41.289Z,,0,1,,4088.1029999761595,response,ISIC_0946923.JPG,6,ISIC_9239093.JPG,ISIC_9239093.JPG,false,0,keypress(z),500,42034.89999997616,42034.89999997616,37926.281,38080.60000002384,37946.797,41886.54,8,400,3,,ISIC_0946923.JPG
break,html.Screen,4_2_1,2023-08-30T13:35:41.291Z,,0,,,NaN,,,,,,false,,,,42036.200000047684,42035.39999997616,,42035,,41886.54,8,400,,,
break_continue,html.Screen,4_2_2,2023-08-30T13:35:41.291Z,,0,,,NaN,,,,,,false,,,,42036.39999997616,42036.300000071526,,42036.300000071526,,41886.54,8,400,,,
sequence,flow.Sequence,4_2,2023-08-30T13:35:41.291Z,,0,,,4089.503000071527,completion,,,,,false,,,,42036.39999997616,42036.300000071526,37926.281,38080.60000002384,37946.797,41886.54,8,400,,,
trial,html.Screen,4_3_0,2023-08-30T13:35:46.142Z,,0,1,,5000.459999999999,response,ISIC_0025987.JPG,6,ISIC_0063018.JPG,ISIC_0025987.JPG,false,1,keypress(m),500,46887.200000047684,46887,41879.952,42037,41886.54,46752.624,8,400,4,,ISIC_0063018.JPG
break,html.Screen,4_3_1,2023-08-30T13:35:46.142Z,,0,,,NaN,,,,,,false,,,,46887.800000071526,46887.60000002384,,46887.300000071526,,46752.624,8,400,,,
break_continue,html.Screen,4_3_2,2023-08-30T13:35:46.142Z,,0,,,NaN,,,,,,false,,,,46888,46887.89999997616,,46887.89999997616,,46752.624,8,400,,,
sequence,flow.Sequence,4_3,2023-08-30T13:35:46.143Z,,0,,,5001.359999976157,completion,,,,,false,,,,46888.10000002384,46887.89999997616,41879.952,42037,41886.54,46752.624,8,400,,,
trial,html.Screen,4_4_0,2023-08-30T13:35:48.851Z,,0,1,,2843.9760000238384,response,ISIC_6687927.JPG,5,ISIC_1601532.JPG,ISIC_6687927.JPG,false,1,keypress(m),500,49596.700000047684,49596.60000002384,46735.925,46888.200000047684,46752.624,49448.381,8,400,5,,ISIC_1601532.JPG
break,html.Screen,4_4_1,2023-08-30T13:35:48.852Z,,0,,,NaN,,,,,,false,,,,49597.300000071526,49597.200000047684,,49596.800000071526,,49448.381,8,400,,,
break_continue,html.Screen,4_4_2,2023-08-30T13:35:48.852Z,,0,,,NaN,,,,,,false,,,,49597.60000002384,49597.5,,49597.39999997616,,49448.381,8,400,,,
sequence,flow.Sequence,4_4,2023-08-30T13:35:48.852Z,,0,,,2844.8759999999966,completion,,,,,false,,,,49597.60000002384,49597.5,46735.925,46888.200000047684,46752.624,49448.381,8,400,,,
trial,html.Screen,4_5_0,2023-08-30T13:35:51.849Z,,0,1,,3145.618999999999,response,ISIC_0031941.JPG,6,ISIC_0014108.JPG,ISIC_0014108.JPG,false,0,keypress(z),500,52594.200000047684,52594,49445.981,49597.700000047684,49448.381,52446.082,8,400,6,,ISIC_0031941.JPG
break,html.Screen,4_5_1,2023-08-30T13:35:51.849Z,,0,,,NaN,,,,,,false,,,,52595,52594.700000047684,,52594.300000071526,,52446.082,8,400,,,
break_continue,html.Screen,4_5_2,2023-08-30T13:35:51.850Z,,0,,,NaN,,,,,,false,,,,52595.300000071526,52595.300000071526,,52595.10000002384,,52446.082,8,400,,,
sequence,flow.Sequence,4_5,2023-08-30T13:35:51.850Z,,0,,,3146.9190000715244,completion,,,,,false,,,,52595.39999997616,52595.300000071526,49445.981,49597.700000047684,49448.381,52446.082,8,400,,,
trial,html.Screen,4_6_0,2023-08-30T13:35:54.638Z,,0,1,,2937.5180000238397,response,ISIC_0066671.JPG,5,ISIC_0024285.JPG,ISIC_0024285.JPG,false,0,keypress(z),500,55383.800000071526,55383.60000002384,52443.579,52595.700000047684,52446.082,55235.644,8,400,7,,ISIC_0066671.JPG
break,html.Screen,4_6_1,2023-08-30T13:35:54.639Z,,0,,,NaN,,,,,,false,,,,55384.5,55384.300000071526,,55383.89999997616,,55235.644,8,400,,,
break_continue,html.Screen,4_6_2,2023-08-30T13:35:54.640Z,,0,,,NaN,,,,,,false,,,,55385.200000047684,55384.700000047684,,55384.60000002384,,55235.644,8,400,,,
sequence,flow.Sequence,4_6,2023-08-30T13:35:54.640Z,,0,,,2938.6180000476816,completion,,,,,false,,,,55385.200000047684,55384.700000047684,52443.579,52595.700000047684,52446.082,55235.644,8,400,,,
trial,html.Screen,4_7_0,2023-08-30T13:35:57.329Z,,0,1,,2838.6560000715253,response,ISIC_2050512.JPG,6,ISIC_5755836.JPG,ISIC_5755836.JPG,false,0,keypress(z),500,58074.60000002384,58074.300000071526,55234.287,55385.39999997616,55235.644,57926.631,8,400,8,,ISIC_2050512.JPG
break,html.Screen,4_7_1,2023-08-30T13:35:57.331Z,,0,,,NaN,,,,,,false,,,,58076.300000071526,58075.39999997616,,58074.800000071526,,57926.631,8,400,,,
break_continue,html.Screen,4_7_2,2023-08-30T13:35:57.332Z,,0,,,NaN,,,,,,false,,,,58077.10000002384,58076.89999997616,,58076.5,,57926.631,8,400,,,
sequence,flow.Sequence,4_7,2023-08-30T13:35:57.332Z,,0,,,2841.255999976158,completion,,,,,false,,,,58077.300000071526,58076.89999997616,55234.287,55385.39999997616,55235.644,57926.631,8,400,,,
trial,html.Screen,4_8_0,2023-08-30T13:36:03.773Z,,0,1,,6591.368999999999,response,ISIC_7507286.JPG,4,ISIC_0034052.JPG,ISIC_7507286.JPG,false,1,keypress(m),500,64518.200000047684,64518,57909.843,58077.5,57926.631,64370.372,8,400,9,,ISIC_0034052.JPG
break,html.Screen,4_8_1,2023-08-30T13:36:03.775Z,,0,,,NaN,,,,,,false,,,,64520.10000002384,64519.200000047684,,64518.5,,64370.372,8,400,,,
break_continue,html.Screen,4_8_2,2023-08-30T13:36:03.775Z,,0,,,NaN,,,,,,false,,,,64520.89999997616,64520.700000047684,,64520.300000071526,,64370.372,8,400,,,
sequence,flow.Sequence,4_8,2023-08-30T13:36:03.775Z,,0,,,6594.0690000476825,completion,,,,,false,,,,64521,64520.700000047684,57909.843,58077.5,57926.631,64370.372,8,400,,,
trial,html.Screen,4_9_0,2023-08-30T13:36:06.947Z,,0,1,,3321.627999999997,response,ISIC_0014985.JPG,4,ISIC_0014795.JPG,ISIC_0014795.JPG,false,0,keypress(z),500,67692.10000002384,67692,64368.824,64521.10000002384,64370.372,67545.56,8,400,10,,ISIC_0014985.JPG
break,html.Screen,4_9_1,2023-08-30T13:36:06.947Z,,0,,,NaN,,,,,,false,,,,67693,67692.80000007153,,67692.30000007153,,67545.56,8,400,,,
break_continue,html.Screen,4_9_2,2023-08-30T13:36:06.948Z,,0,,,NaN,,,,,,false,,,,67693.30000007153,67693.20000004768,,67693.10000002384,,67545.56,8,400,,,
sequence,flow.Sequence,4_9,2023-08-30T13:36:06.948Z,,0,,,3322.8280000476807,completion,,,,,false,,,,67693.39999997616,67693.20000004768,64368.824,64521.10000002384,64370.372,67545.56,8,400,,,
trial,html.Screen,4_10_0,2023-08-30T13:36:10.088Z,,0,1,,3288.040000023844,response,ISIC_1888865.JPG,5,ISIC_8181142.JPG,ISIC_8181142.JPG,false,0,keypress(z),500,70833.80000007153,70833.60000002384,67538.98,67693.5,67545.56,70693.249,8,400,11,,ISIC_1888865.JPG
break,html.Screen,4_10_1,2023-08-30T13:36:10.089Z,,0,,,NaN,,,,,,false,,,,70835.10000002384,70834.70000004768,,70834.10000002384,,70693.249,8,400,,,
break_continue,html.Screen,4_10_2,2023-08-30T13:36:10.090Z,,0,,,NaN,,,,,,false,,,,70835.60000002384,70835.5,,70835.30000007153,,70693.249,8,400,,,
sequence,flow.Sequence,4_10,2023-08-30T13:36:10.090Z,,0,,,3289.9400000000023,completion,,,,,false,,,,70835.89999997616,70835.5,67538.98,67693.5,67545.56,70693.249,8,400,,,
trial,html.Screen,4_11_0,2023-08-30T13:36:12.846Z,,0,1,,2897.9510000476876,response,ISIC_8642938.JPG,5,ISIC_0032044.JPG,ISIC_8642938.JPG,false,1,keypress(m),500,73591.5,73591.20000004768,70684.253,70836,70693.249,73443.725,8,400,12,,ISIC_0032044.JPG
break,html.Screen,4_11_1,2023-08-30T13:36:12.848Z,,0,,,NaN,,,,,,false,,,,73593.5,73592.39999997616,,73591.70000004768,,73443.725,8,400,,,
break_continue,html.Screen,4_11_2,2023-08-30T13:36:12.849Z,,0,,,NaN,,,,,,false,,,,73594.30000007153,73594.20000004768,,73593.80000007153,,73443.725,8,400,,,
sequence,flow.Sequence,4_11,2023-08-30T13:36:12.849Z,,0,,,2900.9510000476876,completion,,,,,false,,,,73594.60000002384,73594.20000004768,70684.253,70835.89999997616,70693.249,73443.725,8,400,,,
trial,html.Screen,4_12_0,2023-08-30T13:36:15.594Z,,0,1,,2895.5750000715198,response,ISIC_3249783.JPG,4,ISIC_0031248.JPG,ISIC_3249783.JPG,false,1,keypress(m),500,76339.5,76339.30000007153,73441.585,73594.70000004768,73443.725,76191.818,8,400,13,,ISIC_0031248.JPG
break,html.Screen,4_12_1,2023-08-30T13:36:15.596Z,,0,,,NaN,,,,,,false,,,,76341.5,76340.5,,76339.89999997616,,76191.818,8,400,,,
break_continue,html.Screen,4_12_2,2023-08-30T13:36:15.597Z,,0,,,NaN,,,,,,false,,,,76342.30000007153,76342.10000002384,,76341.70000004768,,76191.818,8,400,,,
sequence,flow.Sequence,4_12,2023-08-30T13:36:15.597Z,,0,,,2898.375000023836,completion,,,,,false,,,,76342.5,76342.10000002384,73441.585,73594.60000002384,73443.725,76191.818,8,400,,,
trial,html.Screen,4_13_0,2023-08-30T13:36:19.551Z,,0,1,,4104.882000047684,response,ISIC_0033368.JPG,5,ISIC_0025783.JPG,ISIC_0025783.JPG,false,0,keypress(z),500,80296.89999997616,80296.70000004768,76175.009,76342.60000002384,76191.818,80149.169,8,400,14,,ISIC_0033368.JPG
break,html.Screen,4_13_1,2023-08-30T13:36:19.553Z,,0,,,NaN,,,,,,false,,,,80299.10000002384,80298,,80297.20000004768,,80149.169,8,400,,,
break_continue,html.Screen,4_13_2,2023-08-30T13:36:19.554Z,,0,,,NaN,,,,,,false,,,,80299.80000007153,80299.70000004768,,80299.30000007153,,80149.169,8,400,,,
sequence,flow.Sequence,4_13,2023-08-30T13:36:19.554Z,,0,,,4107.882000047684,completion,,,,,false,,,,80300.20000004768,80299.70000004768,76175.009,76342.60000002384,76191.818,80149.169,8,400,,,
trial,html.Screen,4_14_0,2023-08-30T13:36:22.758Z,,0,1,,3353.7309999761637,response,ISIC_0057531.JPG,4,ISIC_6392461.JPG,ISIC_6392461.JPG,false,0,keypress(z),500,83503.10000002384,83502.89999997616,80144.587,80300.39999997616,80149.169,83355.263,8,400,15,,ISIC_0057531.JPG
break,html.Screen,4_14_1,2023-08-30T13:36:22.759Z,,0,,,NaN,,,,,,false,,,,83504.89999997616,83504,,83503.30000007153,,83355.263,8,400,,,
break_continue,html.Screen,4_14_2,2023-08-30T13:36:22.760Z,,0,,,NaN,,,,,,false,,,,83505.60000002384,83505.39999997616,,83505.10000002384,,83355.263,8,400,,,
sequence,flow.Sequence,4_14,2023-08-30T13:36:22.760Z,,0,,,3356.2309999761637,completion,,,,,false,,,,83505.80000007153,83505.39999997616,80144.587,80300.30000007153,80149.169,83355.263,8,400,,,
trial,html.Screen,4_15_0,2023-08-30T13:36:25.435Z,,0,1,,2824.8370000238356,response,ISIC_6357263.JPG,5,ISIC_4292708.JPG,ISIC_6357263.JPG,false,1,keypress(m),500,86180.30000007153,86180.10000002384,83347.507,83506,83355.263,86048.519,8,400,16,,ISIC_4292708.JPG
break,html.Screen,4_15_1,2023-08-30T13:36:25.436Z,,0,,,NaN,,,,,,false,,,,86181.89999997616,86181.5,,86180.80000007153,,86048.519,8,400,,,
break_continue,html.Screen,4_15_2,2023-08-30T13:36:25.437Z,,0,,,NaN,,,,,,false,,,,86182.39999997616,86182.30000007153,,86182.10000002384,,86048.519,8,400,,,
sequence,flow.Sequence,4_15,2023-08-30T13:36:25.437Z,,0,,,2827.0370000715193,completion,,,,,false,,,,86182.60000002384,86182.30000007153,83347.507,83505.89999997616,83355.263,86048.519,8,400,,,
trial,html.Screen,4_16_0,2023-08-30T13:36:28.118Z,,0,1,,2814.4809999999998,response,ISIC_0027271.JPG,5,ISIC_0011958.JPG,ISIC_0027271.JPG,false,1,keypress(m),500,88863.30000007153,88863,86029.414,86182.70000004768,86048.519,88732.314,8,400,17,,ISIC_0011958.JPG
break,html.Screen,4_16_1,2023-08-30T13:36:28.120Z,,0,,,NaN,,,,,,false,,,,88865.39999997616,88864.30000007153,,88863.5,,88732.314,8,400,,,
break_continue,html.Screen,4_16_2,2023-08-30T13:36:28.120Z,,0,,,NaN,,,,,,false,,,,88866.10000002384,88865.89999997616,,88865.5,,88732.314,8,400,,,
sequence,flow.Sequence,4_16,2023-08-30T13:36:28.121Z,,0,,,2817.380999976158,completion,,,,,false,,,,88866.30000007153,88865.89999997616,86029.414,86182.60000002384,86048.519,88732.314,8,400,,,
trial,html.Screen,4_17_0,2023-08-30T13:36:31.567Z,,0,1,,3580.486000071527,response,ISIC_0034051.JPG,6,ISIC_6793603.JPG,ISIC_6793603.JPG,false,0,keypress(z),500,92313.10000002384,92312.80000007153,88703.843,88866.39999997616,88732.314,92193.478,8,400,18,,ISIC_0034051.JPG
break,html.Screen,4_17_1,2023-08-30T13:36:31.569Z,,0,,,NaN,,,,,,false,,,,92314.30000007153,92313.89999997616,,92313.20000004768,,92193.478,8,400,,,
break_continue,html.Screen,4_17_2,2023-08-30T13:36:31.569Z,,0,,,NaN,,,,,,false,,,,92314.89999997616,92314.80000007153,,92314.5,,92193.478,8,400,,,
sequence,flow.Sequence,4_17,2023-08-30T13:36:31.569Z,,0,,,3582.486000071527,completion,,,,,false,,,,92315.10000002384,92314.80000007153,88703.843,88866.30000007153,88732.314,92193.478,8,400,,,
trial,html.Screen,4_18_0,2023-08-30T13:36:34.844Z,,0,1,,3396.021999999997,response,ISIC_0064822.JPG,6,ISIC_0413804.JPG,ISIC_0413804.JPG,false,0,keypress(z),500,95589.70000004768,95589.5,92176.934,92315.20000004768,92193.478,95441.794,8,400,19,,ISIC_0064822.JPG
break,html.Screen,4_18_1,2023-08-30T13:36:34.845Z,,0,,,NaN,,,,,,false,,,,95590.39999997616,95590.20000004768,,95589.80000007153,,95441.794,8,400,,,
break_continue,html.Screen,4_18_2,2023-08-30T13:36:34.846Z,,0,,,NaN,,,,,,false,,,,95591.30000007153,95590.70000004768,,95590.60000002384,,95441.794,8,400,,,
sequence,flow.Sequence,4_18,2023-08-30T13:36:34.846Z,,0,,,3397.222000047681,completion,,,,,false,,,,95591.39999997616,95590.70000004768,92176.934,92315.20000004768,92193.478,95441.794,8,400,,,
trial,html.Screen,4_19_0,2023-08-30T13:36:37.640Z,,0,1,,2943.2060000000056,response,ISIC_0030943.JPG,5,ISIC_0010938.JPG,ISIC_0030943.JPG,false,1,keypress(m),500,98385.30000007153,98385,95440.052,95591.5,95441.794,98251.789,8,400,20,,ISIC_0010938.JPG
break,html.Screen,4_19_1,2023-08-30T13:36:37.641Z,,0,,,NaN,,,,,,false,,,,98386.60000002384,98386.30000007153,,98385.5,,98251.789,8,400,,,
break_continue,html.Screen,4_19_2,2023-08-30T13:36:37.641Z,,0,,,NaN,,,,,,false,,,,98387.10000002384,98387,,98386.80000007153,,98251.789,8,400,,,
sequence,flow.Sequence,4_19,2023-08-30T13:36:37.642Z,,0,,,2945.2060000000056,completion,,,,,false,,,,98387.30000007153,98387,95440.052,95591.39999997616,95441.794,98251.789,8,400,,,
trial,html.Screen,4_20_0,2023-08-30T13:36:40.412Z,,0,1,,2905.110999976154,response,ISIC_7763831.JPG,5,ISIC_1996356.JPG,ISIC_7763831.JPG,false,1,keypress(m),500,101157.30000007153,101156.89999997616,98235.104,98387.39999997616,98251.789,101009.471,8,400,21,,ISIC_1996356.JPG
break,html.Screen,4_20_1,2023-08-30T13:36:40.413Z,,0,,,NaN,,,,,,false,,,,101159.10000002384,101158.10000002384,,101157.5,,101009.471,8,400,,,
break_continue,html.Screen,4_20_2,2023-08-30T13:36:40.414Z,,0,,,NaN,,,,,,false,,,,101159.70000004768,101159.60000002384,,101159.20000004768,,101009.471,8,400,,,
sequence,flow.Sequence,4_20,2023-08-30T13:36:40.414Z,,0,,,2907.8110000238376,completion,,,,,false,,,,101160,101159.60000002384,98235.104,98387.30000007153,98251.789,101009.471,8,400,,,
trial,html.Screen,4_21_0,2023-08-30T13:36:43.153Z,,0,1,,2888.428999976153,response,ISIC_0030077.JPG,5,ISIC_7110699.JPG,ISIC_7110699.JPG,false,0,keypress(z),500,103898.39999997616,103897.89999997616,101006.885,101160.10000002384,101009.471,103750.11,8,400,22,,ISIC_0030077.JPG
break,html.Screen,4_21_1,2023-08-30T13:36:43.154Z,,0,,,NaN,,,,,,false,,,,103899.80000007153,103899.10000002384,,103898.5,,103750.11,8,400,,,
break_continue,html.Screen,4_21_2,2023-08-30T13:36:43.155Z,,0,,,NaN,,,,,,false,,,,103900.60000002384,103900.39999997616,,103900.10000002384,,103750.11,8,400,,,
sequence,flow.Sequence,4_21,2023-08-30T13:36:43.155Z,,0,,,2890.928999976153,completion,,,,,false,,,,103900.80000007153,103900.39999997616,101006.885,101160.10000002384,101009.471,103750.11,8,400,,,
trial,html.Screen,4_22_0,2023-08-30T13:36:45.861Z,,0,1,,2856.4900000238413,response,ISIC_0014782.JPG,5,ISIC_0030417.JPG,ISIC_0014782.JPG,false,1,keypress(m),500,106606.89999997616,106606.60000002384,103732.417,103901,103750.11,106476.609,8,400,23,,ISIC_0030417.JPG
break,html.Screen,4_22_1,2023-08-30T13:36:45.862Z,,0,,,NaN,,,,,,false,,,,106607.80000007153,106607.60000002384,,106607.10000002384,,106476.609,8,400,,,
break_continue,html.Screen,4_22_2,2023-08-30T13:36:45.863Z,,0,,,NaN,,,,,,false,,,,106608.20000004768,106608.10000002384,,106608,,106476.609,8,400,,,
sequence,flow.Sequence,4_22,2023-08-30T13:36:45.863Z,,0,,,2857.9900000238413,completion,,,,,false,,,,106608.30000007153,106608.10000002384,103732.417,103900.89999997616,103750.11,106476.609,8,400,,,
trial,html.Screen,4_23_0,2023-08-30T13:36:48.585Z,,0,1,,2854.3910000000033,response,ISIC_0025303.JPG,5,ISIC_0029859.JPG,ISIC_0025303.JPG,false,1,keypress(m),500,109331.10000002384,109331,106457.335,106608.5,106476.609,109182.58,8,400,24,,ISIC_0029859.JPG
break,html.Screen,4_23_1,2023-08-30T13:36:48.586Z,,0,,,NaN,,,,,,false,,,,109331.60000002384,109331.5,,109331.20000004768,,109182.58,8,400,,,
break_continue,html.Screen,4_23_2,2023-08-30T13:36:48.586Z,,0,,,NaN,,,,,,false,,,,109331.80000007153,109331.80000007153,,109331.70000004768,,109182.58,8,400,,,
sequence,flow.Sequence,4_23,2023-08-30T13:36:48.586Z,,0,,,2855.191000071529,completion,,,,,false,,,,109331.80000007153,109331.80000007153,106457.335,106608.5,106476.609,109182.58,8,400,,,
trial,html.Screen,4_24_0,2023-08-30T13:36:51.951Z,,0,1,,3514.120000047682,response,ISIC_0014788.JPG,4,ISIC_0033594.JPG,ISIC_0033594.JPG,false,0,keypress(z),500,112697,112696.70000004768,109170.625,109331.89999997616,109182.58,112554.56,8,400,25,,ISIC_0014788.JPG
break,html.Screen,4_24_1,2023-08-30T13:36:51.953Z,,0,,,NaN,,,,,,false,,,,112698.30000007153,112698,,112697.30000007153,,112554.56,8,400,,,
break_continue,html.Screen,4_24_2,2023-08-30T13:36:51.953Z,,0,,,NaN,,,,,,false,,,,112698.89999997616,112698.80000007153,,112698.5,,112554.56,8,400,,,
sequence,flow.Sequence,4_24,2023-08-30T13:36:51.953Z,,0,,,3516.220000071524,completion,,,,,false,,,,112699,112698.80000007153,109170.625,109331.89999997616,109182.58,112554.56,8,400,,,
trial,html.Screen,4_25_0,2023-08-30T13:36:54.916Z,,0,1,,3106.640000047686,response,ISIC_7942881.JPG,6,ISIC_3601224.JPG,ISIC_3601224.JPG,false,0,keypress(z),500,115661.5,115661.20000004768,112547.111,112699.20000004768,112554.56,115528.787,8,400,26,,ISIC_7942881.JPG
break,html.Screen,4_25_1,2023-08-30T13:36:54.917Z,,0,,,NaN,,,,,,false,,,,115663,115662.60000002384,,115661.80000007153,,115528.787,8,400,,,
break_continue,html.Screen,4_25_2,2023-08-30T13:36:54.918Z,,0,,,NaN,,,,,,false,,,,115663.5,115663.39999997616,,115663.20000004768,,115528.787,8,400,,,
sequence,flow.Sequence,4_25,2023-08-30T13:36:54.918Z,,0,,,3108.8399999761605,completion,,,,,false,,,,115663.70000004768,115663.39999997616,112547.111,112699.20000004768,112554.56,115528.787,8,400,,,
trial,html.Screen,4_26_0,2023-08-30T13:36:58.121Z,,0,1,,3337.1129999761615,response,ISIC_9219692.JPG,5,ISIC_7253401.JPG,ISIC_9219692.JPG,false,1,keypress(m),500,118866.20000004768,118865.89999997616,115509.59,115663.89999997616,115528.787,118718.379,8,400,27,,ISIC_7253401.JPG
break,html.Screen,4_26_1,2023-08-30T13:36:58.123Z,,0,,,NaN,,,,,,false,,,,118868.10000002384,118867.10000002384,,118866.5,,118718.379,8,400,,,
break_continue,html.Screen,4_26_2,2023-08-30T13:36:58.123Z,,0,,,NaN,,,,,,false,,,,118868.89999997616,118868.70000004768,,118868.30000007153,,118718.379,8,400,,,
sequence,flow.Sequence,4_26,2023-08-30T13:36:58.123Z,,0,,,3339.913000047687,completion,,,,,false,,,,118869,118868.70000004768,115509.59,115663.80000007153,115528.787,118718.379,8,400,,,
trial,html.Screen,4_27_0,2023-08-30T13:37:01.232Z,,0,1,,3259.0209999761573,response,ISIC_3269018.JPG,4,ISIC_0305800.JPG,ISIC_0305800.JPG,false,0,keypress(z),500,121977.60000002384,121977.39999997616,118710.462,118869.10000002384,118718.379,121829.57,8,400,28,,ISIC_3269018.JPG
break,html.Screen,4_27_1,2023-08-30T13:37:01.234Z,,0,,,NaN,,,,,,false,,,,121979.20000004768,121978.5,,121977.89999997616,,121829.57,8,400,,,
break_continue,html.Screen,4_27_2,2023-08-30T13:37:01.234Z,,0,,,NaN,,,,,,false,,,,121979.39999997616,121979.39999997616,,121979.30000007153,,121829.57,8,400,,,
sequence,flow.Sequence,4_27,2023-08-30T13:37:01.234Z,,0,,,3261.0209999761573,completion,,,,,false,,,,121979.5,121979.39999997616,118710.462,118869.10000002384,118718.379,121829.57,8,400,,,
trial,html.Screen,4_28_0,2023-08-30T13:37:04.532Z,,0,1,,3447.429999999993,response,ISIC_3884221.JPG,5,ISIC_0027271.JPG,ISIC_0027271.JPG,false,0,keypress(z),500,125277.10000002384,125277,121827.392,121979.60000002384,121829.57,125129.413,8,400,29,,ISIC_3884221.JPG
break,html.Screen,4_28_1,2023-08-30T13:37:04.532Z,,0,,,NaN,,,,,,false,,,,125278,125277.70000004768,,125277.39999997616,,125129.413,8,400,,,
break_continue,html.Screen,4_28_2,2023-08-30T13:37:04.533Z,,0,,,NaN,,,,,,false,,,,125279,125278.39999997616,,125278.20000004768,,125129.413,8,400,,,
sequence,flow.Sequence,4_28,2023-08-30T13:37:04.533Z,,0,,,3448.829999976151,completion,,,,,false,,,,125279.10000002384,125278.39999997616,121827.392,121979.60000002384,121829.57,125129.413,8,400,,,
trial,html.Screen,4_29_0,2023-08-30T13:37:07.960Z,,0,1,,3575.5869999999995,response,ISIC_0069908.JPG,5,ISIC_7892362.JPG,ISIC_7892362.JPG,false,0,keypress(z),500,128705.10000002384,128705,125123.486,125279.20000004768,125129.413,128574.129,8,400,30,,ISIC_0069908.JPG
break,html.Screen,4_29_1,2023-08-30T13:37:07.962Z,,0,,,NaN,,,,,,false,,,,128707.30000007153,128707,,128705.5,,128574.129,8,400,,,
break_continue,html.Screen,4_29_2,2023-08-30T13:37:07.962Z,,0,,,NaN,,,,,,false,,,,128707.80000007153,128707.70000004768,,128707.5,,128574.129,8,400,,,
sequence,flow.Sequence,4_29,2023-08-30T13:37:07.962Z,,0,,,3578.2870000476833,completion,,,,,false,,,,128708,128707.70000004768,125123.486,125279.10000002384,125129.413,128574.129,8,400,,,
trial,html.Screen,4_30_0,2023-08-30T13:37:10.784Z,,0,1,,2954.7709999761573,response,ISIC_9948815.JPG,5,ISIC_0046526.JPG,ISIC_9948815.JPG,false,1,keypress(m),500,131529.20000004768,131528.89999997616,128549.513,128708.10000002384,128574.129,131381.052,8,400,31,,ISIC_0046526.JPG
break,html.Screen,4_30_1,2023-08-30T13:37:10.784Z,,0,,,NaN,,,,,,false,,,,131530,131529.80000007153,,131529.30000007153,,131381.052,8,400,,,
break_continue,html.Screen,4_30_2,2023-08-30T13:37:10.785Z,,0,,,NaN,,,,,,false,,,,131530.20000004768,131530.10000002384,,131530,,131381.052,8,400,,,
sequence,flow.Sequence,4_30,2023-08-30T13:37:10.785Z,,0,,,2955.971000023841,completion,,,,,false,,,,131530.30000007153,131530.10000002384,128549.513,128708,128574.129,131381.052,8,400,,,
trial,html.Screen,4_31_0,2023-08-30T13:37:13.571Z,,0,1,,2935.347999976162,response,ISIC_0032873.JPG,4,ISIC_9364740.JPG,ISIC_9364740.JPG,false,0,keypress(z),500,134316.60000002384,134316.39999997616,131369.945,131530.30000007153,131381.052,134168.674,8,400,32,,ISIC_0032873.JPG
break,html.Screen,4_31_1,2023-08-30T13:37:13.572Z,,0,,,NaN,,,,,,false,,,,134317.60000002384,134317.39999997616,,134316.89999997616,,134168.674,8,400,,,
break_continue,html.Screen,4_31_2,2023-08-30T13:37:13.572Z,,0,,,NaN,,,,,,false,,,,134318,134317.89999997616,,134317.70000004768,,134168.674,8,400,,,
sequence,flow.Sequence,4_31,2023-08-30T13:37:13.573Z,,0,,,2936.847999976162,completion,,,,,false,,,,134318.20000004768,134317.89999997616,131369.945,131530.30000007153,131381.052,134168.674,8,400,,,
trial,html.Screen,4_32_0,2023-08-30T13:37:16.631Z,,0,1,,3207.725999976159,response,ISIC_0032433.JPG,5,ISIC_1434141.JPG,ISIC_0032433.JPG,false,1,keypress(m),500,137376.70000004768,137376.39999997616,134159.049,134318.30000007153,134168.674,137228.86,8,400,33,,ISIC_1434141.JPG
break,html.Screen,4_32_1,2023-08-30T13:37:16.632Z,,0,,,NaN,,,,,,false,,,,137378,137377.80000007153,,137377.30000007153,,137228.86,8,400,,,
break_continue,html.Screen,4_32_2,2023-08-30T13:37:16.633Z,,0,,,NaN,,,,,,false,,,,137378.39999997616,137378.30000007153,,137378.20000004768,,137228.86,8,400,,,
sequence,flow.Sequence,4_32,2023-08-30T13:37:16.633Z,,0,,,3209.6260000715265,completion,,,,,false,,,,137378.39999997616,137378.30000007153,134159.049,134318.20000004768,134168.674,137228.86,8,400,,,
trial,html.Screen,4_33_0,2023-08-30T13:37:19.843Z,,0,1,,3359.3400000476977,response,ISIC_4534608.JPG,5,ISIC_9142919.JPG,ISIC_9142919.JPG,false,0,keypress(z),500,140588.39999997616,140588.20000004768,137220.082,137378.60000002384,137228.86,140440.549,8,400,34,,ISIC_4534608.JPG
break,html.Screen,4_33_1,2023-08-30T13:37:19.845Z,,0,,,NaN,,,,,,false,,,,140590.30000007153,140589.30000007153,,140588.70000004768,,140440.549,8,400,,,
break_continue,html.Screen,4_33_2,2023-08-30T13:37:19.845Z,,0,,,NaN,,,,,,false,,,,140591.10000002384,140590.89999997616,,140590.60000002384,,140440.549,8,400,,,
sequence,flow.Sequence,4_33,2023-08-30T13:37:19.846Z,,0,,,3362.039999976172,completion,,,,,false,,,,140591.30000007153,140590.89999997616,137220.082,137378.60000002384,137228.86,140440.549,8,400,,,
trial,html.Screen,4_34_0,2023-08-30T13:37:22.363Z,,0,1,,2667.350999976159,response,ISIC_7354733.JPG,5,ISIC_5306427.JPG,ISIC_5306427.JPG,false,0,keypress(z),500,143108.10000002384,143107.89999997616,140437.792,140591.39999997616,140440.549,142960.335,8,400,35,,ISIC_7354733.JPG
break,html.Screen,4_34_1,2023-08-30T13:37:22.364Z,,0,,,NaN,,,,,,false,,,,143109.20000004768,143109,,143108.30000007153,,142960.335,8,400,,,
break_continue,html.Screen,4_34_2,2023-08-30T13:37:22.365Z,,0,,,NaN,,,,,,false,,,,143110.20000004768,143110.10000002384,,143110,,142960.335,8,400,,,
sequence,flow.Sequence,4_34,2023-08-30T13:37:22.365Z,,0,,,2669.551000023843,completion,,,,,false,,,,143110.20000004768,143110.10000002384,140437.792,140591.39999997616,140440.549,142960.335,8,400,,,
trial,html.Screen,4_35_0,2023-08-30T13:37:25.152Z,,0,1,,2936.4650000715337,response,ISIC_0011295.JPG,5,ISIC_0027836.JPG,ISIC_0027836.JPG,false,0,keypress(z),500,145897.10000002384,145896.80000007153,142958.789,143110.30000007153,142960.335,145749.19,8,400,36,,ISIC_0011295.JPG
break,html.Screen,4_35_1,2023-08-30T13:37:25.153Z,,0,,,NaN,,,,,,false,,,,145899,145898,,145897.30000007153,,145749.19,8,400,,,
break_continue,html.Screen,4_35_2,2023-08-30T13:37:25.154Z,,0,,,NaN,,,,,,false,,,,145899.70000004768,145899.60000002384,,145899.30000007153,,145749.19,8,400,,,
sequence,flow.Sequence,4_35,2023-08-30T13:37:25.154Z,,0,,,2939.26500002385,completion,,,,,false,,,,145899.89999997616,145899.60000002384,142958.789,143110.30000007153,142960.335,145749.19,8,400,,,
trial,html.Screen,4_36_0,2023-08-30T13:37:27.989Z,,0,1,,2984.709999976156,response,ISIC_0025451.JPG,6,ISIC_0033125.JPG,ISIC_0025451.JPG,false,1,keypress(m),500,148734.20000004768,148733.89999997616,145746.633,145900,145749.19,148586.275,8,400,37,,ISIC_0033125.JPG
break,html.Screen,4_36_1,2023-08-30T13:37:27.990Z,,0,,,NaN,,,,,,false,,,,148736,148734.89999997616,,148734.30000007153,,148586.275,8,400,,,
break_continue,html.Screen,4_36_2,2023-08-30T13:37:27.991Z,,0,,,NaN,,,,,,false,,,,148736.60000002384,148736.5,,148736.10000002384,,148586.275,8,400,,,
sequence,flow.Sequence,4_36,2023-08-30T13:37:27.991Z,,0,,,2987.3099999999977,completion,,,,,false,,,,148736.80000007153,148736.5,145746.633,145900,145749.19,148586.275,8,400,,,
trial,html.Screen,4_37_0,2023-08-30T13:37:33.163Z,,0,1,,5321.825000023848,response,ISIC_0056677.JPG,5,ISIC_0065807.JPG,ISIC_0065807.JPG,false,0,keypress(z),500,153908.39999997616,153908.10000002384,148576.631,148736.89999997616,148586.275,153760.558,8,400,38,,ISIC_0056677.JPG
break,html.Screen,4_37_1,2023-08-30T13:37:33.165Z,,0,,,NaN,,,,,,false,,,,153910.30000007153,153909.39999997616,,153908.80000007153,,153760.558,8,400,,,
break_continue,html.Screen,4_37_2,2023-08-30T13:37:33.166Z,,0,,,NaN,,,,,,false,,,,153911.20000004768,153910.89999997616,,153910.5,,153760.558,8,400,,,
sequence,flow.Sequence,4_37,2023-08-30T13:37:33.166Z,,0,,,5324.624999976164,completion,,,,,false,,,,153911.39999997616,153910.89999997616,148576.631,148736.89999997616,148586.275,153760.558,8,400,,,
trial,html.Screen,4_38_0,2023-08-30T13:37:38.128Z,,0,1,,5112.742000071536,response,ISIC_0011799.JPG,5,ISIC_0015035.JPG,ISIC_0011799.JPG,false,1,keypress(m),500,158873.5,158873.30000007153,153756.909,153911.60000002384,153760.558,158725.732,8,400,39,,ISIC_0015035.JPG
break,html.Screen,4_38_1,2023-08-30T13:37:38.130Z,,0,,,NaN,,,,,,false,,,,158875.39999997616,158874.39999997616,,158873.80000007153,,158725.732,8,400,,,
break_continue,html.Screen,4_38_2,2023-08-30T13:37:38.131Z,,0,,,NaN,,,,,,false,,,,158876.20000004768,158876,,158875.60000002384,,158725.732,8,400,,,
sequence,flow.Sequence,4_38,2023-08-30T13:37:38.131Z,,0,,,5115.44200000001,completion,,,,,false,,,,158876.30000007153,158876,153756.909,153911.60000002384,153760.558,158725.732,8,400,,,
trial,html.Screen,4_39_0,2023-08-30T13:37:44.566Z,,0,1,,6585.268000000011,response,ISIC_0033114.JPG,4,ISIC_0064463.JPG,ISIC_0064463.JPG,false,0,keypress(z),500,165311.30000007153,165311,158721.138,158876.60000002384,158725.732,165163.518,8,400,40,,ISIC_0033114.JPG
break,html.Screen,4_39_1,2023-08-30T13:37:44.567Z,,0,,,NaN,,,,,,false,,,,165312.5,165312.30000007153,,165311.60000002384,,165163.518,8,400,,,
break_continue,html.Screen,4_39_2,2023-08-30T13:37:44.567Z,,0,,,NaN,,,,,,false,,,,165313.10000002384,165313,,165312.70000004768,,165163.518,8,400,,,
sequence,flow.Sequence,4_39,2023-08-30T13:37:44.568Z,,0,,,6587.268000000011,completion,,,,,false,,,,165313.20000004768,165313,158721.138,158876.5,158725.732,165163.518,8,400,,,
trial,html.Screen,4_40_0,2023-08-30T13:37:50.569Z,,0,1,,6151.182000047673,response,ISIC_0071972.JPG,6,ISIC_0029910.JPG,ISIC_0029910.JPG,false,0,keypress(z),500,171314.89999997616,171314.70000004768,165161.76,165313.20000004768,165163.518,171166.961,8,400,41,,ISIC_0071972.JPG
break,html.Screen,4_40_1,2023-08-30T13:37:50.571Z,,0,,,NaN,,,,,,false,,,,171316.60000002384,171315.70000004768,,171315.10000002384,,171166.961,8,400,,,
break_continue,html.Screen,4_40_2,2023-08-30T13:37:50.572Z,,0,,,NaN,,,,,,false,,,,171317.20000004768,171317,,171316.70000004768,,171166.961,8,400,,,
sequence,flow.Sequence,4_40,2023-08-30T13:37:50.572Z,,0,,,6153.481999999989,completion,,,,,false,,,,171317.30000007153,171317,165161.76,165313.20000004768,165163.518,171166.961,8,400,,,
trial,html.Screen,4_41_0,2023-08-30T13:37:53.742Z,,0,1,,3320.6390000238316,response,ISIC_0028444.JPG,6,ISIC_8814672.JPG,ISIC_8814672.JPG,false,0,keypress(z),500,174487.89999997616,174487.60000002384,171149.495,171317.39999997616,171166.961,174339.945,8,400,42,,ISIC_0028444.JPG
break,html.Screen,4_41_1,2023-08-30T13:37:53.744Z,,0,,,NaN,,,,,,false,,,,174489.70000004768,174488.80000007153,,174488.10000002384,,174339.945,8,400,,,
break_continue,html.Screen,4_41_2,2023-08-30T13:37:53.745Z,,0,,,NaN,,,,,,false,,,,174490.30000007153,174490.20000004768,,174489.89999997616,,174339.945,8,400,,,
sequence,flow.Sequence,4_41,2023-08-30T13:37:53.745Z,,0,,,3323.2390000476735,completion,,,,,false,,,,174490.5,174490.20000004768,171149.495,171317.30000007153,171166.961,174339.945,8,400,,,
trial,html.Screen,4_42_0,2023-08-30T13:37:59.514Z,,0,1,,5918.855000071519,response,ISIC_0032723.JPG,5,ISIC_0025573.JPG,ISIC_0032723.JPG,false,1,keypress(m),500,180259.10000002384,180258.80000007153,174337.991,174490.60000002384,174339.945,180111.24,8,400,43,,ISIC_0025573.JPG
break,html.Screen,4_42_1,2023-08-30T13:37:59.515Z,,0,,,NaN,,,,,,false,,,,180260.89999997616,180260,,180259.39999997616,,180111.24,8,400,,,
break_continue,html.Screen,4_42_2,2023-08-30T13:37:59.516Z,,0,,,NaN,,,,,,false,,,,180261.60000002384,180261.39999997616,,180261.10000002384,,180111.24,8,400,,,
sequence,flow.Sequence,4_42,2023-08-30T13:37:59.516Z,,0,,,5921.454999976151,completion,,,,,false,,,,180261.80000007153,180261.39999997616,174337.991,174490.60000002384,174339.945,180111.24,8,400,,,
trial,html.Screen,4_43_0,2023-08-30T13:38:02.510Z,,0,1,,3144.460000047693,response,ISIC_7297078.JPG,4,ISIC_8505412.JPG,ISIC_8505412.JPG,false,0,keypress(z),500,183256,183255.70000004768,180108.872,180261.89999997616,180111.24,183124.969,8,400,44,,ISIC_7297078.JPG
break,html.Screen,4_43_1,2023-08-30T13:38:02.512Z,,0,,,NaN,,,,,,false,,,,183257.80000007153,183256.89999997616,,183256.20000004768,,183124.969,8,400,,,
break_continue,html.Screen,4_43_2,2023-08-30T13:38:02.513Z,,0,,,NaN,,,,,,false,,,,183258.39999997616,183258.20000004768,,183258,,183124.969,8,400,,,
sequence,flow.Sequence,4_43,2023-08-30T13:38:02.513Z,,0,,,3146.960000047693,completion,,,,,false,,,,183258.5,183258.20000004768,180108.872,180261.89999997616,180111.24,183124.969,8,400,,,
trial,html.Screen,4_44_0,2023-08-30T13:38:07.574Z,,0,1,,5194.030999999988,response,ISIC_0005681.JPG,5,ISIC_0066223.JPG,ISIC_0005681.JPG,false,1,keypress(m),500,188319.30000007153,188319,183103.307,183258.70000004768,183124.969,188171.547,8,400,45,,ISIC_0066223.JPG
break,html.Screen,4_44_1,2023-08-30T13:38:07.576Z,,0,,,NaN,,,,,,false,,,,188321.30000007153,188320.20000004768,,188319.60000002384,,188171.547,8,400,,,
break_continue,html.Screen,4_44_2,2023-08-30T13:38:07.576Z,,0,,,NaN,,,,,,false,,,,188321.70000004768,188321.60000002384,,188321.39999997616,,188171.547,8,400,,,
sequence,flow.Sequence,4_44,2023-08-30T13:38:07.576Z,,0,,,5196.63100002383,completion,,,,,false,,,,188322,188321.60000002384,183103.307,183258.5,183124.969,188171.547,8,400,,,
trial,html.Screen,4_45_0,2023-08-30T13:38:14.010Z,,0,1,,6583.753000071534,response,ISIC_4248013.JPG,5,ISIC_0029353.JPG,ISIC_4248013.JPG,false,1,keypress(m),500,194755.60000002384,194755.30000007153,188168.659,188322.10000002384,188171.547,194607.817,8,400,46,,ISIC_0029353.JPG
break,html.Screen,4_45_1,2023-08-30T13:38:14.012Z,,0,,,NaN,,,,,,false,,,,194757.5,194756.60000002384,,194755.89999997616,,194607.817,8,400,,,
break_continue,html.Screen,4_45_2,2023-08-30T13:38:14.013Z,,0,,,NaN,,,,,,false,,,,194758.30000007153,194758.10000002384,,194757.60000002384,,194607.817,8,400,,,
sequence,flow.Sequence,4_45,2023-08-30T13:38:14.013Z,,0,,,6586.5530000238505,completion,,,,,false,,,,194758.5,194758.10000002384,188168.659,188322,188171.547,194607.817,8,400,,,
trial,html.Screen,4_46_0,2023-08-30T13:38:16.871Z,,0,1,,3008.8830000476737,response,ISIC_9239093.JPG,5,ISIC_0060962.JPG,ISIC_9239093.JPG,false,1,keypress(m),500,197616.89999997616,197616.70000004768,194598.985,194758.60000002384,194607.817,197469.239,8,400,47,,ISIC_0060962.JPG
break,html.Screen,4_46_1,2023-08-30T13:38:16.873Z,,0,,,NaN,,,,,,false,,,,197618.20000004768,197617.80000007153,,197617.20000004768,,197469.239,8,400,,,
break_continue,html.Screen,4_46_2,2023-08-30T13:38:16.873Z,,0,,,NaN,,,,,,false,,,,197618.80000007153,197618.70000004768,,197618.39999997616,,197469.239,8,400,,,
sequence,flow.Sequence,4_46,2023-08-30T13:38:16.873Z,,0,,,3010.8830000476737,completion,,,,,false,,,,197618.89999997616,197618.70000004768,194598.985,194758.60000002384,194607.817,197469.239,8,400,,,
trial,html.Screen,4_47_0,2023-08-30T13:38:19.564Z,,0,1,,2840.4610000476823,response,ISIC_0000519.JPG,5,ISIC_0029495.JPG,ISIC_0029495.JPG,false,0,keypress(z),500,200310,200309.70000004768,197466.249,197619.10000002384,197469.239,200175.757,8,400,48,,ISIC_0000519.JPG
break,html.Screen,4_47_1,2023-08-30T13:38:19.565Z,,0,,,NaN,,,,,,false,,,,200310.80000007153,200310.60000002384,,200310.10000002384,,200175.757,8,400,,,
break_continue,html.Screen,4_47_2,2023-08-30T13:38:19.565Z,,0,,,NaN,,,,,,false,,,,200311.10000002384,200311,,200310.89999997616,,200175.757,8,400,,,
sequence,flow.Sequence,4_47,2023-08-30T13:38:19.566Z,,0,,,2841.7609999999986,completion,,,,,false,,,,200311.20000004768,200311,197466.249,197619,197469.239,200175.757,8,400,,,
trial,html.Screen,4_48_0,2023-08-30T13:38:22.863Z,,0,1,,3432.642999976146,response,ISIC_1690909.JPG,5,ISIC_0010772.JPG,ISIC_1690909.JPG,false,1,keypress(m),500,203608.60000002384,203608.39999997616,200154.802,200311.30000007153,200175.757,203460.803,8,400,49,,ISIC_0010772.JPG
break,html.Screen,4_48_1,2023-08-30T13:38:22.865Z,,0,,,NaN,,,,,,false,,,,203610.5,203609.5,,203608.89999997616,,203460.803,8,400,,,
break_continue,html.Screen,4_48_2,2023-08-30T13:38:22.866Z,,0,,,NaN,,,,,,false,,,,203611.20000004768,203611,,203610.70000004768,,203460.803,8,400,,,
sequence,flow.Sequence,4_48,2023-08-30T13:38:22.866Z,,0,,,3435.2429999999877,completion,,,,,false,,,,203611.39999997616,203611,200154.802,200311.20000004768,200175.757,203460.803,8,400,,,
trial,html.Screen,4_49_0,2023-08-30T13:38:30.132Z,,0,1,,7416.096999976144,response,ISIC_0027514.JPG,5,ISIC_0432236.JPG,ISIC_0027514.JPG,false,1,keypress(m),500,210877.10000002384,210876.89999997616,203457.37,203611.60000002384,203460.803,210729.431,8,400,50,,ISIC_0432236.JPG
break,html.Screen,4_49_1,2023-08-30T13:38:34.983Z,,0,,,4862.951000000001,timeout,,,,,false,,,,215728.89999997616,215728.70000004768,210723.146,210877.39999997616,210729.431,215592.382,8,400,,,
break_continue,html.Screen,4_49_2,2023-08-30T13:41:43.037Z,,0,,,188177.9180000715,response,,,,,false,continue,keypress(Space),,403782.8000000715,403770.3000000715,215728.70000004768,215729.10000002384,215592.382,403634.494,8,400,,,
sequence,flow.Sequence,4_49,2023-08-30T13:41:43.037Z,,0,,,200309.4970000715,completion,,,,,false,,,,403782.89999997616,403770.3000000715,203457.37,203611.5,203460.803,403634.494,8,400,,,
trial,html.Screen,4_50_0,2023-08-30T13:41:45.696Z,,0,2,,2807.3060000715195,response,ISIC_0013311.JPG,5,ISIC_0029028.JPG,ISIC_0013311.JPG,false,1,keypress(m),500,406441.89999997616,406441.8000000715,403626.637,403783,403634.494,406299.028,8,400,1,,ISIC_0029028.JPG
break,html.Screen,4_50_1,2023-08-30T13:41:45.697Z,,0,,,NaN,,,,,,false,,,,406443.2000000477,406442.89999997616,,406442,,406299.028,8,400,,,
break_continue,html.Screen,4_50_2,2023-08-30T13:41:45.698Z,,0,,,NaN,,,,,,false,,,,406443.5,406443.5,,406443.3000000715,,406299.028,8,400,,,
sequence,flow.Sequence,4_50,2023-08-30T13:41:45.698Z,,0,,,2809.005999999994,completion,,,,,false,,,,406443.7000000477,406443.5,403626.637,403783,403634.494,406299.028,8,400,,,
trial,html.Screen,4_51_0,2023-08-30T13:41:48.580Z,,0,2,,3026.2720000715344,response,ISIC_6393611.JPG,5,ISIC_2642742.JPG,ISIC_6393611.JPG,false,1,keypress(m),500,409325.5,409325.3000000715,406289.814,406443.8000000715,406299.028,409177.489,8,400,2,,ISIC_2642742.JPG
break,html.Screen,4_51_1,2023-08-30T13:41:48.580Z,,0,,,NaN,,,,,,false,,,,409326.3000000715,409326,,409325.8000000715,,409177.489,8,400,,,
break_continue,html.Screen,4_51_2,2023-08-30T13:41:48.581Z,,0,,,NaN,,,,,,false,,,,409327,409326.7000000477,,409326.5,,409177.489,8,400,,,
sequence,flow.Sequence,4_51,2023-08-30T13:41:48.581Z,,0,,,3027.6720000476926,completion,,,,,false,,,,409327.2000000477,409326.7000000477,406289.814,406443.7000000477,406299.028,409177.489,8,400,,,
trial,html.Screen,4_52_0,2023-08-30T13:41:51.386Z,,0,2,,2954.2110000476823,response,ISIC_6895016.JPG,5,ISIC_0015179.JPG,ISIC_6895016.JPG,false,1,keypress(m),500,412132,412131.7000000477,409173.815,409327.3000000715,409177.489,411993.522,8,400,3,,ISIC_0015179.JPG
break,html.Screen,4_52_1,2023-08-30T13:41:51.387Z,,0,,,NaN,,,,,,false,,,,412132.8000000715,412132.5,,412132.10000002384,,411993.522,8,400,,,
break_continue,html.Screen,4_52_2,2023-08-30T13:41:51.387Z,,0,,,NaN,,,,,,false,,,,412133.2000000477,412133.10000002384,,412133,,411993.522,8,400,,,
sequence,flow.Sequence,4_52,2023-08-30T13:41:51.387Z,,0,,,2955.6110000238405,completion,,,,,false,,,,412133.2000000477,412133.10000002384,409173.815,409327.3000000715,409177.489,411993.522,8,400,,,
trial,html.Screen,4_53_0,2023-08-30T13:41:54.833Z,,0,2,,3584.978000000003,response,ISIC_6037869.JPG,4,ISIC_4000087.JPG,ISIC_4000087.JPG,false,0,keypress(z),500,415578.7000000477,415578.5,411972.711,412133.2000000477,411993.522,415439.156,8,400,4,,ISIC_6037869.JPG
break,html.Screen,4_53_1,2023-08-30T13:41:54.833Z,,0,,,NaN,,,,,,false,,,,415579.39999997616,415579.10000002384,,415578.89999997616,,415439.156,8,400,,,
break_continue,html.Screen,4_53_2,2023-08-30T13:41:54.834Z,,0,,,NaN,,,,,,false,,,,415579.7000000477,415579.60000002384,,415579.5,,415439.156,8,400,,,
sequence,flow.Sequence,4_53,2023-08-30T13:41:54.834Z,,0,,,3586.0780000238447,completion,,,,,false,,,,415579.8000000715,415579.60000002384,411972.711,412133.2000000477,411993.522,415439.156,8,400,,,
trial,html.Screen,4_54_0,2023-08-30T13:41:57.420Z,,0,2,,2726.0440000476665,response,ISIC_6668093.JPG,5,ISIC_0074311.JPG,ISIC_0074311.JPG,false,0,keypress(z),500,418165.60000002384,418165.2000000477,415428.534,415579.8000000715,415439.156,418017.249,8,400,5,,ISIC_6668093.JPG
break,html.Screen,4_54_1,2023-08-30T13:41:57.421Z,,0,,,NaN,,,,,,false,,,,418166.5,418166.10000002384,,418165.7000000477,,418017.249,8,400,,,
break_continue,html.Screen,4_54_2,2023-08-30T13:41:57.421Z,,0,,,NaN,,,,,,false,,,,418166.8000000715,418166.8000000715,,418166.60000002384,,418017.249,8,400,,,
sequence,flow.Sequence,4_54,2023-08-30T13:41:57.421Z,,0,,,2727.6440000715083,completion,,,,,false,,,,418166.89999997616,418166.8000000715,415428.534,415579.8000000715,415439.156,418017.249,8,400,,,
trial,html.Screen,4_55_0,2023-08-30T13:42:00.143Z,,0,2,,2871.051000071515,response,ISIC_0024275.JPG,5,ISIC_0072953.JPG,ISIC_0024275.JPG,false,1,keypress(m),500,420888.5,420888.3000000715,418000.982,418167,418017.249,420740.138,8,400,6,,ISIC_0072953.JPG
break,html.Screen,4_55_1,2023-08-30T13:42:00.144Z,,0,,,NaN,,,,,,false,,,,420889.89999997616,420889.3000000715,,420888.60000002384,,420740.138,8,400,,,
break_continue,html.Screen,4_55_2,2023-08-30T13:42:00.144Z,,0,,,NaN,,,,,,false,,,,420890.3000000715,420890.10000002384,,420890,,420740.138,8,400,,,
sequence,flow.Sequence,4_55,2023-08-30T13:42:00.145Z,,0,,,2872.851000023831,completion,,,,,false,,,,420890.60000002384,420890.10000002384,418000.982,418167,418017.249,420740.138,8,400,,,
trial,html.Screen,4_56_0,2023-08-30T13:42:07.382Z,,0,2,,7387.962000023865,response,ISIC_7670304.JPG,5,ISIC_0056660.JPG,ISIC_7670304.JPG,false,1,keypress(m),500,428128.3000000715,428128.10000002384,420738.844,420890.7000000477,420740.138,427980.219,8,400,7,,ISIC_0056660.JPG
break,html.Screen,4_56_1,2023-08-30T13:42:07.384Z,,0,,,NaN,,,,,,false,,,,428130.10000002384,428129.2000000477,,428128.60000002384,,427980.219,8,400,,,
break_continue,html.Screen,4_56_2,2023-08-30T13:42:07.384Z,,0,,,NaN,,,,,,false,,,,428130.39999997616,428130.2000000477,,428130.10000002384,,427980.219,8,400,,,
sequence,flow.Sequence,4_56,2023-08-30T13:42:07.384Z,,0,,,7390.0620000477065,completion,,,,,false,,,,428130.39999997616,428130.2000000477,420738.844,420890.7000000477,420740.138,427980.219,8,400,,,
trial,html.Screen,4_57_0,2023-08-30T13:42:11.370Z,,0,2,,4135.781000000017,response,ISIC_3650533.JPG,5,ISIC_4141315.JPG,ISIC_3650533.JPG,false,1,keypress(m),500,432116.39999997616,432116,427977.304,428130.5,427980.219,431968.487,8,400,8,,ISIC_4141315.JPG
break,html.Screen,4_57_1,2023-08-30T13:42:11.372Z,,0,,,NaN,,,,,,false,,,,432118.2000000477,432117.3000000715,,432116.60000002384,,431968.487,8,400,,,
break_continue,html.Screen,4_57_2,2023-08-30T13:42:11.373Z,,0,,,NaN,,,,,,false,,,,432118.89999997616,432118.7000000477,,432118.39999997616,,431968.487,8,400,,,
sequence,flow.Sequence,4_57,2023-08-30T13:42:11.373Z,,0,,,4138.481000047701,completion,,,,,false,,,,432119,432118.7000000477,427977.304,428130.5,427980.219,431968.487,8,400,,,
trial,html.Screen,4_58_0,2023-08-30T13:42:21.423Z,,0,2,,10200.012999999977,response,ISIC_6062657.JPG,5,ISIC_0030749.JPG,ISIC_6062657.JPG,false,1,keypress(m),500,442168.8000000715,442168.5,431964.083,432119.2000000477,431968.487,442026.436,8,400,9,,ISIC_0030749.JPG
break,html.Screen,4_58_1,2023-08-30T13:42:21.424Z,,0,,,NaN,,,,,,false,,,,442170,442169.7000000477,,442169,,442026.436,8,400,,,
break_continue,html.Screen,4_58_2,2023-08-30T13:42:21.425Z,,0,,,NaN,,,,,,false,,,,442170.7000000477,442170.39999997616,,442170.2000000477,,442026.436,8,400,,,
sequence,flow.Sequence,4_58,2023-08-30T13:42:21.425Z,,0,,,10201.912999976135,completion,,,,,false,,,,442170.89999997616,442170.39999997616,431964.083,432119.2000000477,431968.487,442026.436,8,400,,,
trial,html.Screen,4_59_0,2023-08-30T13:42:25.162Z,,0,2,,3881.8640000715386,response,ISIC_8513112.JPG,5,ISIC_0033279.JPG,ISIC_8513112.JPG,false,1,keypress(m),500,445908.5,445908.3000000715,442019.485,442171,442026.436,445760.773,8,400,10,,ISIC_0033279.JPG
break,html.Screen,4_59_1,2023-08-30T13:42:25.163Z,,0,,,NaN,,,,,,false,,,,445909.3000000715,445909.10000002384,,445908.60000002384,,445760.773,8,400,,,
break_continue,html.Screen,4_59_2,2023-08-30T13:42:25.164Z,,0,,,NaN,,,,,,false,,,,445910.3000000715,445910.3000000715,,445909.39999997616,,445760.773,8,400,,,
sequence,flow.Sequence,4_59,2023-08-30T13:42:25.165Z,,0,,,3883.8640000715386,completion,,,,,false,,,,445910.5,445910.3000000715,442019.485,442171,442026.436,445760.773,8,400,,,
trial,html.Screen,4_60_0,2023-08-30T13:42:29.326Z,,0,2,,4310.927000047697,response,ISIC_0963536.JPG,5,ISIC_8052769.JPG,ISIC_0963536.JPG,false,1,keypress(m),500,450071.89999997616,450071.7000000477,445759.179,445910.60000002384,445760.773,449924.04,8,400,11,,ISIC_8052769.JPG
break,html.Screen,4_60_1,2023-08-30T13:42:29.327Z,,0,,,NaN,,,,,,false,,,,450072.89999997616,450072.7000000477,,450072.2000000477,,449924.04,8,400,,,
break_continue,html.Screen,4_60_2,2023-08-30T13:42:29.327Z,,0,,,NaN,,,,,,false,,,,450073.2000000477,450073.10000002384,,450073,,449924.04,8,400,,,
sequence,flow.Sequence,4_60,2023-08-30T13:42:29.327Z,,0,,,4312.327000023855,completion,,,,,false,,,,450073.3000000715,450073.10000002384,445759.179,445910.60000002384,445760.773,449924.04,8,400,,,
trial,html.Screen,4_61_0,2023-08-30T13:42:35.107Z,,0,2,,5928.960000000021,response,ISIC_0029660.JPG,5,ISIC_8447658.JPG,ISIC_0029660.JPG,false,1,keypress(m),500,455853.3000000715,455853,449921.779,450073.3000000715,449924.04,455722.534,8,400,12,,ISIC_8447658.JPG
break,html.Screen,4_61_1,2023-08-30T13:42:35.108Z,,0,,,NaN,,,,,,false,,,,455854.3000000715,455854.10000002384,,455853.60000002384,,455722.534,8,400,,,
break_continue,html.Screen,4_61_2,2023-08-30T13:42:35.109Z,,0,,,NaN,,,,,,false,,,,455854.89999997616,455854.8000000715,,455854.39999997616,,455722.534,8,400,,,
sequence,flow.Sequence,4_61,2023-08-30T13:42:35.109Z,,0,,,5930.7600000715465,completion,,,,,false,,,,455855,455854.8000000715,449921.779,450073.3000000715,449924.04,455722.534,8,400,,,
trial,html.Screen,4_62_0,2023-08-30T13:42:42.250Z,,0,2,,7273.365999976173,response,ISIC_9744305.JPG,5,ISIC_0024987.JPG,ISIC_9744305.JPG,false,1,keypress(m),500,462996.2000000477,462995.89999997616,455692.748,455855.2000000477,455722.534,462848.45,8,400,13,,ISIC_0024987.JPG
break,html.Screen,4_62_1,2023-08-30T13:42:42.252Z,,0,,,NaN,,,,,,false,,,,462998.2000000477,462997,,462996.5,,462848.45,8,400,,,
break_continue,html.Screen,4_62_2,2023-08-30T13:42:42.253Z,,0,,,NaN,,,,,,false,,,,462998.89999997616,462998.7000000477,,462998.3000000715,,462848.45,8,400,,,
sequence,flow.Sequence,4_62,2023-08-30T13:42:42.253Z,,0,,,7276.166000047699,completion,,,,,false,,,,462999.3000000715,462998.7000000477,455692.748,455855.10000002384,455722.534,462848.45,8,400,,,
trial,html.Screen,4_63_0,2023-08-30T13:42:50.818Z,,0,2,,8714.65000002383,response,ISIC_0054982.JPG,5,ISIC_8073555.JPG,ISIC_0054982.JPG,false,1,keypress(m),500,471563.39999997616,471563.10000002384,462837.626,462999.39999997616,462848.45,471415.654,8,400,14,,ISIC_8073555.JPG
break,html.Screen,4_63_1,2023-08-30T13:42:50.820Z,,0,,,NaN,,,,,,false,,,,471565.3000000715,471564.2000000477,,471563.60000002384,,471415.654,8,400,,,
break_continue,html.Screen,4_63_2,2023-08-30T13:42:50.820Z,,0,,,NaN,,,,,,false,,,,471566,471565.89999997616,,471565.5,,471415.654,8,400,,,
sequence,flow.Sequence,4_63,2023-08-30T13:42:50.821Z,,0,,,8717.449999976147,completion,,,,,false,,,,471566.10000002384,471565.89999997616,462837.626,462999.39999997616,462848.45,471415.654,8,400,,,
trial,html.Screen,4_64_0,2023-08-30T13:42:56.695Z,,0,2,,6024.546000047703,response,ISIC_9355535.JPG,5,ISIC_4375524.JPG,ISIC_4375524.JPG,false,0,keypress(z),500,477440.5,477440.2000000477,471413.77,471566.3000000715,471415.654,477292.513,8,400,15,,ISIC_9355535.JPG
break,html.Screen,4_64_1,2023-08-30T13:42:56.696Z,,0,,,NaN,,,,,,false,,,,477441.5,477441.2000000477,,477440.7000000477,,477292.513,8,400,,,
break_continue,html.Screen,4_64_2,2023-08-30T13:42:56.696Z,,0,,,NaN,,,,,,false,,,,477441.89999997616,477441.7000000477,,477441.60000002384,,477292.513,8,400,,,
sequence,flow.Sequence,4_64,2023-08-30T13:42:56.696Z,,0,,,6026.046000047703,completion,,,,,false,,,,477442.10000002384,477441.7000000477,471413.77,471566.2000000477,471415.654,477292.513,8,400,,,
trial,html.Screen,4_65_0,2023-08-30T13:42:59.570Z,,0,2,,3022.7870000715484,response,ISIC_3784812.JPG,5,ISIC_4311777.JPG,ISIC_4311777.JPG,false,0,keypress(z),500,480315.60000002384,480315.3000000715,477289.333,477442.10000002384,477292.513,480168.129,8,400,16,,ISIC_3784812.JPG
break,html.Screen,4_65_1,2023-08-30T13:42:59.571Z,,0,,,NaN,,,,,,false,,,,480316.89999997616,480316.5,,480315.89999997616,,480168.129,8,400,,,
break_continue,html.Screen,4_65_2,2023-08-30T13:42:59.572Z,,0,,,NaN,,,,,,false,,,,480317.89999997616,480317.8000000715,,480317,,480168.129,8,400,,,
sequence,flow.Sequence,4_65,2023-08-30T13:42:59.572Z,,0,,,3025.2870000715484,completion,,,,,false,,,,480318.10000002384,480317.8000000715,477289.333,477442.10000002384,477292.513,480168.129,8,400,,,
trial,html.Screen,4_66_0,2023-08-30T13:43:02.726Z,,0,2,,3303.5710000476683,response,ISIC_8479913.JPG,5,ISIC_3372067.JPG,ISIC_8479913.JPG,false,1,keypress(m),500,483471.89999997616,483471.7000000477,480162.71,480318.2000000477,480168.129,483323.617,8,400,17,,ISIC_3372067.JPG
break,html.Screen,4_66_1,2023-08-30T13:43:02.727Z,,0,,,NaN,,,,,,false,,,,483473,483472.8000000715,,483472,,483323.617,8,400,,,
break_continue,html.Screen,4_66_2,2023-08-30T13:43:02.728Z,,0,,,NaN,,,,,,false,,,,483473.2000000477,483473.10000002384,,483473,,483323.617,8,400,,,
sequence,flow.Sequence,4_66,2023-08-30T13:43:02.728Z,,0,,,3304.9710000238265,completion,,,,,false,,,,483473.3000000715,483473.10000002384,480162.71,480318.2000000477,480168.129,483323.617,8,400,,,
trial,html.Screen,4_67_0,2023-08-30T13:43:05.585Z,,0,2,,3006.8829999999725,response,ISIC_1566428.JPG,4,ISIC_0029405.JPG,ISIC_0029405.JPG,false,0,keypress(z),500,486330.7000000477,486330.5,483315.232,483473.3000000715,483323.617,486182.576,8,400,18,,ISIC_1566428.JPG
break,html.Screen,4_67_1,2023-08-30T13:43:05.587Z,,0,,,NaN,,,,,,false,,,,486332.39999997616,486331.5,,486330.89999997616,,486182.576,8,400,,,
break_continue,html.Screen,4_67_2,2023-08-30T13:43:05.587Z,,0,,,NaN,,,,,,false,,,,486332.89999997616,486332.8000000715,,486332.5,,486182.576,8,400,,,
sequence,flow.Sequence,4_67,2023-08-30T13:43:05.587Z,,0,,,3009.183000071498,completion,,,,,false,,,,486333.10000002384,486332.8000000715,483315.232,483473.3000000715,483323.617,486182.576,8,400,,,
trial,html.Screen,4_68_0,2023-08-30T13:43:08.422Z,,0,2,,2985.024000023841,response,ISIC_0026664.JPG,5,ISIC_6025721.JPG,ISIC_6025721.JPG,false,0,keypress(z),500,489168.10000002384,489167.60000002384,486180.649,486333.2000000477,486182.576,489037.452,8,400,19,,ISIC_0026664.JPG
break,html.Screen,4_68_1,2023-08-30T13:43:08.425Z,,0,,,NaN,,,,,,false,,,,489170.5,489169.3000000715,,489168.5,,489037.452,8,400,,,
break_continue,html.Screen,4_68_2,2023-08-30T13:43:08.425Z,,0,,,NaN,,,,,,false,,,,489171,489170.8000000715,,489170.60000002384,,489037.452,8,400,,,
sequence,flow.Sequence,4_68,2023-08-30T13:43:08.426Z,,0,,,2988.2240000715246,completion,,,,,false,,,,489171.2000000477,489170.8000000715,486180.649,486333.10000002384,486182.576,489037.452,8,400,,,
trial,html.Screen,4_69_0,2023-08-30T13:43:11.884Z,,0,2,,3591.947999976168,response,ISIC_0032162.JPG,6,ISIC_4680417.JPG,ISIC_0032162.JPG,false,1,keypress(m),500,492629.7000000477,492629.39999997616,489011.989,489171.39999997616,489037.452,492498.587,8,400,20,,ISIC_4680417.JPG
break,html.Screen,4_69_1,2023-08-30T13:43:11.886Z,,0,,,NaN,,,,,,false,,,,492631.39999997616,492630.60000002384,,492629.89999997616,,492498.587,8,400,,,
break_continue,html.Screen,4_69_2,2023-08-30T13:43:11.886Z,,0,,,NaN,,,,,,false,,,,492632,492631.89999997616,,492631.60000002384,,492498.587,8,400,,,
sequence,flow.Sequence,4_69,2023-08-30T13:43:11.887Z,,0,,,3594.447999976168,completion,,,,,false,,,,492632.2000000477,492631.89999997616,489011.989,489171.3000000715,489037.452,492498.587,8,400,,,
trial,html.Screen,4_70_0,2023-08-30T13:43:14.580Z,,0,2,,2826.713000071526,response,ISIC_2904474.JPG,6,ISIC_0068106.JPG,ISIC_2904474.JPG,false,1,keypress(m),500,495325.5,495325.3000000715,492465.006,492632.39999997616,492498.587,495177.404,8,400,21,,ISIC_0068106.JPG
break,html.Screen,4_70_1,2023-08-30T13:43:14.581Z,,0,,,NaN,,,,,,false,,,,495327.10000002384,495326.2000000477,,495325.7000000477,,495177.404,8,400,,,
break_continue,html.Screen,4_70_2,2023-08-30T13:43:14.582Z,,0,,,NaN,,,,,,false,,,,495327.7000000477,495327.5,,495327.2000000477,,495177.404,8,400,,,
sequence,flow.Sequence,4_70,2023-08-30T13:43:14.582Z,,0,,,2828.9130000000005,completion,,,,,false,,,,495327.89999997616,495327.5,492465.006,492632.3000000715,492498.587,495177.404,8,400,,,
trial,html.Screen,4_71_0,2023-08-30T13:43:17.353Z,,0,2,,2920.4959999761777,response,ISIC_5992826.JPG,5,ISIC_0069058.JPG,ISIC_5992826.JPG,false,1,keypress(m),500,498098.39999997616,498097.89999997616,495176.167,495328,495177.404,497950.926,8,400,22,,ISIC_0069058.JPG
break,html.Screen,4_71_1,2023-08-30T13:43:17.355Z,,0,,,NaN,,,,,,false,,,,498100.5,498100.10000002384,,498098.8000000715,,497950.926,8,400,,,
break_continue,html.Screen,4_71_2,2023-08-30T13:43:17.355Z,,0,,,NaN,,,,,,false,,,,498101,498100.89999997616,,498100.5,,497950.926,8,400,,,
sequence,flow.Sequence,4_71,2023-08-30T13:43:17.356Z,,0,,,2923.4959999761777,completion,,,,,false,,,,498101.60000002384,498100.89999997616,495176.167,495328,495177.404,497950.926,8,400,,,
trial,html.Screen,4_72_0,2023-08-30T13:43:20.064Z,,0,2,,2858.4739999761805,response,ISIC_2682861.JPG,5,ISIC_7413149.JPG,ISIC_2682861.JPG,false,1,keypress(m),500,500809.8000000715,500809.39999997616,497946.915,498102.10000002384,497950.926,500661.943,8,400,23,,ISIC_7413149.JPG
break,html.Screen,4_72_1,2023-08-30T13:43:20.065Z,,0,,,NaN,,,,,,false,,,,500810.89999997616,500810.5,,500810.10000002384,,500661.943,8,400,,,
break_continue,html.Screen,4_72_2,2023-08-30T13:43:20.066Z,,0,,,NaN,,,,,,false,,,,500811.5,500811.39999997616,,500811,,500661.943,8,400,,,
sequence,flow.Sequence,4_72,2023-08-30T13:43:20.066Z,,0,,,2860.4739999761805,completion,,,,,false,,,,500811.8000000715,500811.39999997616,497946.915,498101.89999997616,497950.926,500661.943,8,400,,,
trial,html.Screen,4_73_0,2023-08-30T13:43:23.396Z,,0,2,,3479.5569999999716,response,ISIC_9107280.JPG,4,ISIC_0061749.JPG,ISIC_0061749.JPG,false,0,keypress(z),500,504141.7000000477,504141.5,500659.008,500812.10000002384,500661.943,503993.68,8,400,24,,ISIC_9107280.JPG
break,html.Screen,4_73_1,2023-08-30T13:43:23.398Z,,0,,,NaN,,,,,,false,,,,504143.39999997616,504142.60000002384,,504141.89999997616,,503993.68,8,400,,,
break_continue,html.Screen,4_73_2,2023-08-30T13:43:23.398Z,,0,,,NaN,,,,,,false,,,,504143.60000002384,504143.5,,504143.5,,503993.68,8,400,,,
sequence,flow.Sequence,4_73,2023-08-30T13:43:23.398Z,,0,,,3481.5569999999716,completion,,,,,false,,,,504143.8000000715,504143.5,500659.008,500812,500661.943,503993.68,8,400,,,
trial,html.Screen,4_74_0,2023-08-30T13:43:26.168Z,,0,2,,2919.6200000715326,response,ISIC_1835041.JPG,5,ISIC_0027089.JPG,ISIC_1835041.JPG,false,1,keypress(m),500,506913.60000002384,506913.3000000715,503984.375,504144,503993.68,506782.572,8,400,25,,ISIC_0027089.JPG
break,html.Screen,4_74_1,2023-08-30T13:43:26.170Z,,0,,,NaN,,,,,,false,,,,506915.5,506914.5,,506913.8000000715,,506782.572,8,400,,,
break_continue,html.Screen,4_74_2,2023-08-30T13:43:26.170Z,,0,,,NaN,,,,,,false,,,,506916.2000000477,506916,,506915.7000000477,,506782.572,8,400,,,
sequence,flow.Sequence,4_74,2023-08-30T13:43:26.171Z,,0,,,2922.320000000007,completion,,,,,false,,,,506916.3000000715,506916,503984.375,504143.8000000715,503993.68,506782.572,8,400,,,
trial,html.Screen,4_75_0,2023-08-30T13:43:29.117Z,,0,2,,3079.8279999761726,response,ISIC_2136533.JPG,5,ISIC_0069791.JPG,ISIC_2136533.JPG,false,1,keypress(m),500,509862.7000000477,509862.39999997616,506748.782,506916.39999997616,506782.572,509714.821,8,400,26,,ISIC_0069791.JPG
break,html.Screen,4_75_1,2023-08-30T13:43:29.119Z,,0,,,NaN,,,,,,false,,,,509864.5,509863.60000002384,,509862.89999997616,,509714.821,8,400,,,
break_continue,html.Screen,4_75_2,2023-08-30T13:43:29.120Z,,0,,,NaN,,,,,,false,,,,509865.39999997616,509865.10000002384,,509864.89999997616,,509714.821,8,400,,,
sequence,flow.Sequence,4_75,2023-08-30T13:43:29.120Z,,0,,,3082.5280000238563,completion,,,,,false,,,,509865.60000002384,509865.10000002384,506748.782,506916.39999997616,506782.572,509714.821,8,400,,,
trial,html.Screen,4_76_0,2023-08-30T13:43:32.692Z,,0,2,,3722.2790000238456,response,ISIC_7129901.JPG,5,ISIC_5530598.JPG,ISIC_7129901.JPG,false,1,keypress(m),500,513437.39999997616,513437.10000002384,509709.59,509865.7000000477,509714.821,513289.415,8,400,27,,ISIC_5530598.JPG
break,html.Screen,4_76_1,2023-08-30T13:43:32.693Z,,0,,,NaN,,,,,,false,,,,513439.10000002384,513438.10000002384,,513437.5,,513289.415,8,400,,,
break_continue,html.Screen,4_76_2,2023-08-30T13:43:32.694Z,,0,,,NaN,,,,,,false,,,,513439.8000000715,513439.60000002384,,513439.3000000715,,513289.415,8,400,,,
sequence,flow.Sequence,4_76,2023-08-30T13:43:32.694Z,,0,,,3724.7790000238456,completion,,,,,false,,,,513440,513439.60000002384,509709.59,509865.7000000477,509714.821,513289.415,8,400,,,
trial,html.Screen,4_77_0,2023-08-30T13:43:35.416Z,,0,2,,2871.8850000715465,response,ISIC_0031184.JPG,6,ISIC_6588853.JPG,ISIC_6588853.JPG,false,0,keypress(z),500,516161.60000002384,516161.3000000715,513286.837,513440.10000002384,513289.415,516013.623,8,400,28,,ISIC_0031184.JPG
break,html.Screen,4_77_1,2023-08-30T13:43:35.418Z,,0,,,NaN,,,,,,false,,,,516163.3000000715,516162.39999997616,,516161.8000000715,,516013.623,8,400,,,
break_continue,html.Screen,4_77_2,2023-08-30T13:43:35.418Z,,0,,,NaN,,,,,,false,,,,516164,516163.8000000715,,516163.60000002384,,516013.623,8,400,,,
sequence,flow.Sequence,4_77,2023-08-30T13:43:35.419Z,,0,,,2874.3850000715465,completion,,,,,false,,,,516164.3000000715,516163.8000000715,513286.837,513440,513289.415,516013.623,8,400,,,
trial,html.Screen,4_78_0,2023-08-30T13:43:40.515Z,,0,2,,5246.47700002382,response,ISIC_0055549.JPG,6,ISIC_2732573.JPG,ISIC_2732573.JPG,false,0,keypress(z),500,521260.3000000715,521260.10000002384,515999.741,516164.39999997616,516013.623,521112.557,8,400,29,,ISIC_0055549.JPG
break,html.Screen,4_78_1,2023-08-30T13:43:40.517Z,,0,,,NaN,,,,,,false,,,,521262.2000000477,521261.2000000477,,521260.60000002384,,521112.557,8,400,,,
break_continue,html.Screen,4_78_2,2023-08-30T13:43:40.517Z,,0,,,NaN,,,,,,false,,,,521262.89999997616,521262.7000000477,,521262.39999997616,,521112.557,8,400,,,
sequence,flow.Sequence,4_78,2023-08-30T13:43:40.517Z,,0,,,5249.077000047662,completion,,,,,false,,,,521263.10000002384,521262.7000000477,515999.741,516164.3000000715,516013.623,521112.557,8,400,,,
trial,html.Screen,4_79_0,2023-08-30T13:43:43.143Z,,0,2,,2775.5430000238703,response,ISIC_0028420.JPG,5,ISIC_2131707.JPG,ISIC_2131707.JPG,false,0,keypress(z),500,523888.3000000715,523888.10000002384,521108.739,521263.10000002384,521112.557,523751.097,8,400,30,,ISIC_0028420.JPG
break,html.Screen,4_79_1,2023-08-30T13:43:43.144Z,,0,,,NaN,,,,,,false,,,,523889.60000002384,523889.10000002384,,523888.5,,523751.097,8,400,,,
break_continue,html.Screen,4_79_2,2023-08-30T13:43:43.144Z,,0,,,NaN,,,,,,false,,,,523890,523889.89999997616,,523889.7000000477,,523751.097,8,400,,,
sequence,flow.Sequence,4_79,2023-08-30T13:43:43.145Z,,0,,,2777.3429999761865,completion,,,,,false,,,,523890.3000000715,523889.89999997616,521108.739,521263.10000002384,521112.557,523751.097,8,400,,,
trial,html.Screen,4_80_0,2023-08-30T13:43:46.154Z,,0,2,,3148.503000023833,response,ISIC_5294540.JPG,5,ISIC_3281565.JPG,ISIC_5294540.JPG,false,1,keypress(m),500,526900,526899.6000000238,523739.108,523890.3000000715,523751.097,526768.498,8,400,31,,ISIC_3281565.JPG
break,html.Screen,4_80_1,2023-08-30T13:43:46.156Z,,0,,,NaN,,,,,,false,,,,526901.3000000715,526900.8999999762,,526900.2000000477,,526768.498,8,400,,,
break_continue,html.Screen,4_80_2,2023-08-30T13:43:46.156Z,,0,,,NaN,,,,,,false,,,,526901.8000000715,526901.7000000477,,526901.5,,526768.498,8,400,,,
sequence,flow.Sequence,4_80,2023-08-30T13:43:46.157Z,,0,,,3150.603000047675,completion,,,,,false,,,,526902.2000000477,526901.7000000477,523739.108,523890.3000000715,523751.097,526768.498,8,400,,,
trial,html.Screen,4_81_0,2023-08-30T13:43:48.943Z,,0,2,,2920.0019999999786,response,ISIC_0031985.JPG,5,ISIC_0071966.JPG,ISIC_0031985.JPG,false,1,keypress(m),500,529688.7000000477,529688.5,526749.363,526902.3000000715,526768.498,529540.429,8,400,32,,ISIC_0071966.JPG
break,html.Screen,4_81_1,2023-08-30T13:43:48.944Z,,0,,,NaN,,,,,,false,,,,529689.5,529689.2000000477,,529688.8000000715,,529540.429,8,400,,,
break_continue,html.Screen,4_81_2,2023-08-30T13:43:48.944Z,,0,,,NaN,,,,,,false,,,,529689.6000000238,529689.6000000238,,529689.6000000238,,529540.429,8,400,,,
sequence,flow.Sequence,4_81,2023-08-30T13:43:48.944Z,,0,,,2921.1020000238204,completion,,,,,false,,,,529689.7000000477,529689.6000000238,526749.363,526902.3000000715,526768.498,529540.429,8,400,,,
trial,html.Screen,4_82_0,2023-08-30T13:43:52.561Z,,0,2,,3766.27100004768,response,ISIC_0027480.JPG,4,ISIC_0060999.JPG,ISIC_0060999.JPG,false,0,keypress(z),500,533307,533306.7000000477,529536.816,529689.7000000477,529540.429,533158.93,8,400,33,,ISIC_0027480.JPG
break,html.Screen,4_82_1,2023-08-30T13:43:52.563Z,,0,,,NaN,,,,,,false,,,,533308.6000000238,533307.8000000715,,533307.2000000477,,533158.93,8,400,,,
break_continue,html.Screen,4_82_2,2023-08-30T13:43:52.564Z,,0,,,NaN,,,,,,false,,,,533309.3000000715,533309.1000000238,,533308.8000000715,,533158.93,8,400,,,
sequence,flow.Sequence,4_82,2023-08-30T13:43:52.564Z,,0,,,3768.671000023838,completion,,,,,false,,,,533309.5,533309.1000000238,529536.816,529689.7000000477,529540.429,533158.93,8,400,,,
trial,html.Screen,4_83_0,2023-08-30T13:43:55.253Z,,0,2,,2839.7700000476325,response,ISIC_0024401.JPG,4,ISIC_4396553.JPG,ISIC_4396553.JPG,false,0,keypress(z),500,535999,535998.7000000477,533154.025,533309.6000000238,533158.93,535864.053,8,400,34,,ISIC_0024401.JPG
break,html.Screen,4_83_1,2023-08-30T13:43:55.255Z,,0,,,NaN,,,,,,false,,,,536000.2000000477,535999.8000000715,,535999.2000000477,,535864.053,8,400,,,
break_continue,html.Screen,4_83_2,2023-08-30T13:43:55.255Z,,0,,,NaN,,,,,,false,,,,536000.7000000477,536000.6000000238,,536000.3000000715,,535864.053,8,400,,,
sequence,flow.Sequence,4_83,2023-08-30T13:43:55.255Z,,0,,,2841.6700000237906,completion,,,,,false,,,,536000.8999999762,536000.6000000238,533154.025,533309.5,533158.93,535864.053,8,400,,,
trial,html.Screen,4_84_0,2023-08-30T13:44:01.072Z,,0,2,,5953.447000000044,response,ISIC_4266157.JPG,6,ISIC_1632696.JPG,ISIC_4266157.JPG,false,1,keypress(m),500,541817.7000000477,541817.5,535844.317,536001,535864.053,541669.66,8,400,35,,ISIC_1632696.JPG
break,html.Screen,4_84_1,2023-08-30T13:44:01.073Z,,0,,,NaN,,,,,,false,,,,541818.6000000238,541818.3999999762,,541817.8999999762,,541669.66,8,400,,,
break_continue,html.Screen,4_84_2,2023-08-30T13:44:01.074Z,,0,,,NaN,,,,,,false,,,,541819.5,541819.3999999762,,541819.3000000715,,541669.66,8,400,,,
sequence,flow.Sequence,4_84,2023-08-30T13:44:01.074Z,,0,,,5955.346999976202,completion,,,,,false,,,,541819.6000000238,541819.3999999762,535844.317,536000.8999999762,535864.053,541669.66,8,400,,,
trial,html.Screen,4_85_0,2023-08-30T13:44:04.023Z,,0,2,,3098.4400000238093,response,ISIC_0071300.JPG,5,ISIC_0010235.JPG,ISIC_0071300.JPG,false,1,keypress(m),500,544768.3999999762,544768.1000000238,541667.338,541820.2000000477,541669.66,544620.456,8,400,36,,ISIC_0010235.JPG
break,html.Screen,4_85_1,2023-08-30T13:44:04.025Z,,0,,,NaN,,,,,,false,,,,544770.2000000477,544769.2000000477,,544768.7000000477,,544620.456,8,400,,,
break_continue,html.Screen,4_85_2,2023-08-30T13:44:04.025Z,,0,,,NaN,,,,,,false,,,,544770.8999999762,544770.7000000477,,544770.3000000715,,544620.456,8,400,,,
sequence,flow.Sequence,4_85,2023-08-30T13:44:04.025Z,,0,,,3101.040000047651,completion,,,,,false,,,,544771,544770.7000000477,541667.338,541820.2000000477,541669.66,544620.456,8,400,,,
trial,html.Screen,4_86_0,2023-08-30T13:44:07.035Z,,0,2,,3159.9439999761526,response,ISIC_8397011.JPG,6,ISIC_0072865.JPG,ISIC_8397011.JPG,false,1,keypress(m),500,547780.8000000715,547780.3999999762,544606.673,544771.2000000477,544620.456,547632.778,8,400,37,,ISIC_0072865.JPG
break,html.Screen,4_86_1,2023-08-30T13:44:07.037Z,,0,,,NaN,,,,,,false,,,,547782.5,547781.6000000238,,547780.8999999762,,547632.778,8,400,,,
break_continue,html.Screen,4_86_2,2023-08-30T13:44:07.038Z,,0,,,NaN,,,,,,false,,,,547783.2000000477,547783,,547782.7000000477,,547632.778,8,400,,,
sequence,flow.Sequence,4_86,2023-08-30T13:44:07.038Z,,0,,,3162.5439999999944,completion,,,,,false,,,,547783.3000000715,547783,544606.673,544771.1000000238,544620.456,547632.778,8,400,,,
trial,html.Screen,4_87_0,2023-08-30T13:44:09.761Z,,0,2,,2873.9220000476344,response,ISIC_3779424.JPG,6,ISIC_8060329.JPG,ISIC_3779424.JPG,false,1,keypress(m),500,550506.8999999762,550506.7000000477,547618.597,547783.5,547632.778,550358.883,8,400,38,,ISIC_8060329.JPG
break,html.Screen,4_87_1,2023-08-30T13:44:09.762Z,,0,,,NaN,,,,,,false,,,,550508,550507.7000000477,,550507.1000000238,,550358.883,8,400,,,
break_continue,html.Screen,4_87_2,2023-08-30T13:44:09.763Z,,0,,,NaN,,,,,,false,,,,550508.5,550508.3000000715,,550508.2000000477,,550358.883,8,400,,,
sequence,flow.Sequence,4_87,2023-08-30T13:44:09.763Z,,0,,,2875.522000071476,completion,,,,,false,,,,550508.5,550508.3000000715,547618.597,547783.5,547632.778,550358.883,8,400,,,
trial,html.Screen,4_88_0,2023-08-30T13:44:12.566Z,,0,2,,2952.0169999761274,response,ISIC_0011501.JPG,4,ISIC_3842916.JPG,ISIC_3842916.JPG,false,0,keypress(z),500,553311.2000000477,553310.8999999762,550356.336,550508.7000000477,550358.883,553164.894,8,400,39,,ISIC_0011501.JPG
break,html.Screen,4_88_1,2023-08-30T13:44:12.567Z,,0,,,NaN,,,,,,false,,,,553312.3000000715,553312,,553311.3999999762,,553164.894,8,400,,,
break_continue,html.Screen,4_88_2,2023-08-30T13:44:12.567Z,,0,,,NaN,,,,,,false,,,,553312.7000000477,553312.6000000238,,553312.3999999762,,553164.894,8,400,,,
sequence,flow.Sequence,4_88,2023-08-30T13:44:12.567Z,,0,,,2953.717000023811,completion,,,,,false,,,,553312.8999999762,553312.6000000238,550356.336,550508.7000000477,550358.883,553164.894,8,400,,,
trial,html.Screen,4_89_0,2023-08-30T13:44:15.290Z,,0,2,,2870.4060000715544,response,ISIC_6037869.JPG,5,ISIC_6258744.JPG,ISIC_6037869.JPG,false,1,keypress(m),500,556035.7000000477,556035.3000000715,553160.994,553313,553164.894,555887.793,8,400,40,,ISIC_6258744.JPG
break,html.Screen,4_89_1,2023-08-30T13:44:15.292Z,,0,,,NaN,,,,,,false,,,,556037.5,556036.5,,556035.8999999762,,555887.793,8,400,,,
break_continue,html.Screen,4_89_2,2023-08-30T13:44:15.293Z,,0,,,NaN,,,,,,false,,,,556038.2000000477,556038,,556037.7000000477,,555887.793,8,400,,,
sequence,flow.Sequence,4_89,2023-08-30T13:44:15.293Z,,0,,,2873.106000000029,completion,,,,,false,,,,556038.3999999762,556038,553160.994,553313,553164.894,555887.793,8,400,,,
trial,html.Screen,4_90_0,2023-08-30T13:44:18.709Z,,0,2,,3566.6069999762112,response,ISIC_0054528.JPG,6,ISIC_0010050.JPG,ISIC_0054528.JPG,false,1,keypress(m),500,559454.6000000238,559454.3999999762,555885.952,556038.5,555887.793,559319.173,8,400,41,,ISIC_0010050.JPG
break,html.Screen,4_90_1,2023-08-30T13:44:18.710Z,,0,,,NaN,,,,,,false,,,,559455.8999999762,559455.3999999762,,559454.8000000715,,559319.173,8,400,,,
break_continue,html.Screen,4_90_2,2023-08-30T13:44:18.711Z,,0,,,NaN,,,,,,false,,,,559456.3000000715,559456.2000000477,,559456,,559319.173,8,400,,,
sequence,flow.Sequence,4_90,2023-08-30T13:44:18.711Z,,0,,,3568.407000047737,completion,,,,,false,,,,559456.5,559456.2000000477,555885.952,556038.5,555887.793,559319.173,8,400,,,
trial,html.Screen,4_91_0,2023-08-30T13:44:22.025Z,,0,2,,3451.2269999762066,response,ISIC_0027260.JPG,5,ISIC_2031626.JPG,ISIC_2031626.JPG,false,0,keypress(z),500,562770.7000000477,562770.3999999762,559304.767,559456.6000000238,559319.173,562622.807,8,400,42,,ISIC_0027260.JPG
break,html.Screen,4_91_1,2023-08-30T13:44:22.027Z,,0,,,NaN,,,,,,false,,,,562772.5,562771.5,,562770.8999999762,,562622.807,8,400,,,
break_continue,html.Screen,4_91_2,2023-08-30T13:44:22.028Z,,0,,,NaN,,,,,,false,,,,562773.2000000477,562773,,562772.7000000477,,562622.807,8,400,,,
sequence,flow.Sequence,4_91,2023-08-30T13:44:22.028Z,,0,,,3453.8270000000484,completion,,,,,false,,,,562773.5,562773,559304.767,559456.5,559319.173,562622.807,8,400,,,
trial,html.Screen,4_92_0,2023-08-30T13:44:25.549Z,,0,2,,3671.793000023812,response,ISIC_2535382.JPG,5,ISIC_0046450.JPG,ISIC_2535382.JPG,false,1,keypress(m),500,566294.8000000715,566294.6000000238,562606.509,562773.6000000238,562622.807,566146.797,8,400,43,,ISIC_0046450.JPG
break,html.Screen,4_92_1,2023-08-30T13:44:25.551Z,,0,,,NaN,,,,,,false,,,,566296.3999999762,566295.7000000477,,566295,,566146.797,8,400,,,
break_continue,html.Screen,4_92_2,2023-08-30T13:44:25.551Z,,0,,,NaN,,,,,,false,,,,566296.8999999762,566296.7000000477,,566296.5,,566146.797,8,400,,,
sequence,flow.Sequence,4_92,2023-08-30T13:44:25.552Z,,0,,,3673.893000047654,completion,,,,,false,,,,566297.1000000238,566296.7000000477,562606.509,562773.6000000238,562622.807,566146.797,8,400,,,
trial,html.Screen,4_93_0,2023-08-30T13:44:32.663Z,,0,2,,7261.7029999999795,response,ISIC_0030235.JPG,5,ISIC_7865214.JPG,ISIC_7865214.JPG,false,0,keypress(z),500,573408.7000000477,573408.5,566138.843,566297.2000000477,566146.797,573260.29,8,400,44,,ISIC_0030235.JPG
break,html.Screen,4_93_1,2023-08-30T13:44:32.664Z,,0,,,NaN,,,,,,false,,,,573409.3000000715,573409,,573408.7000000477,,573260.29,8,400,,,
break_continue,html.Screen,4_93_2,2023-08-30T13:44:32.665Z,,0,,,NaN,,,,,,false,,,,573410.8999999762,573410.8000000715,,573410,,573260.29,8,400,,,
sequence,flow.Sequence,4_93,2023-08-30T13:44:32.665Z,,0,,,7264.003000071505,completion,,,,,false,,,,573410.8999999762,573410.8000000715,566138.843,566297.2000000477,566146.797,573260.29,8,400,,,
trial,html.Screen,4_94_0,2023-08-30T13:44:35.726Z,,0,2,,3211.109999976121,response,ISIC_0691454.JPG,5,ISIC_3430311.JPG,ISIC_0691454.JPG,false,1,keypress(m),500,576471.5,576471.3999999762,573257.623,573411,573260.29,576323.01,8,400,45,,ISIC_3430311.JPG
break,html.Screen,4_94_1,2023-08-30T13:44:35.726Z,,0,,,NaN,,,,,,false,,,,576471.8999999762,576471.8000000715,,576471.5,,576323.01,8,400,,,
break_continue,html.Screen,4_94_2,2023-08-30T13:44:35.727Z,,0,,,NaN,,,,,,false,,,,576472.8000000715,576472.7000000477,,576472,,576323.01,8,400,,,
sequence,flow.Sequence,4_94,2023-08-30T13:44:35.727Z,,0,,,3212.4100000476465,completion,,,,,false,,,,576472.8000000715,576472.7000000477,573257.623,573410.8999999762,573260.29,576323.01,8,400,,,
trial,html.Screen,4_95_0,2023-08-30T13:44:38.887Z,,0,2,,3309.0900000238325,response,ISIC_0001681.JPG,5,ISIC_2479134.JPG,ISIC_0001681.JPG,false,1,keypress(m),500,579632.3000000715,579632.1000000238,576305.767,576472.8999999762,576323.01,579500.613,8,400,46,,ISIC_2479134.JPG
break,html.Screen,4_95_1,2023-08-30T13:44:38.887Z,,0,,,NaN,,,,,,false,,,,579632.8999999762,579632.7000000477,,579632.3999999762,,579500.613,8,400,,,
break_continue,html.Screen,4_95_2,2023-08-30T13:44:38.888Z,,0,,,NaN,,,,,,false,,,,579633.6000000238,579633.6000000238,,579633,,579500.613,8,400,,,
sequence,flow.Sequence,4_95,2023-08-30T13:44:38.888Z,,0,,,3310.5900000238325,completion,,,,,false,,,,579633.6000000238,579633.6000000238,576305.767,576472.8000000715,576323.01,579500.613,8,400,,,
trial,html.Screen,4_96_0,2023-08-30T13:44:41.897Z,,0,2,,3141.886999999988,response,ISIC_2244564.JPG,5,ISIC_0011305.JPG,ISIC_2244564.JPG,false,1,keypress(m),500,582642.7000000477,582642.5,579484,579633.7000000477,579500.613,582494.745,8,400,47,,ISIC_0011305.JPG
break,html.Screen,4_96_1,2023-08-30T13:44:41.899Z,,0,,,NaN,,,,,,false,,,,582644.5,582643.6000000238,,582642.8999999762,,582494.745,8,400,,,
break_continue,html.Screen,4_96_2,2023-08-30T13:44:41.900Z,,0,,,NaN,,,,,,false,,,,582645.1000000238,582644.8999999762,,582644.7000000477,,582494.745,8,400,,,
sequence,flow.Sequence,4_96,2023-08-30T13:44:41.900Z,,0,,,3144.286999976146,completion,,,,,false,,,,582645.3999999762,582644.8999999762,579484,579633.7000000477,579500.613,582494.745,8,400,,,
trial,html.Screen,4_97_0,2023-08-30T13:44:44.957Z,,0,2,,3208.0550000715302,response,ISIC_0072290.JPG,6,ISIC_5777697.JPG,ISIC_0072290.JPG,false,1,keypress(m),500,585703,585702.8000000715,582492.346,582645.3999999762,582494.745,585555.191,8,400,48,,ISIC_5777697.JPG
break,html.Screen,4_97_1,2023-08-30T13:44:44.959Z,,0,,,NaN,,,,,,false,,,,585704.8000000715,585703.8999999762,,585703.3000000715,,585555.191,8,400,,,
break_continue,html.Screen,4_97_2,2023-08-30T13:44:44.960Z,,0,,,NaN,,,,,,false,,,,585705.5,585705.3000000715,,585704.8999999762,,585555.191,8,400,,,
sequence,flow.Sequence,4_97,2023-08-30T13:44:44.960Z,,0,,,3210.5550000715302,completion,,,,,false,,,,585705.7000000477,585705.3000000715,582492.346,582645.3999999762,582494.745,585555.191,8,400,,,
trial,html.Screen,4_98_0,2023-08-30T13:44:48.082Z,,0,2,,3272.2089999761665,response,ISIC_0063369.JPG,5,ISIC_0010649.JPG,ISIC_0010649.JPG,false,0,keypress(z),500,588827.7000000477,588827.3999999762,585550.678,585705.8000000715,585555.191,588679.719,8,400,49,,ISIC_0063369.JPG
break,html.Screen,4_98_1,2023-08-30T13:44:48.084Z,,0,,,NaN,,,,,,false,,,,588829.3999999762,588828.5,,588827.8000000715,,588679.719,8,400,,,
break_continue,html.Screen,4_98_2,2023-08-30T13:44:48.085Z,,0,,,NaN,,,,,,false,,,,588830.1000000238,588829.8999999762,,588829.6000000238,,588679.719,8,400,,,
sequence,flow.Sequence,4_98,2023-08-30T13:44:48.085Z,,0,,,3274.7089999761665,completion,,,,,false,,,,588830.3000000715,588829.8999999762,585550.678,585705.7000000477,585555.191,588679.719,8,400,,,
trial,html.Screen,4_99_0,2023-08-30T13:44:52.662Z,,0,2,,4727.881000023801,response,ISIC_0080817.JPG,5,ISIC_4614129.JPG,ISIC_4614129.JPG,false,0,keypress(z),500,593407.8999999762,593407.6000000238,588677.077,588830.3999999762,588679.719,593259.959,8,400,50,,ISIC_0080817.JPG
break,html.Screen,4_99_1,2023-08-30T13:44:57.514Z,,0,,,4862.841999999946,timeout,,,,,false,,,,598259.1000000238,598258.5,593251.485,593408.1000000238,593259.959,598122.801,8,400,,,
break_continue,html.Screen,4_99_2,2023-08-30T13:45:15.741Z,,0,,,18344.499000071548,response,,,,,false,continue,keypress(Space),,616486.6000000238,616467.3000000715,598258.5,598259.3000000715,598122.801,616354.934,8,400,,,
sequence,flow.Sequence,4_99,2023-08-30T13:45:15.741Z,,0,,,27787.581000071485,completion,,,,,false,,,,616486.8000000715,616467.3000000715,588677.077,588830.3999999762,588679.719,616354.934,8,400,,,
trial,html.Screen,4_100_0,2023-08-30T13:45:19.583Z,,0,3,,3972.9659999761498,response,ISIC_1014075.JPG,4,ISIC_0028759.JPG,ISIC_0028759.JPG,false,0,keypress(z),500,620328.2000000477,620327.8999999762,616326.172,616486.8000000715,616354.934,620180.337,8,400,1,,ISIC_1014075.JPG
break,html.Screen,4_100_1,2023-08-30T13:45:19.585Z,,0,,,NaN,,,,,,false,,,,620330.2000000477,620329.1000000238,,620328.5,,620180.337,8,400,,,
break_continue,html.Screen,4_100_2,2023-08-30T13:45:19.585Z,,0,,,NaN,,,,,,false,,,,620330.8999999762,620330.7000000477,,620330.3999999762,,620180.337,8,400,,,
sequence,flow.Sequence,4_100,2023-08-30T13:45:19.585Z,,0,,,3975.7660000476753,completion,,,,,false,,,,620331,620330.7000000477,616326.172,616486.8000000715,616354.934,620180.337,8,400,,,
trial,html.Screen,4_101_0,2023-08-30T13:45:22.468Z,,0,3,,3032.5629999761004,response,ISIC_0027104.JPG,6,ISIC_4220326.JPG,ISIC_4220326.JPG,false,0,keypress(z),500,623213,623212.8999999762,620173.362,620331.1000000238,620180.337,623065.279,8,400,2,,ISIC_0027104.JPG
break,html.Screen,4_101_1,2023-08-30T13:45:22.469Z,,0,,,NaN,,,,,,false,,,,623214.8999999762,623213.8999999762,,623213.3000000715,,623065.279,8,400,,,
break_continue,html.Screen,4_101_2,2023-08-30T13:45:22.470Z,,0,,,NaN,,,,,,false,,,,623215.6000000238,623215.5,,623215.1000000238,,623065.279,8,400,,,
sequence,flow.Sequence,4_101,2023-08-30T13:45:22.470Z,,0,,,3035.1629999999423,completion,,,,,false,,,,623215.8999999762,623215.5,620173.362,620331.1000000238,620180.337,623065.279,8,400,,,
trial,html.Screen,4_102_0,2023-08-30T13:45:25.258Z,,0,3,,2937.8210000238614,response,ISIC_0065882.JPG,5,ISIC_0066150.JPG,ISIC_0065882.JPG,false,1,keypress(m),500,626003.3000000715,626003.1000000238,623059.447,623216,623065.279,625871.703,8,400,3,,ISIC_0066150.JPG
break,html.Screen,4_102_1,2023-08-30T13:45:25.258Z,,0,,,NaN,,,,,,false,,,,626003.8999999762,626003.7000000477,,626003.3999999762,,625871.703,8,400,,,
break_continue,html.Screen,4_102_2,2023-08-30T13:45:25.259Z,,0,,,NaN,,,,,,false,,,,626004.2000000477,626004.1000000238,,626004,,625871.703,8,400,,,
sequence,flow.Sequence,4_102,2023-08-30T13:45:25.259Z,,0,,,2938.8210000238614,completion,,,,,false,,,,626004.2000000477,626004.1000000238,623059.447,623216,623065.279,625871.703,8,400,,,
trial,html.Screen,4_103_0,2023-08-30T13:45:28.861Z,,0,3,,3734.597000071546,response,ISIC_0961235.JPG,4,ISIC_5555700.JPG,ISIC_0961235.JPG,false,1,keypress(m),500,629606.3999999762,629606.3000000715,625855.086,626004.3000000715,625871.703,629474.734,8,400,4,,ISIC_5555700.JPG
break,html.Screen,4_103_1,2023-08-30T13:45:28.862Z,,0,,,NaN,,,,,,false,,,,629607.7000000477,629607,,629606.5,,629474.734,8,400,,,
break_continue,html.Screen,4_103_2,2023-08-30T13:45:28.862Z,,0,,,NaN,,,,,,false,,,,629607.8999999762,629607.8999999762,,629607.7000000477,,629474.734,8,400,,,
sequence,flow.Sequence,4_103,2023-08-30T13:45:28.862Z,,0,,,3736.1969999761786,completion,,,,,false,,,,629608,629607.8999999762,625855.086,626004.3000000715,625871.703,629474.734,8,400,,,
trial,html.Screen,4_104_0,2023-08-30T13:45:32.293Z,,0,3,,3563.366000023787,response,ISIC_4436342.JPG,5,ISIC_6348638.JPG,ISIC_4436342.JPG,false,1,keypress(m),500,633038.3000000715,633038.1000000238,629454.068,629608,629474.734,632897.114,8,400,5,,ISIC_6348638.JPG
break,html.Screen,4_104_1,2023-08-30T13:45:32.293Z,,0,,,NaN,,,,,,false,,,,633039,633038.8000000715,,633038.5,,632897.114,8,400,,,
break_continue,html.Screen,4_104_2,2023-08-30T13:45:32.294Z,,0,,,NaN,,,,,,false,,,,633039.3000000715,633039.2000000477,,633039,,632897.114,8,400,,,
sequence,flow.Sequence,4_104,2023-08-30T13:45:32.294Z,,0,,,3564.4660000476288,completion,,,,,false,,,,633039.3999999762,633039.2000000477,629454.068,629608,629474.734,632897.114,8,400,,,
trial,html.Screen,4_105_0,2023-08-30T13:45:35.688Z,,0,3,,3535.886000000057,response,ISIC_0027152.JPG,5,ISIC_0016139.JPG,ISIC_0016139.JPG,false,0,keypress(z),500,636433.3000000715,636433,632888.921,633039.3999999762,632897.114,636284.971,8,400,6,,ISIC_0027152.JPG
break,html.Screen,4_105_1,2023-08-30T13:45:35.689Z,,0,,,NaN,,,,,,false,,,,636434.3000000715,636434,,636433.3999999762,,636284.971,8,400,,,
break_continue,html.Screen,4_105_2,2023-08-30T13:45:35.689Z,,0,,,NaN,,,,,,false,,,,636434.8000000715,636434.8000000715,,636434.7000000477,,636284.971,8,400,,,
sequence,flow.Sequence,4_105,2023-08-30T13:45:35.689Z,,0,,,3537.6860000715824,completion,,,,,false,,,,636435,636434.8000000715,632888.921,633039.3999999762,632897.114,636284.971,8,400,,,
trial,html.Screen,4_106_0,2023-08-30T13:45:38.911Z,,0,3,,3371.329000071506,response,ISIC_0014229.JPG,6,ISIC_7418723.JPG,ISIC_0014229.JPG,false,1,keypress(m),500,639656.3999999762,639656.3000000715,636283.437,636435.1000000238,636284.971,639507.854,8,400,7,,ISIC_7418723.JPG
break,html.Screen,4_106_1,2023-08-30T13:45:38.912Z,,0,,,NaN,,,,,,false,,,,639657.5,639656.8999999762,,639656.6000000238,,639507.854,8,400,,,
break_continue,html.Screen,4_106_2,2023-08-30T13:45:38.912Z,,0,,,NaN,,,,,,false,,,,639657.7000000477,639657.7000000477,,639657.6000000238,,639507.854,8,400,,,
sequence,flow.Sequence,4_106,2023-08-30T13:45:38.912Z,,0,,,3372.729000047664,completion,,,,,false,,,,639657.7000000477,639657.7000000477,636283.437,636435,636284.971,639507.854,8,400,,,
trial,html.Screen,4_107_0,2023-08-30T13:45:42.135Z,,0,3,,3372.2460000237916,response,ISIC_5308066.JPG,5,ISIC_0046316.JPG,ISIC_5308066.JPG,false,1,keypress(m),500,642880.3000000715,642880.1000000238,639491.234,639657.8000000715,639507.854,642732.141,8,400,8,,ISIC_0046316.JPG
break,html.Screen,4_107_1,2023-08-30T13:45:42.136Z,,0,,,NaN,,,,,,false,,,,642881.3000000715,642881,,642880.5,,642732.141,8,400,,,
break_continue,html.Screen,4_107_2,2023-08-30T13:45:42.136Z,,0,,,NaN,,,,,,false,,,,642881.8000000715,642881.8000000715,,642881.3999999762,,642732.141,8,400,,,
sequence,flow.Sequence,4_107,2023-08-30T13:45:42.136Z,,0,,,3373.9460000714753,completion,,,,,false,,,,642881.8999999762,642881.8000000715,639491.234,639657.8000000715,639507.854,642732.141,8,400,,,
trial,html.Screen,4_108_0,2023-08-30T13:45:47.499Z,,0,3,,5512.6590000715805,response,ISIC_0423483.JPG,7,ISIC_0011894.JPG,ISIC_0423483.JPG,false,1,keypress(m),500,648245,648244.8000000715,642730.289,642881.8999999762,642732.141,648101.693,8,400,9,,ISIC_0011894.JPG
break,html.Screen,4_108_1,2023-08-30T13:45:47.501Z,,0,,,NaN,,,,,,false,,,,648246.2000000477,648245.8000000715,,648245.2000000477,,648101.693,8,400,,,
break_continue,html.Screen,4_108_2,2023-08-30T13:45:47.501Z,,0,,,NaN,,,,,,false,,,,648246.7000000477,648246.6000000238,,648246.3000000715,,648101.693,8,400,,,
sequence,flow.Sequence,4_108,2023-08-30T13:45:47.501Z,,0,,,5514.459000023897,completion,,,,,false,,,,648246.7000000477,648246.6000000238,642730.289,642881.8999999762,642732.141,648101.693,8,400,,,
trial,html.Screen,4_109_0,2023-08-30T13:45:50.326Z,,0,3,,2969.30700000003,response,ISIC_0006727.JPG,5,ISIC_0069411.JPG,ISIC_0006727.JPG,false,1,keypress(m),500,651071.3999999762,651071,648094.022,648246.8000000715,648101.693,650923.406,8,400,10,,ISIC_0069411.JPG
break,html.Screen,4_109_1,2023-08-30T13:45:50.327Z,,0,,,NaN,,,,,,false,,,,651073.1000000238,651072.1000000238,,651071.6000000238,,650923.406,8,400,,,
break_continue,html.Screen,4_109_2,2023-08-30T13:45:50.328Z,,0,,,NaN,,,,,,false,,,,651073.7000000477,651073.5,,651073.2000000477,,650923.406,8,400,,,
sequence,flow.Sequence,4_109,2023-08-30T13:45:50.328Z,,0,,,2971.80700000003,completion,,,,,false,,,,651074,651073.5,648094.022,648246.8000000715,648101.693,650923.406,8,400,,,
trial,html.Screen,4_110_0,2023-08-30T13:45:54.642Z,,0,3,,4463.894000071567,response,ISIC_0026781.JPG,9,ISIC_0163812.JPG,ISIC_0163812.JPG,false,0,keypress(z),500,655387.6000000238,655387.3000000715,650908.382,651074,650923.406,655250.144,8,400,11,,ISIC_0026781.JPG
break,html.Screen,4_110_1,2023-08-30T13:45:54.643Z,,0,,,NaN,,,,,,false,,,,655388.2000000477,655388,,655387.7000000477,,655250.144,8,400,,,
break_continue,html.Screen,4_110_2,2023-08-30T13:45:54.643Z,,0,,,NaN,,,,,,false,,,,655388.3999999762,655388.3000000715,,655388.2000000477,,655250.144,8,400,,,
sequence,flow.Sequence,4_110,2023-08-30T13:45:54.643Z,,0,,,4464.894000071567,completion,,,,,false,,,,655388.3999999762,655388.3000000715,650908.382,651074,650923.406,655250.144,8,400,,,
trial,html.Screen,4_111_0,2023-08-30T13:45:57.376Z,,0,3,,2871.755999976187,response,ISIC_9775430.JPG,9,ISIC_5568525.JPG,ISIC_5568525.JPG,false,0,keypress(z),500,658122.1000000238,658121.8999999762,655230.299,655388.3999999762,655250.144,657973.59,8,400,12,,ISIC_9775430.JPG
break,html.Screen,4_111_1,2023-08-30T13:45:57.377Z,,0,,,NaN,,,,,,false,,,,658122.6000000238,658122.5,,658122.1000000238,,657973.59,8,400,,,
break_continue,html.Screen,4_111_2,2023-08-30T13:45:57.378Z,,0,,,NaN,,,,,,false,,,,658123.5,658123.3999999762,,658123.3000000715,,657973.59,8,400,,,
sequence,flow.Sequence,4_111,2023-08-30T13:45:57.378Z,,0,,,2873.255999976187,completion,,,,,false,,,,658123.5,658123.3999999762,655230.299,655388.3999999762,655250.144,657973.59,8,400,,,
trial,html.Screen,4_112_0,2023-08-30T13:46:00.499Z,,0,3,,3270.9100000000326,response,ISIC_6672654.JPG,5,ISIC_7693995.JPG,ISIC_7693995.JPG,false,0,keypress(z),500,661244.7000000477,661244.5,657965.486,658123.6000000238,657973.59,661098.275,8,400,13,,ISIC_6672654.JPG
break,html.Screen,4_112_1,2023-08-30T13:46:00.500Z,,0,,,NaN,,,,,,false,,,,661246,661245.6000000238,,661244.8999999762,,661098.275,8,400,,,
break_continue,html.Screen,4_112_2,2023-08-30T13:46:00.501Z,,0,,,NaN,,,,,,false,,,,661246.5,661246.3999999762,,661246.2000000477,,661098.275,8,400,,,
sequence,flow.Sequence,4_112,2023-08-30T13:46:00.501Z,,0,,,3272.8099999761907,completion,,,,,false,,,,661246.7000000477,661246.3999999762,657965.486,658123.6000000238,657973.59,661098.275,8,400,,,
trial,html.Screen,4_113_0,2023-08-30T13:46:03.319Z,,0,3,,2965.624999976135,response,ISIC_0024652.JPG,5,ISIC_0781315.JPG,ISIC_0781315.JPG,false,0,keypress(z),500,664064.1000000238,664063.8999999762,661087.4,661246.8000000715,661098.275,663933.201,8,400,14,,ISIC_0024652.JPG
break,html.Screen,4_113_1,2023-08-30T13:46:03.320Z,,0,,,NaN,,,,,,false,,,,664065.1000000238,664064.8999999762,,664064.3000000715,,663933.201,8,400,,,
break_continue,html.Screen,4_113_2,2023-08-30T13:46:03.320Z,,0,,,NaN,,,,,,false,,,,664065.7000000477,664065.5,,664065.3999999762,,663933.201,8,400,,,
sequence,flow.Sequence,4_113,2023-08-30T13:46:03.320Z,,0,,,2967.2249999999767,completion,,,,,false,,,,664065.8999999762,664065.5,661087.4,661246.7000000477,661098.275,663933.201,8,400,,,
trial,html.Screen,4_114_0,2023-08-30T13:46:06.538Z,,0,3,,3349.999000047683,response,ISIC_3608788.JPG,6,ISIC_0056155.JPG,ISIC_3608788.JPG,false,1,keypress(m),500,667283.5,667283.2000000477,663909.166,664066,663933.201,667135.462,8,400,15,,ISIC_0056155.JPG
break,html.Screen,4_114_1,2023-08-30T13:46:06.540Z,,0,,,NaN,,,,,,false,,,,667285.2000000477,667284.3000000715,,667283.6000000238,,667135.462,8,400,,,
break_continue,html.Screen,4_114_2,2023-08-30T13:46:06.540Z,,0,,,NaN,,,,,,false,,,,667285.8999999762,667285.7000000477,,667285.3000000715,,667135.462,8,400,,,
sequence,flow.Sequence,4_114,2023-08-30T13:46:06.540Z,,0,,,3352.499000047683,completion,,,,,false,,,,667286.1000000238,667285.7000000477,663909.166,664066,663933.201,667135.462,8,400,,,
trial,html.Screen,4_115_0,2023-08-30T13:46:09.422Z,,0,3,,3031.9379999761004,response,ISIC_1356715.JPG,5,ISIC_9439034.JPG,ISIC_1356715.JPG,false,1,keypress(m),500,670167.7000000477,670167.3999999762,667130.81,667286.2000000477,667135.462,670020.123,8,400,16,,ISIC_9439034.JPG
break,html.Screen,4_115_1,2023-08-30T13:46:09.423Z,,0,,,NaN,,,,,,false,,,,670168.6000000238,670168.3999999762,,670167.8999999762,,670020.123,8,400,,,
break_continue,html.Screen,4_115_2,2023-08-30T13:46:09.424Z,,0,,,NaN,,,,,,false,,,,670169.1000000238,670169.1000000238,,670168.8000000715,,670020.123,8,400,,,
sequence,flow.Sequence,4_115,2023-08-30T13:46:09.424Z,,0,,,3033.638000023784,completion,,,,,false,,,,670169.3000000715,670169.1000000238,667130.81,667286.1000000238,667135.462,670020.123,8,400,,,
trial,html.Screen,4_116_0,2023-08-30T13:46:14.054Z,,0,3,,4779.677000071504,response,ISIC_5010212.JPG,5,ISIC_0056466.JPG,ISIC_5010212.JPG,false,1,keypress(m),500,674800.1000000238,674799.8000000715,670008.174,670169.5,670020.123,674652.072,8,400,17,,ISIC_0056466.JPG
break,html.Screen,4_116_1,2023-08-30T13:46:14.056Z,,0,,,NaN,,,,,,false,,,,674801.8000000715,674800.8999999762,,674800.3000000715,,674652.072,8,400,,,
break_continue,html.Screen,4_116_2,2023-08-30T13:46:14.057Z,,0,,,NaN,,,,,,false,,,,674802.7000000477,674802.5,,674802,,674652.072,8,400,,,
sequence,flow.Sequence,4_116,2023-08-30T13:46:14.057Z,,0,,,4782.376999999979,completion,,,,,false,,,,674802.8999999762,674802.5,670008.174,670169.3999999762,670020.123,674652.072,8,400,,,
trial,html.Screen,4_117_0,2023-08-30T13:46:17.436Z,,0,3,,3529.3279999761144,response,ISIC_2143002.JPG,6,ISIC_7748144.JPG,ISIC_7748144.JPG,false,0,keypress(z),500,678181.6000000238,678181.3999999762,674649.861,674803.1000000238,674652.072,678033.585,8,400,18,,ISIC_2143002.JPG
break,html.Screen,4_117_1,2023-08-30T13:46:17.438Z,,0,,,NaN,,,,,,false,,,,678183.2000000477,678182.3999999762,,678181.8000000715,,678033.585,8,400,,,
break_continue,html.Screen,4_117_2,2023-08-30T13:46:17.438Z,,0,,,NaN,,,,,,false,,,,678184,678183.8000000715,,678183.3999999762,,678033.585,8,400,,,
sequence,flow.Sequence,4_117,2023-08-30T13:46:17.439Z,,0,,,3531.728000071482,completion,,,,,false,,,,678184.1000000238,678183.8000000715,674649.861,674803,674652.072,678033.585,8,400,,,
trial,html.Screen,4_118_0,2023-08-30T13:46:20.851Z,,0,3,,3562.3149999761954,response,ISIC_0046921.JPG,6,ISIC_0010788.JPG,ISIC_0010788.JPG,false,0,keypress(z),500,681596.2000000477,681595.8999999762,678022.535,678184.3000000715,678033.585,681448.563,8,400,19,,ISIC_0046921.JPG
break,html.Screen,4_118_1,2023-08-30T13:46:20.852Z,,0,,,NaN,,,,,,false,,,,681597.3999999762,681597.1000000238,,681596.5,,681448.563,8,400,,,
break_continue,html.Screen,4_118_2,2023-08-30T13:46:20.853Z,,0,,,NaN,,,,,,false,,,,681598.3000000715,681598.2000000477,,681597.5,,681448.563,8,400,,,
sequence,flow.Sequence,4_118,2023-08-30T13:46:20.853Z,,0,,,3564.615000047721,completion,,,,,false,,,,681598.3999999762,681598.2000000477,678022.535,678184.3000000715,678033.585,681448.563,8,400,,,
trial,html.Screen,4_119_0,2023-08-30T13:46:23.514Z,,0,3,,2810.9370000000345,response,ISIC_0010321.JPG,4,ISIC_6780901.JPG,ISIC_6780901.JPG,false,0,keypress(z),500,684259.7000000477,684259.5,681445.766,681598.6000000238,681448.563,684111.868,8,400,20,,ISIC_0010321.JPG
break,html.Screen,4_119_1,2023-08-30T13:46:23.516Z,,0,,,NaN,,,,,,false,,,,684261.6000000238,684260.6000000238,,684260,,684111.868,8,400,,,
break_continue,html.Screen,4_119_2,2023-08-30T13:46:23.517Z,,0,,,NaN,,,,,,false,,,,684262.3999999762,684262.2000000477,,684261.7000000477,,684111.868,8,400,,,
sequence,flow.Sequence,4_119,2023-08-30T13:46:23.517Z,,0,,,2813.637000047718,completion,,,,,false,,,,684262.7000000477,684262.2000000477,681445.766,681598.6000000238,681448.563,684111.868,8,400,,,
trial,html.Screen,4_120_0,2023-08-30T13:46:26.322Z,,0,3,,2955.6319999999832,response,ISIC_0065421.JPG,5,ISIC_0032721.JPG,ISIC_0032721.JPG,false,0,keypress(z),500,687067.7000000477,687067.5,684110.459,684262.8000000715,684111.868,686920.725,8,400,21,,ISIC_0065421.JPG
break,html.Screen,4_120_1,2023-08-30T13:46:26.325Z,,0,,,NaN,,,,,,false,,,,687070.5,687069.6000000238,,687069,,686920.725,8,400,,,
break_continue,html.Screen,4_120_2,2023-08-30T13:46:26.325Z,,0,,,NaN,,,,,,false,,,,687071.1000000238,687070.8999999762,,687070.6000000238,,686920.725,8,400,,,
sequence,flow.Sequence,4_120,2023-08-30T13:46:26.326Z,,0,,,2959.0319999761414,completion,,,,,false,,,,687071.2000000477,687070.8999999762,684110.459,684262.8000000715,684111.868,686920.725,8,400,,,
trial,html.Screen,4_121_0,2023-08-30T13:46:29.047Z,,0,3,,2871.6749999761814,response,ISIC_0016123.JPG,5,ISIC_0066564.JPG,ISIC_0066564.JPG,false,0,keypress(z),500,689792.6000000238,689792.3999999762,686917.032,687071.5,686920.725,689644.453,8,400,22,,ISIC_0016123.JPG
break,html.Screen,4_121_1,2023-08-30T13:46:29.048Z,,0,,,NaN,,,,,,false,,,,689793.3000000715,689793.1000000238,,689792.8000000715,,689644.453,8,400,,,
break_continue,html.Screen,4_121_2,2023-08-30T13:46:29.049Z,,0,,,NaN,,,,,,false,,,,689794.2000000477,689794.1000000238,,689793.3999999762,,689644.453,8,400,,,
sequence,flow.Sequence,4_121,2023-08-30T13:46:29.049Z,,0,,,2873.375000023865,completion,,,,,false,,,,689794.3000000715,689794.1000000238,686917.032,687071.3999999762,686920.725,689644.453,8,400,,,
trial,html.Screen,4_122_0,2023-08-30T13:46:31.914Z,,0,3,,3015.4469999761786,response,ISIC_2940684.JPG,5,ISIC_5108076.JPG,ISIC_5108076.JPG,false,0,keypress(z),500,692660.1000000238,692659.8999999762,689639.496,689794.5,689644.453,692512.279,8,400,23,,ISIC_2940684.JPG
break,html.Screen,4_122_1,2023-08-30T13:46:31.916Z,,0,,,NaN,,,,,,false,,,,692661.8999999762,692660.8000000715,,692660.3999999762,,692512.279,8,400,,,
break_continue,html.Screen,4_122_2,2023-08-30T13:46:31.917Z,,0,,,NaN,,,,,,false,,,,692662.6000000238,692662.3999999762,,692662,,692512.279,8,400,,,
sequence,flow.Sequence,4_122,2023-08-30T13:46:31.917Z,,0,,,3017.9469999761786,completion,,,,,false,,,,692662.8000000715,692662.3999999762,689639.496,689794.3999999762,689644.453,692512.279,8,400,,,
trial,html.Screen,4_123_0,2023-08-30T13:46:34.799Z,,0,3,,3032.1209999761777,response,ISIC_0033121.JPG,5,ISIC_0030417.JPG,ISIC_0033121.JPG,false,1,keypress(m),500,695544.6000000238,695544.3999999762,692502.568,692663,692512.279,695396.617,8,400,24,,ISIC_0030417.JPG
break,html.Screen,4_123_1,2023-08-30T13:46:34.800Z,,0,,,NaN,,,,,,false,,,,695545.8000000715,695545.5,,695544.8999999762,,695396.617,8,400,,,
break_continue,html.Screen,4_123_2,2023-08-30T13:46:34.801Z,,0,,,NaN,,,,,,false,,,,695546.2000000477,695546.1000000238,,695545.8999999762,,695396.617,8,400,,,
sequence,flow.Sequence,4_123,2023-08-30T13:46:34.801Z,,0,,,3033.8210000238614,completion,,,,,false,,,,695546.3999999762,695546.1000000238,692502.568,692662.8999999762,692512.279,695396.617,8,400,,,
trial,html.Screen,4_124_0,2023-08-30T13:46:37.908Z,,0,3,,3256.3830000000307,response,ISIC_6414435.JPG,5,ISIC_5410481.JPG,ISIC_6414435.JPG,false,1,keypress(m),500,698653.3000000715,698653,695385.38,695546.5,695396.617,698505.247,8,400,25,,ISIC_5410481.JPG
break,html.Screen,4_124_1,2023-08-30T13:46:37.909Z,,0,,,NaN,,,,,,false,,,,698654.8999999762,698654.1000000238,,698653.5,,698505.247,8,400,,,
break_continue,html.Screen,4_124_2,2023-08-30T13:46:37.910Z,,0,,,NaN,,,,,,false,,,,698655.6000000238,698655.5,,698655.1000000238,,698505.247,8,400,,,
sequence,flow.Sequence,4_124,2023-08-30T13:46:37.910Z,,0,,,3258.8830000000307,completion,,,,,false,,,,698655.8000000715,698655.5,695385.38,695546.5,695396.617,698505.247,8,400,,,
trial,html.Screen,4_125_0,2023-08-30T13:46:40.814Z,,0,3,,3054.353000023868,response,ISIC_1102075.JPG,5,ISIC_9214649.JPG,ISIC_1102075.JPG,false,1,keypress(m),500,701559.8999999762,701559.6000000238,698489.874,698656,698505.247,701411.834,8,400,26,,ISIC_9214649.JPG
break,html.Screen,4_125_1,2023-08-30T13:46:40.815Z,,0,,,NaN,,,,,,false,,,,701560.6000000238,701560.3999999762,,701560,,701411.834,8,400,,,
break_continue,html.Screen,4_125_2,2023-08-30T13:46:40.815Z,,0,,,NaN,,,,,,false,,,,701561,701560.8999999762,,701560.8000000715,,701411.834,8,400,,,
sequence,flow.Sequence,4_125,2023-08-30T13:46:40.815Z,,0,,,3055.652999976184,completion,,,,,false,,,,701561.1000000238,701560.8999999762,698489.874,698656,698505.247,701411.834,8,400,,,
trial,html.Screen,4_126_0,2023-08-30T13:46:44.675Z,,0,3,,4008.966000071494,response,ISIC_6024335.JPG,4,ISIC_9024724.JPG,ISIC_9024724.JPG,false,0,keypress(z),500,705421.1000000238,705420.8000000715,701410.424,701561.1000000238,701411.834,705273.045,8,400,27,,ISIC_6024335.JPG
break,html.Screen,4_126_1,2023-08-30T13:46:44.677Z,,0,,,NaN,,,,,,false,,,,705422.8000000715,705421.8999999762,,705421.3000000715,,705273.045,8,400,,,
