sender,sender_type,sender_id,timestamp,meta,,blockNo,condition,duration,ended_on,img_left,img_reveal,img_right,loser,practice,response,response_action,selection_duration,time_commit,time_end,time_render,time_run,time_show,time_switch,total_blocks,total_trials,trialNo,url,winner
informed_consent,html.Screen,0,2023-09-12T00:35:40.994Z,"{""labjs_version"":""20.2.4"",""labjs_build"":{""flavor"":""development"",""commit"":""f5b4a49f956347addd546a832a3327688c2c0fef""},""location"":""https://labjs.felixhenninger.com/api/labjs_preview/index.html"",""userAgent"":""Mozilla/5.0 (Windows NT 10.0; Win64; x64) AppleWebKit/537.36 (KHTML, like Gecko) Chrome/116.0.0.0 Safari/537.36"",""platform"":""Win32"",""language"":""en-AU"",""locale"":""en-US"",""timeZone"":""America/Chicago"",""timezoneOffset"":300,""screen_width"":1680,""screen_height"":1050,""scroll_width"":1296,""scroll_height"":688,""window_innerWidth"":1296,""window_innerHeight"":736,""devicePixelRatio"":1}",,,,84495.11699990464,response,,,,,,consent,click button,,85077.19999980927,85068.59999990463,556.739,565.3999996185303,573.483,85071.226,,,,{},
Welcome,html.Screen,1,2023-09-12T00:35:41.154Z,,,,symmetry,165.5739997139026,response,,,,,,continue,click button,,85237.2999997139,85236.7999997139,85054.771,85077.59999990463,85071.226,85255.312,,,,,
trial,html.Screen,2_0_0,2023-09-12T00:35:52.154Z,,0,0,,10981.787999904627,response,ISIC_0069348.JPG,,ISIC_6997061.JPG,ISIC_0069348.JPG,true,1,keypress(m),500,96237.19999980927,96237.09999990463,85221.623,85237.5,85255.312,96242.985,1,6,1,,ISIC_6997061.JPG
sequence,flow.Sequence,2_0,2023-09-12T00:35:52.154Z,,0,,,10981.787999904627,completion,,,,,true,,,,96237.5,96237.09999990463,85221.623,85237.5,85255.312,96242.985,1,6,,,
trial,html.Screen,2_1_0,2023-09-12T00:35:55.807Z,,0,0,,3646.4149996185297,response,ISIC_0009529.JPG,,ISIC_0057368.JPG,ISIC_0057368.JPG,true,0,keypress(z),500,99889.59999990463,99889.39999961853,96226.371,96237.5,96242.985,99900.122,1,6,2,,ISIC_0009529.JPG
sequence,flow.Sequence,2_1,2023-09-12T00:35:55.807Z,,0,,,3646.4149996185297,completion,,,,,true,,,,99889.7999997139,99889.39999961853,96226.371,96237.5,96242.985,99900.122,1,6,,,
trial,html.Screen,2_2_0,2023-09-12T00:36:00.247Z,,0,0,,4430.277999618527,response,ISIC_0064954.JPG,,ISIC_9758671.JPG,ISIC_9758671.JPG,true,0,keypress(z),500,104330.5,104330.39999961853,99883.455,99889.89999961853,99900.122,104342.17,1,6,3,,ISIC_0064954.JPG
sequence,flow.Sequence,2_2,2023-09-12T00:36:00.248Z,,0,,,4430.277999618527,completion,,,,,true,,,,104330.59999990463,104330.39999961853,99883.455,99889.7999997139,99900.122,104342.17,1,6,,,
trial,html.Screen,2_3_0,2023-09-12T00:36:04.313Z,,0,0,,4053.9299999046343,response,ISIC_0005785.JPG,,ISIC_0000080.JPG,ISIC_0005785.JPG,true,1,keypress(m),500,108396.19999980927,108396.09999990463,104325.452,104330.69999980927,104342.17,108399.974,1,6,4,,ISIC_0000080.JPG
sequence,flow.Sequence,2_3,2023-09-12T00:36:04.313Z,,0,,,4053.9299999046343,completion,,,,,true,,,,108396.39999961853,108396.09999990463,104325.452,104330.69999980927,104342.17,108399.974,1,6,,,
trial,html.Screen,2_4_0,2023-09-12T00:36:07.984Z,,0,0,,3667.1259999046306,response,ISIC_5390060.JPG,,ISIC_7944028.JPG,ISIC_5390060.JPG,true,1,keypress(m),500,112067.19999980927,112067.09999990463,108383.448,108396.5,108399.974,112073.809,1,6,5,,ISIC_7944028.JPG
sequence,flow.Sequence,2_4,2023-09-12T00:36:07.984Z,,0,,,3667.1259999046306,completion,,,,,true,,,,112067.39999961853,112067.09999990463,108383.448,108396.5,108399.974,112073.809,1,6,,,
trial,html.Screen,2_5_0,2023-09-12T00:36:11.379Z,,0,0,,3387.8909998092713,response,ISIC_0010188.JPG,,ISIC_0794216.JPG,ISIC_0010188.JPG,true,1,keypress(m),500,115461.7999997139,115461.69999980927,112057.199,112067.5,112073.809,115480.488,1,6,6,,ISIC_0794216.JPG
sequence,flow.Sequence,2_5,2023-09-12T00:36:11.379Z,,0,,,3387.8909998092713,completion,,,,,true,,,,115462,115461.69999980927,112057.199,112067.5,112073.809,115480.488,1,6,,,
loop,flow.Loop,2,2023-09-12T00:36:11.379Z,,,,,30206.38799980926,completion,,,,,true,,,,115462.09999990463,115461.69999980927,85221.623,85237.39999961853,85255.312,115480.488,1,6,,,
exp_instructions,html.Screen,3,2023-09-12T00:36:18.919Z,,,,,7520.911999618533,response,,,,,,continue,keypress(Space),,123001.7999997139,123001.39999961853,115463.699,115462.09999990463,115480.488,123028.468,,,,,
trial,html.Screen,4_0_0,2023-09-12T00:36:24.636Z,,0,1,,5690.631999904639,response,ISIC_6959281.JPG,5,ISIC_0028512.JPG,ISIC_0028512.JPG,false,0,keypress(z),500,128719.2999997139,128719.09999990463,123011.809,123002,123028.468,128722.876,8,400,1,,ISIC_6959281.JPG
break,html.Screen,4_0_1,2023-09-12T00:36:24.637Z,,0,,,NaN,,,,,,false,,,,128719.7999997139,128719.59999990463,,128719.39999961853,,128722.876,8,400,,,
break_continue,html.Screen,4_0_2,2023-09-12T00:36:24.637Z,,0,,,NaN,,,,,,false,,,,128720,128719.89999961853,,128719.89999961853,,128722.876,8,400,,,
sequence,flow.Sequence,4_0,2023-09-12T00:36:24.637Z,,0,,,5691.431999618537,completion,,,,,false,,,,128720.09999990463,128719.89999961853,123011.809,123002,123028.468,128722.876,8,400,,,
trial,html.Screen,4_1_0,2023-09-12T00:36:29.551Z,,0,1,,4911.523999618526,response,ISIC_2266857.JPG,4,ISIC_0068798.JPG,ISIC_0068798.JPG,false,0,keypress(z),500,133634.5,133634.39999961853,128706.197,128720.09999990463,128722.876,133649.187,8,400,2,,ISIC_2266857.JPG
break,html.Screen,4_1_1,2023-09-12T00:36:29.552Z,,0,,,NaN,,,,,,false,,,,133635.2999997139,133635,,133634.59999990463,,133649.187,8,400,,,
break_continue,html.Screen,4_1_2,2023-09-12T00:36:29.553Z,,0,,,NaN,,,,,,false,,,,133635.5,133635.5,,133635.39999961853,,133649.187,8,400,,,
sequence,flow.Sequence,4_1,2023-09-12T00:36:29.553Z,,0,,,4912.623999999996,completion,,,,,false,,,,133635.59999990463,133635.5,128706.197,128720.09999990463,128722.876,133649.187,8,400,,,
trial,html.Screen,4_2_0,2023-09-12T00:36:34.712Z,,0,1,,5145.712999618525,response,ISIC_0028211.JPG,5,ISIC_8248922.JPG,ISIC_0028211.JPG,false,1,keypress(m),500,138795,138794.89999961853,133632.528,133635.69999980927,133649.187,138809.165,8,400,3,,ISIC_8248922.JPG
break,html.Screen,4_2_1,2023-09-12T00:36:34.712Z,,0,,,NaN,,,,,,false,,,,138795.39999961853,138795.39999961853,,138795.09999990463,,138809.165,8,400,,,
break_continue,html.Screen,4_2_2,2023-09-12T00:36:34.713Z,,0,,,NaN,,,,,,false,,,,138795.59999990463,138795.59999990463,,138795.5,,138809.165,8,400,,,
sequence,flow.Sequence,4_2,2023-09-12T00:36:34.713Z,,0,,,5146.412999904627,completion,,,,,false,,,,138795.69999980927,138795.59999990463,133632.528,133635.69999980927,133649.187,138809.165,8,400,,,
trial,html.Screen,4_3_0,2023-09-12T00:36:39.404Z,,0,1,,4677.234999618522,response,ISIC_0011798.JPG,6,ISIC_1696845.JPG,ISIC_0011798.JPG,false,1,keypress(m),500,143486.69999980927,143486.39999961853,138792.606,138795.7999997139,138809.165,143501.704,8,400,4,,ISIC_1696845.JPG
break,html.Screen,4_3_1,2023-09-12T00:36:39.405Z,,0,,,NaN,,,,,,false,,,,143488.19999980927,143487.7999997139,,143487.2999997139,,143501.704,8,400,,,
break_continue,html.Screen,4_3_2,2023-09-12T00:36:39.406Z,,0,,,NaN,,,,,,false,,,,143488.7999997139,143488.69999980927,,143488.39999961853,,143501.704,8,400,,,
sequence,flow.Sequence,4_3,2023-09-12T00:36:39.406Z,,0,,,4679.534999809257,completion,,,,,false,,,,143489,143488.69999980927,138792.606,138795.7999997139,138809.165,143501.704,8,400,,,
trial,html.Screen,4_4_0,2023-09-12T00:36:44.017Z,,0,1,,4597.695999618532,response,ISIC_1939413.JPG,6,ISIC_0029729.JPG,ISIC_1939413.JPG,false,1,keypress(m),500,148099.7999997139,148099.39999961853,143485.178,143489.19999980927,143501.704,148110.652,8,400,5,,ISIC_0029729.JPG
break,html.Screen,4_4_1,2023-09-12T00:36:44.018Z,,0,,,NaN,,,,,,false,,,,148101.39999961853,148100.89999961853,,148100.19999980927,,148110.652,8,400,,,
break_continue,html.Screen,4_4_2,2023-09-12T00:36:44.019Z,,0,,,NaN,,,,,,false,,,,148102.19999980927,148102,,148101.59999990463,,148110.652,8,400,,,
sequence,flow.Sequence,4_4,2023-09-12T00:36:44.019Z,,0,,,4600.296000000002,completion,,,,,false,,,,148102.5,148102,143485.178,143489.19999980927,143501.704,148110.652,8,400,,,
trial,html.Screen,4_5_0,2023-09-12T00:36:48.630Z,,0,1,,4601.947999904631,response,ISIC_6945921.JPG,5,ISIC_0031337.JPG,ISIC_6945921.JPG,false,1,keypress(m),500,152712.59999990463,152712.59999990463,148093.932,148102.7999997139,148110.652,152719.554,8,400,6,,ISIC_0031337.JPG
break,html.Screen,4_5_1,2023-09-12T00:36:48.630Z,,0,,,NaN,,,,,,false,,,,152713.39999961853,152713.09999990463,,152712.7999997139,,152719.554,8,400,,,
break_continue,html.Screen,4_5_2,2023-09-12T00:36:48.631Z,,0,,,NaN,,,,,,false,,,,152713.59999990463,152713.59999990463,,152713.39999961853,,152719.554,8,400,,,
sequence,flow.Sequence,4_5,2023-09-12T00:36:48.631Z,,0,,,4602.947999904631,completion,,,,,false,,,,152713.69999980927,152713.59999990463,148093.932,148102.69999980927,148110.652,152719.554,8,400,,,
trial,html.Screen,4_6_0,2023-09-12T00:36:53.705Z,,0,1,,5068.345999618527,response,ISIC_7984080.JPG,5,ISIC_3013468.JPG,ISIC_7984080.JPG,false,1,keypress(m),500,157788,157787.89999961853,152702.953,152713.69999980927,152719.554,157796.079,8,400,7,,ISIC_3013468.JPG
break,html.Screen,4_6_1,2023-09-12T00:36:53.706Z,,0,,,NaN,,,,,,false,,,,157788.5,157788.39999961853,,157788.19999980927,,157796.079,8,400,,,
break_continue,html.Screen,4_6_2,2023-09-12T00:36:53.706Z,,0,,,NaN,,,,,,false,,,,157788.69999980927,157788.69999980927,,157788.5,,157796.079,8,400,,,
sequence,flow.Sequence,4_6,2023-09-12T00:36:53.706Z,,0,,,5069.145999809261,completion,,,,,false,,,,157788.7999997139,157788.69999980927,152702.953,152713.69999980927,152719.554,157796.079,8,400,,,
trial,html.Screen,4_7_0,2023-09-12T00:36:58.398Z,,0,1,,4684.120999809267,response,ISIC_3743283.JPG,5,ISIC_5288404.JPG,ISIC_5288404.JPG,false,0,keypress(z),500,162480.2999997139,162480.19999980927,157779.505,157788.7999997139,157796.079,162488.767,8,400,8,,ISIC_3743283.JPG
break,html.Screen,4_7_1,2023-09-12T00:36:58.398Z,,0,,,NaN,,,,,,false,,,,162480.7999997139,162480.69999980927,,162480.39999961853,,162488.767,8,400,,,
break_continue,html.Screen,4_7_2,2023-09-12T00:36:58.398Z,,0,,,NaN,,,,,,false,,,,162481.09999990463,162481.09999990463,,162480.89999961853,,162488.767,8,400,,,
sequence,flow.Sequence,4_7,2023-09-12T00:36:58.398Z,,0,,,4685.020999904635,completion,,,,,false,,,,162481.19999980927,162481.09999990463,157779.505,157788.7999997139,157796.079,162488.767,8,400,,,
trial,html.Screen,4_8_0,2023-09-12T00:37:02.680Z,,0,1,,4274.233000000007,response,ISIC_0072730.JPG,4,ISIC_2214766.JPG,ISIC_0072730.JPG,false,1,keypress(m),500,166763.19999980927,166763,162471.976,162481.19999980927,162488.767,166780.377,8,400,9,,ISIC_2214766.JPG
break,html.Screen,4_8_1,2023-09-12T00:37:02.682Z,,0,,,NaN,,,,,,false,,,,166764.2999997139,166764.09999990463,,166763.59999990463,,166780.377,8,400,,,
break_continue,html.Screen,4_8_2,2023-09-12T00:37:02.682Z,,0,,,NaN,,,,,,false,,,,166764.59999990463,166764.59999990463,,166764.5,,166780.377,8,400,,,
sequence,flow.Sequence,4_8,2023-09-12T00:37:02.682Z,,0,,,4275.83299990464,completion,,,,,false,,,,166764.7999997139,166764.59999990463,162471.976,162481.19999980927,162488.767,166780.377,8,400,,,
trial,html.Screen,4_9_0,2023-09-12T00:37:08.416Z,,0,1,,5718.322999809257,response,ISIC_0025546.JPG,5,ISIC_6002694.JPG,ISIC_0025546.JPG,false,1,keypress(m),500,172498.7999997139,172498.69999980927,166763.522,166764.89999961853,166780.377,172524.756,8,400,10,,ISIC_6002694.JPG
break,html.Screen,4_9_1,2023-09-12T00:37:08.416Z,,0,,,NaN,,,,,,false,,,,172499.19999980927,172499.09999990463,,172498.89999961853,,172524.756,8,400,,,
break_continue,html.Screen,4_9_2,2023-09-12T00:37:08.417Z,,0,,,NaN,,,,,,false,,,,172499.2999997139,172499.2999997139,,172499.19999980927,,172524.756,8,400,,,
sequence,flow.Sequence,4_9,2023-09-12T00:37:08.417Z,,0,,,5718.92299971389,completion,,,,,false,,,,172499.5,172499.2999997139,166763.522,166764.7999997139,166780.377,172524.756,8,400,,,
trial,html.Screen,4_10_0,2023-09-12T00:37:14.610Z,,0,1,,6168.244000000006,response,ISIC_3170155.JPG,5,ISIC_9745562.JPG,ISIC_3170155.JPG,false,1,keypress(m),500,178693.09999990463,178693,172508.087,172499.5,172524.756,178703.46,8,400,11,,ISIC_9745562.JPG
break,html.Screen,4_10_1,2023-09-12T00:37:14.611Z,,0,,,NaN,,,,,,false,,,,178693.59999990463,178693.5,,178693.19999980927,,178703.46,8,400,,,
break_continue,html.Screen,4_10_2,2023-09-12T00:37:14.611Z,,0,,,NaN,,,,,,false,,,,178693.89999961853,178693.7999997139,,178693.69999980927,,178703.46,8,400,,,
sequence,flow.Sequence,4_10,2023-09-12T00:37:14.611Z,,0,,,6169.043999713904,completion,,,,,false,,,,178693.89999961853,178693.7999997139,172508.087,172499.5,172524.756,178703.46,8,400,,,
trial,html.Screen,4_11_0,2023-09-12T00:37:20.891Z,,0,1,,6269.739999809273,response,ISIC_9048507.JPG,4,ISIC_4136591.JPG,ISIC_9048507.JPG,false,1,keypress(m),500,184973.59999990463,184973.19999980927,178686.909,178694,178703.46,184982.347,8,400,12,,ISIC_4136591.JPG
break,html.Screen,4_11_1,2023-09-12T00:37:20.892Z,,0,,,NaN,,,,,,false,,,,184975.09999990463,184974.59999990463,,184973.7999997139,,184982.347,8,400,,,
break_continue,html.Screen,4_11_2,2023-09-12T00:37:20.893Z,,0,,,NaN,,,,,,false,,,,184976,184975.69999980927,,184975.2999997139,,184982.347,8,400,,,
sequence,flow.Sequence,4_11,2023-09-12T00:37:20.894Z,,0,,,6272.239999809273,completion,,,,,false,,,,184976.39999961853,184975.69999980927,178686.909,178694,178703.46,184982.347,8,400,,,
trial,html.Screen,4_12_0,2023-09-12T00:37:26.739Z,,0,1,,5839.352999809256,response,ISIC_8414421.JPG,5,ISIC_0033856.JPG,ISIC_0033856.JPG,false,0,keypress(z),500,190821.7999997139,190821.69999980927,184965.667,184976.59999990463,184982.347,190827.121,8,400,13,,ISIC_8414421.JPG
break,html.Screen,4_12_1,2023-09-12T00:37:26.740Z,,0,,,NaN,,,,,,false,,,,190822.5,190822.19999980927,,190822,,190827.121,8,400,,,
break_continue,html.Screen,4_12_2,2023-09-12T00:37:26.740Z,,0,,,NaN,,,,,,false,,,,190822.69999980927,190822.69999980927,,190822.5,,190827.121,8,400,,,
sequence,flow.Sequence,4_12,2023-09-12T00:37:26.740Z,,0,,,5840.352999809256,completion,,,,,false,,,,190822.7999997139,190822.69999980927,184965.667,184976.5,184982.347,190827.121,8,400,,,
trial,html.Screen,4_13_0,2023-09-12T00:37:32.092Z,,0,1,,5347.378999999986,response,ISIC_6340564.JPG,5,ISIC_0072371.JPG,ISIC_6340564.JPG,false,1,keypress(m),500,196174.59999990463,196174.5,190810.449,190822.89999961853,190827.121,196187.458,8,400,14,,ISIC_0072371.JPG
break,html.Screen,4_13_1,2023-09-12T00:37:32.093Z,,0,,,NaN,,,,,,false,,,,196175.69999980927,196175.39999961853,,196175,,196187.458,8,400,,,
break_continue,html.Screen,4_13_2,2023-09-12T00:37:32.093Z,,0,,,NaN,,,,,,false,,,,196176.09999990463,196176,,196175.7999997139,,196187.458,8,400,,,
sequence,flow.Sequence,4_13,2023-09-12T00:37:32.094Z,,0,,,5348.878999999986,completion,,,,,false,,,,196176.39999961853,196176,190810.449,190822.89999961853,190827.121,196187.458,8,400,,,
trial,html.Screen,4_14_0,2023-09-12T00:37:37.504Z,,0,1,,5399.341999713884,response,ISIC_0000145.JPG,6,ISIC_5619654.JPG,ISIC_0000145.JPG,false,1,keypress(m),500,201587,201586.7999997139,196170.742,196176.5,196187.458,201598.072,8,400,15,,ISIC_5619654.JPG
break,html.Screen,4_14_1,2023-09-12T00:37:37.505Z,,0,,,NaN,,,,,,false,,,,201587.89999961853,201587.69999980927,,201587.09999990463,,201598.072,8,400,,,
break_continue,html.Screen,4_14_2,2023-09-12T00:37:37.506Z,,0,,,NaN,,,,,,false,,,,201588.19999980927,201588.09999990463,,201588,,201598.072,8,400,,,
sequence,flow.Sequence,4_14,2023-09-12T00:37:37.506Z,,0,,,5400.641999904619,completion,,,,,false,,,,201588.39999961853,201588.09999990463,196170.742,196176.39999961853,196187.458,201598.072,8,400,,,
trial,html.Screen,4_15_0,2023-09-12T00:37:43.402Z,,0,1,,5886.727999713912,response,ISIC_0014826.JPG,6,ISIC_0028029.JPG,ISIC_0028029.JPG,false,0,keypress(z),500,207484.89999961853,207484.7999997139,201581.42,201588.5,201598.072,207492.791,8,400,16,,ISIC_0014826.JPG
break,html.Screen,4_15_1,2023-09-12T00:37:43.403Z,,0,,,NaN,,,,,,false,,,,207485.5,207485.39999961853,,207485.09999990463,,207492.791,8,400,,,
break_continue,html.Screen,4_15_2,2023-09-12T00:37:43.403Z,,0,,,NaN,,,,,,false,,,,207485.7999997139,207485.7999997139,,207485.59999990463,,207492.791,8,400,,,
sequence,flow.Sequence,4_15,2023-09-12T00:37:43.403Z,,0,,,5887.727999713912,completion,,,,,false,,,,207485.89999961853,207485.7999997139,201581.42,201588.5,201598.072,207492.791,8,400,,,
trial,html.Screen,4_16_0,2023-09-12T00:37:49.637Z,,0,1,,6226.709000000003,response,ISIC_9072567.JPG,4,ISIC_0011097.JPG,ISIC_9072567.JPG,false,1,keypress(m),500,213719.5,213719.5,207476.25,207485.89999961853,207492.791,213721.633,8,400,17,,ISIC_0011097.JPG
break,html.Screen,4_16_1,2023-09-12T00:37:49.637Z,,0,,,NaN,,,,,,false,,,,213720.09999990463,213719.89999961853,,213719.69999980927,,213721.633,8,400,,,
break_continue,html.Screen,4_16_2,2023-09-12T00:37:49.637Z,,0,,,NaN,,,,,,false,,,,213720.19999980927,213720.19999980927,,213720.09999990463,,213721.633,8,400,,,
sequence,flow.Sequence,4_16,2023-09-12T00:37:49.638Z,,0,,,6227.408999809268,completion,,,,,false,,,,213720.2999997139,213720.19999980927,207476.25,207485.89999961853,207492.791,213721.633,8,400,,,
trial,html.Screen,4_17_0,2023-09-12T00:37:55.551Z,,0,1,,5911.266999618529,response,ISIC_0728350.JPG,6,ISIC_0057661.JPG,ISIC_0057661.JPG,false,0,keypress(z),500,219633.09999990463,219632.89999961853,213704.917,213720.2999997139,213721.633,219649.979,8,400,18,,ISIC_0728350.JPG
break,html.Screen,4_17_1,2023-09-12T00:37:55.551Z,,0,,,NaN,,,,,,false,,,,219633.69999980927,219633.5,,219633.2999997139,,219649.979,8,400,,,
break_continue,html.Screen,4_17_2,2023-09-12T00:37:55.552Z,,0,,,NaN,,,,,,false,,,,219634,219633.7999997139,,219633.7999997139,,219649.979,8,400,,,
sequence,flow.Sequence,4_17,2023-09-12T00:37:55.552Z,,0,,,5912.166999713896,completion,,,,,false,,,,219634,219633.7999997139,213704.917,213720.2999997139,213721.633,219649.979,8,400,,,
trial,html.Screen,4_18_0,2023-09-12T00:38:00.777Z,,0,1,,5208.820999713906,response,ISIC_0012988.JPG,5,ISIC_4692454.JPG,ISIC_0012988.JPG,false,1,keypress(m),500,224859,224858.7999997139,219633.303,219634.09999990463,219649.979,224859.948,8,400,19,,ISIC_4692454.JPG
break,html.Screen,4_18_1,2023-09-12T00:38:00.777Z,,0,,,NaN,,,,,,false,,,,224859.69999980927,224859.39999961853,,224859.19999980927,,224859.948,8,400,,,
break_continue,html.Screen,4_18_2,2023-09-12T00:38:00.778Z,,0,,,NaN,,,,,,false,,,,224860,224859.89999961853,,224859.7999997139,,224859.948,8,400,,,
sequence,flow.Sequence,4_18,2023-09-12T00:38:00.778Z,,0,,,5209.920999618538,completion,,,,,false,,,,224860.09999990463,224859.89999961853,219633.303,219634,219649.979,224859.948,8,400,,,
trial,html.Screen,4_19_0,2023-09-12T00:38:06.179Z,,0,1,,5400.851999713894,response,ISIC_0010631.JPG,4,ISIC_0012070.JPG,ISIC_0012070.JPG,false,0,keypress(z),500,230260.89999961853,230260.7999997139,224843.427,224860.19999980927,224859.948,230270.558,8,400,20,,ISIC_0010631.JPG
break,html.Screen,4_19_1,2023-09-12T00:38:06.179Z,,0,,,NaN,,,,,,false,,,,230261.39999961853,230261.2999997139,,230261,,230270.558,8,400,,,
break_continue,html.Screen,4_19_2,2023-09-12T00:38:06.179Z,,0,,,NaN,,,,,,false,,,,230261.59999990463,230261.5,,230261.5,,230270.558,8,400,,,
sequence,flow.Sequence,4_19,2023-09-12T00:38:06.179Z,,0,,,5401.551999999996,completion,,,,,false,,,,230261.59999990463,230261.5,224843.427,224860.19999980927,224859.948,230270.558,8,400,,,
trial,html.Screen,4_20_0,2023-09-12T00:38:12.588Z,,0,1,,6399.741999713908,response,ISIC_4417495.JPG,4,ISIC_0612080.JPG,ISIC_4417495.JPG,false,1,keypress(m),500,236670.5,236670.2999997139,230253.767,230261.59999990463,230270.558,236682.985,8,400,21,,ISIC_0612080.JPG
break,html.Screen,4_20_1,2023-09-12T00:38:12.589Z,,0,,,NaN,,,,,,false,,,,236671.19999980927,236670.89999961853,,236670.69999980927,,236682.985,8,400,,,
break_continue,html.Screen,4_20_2,2023-09-12T00:38:12.589Z,,0,,,NaN,,,,,,false,,,,236671.5,236671.39999961853,,236671.2999997139,,236682.985,8,400,,,
sequence,flow.Sequence,4_20,2023-09-12T00:38:12.589Z,,0,,,6400.84199961854,completion,,,,,false,,,,236671.59999990463,236671.39999961853,230253.767,230261.59999990463,230270.558,236682.985,8,400,,,
trial,html.Screen,4_21_0,2023-09-12T00:38:17.486Z,,0,1,,4885.714999809279,response,ISIC_0029660.JPG,6,ISIC_0034162.JPG,ISIC_0034162.JPG,false,0,keypress(z),500,241568.7999997139,241568.69999980927,236666.231,236671.59999990463,236682.985,241575.805,8,400,22,,ISIC_0029660.JPG
break,html.Screen,4_21_1,2023-09-12T00:38:17.487Z,,0,,,NaN,,,,,,false,,,,241569.69999980927,241569.39999961853,,241569,,241575.805,8,400,,,
break_continue,html.Screen,4_21_2,2023-09-12T00:38:17.488Z,,0,,,NaN,,,,,,false,,,,241570,241569.89999961853,,241569.7999997139,,241575.805,8,400,,,
sequence,flow.Sequence,4_21,2023-09-12T00:38:17.488Z,,0,,,4886.914999618544,completion,,,,,false,,,,241570.19999980927,241569.89999961853,236666.231,236671.59999990463,236682.985,241575.805,8,400,,,
trial,html.Screen,4_22_0,2023-09-12T00:38:23.155Z,,0,1,,5661.29499990464,response,ISIC_6942437.JPG,5,ISIC_0011855.JPG,ISIC_6942437.JPG,false,1,keypress(m),500,247237.2999997139,247237.09999990463,241559.211,241570.39999961853,241575.805,247253.509,8,400,23,,ISIC_0011855.JPG
break,html.Screen,4_22_1,2023-09-12T00:38:23.155Z,,0,,,NaN,,,,,,false,,,,247237.69999980927,247237.59999990463,,247237.2999997139,,247253.509,8,400,,,
break_continue,html.Screen,4_22_2,2023-09-12T00:38:23.156Z,,0,,,NaN,,,,,,false,,,,247237.89999961853,247237.7999997139,,247237.69999980927,,247253.509,8,400,,,
sequence,flow.Sequence,4_22,2023-09-12T00:38:23.156Z,,0,,,5661.994999713905,completion,,,,,false,,,,247238,247237.7999997139,241559.211,241570.39999961853,241575.805,247253.509,8,400,,,
trial,html.Screen,4_23_0,2023-09-12T00:38:29.163Z,,0,1,,5991.491000000009,response,ISIC_0033595.JPG,6,ISIC_1305537.JPG,ISIC_0033595.JPG,false,1,keypress(m),500,253245.09999990463,253245,247236.932,247238,247253.509,253265.233,8,400,24,,ISIC_1305537.JPG
break,html.Screen,4_23_1,2023-09-12T00:38:29.163Z,,0,,,NaN,,,,,,false,,,,253245.5,253245.39999961853,,253245.19999980927,,253265.233,8,400,,,
break_continue,html.Screen,4_23_2,2023-09-12T00:38:29.163Z,,0,,,NaN,,,,,,false,,,,253245.69999980927,253245.69999980927,,253245.5,,253265.233,8,400,,,
sequence,flow.Sequence,4_23,2023-09-12T00:38:29.163Z,,0,,,5992.190999809274,completion,,,,,false,,,,253245.69999980927,253245.69999980927,247236.932,247238,247253.509,253265.233,8,400,,,
trial,html.Screen,4_24_0,2023-09-12T00:38:34.702Z,,0,1,,5519.06699971389,response,ISIC_0579047.JPG,5,ISIC_0014489.JPG,ISIC_0579047.JPG,false,1,keypress(m),500,258784.39999961853,258784.2999997139,253248.496,253245.7999997139,253265.233,258792.641,8,400,25,,ISIC_0014489.JPG
break,html.Screen,4_24_1,2023-09-12T00:38:34.702Z,,0,,,NaN,,,,,,false,,,,258784.7999997139,258784.69999980927,,258784.39999961853,,258792.641,8,400,,,
break_continue,html.Screen,4_24_2,2023-09-12T00:38:34.703Z,,0,,,NaN,,,,,,false,,,,258785,258785,,258784.89999961853,,258792.641,8,400,,,
sequence,flow.Sequence,4_24,2023-09-12T00:38:34.703Z,,0,,,5519.766999999993,completion,,,,,false,,,,258785,258785,253248.496,253245.69999980927,253265.233,258792.641,8,400,,,
trial,html.Screen,4_25_0,2023-09-12T00:38:39.392Z,,0,1,,4681.458999904629,response,ISIC_4011169.JPG,5,ISIC_9765024.JPG,ISIC_9765024.JPG,false,0,keypress(z),500,263474.19999980927,263474.09999990463,258776.023,258785.09999990463,258792.641,263485.077,8,400,26,,ISIC_4011169.JPG
break,html.Screen,4_25_1,2023-09-12T00:38:39.392Z,,0,,,NaN,,,,,,false,,,,263474.69999980927,263474.59999990463,,263474.39999961853,,263485.077,8,400,,,
break_continue,html.Screen,4_25_2,2023-09-12T00:38:39.393Z,,0,,,NaN,,,,,,false,,,,263474.89999961853,263474.7999997139,,263474.7999997139,,263485.077,8,400,,,
sequence,flow.Sequence,4_25,2023-09-12T00:38:39.393Z,,0,,,4682.158999713894,completion,,,,,false,,,,263475,263474.7999997139,258776.023,258785,258792.641,263485.077,8,400,,,
trial,html.Screen,4_26_0,2023-09-12T00:38:44.068Z,,0,1,,4665.522999904642,response,ISIC_0058594.JPG,5,ISIC_8128335.JPG,ISIC_0058594.JPG,false,1,keypress(m),500,268150.69999980927,268150.59999990463,263468.514,263475.09999990463,263485.077,268160.89,8,400,27,,ISIC_8128335.JPG
break,html.Screen,4_26_1,2023-09-12T00:38:44.069Z,,0,,,NaN,,,,,,false,,,,268151.39999961853,268151.2999997139,,268151,,268160.89,8,400,,,
break_continue,html.Screen,4_26_2,2023-09-12T00:38:44.069Z,,0,,,NaN,,,,,,false,,,,268151.7999997139,268151.7999997139,,268151.59999990463,,268160.89,8,400,,,
sequence,flow.Sequence,4_26,2023-09-12T00:38:44.070Z,,0,,,4666.7229997139075,completion,,,,,false,,,,268151.89999961853,268151.7999997139,263468.514,263475.09999990463,263485.077,268160.89,8,400,,,
trial,html.Screen,4_27_0,2023-09-12T00:38:50.186Z,,0,1,,6107.209999904619,response,ISIC_2970409.JPG,4,ISIC_0025512.JPG,ISIC_0025512.JPG,false,0,keypress(z),500,274268.19999980927,274268.09999990463,268144.274,268152,268160.89,274272.742,8,400,28,,ISIC_2970409.JPG
break,html.Screen,4_27_1,2023-09-12T00:38:50.187Z,,0,,,NaN,,,,,,false,,,,274269.09999990463,274268.89999961853,,274268.5,,274272.742,8,400,,,
break_continue,html.Screen,4_27_2,2023-09-12T00:38:50.188Z,,0,,,NaN,,,,,,false,,,,274269.69999980927,274269.5,,274269.2999997139,,274272.742,8,400,,,
sequence,flow.Sequence,4_27,2023-09-12T00:38:50.188Z,,0,,,6108.609999999986,completion,,,,,false,,,,274269.89999961853,274269.5,268144.274,268151.89999961853,268160.89,274272.742,8,400,,,
trial,html.Screen,4_28_0,2023-09-12T00:38:56.173Z,,0,1,,5982.657999618503,response,ISIC_7327423.JPG,6,ISIC_0000305.JPG,ISIC_0000305.JPG,false,0,keypress(z),500,280255.5,280255.39999961853,274256.327,274270,274272.742,280267.898,8,400,29,,ISIC_7327423.JPG
break,html.Screen,4_28_1,2023-09-12T00:38:56.174Z,,0,,,NaN,,,,,,false,,,,280256.19999980927,280256,,280255.7999997139,,280267.898,8,400,,,
break_continue,html.Screen,4_28_2,2023-09-12T00:38:56.174Z,,0,,,NaN,,,,,,false,,,,280256.59999990463,280256.5,,280256.2999997139,,280267.898,8,400,,,
sequence,flow.Sequence,4_28,2023-09-12T00:38:56.175Z,,0,,,5983.7579999999725,completion,,,,,false,,,,280256.69999980927,280256.5,274256.327,274270,274272.742,280267.898,8,400,,,
trial,html.Screen,4_29_0,2023-09-12T00:39:01.668Z,,0,1,,5482.6020000000135,response,ISIC_0064694.JPG,5,ISIC_1142933.JPG,ISIC_0064694.JPG,false,1,keypress(m),500,285750.59999990463,285750.5,280251.115,280256.7999997139,280267.898,285761.906,8,400,30,,ISIC_1142933.JPG
break,html.Screen,4_29_1,2023-09-12T00:39:01.669Z,,0,,,NaN,,,,,,false,,,,285751.09999990463,285751,,285750.69999980927,,285761.906,8,400,,,
break_continue,html.Screen,4_29_2,2023-09-12T00:39:01.669Z,,0,,,NaN,,,,,,false,,,,285751.19999980927,285751.19999980927,,285751.09999990463,,285761.906,8,400,,,
sequence,flow.Sequence,4_29,2023-09-12T00:39:01.669Z,,0,,,5483.301999809279,completion,,,,,false,,,,285751.19999980927,285751.19999980927,280251.115,280256.69999980927,280267.898,285761.906,8,400,,,
trial,html.Screen,4_30_0,2023-09-12T00:39:06.022Z,,0,1,,4342.093999999983,response,ISIC_8479913.JPG,5,ISIC_8406262.JPG,ISIC_8479913.JPG,false,1,keypress(m),500,290104.09999990463,290104,285745.208,285751.2999997139,285761.906,290136.984,8,400,31,,ISIC_8406262.JPG
break,html.Screen,4_30_1,2023-09-12T00:39:06.023Z,,0,,,NaN,,,,,,false,,,,290104.69999980927,290104.5,,290104.2999997139,,290136.984,8,400,,,
break_continue,html.Screen,4_30_2,2023-09-12T00:39:06.023Z,,0,,,NaN,,,,,,false,,,,290104.89999961853,290104.89999961853,,290104.7999997139,,290136.984,8,400,,,
sequence,flow.Sequence,4_30,2023-09-12T00:39:06.023Z,,0,,,4342.993999618513,completion,,,,,false,,,,290105,290104.89999961853,285745.208,285751.2999997139,285761.906,290136.984,8,400,,,
trial,html.Screen,4_31_0,2023-09-12T00:39:11.230Z,,0,1,,5175.115999904636,response,ISIC_0015179.JPG,5,ISIC_8622204.JPG,ISIC_0015179.JPG,false,1,keypress(m),500,295312.19999980927,295312.09999990463,290120.285,290105.09999990463,290136.984,295313.675,8,400,32,,ISIC_8622204.JPG
break,html.Screen,4_31_1,2023-09-12T00:39:11.231Z,,0,,,NaN,,,,,,false,,,,295312.69999980927,295312.69999980927,,295312.2999997139,,295313.675,8,400,,,
break_continue,html.Screen,4_31_2,2023-09-12T00:39:11.231Z,,0,,,NaN,,,,,,false,,,,295313.09999990463,295313,,295312.89999961853,,295313.675,8,400,,,
sequence,flow.Sequence,4_31,2023-09-12T00:39:11.231Z,,0,,,5176.016000000003,completion,,,,,false,,,,295313.19999980927,295313,290120.285,290105.09999990463,290136.984,295313.675,8,400,,,
trial,html.Screen,4_32_0,2023-09-12T00:39:16.257Z,,0,1,,5025.024999809277,response,ISIC_0033570.JPG,6,ISIC_2372468.JPG,ISIC_0033570.JPG,false,1,keypress(m),500,300339.09999990463,300338.69999980927,295297.123,295313.2999997139,295313.675,300356.893,8,400,33,,ISIC_2372468.JPG
break,html.Screen,4_32_1,2023-09-12T00:39:16.259Z,,0,,,NaN,,,,,,false,,,,300341.2999997139,300340.59999990463,,300339.39999961853,,300356.893,8,400,,,
break_continue,html.Screen,4_32_2,2023-09-12T00:39:16.260Z,,0,,,NaN,,,,,,false,,,,300342.19999980927,300341.89999961853,,300341.5,,300356.893,8,400,,,
sequence,flow.Sequence,4_32,2023-09-12T00:39:16.260Z,,0,,,5028.224999618542,completion,,,,,false,,,,300342.5,300341.89999961853,295297.123,295313.2999997139,295313.675,300356.893,8,400,,,
trial,html.Screen,4_33_0,2023-09-12T00:39:21.207Z,,0,1,,4932.406999713916,response,ISIC_6815524.JPG,6,ISIC_0065727.JPG,ISIC_0065727.JPG,false,0,keypress(z),500,305289.5,305289.2999997139,300340.233,300342.69999980927,300356.893,305316.527,8,400,34,,ISIC_6815524.JPG
break,html.Screen,4_33_1,2023-09-12T00:39:21.208Z,,0,,,NaN,,,,,,false,,,,305290.2999997139,305290.09999990463,,305289.7999997139,,305316.527,8,400,,,
break_continue,html.Screen,4_33_2,2023-09-12T00:39:21.208Z,,0,,,NaN,,,,,,false,,,,305290.59999990463,305290.5,,305290.39999961853,,305316.527,8,400,,,
sequence,flow.Sequence,4_33,2023-09-12T00:39:21.209Z,,0,,,4933.607000000018,completion,,,,,false,,,,305290.69999980927,305290.5,300340.233,300342.59999990463,300356.893,305316.527,8,400,,,
trial,html.Screen,4_34_0,2023-09-12T00:39:26.175Z,,0,1,,4940.072999904631,response,ISIC_1513720.JPG,5,ISIC_7973296.JPG,ISIC_1513720.JPG,false,1,keypress(m),500,310256.7999997139,310256.59999990463,305299.842,305290.89999961853,305316.527,310276.166,8,400,35,,ISIC_7973296.JPG
break,html.Screen,4_34_1,2023-09-12T00:39:26.175Z,,0,,,NaN,,,,,,false,,,,310257.09999990463,310257,,310256.7999997139,,310276.166,8,400,,,
break_continue,html.Screen,4_34_2,2023-09-12T00:39:26.175Z,,0,,,NaN,,,,,,false,,,,310257.2999997139,310257.19999980927,,310257.19999980927,,310276.166,8,400,,,
sequence,flow.Sequence,4_34,2023-09-12T00:39:26.175Z,,0,,,4940.672999809263,completion,,,,,false,,,,310257.39999961853,310257.19999980927,305299.842,305290.7999997139,305316.527,310276.166,8,400,,,
trial,html.Screen,4_35_0,2023-09-12T00:39:32.144Z,,0,1,,5950.133999713871,response,ISIC_5298608.JPG,5,ISIC_0026652.JPG,ISIC_0026652.JPG,false,0,keypress(z),500,316226.39999961853,316226.2999997139,310259.464,310257.39999961853,310276.166,316237.739,8,400,36,,ISIC_5298608.JPG
break,html.Screen,4_35_1,2023-09-12T00:39:32.145Z,,0,,,NaN,,,,,,false,,,,316227.2999997139,316227.09999990463,,316226.59999990463,,316237.739,8,400,,,
break_continue,html.Screen,4_35_2,2023-09-12T00:39:32.145Z,,0,,,NaN,,,,,,false,,,,316227.5,316227.5,,316227.39999961853,,316237.739,8,400,,,
sequence,flow.Sequence,4_35,2023-09-12T00:39:32.146Z,,0,,,5951.3339999999735,completion,,,,,false,,,,316227.69999980927,316227.5,310259.464,310257.39999961853,310276.166,316237.739,8,400,,,
trial,html.Screen,4_36_0,2023-09-12T00:39:37.045Z,,0,1,,4888.960999809264,response,ISIC_0030101.JPG,5,ISIC_6756517.JPG,ISIC_0030101.JPG,false,1,keypress(m),500,321126.89999961853,321126.69999980927,316221.144,316227.7999997139,316237.739,321147.306,8,400,37,,ISIC_6756517.JPG
break,html.Screen,4_36_1,2023-09-12T00:39:37.045Z,,0,,,NaN,,,,,,false,,,,321127.5,321127.2999997139,,321127,,321147.306,8,400,,,
break_continue,html.Screen,4_36_2,2023-09-12T00:39:37.046Z,,0,,,NaN,,,,,,false,,,,321127.69999980927,321127.69999980927,,321127.59999990463,,321147.306,8,400,,,
sequence,flow.Sequence,4_36,2023-09-12T00:39:37.046Z,,0,,,4889.960999809264,completion,,,,,false,,,,321127.89999961853,321127.69999980927,316221.144,316227.7999997139,316237.739,321147.306,8,400,,,
trial,html.Screen,4_37_0,2023-09-12T00:39:41.997Z,,0,1,,4931.593999618548,response,ISIC_0010636.JPG,5,ISIC_0010441.JPG,ISIC_0010441.JPG,false,0,keypress(z),500,326079.19999980927,326078.89999961853,321130.638,321127.89999961853,321147.306,326107.017,8,400,38,,ISIC_0010636.JPG
break,html.Screen,4_37_1,2023-09-12T00:39:41.999Z,,0,,,NaN,,,,,,false,,,,326080.69999980927,326080.2999997139,,326079.69999980927,,326107.017,8,400,,,
break_continue,html.Screen,4_37_2,2023-09-12T00:39:41.999Z,,0,,,NaN,,,,,,false,,,,326081.59999990463,326081.2999997139,,326081,,326107.017,8,400,,,
sequence,flow.Sequence,4_37,2023-09-12T00:39:42.000Z,,0,,,4933.993999713915,completion,,,,,false,,,,326081.89999961853,326081.2999997139,321130.638,321127.89999961853,321147.306,326107.017,8,400,,,
trial,html.Screen,4_38_0,2023-09-12T00:39:47.476Z,,0,1,,5450.58299990464,response,ISIC_1383822.JPG,6,ISIC_3436033.JPG,ISIC_3436033.JPG,false,0,keypress(z),500,331557.7999997139,331557.59999990463,326090.429,326082.19999980927,326107.017,331567.61,8,400,39,,ISIC_1383822.JPG
break,html.Screen,4_38_1,2023-09-12T00:39:47.476Z,,0,,,NaN,,,,,,false,,,,331558.39999961853,331558.09999990463,,331557.89999961853,,331567.61,8,400,,,
break_continue,html.Screen,4_38_2,2023-09-12T00:39:47.477Z,,0,,,NaN,,,,,,false,,,,331558.69999980927,331558.69999980927,,331558.5,,331567.61,8,400,,,
sequence,flow.Sequence,4_38,2023-09-12T00:39:47.477Z,,0,,,5451.682999809273,completion,,,,,false,,,,331558.7999997139,331558.69999980927,326090.429,326082.09999990463,326107.017,331567.61,8,400,,,
trial,html.Screen,4_39_0,2023-09-12T00:39:52.733Z,,0,1,,5246.689999713912,response,ISIC_0029033.JPG,4,ISIC_6642608.JPG,ISIC_0029033.JPG,false,1,keypress(m),500,336814.5,336814.2999997139,331551.154,331558.89999961853,331567.61,336827.902,8,400,40,,ISIC_6642608.JPG
break,html.Screen,4_39_1,2023-09-12T00:39:52.733Z,,0,,,NaN,,,,,,false,,,,336815,336814.89999961853,,336814.5,,336827.902,8,400,,,
break_continue,html.Screen,4_39_2,2023-09-12T00:39:52.733Z,,0,,,NaN,,,,,,false,,,,336815.09999990463,336815.09999990463,,336815,,336827.902,8,400,,,
sequence,flow.Sequence,4_39,2023-09-12T00:39:52.733Z,,0,,,5247.4899999046465,completion,,,,,false,,,,336815.2999997139,336815.09999990463,331551.154,331558.89999961853,331567.61,336827.902,8,400,,,
trial,html.Screen,4_40_0,2023-09-12T00:39:58.240Z,,0,1,,5493.597999999998,response,ISIC_7277310.JPG,5,ISIC_0056819.JPG,ISIC_0056819.JPG,false,0,keypress(z),500,342321.59999990463,342321.5,336811.223,336815.2999997139,336827.902,342355.231,8,400,41,,ISIC_7277310.JPG
break,html.Screen,4_40_1,2023-09-12T00:39:58.240Z,,0,,,NaN,,,,,,false,,,,342322.09999990463,342321.89999961853,,342321.69999980927,,342355.231,8,400,,,
break_continue,html.Screen,4_40_2,2023-09-12T00:39:58.241Z,,0,,,NaN,,,,,,false,,,,342322.39999961853,342322.2999997139,,342322.19999980927,,342355.231,8,400,,,
sequence,flow.Sequence,4_40,2023-09-12T00:39:58.241Z,,0,,,5494.397999713896,completion,,,,,false,,,,342322.5,342322.2999997139,336811.223,336815.2999997139,336827.902,342355.231,8,400,,,
trial,html.Screen,4_41_0,2023-09-12T00:40:03.380Z,,0,1,,5105.768999999971,response,ISIC_4864523.JPG,5,ISIC_0031745.JPG,ISIC_4864523.JPG,false,1,keypress(m),500,347461.39999961853,347461,342338.543,342322.5,342355.231,347465.249,8,400,42,,ISIC_0031745.JPG
break,html.Screen,4_41_1,2023-09-12T00:40:03.381Z,,0,,,NaN,,,,,,false,,,,347463,347462.5,,347461.7999997139,,347465.249,8,400,,,
break_continue,html.Screen,4_41_2,2023-09-12T00:40:03.382Z,,0,,,NaN,,,,,,false,,,,347463.7999997139,347463.59999990463,,347463.19999980927,,347465.249,8,400,,,
sequence,flow.Sequence,4_41,2023-09-12T00:40:03.382Z,,0,,,5108.368999904604,completion,,,,,false,,,,347464.09999990463,347463.59999990463,342338.543,342322.5,342355.231,347465.249,8,400,,,
trial,html.Screen,4_42_0,2023-09-12T00:40:08.234Z,,0,1,,4850.65099961852,response,ISIC_6449065.JPG,5,ISIC_0027822.JPG,ISIC_0027822.JPG,false,0,keypress(z),500,352316.09999990463,352315.89999961853,347448.634,347464.39999961853,347465.249,352341.318,8,400,43,,ISIC_6449065.JPG
break,html.Screen,4_42_1,2023-09-12T00:40:08.235Z,,0,,,NaN,,,,,,false,,,,352316.39999961853,352316.2999997139,,352316.09999990463,,352341.318,8,400,,,
break_continue,html.Screen,4_42_2,2023-09-12T00:40:08.235Z,,0,,,NaN,,,,,,false,,,,352316.59999990463,352316.5,,352316.5,,352341.318,8,400,,,
sequence,flow.Sequence,4_42,2023-09-12T00:40:08.235Z,,0,,,4851.250999999989,completion,,,,,false,,,,352316.59999990463,352316.5,347448.634,347464.2999997139,347465.249,352341.318,8,400,,,
trial,html.Screen,4_43_0,2023-09-12T00:40:13.235Z,,0,1,,4975.181999999972,response,ISIC_7052658.JPG,5,ISIC_0066053.JPG,ISIC_0066053.JPG,false,0,keypress(z),500,357316.69999980927,357316.5,352324.659,352316.69999980927,352341.318,357334.494,8,400,44,,ISIC_7052658.JPG
break,html.Screen,4_43_1,2023-09-12T00:40:13.235Z,,0,,,NaN,,,,,,false,,,,357317.09999990463,357317,,357316.89999961853,,357334.494,8,400,,,
break_continue,html.Screen,4_43_2,2023-09-12T00:40:13.235Z,,0,,,NaN,,,,,,false,,,,357317.2999997139,357317.2999997139,,357317.19999980927,,357334.494,8,400,,,
sequence,flow.Sequence,4_43,2023-09-12T00:40:13.236Z,,0,,,4975.981999713869,completion,,,,,false,,,,357317.39999961853,357317.2999997139,352324.659,352316.69999980927,352341.318,357334.494,8,400,,,
trial,html.Screen,4_44_0,2023-09-12T00:40:18.984Z,,0,1,,5730.805999713892,response,ISIC_2633745.JPG,5,ISIC_0027492.JPG,ISIC_0027492.JPG,false,0,keypress(z),500,363065.5,363065.2999997139,357317.676,357317.39999961853,357334.494,363078.993,8,400,45,,ISIC_2633745.JPG
break,html.Screen,4_44_1,2023-09-12T00:40:18.984Z,,0,,,NaN,,,,,,false,,,,363066.09999990463,363065.89999961853,,363065.69999980927,,363078.993,8,400,,,
break_continue,html.Screen,4_44_2,2023-09-12T00:40:18.985Z,,0,,,NaN,,,,,,false,,,,363066.2999997139,363066.19999980927,,363066.09999990463,,363078.993,8,400,,,
sequence,flow.Sequence,4_44,2023-09-12T00:40:18.985Z,,0,,,5731.705999809259,completion,,,,,false,,,,363066.39999961853,363066.19999980927,357317.676,357317.39999961853,357334.494,363078.993,8,400,,,
trial,html.Screen,4_45_0,2023-09-12T00:40:24.250Z,,0,1,,5252.306999713881,response,ISIC_0033759.JPG,4,ISIC_0010777.JPG,ISIC_0033759.JPG,false,1,keypress(m),500,368331.39999961853,368331.2999997139,363062.373,363066.5,363078.993,368339.171,8,400,46,,ISIC_0010777.JPG
break,html.Screen,4_45_1,2023-09-12T00:40:24.250Z,,0,,,NaN,,,,,,false,,,,368332.09999990463,368331.89999961853,,368331.59999990463,,368339.171,8,400,,,
break_continue,html.Screen,4_45_2,2023-09-12T00:40:24.251Z,,0,,,NaN,,,,,,false,,,,368332.5,368332.39999961853,,368332.19999980927,,368339.171,8,400,,,
sequence,flow.Sequence,4_45,2023-09-12T00:40:24.251Z,,0,,,5253.4069996185135,completion,,,,,false,,,,368332.69999980927,368332.39999961853,363062.373,363066.5,363078.993,368339.171,8,400,,,
trial,html.Screen,4_46_0,2023-09-12T00:40:29.278Z,,0,1,,5020.329000000027,response,ISIC_0061021.JPG,5,ISIC_0011930.JPG,ISIC_0011930.JPG,false,0,keypress(z),500,373359.59999990463,373359.5,368322.568,368332.7999997139,368339.171,373365.617,8,400,47,,ISIC_0061021.JPG
break,html.Screen,4_46_1,2023-09-12T00:40:29.278Z,,0,,,NaN,,,,,,false,,,,373360,373359.89999961853,,373359.69999980927,,373365.617,8,400,,,
break_continue,html.Screen,4_46_2,2023-09-12T00:40:29.278Z,,0,,,NaN,,,,,,false,,,,373360.2999997139,373360.19999980927,,373360.09999990463,,373365.617,8,400,,,
sequence,flow.Sequence,4_46,2023-09-12T00:40:29.279Z,,0,,,5021.028999809292,completion,,,,,false,,,,373360.2999997139,373360.19999980927,368322.568,368332.7999997139,368339.171,373365.617,8,400,,,
trial,html.Screen,4_47_0,2023-09-12T00:40:33.648Z,,0,1,,4363.8829999999725,response,ISIC_0612080.JPG,4,ISIC_1761799.JPG,ISIC_1761799.JPG,false,0,keypress(z),500,377729.59999990463,377729.5,373349.011,373360.39999961853,373365.617,377757.457,8,400,48,,ISIC_0612080.JPG
break,html.Screen,4_47_1,2023-09-12T00:40:33.648Z,,0,,,NaN,,,,,,false,,,,377730,377729.89999961853,,377729.7999997139,,377757.457,8,400,,,
break_continue,html.Screen,4_47_2,2023-09-12T00:40:33.648Z,,0,,,NaN,,,,,,false,,,,377730.09999990463,377730.09999990463,,377730.09999990463,,377757.457,8,400,,,
sequence,flow.Sequence,4_47,2023-09-12T00:40:33.649Z,,0,,,4364.482999904605,completion,,,,,false,,,,377730.2999997139,377730.09999990463,373349.011,373360.2999997139,373365.617,377757.457,8,400,,,
trial,html.Screen,4_48_0,2023-09-12T00:40:39.367Z,,0,1,,5691.543000000005,response,ISIC_6326803.JPG,5,ISIC_2244564.JPG,ISIC_2244564.JPG,false,0,keypress(z),500,383449.09999990463,383449,377740.753,377730.39999961853,377757.457,383451.85,8,400,49,,ISIC_6326803.JPG
break,html.Screen,4_48_1,2023-09-12T00:40:39.368Z,,0,,,NaN,,,,,,false,,,,383449.5,383449.39999961853,,383449.19999980927,,383451.85,8,400,,,
break_continue,html.Screen,4_48_2,2023-09-12T00:40:39.368Z,,0,,,NaN,,,,,,false,,,,383449.69999980927,383449.59999990463,,383449.5,,383451.85,8,400,,,
sequence,flow.Sequence,4_48,2023-09-12T00:40:39.368Z,,0,,,5692.142999904638,completion,,,,,false,,,,383449.7999997139,383449.59999990463,377740.753,377730.39999961853,377757.457,383451.85,8,400,,,
trial,html.Screen,4_49_0,2023-09-12T00:40:45.609Z,,0,1,,6238.849999809288,response,ISIC_0014026.JPG,6,ISIC_0030300.JPG,ISIC_0030300.JPG,false,0,keypress(z),500,389690.7999997139,389690.69999980927,383435.197,383449.7999997139,383451.85,389697.514,8,400,50,,ISIC_0014026.JPG
break,html.Screen,4_49_1,2023-09-12T00:40:55.603Z,,0,,,10002.800999999978,timeout,,,,,false,,,,399684.7999997139,399683.624,389680.798,389690.89999961853,389697.514,399700.315,8,400,,,
break_continue,html.Screen,4_49_2,2023-09-12T00:40:58.416Z,,0,,,2793.2849999046302,response,,,,,false,continue,keypress(Space),,402497.39999961853,402493.59999990463,399683.624,399685.09999990463,399700.315,402522.469,8,400,,,
sequence,flow.Sequence,4_49,2023-09-12T00:40:58.416Z,,0,,,19041.749999904656,completion,,,,,false,,,,402497.5,402493.59999990463,383435.197,383449.7999997139,383451.85,402522.469,8,400,,,
trial,html.Screen,4_50_0,2023-09-12T00:41:02.801Z,,0,2,,4360.230999809282,response,ISIC_3963183.JPG,5,ISIC_0011305.JPG,ISIC_0011305.JPG,false,0,keypress(z),500,406882.7999997139,406882.69999980927,402505.721,402497.5,402522.469,406897.708,8,400,1,,ISIC_3963183.JPG
break,html.Screen,4_50_1,2023-09-12T00:41:02.801Z,,0,,,NaN,,,,,,false,,,,406883.19999980927,406883.09999990463,,406882.89999961853,,406897.708,8,400,,,
break_continue,html.Screen,4_50_2,2023-09-12T00:41:02.802Z,,0,,,NaN,,,,,,false,,,,406883.39999961853,406883.2999997139,,406883.19999980927,,406897.708,8,400,,,
sequence,flow.Sequence,4_50,2023-09-12T00:41:02.802Z,,0,,,4360.830999713915,completion,,,,,false,,,,406883.39999961853,406883.2999997139,402505.721,402497.5,402522.469,406897.708,8,400,,,
trial,html.Screen,4_51_0,2023-09-12T00:41:07.506Z,,0,2,,4690.292000000016,response,ISIC_0033653.JPG,5,ISIC_0014695.JPG,ISIC_0014695.JPG,false,0,keypress(z),500,411588.09999990463,411588,406880.81,406883.39999961853,406897.708,411606.709,8,400,2,,ISIC_0033653.JPG
break,html.Screen,4_51_1,2023-09-12T00:41:07.507Z,,0,,,NaN,,,,,,false,,,,411588.59999990463,411588.39999961853,,411588.19999980927,,411606.709,8,400,,,
break_continue,html.Screen,4_51_2,2023-09-12T00:41:07.507Z,,0,,,NaN,,,,,,false,,,,411588.69999980927,411588.69999980927,,411588.59999990463,,411606.709,8,400,,,
sequence,flow.Sequence,4_51,2023-09-12T00:41:07.507Z,,0,,,4690.991999809281,completion,,,,,false,,,,411588.7999997139,411588.69999980927,406880.81,406883.39999961853,406897.708,411606.709,8,400,,,
trial,html.Screen,4_52_0,2023-09-12T00:41:11.607Z,,0,2,,4081.4909998092917,response,ISIC_8803600.JPG,5,ISIC_0016033.JPG,ISIC_8803600.JPG,false,1,keypress(m),500,415688.2999997139,415688.19999980927,411589.969,411588.7999997139,411606.709,415698.066,8,400,3,,ISIC_0016033.JPG
break,html.Screen,4_52_1,2023-09-12T00:41:11.607Z,,0,,,NaN,,,,,,false,,,,415689.09999990463,415688.89999961853,,415688.5,,415698.066,8,400,,,
break_continue,html.Screen,4_52_2,2023-09-12T00:41:11.608Z,,0,,,NaN,,,,,,false,,,,415689.2999997139,415689.2999997139,,415689.19999980927,,415698.066,8,400,,,
sequence,flow.Sequence,4_52,2023-09-12T00:41:11.608Z,,0,,,4082.5909997139242,completion,,,,,false,,,,415689.5,415689.2999997139,411589.969,411588.7999997139,411606.709,415698.066,8,400,,,
trial,html.Screen,4_53_0,2023-09-12T00:41:15.962Z,,0,2,,4345.1339998092735,response,ISIC_0027573.JPG,5,ISIC_0060975.JPG,ISIC_0060975.JPG,false,0,keypress(z),500,420043.59999990463,420043.19999980927,415681.397,415689.5,415698.066,420056.558,8,400,4,,ISIC_0027573.JPG
break,html.Screen,4_53_1,2023-09-12T00:41:15.963Z,,0,,,NaN,,,,,,false,,,,420044.89999961853,420044.5,,420044,,420056.558,8,400,,,
break_continue,html.Screen,4_53_2,2023-09-12T00:41:15.964Z,,0,,,NaN,,,,,,false,,,,420045.59999990463,420045.5,,420045.19999980927,,420056.558,8,400,,,
sequence,flow.Sequence,4_53,2023-09-12T00:41:15.964Z,,0,,,4347.434000000008,completion,,,,,false,,,,420046.09999990463,420045.5,415681.397,415689.5,415698.066,420056.558,8,400,,,
trial,html.Screen,4_54_0,2023-09-12T00:41:20.415Z,,0,2,,4440.341999618511,response,ISIC_0028320.JPG,4,ISIC_0069050.JPG,ISIC_0069050.JPG,false,0,keypress(z),500,424496.89999961853,424496.89999961853,420039.865,420046.2999997139,420056.558,424498.453,8,400,5,,ISIC_0028320.JPG
break,html.Screen,4_54_1,2023-09-12T00:41:20.416Z,,0,,,NaN,,,,,,false,,,,424497.39999961853,424497.2999997139,,424497.09999990463,,424498.453,8,400,,,
break_continue,html.Screen,4_54_2,2023-09-12T00:41:20.416Z,,0,,,NaN,,,,,,false,,,,424497.59999990463,424497.59999990463,,424497.5,,424498.453,8,400,,,
sequence,flow.Sequence,4_54,2023-09-12T00:41:20.416Z,,0,,,4441.0419999046135,completion,,,,,false,,,,424497.69999980927,424497.59999990463,420039.865,420046.19999980927,420056.558,424498.453,8,400,,,
trial,html.Screen,4_55_0,2023-09-12T00:41:26.407Z,,0,2,,5990.146999904653,response,ISIC_2410240.JPG,5,ISIC_0029531.JPG,ISIC_0029531.JPG,false,0,keypress(z),500,430488.69999980927,430488.59999990463,424481.747,424497.69999980927,424498.453,430493.454,8,400,6,,ISIC_2410240.JPG
break,html.Screen,4_55_1,2023-09-12T00:41:26.407Z,,0,,,NaN,,,,,,false,,,,430489.19999980927,430489,,430488.7999997139,,430493.454,8,400,,,
break_continue,html.Screen,4_55_2,2023-09-12T00:41:26.408Z,,0,,,NaN,,,,,,false,,,,430489.39999961853,430489.2999997139,,430489.19999980927,,430493.454,8,400,,,
sequence,flow.Sequence,4_55,2023-09-12T00:41:26.408Z,,0,,,5990.846999713918,completion,,,,,false,,,,430489.5,430489.2999997139,424481.747,424497.69999980927,424498.453,430493.454,8,400,,,
trial,html.Screen,4_56_0,2023-09-12T00:41:31.275Z,,0,2,,4862.945999618503,response,ISIC_2664946.JPG,5,ISIC_0062536.JPG,ISIC_0062536.JPG,false,0,keypress(z),500,435356.59999990463,435356.39999961853,430476.818,430489.5,430493.454,435369.774,8,400,7,,ISIC_2664946.JPG
break,html.Screen,4_56_1,2023-09-12T00:41:31.276Z,,0,,,NaN,,,,,,false,,,,435357.2999997139,435357.09999990463,,435356.7999997139,,435369.774,8,400,,,
break_continue,html.Screen,4_56_2,2023-09-12T00:41:31.276Z,,0,,,NaN,,,,,,false,,,,435357.59999990463,435357.5,,435357.5,,435369.774,8,400,,,
sequence,flow.Sequence,4_56,2023-09-12T00:41:31.276Z,,0,,,4864.045999999973,completion,,,,,false,,,,435357.69999980927,435357.5,430476.818,430489.5,430493.454,435369.774,8,400,,,
trial,html.Screen,4_57_0,2023-09-12T00:41:37.229Z,,0,2,,5940.726000000024,response,ISIC_0029998.JPG,6,ISIC_5998926.JPG,ISIC_5998926.JPG,false,0,keypress(z),500,441310.59999990463,441310.5,435352.888,435357.7999997139,435369.774,441314.484,8,400,8,,ISIC_0029998.JPG
break,html.Screen,4_57_1,2023-09-12T00:41:37.229Z,,0,,,NaN,,,,,,false,,,,441311.19999980927,441311,,441310.69999980927,,441314.484,8,400,,,
break_continue,html.Screen,4_57_2,2023-09-12T00:41:37.230Z,,0,,,NaN,,,,,,false,,,,441311.5,441311.39999961853,,441311.2999997139,,441314.484,8,400,,,
sequence,flow.Sequence,4_57,2023-09-12T00:41:37.230Z,,0,,,5941.6259996185545,completion,,,,,false,,,,441311.59999990463,441311.39999961853,435352.888,435357.7999997139,435369.774,441314.484,8,400,,,
trial,html.Screen,4_58_0,2023-09-12T00:41:41.987Z,,0,2,,4753.615999904636,response,ISIC_0031589.JPG,5,ISIC_5010212.JPG,ISIC_5010212.JPG,false,0,keypress(z),500,446068.39999961853,446068.09999990463,441297.929,441311.69999980927,441314.484,446073.822,8,400,9,,ISIC_0031589.JPG
break,html.Screen,4_58_1,2023-09-12T00:41:41.988Z,,0,,,NaN,,,,,,false,,,,446069.89999961853,446069.5,,446068.7999997139,,446073.822,8,400,,,
break_continue,html.Screen,4_58_2,2023-09-12T00:41:41.989Z,,0,,,NaN,,,,,,false,,,,446070.59999990463,446070.5,,446070.09999990463,,446073.822,8,400,,,
sequence,flow.Sequence,4_58,2023-09-12T00:41:41.989Z,,0,,,4756.016000000003,completion,,,,,false,,,,446071,446070.5,441297.929,441311.69999980927,441314.484,446073.822,8,400,,,
trial,html.Screen,4_59_0,2023-09-12T00:41:47.038Z,,0,2,,5046.178000000014,response,ISIC_9214649.JPG,5,ISIC_0056679.JPG,ISIC_9214649.JPG,false,1,keypress(m),500,451120.19999980927,451120,446057.045,446071.19999980927,446073.822,451133.561,8,400,10,,ISIC_0056679.JPG
break,html.Screen,4_59_1,2023-09-12T00:41:47.039Z,,0,,,NaN,,,,,,false,,,,451120.69999980927,451120.59999990463,,451120.2999997139,,451133.561,8,400,,,
break_continue,html.Screen,4_59_2,2023-09-12T00:41:47.039Z,,0,,,NaN,,,,,,false,,,,451120.89999961853,451120.89999961853,,451120.69999980927,,451133.561,8,400,,,
sequence,flow.Sequence,4_59,2023-09-12T00:41:47.039Z,,0,,,5047.077999618545,completion,,,,,false,,,,451121.09999990463,451120.89999961853,446057.045,446071.09999990463,446073.822,451133.561,8,400,,,
trial,html.Screen,4_60_0,2023-09-12T00:41:51.617Z,,0,2,,4564.538999904646,response,ISIC_4836699.JPG,4,ISIC_0014994.JPG,ISIC_4836699.JPG,false,1,keypress(m),500,455698.19999980927,455698.09999990463,451117.076,451121.09999990463,451133.561,455725.923,8,400,11,,ISIC_0014994.JPG
break,html.Screen,4_60_1,2023-09-12T00:41:51.617Z,,0,,,NaN,,,,,,false,,,,455698.59999990463,455698.5,,455698.2999997139,,455725.923,8,400,,,
break_continue,html.Screen,4_60_2,2023-09-12T00:41:51.618Z,,0,,,NaN,,,,,,false,,,,455698.89999961853,455698.7999997139,,455698.7999997139,,455725.923,8,400,,,
sequence,flow.Sequence,4_60,2023-09-12T00:41:51.618Z,,0,,,4565.238999713911,completion,,,,,false,,,,455699,455698.7999997139,451117.076,451121.09999990463,451133.561,455725.923,8,400,,,
trial,html.Screen,4_61_0,2023-09-12T00:41:56.067Z,,0,2,,4421.876999713888,response,ISIC_0006108.JPG,4,ISIC_0054284.JPG,ISIC_0054284.JPG,false,0,keypress(z),500,460147.89999961853,460147.7999997139,455709.155,455699.09999990463,455725.923,460167.86,8,400,12,,ISIC_0006108.JPG
break,html.Screen,4_61_1,2023-09-12T00:41:56.067Z,,0,,,NaN,,,,,,false,,,,460148.39999961853,460148.19999980927,,460147.89999961853,,460167.86,8,400,,,
break_continue,html.Screen,4_61_2,2023-09-12T00:41:56.067Z,,0,,,NaN,,,,,,false,,,,460148.69999980927,460148.59999990463,,460148.5,,460167.86,8,400,,,
sequence,flow.Sequence,4_61,2023-09-12T00:41:56.068Z,,0,,,4422.676999904623,completion,,,,,false,,,,460148.7999997139,460148.59999990463,455709.155,455699,455725.923,460167.86,8,400,,,
trial,html.Screen,4_62_0,2023-09-12T00:42:00.920Z,,0,2,,4833.039999618544,response,ISIC_0032551.JPG,4,ISIC_1814941.JPG,ISIC_1814941.JPG,false,0,keypress(z),500,465001.19999980927,465000.89999961853,460151.389,460148.89999961853,460167.86,465010.684,8,400,13,,ISIC_0032551.JPG
break,html.Screen,4_62_1,2023-09-12T00:42:00.922Z,,0,,,NaN,,,,,,false,,,,465002.7999997139,465002.39999961853,,465001.59999990463,,465010.684,8,400,,,
break_continue,html.Screen,4_62_2,2023-09-12T00:42:00.922Z,,0,,,NaN,,,,,,false,,,,465003.59999990463,465003.2999997139,,465003,,465010.684,8,400,,,
sequence,flow.Sequence,4_62,2023-09-12T00:42:00.923Z,,0,,,4835.439999713912,completion,,,,,false,,,,465003.89999961853,465003.2999997139,460151.389,460148.89999961853,460167.86,465010.684,8,400,,,
trial,html.Screen,4_63_0,2023-09-12T00:42:06.369Z,,0,2,,5439.115999713889,response,ISIC_7077047.JPG,5,ISIC_3688362.JPG,ISIC_7077047.JPG,false,1,keypress(m),500,470450,470449.7999997139,464994.02,465004.09999990463,465010.684,470454.515,8,400,14,,ISIC_3688362.JPG
break,html.Screen,4_63_1,2023-09-12T00:42:06.369Z,,0,,,NaN,,,,,,false,,,,470450.5,470450.39999961853,,470450.09999990463,,470454.515,8,400,,,
break_continue,html.Screen,4_63_2,2023-09-12T00:42:06.370Z,,0,,,NaN,,,,,,false,,,,470450.89999961853,470450.7999997139,,470450.69999980927,,470454.515,8,400,,,
sequence,flow.Sequence,4_63,2023-09-12T00:42:06.370Z,,0,,,5440.115999713889,completion,,,,,false,,,,470451,470450.7999997139,464994.02,465004,465010.684,470454.515,8,400,,,
trial,html.Screen,4_64_0,2023-09-12T00:42:11.499Z,,0,2,,5125.984999999986,response,ISIC_0001743.JPG,6,ISIC_0064692.JPG,ISIC_0064692.JPG,false,0,keypress(z),500,475580.69999980927,475580.5,470438.047,470451,470454.515,475597.88,8,400,15,,ISIC_0001743.JPG
break,html.Screen,4_64_1,2023-09-12T00:42:11.500Z,,0,,,NaN,,,,,,false,,,,475581.19999980927,475581.09999990463,,475580.7999997139,,475597.88,8,400,,,
break_continue,html.Screen,4_64_2,2023-09-12T00:42:11.500Z,,0,,,NaN,,,,,,false,,,,475581.5,475581.39999961853,,475581.2999997139,,475597.88,8,400,,,
sequence,flow.Sequence,4_64,2023-09-12T00:42:11.500Z,,0,,,5126.884999618516,completion,,,,,false,,,,475581.59999990463,475581.39999961853,470438.047,470451,470454.515,475597.88,8,400,,,
trial,html.Screen,4_65_0,2023-09-12T00:42:15.951Z,,0,2,,4434.019999618526,response,ISIC_0034253.JPG,6,ISIC_1175170.JPG,ISIC_0034253.JPG,false,1,keypress(m),500,480032,480031.89999961853,475564.591,475581.69999980927,475597.88,480039.834,8,400,16,,ISIC_1175170.JPG
break,html.Screen,4_65_1,2023-09-12T00:42:15.951Z,,0,,,NaN,,,,,,false,,,,480032.59999990463,480032.5,,480032.19999980927,,480039.834,8,400,,,
break_continue,html.Screen,4_65_2,2023-09-12T00:42:15.952Z,,0,,,NaN,,,,,,false,,,,480032.7999997139,480032.7999997139,,480032.59999990463,,480039.834,8,400,,,
sequence,flow.Sequence,4_65,2023-09-12T00:42:15.952Z,,0,,,4434.919999713893,completion,,,,,false,,,,480032.89999961853,480032.7999997139,475564.591,475581.59999990463,475597.88,480039.834,8,400,,,
trial,html.Screen,4_66_0,2023-09-12T00:42:20.753Z,,0,2,,4794.6660000000265,response,ISIC_0032313.JPG,5,ISIC_0010014.JPG,ISIC_0010014.JPG,false,0,keypress(z),500,484834.69999980927,484834.5,480023.138,480033,480039.834,484849.247,8,400,17,,ISIC_0032313.JPG
break,html.Screen,4_66_1,2023-09-12T00:42:20.754Z,,0,,,NaN,,,,,,false,,,,484835.09999990463,484834.89999961853,,484834.69999980927,,484849.247,8,400,,,
break_continue,html.Screen,4_66_2,2023-09-12T00:42:20.754Z,,0,,,NaN,,,,,,false,,,,484835.39999961853,484835.2999997139,,484835.2999997139,,484849.247,8,400,,,
sequence,flow.Sequence,4_66,2023-09-12T00:42:20.754Z,,0,,,4795.465999713924,completion,,,,,false,,,,484835.5,484835.2999997139,480023.138,480033,480039.834,484849.247,8,400,,,
trial,html.Screen,4_67_0,2023-09-12T00:42:25.845Z,,0,2,,5077.052999713924,response,ISIC_0033196.JPG,6,ISIC_0027432.JPG,ISIC_0027432.JPG,false,0,keypress(z),500,489926.59999990463,489926.2999997139,484832.621,484835.59999990463,484849.247,489959.217,8,400,18,,ISIC_0033196.JPG
break,html.Screen,4_67_1,2023-09-12T00:42:25.846Z,,0,,,NaN,,,,,,false,,,,489927.39999961853,489927.09999990463,,489926.7999997139,,489959.217,8,400,,,
break_continue,html.Screen,4_67_2,2023-09-12T00:42:25.847Z,,0,,,NaN,,,,,,false,,,,489927.7999997139,489927.69999980927,,489927.5,,489959.217,8,400,,,
sequence,flow.Sequence,4_67,2023-09-12T00:42:25.847Z,,0,,,5078.452999809291,completion,,,,,false,,,,489928,489927.69999980927,484832.621,484835.5,484849.247,489959.217,8,400,,,
trial,html.Screen,4_68_0,2023-09-12T00:42:30.987Z,,0,2,,5108.882999904628,response,ISIC_3475932.JPG,5,ISIC_8438811.JPG,ISIC_8438811.JPG,false,0,keypress(z),500,495068.19999980927,495068.09999990463,489942.481,489928.09999990463,489959.217,495085.858,8,400,19,,ISIC_3475932.JPG
break,html.Screen,4_68_1,2023-09-12T00:42:30.987Z,,0,,,NaN,,,,,,false,,,,495068.69999980927,495068.59999990463,,495068.39999961853,,495085.858,8,400,,,
break_continue,html.Screen,4_68_2,2023-09-12T00:42:30.988Z,,0,,,NaN,,,,,,false,,,,495068.89999961853,495068.89999961853,,495068.7999997139,,495085.858,8,400,,,
sequence,flow.Sequence,4_68,2023-09-12T00:42:30.988Z,,0,,,5109.682999618526,completion,,,,,false,,,,495069.09999990463,495068.89999961853,489942.481,489928,489959.217,495085.858,8,400,,,
trial,html.Screen,4_69_0,2023-09-12T00:42:38.053Z,,0,2,,7047.741999904625,response,ISIC_1441260.JPG,5,ISIC_1988335.JPG,ISIC_1441260.JPG,false,1,keypress(m),500,502133.69999980927,502133.59999990463,495069.091,495069.09999990463,495085.858,502149.574,8,400,20,,ISIC_1988335.JPG
break,html.Screen,4_69_1,2023-09-12T00:42:38.053Z,,0,,,NaN,,,,,,false,,,,502134.19999980927,502134.09999990463,,502133.89999961853,,502149.574,8,400,,,
break_continue,html.Screen,4_69_2,2023-09-12T00:42:38.053Z,,0,,,NaN,,,,,,false,,,,502134.39999961853,502134.39999961853,,502134.19999980927,,502149.574,8,400,,,
sequence,flow.Sequence,4_69,2023-09-12T00:42:38.053Z,,0,,,7048.541999618523,completion,,,,,false,,,,502134.5,502134.39999961853,495069.091,495069.09999990463,495085.858,502149.574,8,400,,,
trial,html.Screen,4_70_0,2023-09-12T00:42:42.438Z,,0,2,,4369.825999618508,response,ISIC_0000145.JPG,5,ISIC_0046725.JPG,ISIC_0046725.JPG,false,0,keypress(z),500,506519.5,506519.39999961853,502132.962,502134.5,502149.574,506524.73,8,400,21,,ISIC_0000145.JPG
break,html.Screen,4_70_1,2023-09-12T00:42:42.439Z,,0,,,NaN,,,,,,false,,,,506519.89999961853,506519.89999961853,,506519.69999980927,,506524.73,8,400,,,
break_continue,html.Screen,4_70_2,2023-09-12T00:42:42.439Z,,0,,,NaN,,,,,,false,,,,506520.09999990463,506520.09999990463,,506520,,506524.73,8,400,,,
sequence,flow.Sequence,4_70,2023-09-12T00:42:42.439Z,,0,,,4370.52599990461,completion,,,,,false,,,,506520.19999980927,506520.09999990463,502132.962,502134.5,502149.574,506524.73,8,400,,,
trial,html.Screen,4_71_0,2023-09-12T00:42:46.715Z,,0,2,,4271.569999713916,response,ISIC_8292279.JPG,6,ISIC_0010825.JPG,ISIC_0010825.JPG,false,0,keypress(z),500,510796.5,510796.2999997139,506508.154,506520.19999980927,506524.73,510799.697,8,400,22,,ISIC_8292279.JPG
break,html.Screen,4_71_1,2023-09-12T00:42:46.716Z,,0,,,NaN,,,,,,false,,,,510797.09999990463,510796.89999961853,,510796.59999990463,,510799.697,8,400,,,
break_continue,html.Screen,4_71_2,2023-09-12T00:42:46.716Z,,0,,,NaN,,,,,,false,,,,510797.2999997139,510797.2999997139,,510797.09999990463,,510799.697,8,400,,,
sequence,flow.Sequence,4_71,2023-09-12T00:42:46.716Z,,0,,,4272.569999713916,completion,,,,,false,,,,510797.5,510797.2999997139,506508.154,506520.19999980927,506524.73,510799.697,8,400,,,
trial,html.Screen,4_72_0,2023-09-12T00:42:51.681Z,,0,2,,4962.602999713912,response,ISIC_0011669.JPG,4,ISIC_0056983.JPG,ISIC_0056983.JPG,false,0,keypress(z),500,515762.39999961853,515762.2999997139,510783.026,510797.5,510799.697,515776.165,8,400,23,,ISIC_0011669.JPG
break,html.Screen,4_72_1,2023-09-12T00:42:51.682Z,,0,,,NaN,,,,,,false,,,,515762.7999997139,515762.69999980927,,515762.5,,515776.165,8,400,,,
break_continue,html.Screen,4_72_2,2023-09-12T00:42:51.682Z,,0,,,NaN,,,,,,false,,,,515763.09999990463,515763,,515762.89999961853,,515776.165,8,400,,,
sequence,flow.Sequence,4_72,2023-09-12T00:42:51.682Z,,0,,,4963.303000000014,completion,,,,,false,,,,515763.19999980927,515763,510783.026,510797.5,510799.697,515776.165,8,400,,,
trial,html.Screen,4_73_0,2023-09-12T00:42:56.026Z,,0,2,,4329.835000000021,response,ISIC_0000171.JPG,5,ISIC_6714923.JPG,ISIC_6714923.JPG,false,0,keypress(z),500,520106.69999980927,520106,515759.476,515763.2999997139,515776.165,520117.892,8,400,24,,ISIC_0000171.JPG
break,html.Screen,4_73_1,2023-09-12T00:42:56.028Z,,0,,,NaN,,,,,,false,,,,520108.39999961853,520108,,520107.2999997139,,520117.892,8,400,,,
break_continue,html.Screen,4_73_2,2023-09-12T00:42:56.028Z,,0,,,NaN,,,,,,false,,,,520109,520108.89999961853,,520108.69999980927,,520117.892,8,400,,,
sequence,flow.Sequence,4_73,2023-09-12T00:42:56.028Z,,0,,,4332.734999618551,completion,,,,,false,,,,520109.2999997139,520108.89999961853,515759.476,515763.2999997139,515776.165,520117.892,8,400,,,
trial,html.Screen,4_74_0,2023-09-12T00:43:01.056Z,,0,2,,5018.608000000007,response,ISIC_1220154.JPG,4,ISIC_3072382.JPG,ISIC_3072382.JPG,false,0,keypress(z),500,525136.6999998093,525136.5,520101.364,520109.5,520117.892,525144.303,8,400,25,,ISIC_1220154.JPG
break,html.Screen,4_74_1,2023-09-12T00:43:01.056Z,,0,,,NaN,,,,,,false,,,,525137.1999998093,525137,,525136.7999997139,,525144.303,8,400,,,
break_continue,html.Screen,4_74_2,2023-09-12T00:43:01.056Z,,0,,,NaN,,,,,,false,,,,525137.1999998093,525137.1999998093,,525137.1999998093,,525144.303,8,400,,,
sequence,flow.Sequence,4_74,2023-09-12T00:43:01.056Z,,0,,,5019.307999809273,completion,,,,,false,,,,525137.2999997139,525137.1999998093,520101.364,520109.5,520117.892,525144.303,8,400,,,
trial,html.Screen,4_75_0,2023-09-12T00:43:05.859Z,,0,2,,4795.197000000044,response,ISIC_3598244.JPG,5,ISIC_0030300.JPG,ISIC_0030300.JPG,false,0,keypress(z),500,529940.0999999046,529939.5,525127.713,525137.3999996185,525144.303,529953.704,8,400,26,,ISIC_3598244.JPG
break,html.Screen,4_75_1,2023-09-12T00:43:05.861Z,,0,,,NaN,,,,,,false,,,,529942,529941.3999996185,,529940.5,,529953.704,8,400,,,
break_continue,html.Screen,4_75_2,2023-09-12T00:43:05.862Z,,0,,,NaN,,,,,,false,,,,529942.8999996185,529942.6999998093,,529942.1999998093,,529953.704,8,400,,,
sequence,flow.Sequence,4_75,2023-09-12T00:43:05.862Z,,0,,,4798.396999809309,completion,,,,,false,,,,529943.3999996185,529942.6999998093,525127.713,525137.3999996185,525144.303,529953.704,8,400,,,
trial,html.Screen,4_76_0,2023-09-12T00:43:11.434Z,,0,2,,5561.395999904606,response,ISIC_0010280.JPG,5,ISIC_5132214.JPG,ISIC_0010280.JPG,false,1,keypress(m),500,535515.2999997139,535515.0999999046,529937.089,529943.5999999046,529953.704,535531.177,8,400,27,,ISIC_5132214.JPG
break,html.Screen,4_76_1,2023-09-12T00:43:11.435Z,,0,,,NaN,,,,,,false,,,,535515.8999996185,535515.6999998093,,535515.3999996185,,535531.177,8,400,,,
break_continue,html.Screen,4_76_2,2023-09-12T00:43:11.435Z,,0,,,NaN,,,,,,false,,,,535516.2999997139,535516.1999998093,,535516,,535531.177,8,400,,,
sequence,flow.Sequence,4_76,2023-09-12T00:43:11.435Z,,0,,,5562.495999809238,completion,,,,,false,,,,535516.3999996185,535516.1999998093,529937.089,529943.5999999046,529953.704,535531.177,8,400,,,
trial,html.Screen,4_77_0,2023-09-12T00:43:16.212Z,,0,2,,4761.422999904607,response,ISIC_0013652.JPG,5,ISIC_9571842.JPG,ISIC_9571842.JPG,false,0,keypress(z),500,540292.7999997139,540292.5999999046,535514.571,535516.3999996185,535531.177,540307.128,8,400,28,,ISIC_0013652.JPG
break,html.Screen,4_77_1,2023-09-12T00:43:16.213Z,,0,,,NaN,,,,,,false,,,,540293.5999999046,540293.3999996185,,540293,,540307.128,8,400,,,
break_continue,html.Screen,4_77_2,2023-09-12T00:43:16.213Z,,0,,,NaN,,,,,,false,,,,540293.8999996185,540293.7999997139,,540293.6999998093,,540307.128,8,400,,,
sequence,flow.Sequence,4_77,2023-09-12T00:43:16.213Z,,0,,,4762.622999713873,completion,,,,,false,,,,540294,540293.7999997139,535514.571,535516.3999996185,535531.177,540307.128,8,400,,,
trial,html.Screen,4_78_0,2023-09-12T00:43:20.797Z,,0,2,,4570.9719999046065,response,ISIC_0033956.JPG,5,ISIC_8942967.JPG,ISIC_0033956.JPG,false,1,keypress(m),500,544878.2999997139,544878.0999999046,540290.46,540294,540307.128,544882.715,8,400,29,,ISIC_8942967.JPG
break,html.Screen,4_78_1,2023-09-12T00:43:20.798Z,,0,,,NaN,,,,,,false,,,,544879,544878.7999997139,,544878.3999996185,,544882.715,8,400,,,
break_continue,html.Screen,4_78_2,2023-09-12T00:43:20.798Z,,0,,,NaN,,,,,,false,,,,544879.3999996185,544879.2999997139,,544879.1999998093,,544882.715,8,400,,,
sequence,flow.Sequence,4_78,2023-09-12T00:43:20.799Z,,0,,,4572.171999713872,completion,,,,,false,,,,544879.5,544879.2999997139,540290.46,540294,540307.128,544882.715,8,400,,,
trial,html.Screen,4_79_0,2023-09-12T00:43:25.953Z,,0,2,,5151.384999904665,response,ISIC_9555580.JPG,5,ISIC_0413154.JPG,ISIC_9555580.JPG,false,1,keypress(m),500,550034.1999998093,550034.0999999046,544866.124,544879.5999999046,544882.715,550042.785,8,400,30,,ISIC_0413154.JPG
break,html.Screen,4_79_1,2023-09-12T00:43:25.954Z,,0,,,NaN,,,,,,false,,,,550034.5999999046,550034.5,,550034.2999997139,,550042.785,8,400,,,
break_continue,html.Screen,4_79_2,2023-09-12T00:43:25.954Z,,0,,,NaN,,,,,,false,,,,550034.7999997139,550034.7999997139,,550034.6999998093,,550042.785,8,400,,,
sequence,flow.Sequence,4_79,2023-09-12T00:43:25.954Z,,0,,,5152.08499971393,completion,,,,,false,,,,550034.8999996185,550034.7999997139,544866.124,544879.5999999046,544882.715,550042.785,8,400,,,
trial,html.Screen,4_80_0,2023-09-12T00:43:30.906Z,,0,2,,4944.214999999967,response,ISIC_0057716.JPG,5,ISIC_0054053.JPG,ISIC_0057716.JPG,false,1,keypress(m),500,554987.0999999046,554987,550026.172,550034.8999996185,550042.785,555002.609,8,400,31,,ISIC_0054053.JPG
break,html.Screen,4_80_1,2023-09-12T00:43:30.907Z,,0,,,NaN,,,,,,false,,,,554987.6999998093,554987.5,,554987.1999998093,,555002.609,8,400,,,
break_continue,html.Screen,4_80_2,2023-09-12T00:43:30.907Z,,0,,,NaN,,,,,,false,,,,554988,554987.8999996185,,554987.7999997139,,555002.609,8,400,,,
sequence,flow.Sequence,4_80,2023-09-12T00:43:30.907Z,,0,,,4945.114999618498,completion,,,,,false,,,,554988.0999999046,554987.8999996185,550026.172,550034.8999996185,550042.785,555002.609,8,400,,,
trial,html.Screen,4_81_0,2023-09-12T00:43:35.698Z,,0,2,,4776.190999713843,response,ISIC_0034141.JPG,5,ISIC_0016080.JPG,ISIC_0034141.JPG,false,1,keypress(m),500,559779,559778.7999997139,554985.937,554988.0999999046,555002.609,559795.075,8,400,32,,ISIC_0016080.JPG
break,html.Screen,4_81_1,2023-09-12T00:43:35.699Z,,0,,,NaN,,,,,,false,,,,559780.2999997139,559780,,559779.3999996185,,559795.075,8,400,,,
break_continue,html.Screen,4_81_2,2023-09-12T00:43:35.700Z,,0,,,NaN,,,,,,false,,,,559781,559780.6999998093,,559780.5,,559795.075,8,400,,,
sequence,flow.Sequence,4_81,2023-09-12T00:43:35.700Z,,0,,,4778.09099980921,completion,,,,,false,,,,559781.1999998093,559780.6999998093,554985.937,554988.0999999046,555002.609,559795.075,8,400,,,
trial,html.Screen,4_82_0,2023-09-12T00:43:41.722Z,,0,2,,6007.524999904679,response,ISIC_0887530.JPG,6,ISIC_0010719.JPG,ISIC_0010719.JPG,false,0,keypress(z),500,565802.6999998093,565802.5999999046,559778.535,559781.2999997139,559795.075,565823.471,8,400,33,,ISIC_0887530.JPG
break,html.Screen,4_82_1,2023-09-12T00:43:41.722Z,,0,,,NaN,,,,,,false,,,,565803.1999998093,565803,,565802.7999997139,,565823.471,8,400,,,
break_continue,html.Screen,4_82_2,2023-09-12T00:43:41.723Z,,0,,,NaN,,,,,,false,,,,565803.5,565803.3999996185,,565803.2999997139,,565823.471,8,400,,,
sequence,flow.Sequence,4_82,2023-09-12T00:43:41.723Z,,0,,,6008.324999618577,completion,,,,,false,,,,565803.6999998093,565803.3999996185,559778.535,559781.2999997139,559795.075,565823.471,8,400,,,
trial,html.Screen,4_83_0,2023-09-12T00:43:46.620Z,,0,2,,4877.328999713878,response,ISIC_5813642.JPG,4,ISIC_0034166.JPG,ISIC_0034166.JPG,false,0,keypress(z),500,570700.8999996185,570700.7999997139,565806.755,565803.6999998093,565823.471,570716.392,8,400,34,,ISIC_5813642.JPG
break,html.Screen,4_83_1,2023-09-12T00:43:46.621Z,,0,,,NaN,,,,,,false,,,,570701.5,570701.3999996185,,570701.0999999046,,570716.392,8,400,,,
break_continue,html.Screen,4_83_2,2023-09-12T00:43:46.621Z,,0,,,NaN,,,,,,false,,,,570701.7999997139,570701.6999998093,,570701.5999999046,,570716.392,8,400,,,
sequence,flow.Sequence,4_83,2023-09-12T00:43:46.621Z,,0,,,4878.228999809246,completion,,,,,false,,,,570701.7999997139,570701.6999998093,565806.755,565803.6999998093,565823.471,570716.392,8,400,,,
trial,html.Screen,4_84_0,2023-09-12T00:43:51.152Z,,0,2,,4515.907999713905,response,ISIC_0000036.JPG,6,ISIC_5486460.JPG,ISIC_0000036.JPG,false,1,keypress(m),500,575232.5,575232.2999997139,570699.735,570702,570716.392,575241.94,8,400,35,,ISIC_5486460.JPG
break,html.Screen,4_84_1,2023-09-12T00:43:51.152Z,,0,,,NaN,,,,,,false,,,,575233.0999999046,575232.7999997139,,575232.5999999046,,575241.94,8,400,,,
break_continue,html.Screen,4_84_2,2023-09-12T00:43:51.153Z,,0,,,NaN,,,,,,false,,,,575233.3999996185,575233.2999997139,,575233.1999998093,,575241.94,8,400,,,
sequence,flow.Sequence,4_84,2023-09-12T00:43:51.153Z,,0,,,4516.907999713905,completion,,,,,false,,,,575233.5,575233.2999997139,570699.735,570701.8999996185,570716.392,575241.94,8,400,,,
trial,html.Screen,4_85_0,2023-09-12T00:43:54.978Z,,0,2,,3816.1599999046884,response,ISIC_0511526.JPG,5,ISIC_0010651.JPG,ISIC_0511526.JPG,false,1,keypress(m),500,579058.3999996185,579058.0999999046,575225.2,575233.5999999046,575241.94,579066.048,8,400,36,,ISIC_0010651.JPG
break,html.Screen,4_85_1,2023-09-12T00:43:54.979Z,,0,,,NaN,,,,,,false,,,,579059.1999998093,579058.8999996185,,579058.5999999046,,579066.048,8,400,,,
break_continue,html.Screen,4_85_2,2023-09-12T00:43:54.979Z,,0,,,NaN,,,,,,false,,,,579059.5,579059.3999996185,,579059.1999998093,,579066.048,8,400,,,
sequence,flow.Sequence,4_85,2023-09-12T00:43:54.979Z,,0,,,3817.459999618586,completion,,,,,false,,,,579059.5,579059.3999996185,575225.2,575233.5,575241.94,579066.048,8,400,,,
trial,html.Screen,4_86_0,2023-09-12T00:44:00.356Z,,0,2,,5370.251999713946,response,ISIC_6557642.JPG,5,ISIC_5813642.JPG,ISIC_6557642.JPG,false,1,keypress(m),500,584436.3999996185,584436.2999997139,579049.298,579059.5,579066.048,584459.693,8,400,37,,ISIC_5813642.JPG
break,html.Screen,4_86_1,2023-09-12T00:44:00.356Z,,0,,,NaN,,,,,,false,,,,584436.7999997139,584436.6999998093,,584436.5,,584459.693,8,400,,,
break_continue,html.Screen,4_86_2,2023-09-12T00:44:00.356Z,,0,,,NaN,,,,,,false,,,,584437,584436.8999996185,,584436.8999996185,,584459.693,8,400,,,
sequence,flow.Sequence,4_86,2023-09-12T00:44:00.356Z,,0,,,5370.851999618579,completion,,,,,false,,,,584437,584436.8999996185,579049.298,579059.5,579066.048,584459.693,8,400,,,
trial,html.Screen,4_87_0,2023-09-12T00:44:05.879Z,,0,2,,5500.20699961856,response,ISIC_0002901.JPG,4,ISIC_2698722.JPG,ISIC_2698722.JPG,false,0,keypress(z),500,589960.0999999046,589959.8999996185,584443.053,584437.0999999046,584459.693,589970.456,8,400,38,,ISIC_0002901.JPG
break,html.Screen,4_87_1,2023-09-12T00:44:05.880Z,,0,,,NaN,,,,,,false,,,,589960.3999996185,589960.2999997139,,589960.0999999046,,589970.456,8,400,,,
break_continue,html.Screen,4_87_2,2023-09-12T00:44:05.880Z,,0,,,NaN,,,,,,false,,,,589960.5999999046,589960.5999999046,,589960.5,,589970.456,8,400,,,
sequence,flow.Sequence,4_87,2023-09-12T00:44:05.880Z,,0,,,5500.906999904662,completion,,,,,false,,,,589960.5999999046,589960.5999999046,584443.053,584437.0999999046,584459.693,589970.456,8,400,,,
trial,html.Screen,4_88_0,2023-09-12T00:44:11.454Z,,0,2,,5563.74399980926,response,ISIC_8320640.JPG,6,ISIC_6741865.JPG,ISIC_6741865.JPG,false,0,keypress(z),500,595534.2999997139,595534.1999998093,589953.769,589960.6999998093,589970.456,595548.006,8,400,39,,ISIC_8320640.JPG
break,html.Screen,4_88_1,2023-09-12T00:44:11.454Z,,0,,,NaN,,,,,,false,,,,595534.6999998093,595534.5999999046,,595534.3999996185,,595548.006,8,400,,,
break_continue,html.Screen,4_88_2,2023-09-12T00:44:11.454Z,,0,,,NaN,,,,,,false,,,,595534.8999996185,595534.7999997139,,595534.6999998093,,595548.006,8,400,,,
sequence,flow.Sequence,4_88,2023-09-12T00:44:11.454Z,,0,,,5564.343999713892,completion,,,,,false,,,,595534.8999996185,595534.7999997139,589953.769,589960.6999998093,589970.456,595548.006,8,400,,,
trial,html.Screen,4_89_0,2023-09-12T00:44:17.415Z,,0,2,,5947.293999713846,response,ISIC_6745554.JPG,4,ISIC_0058580.JPG,ISIC_0058580.JPG,false,0,keypress(z),500,601495.5,601495.2999997139,595531.381,595535,595548.006,601509.56,8,400,40,,ISIC_6745554.JPG
break,html.Screen,4_89_1,2023-09-12T00:44:17.415Z,,0,,,NaN,,,,,,false,,,,601496,601495.7999997139,,601495.5999999046,,601509.56,8,400,,,
break_continue,html.Screen,4_89_2,2023-09-12T00:44:17.416Z,,0,,,NaN,,,,,,false,,,,601496.1999998093,601496.1999998093,,601496,,601509.56,8,400,,,
sequence,flow.Sequence,4_89,2023-09-12T00:44:17.416Z,,0,,,5948.193999809213,completion,,,,,false,,,,601496.2999997139,601496.1999998093,595531.381,595535,595548.006,601509.56,8,400,,,
trial,html.Screen,4_90_0,2023-09-12T00:44:22.762Z,,0,2,,5333.039999904577,response,ISIC_5233226.JPG,5,ISIC_5729818.JPG,ISIC_5729818.JPG,false,0,keypress(z),500,606842.7999997139,606842.5999999046,601492.987,601496.3999996185,601509.56,606870.062,8,400,41,,ISIC_5233226.JPG
break,html.Screen,4_90_1,2023-09-12T00:44:22.762Z,,0,,,NaN,,,,,,false,,,,606843.0999999046,606843.0999999046,,606842.7999997139,,606870.062,8,400,,,
break_continue,html.Screen,4_90_2,2023-09-12T00:44:22.763Z,,0,,,NaN,,,,,,false,,,,606843.2999997139,606843.1999998093,,606843.1999998093,,606870.062,8,400,,,
sequence,flow.Sequence,4_90,2023-09-12T00:44:22.763Z,,0,,,5333.639999809209,completion,,,,,false,,,,606843.3999996185,606843.1999998093,601492.987,601496.2999997139,601509.56,606870.062,8,400,,,
trial,html.Screen,4_91_0,2023-09-12T00:44:29.757Z,,0,2,,6967.037999904598,response,ISIC_7728263.JPG,5,ISIC_9353514.JPG,ISIC_7728263.JPG,false,1,keypress(m),500,613837.1999998093,613837.0999999046,606853.299,606843.5,606870.062,613850.418,8,400,42,,ISIC_9353514.JPG
break,html.Screen,4_91_1,2023-09-12T00:44:29.757Z,,0,,,NaN,,,,,,false,,,,613837.6999998093,613837.5999999046,,613837.2999997139,,613850.418,8,400,,,
break_continue,html.Screen,4_91_2,2023-09-12T00:44:29.757Z,,0,,,NaN,,,,,,false,,,,613838.0999999046,613838,,613837.7999997139,,613850.418,8,400,,,
sequence,flow.Sequence,4_91,2023-09-12T00:44:29.758Z,,0,,,6967.9379999999655,completion,,,,,false,,,,613838.1999998093,613838,606853.299,606843.3999996185,606870.062,613850.418,8,400,,,
trial,html.Screen,4_92_0,2023-09-12T00:44:35.472Z,,0,2,,5701.781999809318,response,ISIC_6646939.JPG,5,ISIC_4998826.JPG,ISIC_4998826.JPG,false,0,keypress(z),500,619552.3999996185,619552.1999998093,613833.666,613838.1999998093,613850.418,619561.391,8,400,43,,ISIC_6646939.JPG
break,html.Screen,4_92_1,2023-09-12T00:44:35.472Z,,0,,,NaN,,,,,,false,,,,619552.8999996185,619552.6999998093,,619552.3999996185,,619561.391,8,400,,,
break_continue,html.Screen,4_92_2,2023-09-12T00:44:35.473Z,,0,,,NaN,,,,,,false,,,,619553.1999998093,619553.0999999046,,619553,,619561.391,8,400,,,
sequence,flow.Sequence,4_92,2023-09-12T00:44:35.473Z,,0,,,5702.681999904686,completion,,,,,false,,,,619553.2999997139,619553.0999999046,613833.666,613838.1999998093,613850.418,619561.391,8,400,,,
trial,html.Screen,4_93_0,2023-09-12T00:44:40.818Z,,0,2,,5337.609000000055,response,ISIC_4973666.JPG,4,ISIC_0054444.JPG,ISIC_0054444.JPG,false,0,keypress(z),500,624899,624899,619544.778,619553.3999996185,619561.391,624905.133,8,400,44,,ISIC_4973666.JPG
break,html.Screen,4_93_1,2023-09-12T00:44:40.819Z,,0,,,NaN,,,,,,false,,,,624899.5,624899.2999997139,,624899.1999998093,,624905.133,8,400,,,
break_continue,html.Screen,4_93_2,2023-09-12T00:44:40.819Z,,0,,,NaN,,,,,,false,,,,624899.5999999046,624899.5,,624899.5,,624905.133,8,400,,,
sequence,flow.Sequence,4_93,2023-09-12T00:44:40.819Z,,0,,,5338.109000000055,completion,,,,,false,,,,624899.6999998093,624899.5,619544.778,619553.2999997139,619561.391,624905.133,8,400,,,
trial,html.Screen,4_94_0,2023-09-12T00:44:45.831Z,,0,2,,5006.166999713867,response,ISIC_0064879.JPG,5,ISIC_6595186.JPG,ISIC_6595186.JPG,false,0,keypress(z),500,629911.5,629911.2999997139,624888.513,624899.6999998093,624905.133,629914.843,8,400,45,,ISIC_0064879.JPG
break,html.Screen,4_94_1,2023-09-12T00:44:45.831Z,,0,,,NaN,,,,,,false,,,,629912.0999999046,629911.8999996185,,629911.6999998093,,629914.843,8,400,,,
break_continue,html.Screen,4_94_2,2023-09-12T00:44:45.832Z,,0,,,NaN,,,,,,false,,,,629912.3999996185,629912.2999997139,,629912.1999998093,,629914.843,8,400,,,
sequence,flow.Sequence,4_94,2023-09-12T00:44:45.832Z,,0,,,5007.166999713867,completion,,,,,false,,,,629912.3999996185,629912.2999997139,624888.513,624899.6999998093,624905.133,629914.843,8,400,,,
trial,html.Screen,4_95_0,2023-09-12T00:44:50.857Z,,0,2,,5022.756999904639,response,ISIC_4620425.JPG,6,ISIC_0028239.JPG,ISIC_0028239.JPG,false,0,keypress(z),500,634937.7999997139,634937.5999999046,629898.267,629912.5999999046,629914.843,634958.023,8,400,46,,ISIC_4620425.JPG
break,html.Screen,4_95_1,2023-09-12T00:44:50.858Z,,0,,,NaN,,,,,,false,,,,634938.6999998093,634938.5,,634937.8999996185,,634958.023,8,400,,,
break_continue,html.Screen,4_95_2,2023-09-12T00:44:50.859Z,,0,,,NaN,,,,,,false,,,,634939.1999998093,634939,,634938.7999997139,,634958.023,8,400,,,
sequence,flow.Sequence,4_95,2023-09-12T00:44:50.859Z,,0,,,5024.1570000000065,completion,,,,,false,,,,634939.2999997139,634939,629898.267,629912.5,629914.843,634958.023,8,400,,,
trial,html.Screen,4_96_0,2023-09-12T00:44:56.060Z,,0,2,,5182.376999618486,response,ISIC_7618133.JPG,5,ISIC_5150938.JPG,ISIC_5150938.JPG,false,0,keypress(z),500,640140.5,640140.3999996185,634941.458,634939.5,634958.023,640151.506,8,400,47,,ISIC_7618133.JPG
break,html.Screen,4_96_1,2023-09-12T00:44:56.061Z,,0,,,NaN,,,,,,false,,,,640141.2999997139,640141,,640140.6999998093,,640151.506,8,400,,,
break_continue,html.Screen,4_96_2,2023-09-12T00:44:56.061Z,,0,,,NaN,,,,,,false,,,,640141.5999999046,640141.5,,640141.3999996185,,640151.506,8,400,,,
sequence,flow.Sequence,4_96,2023-09-12T00:44:56.061Z,,0,,,5183.476999999955,completion,,,,,false,,,,640141.7999997139,640141.5,634941.458,634939.3999996185,634958.023,640151.506,8,400,,,
trial,html.Screen,4_97_0,2023-09-12T00:45:03.967Z,,0,2,,7895.993999999948,response,ISIC_0033021.JPG,4,ISIC_1472731.JPG,ISIC_0033021.JPG,false,1,keypress(m),500,648047.5,648047.5,640134.854,640141.7999997139,640151.506,648050.116,8,400,48,,ISIC_1472731.JPG
break,html.Screen,4_97_1,2023-09-12T00:45:03.968Z,,0,,,NaN,,,,,,false,,,,648048,648047.7999997139,,648047.6999998093,,648050.116,8,400,,,
break_continue,html.Screen,4_97_2,2023-09-12T00:45:03.968Z,,0,,,NaN,,,,,,false,,,,648048.0999999046,648048.0999999046,,648048.0999999046,,648050.116,8,400,,,
sequence,flow.Sequence,4_97,2023-09-12T00:45:03.968Z,,0,,,7896.59399990458,completion,,,,,false,,,,648048.1999998093,648048.0999999046,640134.854,640141.7999997139,640151.506,648050.116,8,400,,,
trial,html.Screen,4_98_0,2023-09-12T00:45:08.887Z,,0,2,,4917.483999904594,response,ISIC_5336548.JPG,6,ISIC_0025766.JPG,ISIC_0025766.JPG,false,0,keypress(z),500,652967.5999999046,652967.5999999046,648033.561,648048.2999997139,648050.116,652976.475,8,400,49,,ISIC_5336548.JPG
break,html.Screen,4_98_1,2023-09-12T00:45:08.888Z,,0,,,NaN,,,,,,false,,,,652968,652968,,652967.7999997139,,652976.475,8,400,,,
break_continue,html.Screen,4_98_2,2023-09-12T00:45:08.888Z,,0,,,NaN,,,,,,false,,,,652968.1999998093,652968.1999998093,,652968.0999999046,,652976.475,8,400,,,
sequence,flow.Sequence,4_98,2023-09-12T00:45:08.888Z,,0,,,4918.083999809227,completion,,,,,false,,,,652968.2999997139,652968.1999998093,648033.561,648048.1999998093,648050.116,652976.475,8,400,,,
trial,html.Screen,4_99_0,2023-09-12T00:45:13.977Z,,0,2,,5080.724999809288,response,ISIC_0024208.JPG,5,ISIC_0069967.JPG,ISIC_0069967.JPG,false,0,keypress(z),500,658057.2999997139,658057.1999998093,652959.807,652968.2999997139,652976.475,658069.758,8,400,50,,ISIC_0024208.JPG
break,html.Screen,4_99_1,2023-09-12T00:45:23.977Z,,0,,,10002.822999999975,timeout,,,,,false,,,,668056.8999996185,668055.876,658053.067,658057.3999996185,658069.758,668072.581,8,400,,,
break_continue,html.Screen,4_99_2,2023-09-12T00:45:24.524Z,,0,,,520.9189999999944,response,,,,,false,continue,keypress(Space),,668603.7999997139,668593.5,668055.876,668057.0999999046,668072.581,668606.893,8,400,,,
sequence,flow.Sequence,4_99,2023-09-12T00:45:24.524Z,,0,,,15617.025000000023,completion,,,,,false,,,,668604.0999999046,668593.5,652959.807,652968.2999997139,652976.475,668606.893,8,400,,,
trial,html.Screen,4_100_0,2023-09-12T00:45:29.187Z,,0,3,,4659.906999713858,response,ISIC_0011917.JPG,5,ISIC_8699453.JPG,ISIC_0011917.JPG,false,1,keypress(m),500,673266.8999996185,673266.7999997139,668590.233,668604.0999999046,668606.893,673282.563,8,400,1,,ISIC_8699453.JPG
break,html.Screen,4_100_1,2023-09-12T00:45:29.187Z,,0,,,NaN,,,,,,false,,,,673267.5,673267.3999996185,,673267.0999999046,,673282.563,8,400,,,
break_continue,html.Screen,4_100_2,2023-09-12T00:45:29.187Z,,0,,,NaN,,,,,,false,,,,673267.7999997139,673267.7999997139,,673267.6999998093,,673282.563,8,400,,,
sequence,flow.Sequence,4_100,2023-09-12T00:45:29.188Z,,0,,,4660.906999713858,completion,,,,,false,,,,673267.8999996185,673267.7999997139,668590.233,668604.0999999046,668606.893,673282.563,8,400,,,
trial,html.Screen,4_101_0,2023-09-12T00:45:33.252Z,,0,3,,4050.036999904667,response,ISIC_0030129.JPG,5,ISIC_0071913.JPG,ISIC_0071913.JPG,false,0,keypress(z),500,677332.7999997139,677332.5999999046,673266.02,673268,673282.563,677340.507,8,400,2,,ISIC_0030129.JPG
break,html.Screen,4_101_1,2023-09-12T00:45:33.253Z,,0,,,NaN,,,,,,false,,,,677333.5,677333.0999999046,,677332.8999996185,,677340.507,8,400,,,
break_continue,html.Screen,4_101_2,2023-09-12T00:45:33.253Z,,0,,,NaN,,,,,,false,,,,677333.7999997139,677333.6999998093,,677333.5999999046,,677340.507,8,400,,,
sequence,flow.Sequence,4_101,2023-09-12T00:45:33.253Z,,0,,,4051.1369998092996,completion,,,,,false,,,,677333.7999997139,677333.6999998093,673266.02,673268,673282.563,677340.507,8,400,,,
trial,html.Screen,4_102_0,2023-09-12T00:45:38.295Z,,0,3,,5034.7929997139145,response,ISIC_5736979.JPG,5,ISIC_3058627.JPG,ISIC_5736979.JPG,false,1,keypress(m),500,682375.5,682375.2999997139,677323.889,677333.7999997139,677340.507,682400.393,8,400,3,,ISIC_3058627.JPG
break,html.Screen,4_102_1,2023-09-12T00:45:38.296Z,,0,,,NaN,,,,,,false,,,,682375.8999996185,682375.7999997139,,682375.5,,682400.393,8,400,,,
break_continue,html.Screen,4_102_2,2023-09-12T00:45:38.296Z,,0,,,NaN,,,,,,false,,,,682376.0999999046,682376,,682375.8999996185,,682400.393,8,400,,,
sequence,flow.Sequence,4_102,2023-09-12T00:45:38.296Z,,0,,,5035.493000000017,completion,,,,,false,,,,682376.0999999046,682376,677323.889,677333.7999997139,677340.507,682400.393,8,400,,,
trial,html.Screen,4_103_0,2023-09-12T00:45:43.178Z,,0,3,,4857.806999809225,response,ISIC_3234908.JPG,6,ISIC_6441128.JPG,ISIC_6441128.JPG,false,0,keypress(z),500,687258.5,687258.1999998093,682383.587,682376.0999999046,682400.393,687276.52,8,400,4,,ISIC_3234908.JPG
break,html.Screen,4_103_1,2023-09-12T00:45:43.180Z,,0,,,NaN,,,,,,false,,,,687260.2999997139,687259.5999999046,,687258.8999996185,,687276.52,8,400,,,
break_continue,html.Screen,4_103_2,2023-09-12T00:45:43.181Z,,0,,,NaN,,,,,,false,,,,687261.5,687261.1999998093,,687260.5999999046,,687276.52,8,400,,,
sequence,flow.Sequence,4_103,2023-09-12T00:45:43.181Z,,0,,,4860.806999809225,completion,,,,,false,,,,687261.7999997139,687261.1999998093,682383.587,682376.0999999046,682400.393,687276.52,8,400,,,
trial,html.Screen,4_104_0,2023-09-12T00:45:47.792Z,,0,3,,4596.1799998092465,response,ISIC_0034311.JPG,5,ISIC_5808758.JPG,ISIC_0034311.JPG,false,1,keypress(m),500,691872.7999997139,691872.6999998093,687259.822,687262.0999999046,687276.52,691885.463,8,400,5,,ISIC_5808758.JPG
break,html.Screen,4_104_1,2023-09-12T00:45:47.793Z,,0,,,NaN,,,,,,false,,,,691873.1999998093,691873.0999999046,,691872.7999997139,,691885.463,8,400,,,
break_continue,html.Screen,4_104_2,2023-09-12T00:45:47.793Z,,0,,,NaN,,,,,,false,,,,691873.2999997139,691873.2999997139,,691873.1999998093,,691885.463,8,400,,,
sequence,flow.Sequence,4_104,2023-09-12T00:45:47.793Z,,0,,,4596.779999713879,completion,,,,,false,,,,691873.5,691873.2999997139,687259.822,687262,687276.52,691885.463,8,400,,,
trial,html.Screen,4_105_0,2023-09-12T00:45:52.243Z,,0,3,,4437.136999904644,response,ISIC_0055917.JPG,5,ISIC_0740449.JPG,ISIC_0055917.JPG,false,1,keypress(m),500,696322.7999997139,696322.5999999046,691868.856,691873.5,691885.463,696327.418,8,400,6,,ISIC_0740449.JPG
break,html.Screen,4_105_1,2023-09-12T00:45:52.244Z,,0,,,NaN,,,,,,false,,,,696323.5999999046,696323.2999997139,,696323,,696327.418,8,400,,,
break_continue,html.Screen,4_105_2,2023-09-12T00:45:52.244Z,,0,,,NaN,,,,,,false,,,,696323.8999996185,696323.7999997139,,696323.6999998093,,696327.418,8,400,,,
sequence,flow.Sequence,4_105,2023-09-12T00:45:52.244Z,,0,,,4438.336999713909,completion,,,,,false,,,,696324.0999999046,696323.7999997139,691868.856,691873.5,691885.463,696327.418,8,400,,,
trial,html.Screen,4_106_0,2023-09-12T00:45:58.086Z,,0,3,,5838.881999713951,response,ISIC_1027512.JPG,5,ISIC_0011276.JPG,ISIC_0011276.JPG,false,0,keypress(z),500,702166.3999996185,702166.2999997139,696310.857,696324.1999998093,696327.418,702172.282,8,400,7,,ISIC_1027512.JPG
break,html.Screen,4_106_1,2023-09-12T00:45:58.087Z,,0,,,NaN,,,,,,false,,,,702166.8999996185,702166.6999998093,,702166.5,,702172.282,8,400,,,
break_continue,html.Screen,4_106_2,2023-09-12T00:45:58.087Z,,0,,,NaN,,,,,,false,,,,702167.2999997139,702167.0999999046,,702167,,702172.282,8,400,,,
sequence,flow.Sequence,4_106,2023-09-12T00:45:58.087Z,,0,,,5839.681999904686,completion,,,,,false,,,,702167.2999997139,702167.0999999046,696310.857,696324.0999999046,696327.418,702172.282,8,400,,,
trial,html.Screen,4_107_0,2023-09-12T00:46:02.825Z,,0,3,,4732.7179999999935,response,ISIC_0030860.JPG,6,ISIC_7358691.JPG,ISIC_0030860.JPG,false,1,keypress(m),500,706905.0999999046,706905,702155.527,702167.3999996185,702172.282,706914.741,8,400,8,,ISIC_7358691.JPG
break,html.Screen,4_107_1,2023-09-12T00:46:02.826Z,,0,,,NaN,,,,,,false,,,,706906.0999999046,706905.6999998093,,706905.3999996185,,706914.741,8,400,,,
break_continue,html.Screen,4_107_2,2023-09-12T00:46:02.826Z,,0,,,NaN,,,,,,false,,,,706906.3999996185,706906.3999996185,,706906.1999998093,,706914.741,8,400,,,
sequence,flow.Sequence,4_107,2023-09-12T00:46:02.826Z,,0,,,4734.117999618524,completion,,,,,false,,,,706906.5999999046,706906.3999996185,702155.527,702167.3999996185,702172.282,706914.741,8,400,,,
trial,html.Screen,4_108_0,2023-09-12T00:46:08.300Z,,0,3,,5465.5589997138595,response,ISIC_2513481.JPG,5,ISIC_1334038.JPG,ISIC_1334038.JPG,false,0,keypress(z),500,712380.3999996185,712380.2999997139,706897.998,706906.6999998093,706914.741,712392.012,8,400,9,,ISIC_2513481.JPG
break,html.Screen,4_108_1,2023-09-12T00:46:08.301Z,,0,,,NaN,,,,,,false,,,,712380.8999996185,712380.6999998093,,712380.5,,712392.012,8,400,,,
break_continue,html.Screen,4_108_2,2023-09-12T00:46:08.301Z,,0,,,NaN,,,,,,false,,,,712381.0999999046,712380.8999996185,,712380.8999996185,,712392.012,8,400,,,
sequence,flow.Sequence,4_108,2023-09-12T00:46:08.301Z,,0,,,5466.158999618492,completion,,,,,false,,,,712381.0999999046,712380.8999996185,706897.998,706906.5999999046,706914.741,712392.012,8,400,,,
trial,html.Screen,4_109_0,2023-09-12T00:46:13.492Z,,0,3,,5179.687999809277,response,ISIC_5964676.JPG,6,ISIC_0032383.JPG,ISIC_0032383.JPG,false,0,keypress(z),500,717571.8999996185,717571.6999998093,712375.438,712381.1999998093,712392.012,717585.471,8,400,10,,ISIC_5964676.JPG
break,html.Screen,4_109_1,2023-09-12T00:46:13.493Z,,0,,,NaN,,,,,,false,,,,717572.6999998093,717572.3999996185,,717572.0999999046,,717585.471,8,400,,,
break_continue,html.Screen,4_109_2,2023-09-12T00:46:13.493Z,,0,,,NaN,,,,,,false,,,,717573,717573,,717572.7999997139,,717585.471,8,400,,,
sequence,flow.Sequence,4_109,2023-09-12T00:46:13.493Z,,0,,,5180.988000000012,completion,,,,,false,,,,717573.0999999046,717573,712375.438,712381.1999998093,712392.012,717585.471,8,400,,,
trial,html.Screen,4_110_0,2023-09-12T00:46:19.319Z,,0,3,,5813.02899999998,response,ISIC_0065766.JPG,5,ISIC_1328488.JPG,ISIC_0065766.JPG,false,1,keypress(m),500,723398.6999998093,723398.5,717568.847,717573.1999998093,717585.471,723413.437,8,400,11,,ISIC_1328488.JPG
break,html.Screen,4_110_1,2023-09-12T00:46:19.319Z,,0,,,NaN,,,,,,false,,,,723399.2999997139,723399.1999998093,,723398.8999996185,,723413.437,8,400,,,
break_continue,html.Screen,4_110_2,2023-09-12T00:46:19.320Z,,0,,,NaN,,,,,,false,,,,723399.6999998093,723399.5999999046,,723399.5,,723413.437,8,400,,,
sequence,flow.Sequence,4_110,2023-09-12T00:46:19.320Z,,0,,,5814.128999904613,completion,,,,,false,,,,723399.7999997139,723399.5999999046,717568.847,717573.1999998093,717585.471,723413.437,8,400,,,
trial,html.Screen,4_111_0,2023-09-12T00:46:24.014Z,,0,3,,4680.662999904598,response,ISIC_7059794.JPG,4,ISIC_0561634.JPG,ISIC_0561634.JPG,false,0,keypress(z),500,728094.1999998093,728094.0999999046,723396.762,723399.8999996185,723413.437,728106.094,8,400,12,,ISIC_7059794.JPG
break,html.Screen,4_111_1,2023-09-12T00:46:24.015Z,,0,,,NaN,,,,,,false,,,,728094.5999999046,728094.5999999046,,728094.2999997139,,728106.094,8,400,,,
break_continue,html.Screen,4_111_2,2023-09-12T00:46:24.015Z,,0,,,NaN,,,,,,false,,,,728094.7999997139,728094.7999997139,,728094.6999998093,,728106.094,8,400,,,
sequence,flow.Sequence,4_111,2023-09-12T00:46:24.015Z,,0,,,4681.362999713863,completion,,,,,false,,,,728094.8999996185,728094.7999997139,723396.762,723399.7999997139,723413.437,728106.094,8,400,,,
trial,html.Screen,4_112_0,2023-09-12T00:46:29.072Z,,0,3,,5045.805999618489,response,ISIC_5081382.JPG,5,ISIC_5964676.JPG,ISIC_5964676.JPG,false,0,keypress(z),500,733152,733151.8999996185,728089.351,728094.8999996185,728106.094,733165.863,8,400,13,,ISIC_5081382.JPG
break,html.Screen,4_112_1,2023-09-12T00:46:29.072Z,,0,,,NaN,,,,,,false,,,,733152.3999996185,733152.2999997139,,733152.0999999046,,733165.863,8,400,,,
break_continue,html.Screen,4_112_2,2023-09-12T00:46:29.073Z,,0,,,NaN,,,,,,false,,,,733152.5999999046,733152.5,,733152.3999996185,,733165.863,8,400,,,
sequence,flow.Sequence,4_112,2023-09-12T00:46:29.073Z,,0,,,5046.405999999959,completion,,,,,false,,,,733152.6999998093,733152.5,728089.351,728094.8999996185,728106.094,733165.863,8,400,,,
trial,html.Screen,4_113_0,2023-09-12T00:46:33.813Z,,0,3,,4726.636999999988,response,ISIC_9482842.JPG,5,ISIC_6809586.JPG,ISIC_6809586.JPG,false,0,keypress(z),500,737892.5999999046,737892.5,733149.056,733152.6999998093,733165.863,737908.346,8,400,14,,ISIC_9482842.JPG
break,html.Screen,4_113_1,2023-09-12T00:46:33.813Z,,0,,,NaN,,,,,,false,,,,737893.3999996185,737893.1999998093,,737892.7999997139,,737908.346,8,400,,,
break_continue,html.Screen,4_113_2,2023-09-12T00:46:33.814Z,,0,,,NaN,,,,,,false,,,,737893.8999996185,737893.6999998093,,737893.5999999046,,737908.346,8,400,,,
sequence,flow.Sequence,4_113,2023-09-12T00:46:33.814Z,,0,,,4727.836999809253,completion,,,,,false,,,,737894.0999999046,737893.6999998093,733149.056,733152.6999998093,733165.863,737908.346,8,400,,,
trial,html.Screen,4_114_0,2023-09-12T00:46:38.424Z,,0,3,,4596.053999618511,response,ISIC_6663112.JPG,4,ISIC_5415749.JPG,ISIC_5415749.JPG,false,0,keypress(z),500,742504.5,742504.3999996185,737891.727,737894.1999998093,737908.346,742517.4,8,400,15,,ISIC_6663112.JPG
break,html.Screen,4_114_1,2023-09-12T00:46:38.425Z,,0,,,NaN,,,,,,false,,,,742504.8999996185,742504.7999997139,,742504.5999999046,,742517.4,8,400,,,
break_continue,html.Screen,4_114_2,2023-09-12T00:46:38.425Z,,0,,,NaN,,,,,,false,,,,742505.0999999046,742505.0999999046,,742504.8999996185,,742517.4,8,400,,,
sequence,flow.Sequence,4_114,2023-09-12T00:46:38.425Z,,0,,,4596.753999904613,completion,,,,,false,,,,742505.1999998093,742505.0999999046,737891.727,737894.1999998093,737908.346,742517.4,8,400,,,
trial,html.Screen,4_115_0,2023-09-12T00:46:42.802Z,,0,3,,4364.999999618507,response,ISIC_9021685.JPG,5,ISIC_0000569.JPG,ISIC_9021685.JPG,false,1,keypress(m),500,746882.5,746882.3999996185,742500.76,742505.2999997139,742517.4,746892.602,8,400,16,,ISIC_0000569.JPG
break,html.Screen,4_115_1,2023-09-12T00:46:42.803Z,,0,,,NaN,,,,,,false,,,,746882.8999996185,746882.7999997139,,746882.5999999046,,746892.602,8,400,,,
break_continue,html.Screen,4_115_2,2023-09-12T00:46:42.803Z,,0,,,NaN,,,,,,false,,,,746883.1999998093,746883.0999999046,,746883,,746892.602,8,400,,,
sequence,flow.Sequence,4_115,2023-09-12T00:46:42.803Z,,0,,,4365.699999904609,completion,,,,,false,,,,746883.1999998093,746883.0999999046,742500.76,742505.1999998093,742517.4,746892.602,8,400,,,
trial,html.Screen,4_116_0,2023-09-12T00:46:49.012Z,,0,3,,6199.697999713942,response,ISIC_8496052.JPG,4,ISIC_0046985.JPG,ISIC_8496052.JPG,false,1,keypress(m),500,753092.3999996185,753092.2999997139,746875.876,746883.1999998093,746892.602,753104.571,8,400,17,,ISIC_0046985.JPG
break,html.Screen,4_116_1,2023-09-12T00:46:49.013Z,,0,,,NaN,,,,,,false,,,,753092.8999996185,753092.8999996185,,753092.5999999046,,753104.571,8,400,,,
break_continue,html.Screen,4_116_2,2023-09-12T00:46:49.013Z,,0,,,NaN,,,,,,false,,,,753093.1999998093,753093.1999998093,,753093.0999999046,,753104.571,8,400,,,
sequence,flow.Sequence,4_116,2023-09-12T00:46:49.013Z,,0,,,6200.59799980931,completion,,,,,false,,,,753093.3999996185,753093.1999998093,746875.876,746883.1999998093,746892.602,753104.571,8,400,,,
trial,html.Screen,4_117_0,2023-09-12T00:46:54.763Z,,0,3,,5737.929000000004,response,ISIC_0058666.JPG,5,ISIC_0071733.JPG,ISIC_0058666.JPG,false,1,keypress(m),500,758842.5999999046,758842.5,753088.003,753093.5,753104.571,758849.176,8,400,18,,ISIC_0071733.JPG
break,html.Screen,4_117_1,2023-09-12T00:46:54.763Z,,0,,,NaN,,,,,,false,,,,758843.0999999046,758842.8999996185,,758842.6999998093,,758849.176,8,400,,,
break_continue,html.Screen,4_117_2,2023-09-12T00:46:54.763Z,,0,,,NaN,,,,,,false,,,,758843.1999998093,758843.0999999046,,758843.0999999046,,758849.176,8,400,,,
sequence,flow.Sequence,4_117,2023-09-12T00:46:54.764Z,,0,,,5738.528999904636,completion,,,,,false,,,,758843.2999997139,758843.0999999046,753088.003,753093.5,753104.571,758849.176,8,400,,,
trial,html.Screen,4_118_0,2023-09-12T00:46:58.996Z,,0,3,,4226.824000000022,response,ISIC_7937065.JPG,5,ISIC_0058585.JPG,ISIC_0058585.JPG,false,0,keypress(z),500,763076.1999998093,763076,758832.607,758843.3999996185,758849.176,763107.527,8,400,19,,ISIC_7937065.JPG
break,html.Screen,4_118_1,2023-09-12T00:46:58.997Z,,0,,,NaN,,,,,,false,,,,763076.5,763076.5,,763076.2999997139,,763107.527,8,400,,,
break_continue,html.Screen,4_118_2,2023-09-12T00:46:58.997Z,,0,,,NaN,,,,,,false,,,,763076.7999997139,763076.6999998093,,763076.5999999046,,763107.527,8,400,,,
sequence,flow.Sequence,4_118,2023-09-12T00:46:58.997Z,,0,,,4227.5239998092875,completion,,,,,false,,,,763076.8999996185,763076.6999998093,758832.607,758843.2999997139,758849.176,763107.527,8,400,,,
trial,html.Screen,4_119_0,2023-09-12T00:47:04.249Z,,0,3,,5221.572999904631,response,ISIC_7475827.JPG,5,ISIC_6013764.JPG,ISIC_7475827.JPG,false,1,keypress(m),500,768329.2999997139,768329.0999999046,763090.725,763076.8999996185,763107.527,768334.183,8,400,20,,ISIC_6013764.JPG
break,html.Screen,4_119_1,2023-09-12T00:47:04.250Z,,0,,,NaN,,,,,,false,,,,768329.5999999046,768329.5999999046,,768329.2999997139,,768334.183,8,400,,,
break_continue,html.Screen,4_119_2,2023-09-12T00:47:04.250Z,,0,,,NaN,,,,,,false,,,,768329.8999996185,768329.7999997139,,768329.7999997139,,768334.183,8,400,,,
sequence,flow.Sequence,4_119,2023-09-12T00:47:04.250Z,,0,,,5222.272999713896,completion,,,,,false,,,,768329.8999996185,768329.7999997139,763090.725,763076.8999996185,763107.527,768334.183,8,400,,,
trial,html.Screen,4_120_0,2023-09-12T00:47:09.325Z,,0,3,,5070.116999713937,response,ISIC_0010611.JPG,5,ISIC_0028070.JPG,ISIC_0010611.JPG,false,1,keypress(m),500,773404.5,773404.2999997139,768317.729,768330,768334.183,773410.905,8,400,21,,ISIC_0028070.JPG
break,html.Screen,4_120_1,2023-09-12T00:47:09.325Z,,0,,,NaN,,,,,,false,,,,773405,773404.8999996185,,773404.6999998093,,773410.905,8,400,,,
break_continue,html.Screen,4_120_2,2023-09-12T00:47:09.325Z,,0,,,NaN,,,,,,false,,,,773405.1999998093,773405.1999998093,,773405,,773410.905,8,400,,,
sequence,flow.Sequence,4_120,2023-09-12T00:47:09.326Z,,0,,,5071.016999809304,completion,,,,,false,,,,773405.5,773405.1999998093,768317.729,768329.8999996185,768334.183,773410.905,8,400,,,
trial,html.Screen,4_121_0,2023-09-12T00:47:14.518Z,,0,3,,5186.39499971387,response,ISIC_7877488.JPG,4,ISIC_7293697.JPG,ISIC_7293697.JPG,false,0,keypress(z),500,778597.5999999046,778597.2999997139,773394.149,773405.5,773410.905,778604.162,8,400,22,,ISIC_7877488.JPG
break,html.Screen,4_121_1,2023-09-12T00:47:14.518Z,,0,,,NaN,,,,,,false,,,,778598.0999999046,778598,,778597.6999998093,,778604.162,8,400,,,
break_continue,html.Screen,4_121_2,2023-09-12T00:47:14.518Z,,0,,,NaN,,,,,,false,,,,778598.1999998093,778598.1999998093,,778598.0999999046,,778604.162,8,400,,,
sequence,flow.Sequence,4_121,2023-09-12T00:47:14.519Z,,0,,,5187.294999809237,completion,,,,,false,,,,778598.2999997139,778598.1999998093,773394.149,773405.5,773410.905,778604.162,8,400,,,
trial,html.Screen,4_122_0,2023-09-12T00:47:19.259Z,,0,3,,4734.1379997138865,response,ISIC_2728024.JPG,5,ISIC_0001121.JPG,ISIC_0001121.JPG,false,0,keypress(z),500,783338.5,783338.2999997139,778587.612,778598.3999996185,778604.162,783363.477,8,400,23,,ISIC_2728024.JPG
break,html.Screen,4_122_1,2023-09-12T00:47:19.259Z,,0,,,NaN,,,,,,false,,,,783338.8999996185,783338.6999998093,,783338.5999999046,,783363.477,8,400,,,
break_continue,html.Screen,4_122_2,2023-09-12T00:47:19.259Z,,0,,,NaN,,,,,,false,,,,783339.0999999046,783339,,783338.8999996185,,783363.477,8,400,,,
sequence,flow.Sequence,4_122,2023-09-12T00:47:19.259Z,,0,,,4734.837999999989,completion,,,,,false,,,,783339.0999999046,783339,778587.612,778598.3999996185,778604.162,783363.477,8,400,,,
trial,html.Screen,4_123_0,2023-09-12T00:47:24.019Z,,0,3,,4735.322999713942,response,ISIC_0067418.JPG,5,ISIC_9513808.JPG,ISIC_0067418.JPG,false,1,keypress(m),500,788099,788098.7999997139,783346.78,783339.1999998093,783363.477,788122.732,8,400,24,,ISIC_9513808.JPG
break,html.Screen,4_123_1,2023-09-12T00:47:24.020Z,,0,,,NaN,,,,,,false,,,,788099.2999997139,788099.1999998093,,788099.0999999046,,788122.732,8,400,,,
break_continue,html.Screen,4_123_2,2023-09-12T00:47:24.020Z,,0,,,NaN,,,,,,false,,,,788099.5999999046,788099.5,,788099.3999996185,,788122.732,8,400,,,
sequence,flow.Sequence,4_123,2023-09-12T00:47:24.020Z,,0,,,4736.023000000045,completion,,,,,false,,,,788099.7999997139,788099.5,783346.78,783339.0999999046,783363.477,788122.732,8,400,,,
trial,html.Screen,4_124_0,2023-09-12T00:47:28.407Z,,0,3,,4363.367999904673,response,ISIC_3028754.JPG,5,ISIC_7664137.JPG,ISIC_7664137.JPG,false,0,keypress(z),500,792486.2999997139,792486.0999999046,788106.033,788099.7999997139,788122.732,792497.983,8,400,25,,ISIC_3028754.JPG
break,html.Screen,4_124_1,2023-09-12T00:47:28.407Z,,0,,,NaN,,,,,,false,,,,792486.6999998093,792486.5999999046,,792486.3999996185,,792497.983,8,400,,,
break_continue,html.Screen,4_124_2,2023-09-12T00:47:28.407Z,,0,,,NaN,,,,,,false,,,,792487,792486.8999996185,,792486.8999996185,,792497.983,8,400,,,
sequence,flow.Sequence,4_124,2023-09-12T00:47:28.407Z,,0,,,4364.16799961857,completion,,,,,false,,,,792487.0999999046,792486.8999996185,788106.033,788099.7999997139,788122.732,792497.983,8,400,,,
trial,html.Screen,4_125_0,2023-09-12T00:47:33.721Z,,0,3,,5302.516999999993,response,ISIC_0013972.JPG,5,ISIC_9879693.JPG,ISIC_0013972.JPG,false,1,keypress(m),500,797800.6999998093,797800.5,792481.48,792487.0999999046,792497.983,797808.279,8,400,26,,ISIC_9879693.JPG
break,html.Screen,4_125_1,2023-09-12T00:47:33.722Z,,0,,,NaN,,,,,,false,,,,797801.7999997139,797801.5,,797800.8999996185,,797808.279,8,400,,,
break_continue,html.Screen,4_125_2,2023-09-12T00:47:33.722Z,,0,,,NaN,,,,,,false,,,,797802.1999998093,797802.0999999046,,797801.8999996185,,797808.279,8,400,,,
sequence,flow.Sequence,4_125,2023-09-12T00:47:33.723Z,,0,,,5304.116999904625,completion,,,,,false,,,,797802.5,797802.0999999046,792481.48,792487.0999999046,792497.983,797808.279,8,400,,,
