sender,sender_type,sender_id,timestamp,meta,,blockNo,condition,duration,ended_on,img_left,img_reveal,img_right,loser,practice,response,response_action,selection_duration,time_commit,time_end,time_render,time_run,time_show,time_switch,total_blocks,total_trials,trialNo,url,winner
informed_consent,html.Screen,0,2023-09-11T19:04:23.633Z,"{""labjs_version"":""20.2.4"",""labjs_build"":{""flavor"":""development"",""commit"":""f5b4a49f956347addd546a832a3327688c2c0fef""},""location"":""https://labjs.felixhenninger.com/api/labjs_preview/index.html"",""userAgent"":""Mozilla/5.0 (Windows NT 10.0; Win64; x64) AppleWebKit/537.36 (KHTML, like Gecko) Chrome/116.0.0.0 Safari/537.36"",""platform"":""Win32"",""language"":""en-AU"",""locale"":""en-US"",""timeZone"":""America/Chicago"",""timezoneOffset"":300,""screen_width"":1680,""screen_height"":1050,""scroll_width"":1296,""scroll_height"":688,""window_innerWidth"":1296,""window_innerHeight"":736,""devicePixelRatio"":1}",,,,4772.966,response,,,,,,consent,click button,,5349.400000095367,5348.5,558.868,567.1999998092651,575.534,5351.488,,,,{},
Welcome,html.Screen,1,2023-09-11T19:05:04.129Z,,,,colourful,40492.81200019074,response,,,,,,continue,click button,,45844.90000009537,45844.300000190735,5334.958,5349.699999809265,5351.488,45863.72,,,,,
trial,html.Screen,2_0_0,2023-09-11T19:05:10.275Z,,0,0,,6126.680000095366,response,ISIC_0025593.JPG,,ISIC_0063388.JPG,ISIC_0063388.JPG,true,0,keypress(z),500,51990.59999990463,51990.40000009537,45846.968,45845,45863.72,51992.263,1,6,1,,ISIC_0025593.JPG
sequence,flow.Sequence,2_0,2023-09-11T19:05:10.275Z,,0,,,6126.680000095366,completion,,,,,true,,,,51990.699999809265,51990.40000009537,45846.968,45845,45863.72,51992.263,1,6,,,
trial,html.Screen,2_1_0,2023-09-11T19:05:14.789Z,,0,0,,4513.037000190736,response,ISIC_0028178.JPG,,ISIC_1309015.JPG,ISIC_1309015.JPG,true,0,keypress(z),500,56505.5,56505.300000190735,51975.727,51990.800000190735,51992.263,56517.763,1,6,2,,ISIC_0028178.JPG
sequence,flow.Sequence,2_1,2023-09-11T19:05:14.790Z,,0,,,4513.037000190736,completion,,,,,true,,,,56505.699999809265,56505.300000190735,51975.727,51990.800000190735,51992.263,56517.763,1,6,,,
trial,html.Screen,2_2_0,2023-09-11T19:05:18.055Z,,0,0,,3253.237000000001,response,ISIC_3314853.JPG,,ISIC_0031128.JPG,ISIC_3314853.JPG,true,1,keypress(m),500,59771.09999990463,59771,56501.083,56505.800000190735,56517.763,59774.109,1,6,3,,ISIC_0031128.JPG
sequence,flow.Sequence,2_2,2023-09-11T19:05:18.055Z,,0,,,3253.237000000001,completion,,,,,true,,,,59771.300000190735,59771,56501.083,56505.699999809265,56517.763,59774.109,1,6,,,
trial,html.Screen,2_3_0,2023-09-11T19:05:21.002Z,,0,0,,2943.7910000953707,response,ISIC_0031612.JPG,,ISIC_8980141.JPG,ISIC_8980141.JPG,true,0,keypress(z),500,62718.09999990463,62717.90000009537,59757.495,59771.40000009537,59774.109,62729.922,1,6,4,,ISIC_0031612.JPG
sequence,flow.Sequence,2_3,2023-09-11T19:05:21.002Z,,0,,,2943.7910000953707,completion,,,,,true,,,,62718.199999809265,62717.90000009537,59757.495,59771.40000009537,59774.109,62729.922,1,6,,,
trial,html.Screen,2_4_0,2023-09-11T19:05:24.332Z,,0,0,,3317.878000190736,response,ISIC_9721604.JPG,,ISIC_1197737.JPG,ISIC_9721604.JPG,true,1,keypress(m),500,66048,66047.80000019073,62713.345,62718.300000190735,62729.922,66052.992,1,6,5,,ISIC_1197737.JPG
sequence,flow.Sequence,2_4,2023-09-11T19:05:24.332Z,,0,,,3317.878000190736,completion,,,,,true,,,,66048.09999990463,66047.80000019073,62713.345,62718.300000190735,62729.922,66052.992,1,6,,,
trial,html.Screen,2_5_0,2023-09-11T19:05:29.822Z,,0,0,,5484.8080001907365,response,ISIC_0010681.JPG,,ISIC_0025346.JPG,ISIC_0025346.JPG,true,0,keypress(z),500,71537.90000009537,71537.80000019073,66036.464,66048.19999980927,66052.992,71546.995,1,6,6,,ISIC_0010681.JPG
sequence,flow.Sequence,2_5,2023-09-11T19:05:29.822Z,,0,,,5484.8080001907365,completion,,,,,true,,,,71538.19999980927,71537.80000019073,66036.464,66048.09999990463,66052.992,71546.995,1,6,,,
loop,flow.Loop,2,2023-09-11T19:05:29.822Z,,,,,25674.080000190734,completion,,,,,true,,,,71538.19999980927,71537.80000019073,45846.968,45844.90000009537,45863.72,71546.995,1,6,,,
exp_instructions,html.Screen,3,2023-09-11T19:05:34.479Z,,,,,4646.8050001907395,response,,,,,,continue,keypress(Space),,76194.5,76193.80000019073,71530.449,71538.30000019073,71546.995,76222.775,,,,,
trial,html.Screen,4_0_0,2023-09-11T19:05:40.882Z,,0,1,,6375.424999809271,response,ISIC_6526489.JPG,5,ISIC_0030833.JPG,ISIC_6526489.JPG,false,1,keypress(m),500,82598.30000019073,82598.19999980927,76206.088,76194.90000009537,76222.775,82601.836,8,400,1,,ISIC_0030833.JPG
break,html.Screen,4_0_1,2023-09-11T19:05:40.883Z,,0,,,NaN,,,,,,false,,,,82599.09999990463,82598.80000019073,,82598.5,,82601.836,8,400,,,
break_continue,html.Screen,4_0_2,2023-09-11T19:05:40.884Z,,0,,,NaN,,,,,,false,,,,82599.5,82599.40000009537,,82599.19999980927,,82601.836,8,400,,,
sequence,flow.Sequence,4_0,2023-09-11T19:05:40.884Z,,0,,,6376.625000095373,completion,,,,,false,,,,82599.59999990463,82599.40000009537,76206.088,76194.80000019073,76222.775,82601.836,8,400,,,
trial,html.Screen,4_1_0,2023-09-11T19:05:46.086Z,,0,1,,5200.164000000004,response,ISIC_7533983.JPG,5,ISIC_0068184.JPG,ISIC_7533983.JPG,false,1,keypress(m),500,87802.09999990463,87802,82585.25,82599.69999980927,82601.836,87812,8,400,2,,ISIC_0068184.JPG
break,html.Screen,4_1_1,2023-09-11T19:05:46.087Z,,0,,,NaN,,,,,,false,,,,87802.69999980927,87802.5,,87802.19999980927,,87812,8,400,,,
break_continue,html.Screen,4_1_2,2023-09-11T19:05:46.087Z,,0,,,NaN,,,,,,false,,,,87802.90000009537,87802.90000009537,,87802.69999980927,,87812,8,400,,,
sequence,flow.Sequence,4_1,2023-09-11T19:05:46.087Z,,0,,,5201.064000095372,completion,,,,,false,,,,87803,87802.90000009537,82585.25,82599.69999980927,82601.836,87812,8,400,,,
trial,html.Screen,4_2_0,2023-09-11T19:05:51.035Z,,0,1,,4938.599999904633,response,ISIC_0046571.JPG,5,ISIC_4966865.JPG,ISIC_4966865.JPG,false,0,keypress(z),500,92750.80000019073,92750.59999990463,87795.281,87803.09999990463,87812,92754.919,8,400,3,,ISIC_0046571.JPG
break,html.Screen,4_2_1,2023-09-11T19:05:51.036Z,,0,,,NaN,,,,,,false,,,,92751.69999980927,92751.5,,92751.09999990463,,92754.919,8,400,,,
break_continue,html.Screen,4_2_2,2023-09-11T19:05:51.036Z,,0,,,NaN,,,,,,false,,,,92752.09999990463,92752,,92751.80000019073,,92754.919,8,400,,,
sequence,flow.Sequence,4_2,2023-09-11T19:05:51.036Z,,0,,,4940,completion,,,,,false,,,,92752.19999980927,92752,87795.281,87803.09999990463,87812,92754.919,8,400,,,
trial,html.Screen,4_3_0,2023-09-11T19:05:54.942Z,,0,1,,3902.8810001907405,response,ISIC_0022328.JPG,5,ISIC_0032847.JPG,ISIC_0032847.JPG,false,0,keypress(z),500,96657.80000019073,96657.80000019073,92738.215,92752.30000019073,92754.919,96662.59,8,400,4,,ISIC_0022328.JPG
break,html.Screen,4_3_1,2023-09-11T19:05:54.942Z,,0,,,NaN,,,,,,false,,,,96658.40000009537,96658.19999980927,,96658,,96662.59,8,400,,,
break_continue,html.Screen,4_3_2,2023-09-11T19:05:54.943Z,,0,,,NaN,,,,,,false,,,,96658.69999980927,96658.59999990463,,96658.5,,96662.59,8,400,,,
sequence,flow.Sequence,4_3,2023-09-11T19:05:54.943Z,,0,,,3903.680999904638,completion,,,,,false,,,,96658.80000019073,96658.59999990463,92738.215,92752.30000019073,92754.919,96662.59,8,400,,,
trial,html.Screen,4_4_0,2023-09-11T19:06:00.162Z,,0,1,,5213.9100000000035,response,ISIC_6785680.JPG,4,ISIC_0010306.JPG,ISIC_0010306.JPG,false,0,keypress(z),500,101876.59999990463,101876.5,96645.956,96658.90000009537,96662.59,101889.366,8,400,5,,ISIC_6785680.JPG
break,html.Screen,4_4_1,2023-09-11T19:06:00.163Z,,0,,,NaN,,,,,,false,,,,101877.09999990463,101876.90000009537,,101876.69999980927,,101889.366,8,400,,,
break_continue,html.Screen,4_4_2,2023-09-11T19:06:00.163Z,,0,,,NaN,,,,,,false,,,,101877.30000019073,101877.30000019073,,101877.30000019073,,101889.366,8,400,,,
sequence,flow.Sequence,4_4,2023-09-11T19:06:00.163Z,,0,,,5214.710000190738,completion,,,,,false,,,,101877.40000009537,101877.30000019073,96645.956,96658.90000009537,96662.59,101889.366,8,400,,,
trial,html.Screen,4_5_0,2023-09-11T19:06:04.516Z,,0,1,,4341.034000095373,response,ISIC_0031472.JPG,5,ISIC_2528656.JPG,ISIC_2528656.JPG,false,0,keypress(z),500,106230.69999980927,106230.40000009537,101872.715,101877.5,101889.366,106247.883,8,400,6,,ISIC_0031472.JPG
break,html.Screen,4_5_1,2023-09-11T19:06:04.518Z,,0,,,NaN,,,,,,false,,,,106232.30000019073,106232,,106231,,106247.883,8,400,,,
break_continue,html.Screen,4_5_2,2023-09-11T19:06:04.519Z,,0,,,NaN,,,,,,false,,,,106232.80000019073,106232.69999980927,,106232.59999990463,,106247.883,8,400,,,
sequence,flow.Sequence,4_5,2023-09-11T19:06:04.519Z,,0,,,4343.333999809271,completion,,,,,false,,,,106233.09999990463,106232.69999980927,101872.715,101877.5,101889.366,106247.883,8,400,,,
trial,html.Screen,4_6_0,2023-09-11T19:06:11.930Z,,0,1,,7396.417000190733,response,ISIC_6792899.JPG,6,ISIC_0076742.JPG,ISIC_0076742.JPG,false,0,keypress(z),500,113644.40000009537,113644.30000019073,106231.272,106233.19999980927,106247.883,113645.571,8,400,7,,ISIC_6792899.JPG
break,html.Screen,4_6_1,2023-09-11T19:06:11.931Z,,0,,,NaN,,,,,,false,,,,113644.90000009537,113644.69999980927,,113644.5,,113645.571,8,400,,,
break_continue,html.Screen,4_6_2,2023-09-11T19:06:11.931Z,,0,,,NaN,,,,,,false,,,,113645,113645,,113644.90000009537,,113645.571,8,400,,,
sequence,flow.Sequence,4_6,2023-09-11T19:06:11.931Z,,0,,,7397.116999999998,completion,,,,,false,,,,113645.19999980927,113645,106231.272,106233.19999980927,106247.883,113645.571,8,400,,,
trial,html.Screen,4_7_0,2023-09-11T19:06:17.745Z,,0,1,,5813.128999809269,response,ISIC_8108099.JPG,5,ISIC_0010306.JPG,ISIC_0010306.JPG,false,0,keypress(z),500,119458.90000009537,119458.69999980927,113629.004,113645.19999980927,113645.571,119473.642,8,400,8,,ISIC_8108099.JPG
break,html.Screen,4_7_1,2023-09-11T19:06:17.745Z,,0,,,NaN,,,,,,false,,,,119459.40000009537,119459.30000019073,,119459,,119473.642,8,400,,,
break_continue,html.Screen,4_7_2,2023-09-11T19:06:17.745Z,,0,,,NaN,,,,,,false,,,,119459.69999980927,119459.59999990463,,119459.40000009537,,119473.642,8,400,,,
sequence,flow.Sequence,4_7,2023-09-11T19:06:17.745Z,,0,,,5814.028999904636,completion,,,,,false,,,,119459.69999980927,119459.59999990463,113629.004,113645.19999980927,113645.571,119473.642,8,400,,,
trial,html.Screen,4_8_0,2023-09-11T19:06:22.403Z,,0,1,,4643.25800009536,response,ISIC_2953279.JPG,5,ISIC_0031397.JPG,ISIC_2953279.JPG,false,1,keypress(m),500,124117,124116.90000009537,119457.003,119459.69999980927,119473.642,124132.661,8,400,9,,ISIC_0031397.JPG
break,html.Screen,4_8_1,2023-09-11T19:06:22.404Z,,0,,,NaN,,,,,,false,,,,124117.80000019073,124117.59999990463,,124117.19999980927,,124132.661,8,400,,,
break_continue,html.Screen,4_8_2,2023-09-11T19:06:22.404Z,,0,,,NaN,,,,,,false,,,,124118.09999990463,124118,,124117.80000019073,,124132.661,8,400,,,
sequence,flow.Sequence,4_8,2023-09-11T19:06:22.404Z,,0,,,4644.357999999993,completion,,,,,false,,,,124118.19999980927,124118,119457.003,119459.69999980927,119473.642,124132.661,8,400,,,
trial,html.Screen,4_9_0,2023-09-11T19:06:28.087Z,,0,1,,5667.93899990464,response,ISIC_0029513.JPG,5,ISIC_6201695.JPG,ISIC_6201695.JPG,false,0,keypress(z),500,129800.80000019073,129800.59999990463,124115.962,124118.30000019073,124132.661,129810.465,8,400,10,,ISIC_0029513.JPG
break,html.Screen,4_9_1,2023-09-11T19:06:28.087Z,,0,,,NaN,,,,,,false,,,,129801.5,129801.19999980927,,129800.90000009537,,129810.465,8,400,,,
break_continue,html.Screen,4_9_2,2023-09-11T19:06:28.088Z,,0,,,NaN,,,,,,false,,,,129801.90000009537,129801.69999980927,,129801.5,,129810.465,8,400,,,
sequence,flow.Sequence,4_9,2023-09-11T19:06:28.088Z,,0,,,5669.038999809272,completion,,,,,false,,,,129802,129801.69999980927,124115.962,124118.30000019073,124132.661,129810.465,8,400,,,
trial,html.Screen,4_10_0,2023-09-11T19:06:32.633Z,,0,1,,4537.0350000000035,response,ISIC_2625894.JPG,6,ISIC_0031184.JPG,ISIC_2625894.JPG,false,1,keypress(m),500,134347.69999980927,134347.5,129793.782,129802,129810.465,134352.558,8,400,11,,ISIC_0031184.JPG
break,html.Screen,4_10_1,2023-09-11T19:06:32.634Z,,0,,,NaN,,,,,,false,,,,134348.09999990463,134348,,134347.80000019073,,134352.558,8,400,,,
break_continue,html.Screen,4_10_2,2023-09-11T19:06:32.634Z,,0,,,NaN,,,,,,false,,,,134348.30000019073,134348.30000019073,,134348.19999980927,,134352.558,8,400,,,
sequence,flow.Sequence,4_10,2023-09-11T19:06:32.634Z,,0,,,4537.835000190738,completion,,,,,false,,,,134348.40000009537,134348.30000019073,129793.782,129802,129810.465,134352.558,8,400,,,
trial,html.Screen,4_11_0,2023-09-11T19:06:39.678Z,,0,1,,7039.742000190745,response,ISIC_9716860.JPG,4,ISIC_6406517.JPG,ISIC_6406517.JPG,false,0,keypress(z),500,141392.40000009537,141392.30000019073,134335.937,134348.40000009537,134352.558,141399.641,8,400,12,,ISIC_9716860.JPG
break,html.Screen,4_11_1,2023-09-11T19:06:39.679Z,,0,,,NaN,,,,,,false,,,,141392.80000019073,141392.69999980927,,141392.5,,141399.641,8,400,,,
break_continue,html.Screen,4_11_2,2023-09-11T19:06:39.679Z,,0,,,NaN,,,,,,false,,,,141393,141393,,141392.90000009537,,141399.641,8,400,,,
sequence,flow.Sequence,4_11,2023-09-11T19:06:39.679Z,,0,,,7040.44200000001,completion,,,,,false,,,,141393,141393,134335.937,134348.40000009537,134352.558,141399.641,8,400,,,
trial,html.Screen,4_12_0,2023-09-11T19:06:44.176Z,,0,1,,4490.558999809262,response,ISIC_0015136.JPG,4,ISIC_8397011.JPG,ISIC_8397011.JPG,false,0,keypress(z),500,145890.30000019073,145890.19999980927,141383.001,141393.09999990463,141399.641,145891.674,8,400,13,,ISIC_0015136.JPG
break,html.Screen,4_12_1,2023-09-11T19:06:44.177Z,,0,,,NaN,,,,,,false,,,,145891,145890.69999980927,,145890.40000009537,,145891.674,8,400,,,
break_continue,html.Screen,4_12_2,2023-09-11T19:06:44.177Z,,0,,,NaN,,,,,,false,,,,145891.19999980927,145891.09999990463,,145891,,145891.674,8,400,,,
sequence,flow.Sequence,4_12,2023-09-11T19:06:44.177Z,,0,,,4491.458999904629,completion,,,,,false,,,,145891.30000019073,145891.09999990463,141383.001,141393.09999990463,141399.641,145891.674,8,400,,,
trial,html.Screen,4_13_0,2023-09-11T19:06:50.759Z,,0,1,,6581.025999809266,response,ISIC_0000058.JPG,5,ISIC_0062241.JPG,ISIC_0000058.JPG,false,1,keypress(m),500,152472.90000009537,152472.69999980927,145875.075,145891.40000009537,145891.674,152504.644,8,400,14,,ISIC_0062241.JPG
break,html.Screen,4_13_1,2023-09-11T19:06:50.759Z,,0,,,NaN,,,,,,false,,,,152473.5,152473.40000009537,,152473,,152504.644,8,400,,,
break_continue,html.Screen,4_13_2,2023-09-11T19:06:50.760Z,,0,,,NaN,,,,,,false,,,,152473.80000019073,152473.69999980927,,152473.69999980927,,152504.644,8,400,,,
sequence,flow.Sequence,4_13,2023-09-11T19:06:50.760Z,,0,,,6582.025999809266,completion,,,,,false,,,,152473.90000009537,152473.69999980927,145875.075,145891.40000009537,145891.674,152504.644,8,400,,,
trial,html.Screen,4_14_0,2023-09-11T19:06:55.803Z,,0,1,,5012.856,response,ISIC_0028655.JPG,5,ISIC_7755106.JPG,ISIC_0028655.JPG,false,1,keypress(m),500,157517.69999980927,157517.5,152487.952,152474,152504.644,157531.079,8,400,15,,ISIC_7755106.JPG
break,html.Screen,4_14_1,2023-09-11T19:06:55.804Z,,0,,,NaN,,,,,,false,,,,157518.19999980927,157518,,157517.69999980927,,157531.079,8,400,,,
break_continue,html.Screen,4_14_2,2023-09-11T19:06:55.804Z,,0,,,NaN,,,,,,false,,,,157518.5,157518.40000009537,,157518.30000019073,,157531.079,8,400,,,
sequence,flow.Sequence,4_14,2023-09-11T19:06:55.804Z,,0,,,5013.756000095367,completion,,,,,false,,,,157518.59999990463,157518.40000009537,152487.952,152473.90000009537,152504.644,157531.079,8,400,,,
trial,html.Screen,4_15_0,2023-09-11T19:06:59.824Z,,0,1,,4005.421000000002,response,ISIC_0663824.JPG,5,ISIC_9351418.JPG,ISIC_0663824.JPG,false,1,keypress(m),500,161536.90000009537,161536.5,157514.405,157518.59999990463,157531.079,161538.911,8,400,16,,ISIC_9351418.JPG
break,html.Screen,4_15_1,2023-09-11T19:06:59.825Z,,0,,,NaN,,,,,,false,,,,161538.69999980927,161538.19999980927,,161537.30000019073,,161538.911,8,400,,,
break_continue,html.Screen,4_15_2,2023-09-11T19:06:59.826Z,,0,,,NaN,,,,,,false,,,,161539.59999990463,161539.40000009537,,161539,,161538.911,8,400,,,
sequence,flow.Sequence,4_15,2023-09-11T19:06:59.827Z,,0,,,4008.3210000953695,completion,,,,,false,,,,161540.19999980927,161539.40000009537,157514.405,157518.59999990463,157531.079,161538.911,8,400,,,
trial,html.Screen,4_16_0,2023-09-11T19:07:06.342Z,,0,1,,6516.288999809272,response,ISIC_0014217.JPG,5,ISIC_1706912.JPG,ISIC_0014217.JPG,false,1,keypress(m),500,168055.30000019073,168055.19999980927,161522.238,161540.5,161538.911,168068.134,8,400,17,,ISIC_1706912.JPG
break,html.Screen,4_16_1,2023-09-11T19:07:06.343Z,,0,,,NaN,,,,,,false,,,,168055.59999990463,168055.59999990463,,168055.40000009537,,168068.134,8,400,,,
break_continue,html.Screen,4_16_2,2023-09-11T19:07:06.343Z,,0,,,NaN,,,,,,false,,,,168055.90000009537,168055.80000019073,,168055.69999980927,,168068.134,8,400,,,
sequence,flow.Sequence,4_16,2023-09-11T19:07:06.343Z,,0,,,6516.889000190742,completion,,,,,false,,,,168055.90000009537,168055.80000019073,161522.238,161540.40000009537,161538.911,168068.134,8,400,,,
trial,html.Screen,4_17_0,2023-09-11T19:07:10.072Z,,0,1,,3717.2660000953765,response,ISIC_0065823.JPG,5,ISIC_2909153.JPG,ISIC_2909153.JPG,false,0,keypress(z),500,171785.5,171785.40000009537,168051.577,168056,168068.134,171792.133,8,400,18,,ISIC_0065823.JPG
break,html.Screen,4_17_1,2023-09-11T19:07:10.073Z,,0,,,NaN,,,,,,false,,,,171786.09999990463,171785.90000009537,,171785.69999980927,,171792.133,8,400,,,
break_continue,html.Screen,4_17_2,2023-09-11T19:07:10.073Z,,0,,,NaN,,,,,,false,,,,171786.40000009537,171786.40000009537,,171786.19999980927,,171792.133,8,400,,,
sequence,flow.Sequence,4_17,2023-09-11T19:07:10.073Z,,0,,,3718.2660000953765,completion,,,,,false,,,,171786.59999990463,171786.40000009537,168051.577,168055.90000009537,168068.134,171792.133,8,400,,,
trial,html.Screen,4_18_0,2023-09-11T19:07:14.635Z,,0,1,,4555.866999999998,response,ISIC_0010503.JPG,4,ISIC_0033021.JPG,ISIC_0033021.JPG,false,0,keypress(z),500,176348.19999980927,176348,171775.57,171786.69999980927,171792.133,176350.969,8,400,19,,ISIC_0010503.JPG
break,html.Screen,4_18_1,2023-09-11T19:07:14.636Z,,0,,,NaN,,,,,,false,,,,176348.69999980927,176348.5,,176348.19999980927,,176350.969,8,400,,,
break_continue,html.Screen,4_18_2,2023-09-11T19:07:14.636Z,,0,,,NaN,,,,,,false,,,,176349.09999990463,176349,,176348.90000009537,,176350.969,8,400,,,
sequence,flow.Sequence,4_18,2023-09-11T19:07:14.636Z,,0,,,4556.866999999998,completion,,,,,false,,,,176349.19999980927,176349,171775.57,171786.59999990463,171792.133,176350.969,8,400,,,
trial,html.Screen,4_19_0,2023-09-11T19:07:19.183Z,,0,1,,4544.431000095356,response,ISIC_3335505.JPG,6,ISIC_0959863.JPG,ISIC_3335505.JPG,false,1,keypress(m),500,180895.69999980927,180895.40000009537,176334.399,176349.30000019073,176350.969,180909.817,8,400,20,,ISIC_0959863.JPG
break,html.Screen,4_19_1,2023-09-11T19:07:19.185Z,,0,,,NaN,,,,,,false,,,,180897.69999980927,180897.30000019073,,180896.19999980927,,180909.817,8,400,,,
break_continue,html.Screen,4_19_2,2023-09-11T19:07:19.185Z,,0,,,NaN,,,,,,false,,,,180898.40000009537,180898.30000019073,,180897.90000009537,,180909.817,8,400,,,
sequence,flow.Sequence,4_19,2023-09-11T19:07:19.185Z,,0,,,4547.331000190723,completion,,,,,false,,,,180898.59999990463,180898.30000019073,176334.399,176349.30000019073,176350.969,180909.817,8,400,,,
trial,html.Screen,4_20_0,2023-09-11T19:07:23.444Z,,0,1,,4247.083000095357,response,ISIC_6912233.JPG,6,ISIC_0003046.JPG,ISIC_0003046.JPG,false,0,keypress(z),500,185157,185156.90000009537,180893.232,180898.80000019073,180909.817,185168.152,8,400,21,,ISIC_6912233.JPG
break,html.Screen,4_20_1,2023-09-11T19:07:23.444Z,,0,,,NaN,,,,,,false,,,,185157.59999990463,185157.30000019073,,185157,,185168.152,8,400,,,
break_continue,html.Screen,4_20_2,2023-09-11T19:07:23.445Z,,0,,,NaN,,,,,,false,,,,185157.80000019073,185157.80000019073,,185157.69999980927,,185168.152,8,400,,,
sequence,flow.Sequence,4_20,2023-09-11T19:07:23.445Z,,0,,,4247.983000190725,completion,,,,,false,,,,185157.90000009537,185157.80000019073,180893.232,180898.69999980927,180909.817,185168.152,8,400,,,
trial,html.Screen,4_21_0,2023-09-11T19:07:27.661Z,,0,1,,4205.547999809263,response,ISIC_0032917.JPG,6,ISIC_0046597.JPG,ISIC_0046597.JPG,false,0,keypress(z),500,189373.80000019073,189373.69999980927,185151.48,185158,185168.152,189376.287,8,400,22,,ISIC_0032917.JPG
break,html.Screen,4_21_1,2023-09-11T19:07:27.661Z,,0,,,NaN,,,,,,false,,,,189374.59999990463,189374.19999980927,,189373.90000009537,,189376.287,8,400,,,
break_continue,html.Screen,4_21_2,2023-09-11T19:07:27.662Z,,0,,,NaN,,,,,,false,,,,189374.90000009537,189374.80000019073,,189374.69999980927,,189376.287,8,400,,,
sequence,flow.Sequence,4_21,2023-09-11T19:07:27.662Z,,0,,,4206.648000190733,completion,,,,,false,,,,189375,189374.80000019073,185151.48,185158,185168.152,189376.287,8,400,,,
trial,html.Screen,4_22_0,2023-09-11T19:07:33.091Z,,0,1,,5427.712999999989,response,ISIC_0029574.JPG,5,ISIC_8104064.JPG,ISIC_8104064.JPG,false,0,keypress(z),500,194804.19999980927,194804,189359.716,189375.09999990463,189376.287,194820.216,8,400,23,,ISIC_0029574.JPG
break,html.Screen,4_22_1,2023-09-11T19:07:33.091Z,,0,,,NaN,,,,,,false,,,,194804.59999990463,194804.5,,194804.19999980927,,194820.216,8,400,,,
break_continue,html.Screen,4_22_2,2023-09-11T19:07:33.092Z,,0,,,NaN,,,,,,false,,,,194804.80000019073,194804.69999980927,,194804.69999980927,,194820.216,8,400,,,
sequence,flow.Sequence,4_22,2023-09-11T19:07:33.092Z,,0,,,5428.412999809254,completion,,,,,false,,,,194804.90000009537,194804.69999980927,189359.716,189375,189376.287,194820.216,8,400,,,
trial,html.Screen,4_23_0,2023-09-11T19:07:37.477Z,,0,1,,4369.983999809279,response,ISIC_0067443.JPG,5,ISIC_0422299.JPG,ISIC_0422299.JPG,false,0,keypress(z),500,199190.30000019073,199190.19999980927,194803.615,194804.90000009537,194820.216,199195.405,8,400,24,,ISIC_0067443.JPG
break,html.Screen,4_23_1,2023-09-11T19:07:37.478Z,,0,,,NaN,,,,,,false,,,,199190.90000009537,199190.80000019073,,199190.59999990463,,199195.405,8,400,,,
break_continue,html.Screen,4_23_2,2023-09-11T19:07:37.478Z,,0,,,NaN,,,,,,false,,,,199191.30000019073,199191.19999980927,,199191.09999990463,,199195.405,8,400,,,
sequence,flow.Sequence,4_23,2023-09-11T19:07:37.478Z,,0,,,4370.983999809279,completion,,,,,false,,,,199191.40000009537,199191.19999980927,194803.615,194804.90000009537,194820.216,199195.405,8,400,,,
trial,html.Screen,4_24_0,2023-09-11T19:07:42.504Z,,0,1,,5021.694999904634,response,ISIC_4794052.JPG,9,ISIC_7047780.JPG,ISIC_4794052.JPG,false,1,keypress(m),500,204217.19999980927,204217.09999990463,199178.944,199191.5,199195.405,204221.846,8,400,25,,ISIC_7047780.JPG
break,html.Screen,4_24_1,2023-09-11T19:07:42.505Z,,0,,,NaN,,,,,,false,,,,204217.80000019073,204217.69999980927,,204217.40000009537,,204221.846,8,400,,,
break_continue,html.Screen,4_24_2,2023-09-11T19:07:42.505Z,,0,,,NaN,,,,,,false,,,,204218.09999990463,204218,,204217.90000009537,,204221.846,8,400,,,
sequence,flow.Sequence,4_24,2023-09-11T19:07:42.505Z,,0,,,5022.595000000001,completion,,,,,false,,,,204218.19999980927,204218,199178.944,199191.5,199195.405,204221.846,8,400,,,
trial,html.Screen,4_25_0,2023-09-11T19:07:46.042Z,,0,1,,3533.554000095377,response,ISIC_0028081.JPG,5,ISIC_0055314.JPG,ISIC_0055314.JPG,false,0,keypress(z),500,207755.5,207755.40000009537,204205.173,204218.30000019073,204221.846,207762.276,8,400,26,,ISIC_0028081.JPG
break,html.Screen,4_25_1,2023-09-11T19:07:46.043Z,,0,,,NaN,,,,,,false,,,,207756,207756,,207755.69999980927,,207762.276,8,400,,,
break_continue,html.Screen,4_25_2,2023-09-11T19:07:46.043Z,,0,,,NaN,,,,,,false,,,,207756.30000019073,207756.19999980927,,207756.19999980927,,207762.276,8,400,,,
sequence,flow.Sequence,4_25,2023-09-11T19:07:46.043Z,,0,,,3534.3539998092747,completion,,,,,false,,,,207756.40000009537,207756.19999980927,204205.173,204218.19999980927,204221.846,207762.276,8,400,,,
trial,html.Screen,4_26_0,2023-09-11T19:07:50.979Z,,0,1,,4929.923999809253,response,ISIC_0031935.JPG,4,ISIC_6592334.JPG,ISIC_0031935.JPG,false,1,keypress(m),500,212692.30000019073,212692.19999980927,207745.487,207756.5,207762.276,212705.004,8,400,27,,ISIC_6592334.JPG
break,html.Screen,4_26_1,2023-09-11T19:07:50.980Z,,0,,,NaN,,,,,,false,,,,212692.80000019073,212692.69999980927,,212692.40000009537,,212705.004,8,400,,,
break_continue,html.Screen,4_26_2,2023-09-11T19:07:50.980Z,,0,,,NaN,,,,,,false,,,,212693.09999990463,212693,,212692.80000019073,,212705.004,8,400,,,
sequence,flow.Sequence,4_26,2023-09-11T19:07:50.980Z,,0,,,4930.723999999987,completion,,,,,false,,,,212693.09999990463,212693,207745.487,207756.5,207762.276,212705.004,8,400,,,
trial,html.Screen,4_27_0,2023-09-11T19:07:55.497Z,,0,1,,4505.095999904646,response,ISIC_0281291.JPG,5,ISIC_4602691.JPG,ISIC_0281291.JPG,false,1,keypress(m),500,217210.30000019073,217210.09999990463,212688.42,212693.09999990463,212705.004,217213.79,8,400,28,,ISIC_4602691.JPG
break,html.Screen,4_27_1,2023-09-11T19:07:55.498Z,,0,,,NaN,,,,,,false,,,,217210.80000019073,217210.59999990463,,217210.30000019073,,217213.79,8,400,,,
break_continue,html.Screen,4_27_2,2023-09-11T19:07:55.498Z,,0,,,NaN,,,,,,false,,,,217210.90000009537,217210.90000009537,,217210.80000019073,,217213.79,8,400,,,
sequence,flow.Sequence,4_27,2023-09-11T19:07:55.498Z,,0,,,4505.896000095381,completion,,,,,false,,,,217211,217210.90000009537,212688.42,212693.09999990463,212705.004,217213.79,8,400,,,
trial,html.Screen,4_28_0,2023-09-11T19:07:59.836Z,,0,1,,4333.909999809257,response,ISIC_0013777.JPG,6,ISIC_0071892.JPG,ISIC_0013777.JPG,false,1,keypress(m),500,221547.90000009537,221547.69999980927,217197.206,217211.09999990463,217213.79,221555.655,8,400,29,,ISIC_0071892.JPG
break,html.Screen,4_28_1,2023-09-11T19:07:59.836Z,,0,,,NaN,,,,,,false,,,,221548.30000019073,221548.19999980927,,221547.90000009537,,221555.655,8,400,,,
break_continue,html.Screen,4_28_2,2023-09-11T19:07:59.836Z,,0,,,NaN,,,,,,false,,,,221548.5,221548.40000009537,,221548.40000009537,,221555.655,8,400,,,
sequence,flow.Sequence,4_28,2023-09-11T19:07:59.837Z,,0,,,4334.610000095359,completion,,,,,false,,,,221548.59999990463,221548.40000009537,217197.206,217211.09999990463,217213.79,221555.655,8,400,,,
trial,html.Screen,4_29_0,2023-09-11T19:08:04.782Z,,0,1,,4938.245000095369,response,ISIC_0027067.JPG,5,ISIC_7162343.JPG,ISIC_7162343.JPG,false,0,keypress(z),500,226494.09999990463,226493.90000009537,221538.968,221548.59999990463,221555.655,226498.532,8,400,30,,ISIC_0027067.JPG
break,html.Screen,4_29_1,2023-09-11T19:08:04.783Z,,0,,,NaN,,,,,,false,,,,226494.80000019073,226494.5,,226494.19999980927,,226498.532,8,400,,,
break_continue,html.Screen,4_29_2,2023-09-11T19:08:04.783Z,,0,,,NaN,,,,,,false,,,,226494.90000009537,226494.80000019073,,226494.80000019073,,226498.532,8,400,,,
sequence,flow.Sequence,4_29,2023-09-11T19:08:04.783Z,,0,,,4939.145000190736,completion,,,,,false,,,,226495.09999990463,226494.80000019073,221538.968,221548.59999990463,221555.655,226498.532,8,400,,,
trial,html.Screen,4_30_0,2023-09-11T19:08:10.257Z,,0,1,,5469.9679999999935,response,ISIC_2839431.JPG,6,ISIC_3696488.JPG,ISIC_2839431.JPG,false,1,keypress(m),500,231968.59999990463,231968.5,226481.919,226495.19999980927,226498.532,231975.936,8,400,31,,ISIC_3696488.JPG
break,html.Screen,4_30_1,2023-09-11T19:08:10.257Z,,0,,,NaN,,,,,,false,,,,231969.30000019073,231969.09999990463,,231968.90000009537,,231975.936,8,400,,,
break_continue,html.Screen,4_30_2,2023-09-11T19:08:10.258Z,,0,,,NaN,,,,,,false,,,,231969.69999980927,231969.5,,231969.40000009537,,231975.936,8,400,,,
sequence,flow.Sequence,4_30,2023-09-11T19:08:10.258Z,,0,,,5470.9679999999935,completion,,,,,false,,,,231969.80000019073,231969.5,226481.919,226495.09999990463,226498.532,231975.936,8,400,,,
trial,html.Screen,4_31_0,2023-09-11T19:08:15.899Z,,0,1,,5635.263999809278,response,ISIC_4419686.JPG,4,ISIC_8626787.JPG,ISIC_8626787.JPG,false,0,keypress(z),500,237611.5,237611.19999980927,231959.233,231969.80000019073,231975.936,237636.946,8,400,32,,ISIC_4419686.JPG
break,html.Screen,4_31_1,2023-09-11T19:08:15.900Z,,0,,,NaN,,,,,,false,,,,237612.19999980927,237611.90000009537,,237611.59999990463,,237636.946,8,400,,,
break_continue,html.Screen,4_31_2,2023-09-11T19:08:15.900Z,,0,,,NaN,,,,,,false,,,,237612.40000009537,237612.40000009537,,237612.19999980927,,237636.946,8,400,,,
sequence,flow.Sequence,4_31,2023-09-11T19:08:15.901Z,,0,,,5636.4640000953805,completion,,,,,false,,,,237612.59999990463,237612.40000009537,231959.233,231969.80000019073,231975.936,237636.946,8,400,,,
trial,html.Screen,4_32_0,2023-09-11T19:08:21.646Z,,0,1,,5721.153999904636,response,ISIC_0029007.JPG,5,ISIC_0029531.JPG,ISIC_0029007.JPG,false,1,keypress(m),500,243358.19999980927,243358.09999990463,237620.162,237612.80000019073,237636.946,243381.492,8,400,33,,ISIC_0029531.JPG
break,html.Screen,4_32_1,2023-09-11T19:08:21.647Z,,0,,,NaN,,,,,,false,,,,243358.90000009537,243358.69999980927,,243358.40000009537,,243381.492,8,400,,,
break_continue,html.Screen,4_32_2,2023-09-11T19:08:21.647Z,,0,,,NaN,,,,,,false,,,,243359.19999980927,243359.09999990463,,243358.90000009537,,243381.492,8,400,,,
sequence,flow.Sequence,4_32,2023-09-11T19:08:21.647Z,,0,,,5722.153999904636,completion,,,,,false,,,,243359.30000019073,243359.09999990463,237620.162,237612.69999980927,237636.946,243381.492,8,400,,,
trial,html.Screen,4_33_0,2023-09-11T19:08:29.365Z,,0,1,,7694.908000095369,response,ISIC_0066492.JPG,5,ISIC_4418545.JPG,ISIC_0066492.JPG,false,1,keypress(m),500,251076.59999990463,251076.40000009537,243364.798,243359.40000009537,243381.492,251079.718,8,400,34,,ISIC_4418545.JPG
break,html.Screen,4_33_1,2023-09-11T19:08:29.365Z,,0,,,NaN,,,,,,false,,,,251077,251076.90000009537,,251076.69999980927,,251079.718,8,400,,,
break_continue,html.Screen,4_33_2,2023-09-11T19:08:29.365Z,,0,,,NaN,,,,,,false,,,,251077.09999990463,251077.09999990463,,251077,,251079.718,8,400,,,
sequence,flow.Sequence,4_33,2023-09-11T19:08:29.365Z,,0,,,7695.607999904634,completion,,,,,false,,,,251077.30000019073,251077.09999990463,243364.798,243359.40000009537,243381.492,251079.718,8,400,,,
trial,html.Screen,4_34_0,2023-09-11T19:08:36.022Z,,0,1,,6654.682000095374,response,ISIC_7365615.JPG,4,ISIC_7984569.JPG,ISIC_7984569.JPG,false,0,keypress(z),500,257734.5,257734.40000009537,251063.196,251077.30000019073,251079.718,257742.662,8,400,35,,ISIC_7365615.JPG
break,html.Screen,4_34_1,2023-09-11T19:08:36.023Z,,0,,,NaN,,,,,,false,,,,257734.90000009537,257734.90000009537,,257734.69999980927,,257742.662,8,400,,,
break_continue,html.Screen,4_34_2,2023-09-11T19:08:36.023Z,,0,,,NaN,,,,,,false,,,,257735.09999990463,257735,,257734.90000009537,,257742.662,8,400,,,
sequence,flow.Sequence,4_34,2023-09-11T19:08:36.023Z,,0,,,6655.2820000000065,completion,,,,,false,,,,257735.09999990463,257735,251063.196,251077.30000019073,251079.718,257742.662,8,400,,,
trial,html.Screen,4_35_0,2023-09-11T19:08:40.713Z,,0,1,,4681.537999809254,response,ISIC_0033901.JPG,5,ISIC_3994250.JPG,ISIC_3994250.JPG,false,0,keypress(z),500,262424.59999990463,262424.19999980927,257726.025,257735.19999980927,257742.662,262435.181,8,400,36,,ISIC_0033901.JPG
break,html.Screen,4_35_1,2023-09-11T19:08:40.715Z,,0,,,NaN,,,,,,false,,,,262426.69999980927,262425.69999980927,,262425,,262435.181,8,400,,,
break_continue,html.Screen,4_35_2,2023-09-11T19:08:40.716Z,,0,,,NaN,,,,,,false,,,,262427.59999990463,262427.40000009537,,262427.09999990463,,262435.181,8,400,,,
sequence,flow.Sequence,4_35,2023-09-11T19:08:40.716Z,,0,,,4684.738000095356,completion,,,,,false,,,,262428,262427.40000009537,257726.025,257735.19999980927,257742.662,262435.181,8,400,,,
trial,html.Screen,4_36_0,2023-09-11T19:08:47.454Z,,0,1,,6731.018999809283,response,ISIC_0170101.JPG,6,ISIC_0028215.JPG,ISIC_0170101.JPG,false,1,keypress(m),500,269166.40000009537,269166.19999980927,262418.649,262428.19999980927,262435.181,269181.584,8,400,37,,ISIC_0028215.JPG
break,html.Screen,4_36_1,2023-09-11T19:08:47.455Z,,0,,,NaN,,,,,,false,,,,269167.30000019073,269167.09999990463,,269166.69999980927,,269181.584,8,400,,,
break_continue,html.Screen,4_36_2,2023-09-11T19:08:47.456Z,,0,,,NaN,,,,,,false,,,,269167.59999990463,269167.5,,269167.40000009537,,269181.584,8,400,,,
sequence,flow.Sequence,4_36,2023-09-11T19:08:47.456Z,,0,,,6732.319000000018,completion,,,,,false,,,,269167.80000019073,269167.5,262418.649,262428.09999990463,262435.181,269181.584,8,400,,,
trial,html.Screen,4_37_0,2023-09-11T19:08:52.035Z,,0,1,,4565.115999809292,response,ISIC_5885403.JPG,6,ISIC_1453671.JPG,ISIC_1453671.JPG,false,0,keypress(z),500,273747,273746.69999980927,269165.132,269167.90000009537,269181.584,273757.258,8,400,38,,ISIC_5885403.JPG
break,html.Screen,4_37_1,2023-09-11T19:08:52.035Z,,0,,,NaN,,,,,,false,,,,273747.5,273747.40000009537,,273747.09999990463,,273757.258,8,400,,,
break_continue,html.Screen,4_37_2,2023-09-11T19:08:52.036Z,,0,,,NaN,,,,,,false,,,,273747.80000019073,273747.69999980927,,273747.59999990463,,273757.258,8,400,,,
sequence,flow.Sequence,4_37,2023-09-11T19:08:52.036Z,,0,,,4566.115999809292,completion,,,,,false,,,,273747.90000009537,273747.69999980927,269165.132,269167.90000009537,269181.584,273757.258,8,400,,,
trial,html.Screen,4_38_0,2023-09-11T19:08:57.142Z,,0,1,,5096.642000095395,response,ISIC_6691962.JPG,5,ISIC_0064014.JPG,ISIC_6691962.JPG,false,1,keypress(m),500,278854.09999990463,278853.90000009537,273740.627,273748,273757.258,278867.119,8,400,39,,ISIC_0064014.JPG
break,html.Screen,4_38_1,2023-09-11T19:08:57.142Z,,0,,,NaN,,,,,,false,,,,278854.5,278854.40000009537,,278854.09999990463,,278867.119,8,400,,,
break_continue,html.Screen,4_38_2,2023-09-11T19:08:57.143Z,,0,,,NaN,,,,,,false,,,,278854.69999980927,278854.59999990463,,278854.5,,278867.119,8,400,,,
sequence,flow.Sequence,4_38,2023-09-11T19:08:57.143Z,,0,,,5097.34199990466,completion,,,,,false,,,,278854.80000019073,278854.59999990463,273740.627,273747.90000009537,273757.258,278867.119,8,400,,,
trial,html.Screen,4_39_0,2023-09-11T19:09:01.194Z,,0,1,,4037.681000190729,response,ISIC_0032604.JPG,4,ISIC_0032187.JPG,ISIC_0032187.JPG,false,0,keypress(z),500,282905,282904.80000019073,278850.746,278854.80000019073,278867.119,282908.308,8,400,40,,ISIC_0032604.JPG
break,html.Screen,4_39_1,2023-09-11T19:09:01.195Z,,0,,,NaN,,,,,,false,,,,282905.59999990463,282905.40000009537,,282905.09999990463,,282908.308,8,400,,,
break_continue,html.Screen,4_39_2,2023-09-11T19:09:01.195Z,,0,,,NaN,,,,,,false,,,,282905.80000019073,282905.80000019073,,282905.59999990463,,282908.308,8,400,,,
sequence,flow.Sequence,4_39,2023-09-11T19:09:01.195Z,,0,,,4038.681000190729,completion,,,,,false,,,,282905.90000009537,282905.80000019073,278850.746,278854.80000019073,278867.119,282908.308,8,400,,,
trial,html.Screen,4_40_0,2023-09-11T19:09:08.924Z,,0,1,,7726.992000190716,response,ISIC_0028641.JPG,6,ISIC_2015441.JPG,ISIC_2015441.JPG,false,0,keypress(z),500,290635.40000009537,290635.30000019073,282891.731,282906,282908.308,290640.145,8,400,41,,ISIC_0028641.JPG
break,html.Screen,4_40_1,2023-09-11T19:09:08.925Z,,0,,,NaN,,,,,,false,,,,290636.09999990463,290635.80000019073,,290635.5,,290640.145,8,400,,,
break_continue,html.Screen,4_40_2,2023-09-11T19:09:08.925Z,,0,,,NaN,,,,,,false,,,,290636.40000009537,290636.40000009537,,290636.19999980927,,290640.145,8,400,,,
sequence,flow.Sequence,4_40,2023-09-11T19:09:08.926Z,,0,,,7728.092000095348,completion,,,,,false,,,,290636.5,290636.40000009537,282891.731,282906,282908.308,290640.145,8,400,,,
trial,html.Screen,4_41_0,2023-09-11T19:09:14.944Z,,0,1,,6014.255000095349,response,ISIC_0067653.JPG,5,ISIC_5614300.JPG,ISIC_5614300.JPG,false,0,keypress(z),500,296654.59999990463,296654.40000009537,290623.487,290636.5,290640.145,296668.505,8,400,42,,ISIC_0067653.JPG
break,html.Screen,4_41_1,2023-09-11T19:09:14.944Z,,0,,,NaN,,,,,,false,,,,296655,296654.90000009537,,296654.69999980927,,296668.505,8,400,,,
break_continue,html.Screen,4_41_2,2023-09-11T19:09:14.944Z,,0,,,NaN,,,,,,false,,,,296655.19999980927,296655.09999990463,,296655,,296668.505,8,400,,,
sequence,flow.Sequence,4_41,2023-09-11T19:09:14.944Z,,0,,,6014.954999904614,completion,,,,,false,,,,296655.30000019073,296655.09999990463,290623.487,290636.5,290640.145,296668.505,8,400,,,
trial,html.Screen,4_42_0,2023-09-11T19:09:20.850Z,,0,1,,5892.094999904628,response,ISIC_0005264.JPG,4,ISIC_8502869.JPG,ISIC_0005264.JPG,false,1,keypress(m),500,302560.69999980927,302560.59999990463,296651.84,296655.40000009537,296668.505,302563.236,8,400,43,,ISIC_8502869.JPG
break,html.Screen,4_42_1,2023-09-11T19:09:20.850Z,,0,,,NaN,,,,,,false,,,,302561.30000019073,302561.19999980927,,302560.80000019073,,302563.236,8,400,,,
break_continue,html.Screen,4_42_2,2023-09-11T19:09:20.851Z,,0,,,NaN,,,,,,false,,,,302561.5,302561.40000009537,,302561.40000009537,,302563.236,8,400,,,
sequence,flow.Sequence,4_42,2023-09-11T19:09:20.851Z,,0,,,5892.895000095363,completion,,,,,false,,,,302561.59999990463,302561.40000009537,296651.84,296655.40000009537,296668.505,302563.236,8,400,,,
trial,html.Screen,4_43_0,2023-09-11T19:09:24.068Z,,0,1,,3215.7640000000247,response,ISIC_0057218.JPG,4,ISIC_0065066.JPG,ISIC_0065066.JPG,false,0,keypress(z),500,305779.30000019073,305779,302546.607,302561.59999990463,302563.236,305786.194,8,400,44,,ISIC_0057218.JPG
break,html.Screen,4_43_1,2023-09-11T19:09:24.070Z,,0,,,NaN,,,,,,false,,,,305780.5,305780.19999980927,,305779.5,,305786.194,8,400,,,
break_continue,html.Screen,4_43_2,2023-09-11T19:09:24.070Z,,0,,,NaN,,,,,,false,,,,305781.5,305781.19999980927,,305780.90000009537,,305786.194,8,400,,,
sequence,flow.Sequence,4_43,2023-09-11T19:09:24.071Z,,0,,,3217.96399980929,completion,,,,,false,,,,305781.80000019073,305781.19999980927,302546.607,302561.59999990463,302563.236,305786.194,8,400,,,
trial,html.Screen,4_44_0,2023-09-11T19:09:28.157Z,,0,1,,4081.3059999999823,response,ISIC_0070285.JPG,6,ISIC_0026371.JPG,ISIC_0026371.JPG,false,0,keypress(z),500,309867.69999980927,309867.5,305769.566,305782.09999990463,305786.194,309877.636,8,400,45,,ISIC_0070285.JPG
break,html.Screen,4_44_1,2023-09-11T19:09:28.157Z,,0,,,NaN,,,,,,false,,,,309868.09999990463,309868,,309867.80000019073,,309877.636,8,400,,,
break_continue,html.Screen,4_44_2,2023-09-11T19:09:28.157Z,,0,,,NaN,,,,,,false,,,,309868.30000019073,309868.19999980927,,309868.09999990463,,309877.636,8,400,,,
sequence,flow.Sequence,4_44,2023-09-11T19:09:28.157Z,,0,,,4082.0059998092474,completion,,,,,false,,,,309868.30000019073,309868.19999980927,305769.566,305782,305786.194,309877.636,8,400,,,
trial,html.Screen,4_45_0,2023-09-11T19:09:31.551Z,,0,1,,3383.8640000000014,response,ISIC_0070588.JPG,4,ISIC_3601224.JPG,ISIC_3601224.JPG,false,0,keypress(z),500,313261.59999990463,313261.5,309860.864,309868.40000009537,309877.636,313267.415,8,400,46,,ISIC_0070588.JPG
break,html.Screen,4_45_1,2023-09-11T19:09:31.551Z,,0,,,NaN,,,,,,false,,,,313262.09999990463,313262,,313261.69999980927,,313267.415,8,400,,,
break_continue,html.Screen,4_45_2,2023-09-11T19:09:31.552Z,,0,,,NaN,,,,,,false,,,,313262.5,313262.40000009537,,313262.30000019073,,313267.415,8,400,,,
sequence,flow.Sequence,4_45,2023-09-11T19:09:31.552Z,,0,,,3384.764000095369,completion,,,,,false,,,,313262.59999990463,313262.40000009537,309860.864,309868.30000019073,309877.636,313267.415,8,400,,,
trial,html.Screen,4_46_0,2023-09-11T19:09:35.844Z,,0,1,,4287.284999809286,response,ISIC_0014327.JPG,5,ISIC_0069952.JPG,ISIC_0069952.JPG,false,0,keypress(z),500,317554.69999980927,317554.69999980927,313250.688,313262.59999990463,313267.415,317559.116,8,400,47,,ISIC_0014327.JPG
break,html.Screen,4_46_1,2023-09-11T19:09:35.844Z,,0,,,NaN,,,,,,false,,,,317555.19999980927,317555.09999990463,,317554.90000009537,,317559.116,8,400,,,
break_continue,html.Screen,4_46_2,2023-09-11T19:09:35.844Z,,0,,,NaN,,,,,,false,,,,317555.40000009537,317555.40000009537,,317555.30000019073,,317559.116,8,400,,,
sequence,flow.Sequence,4_46,2023-09-11T19:09:35.845Z,,0,,,4287.985000095388,completion,,,,,false,,,,317555.5,317555.40000009537,313250.688,313262.59999990463,313267.415,317559.116,8,400,,,
trial,html.Screen,4_47_0,2023-09-11T19:09:40.534Z,,0,1,,4685.7840000953875,response,ISIC_0032982.JPG,6,ISIC_0032917.JPG,ISIC_0032982.JPG,false,1,keypress(m),500,322245,322244.90000009537,317542.45,317555.5,317559.116,322251.52,8,400,48,,ISIC_0032917.JPG
break,html.Screen,4_47_1,2023-09-11T19:09:40.535Z,,0,,,NaN,,,,,,false,,,,322245.5,322245.30000019073,,322245.09999990463,,322251.52,8,400,,,
break_continue,html.Screen,4_47_2,2023-09-11T19:09:40.535Z,,0,,,NaN,,,,,,false,,,,322245.80000019073,322245.59999990463,,322245.59999990463,,322251.52,8,400,,,
sequence,flow.Sequence,4_47,2023-09-11T19:09:40.535Z,,0,,,4686.483999904653,completion,,,,,false,,,,322245.90000009537,322245.59999990463,317542.45,317555.5,317559.116,322251.52,8,400,,,
trial,html.Screen,4_48_0,2023-09-11T19:09:48.187Z,,0,1,,7645.979999999981,response,ISIC_2854610.JPG,6,ISIC_4734950.JPG,ISIC_2854610.JPG,false,1,keypress(m),500,329897.80000019073,329897.5,322234.949,322246,322251.52,329899.808,8,400,49,,ISIC_4734950.JPG
break,html.Screen,4_48_1,2023-09-11T19:09:48.188Z,,0,,,NaN,,,,,,false,,,,329898.69999980927,329898.40000009537,,329898,,329899.808,8,400,,,
break_continue,html.Screen,4_48_2,2023-09-11T19:09:48.188Z,,0,,,NaN,,,,,,false,,,,329899.19999980927,329899.09999990463,,329898.90000009537,,329899.808,8,400,,,
sequence,flow.Sequence,4_48,2023-09-11T19:09:48.188Z,,0,,,7647.579999904614,completion,,,,,false,,,,329899.40000009537,329899.09999990463,322234.949,322246,322251.52,329899.808,8,400,,,
trial,html.Screen,4_49_0,2023-09-11T19:09:52.751Z,,0,1,,4561.592000095348,response,ISIC_0011830.JPG,5,ISIC_4591316.JPG,ISIC_4591316.JPG,false,0,keypress(z),500,334461.5,334461.40000009537,329883.25,329899.5,329899.808,334475.542,8,400,50,,ISIC_0011830.JPG
break,html.Screen,4_49_1,2023-09-11T19:10:02.752Z,,0,,,10002.88500000001,timeout,,,,,false,,,,344462,344461.533,334458.724,334461.69999980927,334475.542,344478.427,8,400,,,
break_continue,html.Screen,4_49_2,2023-09-11T19:10:06.312Z,,0,,,3533.9730000953423,response,,,,,false,continue,keypress(Space),,348021.69999980927,348012.40000009537,344461.533,344462.09999990463,344478.427,348035.13,8,400,,,
sequence,flow.Sequence,4_49,2023-09-11T19:10:06.312Z,,0,,,18112.59200009535,completion,,,,,false,,,,348021.80000019073,348012.40000009537,329883.25,329899.5,329899.808,348035.13,8,400,,,
trial,html.Screen,4_50_0,2023-09-11T19:10:09.257Z,,0,2,,2931.67000019073,response,ISIC_4226975.JPG,4,ISIC_7984080.JPG,ISIC_4226975.JPG,false,1,keypress(m),500,350967,350966.80000019073,348018.366,348021.90000009537,348035.13,350974.077,8,400,1,,ISIC_7984080.JPG
break,html.Screen,4_50_1,2023-09-11T19:10:09.258Z,,0,,,NaN,,,,,,false,,,,350967.5,350967.30000019073,,350967.09999990463,,350974.077,8,400,,,
break_continue,html.Screen,4_50_2,2023-09-11T19:10:09.258Z,,0,,,NaN,,,,,,false,,,,350967.80000019073,350967.80000019073,,350967.59999990463,,350974.077,8,400,,,
sequence,flow.Sequence,4_50,2023-09-11T19:10:09.258Z,,0,,,2932.67000019073,completion,,,,,false,,,,350967.90000009537,350967.80000019073,348018.366,348021.90000009537,348035.13,350974.077,8,400,,,
trial,html.Screen,4_51_0,2023-09-11T19:10:13.291Z,,0,2,,4027.0229999046423,response,ISIC_4782878.JPG,5,ISIC_5795486.JPG,ISIC_5795486.JPG,false,0,keypress(z),500,355001.19999980927,355001.09999990463,350957.482,350968,350974.077,355015.295,8,400,2,,ISIC_4782878.JPG
break,html.Screen,4_51_1,2023-09-11T19:10:13.292Z,,0,,,NaN,,,,,,false,,,,355001.69999980927,355001.59999990463,,355001.40000009537,,355015.295,8,400,,,
break_continue,html.Screen,4_51_2,2023-09-11T19:10:13.292Z,,0,,,NaN,,,,,,false,,,,355001.90000009537,355001.90000009537,,355001.80000019073,,355015.295,8,400,,,
sequence,flow.Sequence,4_51,2023-09-11T19:10:13.292Z,,0,,,4027.823000095377,completion,,,,,false,,,,355002,355001.90000009537,350957.482,350968,350974.077,355015.295,8,400,,,
trial,html.Screen,4_52_0,2023-09-11T19:10:17.582Z,,0,2,,4276.304999904649,response,ISIC_1370142.JPG,5,ISIC_8030914.JPG,ISIC_8030914.JPG,false,0,keypress(z),500,359291.80000019073,359291.59999990463,354998.733,355002.09999990463,355015.295,359306.99,8,400,3,,ISIC_1370142.JPG
break,html.Screen,4_52_1,2023-09-11T19:10:17.583Z,,0,,,NaN,,,,,,false,,,,359292.5,359292.30000019073,,359292,,359306.99,8,400,,,
break_continue,html.Screen,4_52_2,2023-09-11T19:10:17.583Z,,0,,,NaN,,,,,,false,,,,359292.80000019073,359292.69999980927,,359292.59999990463,,359306.99,8,400,,,
sequence,flow.Sequence,4_52,2023-09-11T19:10:17.583Z,,0,,,4277.404999809281,completion,,,,,false,,,,359293,359292.69999980927,354998.733,355002.09999990463,355015.295,359306.99,8,400,,,
trial,html.Screen,4_53_0,2023-09-11T19:10:21.874Z,,0,2,,4276.810000190744,response,ISIC_0011984.JPG,4,ISIC_1590725.JPG,ISIC_1590725.JPG,false,0,keypress(z),500,363584.09999990463,363583.80000019073,359290.38,359293.09999990463,359306.99,363598.743,8,400,4,,ISIC_0011984.JPG
break,html.Screen,4_53_1,2023-09-11T19:10:21.876Z,,0,,,NaN,,,,,,false,,,,363585.80000019073,363585.09999990463,,363584.5,,363598.743,8,400,,,
break_continue,html.Screen,4_53_2,2023-09-11T19:10:21.877Z,,0,,,NaN,,,,,,false,,,,363586.69999980927,363586.30000019073,,363586.09999990463,,363598.743,8,400,,,
sequence,flow.Sequence,4_53,2023-09-11T19:10:21.877Z,,0,,,4279.310000190744,completion,,,,,false,,,,363587.09999990463,363586.30000019073,359290.38,359293.09999990463,359306.99,363598.743,8,400,,,
trial,html.Screen,4_54_0,2023-09-11T19:10:26.600Z,,0,2,,4710.657000095351,response,ISIC_0046323.JPG,5,ISIC_0026812.JPG,ISIC_0026812.JPG,false,0,keypress(z),500,368309.69999980927,368309.40000009537,363581.95,363587.40000009537,363598.743,368324.643,8,400,5,,ISIC_0046323.JPG
break,html.Screen,4_54_1,2023-09-11T19:10:26.601Z,,0,,,NaN,,,,,,false,,,,368310.5,368310.30000019073,,368309.90000009537,,368324.643,8,400,,,
break_continue,html.Screen,4_54_2,2023-09-11T19:10:26.601Z,,0,,,NaN,,,,,,false,,,,368310.80000019073,368310.59999990463,,368310.59999990463,,368324.643,8,400,,,
sequence,flow.Sequence,4_54,2023-09-11T19:10:26.601Z,,0,,,4711.856999904616,completion,,,,,false,,,,368310.80000019073,368310.59999990463,363581.95,363587.30000019073,363598.743,368324.643,8,400,,,
trial,html.Screen,4_55_0,2023-09-11T19:10:31.707Z,,0,2,,5091.657000190753,response,ISIC_7413149.JPG,6,ISIC_0281179.JPG,ISIC_7413149.JPG,false,1,keypress(m),500,373416.5,373416.30000019073,368307.937,368310.90000009537,368324.643,373417.789,8,400,6,,ISIC_0281179.JPG
break,html.Screen,4_55_1,2023-09-11T19:10:31.707Z,,0,,,NaN,,,,,,false,,,,373417,373416.80000019073,,373416.69999980927,,373417.789,8,400,,,
break_continue,html.Screen,4_55_2,2023-09-11T19:10:31.707Z,,0,,,NaN,,,,,,false,,,,373417.19999980927,373417.19999980927,,373417.09999990463,,373417.789,8,400,,,
sequence,flow.Sequence,4_55,2023-09-11T19:10:31.708Z,,0,,,5092.556999809283,completion,,,,,false,,,,373417.40000009537,373417.19999980927,368307.937,368310.90000009537,368324.643,373417.789,8,400,,,
trial,html.Screen,4_56_0,2023-09-11T19:10:36.173Z,,0,2,,4464.611000095378,response,ISIC_7172145.JPG,5,ISIC_0000413.JPG,ISIC_0000413.JPG,false,0,keypress(z),500,377882.59999990463,377882.40000009537,373401.243,373417.40000009537,373417.789,377893.158,8,400,7,,ISIC_7172145.JPG
break,html.Screen,4_56_1,2023-09-11T19:10:36.173Z,,0,,,NaN,,,,,,false,,,,377883.19999980927,377883,,377882.59999990463,,377893.158,8,400,,,
break_continue,html.Screen,4_56_2,2023-09-11T19:10:36.174Z,,0,,,NaN,,,,,,false,,,,377883.69999980927,377883.5,,377883.30000019073,,377893.158,8,400,,,
sequence,flow.Sequence,4_56,2023-09-11T19:10:36.174Z,,0,,,4465.71100000001,completion,,,,,false,,,,377883.80000019073,377883.5,373401.243,373417.40000009537,373417.789,377893.158,8,400,,,
trial,html.Screen,4_57_0,2023-09-11T19:10:42.591Z,,0,2,,6407.541999809269,response,ISIC_6710411.JPG,5,ISIC_0347984.JPG,ISIC_6710411.JPG,false,1,keypress(m),500,384301,384300.69999980927,377876.552,377883.90000009537,377893.158,384305.631,8,400,8,,ISIC_0347984.JPG
break,html.Screen,4_57_1,2023-09-11T19:10:42.593Z,,0,,,NaN,,,,,,false,,,,384302.30000019073,384301.90000009537,,384301.40000009537,,384305.631,8,400,,,
break_continue,html.Screen,4_57_2,2023-09-11T19:10:42.593Z,,0,,,NaN,,,,,,false,,,,384303.09999990463,384302.90000009537,,384302.40000009537,,384305.631,8,400,,,
sequence,flow.Sequence,4_57,2023-09-11T19:10:42.594Z,,0,,,6409.742000095372,completion,,,,,false,,,,384303.40000009537,384302.90000009537,377876.552,377883.80000019073,377893.158,384305.631,8,400,,,
trial,html.Screen,4_58_0,2023-09-11T19:10:48.532Z,,0,2,,5935.7690000953735,response,ISIC_0072642.JPG,6,ISIC_0029050.JPG,ISIC_0029050.JPG,false,0,keypress(z),500,390241.5,390241.40000009537,384289.126,384303.5,384305.631,390250.651,8,400,9,,ISIC_0072642.JPG
break,html.Screen,4_58_1,2023-09-11T19:10:48.532Z,,0,,,NaN,,,,,,false,,,,390242.09999990463,390241.90000009537,,390241.59999990463,,390250.651,8,400,,,
break_continue,html.Screen,4_58_2,2023-09-11T19:10:48.533Z,,0,,,NaN,,,,,,false,,,,390242.40000009537,390242.40000009537,,390242.19999980927,,390250.651,8,400,,,
sequence,flow.Sequence,4_58,2023-09-11T19:10:48.533Z,,0,,,5936.7690000953735,completion,,,,,false,,,,390242.5,390242.40000009537,384289.126,384303.5,384305.631,390250.651,8,400,,,
trial,html.Screen,4_59_0,2023-09-11T19:10:54.376Z,,0,2,,5834.749000095355,response,ISIC_0033325.JPG,5,ISIC_0000163.JPG,ISIC_0033325.JPG,false,1,keypress(m),500,396085.5,396085.40000009537,390233.94,390242.5,390250.651,396095.283,8,400,10,,ISIC_0000163.JPG
break,html.Screen,4_59_1,2023-09-11T19:10:54.376Z,,0,,,NaN,,,,,,false,,,,396086.09999990463,396085.90000009537,,396085.69999980927,,396095.283,8,400,,,
break_continue,html.Screen,4_59_2,2023-09-11T19:10:54.377Z,,0,,,NaN,,,,,,false,,,,396086.40000009537,396086.19999980927,,396086.19999980927,,396095.283,8,400,,,
sequence,flow.Sequence,4_59,2023-09-11T19:10:54.377Z,,0,,,5835.548999809253,completion,,,,,false,,,,396086.5,396086.19999980927,390233.94,390242.5,390250.651,396095.283,8,400,,,
trial,html.Screen,4_60_0,2023-09-11T19:11:00.218Z,,0,2,,5832.517000190739,response,ISIC_1377409.JPG,5,ISIC_4882389.JPG,ISIC_4882389.JPG,false,0,keypress(z),500,401928,401927.80000019073,396078.746,396086.5,396095.283,401940.022,8,400,11,,ISIC_1377409.JPG
break,html.Screen,4_60_1,2023-09-11T19:11:00.219Z,,0,,,NaN,,,,,,false,,,,401928.30000019073,401928.30000019073,,401928,,401940.022,8,400,,,
break_continue,html.Screen,4_60_2,2023-09-11T19:11:00.219Z,,0,,,NaN,,,,,,false,,,,401928.59999990463,401928.5,,401928.5,,401940.022,8,400,,,
sequence,flow.Sequence,4_60,2023-09-11T19:11:00.219Z,,0,,,5833.217000000004,completion,,,,,false,,,,401928.80000019073,401928.5,396078.746,396086.5,396095.283,401940.022,8,400,,,
trial,html.Screen,4_61_0,2023-09-11T19:11:05.982Z,,0,2,,5749.978000000003,response,ISIC_2847555.JPG,7,ISIC_0000024.JPG,ISIC_2847555.JPG,false,1,keypress(m),500,407690.19999980927,407690,401923.355,401928.80000019073,401940.022,407701.163,8,400,12,,ISIC_0000024.JPG
break,html.Screen,4_61_1,2023-09-11T19:11:05.982Z,,0,,,NaN,,,,,,false,,,,407690.90000009537,407690.69999980927,,407690.40000009537,,407701.163,8,400,,,
break_continue,html.Screen,4_61_2,2023-09-11T19:11:05.983Z,,0,,,NaN,,,,,,false,,,,407691.19999980927,407691.19999980927,,407691,,407701.163,8,400,,,
sequence,flow.Sequence,4_61,2023-09-11T19:11:05.983Z,,0,,,5751.177999809268,completion,,,,,false,,,,407691.40000009537,407691.19999980927,401923.355,401928.80000019073,401940.022,407701.163,8,400,,,
trial,html.Screen,4_62_0,2023-09-11T19:11:09.735Z,,0,2,,3742.6370001907344,response,ISIC_8197240.JPG,5,ISIC_4533833.JPG,ISIC_4533833.JPG,false,0,keypress(z),500,411443.90000009537,411443.80000019073,407684.583,407691.40000009537,407701.163,411458.624,8,400,13,,ISIC_8197240.JPG
break,html.Screen,4_62_1,2023-09-11T19:11:09.736Z,,0,,,NaN,,,,,,false,,,,411444.80000019073,411444.40000009537,,411444.09999990463,,411458.624,8,400,,,
break_continue,html.Screen,4_62_2,2023-09-11T19:11:09.737Z,,0,,,NaN,,,,,,false,,,,411445.09999990463,411445.09999990463,,411444.90000009537,,411458.624,8,400,,,
sequence,flow.Sequence,4_62,2023-09-11T19:11:09.737Z,,0,,,3743.936999904632,completion,,,,,false,,,,411445.30000019073,411445.09999990463,407684.583,407691.40000009537,407701.163,411458.624,8,400,,,
trial,html.Screen,4_63_0,2023-09-11T19:11:14.475Z,,0,2,,4724.875999999989,response,ISIC_0027674.JPG,5,ISIC_4079108.JPG,ISIC_4079108.JPG,false,0,keypress(z),500,416183.80000019073,416183.5,411441.972,411445.30000019073,411458.624,416201.028,8,400,14,,ISIC_0027674.JPG
break,html.Screen,4_63_1,2023-09-11T19:11:14.477Z,,0,,,NaN,,,,,,false,,,,416185.59999990463,416185.30000019073,,416184.30000019073,,416201.028,8,400,,,
break_continue,html.Screen,4_63_2,2023-09-11T19:11:14.478Z,,0,,,NaN,,,,,,false,,,,416186.09999990463,416186,,416185.80000019073,,416201.028,8,400,,,
sequence,flow.Sequence,4_63,2023-09-11T19:11:14.478Z,,0,,,4727.375999999989,completion,,,,,false,,,,416186.19999980927,416186,411441.972,411445.30000019073,411458.624,416201.028,8,400,,,
trial,html.Screen,4_64_0,2023-09-11T19:11:20.080Z,,0,2,,5586.772000190744,response,ISIC_0199116.JPG,5,ISIC_0063692.JPG,ISIC_0199116.JPG,false,1,keypress(m),500,421788.09999990463,421787.80000019073,416184.461,416186.40000009537,416201.028,421795.281,8,400,15,,ISIC_0063692.JPG
break,html.Screen,4_64_1,2023-09-11T19:11:20.080Z,,0,,,NaN,,,,,,false,,,,421788.80000019073,421788.59999990463,,421788.19999980927,,421795.281,8,400,,,
break_continue,html.Screen,4_64_2,2023-09-11T19:11:20.081Z,,0,,,NaN,,,,,,false,,,,421789.09999990463,421789.09999990463,,421788.90000009537,,421795.281,8,400,,,
sequence,flow.Sequence,4_64,2023-09-11T19:11:20.081Z,,0,,,5588.071999904641,completion,,,,,false,,,,421789.30000019073,421789.09999990463,416184.461,416186.30000019073,416201.028,421795.281,8,400,,,
trial,html.Screen,4_65_0,2023-09-11T19:11:26.888Z,,0,2,,6801.318999904615,response,ISIC_7630208.JPG,6,ISIC_0031671.JPG,ISIC_0031671.JPG,false,0,keypress(z),500,428596.80000019073,428596.59999990463,421778.765,421789.30000019073,421795.281,428608.558,8,400,16,,ISIC_7630208.JPG
break,html.Screen,4_65_1,2023-09-11T19:11:26.889Z,,0,,,NaN,,,,,,false,,,,428597.80000019073,428597.59999990463,,428597.09999990463,,428608.558,8,400,,,
break_continue,html.Screen,4_65_2,2023-09-11T19:11:26.890Z,,0,,,NaN,,,,,,false,,,,428598.30000019073,428598.09999990463,,428597.90000009537,,428608.558,8,400,,,
sequence,flow.Sequence,4_65,2023-09-11T19:11:26.890Z,,0,,,6802.818999904615,completion,,,,,false,,,,428598.40000009537,428598.09999990463,421778.765,421789.30000019073,421795.281,428608.558,8,400,,,
trial,html.Screen,4_66_0,2023-09-11T19:11:31.085Z,,0,2,,4184.342000095348,response,ISIC_0013840.JPG,5,ISIC_0058863.JPG,ISIC_0058863.JPG,false,0,keypress(z),500,432793,432792.90000009537,428591.956,428598.5,428608.558,432800.015,8,400,17,,ISIC_0013840.JPG
break,html.Screen,4_66_1,2023-09-11T19:11:31.085Z,,0,,,NaN,,,,,,false,,,,432793.5,432793.40000009537,,432793.09999990463,,432800.015,8,400,,,
break_continue,html.Screen,4_66_2,2023-09-11T19:11:31.085Z,,0,,,NaN,,,,,,false,,,,432793.80000019073,432793.69999980927,,432793.59999990463,,432800.015,8,400,,,
sequence,flow.Sequence,4_66,2023-09-11T19:11:31.085Z,,0,,,4185.141999809246,completion,,,,,false,,,,432793.80000019073,432793.69999980927,428591.956,428598.5,428608.558,432800.015,8,400,,,
trial,html.Screen,4_67_0,2023-09-11T19:11:35.919Z,,0,2,,4827.484999999986,response,ISIC_7667157.JPG,4,ISIC_0024735.JPG,ISIC_7667157.JPG,false,1,keypress(m),500,437627.59999990463,437627.5,432783.41,432793.80000019073,432800.015,437642.733,8,400,18,,ISIC_0024735.JPG
break,html.Screen,4_67_1,2023-09-11T19:11:35.920Z,,0,,,NaN,,,,,,false,,,,437628.09999990463,437628,,437627.80000019073,,437642.733,8,400,,,
break_continue,html.Screen,4_67_2,2023-09-11T19:11:35.920Z,,0,,,NaN,,,,,,false,,,,437628.19999980927,437628.19999980927,,437628.09999990463,,437642.733,8,400,,,
sequence,flow.Sequence,4_67,2023-09-11T19:11:35.920Z,,0,,,4828.184999809251,completion,,,,,false,,,,437628.40000009537,437628.19999980927,432783.41,432793.80000019073,432800.015,437642.733,8,400,,,
trial,html.Screen,4_68_0,2023-09-11T19:11:43.334Z,,0,2,,7399.866999904625,response,ISIC_0030922.JPG,5,ISIC_0046985.JPG,ISIC_0030922.JPG,false,1,keypress(m),500,445042.69999980927,445042.59999990463,437626.185,437628.5,437642.733,445057.187,8,400,19,,ISIC_0046985.JPG
break,html.Screen,4_68_1,2023-09-11T19:11:43.336Z,,0,,,NaN,,,,,,false,,,,445044.09999990463,445043.80000019073,,445043,,445057.187,8,400,,,
break_continue,html.Screen,4_68_2,2023-09-11T19:11:43.336Z,,0,,,NaN,,,,,,false,,,,445044.5,445044.40000009537,,445044.19999980927,,445057.187,8,400,,,
sequence,flow.Sequence,4_68,2023-09-11T19:11:43.336Z,,0,,,7401.66700009536,completion,,,,,false,,,,445044.90000009537,445044.40000009537,437626.185,437628.40000009537,437642.733,445057.187,8,400,,,
trial,html.Screen,4_69_0,2023-09-11T19:11:48.427Z,,0,2,,5078.412999904656,response,ISIC_8822738.JPG,4,ISIC_0016103.JPG,ISIC_8822738.JPG,false,1,keypress(m),500,450135.90000009537,450135.59999990463,445040.61,445045.09999990463,445057.187,450150.432,8,400,20,,ISIC_0016103.JPG
break,html.Screen,4_69_1,2023-09-11T19:11:48.429Z,,0,,,NaN,,,,,,false,,,,450137.30000019073,450136.80000019073,,450136.30000019073,,450150.432,8,400,,,
break_continue,html.Screen,4_69_2,2023-09-11T19:11:48.430Z,,0,,,NaN,,,,,,false,,,,450138,450137.90000009537,,450137.5,,450150.432,8,400,,,
sequence,flow.Sequence,4_69,2023-09-11T19:11:48.430Z,,0,,,5080.713000095391,completion,,,,,false,,,,450138.5,450137.90000009537,445040.61,445045,445057.187,450150.432,8,400,,,
trial,html.Screen,4_70_0,2023-09-11T19:11:52.768Z,,0,2,,4325.868000190763,response,ISIC_0027022.JPG,6,ISIC_0062734.JPG,ISIC_0062734.JPG,false,0,keypress(z),500,454476.5,454476.30000019073,450133.847,450138.69999980927,450150.432,454492.276,8,400,21,,ISIC_0027022.JPG
break,html.Screen,4_70_1,2023-09-11T19:11:52.769Z,,0,,,NaN,,,,,,false,,,,454477.19999980927,454477,,454476.69999980927,,454492.276,8,400,,,
break_continue,html.Screen,4_70_2,2023-09-11T19:11:52.769Z,,0,,,NaN,,,,,,false,,,,454477.5,454477.40000009537,,454477.30000019073,,454492.276,8,400,,,
sequence,flow.Sequence,4_70,2023-09-11T19:11:52.769Z,,0,,,4326.968000095396,completion,,,,,false,,,,454477.69999980927,454477.40000009537,450133.847,450138.69999980927,450150.432,454492.276,8,400,,,
trial,html.Screen,4_71_0,2023-09-11T19:11:56.979Z,,0,2,,4194.423999809253,response,ISIC_0011857.JPG,5,ISIC_7233368.JPG,ISIC_7233368.JPG,false,0,keypress(z),500,458687.09999990463,458686.69999980927,454475.632,454477.80000019073,454492.276,458700.572,8,400,22,,ISIC_0011857.JPG
break,html.Screen,4_71_1,2023-09-11T19:11:56.980Z,,0,,,NaN,,,,,,false,,,,458688.80000019073,458688.30000019073,,458687.59999990463,,458700.572,8,400,,,
break_continue,html.Screen,4_71_2,2023-09-11T19:11:56.981Z,,0,,,NaN,,,,,,false,,,,458689.59999990463,458689.40000009537,,458689.09999990463,,458700.572,8,400,,,
sequence,flow.Sequence,4_71,2023-09-11T19:11:56.982Z,,0,,,4197.124000095355,completion,,,,,false,,,,458690.09999990463,458689.40000009537,454475.632,454477.80000019073,454492.276,458700.572,8,400,,,
trial,html.Screen,4_72_0,2023-09-11T19:12:02.554Z,,0,2,,5560.728000190749,response,ISIC_3677945.JPG,6,ISIC_3152541.JPG,ISIC_3152541.JPG,false,0,keypress(z),500,464261.30000019073,464261.30000019073,458683.811,458690.30000019073,458700.572,464277.895,8,400,23,,ISIC_3677945.JPG
break,html.Screen,4_72_1,2023-09-11T19:12:02.555Z,,0,,,NaN,,,,,,false,,,,464262.09999990463,464261.80000019073,,464261.5,,464277.895,8,400,,,
break_continue,html.Screen,4_72_2,2023-09-11T19:12:02.555Z,,0,,,NaN,,,,,,false,,,,464262.59999990463,464262.59999990463,,464262.30000019073,,464277.895,8,400,,,
sequence,flow.Sequence,4_72,2023-09-11T19:12:02.555Z,,0,,,5562.027999904647,completion,,,,,false,,,,464262.69999980927,464262.59999990463,458683.811,458690.19999980927,458700.572,464277.895,8,400,,,
trial,html.Screen,4_73_0,2023-09-11T19:12:09.149Z,,0,2,,6578.8049998092465,response,ISIC_0001057.JPG,5,ISIC_0027170.JPG,ISIC_0001057.JPG,false,1,keypress(m),500,470856.80000019073,470856.69999980927,464261.329,464262.80000019073,464277.895,470857.347,8,400,24,,ISIC_0027170.JPG
break,html.Screen,4_73_1,2023-09-11T19:12:09.150Z,,0,,,NaN,,,,,,false,,,,470857.40000009537,470857.09999990463,,470856.80000019073,,470857.347,8,400,,,
break_continue,html.Screen,4_73_2,2023-09-11T19:12:09.150Z,,0,,,NaN,,,,,,false,,,,470857.90000009537,470857.80000019073,,470857.5,,470857.347,8,400,,,
sequence,flow.Sequence,4_73,2023-09-11T19:12:09.151Z,,0,,,6579.905000190716,completion,,,,,false,,,,470857.90000009537,470857.80000019073,464261.329,464262.80000019073,464277.895,470857.347,8,400,,,
trial,html.Screen,4_74_0,2023-09-11T19:12:14.145Z,,0,2,,4995.252999904624,response,ISIC_7341401.JPG,5,ISIC_0003767.JPG,ISIC_0003767.JPG,false,0,keypress(z),500,475852.80000019073,475852.59999990463,470840.851,470858.09999990463,470857.347,475867.173,8,400,25,,ISIC_7341401.JPG
break,html.Screen,4_74_1,2023-09-11T19:12:14.146Z,,0,,,NaN,,,,,,false,,,,475853.80000019073,475853.40000009537,,475853,,475867.173,8,400,,,
break_continue,html.Screen,4_74_2,2023-09-11T19:12:14.147Z,,0,,,NaN,,,,,,false,,,,475854.19999980927,475854.09999990463,,475853.90000009537,,475867.173,8,400,,,
sequence,flow.Sequence,4_74,2023-09-11T19:12:14.147Z,,0,,,4996.752999904624,completion,,,,,false,,,,475854.40000009537,475854.09999990463,470840.851,470858.09999990463,470857.347,475867.173,8,400,,,
trial,html.Screen,4_75_0,2023-09-11T19:12:19.829Z,,0,2,,5669.227000095358,response,ISIC_0000517.JPG,5,ISIC_0946923.JPG,ISIC_0946923.JPG,false,0,keypress(z),500,481536.59999990463,481536.40000009537,475850.562,475854.5,475867.173,481544.856,8,400,26,,ISIC_0000517.JPG
break,html.Screen,4_75_1,2023-09-11T19:12:19.830Z,,0,,,NaN,,,,,,false,,,,481537,481536.90000009537,,481536.59999990463,,481544.856,8,400,,,
break_continue,html.Screen,4_75_2,2023-09-11T19:12:19.830Z,,0,,,NaN,,,,,,false,,,,481537.19999980927,481537.09999990463,,481537,,481544.856,8,400,,,
sequence,flow.Sequence,4_75,2023-09-11T19:12:19.830Z,,0,,,5669.926999904623,completion,,,,,false,,,,481537.19999980927,481537.09999990463,475850.562,475854.5,475867.173,481544.856,8,400,,,
trial,html.Screen,4_76_0,2023-09-11T19:12:23.611Z,,0,2,,3773.7439999046037,response,ISIC_9929097.JPG,5,ISIC_0062914.JPG,ISIC_9929097.JPG,false,1,keypress(m),500,485318.69999980927,485318.59999990463,481528.265,481537.19999980927,481544.856,485335.57,8,400,27,,ISIC_0062914.JPG
break,html.Screen,4_76_1,2023-09-11T19:12:23.612Z,,0,,,NaN,,,,,,false,,,,485319.69999980927,485319.40000009537,,485318.90000009537,,485335.57,8,400,,,
break_continue,html.Screen,4_76_2,2023-09-11T19:12:23.613Z,,0,,,NaN,,,,,,false,,,,485320,485319.90000009537,,485319.80000019073,,485335.57,8,400,,,
sequence,flow.Sequence,4_76,2023-09-11T19:12:23.613Z,,0,,,3775.0440000953386,completion,,,,,false,,,,485320.09999990463,485319.90000009537,481528.265,481537.19999980927,481544.856,485335.57,8,400,,,
trial,html.Screen,4_77_0,2023-09-11T19:12:29.566Z,,0,2,,5937.529999904626,response,ISIC_0719631.JPG,5,ISIC_0033831.JPG,ISIC_0719631.JPG,false,1,keypress(m),500,491273.19999980927,491273.09999990463,485318.858,485320.19999980927,485335.57,491280.446,8,400,28,,ISIC_0033831.JPG
break,html.Screen,4_77_1,2023-09-11T19:12:29.566Z,,0,,,NaN,,,,,,false,,,,491273.80000019073,491273.59999990463,,491273.40000009537,,491280.446,8,400,,,
break_continue,html.Screen,4_77_2,2023-09-11T19:12:29.567Z,,0,,,NaN,,,,,,false,,,,491274.09999990463,491274,,491273.90000009537,,491280.446,8,400,,,
sequence,flow.Sequence,4_77,2023-09-11T19:12:29.567Z,,0,,,5938.429999999993,completion,,,,,false,,,,491274.19999980927,491274,485318.858,485320.19999980927,485335.57,491280.446,8,400,,,
trial,html.Screen,4_78_0,2023-09-11T19:12:34.928Z,,0,2,,5355.153999904636,response,ISIC_9142818.JPG,5,ISIC_0010209.JPG,ISIC_9142818.JPG,false,1,keypress(m),500,496635.69999980927,496635.59999990463,491263.877,491274.19999980927,491280.446,496640.972,8,400,29,,ISIC_0010209.JPG
break,html.Screen,4_78_1,2023-09-11T19:12:34.929Z,,0,,,NaN,,,,,,false,,,,496636,496635.90000009537,,496635.80000019073,,496640.972,8,400,,,
break_continue,html.Screen,4_78_2,2023-09-11T19:12:34.929Z,,0,,,NaN,,,,,,false,,,,496636.30000019073,496636.19999980927,,496636.09999990463,,496640.972,8,400,,,
sequence,flow.Sequence,4_78,2023-09-11T19:12:34.929Z,,0,,,5355.753999809269,completion,,,,,false,,,,496636.30000019073,496636.19999980927,491263.877,491274.19999980927,491280.446,496640.972,8,400,,,
trial,html.Screen,4_79_0,2023-09-11T19:12:40.041Z,,0,2,,5107.027999999991,response,ISIC_5832901.JPG,5,ISIC_0067719.JPG,ISIC_5832901.JPG,false,1,keypress(m),500,501748.09999990463,501748,496624.434,496636.40000009537,496640.972,501750.871,8,400,30,,ISIC_0067719.JPG
break,html.Screen,4_79_1,2023-09-11T19:12:40.041Z,,0,,,NaN,,,,,,false,,,,501748.5,501748.40000009537,,501748.19999980927,,501750.871,8,400,,,
break_continue,html.Screen,4_79_2,2023-09-11T19:12:40.041Z,,0,,,NaN,,,,,,false,,,,501748.69999980927,501748.59999990463,,501748.59999990463,,501750.871,8,400,,,
sequence,flow.Sequence,4_79,2023-09-11T19:12:40.041Z,,0,,,5107.627999904624,completion,,,,,false,,,,501748.80000019073,501748.59999990463,496624.434,496636.40000009537,496640.972,501750.871,8,400,,,
trial,html.Screen,4_80_0,2023-09-11T19:12:46.140Z,,0,2,,6096.129000000015,response,ISIC_0026347.JPG,5,ISIC_0473135.JPG,ISIC_0473135.JPG,false,0,keypress(z),500,507847.09999990463,507847,501734.232,501748.80000019073,501750.871,507862.739,8,400,31,,ISIC_0026347.JPG
break,html.Screen,4_80_1,2023-09-11T19:12:46.140Z,,0,,,NaN,,,,,,false,,,,507847.59999990463,507847.5,,507847.19999980927,,507862.739,8,400,,,
break_continue,html.Screen,4_80_2,2023-09-11T19:12:46.141Z,,0,,,NaN,,,,,,false,,,,507847.90000009537,507847.90000009537,,507847.69999980927,,507862.739,8,400,,,
sequence,flow.Sequence,4_80,2023-09-11T19:12:46.141Z,,0,,,6097.029000095383,completion,,,,,false,,,,507848.09999990463,507847.90000009537,501734.232,501748.80000019073,501750.871,507862.739,8,400,,,
trial,html.Screen,4_81_0,2023-09-11T19:12:49.871Z,,0,2,,3715.360999904631,response,ISIC_0504165.JPG,5,ISIC_5476277.JPG,ISIC_5476277.JPG,false,0,keypress(z),500,511578.19999980927,511578.09999990463,507846.135,507848.19999980927,507862.739,511586.707,8,400,32,,ISIC_0504165.JPG
break,html.Screen,4_81_1,2023-09-11T19:12:49.871Z,,0,,,NaN,,,,,,false,,,,511578.69999980927,511578.59999990463,,511578.40000009537,,511586.707,8,400,,,
break_continue,html.Screen,4_81_2,2023-09-11T19:12:49.871Z,,0,,,NaN,,,,,,false,,,,511578.90000009537,511578.80000019073,,511578.69999980927,,511586.707,8,400,,,
sequence,flow.Sequence,4_81,2023-09-11T19:12:49.872Z,,0,,,3716.0610001907335,completion,,,,,false,,,,511578.90000009537,511578.80000019073,507846.135,507848.19999980927,507862.739,511586.707,8,400,,,
trial,html.Screen,4_82_0,2023-09-11T19:12:54.033Z,,0,2,,4153.892999904638,response,ISIC_0032784.JPG,5,ISIC_4368650.JPG,ISIC_4368650.JPG,false,0,keypress(z),500,515740.69999980927,515740.59999990463,511570.073,511579,511586.707,515744.71,8,400,33,,ISIC_0032784.JPG
break,html.Screen,4_82_1,2023-09-11T19:12:54.034Z,,0,,,NaN,,,,,,false,,,,515741.59999990463,515741.30000019073,,515740.90000009537,,515744.71,8,400,,,
break_continue,html.Screen,4_82_2,2023-09-11T19:12:54.035Z,,0,,,NaN,,,,,,false,,,,515742,515741.80000019073,,515741.69999980927,,515744.71,8,400,,,
sequence,flow.Sequence,4_82,2023-09-11T19:12:54.035Z,,0,,,4155.09300019074,completion,,,,,false,,,,515742.09999990463,515741.80000019073,511570.073,511579,511586.707,515744.71,8,400,,,
trial,html.Screen,4_83_0,2023-09-11T19:12:58.677Z,,0,2,,4639.590000190714,response,ISIC_0056326.JPG,6,ISIC_3941147.JPG,ISIC_3941147.JPG,false,0,keypress(z),500,520384.5,520384.30000019073,515728.153,515742.30000019073,515744.71,520387.113,8,400,34,,ISIC_0056326.JPG
break,html.Screen,4_83_1,2023-09-11T19:12:58.678Z,,0,,,NaN,,,,,,false,,,,520385.19999980927,520385,,520384.69999980927,,520387.113,8,400,,,
break_continue,html.Screen,4_83_2,2023-09-11T19:12:58.678Z,,0,,,NaN,,,,,,false,,,,520385.5,520385.40000009537,,520385.30000019073,,520387.113,8,400,,,
sequence,flow.Sequence,4_83,2023-09-11T19:12:58.678Z,,0,,,4640.6900000953465,completion,,,,,false,,,,520385.5,520385.40000009537,515728.153,515742.30000019073,515744.71,520387.113,8,400,,,
trial,html.Screen,4_84_0,2023-09-11T19:13:05.850Z,,0,2,,7168.886999999988,response,ISIC_0000012.JPG,5,ISIC_0031763.JPG,ISIC_0000012.JPG,false,1,keypress(m),500,527556.1999998093,527556,520370.622,520385.59999990463,520387.113,527567.862,8,400,35,,ISIC_0031763.JPG
break,html.Screen,4_84_1,2023-09-11T19:13:05.850Z,,0,,,NaN,,,,,,false,,,,527556.5,527556.5,,527556.1999998093,,527567.862,8,400,,,
break_continue,html.Screen,4_84_2,2023-09-11T19:13:05.850Z,,0,,,NaN,,,,,,false,,,,527556.6999998093,527556.5999999046,,527556.5999999046,,527567.862,8,400,,,
sequence,flow.Sequence,4_84,2023-09-11T19:13:05.850Z,,0,,,7169.4869999046205,completion,,,,,false,,,,527556.8000001907,527556.5999999046,520370.622,520385.59999990463,520387.113,527567.862,8,400,,,
trial,html.Screen,4_85_0,2023-09-11T19:13:11.387Z,,0,2,,5525.638000000035,response,ISIC_0031543.JPG,5,ISIC_0000392.JPG,ISIC_0000392.JPG,false,0,keypress(z),500,533093.5999999046,533093.5,527551.16,527556.8000001907,527567.862,533095.168,8,400,36,,ISIC_0031543.JPG
break,html.Screen,4_85_1,2023-09-11T19:13:11.388Z,,0,,,NaN,,,,,,false,,,,533094.4000000954,533093.9000000954,,533093.6999998093,,533095.168,8,400,,,
break_continue,html.Screen,4_85_2,2023-09-11T19:13:11.388Z,,0,,,NaN,,,,,,false,,,,533094.5999999046,533094.5999999046,,533094.5,,533095.168,8,400,,,
sequence,flow.Sequence,4_85,2023-09-11T19:13:11.388Z,,0,,,5526.737999904668,completion,,,,,false,,,,533094.6999998093,533094.5999999046,527551.16,527556.8000001907,527567.862,533095.168,8,400,,,
trial,html.Screen,4_86_0,2023-09-11T19:13:18.479Z,,0,2,,7090.031999809318,response,ISIC_3565564.JPG,5,ISIC_2355513.JPG,ISIC_2355513.JPG,false,0,keypress(z),500,540185.3000001907,540185.1999998093,533078.583,533094.8000001907,533095.168,540192.286,8,400,37,,ISIC_3565564.JPG
break,html.Screen,4_86_1,2023-09-11T19:13:18.479Z,,0,,,NaN,,,,,,false,,,,540185.9000000954,540185.8000001907,,540185.5,,540192.286,8,400,,,
break_continue,html.Screen,4_86_2,2023-09-11T19:13:18.480Z,,0,,,NaN,,,,,,false,,,,540186.1999998093,540186.1999998093,,540186.0999999046,,540192.286,8,400,,,
sequence,flow.Sequence,4_86,2023-09-11T19:13:18.480Z,,0,,,7091.031999809318,completion,,,,,false,,,,540186.3000001907,540186.1999998093,533078.583,533094.8000001907,533095.168,540192.286,8,400,,,
trial,html.Screen,4_87_0,2023-09-11T19:13:25.142Z,,0,2,,6656.014000190771,response,ISIC_0062978.JPG,5,ISIC_0025006.JPG,ISIC_0025006.JPG,false,0,keypress(z),500,546848.5,546848.3000001907,540175.704,540186.3000001907,540192.286,546872.088,8,400,38,,ISIC_0062978.JPG
break,html.Screen,4_87_1,2023-09-11T19:13:25.142Z,,0,,,NaN,,,,,,false,,,,546848.9000000954,546848.8000001907,,546848.5999999046,,546872.088,8,400,,,
break_continue,html.Screen,4_87_2,2023-09-11T19:13:25.143Z,,0,,,NaN,,,,,,false,,,,546849.1999998093,546849.0999999046,,546849,,546872.088,8,400,,,
sequence,flow.Sequence,4_87,2023-09-11T19:13:25.143Z,,0,,,6656.813999904669,completion,,,,,false,,,,546849.3000001907,546849.0999999046,540175.704,540186.3000001907,540192.286,546872.088,8,400,,,
trial,html.Screen,4_88_0,2023-09-11T19:13:30.893Z,,0,2,,5727.712000190746,response,ISIC_0071904.JPG,5,ISIC_9050826.JPG,ISIC_0071904.JPG,false,1,keypress(m),500,552600,552599.8000001907,546855.322,546849.4000000954,546872.088,552616.526,8,400,39,,ISIC_9050826.JPG
break,html.Screen,4_88_1,2023-09-11T19:13:30.895Z,,0,,,NaN,,,,,,false,,,,552601,552600.8000001907,,552600.1999998093,,552616.526,8,400,,,
break_continue,html.Screen,4_88_2,2023-09-11T19:13:30.895Z,,0,,,NaN,,,,,,false,,,,552601.5,552601.4000000954,,552601.1999998093,,552616.526,8,400,,,
sequence,flow.Sequence,4_88,2023-09-11T19:13:30.895Z,,0,,,5729.312000095379,completion,,,,,false,,,,552601.8000001907,552601.4000000954,546855.322,546849.3000001907,546872.088,552616.526,8,400,,,
trial,html.Screen,4_89_0,2023-09-11T19:13:37.299Z,,0,2,,6389.073999904678,response,ISIC_1461068.JPG,6,ISIC_0059264.JPG,ISIC_1461068.JPG,false,1,keypress(m),500,559005.6999998093,559005.5999999046,552599.902,552601.9000000954,552616.526,559012.356,8,400,40,,ISIC_0059264.JPG
break,html.Screen,4_89_1,2023-09-11T19:13:37.300Z,,0,,,NaN,,,,,,false,,,,559006.4000000954,559006.1999998093,,559005.8000001907,,559012.356,8,400,,,
break_continue,html.Screen,4_89_2,2023-09-11T19:13:37.300Z,,0,,,NaN,,,,,,false,,,,559006.6999998093,559006.5999999046,,559006.5,,559012.356,8,400,,,
sequence,flow.Sequence,4_89,2023-09-11T19:13:37.300Z,,0,,,6390.073999904678,completion,,,,,false,,,,559006.9000000954,559006.5999999046,552599.902,552601.8000001907,552616.526,559012.356,8,400,,,
trial,html.Screen,4_90_0,2023-09-11T19:13:42.172Z,,0,2,,4865.643999999971,response,ISIC_0066143.JPG,5,ISIC_1004416.JPG,ISIC_1004416.JPG,false,0,keypress(z),500,563878.0999999046,563878,558995.691,559006.9000000954,559012.356,563888.429,8,400,41,,ISIC_0066143.JPG
break,html.Screen,4_90_1,2023-09-11T19:13:42.172Z,,0,,,NaN,,,,,,false,,,,563878.5999999046,563878.4000000954,,563878.1999998093,,563888.429,8,400,,,
break_continue,html.Screen,4_90_2,2023-09-11T19:13:42.172Z,,0,,,NaN,,,,,,false,,,,563878.8000001907,563878.8000001907,,563878.5999999046,,563888.429,8,400,,,
sequence,flow.Sequence,4_90,2023-09-11T19:13:42.172Z,,0,,,4866.444000190706,completion,,,,,false,,,,563878.9000000954,563878.8000001907,558995.691,559006.9000000954,559012.356,563888.429,8,400,,,
trial,html.Screen,4_91_0,2023-09-11T19:13:47.630Z,,0,2,,5448.070999999996,response,ISIC_0053574.JPG,4,ISIC_0033393.JPG,ISIC_0053574.JPG,false,1,keypress(m),500,569336.6999998093,569336.5,563871.833,563878.9000000954,563888.429,569349.142,8,400,42,,ISIC_0033393.JPG
break,html.Screen,4_91_1,2023-09-11T19:13:47.631Z,,0,,,NaN,,,,,,false,,,,569337.0999999046,569337.0999999046,,569336.8000001907,,569349.142,8,400,,,
break_continue,html.Screen,4_91_2,2023-09-11T19:13:47.631Z,,0,,,NaN,,,,,,false,,,,569337.3000001907,569337.3000001907,,569337.1999998093,,569349.142,8,400,,,
sequence,flow.Sequence,4_91,2023-09-11T19:13:47.631Z,,0,,,5448.871000190731,completion,,,,,false,,,,569337.4000000954,569337.3000001907,563871.833,563878.9000000954,563888.429,569349.142,8,400,,,
trial,html.Screen,4_92_0,2023-09-11T19:13:51.608Z,,0,2,,3964.95799990464,response,ISIC_9228573.JPG,6,ISIC_7536704.JPG,ISIC_9228573.JPG,false,1,keypress(m),500,573314.1999998093,573314.0999999046,569332.484,569337.5,569349.142,573323.469,8,400,43,,ISIC_7536704.JPG
break,html.Screen,4_92_1,2023-09-11T19:13:51.608Z,,0,,,NaN,,,,,,false,,,,573314.6999998093,573314.5999999046,,573314.4000000954,,573323.469,8,400,,,
break_continue,html.Screen,4_92_2,2023-09-11T19:13:51.608Z,,0,,,NaN,,,,,,false,,,,573314.9000000954,573314.8000001907,,573314.8000001907,,573323.469,8,400,,,
sequence,flow.Sequence,4_92,2023-09-11T19:13:51.608Z,,0,,,3965.6580001907423,completion,,,,,false,,,,573314.9000000954,573314.8000001907,569332.484,569337.5,569349.142,573323.469,8,400,,,
trial,html.Screen,4_93_0,2023-09-11T19:13:56.194Z,,0,2,,4576.730999809224,response,ISIC_0029902.JPG,5,ISIC_0063268.JPG,ISIC_0029902.JPG,false,1,keypress(m),500,577900.3000001907,577900.1999998093,573306.881,573315,573323.469,577915.754,8,400,44,,ISIC_0063268.JPG
break,html.Screen,4_93_1,2023-09-11T19:13:56.195Z,,0,,,NaN,,,,,,false,,,,577901.0999999046,577900.9000000954,,577900.5,,577915.754,8,400,,,
break_continue,html.Screen,4_93_2,2023-09-11T19:13:56.195Z,,0,,,NaN,,,,,,false,,,,577901.4000000954,577901.3000001907,,577901.0999999046,,577915.754,8,400,,,
sequence,flow.Sequence,4_93,2023-09-11T19:13:56.195Z,,0,,,4577.831000190694,completion,,,,,false,,,,577901.5,577901.3000001907,573306.881,573315,573323.469,577915.754,8,400,,,
trial,html.Screen,4_94_0,2023-09-11T19:14:01.398Z,,0,2,,5187.246000000043,response,ISIC_2050512.JPG,6,ISIC_4468148.JPG,ISIC_2050512.JPG,false,1,keypress(m),500,583103.1999998093,583103,577899.156,577901.6999998093,577915.754,583109.239,8,400,45,,ISIC_4468148.JPG
break,html.Screen,4_94_1,2023-09-11T19:14:01.399Z,,0,,,NaN,,,,,,false,,,,583104.0999999046,583103.9000000954,,583103.4000000954,,583109.239,8,400,,,
break_continue,html.Screen,4_94_2,2023-09-11T19:14:01.400Z,,0,,,NaN,,,,,,false,,,,583104.6999998093,583104.5,,583104.3000001907,,583109.239,8,400,,,
sequence,flow.Sequence,4_94,2023-09-11T19:14:01.400Z,,0,,,5188.746000000043,completion,,,,,false,,,,583104.9000000954,583104.5,577899.156,577901.6999998093,577915.754,583109.239,8,400,,,
trial,html.Screen,4_95_0,2023-09-11T19:14:05.405Z,,0,2,,4000.8609999046894,response,ISIC_0014559.JPG,5,ISIC_3440004.JPG,ISIC_3440004.JPG,false,0,keypress(z),500,587110.1999998093,587110.0999999046,583092.556,583105.0999999046,583109.239,587117.079,8,400,46,,ISIC_0014559.JPG
break,html.Screen,4_95_1,2023-09-11T19:14:05.405Z,,0,,,NaN,,,,,,false,,,,587110.5999999046,587110.5,,587110.3000001907,,587117.079,8,400,,,
break_continue,html.Screen,4_95_2,2023-09-11T19:14:05.406Z,,0,,,NaN,,,,,,false,,,,587110.8000001907,587110.8000001907,,587110.6999998093,,587117.079,8,400,,,
sequence,flow.Sequence,4_95,2023-09-11T19:14:05.406Z,,0,,,4001.5610001907917,completion,,,,,false,,,,587110.8000001907,587110.8000001907,583092.556,583105,583109.239,587117.079,8,400,,,
trial,html.Screen,4_96_0,2023-09-11T19:14:10.927Z,,0,2,,5515.020999904606,response,ISIC_0056799.JPG,5,ISIC_0065889.JPG,ISIC_0065889.JPG,false,0,keypress(z),500,592632.3000001907,592632.0999999046,587100.373,587111,587117.079,592644.413,8,400,47,,ISIC_0056799.JPG
break,html.Screen,4_96_1,2023-09-11T19:14:10.928Z,,0,,,NaN,,,,,,false,,,,592633.3000001907,592632.9000000954,,592632.4000000954,,592644.413,8,400,,,
break_continue,html.Screen,4_96_2,2023-09-11T19:14:10.929Z,,0,,,NaN,,,,,,false,,,,592633.6999998093,592633.5999999046,,592633.4000000954,,592644.413,8,400,,,
sequence,flow.Sequence,4_96,2023-09-11T19:14:10.929Z,,0,,,5516.520999904606,completion,,,,,false,,,,592633.8000001907,592633.5999999046,587100.373,587110.9000000954,587117.079,592644.413,8,400,,,
trial,html.Screen,4_97_0,2023-09-11T19:14:15.810Z,,0,2,,4870.887000190793,response,ISIC_1850674.JPG,6,ISIC_0057594.JPG,ISIC_1850674.JPG,false,1,keypress(m),500,597515.4000000954,597515.3000001907,592627.882,592634,592644.413,597520.53,8,400,48,,ISIC_0057594.JPG
break,html.Screen,4_97_1,2023-09-11T19:14:15.811Z,,0,,,NaN,,,,,,false,,,,597516,597515.6999998093,,597515.5,,597520.53,8,400,,,
break_continue,html.Screen,4_97_2,2023-09-11T19:14:15.811Z,,0,,,NaN,,,,,,false,,,,597516.0999999046,597516.0999999046,,597516,,597520.53,8,400,,,
sequence,flow.Sequence,4_97,2023-09-11T19:14:15.811Z,,0,,,4871.68699990469,completion,,,,,false,,,,597516.1999998093,597516.0999999046,592627.882,592634,592644.413,597520.53,8,400,,,
trial,html.Screen,4_98_0,2023-09-11T19:14:21.716Z,,0,2,,5901.069999904605,response,ISIC_0066101.JPG,5,ISIC_9225640.JPG,ISIC_9225640.JPG,false,0,keypress(z),500,603421.5999999046,603421.5999999046,597503.946,597516.3000001907,597520.53,603432.214,8,400,49,,ISIC_0066101.JPG
break,html.Screen,4_98_1,2023-09-11T19:14:21.717Z,,0,,,NaN,,,,,,false,,,,603422.0999999046,603421.9000000954,,603421.6999998093,,603432.214,8,400,,,
break_continue,html.Screen,4_98_2,2023-09-11T19:14:21.717Z,,0,,,NaN,,,,,,false,,,,603422.1999998093,603422.1999998093,,603422.0999999046,,603432.214,8,400,,,
sequence,flow.Sequence,4_98,2023-09-11T19:14:21.717Z,,0,,,5901.669999809237,completion,,,,,false,,,,603422.3000001907,603422.1999998093,597503.946,597516.3000001907,597520.53,603432.214,8,400,,,
trial,html.Screen,4_99_0,2023-09-11T19:14:27.527Z,,0,2,,5799.385999904596,response,ISIC_0067564.JPG,5,ISIC_0067274.JPG,ISIC_0067564.JPG,false,1,keypress(m),500,609231.8000001907,609231.5999999046,603415.455,603422.4000000954,603432.214,609243.481,8,400,50,,ISIC_0067274.JPG
break,html.Screen,4_99_1,2023-09-11T19:14:37.525Z,,0,,,10002.804000000004,timeout,,,,,false,,,,619230.1999998093,619229.563,609226.869,609232.0999999046,609243.481,619246.285,8,400,,,
break_continue,html.Screen,4_99_2,2023-09-11T19:14:39.862Z,,0,,,2301.115000095335,response,,,,,false,continue,keypress(Space),,621567.5999999046,621547.4000000954,619229.563,619230.3000001907,619246.285,621567.352,8,400,,,
sequence,flow.Sequence,4_99,2023-09-11T19:14:39.863Z,,0,,,18115.18600009533,completion,,,,,false,,,,621567.6999998093,621547.4000000954,603415.455,603422.3000001907,603432.214,621567.352,8,400,,,
trial,html.Screen,4_100_0,2023-09-11T19:14:44.591Z,,0,3,,4728.44800019078,response,ISIC_8779142.JPG,5,ISIC_4814912.JPG,ISIC_8779142.JPG,false,1,keypress(m),500,626295.9000000954,626295.8000001907,621550.695,621567.9000000954,621567.352,626309.938,8,400,1,,ISIC_4814912.JPG
break,html.Screen,4_100_1,2023-09-11T19:14:44.591Z,,0,,,NaN,,,,,,false,,,,626296.4000000954,626296.3000001907,,626296,,626309.938,8,400,,,
break_continue,html.Screen,4_100_2,2023-09-11T19:14:44.592Z,,0,,,NaN,,,,,,false,,,,626296.6999998093,626296.5999999046,,626296.5,,626309.938,8,400,,,
sequence,flow.Sequence,4_100,2023-09-11T19:14:44.592Z,,0,,,4729.247999904677,completion,,,,,false,,,,626296.9000000954,626296.5999999046,621550.695,621567.8000001907,621567.352,626309.938,8,400,,,
trial,html.Screen,4_101_0,2023-09-11T19:14:48.503Z,,0,3,,3897.962000095402,response,ISIC_9555291.JPG,6,ISIC_5216586.JPG,ISIC_9555291.JPG,false,1,keypress(m),500,630208.0999999046,630207.9000000954,626293.395,626296.9000000954,626309.938,630217.48,8,400,2,,ISIC_5216586.JPG
break,html.Screen,4_101_1,2023-09-11T19:14:48.503Z,,0,,,NaN,,,,,,false,,,,630208.5,630208.4000000954,,630208.1999998093,,630217.48,8,400,,,
break_continue,html.Screen,4_101_2,2023-09-11T19:14:48.504Z,,0,,,NaN,,,,,,false,,,,630208.6999998093,630208.5999999046,,630208.5999999046,,630217.48,8,400,,,
sequence,flow.Sequence,4_101,2023-09-11T19:14:48.504Z,,0,,,3898.661999904667,completion,,,,,false,,,,630208.8000001907,630208.5999999046,626293.395,626296.9000000954,626309.938,630217.48,8,400,,,
trial,html.Screen,4_102_0,2023-09-11T19:14:53.257Z,,0,3,,4744.3200001907535,response,ISIC_9566964.JPG,5,ISIC_0015189.JPG,ISIC_9566964.JPG,false,1,keypress(m),500,634962,634961.8000001907,630200.91,630208.8000001907,630217.48,634976.8,8,400,3,,ISIC_0015189.JPG
break,html.Screen,4_102_1,2023-09-11T19:14:53.257Z,,0,,,NaN,,,,,,false,,,,634962.4000000954,634962.3000001907,,634962.0999999046,,634976.8,8,400,,,
break_continue,html.Screen,4_102_2,2023-09-11T19:14:53.258Z,,0,,,NaN,,,,,,false,,,,634962.8000001907,634962.6999998093,,634962.5999999046,,634976.8,8,400,,,
sequence,flow.Sequence,4_102,2023-09-11T19:14:53.258Z,,0,,,4745.219999809284,completion,,,,,false,,,,634962.9000000954,634962.6999998093,630200.91,630208.8000001907,630217.48,634976.8,8,400,,,
trial,html.Screen,4_103_0,2023-09-11T19:14:57.563Z,,0,3,,4291.600000095321,response,ISIC_0060749.JPG,5,ISIC_0054886.JPG,ISIC_0060749.JPG,false,1,keypress(m),500,639268.5999999046,639268.4000000954,634960.164,634963,634976.8,639285.107,8,400,4,,ISIC_0054886.JPG
break,html.Screen,4_103_1,2023-09-11T19:14:57.564Z,,0,,,NaN,,,,,,false,,,,639269,639268.8000001907,,639268.6999998093,,639285.107,8,400,,,
break_continue,html.Screen,4_103_2,2023-09-11T19:14:57.564Z,,0,,,NaN,,,,,,false,,,,639269.3000001907,639269.1999998093,,639269.0999999046,,639285.107,8,400,,,
sequence,flow.Sequence,4_103,2023-09-11T19:14:57.564Z,,0,,,4292.399999809219,completion,,,,,false,,,,639269.4000000954,639269.1999998093,634960.164,634962.9000000954,634976.8,639285.107,8,400,,,
trial,html.Screen,4_104_0,2023-09-11T19:15:01.854Z,,0,3,,4273.2930000954075,response,ISIC_4871616.JPG,5,ISIC_7755096.JPG,ISIC_4871616.JPG,false,1,keypress(m),500,643558.5,643558.4000000954,639268.685,639269.4000000954,639285.107,643560.122,8,400,5,,ISIC_7755096.JPG
break,html.Screen,4_104_1,2023-09-11T19:15:01.854Z,,0,,,NaN,,,,,,false,,,,643558.9000000954,643558.8000001907,,643558.5,,643560.122,8,400,,,
break_continue,html.Screen,4_104_2,2023-09-11T19:15:01.855Z,,0,,,NaN,,,,,,false,,,,643559,643559,,643559,,643560.122,8,400,,,
sequence,flow.Sequence,4_104,2023-09-11T19:15:01.855Z,,0,,,4273.89300000004,completion,,,,,false,,,,643559.0999999046,643559,639268.685,639269.4000000954,639285.107,643560.122,8,400,,,
trial,html.Screen,4_105_0,2023-09-11T19:15:05.542Z,,0,3,,3686.378000000026,response,ISIC_9002603.JPG,5,ISIC_0068924.JPG,ISIC_9002603.JPG,false,1,keypress(m),500,647246.5999999046,647246.5,643543.614,643559.1999998093,643560.122,647250.683,8,400,6,,ISIC_0068924.JPG
break,html.Screen,4_105_1,2023-09-11T19:15:05.543Z,,0,,,NaN,,,,,,false,,,,647247,647246.9000000954,,647246.6999998093,,647250.683,8,400,,,
break_continue,html.Screen,4_105_2,2023-09-11T19:15:05.543Z,,0,,,NaN,,,,,,false,,,,647247.1999998093,647247.0999999046,,647247.0999999046,,647250.683,8,400,,,
sequence,flow.Sequence,4_105,2023-09-11T19:15:05.543Z,,0,,,3686.9779999046586,completion,,,,,false,,,,647247.3000001907,647247.0999999046,643543.614,643559.0999999046,643560.122,647250.683,8,400,,,
trial,html.Screen,4_106_0,2023-09-11T19:15:10.136Z,,0,3,,4589.617000190774,response,ISIC_5422432.JPG,5,ISIC_6269543.JPG,ISIC_5422432.JPG,false,1,keypress(m),500,651840.4000000954,651840.3000001907,647234.078,647247.4000000954,647250.683,651842.911,8,400,7,,ISIC_6269543.JPG
break,html.Screen,4_106_1,2023-09-11T19:15:10.136Z,,0,,,NaN,,,,,,false,,,,651840.9000000954,651840.8000001907,,651840.5999999046,,651842.911,8,400,,,
break_continue,html.Screen,4_106_2,2023-09-11T19:15:10.137Z,,0,,,NaN,,,,,,false,,,,651841,651841,,651840.9000000954,,651842.911,8,400,,,
sequence,flow.Sequence,4_106,2023-09-11T19:15:10.137Z,,0,,,4590.317000000039,completion,,,,,false,,,,651841.0999999046,651841,647234.078,647247.4000000954,647250.683,651842.911,8,400,,,
trial,html.Screen,4_107_0,2023-09-11T19:15:15.070Z,,0,3,,4931.688999904669,response,ISIC_0101540.JPG,4,ISIC_2215276.JPG,ISIC_0101540.JPG,false,1,keypress(m),500,656774.6999998093,656774.5999999046,651826.273,651841.1999998093,651842.911,656786.054,8,400,8,,ISIC_2215276.JPG
break,html.Screen,4_107_1,2023-09-11T19:15:15.071Z,,0,,,NaN,,,,,,false,,,,656775.1999998093,656775.0999999046,,656774.8000001907,,656786.054,8,400,,,
break_continue,html.Screen,4_107_2,2023-09-11T19:15:15.071Z,,0,,,NaN,,,,,,false,,,,656775.4000000954,656775.4000000954,,656775.3000001907,,656786.054,8,400,,,
sequence,flow.Sequence,4_107,2023-09-11T19:15:15.071Z,,0,,,4932.489000095404,completion,,,,,false,,,,656775.5,656775.4000000954,651826.273,651841.1999998093,651842.911,656786.054,8,400,,,
trial,html.Screen,4_108_0,2023-09-11T19:15:18.902Z,,0,3,,3820.1459998092614,response,ISIC_1334438.JPG,5,ISIC_4438786.JPG,ISIC_4438786.JPG,false,0,keypress(z),500,660606.1999998093,660606.1999998093,656769.272,656775.5999999046,656786.054,660610.07,8,400,9,,ISIC_1334438.JPG
break,html.Screen,4_108_1,2023-09-11T19:15:18.902Z,,0,,,NaN,,,,,,false,,,,660606.8000001907,660606.5999999046,,660606.4000000954,,660610.07,8,400,,,
break_continue,html.Screen,4_108_2,2023-09-11T19:15:18.903Z,,0,,,NaN,,,,,,false,,,,660607,660606.9000000954,,660606.9000000954,,660610.07,8,400,,,
sequence,flow.Sequence,4_108,2023-09-11T19:15:18.903Z,,0,,,3820.8460000953637,completion,,,,,false,,,,660607.0999999046,660606.9000000954,656769.272,656775.5,656786.054,660610.07,8,400,,,
trial,html.Screen,4_109_0,2023-09-11T19:15:23.768Z,,0,3,,4862.330000095419,response,ISIC_0068528.JPG,4,ISIC_3757004.JPG,ISIC_3757004.JPG,false,0,keypress(z),500,665472.5,665472.4000000954,660593.525,660607.0999999046,660610.07,665486.213,8,400,10,,ISIC_0068528.JPG
break,html.Screen,4_109_1,2023-09-11T19:15:23.769Z,,0,,,NaN,,,,,,false,,,,665473,665472.8000001907,,665472.5999999046,,665486.213,8,400,,,
break_continue,html.Screen,4_109_2,2023-09-11T19:15:23.769Z,,0,,,NaN,,,,,,false,,,,665473.3000001907,665473.0999999046,,665473.0999999046,,665486.213,8,400,,,
sequence,flow.Sequence,4_109,2023-09-11T19:15:23.769Z,,0,,,4863.029999904684,completion,,,,,false,,,,665473.3000001907,665473.0999999046,660593.525,660607.0999999046,660610.07,665486.213,8,400,,,
trial,html.Screen,4_110_0,2023-09-11T19:15:27.533Z,,0,3,,3751.3869999046437,response,ISIC_0054480.JPG,6,ISIC_0065283.JPG,ISIC_0065283.JPG,false,0,keypress(z),500,669237.6999998093,669237.5999999046,665469.52,665473.4000000954,665486.213,669243.433,8,400,11,,ISIC_0054480.JPG
break,html.Screen,4_110_1,2023-09-11T19:15:27.534Z,,0,,,NaN,,,,,,false,,,,669238.1999998093,669238.0999999046,,669237.8000001907,,669243.433,8,400,,,
break_continue,html.Screen,4_110_2,2023-09-11T19:15:27.534Z,,0,,,NaN,,,,,,false,,,,669238.4000000954,669238.3000001907,,669238.1999998093,,669243.433,8,400,,,
sequence,flow.Sequence,4_110,2023-09-11T19:15:27.534Z,,0,,,3752.087000190746,completion,,,,,false,,,,669238.5999999046,669238.3000001907,665469.52,665473.4000000954,665486.213,669243.433,8,400,,,
trial,html.Screen,4_111_0,2023-09-11T19:15:32.239Z,,0,3,,4700.166999904672,response,ISIC_0056501.JPG,6,ISIC_0962787.JPG,ISIC_0962787.JPG,false,0,keypress(z),500,673943.8000001907,673943.5999999046,669226.935,669238.5999999046,669243.433,673952.629,8,400,12,,ISIC_0056501.JPG
break,html.Screen,4_111_1,2023-09-11T19:15:32.240Z,,0,,,NaN,,,,,,false,,,,673944.0999999046,673944.0999999046,,673943.8000001907,,673952.629,8,400,,,
break_continue,html.Screen,4_111_2,2023-09-11T19:15:32.240Z,,0,,,NaN,,,,,,false,,,,673944.3000001907,673944.1999998093,,673944.1999998093,,673952.629,8,400,,,
sequence,flow.Sequence,4_111,2023-09-11T19:15:32.240Z,,0,,,4700.766999809304,completion,,,,,false,,,,673944.4000000954,673944.1999998093,669226.935,669238.5999999046,669243.433,673952.629,8,400,,,
trial,html.Screen,4_112_0,2023-09-11T19:15:36.918Z,,0,3,,4670.070999809308,response,ISIC_8588033.JPG,6,ISIC_3959570.JPG,ISIC_3959570.JPG,false,0,keypress(z),500,678622.8000001907,678622.6999998093,673936.01,673944.4000000954,673952.629,678628.386,8,400,13,,ISIC_8588033.JPG
break,html.Screen,4_112_1,2023-09-11T19:15:36.919Z,,0,,,NaN,,,,,,false,,,,678623.1999998093,678623.1999998093,,678622.9000000954,,678628.386,8,400,,,
break_continue,html.Screen,4_112_2,2023-09-11T19:15:36.919Z,,0,,,NaN,,,,,,false,,,,678623.4000000954,678623.4000000954,,678623.3000001907,,678628.386,8,400,,,
sequence,flow.Sequence,4_112,2023-09-11T19:15:36.919Z,,0,,,4670.77100009541,completion,,,,,false,,,,678623.5999999046,678623.4000000954,673936.01,673944.4000000954,673952.629,678628.386,8,400,,,
trial,html.Screen,4_113_0,2023-09-11T19:15:41.760Z,,0,3,,4836.213999904576,response,ISIC_4253346.JPG,6,ISIC_9409255.JPG,ISIC_9409255.JPG,false,0,keypress(z),500,683464.8000001907,683464.5999999046,678611.793,678623.5999999046,678628.386,683471.209,8,400,14,,ISIC_4253346.JPG
break,html.Screen,4_113_1,2023-09-11T19:15:41.762Z,,0,,,NaN,,,,,,false,,,,683466.0999999046,683465.6999998093,,683465.0999999046,,683471.209,8,400,,,
break_continue,html.Screen,4_113_2,2023-09-11T19:15:41.762Z,,0,,,NaN,,,,,,false,,,,683466.5999999046,683466.4000000954,,683466.1999998093,,683471.209,8,400,,,
sequence,flow.Sequence,4_113,2023-09-11T19:15:41.762Z,,0,,,4838.014000095311,completion,,,,,false,,,,683466.8000001907,683466.4000000954,678611.793,678623.5999999046,678628.386,683471.209,8,400,,,
trial,html.Screen,4_114_0,2023-09-11T19:15:46.182Z,,0,3,,4414.790999999968,response,ISIC_8969855.JPG,6,ISIC_0011960.JPG,ISIC_8969855.JPG,false,1,keypress(m),500,687886.3000001907,687886,683454.554,683466.9000000954,683471.209,687896.405,8,400,15,,ISIC_0011960.JPG
break,html.Screen,4_114_1,2023-09-11T19:15:46.183Z,,0,,,NaN,,,,,,false,,,,687887.4000000954,687887.0999999046,,687886.5,,687896.405,8,400,,,
break_continue,html.Screen,4_114_2,2023-09-11T19:15:46.183Z,,0,,,NaN,,,,,,false,,,,687887.9000000954,687887.6999998093,,687887.5999999046,,687896.405,8,400,,,
sequence,flow.Sequence,4_114,2023-09-11T19:15:46.184Z,,0,,,4416.4909998092335,completion,,,,,false,,,,687888,687887.6999998093,683454.554,683466.9000000954,683471.209,687896.405,8,400,,,
trial,html.Screen,4_115_0,2023-09-11T19:15:54.010Z,,0,3,,7817.794999809237,response,ISIC_3673517.JPG,5,ISIC_0003068.JPG,ISIC_0003068.JPG,false,0,keypress(z),500,695714.4000000954,695714.1999998093,687879.822,687888.1999998093,687896.405,695728.351,8,400,16,,ISIC_3673517.JPG
break,html.Screen,4_115_1,2023-09-11T19:15:54.011Z,,0,,,NaN,,,,,,false,,,,695715.5,695715.1999998093,,695714.6999998093,,695728.351,8,400,,,
break_continue,html.Screen,4_115_2,2023-09-11T19:15:54.012Z,,0,,,NaN,,,,,,false,,,,695716.3000001907,695716.0999999046,,695715.8000001907,,695728.351,8,400,,,
sequence,flow.Sequence,4_115,2023-09-11T19:15:54.012Z,,0,,,7819.694999904605,completion,,,,,false,,,,695716.5,695716.0999999046,687879.822,687888.0999999046,687896.405,695728.351,8,400,,,
trial,html.Screen,4_116_0,2023-09-11T19:15:59.045Z,,0,3,,5021.348999809241,response,ISIC_0059808.JPG,6,ISIC_0072773.JPG,ISIC_0072773.JPG,false,0,keypress(z),500,700749.9000000954,700749.6999998093,695711.815,695716.8000001907,695728.351,700754.742,8,400,17,,ISIC_0059808.JPG
break,html.Screen,4_116_1,2023-09-11T19:15:59.046Z,,0,,,NaN,,,,,,false,,,,700750.4000000954,700750.1999998093,,700749.9000000954,,700754.742,8,400,,,
break_continue,html.Screen,4_116_2,2023-09-11T19:15:59.046Z,,0,,,NaN,,,,,,false,,,,700750.6999998093,700750.6999998093,,700750.5999999046,,700754.742,8,400,,,
sequence,flow.Sequence,4_116,2023-09-11T19:15:59.046Z,,0,,,5022.348999809241,completion,,,,,false,,,,700750.8000001907,700750.6999998093,695711.815,695716.6999998093,695728.351,700754.742,8,400,,,
trial,html.Screen,4_117_0,2023-09-11T19:16:05.128Z,,0,3,,6077.158000095398,response,ISIC_0032993.JPG,5,ISIC_0030657.JPG,ISIC_0030657.JPG,false,0,keypress(z),500,706832,706831.9000000954,700738.201,700750.9000000954,700754.742,706833.243,8,400,18,,ISIC_0032993.JPG
break,html.Screen,4_117_1,2023-09-11T19:16:05.129Z,,0,,,NaN,,,,,,false,,,,706832.5,706832.3000001907,,706832.1999998093,,706833.243,8,400,,,
break_continue,html.Screen,4_117_2,2023-09-11T19:16:05.129Z,,0,,,NaN,,,,,,false,,,,706832.5999999046,706832.5999999046,,706832.5,,706833.243,8,400,,,
sequence,flow.Sequence,4_117,2023-09-11T19:16:05.129Z,,0,,,6077.857999904663,completion,,,,,false,,,,706832.6999998093,706832.5999999046,700738.201,700750.9000000954,700754.742,706833.243,8,400,,,
trial,html.Screen,4_118_0,2023-09-11T19:16:09.514Z,,0,3,,4384.356999904616,response,ISIC_9613570.JPG,6,ISIC_0034199.JPG,ISIC_9613570.JPG,false,1,keypress(m),500,711217.5999999046,711217.5999999046,706816.791,706832.6999998093,706833.243,711225.1,8,400,19,,ISIC_0034199.JPG
break,html.Screen,4_118_1,2023-09-11T19:16:09.514Z,,0,,,NaN,,,,,,false,,,,711218.0999999046,711217.9000000954,,711217.6999998093,,711225.1,8,400,,,
break_continue,html.Screen,4_118_2,2023-09-11T19:16:09.515Z,,0,,,NaN,,,,,,false,,,,711218.5,711218.4000000954,,711218.3000001907,,711225.1,8,400,,,
sequence,flow.Sequence,4_118,2023-09-11T19:16:09.515Z,,0,,,4385.157000095351,completion,,,,,false,,,,711218.5,711218.4000000954,706816.791,706832.6999998093,706833.243,711225.1,8,400,,,
trial,html.Screen,4_119_0,2023-09-11T19:16:13.804Z,,0,3,,4282.499999904656,response,ISIC_7570343.JPG,5,ISIC_7976934.JPG,ISIC_7976934.JPG,false,0,keypress(z),500,715507.9000000954,715507.5999999046,711208.557,711218.5999999046,711225.1,715516.934,8,400,20,,ISIC_7570343.JPG
break,html.Screen,4_119_1,2023-09-11T19:16:13.806Z,,0,,,NaN,,,,,,false,,,,715509.5999999046,715509,,715508.3000001907,,715516.934,8,400,,,
break_continue,html.Screen,4_119_2,2023-09-11T19:16:13.807Z,,0,,,NaN,,,,,,false,,,,715510.5,715510.3000001907,,715509.9000000954,,715516.934,8,400,,,
sequence,flow.Sequence,4_119,2023-09-11T19:16:13.807Z,,0,,,4285.200000190758,completion,,,,,false,,,,715510.9000000954,715510.3000001907,711208.557,711218.5,711225.1,715516.934,8,400,,,
trial,html.Screen,4_120_0,2023-09-11T19:16:20.354Z,,0,3,,6540.966000095359,response,ISIC_0011177.JPG,5,ISIC_6710082.JPG,ISIC_6710082.JPG,false,0,keypress(z),500,722058.1999998093,722057.9000000954,715500.224,715511.1999998093,715516.934,722063.002,8,400,21,,ISIC_0011177.JPG
break,html.Screen,4_120_1,2023-09-11T19:16:20.356Z,,0,,,NaN,,,,,,false,,,,722059.6999998093,722059.3000001907,,722058.5999999046,,722063.002,8,400,,,
break_continue,html.Screen,4_120_2,2023-09-11T19:16:20.357Z,,0,,,NaN,,,,,,false,,,,722060.3000001907,722060.1999998093,,722059.8000001907,,722063.002,8,400,,,
sequence,flow.Sequence,4_120,2023-09-11T19:16:20.357Z,,0,,,6543.265999809257,completion,,,,,false,,,,722060.5999999046,722060.1999998093,715500.224,715511.0999999046,715516.934,722063.002,8,400,,,
trial,html.Screen,4_121_0,2023-09-11T19:16:25.309Z,,0,3,,4949.697999809287,response,ISIC_0009931.JPG,5,ISIC_6090057.JPG,ISIC_6090057.JPG,false,0,keypress(z),500,727012.8000001907,727012.6999998093,722046.212,722060.8000001907,722063.002,727022.53,8,400,22,,ISIC_0009931.JPG
break,html.Screen,4_121_1,2023-09-11T19:16:25.310Z,,0,,,NaN,,,,,,false,,,,727013.4000000954,727013.1999998093,,727012.9000000954,,727022.53,8,400,,,
break_continue,html.Screen,4_121_2,2023-09-11T19:16:25.310Z,,0,,,NaN,,,,,,false,,,,727013.8000001907,727013.6999998093,,727013.5999999046,,727022.53,8,400,,,
sequence,flow.Sequence,4_121,2023-09-11T19:16:25.310Z,,0,,,4950.697999809287,completion,,,,,false,,,,727013.9000000954,727013.6999998093,722046.212,722060.8000001907,722063.002,727022.53,8,400,,,
trial,html.Screen,4_122_0,2023-09-11T19:16:30.067Z,,0,3,,4747.469999999972,response,ISIC_0055253.JPG,6,ISIC_4393521.JPG,ISIC_4393521.JPG,false,0,keypress(z),500,731770.3000001907,731770,727005.973,727013.9000000954,727022.53,731781.853,8,400,23,,ISIC_0055253.JPG
break,html.Screen,4_122_1,2023-09-11T19:16:30.067Z,,0,,,NaN,,,,,,false,,,,731771.0999999046,731770.9000000954,,731770.5,,731781.853,8,400,,,
break_continue,html.Screen,4_122_2,2023-09-11T19:16:30.068Z,,0,,,NaN,,,,,,false,,,,731771.5,731771.3000001907,,731771.1999998093,,731781.853,8,400,,,
sequence,flow.Sequence,4_122,2023-09-11T19:16:30.068Z,,0,,,4748.770000190707,completion,,,,,false,,,,731771.5,731771.3000001907,727005.973,727013.9000000954,727022.53,731781.853,8,400,,,
trial,html.Screen,4_123_0,2023-09-11T19:16:33.894Z,,0,3,,3816.24699990463,response,ISIC_0032762.JPG,5,ISIC_0033325.JPG,ISIC_0032762.JPG,false,1,keypress(m),500,735598.1999998093,735598.0999999046,731765.213,731771.6999998093,731781.853,735605.913,8,400,24,,ISIC_0033325.JPG
break,html.Screen,4_123_1,2023-09-11T19:16:33.895Z,,0,,,NaN,,,,,,false,,,,735598.9000000954,735598.6999998093,,735598.3000001907,,735605.913,8,400,,,
break_continue,html.Screen,4_123_2,2023-09-11T19:16:33.896Z,,0,,,NaN,,,,,,false,,,,735599.4000000954,735599.1999998093,,735599,,735605.913,8,400,,,
sequence,flow.Sequence,4_123,2023-09-11T19:16:33.896Z,,0,,,3817.3469998092623,completion,,,,,false,,,,735599.5,735599.1999998093,731765.213,731771.6999998093,731781.853,735605.913,8,400,,,
trial,html.Screen,4_124_0,2023-09-11T19:16:39.022Z,,0,3,,5119.286999809323,response,ISIC_0005494.JPG,5,ISIC_5315062.JPG,ISIC_0005494.JPG,false,1,keypress(m),500,740725.3000001907,740725.1999998093,735589.307,735599.5999999046,735605.913,740732.53,8,400,25,,ISIC_5315062.JPG
break,html.Screen,4_124_1,2023-09-11T19:16:39.022Z,,0,,,NaN,,,,,,false,,,,740725.8000001907,740725.6999998093,,740725.4000000954,,740732.53,8,400,,,
break_continue,html.Screen,4_124_2,2023-09-11T19:16:39.022Z,,0,,,NaN,,,,,,false,,,,740726,740725.9000000954,,740725.9000000954,,740732.53,8,400,,,
sequence,flow.Sequence,4_124,2023-09-11T19:16:39.022Z,,0,,,5119.987000095425,completion,,,,,false,,,,740726.0999999046,740725.9000000954,735589.307,735599.5999999046,735605.913,740732.53,8,400,,,
trial,html.Screen,4_125_0,2023-09-11T19:16:45.063Z,,0,3,,6033.770000190707,response,ISIC_0261253.JPG,4,ISIC_0034263.JPG,ISIC_0261253.JPG,false,1,keypress(m),500,746766.4000000954,746766.3000001907,740715.985,740726.0999999046,740732.53,746777.662,8,400,26,,ISIC_0034263.JPG
break,html.Screen,4_125_1,2023-09-11T19:16:45.063Z,,0,,,NaN,,,,,,false,,,,746767,746766.8000001907,,746766.5999999046,,746777.662,8,400,,,
