sender,sender_type,sender_id,timestamp,meta,,blockNo,condition,duration,ended_on,img_left,img_reveal,img_right,loser,practice,response,response_action,selection_duration,time_commit,time_end,time_render,time_run,time_show,time_switch,total_blocks,total_trials,trialNo,url,winner
informed_consent,html.Screen,0,2023-09-08T16:06:14.415Z,"{""labjs_version"":""20.2.4"",""labjs_build"":{""flavor"":""development"",""commit"":""f5b4a49f956347addd546a832a3327688c2c0fef""},""location"":""https://labjs.felixhenninger.com/api/labjs_preview/index.html"",""userAgent"":""Mozilla/5.0 (Windows NT 10.0; Win64; x64) AppleWebKit/537.36 (KHTML, like Gecko) Chrome/116.0.0.0 Safari/537.36"",""platform"":""Win32"",""language"":""en-AU"",""locale"":""en-US"",""timeZone"":""America/Chicago"",""timezoneOffset"":300,""screen_width"":2560,""screen_height"":1440,""scroll_width"":1294,""scroll_height"":1278,""window_innerWidth"":1294,""window_innerHeight"":1326,""devicePixelRatio"":1}",,,,60981.64800004768,response,,,,,,consent,click button,,61568.700000047684,61567.700000047684,569.253,640.2999999523163,586.052,61504.534,,,,{},
Welcome,html.Screen,1,2023-09-08T16:06:42.297Z,,,,regular,27945.366000095368,response,,,,,,continue,click button,,89450.5,89449.90000009537,61487.854,61568.90000009537,61504.534,89408.934,,,,,
trial,html.Screen,2_0_0,2023-09-08T16:06:48.990Z,,0,0,,6733.76600004769,response,ISIC_4679428.JPG,,ISIC_0061792.JPG,ISIC_4679428.JPG,true,1,keypress(m),500,96143.20000004768,96142.70000004768,89392.286,89450.60000014305,89408.934,96088.581,1,6,1,,ISIC_0061792.JPG
sequence,flow.Sequence,2_0,2023-09-08T16:06:48.990Z,,0,,,6733.76600004769,completion,,,,,true,,,,96143.79999995232,96142.70000004768,89392.286,89450.60000014305,89408.934,96088.581,1,6,,,
trial,html.Screen,2_1_0,2023-09-08T16:06:52.230Z,,0,0,,3294.7189999523107,response,ISIC_0776486.JPG,,ISIC_5199497.JPG,ISIC_0776486.JPG,true,1,keypress(m),500,99383.5,99383.29999995232,96071.919,96144,96088.581,99328.19,1,6,2,,ISIC_5199497.JPG
sequence,flow.Sequence,2_1,2023-09-08T16:06:52.230Z,,0,,,3294.7189999523107,completion,,,,,true,,,,99383.70000004768,99383.29999995232,96071.919,96144,96088.581,99328.19,1,6,,,
trial,html.Screen,2_2_0,2023-09-08T16:06:57.471Z,,0,0,,5296.109999952314,response,ISIC_2556187.JPG,,ISIC_8575776.JPG,ISIC_2556187.JPG,true,1,keypress(m),500,104624.90000009537,104624.29999995232,99311.571,99383.90000009537,99328.19,104572.087,1,6,3,,ISIC_8575776.JPG
sequence,flow.Sequence,2_2,2023-09-08T16:06:57.472Z,,0,,,5296.109999952314,completion,,,,,true,,,,104625.70000004768,104624.29999995232,99311.571,99383.79999995232,99328.19,104572.087,1,6,,,
trial,html.Screen,2_3_0,2023-09-08T16:07:00.840Z,,0,0,,3421.613000047684,response,ISIC_9238366.JPG,,ISIC_8141769.JPG,ISIC_8141769.JPG,true,0,keypress(z),500,107993.79999995232,107993.70000004768,104555.029,104627.60000014305,104572.087,107944.944,1,6,4,,ISIC_9238366.JPG
sequence,flow.Sequence,2_3,2023-09-08T16:07:00.841Z,,0,,,3421.613000047684,completion,,,,,true,,,,107994.29999995232,107993.70000004768,104555.029,104626.90000009537,104572.087,107944.944,1,6,,,
trial,html.Screen,2_4_0,2023-09-08T16:07:04.333Z,,0,0,,3542.055999999997,response,ISIC_9959593.JPG,,ISIC_8949026.JPG,ISIC_9959593.JPG,true,1,keypress(m),500,111487.10000014305,111487,107928.314,107994.40000009537,107944.944,111435.112,1,6,5,,ISIC_8949026.JPG
sequence,flow.Sequence,2_4,2023-09-08T16:07:04.334Z,,0,,,3542.055999999997,completion,,,,,true,,,,111487.20000004768,111487,107928.314,107994.29999995232,107944.944,111435.112,1,6,,,
trial,html.Screen,2_5_0,2023-09-08T16:07:07.793Z,,0,0,,3511.2880000953737,response,ISIC_0010479.JPG,,ISIC_0460240.JPG,ISIC_0010479.JPG,true,1,keypress(m),500,114946.79999995232,114946.40000009537,111418.492,111487.40000009537,111435.112,114891.769,1,6,6,,ISIC_0460240.JPG
sequence,flow.Sequence,2_5,2023-09-08T16:07:07.794Z,,0,,,3511.2880000953737,completion,,,,,true,,,,114947.5,114946.40000009537,111418.492,111487.29999995232,111435.112,114891.769,1,6,,,
loop,flow.Loop,2,2023-09-08T16:07:07.794Z,,,,,25537.466000095374,completion,,,,,true,,,,114947.79999995232,114946.40000009537,89392.286,89450.60000014305,89408.934,114891.769,1,6,,,
exp_instructions,html.Screen,3,2023-09-08T16:07:28.054Z,,,,,20314.83100014305,response,,,,,,continue,keypress(Space),,135206.90000009537,135206.60000014305,114875.33,114948.10000014305,114891.769,135147.867,,,,,
trial,html.Screen,4_0_0,2023-09-08T16:07:32.729Z,,0,1,,4734.333000047685,response,ISIC_5207050.JPG,5,ISIC_0032873.JPG,ISIC_0032873.JPG,false,0,keypress(z),500,139882.5,139882.20000004768,135131.14,135207.10000014305,135147.867,139840.349,8,400,1,,ISIC_5207050.JPG
break,html.Screen,4_0_1,2023-09-08T16:07:32.730Z,,0,,,NaN,,,,,,false,,,,139883.70000004768,139883.40000009537,,139882.70000004768,,139840.349,8,400,,,
break_continue,html.Screen,4_0_2,2023-09-08T16:07:32.731Z,,0,,,NaN,,,,,,false,,,,139884.20000004768,139884,,139883.79999995232,,139840.349,8,400,,,
sequence,flow.Sequence,4_0,2023-09-08T16:07:32.731Z,,0,,,4736.133000000002,completion,,,,,false,,,,139884.40000009537,139884,135131.14,135207.10000014305,135147.867,139840.349,8,400,,,
trial,html.Screen,4_1_0,2023-09-08T16:07:39.919Z,,0,1,,7231.351000047696,response,ISIC_0609067.JPG,5,ISIC_7287303.JPG,ISIC_0609067.JPG,false,1,keypress(m),500,147071.90000009537,147071.70000004768,139807.077,139884.60000014305,139840.349,147021.028,8,400,2,,ISIC_7287303.JPG
break,html.Screen,4_1_1,2023-09-08T16:07:39.920Z,,0,,,NaN,,,,,,false,,,,147072.70000004768,147072.5,,147072.20000004768,,147021.028,8,400,,,
break_continue,html.Screen,4_1_2,2023-09-08T16:07:39.920Z,,0,,,NaN,,,,,,false,,,,147073.10000014305,147073,,147072.90000009537,,147021.028,8,400,,,
sequence,flow.Sequence,4_1,2023-09-08T16:07:39.920Z,,0,,,7232.651000000013,completion,,,,,false,,,,147073.29999995232,147073,139807.077,139884.5,139840.349,147021.028,8,400,,,
trial,html.Screen,4_2_0,2023-09-08T16:07:46.289Z,,0,1,,6421.57200014306,response,ISIC_0054925.JPG,5,ISIC_6019374.JPG,ISIC_6019374.JPG,false,0,keypress(z),500,153442.70000004768,153442.60000014305,147004.355,147073.40000009537,147021.028,153383.452,8,400,3,,ISIC_0054925.JPG
break,html.Screen,4_2_1,2023-09-08T16:07:46.290Z,,0,,,NaN,,,,,,false,,,,153443.10000014305,153442.90000009537,,153442.79999995232,,153383.452,8,400,,,
break_continue,html.Screen,4_2_2,2023-09-08T16:07:46.290Z,,0,,,NaN,,,,,,false,,,,153443.20000004768,153443.20000004768,,153443.10000014305,,153383.452,8,400,,,
sequence,flow.Sequence,4_2,2023-09-08T16:07:46.290Z,,0,,,6422.172000047693,completion,,,,,false,,,,153443.40000009537,153443.20000004768,147004.355,147073.29999995232,147021.028,153383.452,8,400,,,
trial,html.Screen,4_3_0,2023-09-08T16:07:51.339Z,,0,1,,5108.347999952326,response,ISIC_0062401.JPG,5,ISIC_5422432.JPG,ISIC_0062401.JPG,false,1,keypress(m),500,158491.79999995232,158491.79999995232,153366.739,153443.40000009537,153383.452,158443.202,8,400,4,,ISIC_5422432.JPG
break,html.Screen,4_3_1,2023-09-08T16:07:51.339Z,,0,,,NaN,,,,,,false,,,,158492.10000014305,158492.10000014305,,158492,,158443.202,8,400,,,
break_continue,html.Screen,4_3_2,2023-09-08T16:07:51.339Z,,0,,,NaN,,,,,,false,,,,158492.29999995232,158492.20000004768,,158492.20000004768,,158443.202,8,400,,,
sequence,flow.Sequence,4_3,2023-09-08T16:07:51.339Z,,0,,,5108.7480000476935,completion,,,,,false,,,,158492.40000009537,158492.20000004768,153366.739,153443.40000009537,153383.452,158443.202,8,400,,,
trial,html.Screen,4_4_0,2023-09-08T16:07:56.621Z,,0,1,,5330.597999952326,response,ISIC_0068152.JPG,5,ISIC_0031582.JPG,ISIC_0068152.JPG,false,1,keypress(m),500,163774.10000014305,163773.79999995232,158426.464,158492.40000009537,158443.202,163720.184,8,400,5,,ISIC_0031582.JPG
break,html.Screen,4_4_1,2023-09-08T16:07:56.622Z,,0,,,NaN,,,,,,false,,,,163775.10000014305,163774.79999995232,,163774.40000009537,,163720.184,8,400,,,
break_continue,html.Screen,4_4_2,2023-09-08T16:07:56.622Z,,0,,,NaN,,,,,,false,,,,163775.5,163775.40000009537,,163775.20000004768,,163720.184,8,400,,,
sequence,flow.Sequence,4_4,2023-09-08T16:07:56.623Z,,0,,,5332.198000095377,completion,,,,,false,,,,163775.79999995232,163775.40000009537,158426.464,158492.40000009537,158443.202,163720.184,8,400,,,
trial,html.Screen,4_5_0,2023-09-08T16:08:02.824Z,,0,1,,6256.815999999992,response,ISIC_1254469.JPG,4,ISIC_0029216.JPG,ISIC_0029216.JPG,false,0,keypress(z),500,169977.10000014305,169977,163703.545,163776,163720.184,169915.537,8,400,6,,ISIC_1254469.JPG
break,html.Screen,4_5_1,2023-09-08T16:08:02.825Z,,0,,,NaN,,,,,,false,,,,169977.90000009537,169977.70000004768,,169977.40000009537,,169915.537,8,400,,,
break_continue,html.Screen,4_5_2,2023-09-08T16:08:02.825Z,,0,,,NaN,,,,,,false,,,,169978.20000004768,169978.20000004768,,169978,,169915.537,8,400,,,
sequence,flow.Sequence,4_5,2023-09-08T16:08:02.825Z,,0,,,6258.016000047675,completion,,,,,false,,,,169978.40000009537,169978.20000004768,163703.545,163775.90000009537,163720.184,169915.537,8,400,,,
trial,html.Screen,4_6_0,2023-09-08T16:08:08.571Z,,0,1,,5808.56300014304,response,ISIC_0786233.JPG,5,ISIC_5951430.JPG,ISIC_5951430.JPG,false,0,keypress(z),500,175724.29999995232,175724.10000014305,169898.926,169978.5,169915.537,175660.032,8,400,7,,ISIC_0786233.JPG
break,html.Screen,4_6_1,2023-09-08T16:08:08.571Z,,0,,,NaN,,,,,,false,,,,175724.60000014305,175724.60000014305,,175724.40000009537,,175660.032,8,400,,,
break_continue,html.Screen,4_6_2,2023-09-08T16:08:08.572Z,,0,,,NaN,,,,,,false,,,,175724.79999995232,175724.70000004768,,175724.70000004768,,175660.032,8,400,,,
sequence,flow.Sequence,4_6,2023-09-08T16:08:08.572Z,,0,,,5809.1630000476725,completion,,,,,false,,,,175724.90000009537,175724.70000004768,169898.926,169978.5,169915.537,175660.032,8,400,,,
trial,html.Screen,4_7_0,2023-09-08T16:08:13.925Z,,0,1,,5417.4679999999935,response,ISIC_5415749.JPG,5,ISIC_3950753.JPG,ISIC_5415749.JPG,false,1,keypress(m),500,181077.90000009537,181077.5,175643.449,175724.90000009537,175660.032,181020.496,8,400,8,,ISIC_3950753.JPG
break,html.Screen,4_7_1,2023-09-08T16:08:13.926Z,,0,,,NaN,,,,,,false,,,,181079.10000014305,181078.70000004768,,181078.29999995232,,181020.496,8,400,,,
break_continue,html.Screen,4_7_2,2023-09-08T16:08:13.927Z,,0,,,NaN,,,,,,false,,,,181079.79999995232,181079.60000014305,,181079.29999995232,,181020.496,8,400,,,
sequence,flow.Sequence,4_7,2023-09-08T16:08:13.927Z,,0,,,5419.568000143045,completion,,,,,false,,,,181080,181079.60000014305,175643.449,175724.90000009537,175660.032,181020.496,8,400,,,
trial,html.Screen,4_8_0,2023-09-08T16:08:18.558Z,,0,1,,4690.104000143037,response,ISIC_7530414.JPG,7,ISIC_9350507.JPG,ISIC_7530414.JPG,false,1,keypress(m),500,185710.70000004768,185710.60000014305,181003.909,181080.29999995232,181020.496,185662.815,8,400,9,,ISIC_9350507.JPG
break,html.Screen,4_8_1,2023-09-08T16:08:18.558Z,,0,,,NaN,,,,,,false,,,,185711.10000014305,185711,,185710.79999995232,,185662.815,8,400,,,
break_continue,html.Screen,4_8_2,2023-09-08T16:08:18.559Z,,0,,,NaN,,,,,,false,,,,185711.10000014305,185711.10000014305,,185711.10000014305,,185662.815,8,400,,,
sequence,flow.Sequence,4_8,2023-09-08T16:08:18.559Z,,0,,,4690.604000143037,completion,,,,,false,,,,185711.20000004768,185711.10000014305,181003.909,181080.20000004768,181020.496,185662.815,8,400,,,
trial,html.Screen,4_9_0,2023-09-08T16:08:24.497Z,,0,1,,5986.085000095365,response,ISIC_6036959.JPG,6,ISIC_0023811.JPG,ISIC_6036959.JPG,false,1,keypress(m),500,191649.10000014305,191648.90000009537,185646.097,185711.29999995232,185662.815,191591.057,8,400,10,,ISIC_0023811.JPG
break,html.Screen,4_9_1,2023-09-08T16:08:24.498Z,,0,,,NaN,,,,,,false,,,,191650.20000004768,191649.79999995232,,191649.40000009537,,191591.057,8,400,,,
break_continue,html.Screen,4_9_2,2023-09-08T16:08:24.498Z,,0,,,NaN,,,,,,false,,,,191650.70000004768,191650.5,,191650.29999995232,,191591.057,8,400,,,
sequence,flow.Sequence,4_9,2023-09-08T16:08:24.498Z,,0,,,5987.684999999998,completion,,,,,false,,,,191650.90000009537,191650.5,185646.097,185711.29999995232,185662.815,191591.057,8,400,,,
trial,html.Screen,4_10_0,2023-09-08T16:08:31.845Z,,0,1,,7405.742999952316,response,ISIC_9232153.JPG,5,ISIC_9475559.JPG,ISIC_9475559.JPG,false,0,keypress(z),500,198997.10000014305,198996.79999995232,191574.443,191651,191591.057,198938.667,8,400,11,,ISIC_9232153.JPG
break,html.Screen,4_10_1,2023-09-08T16:08:31.846Z,,0,,,NaN,,,,,,false,,,,198998.20000004768,198998,,198997.5,,198938.667,8,400,,,
break_continue,html.Screen,4_10_2,2023-09-08T16:08:31.846Z,,0,,,NaN,,,,,,false,,,,198999,198998.79999995232,,198998.60000014305,,198938.667,8,400,,,
sequence,flow.Sequence,4_10,2023-09-08T16:08:31.847Z,,0,,,7407.742999952316,completion,,,,,false,,,,198999.20000004768,198998.79999995232,191574.443,191651,191591.057,198938.667,8,400,,,
trial,html.Screen,4_11_0,2023-09-08T16:08:37.146Z,,0,1,,5359.933000143064,response,ISIC_0033738.JPG,5,ISIC_4610600.JPG,ISIC_0033738.JPG,false,1,keypress(m),500,204298.70000004768,204298.60000014305,198922.073,198999.5,198938.667,204249.025,8,400,12,,ISIC_4610600.JPG
break,html.Screen,4_11_1,2023-09-08T16:08:37.147Z,,0,,,NaN,,,,,,false,,,,204299.10000014305,204299,,204298.90000009537,,204249.025,8,400,,,
break_continue,html.Screen,4_11_2,2023-09-08T16:08:37.147Z,,0,,,NaN,,,,,,false,,,,204299.29999995232,204299.20000004768,,204299.20000004768,,204249.025,8,400,,,
sequence,flow.Sequence,4_11,2023-09-08T16:08:37.147Z,,0,,,5360.533000047697,completion,,,,,false,,,,204299.40000009537,204299.20000004768,198922.073,198999.40000009537,198938.667,204249.025,8,400,,,
trial,html.Screen,4_12_0,2023-09-08T16:08:41.218Z,,0,1,,4120.075000143057,response,ISIC_8732757.JPG,5,ISIC_9829436.JPG,ISIC_8732757.JPG,false,1,keypress(m),500,208370.29999995232,208369.10000014305,204232.489,204299.5,204249.025,208307.123,8,400,13,,ISIC_9829436.JPG
break,html.Screen,4_12_1,2023-09-08T16:08:41.222Z,,0,,,NaN,,,,,,false,,,,208374.20000004768,208372.60000014305,,208371.10000014305,,208307.123,8,400,,,
break_continue,html.Screen,4_12_2,2023-09-08T16:08:41.222Z,,0,,,NaN,,,,,,false,,,,208375,208374.79999995232,,208374.5,,208307.123,8,400,,,
sequence,flow.Sequence,4_12,2023-09-08T16:08:41.223Z,,0,,,4125.774999952322,completion,,,,,false,,,,208375.29999995232,208374.79999995232,204232.489,204299.40000009537,204249.025,208307.123,8,400,,,
trial,html.Screen,4_13_0,2023-09-08T16:08:47.609Z,,0,1,,6454.777000095375,response,ISIC_0068525.JPG,4,ISIC_5823292.JPG,ISIC_0068525.JPG,false,1,keypress(m),500,214761.90000009537,214761.90000009537,208290.252,208375.60000014305,208307.123,214702.719,8,400,14,,ISIC_5823292.JPG
break,html.Screen,4_13_1,2023-09-08T16:08:47.610Z,,0,,,NaN,,,,,,false,,,,214762.29999995232,214762.20000004768,,214762,,214702.719,8,400,,,
break_continue,html.Screen,4_13_2,2023-09-08T16:08:47.610Z,,0,,,NaN,,,,,,false,,,,214762.5,214762.40000009537,,214762.40000009537,,214702.719,8,400,,,
sequence,flow.Sequence,4_13,2023-09-08T16:08:47.610Z,,0,,,6455.277000095375,completion,,,,,false,,,,214762.60000014305,214762.40000009537,208290.252,208375.5,208307.123,214702.719,8,400,,,
trial,html.Screen,4_14_0,2023-09-08T16:08:52.379Z,,0,1,,4828.981000047672,response,ISIC_0026398.JPG,5,ISIC_0072828.JPG,ISIC_0072828.JPG,false,0,keypress(z),500,219532,219531.70000004768,214686.109,214762.70000004768,214702.719,219478.795,8,400,15,,ISIC_0026398.JPG
break,html.Screen,4_14_1,2023-09-08T16:08:52.380Z,,0,,,NaN,,,,,,false,,,,219532.90000009537,219532.60000014305,,219532.20000004768,,219478.795,8,400,,,
break_continue,html.Screen,4_14_2,2023-09-08T16:08:52.381Z,,0,,,NaN,,,,,,false,,,,219533.20000004768,219533.10000014305,,219532.90000009537,,219478.795,8,400,,,
sequence,flow.Sequence,4_14,2023-09-08T16:08:52.381Z,,0,,,4830.381000143039,completion,,,,,false,,,,219533.5,219533.10000014305,214686.109,214762.70000004768,214702.719,219478.795,8,400,,,
trial,html.Screen,4_15_0,2023-09-08T16:08:56.946Z,,0,1,,4619.204999999987,response,ISIC_5608998.JPG,5,ISIC_0058753.JPG,ISIC_0058753.JPG,false,0,keypress(z),500,224098.10000014305,224098,219462.037,219533.60000014305,219478.795,224037.569,8,400,16,,ISIC_5608998.JPG
break,html.Screen,4_15_1,2023-09-08T16:08:56.946Z,,0,,,NaN,,,,,,false,,,,224098.70000004768,224098.5,,224098.40000009537,,224037.569,8,400,,,
break_continue,html.Screen,4_15_2,2023-09-08T16:08:56.947Z,,0,,,NaN,,,,,,false,,,,224099.10000014305,224099,,224098.90000009537,,224037.569,8,400,,,
sequence,flow.Sequence,4_15,2023-09-08T16:08:56.947Z,,0,,,4620.204999999987,completion,,,,,false,,,,224099.29999995232,224099,219462.037,219533.60000014305,219478.795,224037.569,8,400,,,
trial,html.Screen,4_16_0,2023-09-08T16:09:02.372Z,,0,1,,5487.131000047695,response,ISIC_0033154.JPG,5,ISIC_0025648.JPG,ISIC_0033154.JPG,false,1,keypress(m),500,229524.70000004768,229524.70000004768,224020.943,224099.29999995232,224037.569,229481.676,8,400,17,,ISIC_0025648.JPG
break,html.Screen,4_16_1,2023-09-08T16:09:02.373Z,,0,,,NaN,,,,,,false,,,,229525.10000014305,229525,,229524.90000009537,,229481.676,8,400,,,
break_continue,html.Screen,4_16_2,2023-09-08T16:09:02.373Z,,0,,,NaN,,,,,,false,,,,229525.20000004768,229525.20000004768,,229525.10000014305,,229481.676,8,400,,,
sequence,flow.Sequence,4_16,2023-09-08T16:09:02.373Z,,0,,,5487.631000047695,completion,,,,,false,,,,229525.29999995232,229525.20000004768,224020.943,224099.29999995232,224037.569,229481.676,8,400,,,
trial,html.Screen,4_17_0,2023-09-08T16:09:07.981Z,,0,1,,5651.724000095361,response,ISIC_2276141.JPG,5,ISIC_0066882.JPG,ISIC_0066882.JPG,false,0,keypress(z),500,235133.40000009537,235133.40000009537,229464.806,229525.29999995232,229481.676,235092.496,8,400,18,,ISIC_2276141.JPG
break,html.Screen,4_17_1,2023-09-08T16:09:07.981Z,,0,,,NaN,,,,,,false,,,,235133.79999995232,235133.70000004768,,235133.60000014305,,235092.496,8,400,,,
break_continue,html.Screen,4_17_2,2023-09-08T16:09:07.982Z,,0,,,NaN,,,,,,false,,,,235134.10000014305,235134,,235133.90000009537,,235092.496,8,400,,,
sequence,flow.Sequence,4_17,2023-09-08T16:09:07.982Z,,0,,,5652.323999999993,completion,,,,,false,,,,235134.10000014305,235134,229464.806,229525.29999995232,229481.676,235092.496,8,400,,,
trial,html.Screen,4_18_0,2023-09-08T16:09:15.615Z,,0,1,,7674.604000143037,response,ISIC_0029950.JPG,5,ISIC_5789263.JPG,ISIC_5789263.JPG,false,0,keypress(z),500,242767.29999995232,242767.10000014305,235075.734,235134.10000014305,235092.496,242707.171,8,400,19,,ISIC_0029950.JPG
break,html.Screen,4_18_1,2023-09-08T16:09:15.616Z,,0,,,NaN,,,,,,false,,,,242767.90000009537,242767.70000004768,,242767.5,,242707.171,8,400,,,
break_continue,html.Screen,4_18_2,2023-09-08T16:09:15.616Z,,0,,,NaN,,,,,,false,,,,242768.29999995232,242768.29999995232,,242768,,242707.171,8,400,,,
sequence,flow.Sequence,4_18,2023-09-08T16:09:15.616Z,,0,,,7675.803999952303,completion,,,,,false,,,,242768.40000009537,242768.29999995232,235075.734,235134.10000014305,235092.496,242707.171,8,400,,,
trial,html.Screen,4_19_0,2023-09-08T16:09:21.467Z,,0,1,,5911.328999999998,response,ISIC_7053271.JPG,5,ISIC_1496194.JPG,ISIC_1496194.JPG,false,0,keypress(z),500,248618.79999995232,248618.5,242690.59,242768.60000014305,242707.171,248568.679,8,400,20,,ISIC_7053271.JPG
break,html.Screen,4_19_1,2023-09-08T16:09:21.467Z,,0,,,NaN,,,,,,false,,,,248619.5,248619.40000009537,,248618.79999995232,,248568.679,8,400,,,
break_continue,html.Screen,4_19_2,2023-09-08T16:09:21.468Z,,0,,,NaN,,,,,,false,,,,248619.70000004768,248619.70000004768,,248619.70000004768,,248568.679,8,400,,,
sequence,flow.Sequence,4_19,2023-09-08T16:09:21.468Z,,0,,,5912.529000047682,completion,,,,,false,,,,248619.79999995232,248619.70000004768,242690.59,242768.60000014305,242707.171,248568.679,8,400,,,
trial,html.Screen,4_20_0,2023-09-08T16:09:27.756Z,,0,1,,6339.620999952313,response,ISIC_6899527.JPG,5,ISIC_0072496.JPG,ISIC_0072496.JPG,false,0,keypress(z),500,254908.5,254908.29999995232,248551.881,248619.90000009537,248568.679,254864.234,8,400,21,,ISIC_6899527.JPG
break,html.Screen,4_20_1,2023-09-08T16:09:27.757Z,,0,,,NaN,,,,,,false,,,,254909.10000014305,254908.79999995232,,254908.70000004768,,254864.234,8,400,,,
break_continue,html.Screen,4_20_2,2023-09-08T16:09:27.757Z,,0,,,NaN,,,,,,false,,,,254909.5,254909.20000004768,,254909.20000004768,,254864.234,8,400,,,
sequence,flow.Sequence,4_20,2023-09-08T16:09:27.757Z,,0,,,6340.52100004768,completion,,,,,false,,,,254909.60000014305,254909.20000004768,248551.881,248619.90000009537,248568.679,254864.234,8,400,,,
trial,html.Screen,4_21_0,2023-09-08T16:09:31.520Z,,0,1,,3807.5659999523195,response,ISIC_0028086.JPG,6,ISIC_0028910.JPG,ISIC_0028086.JPG,false,1,keypress(m),500,258672,258671.79999995232,254847.422,254909.70000004768,254864.234,258621.497,8,400,22,,ISIC_0028910.JPG
break,html.Screen,4_21_1,2023-09-08T16:09:31.520Z,,0,,,NaN,,,,,,false,,,,258672.20000004768,258672.20000004768,,258672.10000014305,,258621.497,8,400,,,
break_continue,html.Screen,4_21_2,2023-09-08T16:09:31.520Z,,0,,,NaN,,,,,,false,,,,258672.5,258672.5,,258672.40000009537,,258621.497,8,400,,,
sequence,flow.Sequence,4_21,2023-09-08T16:09:31.520Z,,0,,,3808.2660000000033,completion,,,,,false,,,,258672.60000014305,258672.5,254847.422,254909.70000004768,254864.234,258621.497,8,400,,,
trial,html.Screen,4_22_0,2023-09-08T16:09:36.962Z,,0,1,,5491.903000095364,response,ISIC_1776777.JPG,5,ISIC_0025500.JPG,ISIC_0025500.JPG,false,0,keypress(z),500,264114,264113.40000009537,258604.751,258672.60000014305,258621.497,264065.453,8,400,23,,ISIC_1776777.JPG
break,html.Screen,4_22_1,2023-09-08T16:09:36.966Z,,0,,,NaN,,,,,,false,,,,264118.2000000477,264117.5,,264115.7999999523,,264065.453,8,400,,,
break_continue,html.Screen,4_22_2,2023-09-08T16:09:36.967Z,,0,,,NaN,,,,,,false,,,,264119.2999999523,264118.7999999523,,264118.5,,264065.453,8,400,,,
sequence,flow.Sequence,4_22,2023-09-08T16:09:36.968Z,,0,,,5497.302999952313,completion,,,,,false,,,,264119.7000000477,264118.7999999523,258604.751,258672.60000014305,258621.497,264065.453,8,400,,,
trial,html.Screen,4_23_0,2023-09-08T16:09:41.242Z,,0,1,,4328.447000095388,response,ISIC_5297660.JPG,5,ISIC_3961647.JPG,ISIC_3961647.JPG,false,0,keypress(z),500,268394,268393.90000009537,264048.781,264120.10000014305,264065.453,268357.099,8,400,24,,ISIC_5297660.JPG
break,html.Screen,4_23_1,2023-09-08T16:09:41.242Z,,0,,,NaN,,,,,,false,,,,268394.40000009537,268394.2999999523,,268394.2000000477,,268357.099,8,400,,,
break_continue,html.Screen,4_23_2,2023-09-08T16:09:41.242Z,,0,,,NaN,,,,,,false,,,,268394.60000014305,268394.5,,268394.5,,268357.099,8,400,,,
sequence,flow.Sequence,4_23,2023-09-08T16:09:41.242Z,,0,,,4329.0470000000205,completion,,,,,false,,,,268394.7000000477,268394.5,264048.781,264120,264065.453,268357.099,8,400,,,
trial,html.Screen,4_24_0,2023-09-08T16:09:46.172Z,,0,1,,4966.700999952329,response,ISIC_0010705.JPG,5,ISIC_0813342.JPG,ISIC_0813342.JPG,false,0,keypress(z),500,273323.90000009537,273323.7999999523,268340.361,268394.7999999523,268357.099,273266.587,8,400,25,,ISIC_0010705.JPG
break,html.Screen,4_24_1,2023-09-08T16:09:46.172Z,,0,,,NaN,,,,,,false,,,,273324.2999999523,273324.10000014305,,273324,,273266.587,8,400,,,
break_continue,html.Screen,4_24_2,2023-09-08T16:09:46.172Z,,0,,,NaN,,,,,,false,,,,273324.5,273324.40000009537,,273324.2999999523,,273266.587,8,400,,,
sequence,flow.Sequence,4_24,2023-09-08T16:09:46.172Z,,0,,,4967.30100009538,completion,,,,,false,,,,273324.5,273324.40000009537,268340.361,268394.7000000477,268357.099,273266.587,8,400,,,
trial,html.Screen,4_25_0,2023-09-08T16:09:54.078Z,,0,1,,7963.113000047684,response,ISIC_1585370.JPG,5,ISIC_0059350.JPG,ISIC_0059350.JPG,false,0,keypress(z),500,281229.7999999523,281229.7000000477,273249.938,273324.5,273266.587,281165.388,8,400,26,,ISIC_1585370.JPG
break,html.Screen,4_25_1,2023-09-08T16:09:54.078Z,,0,,,NaN,,,,,,false,,,,281230.60000014305,281230.2999999523,,281230,,281165.388,8,400,,,
break_continue,html.Screen,4_25_2,2023-09-08T16:09:54.079Z,,0,,,NaN,,,,,,false,,,,281230.90000009537,281230.7999999523,,281230.7000000477,,281165.388,8,400,,,
sequence,flow.Sequence,4_25,2023-09-08T16:09:54.079Z,,0,,,7964.212999952317,completion,,,,,false,,,,281231.10000014305,281230.7999999523,273249.938,273324.5,273266.587,281165.388,8,400,,,
trial,html.Screen,4_26_0,2023-09-08T16:10:00.096Z,,0,1,,6082.8120000477065,response,ISIC_3690890.JPG,4,ISIC_3857463.JPG,ISIC_3857463.JPG,false,0,keypress(z),500,287248.2999999523,287248.2000000477,281148.734,281231.2000000477,281165.388,287193.771,8,400,27,,ISIC_3690890.JPG
break,html.Screen,4_26_1,2023-09-08T16:10:00.096Z,,0,,,NaN,,,,,,false,,,,287248.7000000477,287248.60000014305,,287248.40000009537,,287193.771,8,400,,,
break_continue,html.Screen,4_26_2,2023-09-08T16:10:00.097Z,,0,,,NaN,,,,,,false,,,,287249,287248.7999999523,,287248.7999999523,,287193.771,8,400,,,
sequence,flow.Sequence,4_26,2023-09-08T16:10:00.097Z,,0,,,6083.411999952339,completion,,,,,false,,,,287249.10000014305,287248.7999999523,281148.734,281231.2000000477,281165.388,287193.771,8,400,,,
trial,html.Screen,4_27_0,2023-09-08T16:10:06.307Z,,0,1,,6264.929000047676,response,ISIC_0032750.JPG,5,ISIC_5298216.JPG,ISIC_0032750.JPG,false,1,keypress(m),500,293459,293458.7000000477,287177.203,287249.2000000477,287193.771,293405.816,8,400,28,,ISIC_5298216.JPG
break,html.Screen,4_27_1,2023-09-08T16:10:06.307Z,,0,,,NaN,,,,,,false,,,,293459.5,293459.40000009537,,293459.10000014305,,293405.816,8,400,,,
break_continue,html.Screen,4_27_2,2023-09-08T16:10:06.308Z,,0,,,NaN,,,,,,false,,,,293459.7000000477,293459.7000000477,,293459.60000014305,,293405.816,8,400,,,
sequence,flow.Sequence,4_27,2023-09-08T16:10:06.308Z,,0,,,6265.929000047676,completion,,,,,false,,,,293459.90000009537,293459.7000000477,287177.203,287249.10000014305,287193.771,293405.816,8,400,,,
trial,html.Screen,4_28_0,2023-09-08T16:10:10.950Z,,0,1,,4696.184000000008,response,ISIC_0055820.JPG,5,ISIC_1004416.JPG,ISIC_0055820.JPG,false,1,keypress(m),500,298102.10000014305,298102,293389.123,293460,293405.816,298048.189,8,400,29,,ISIC_1004416.JPG
break,html.Screen,4_28_1,2023-09-08T16:10:10.950Z,,0,,,NaN,,,,,,false,,,,298102.40000009537,298102.40000009537,,298102.2000000477,,298048.189,8,400,,,
break_continue,html.Screen,4_28_2,2023-09-08T16:10:10.951Z,,0,,,NaN,,,,,,false,,,,298102.7000000477,298102.60000014305,,298102.60000014305,,298048.189,8,400,,,
sequence,flow.Sequence,4_28,2023-09-08T16:10:10.951Z,,0,,,4696.7840001430595,completion,,,,,false,,,,298102.7999999523,298102.60000014305,293389.123,293459.90000009537,293405.816,298048.189,8,400,,,
trial,html.Screen,4_29_0,2023-09-08T16:10:15.577Z,,0,1,,4680.610999952303,response,ISIC_0014229.JPG,5,ISIC_0054146.JPG,ISIC_0054146.JPG,false,0,keypress(z),500,302729,302728.7999999523,298031.549,298102.90000009537,298048.189,302690.641,8,400,30,,ISIC_0014229.JPG
break,html.Screen,4_29_1,2023-09-08T16:10:15.578Z,,0,,,NaN,,,,,,false,,,,302729.5,302729.2999999523,,302729.2000000477,,302690.641,8,400,,,
break_continue,html.Screen,4_29_2,2023-09-08T16:10:15.578Z,,0,,,NaN,,,,,,false,,,,302729.7000000477,302729.60000014305,,302729.60000014305,,302690.641,8,400,,,
sequence,flow.Sequence,4_29,2023-09-08T16:10:15.578Z,,0,,,4681.411000143038,completion,,,,,false,,,,302729.7999999523,302729.60000014305,298031.549,298102.7999999523,298048.189,302690.641,8,400,,,
trial,html.Screen,4_30_0,2023-09-08T16:10:20.771Z,,0,1,,5231.759000095364,response,ISIC_4446385.JPG,5,ISIC_5278307.JPG,ISIC_5278307.JPG,false,0,keypress(z),500,307922.60000014305,307922.40000009537,302673.915,302729.90000009537,302690.641,307884.147,8,400,31,,ISIC_4446385.JPG
break,html.Screen,4_30_1,2023-09-08T16:10:20.771Z,,0,,,NaN,,,,,,false,,,,307923.10000014305,307923,,307922.7999999523,,307884.147,8,400,,,
break_continue,html.Screen,4_30_2,2023-09-08T16:10:20.772Z,,0,,,NaN,,,,,,false,,,,307923.40000009537,307923.40000009537,,307923.2000000477,,307884.147,8,400,,,
sequence,flow.Sequence,4_30,2023-09-08T16:10:20.772Z,,0,,,5232.759000095364,completion,,,,,false,,,,307923.5,307923.40000009537,302673.915,302729.7999999523,302690.641,307884.147,8,400,,,
trial,html.Screen,4_31_0,2023-09-08T16:10:24.775Z,,0,1,,4042.152999952319,response,ISIC_0057180.JPG,6,ISIC_1654318.JPG,ISIC_0057180.JPG,false,1,keypress(m),500,311926.7000000477,311926.2999999523,307867.488,307923.5,307884.147,311891.955,8,400,32,,ISIC_1654318.JPG
break,html.Screen,4_31_1,2023-09-08T16:10:24.776Z,,0,,,NaN,,,,,,false,,,,311927.5,311927.2999999523,,311926.90000009537,,311891.955,8,400,,,
break_continue,html.Screen,4_31_2,2023-09-08T16:10:24.776Z,,0,,,NaN,,,,,,false,,,,311928,311927.90000009537,,311927.7000000477,,311891.955,8,400,,,
sequence,flow.Sequence,4_31,2023-09-08T16:10:24.776Z,,0,,,4043.75300009537,completion,,,,,false,,,,311928.2000000477,311927.90000009537,307867.488,307923.5,307884.147,311891.955,8,400,,,
trial,html.Screen,4_32_0,2023-09-08T16:10:28.747Z,,0,1,,4006.8449999523,response,ISIC_7518524.JPG,4,ISIC_5988539.JPG,ISIC_5988539.JPG,false,0,keypress(z),500,315898.90000009537,315898.7999999523,311875.161,311928.40000009537,311891.955,315849.585,8,400,33,,ISIC_7518524.JPG
break,html.Screen,4_32_1,2023-09-08T16:10:28.748Z,,0,,,NaN,,,,,,false,,,,315899.2999999523,315899.2000000477,,315899.10000014305,,315849.585,8,400,,,
break_continue,html.Screen,4_32_2,2023-09-08T16:10:28.748Z,,0,,,NaN,,,,,,false,,,,315899.40000009537,315899.40000009537,,315899.40000009537,,315849.585,8,400,,,
sequence,flow.Sequence,4_32,2023-09-08T16:10:28.748Z,,0,,,4007.445000095351,completion,,,,,false,,,,315899.40000009537,315899.40000009537,311875.161,311928.2999999523,311891.955,315849.585,8,400,,,
trial,html.Screen,4_33_0,2023-09-08T16:10:33.677Z,,0,1,,4978.51500014303,response,ISIC_7604596.JPG,6,ISIC_0929483.JPG,ISIC_0929483.JPG,false,0,keypress(z),500,320828.2999999523,320828.10000014305,315832.852,315899.60000014305,315849.585,320775.804,8,400,34,,ISIC_7604596.JPG
break,html.Screen,4_33_1,2023-09-08T16:10:33.677Z,,0,,,NaN,,,,,,false,,,,320828.7999999523,320828.7000000477,,320828.40000009537,,320775.804,8,400,,,
break_continue,html.Screen,4_33_2,2023-09-08T16:10:33.677Z,,0,,,NaN,,,,,,false,,,,320829.2000000477,320829.10000014305,,320828.90000009537,,320775.804,8,400,,,
sequence,flow.Sequence,4_33,2023-09-08T16:10:33.677Z,,0,,,4979.51500014303,completion,,,,,false,,,,320829.2999999523,320829.10000014305,315832.852,315899.5,315849.585,320775.804,8,400,,,
trial,html.Screen,4_34_0,2023-09-08T16:10:38.975Z,,0,1,,5351.096000095364,response,ISIC_1251639.JPG,5,ISIC_4798962.JPG,ISIC_1251639.JPG,false,1,keypress(m),500,326127.10000014305,326126.90000009537,320759.084,320829.2999999523,320775.804,326069.39,8,400,35,,ISIC_4798962.JPG
break,html.Screen,4_34_1,2023-09-08T16:10:38.976Z,,0,,,NaN,,,,,,false,,,,326127.40000009537,326127.2999999523,,326127.2000000477,,326069.39,8,400,,,
break_continue,html.Screen,4_34_2,2023-09-08T16:10:38.976Z,,0,,,NaN,,,,,,false,,,,326127.5,326127.5,,326127.40000009537,,326069.39,8,400,,,
sequence,flow.Sequence,4_34,2023-09-08T16:10:38.976Z,,0,,,5351.695999999996,completion,,,,,false,,,,326127.60000014305,326127.5,320759.084,320829.2999999523,320775.804,326069.39,8,400,,,
trial,html.Screen,4_35_0,2023-09-08T16:10:43.537Z,,0,1,,4618.909999952302,response,ISIC_4044751.JPG,6,ISIC_0595080.JPG,ISIC_4044751.JPG,false,1,keypress(m),500,330688.5,330688.2999999523,326052.69,326127.7000000477,326069.39,330628.423,8,400,36,,ISIC_0595080.JPG
break,html.Screen,4_35_1,2023-09-08T16:10:43.537Z,,0,,,NaN,,,,,,false,,,,330688.90000009537,330688.90000009537,,330688.7000000477,,330628.423,8,400,,,
break_continue,html.Screen,4_35_2,2023-09-08T16:10:43.537Z,,0,,,NaN,,,,,,false,,,,330689.2000000477,330689.10000014305,,330689,,330628.423,8,400,,,
sequence,flow.Sequence,4_35,2023-09-08T16:10:43.537Z,,0,,,4619.710000143037,completion,,,,,false,,,,330689.2000000477,330689.10000014305,326052.69,326127.7000000477,326069.39,330628.423,8,400,,,
trial,html.Screen,4_36_0,2023-09-08T16:10:48.820Z,,0,1,,5342.977000095358,response,ISIC_7198887.JPG,4,ISIC_8566006.JPG,ISIC_8566006.JPG,false,0,keypress(z),500,335971.7999999523,335971.40000009537,330611.723,330689.2999999523,330628.423,335922.148,8,400,37,,ISIC_7198887.JPG
break,html.Screen,4_36_1,2023-09-08T16:10:48.821Z,,0,,,NaN,,,,,,false,,,,335973.10000014305,335972.60000014305,,335972.2000000477,,335922.148,8,400,,,
break_continue,html.Screen,4_36_2,2023-09-08T16:10:48.822Z,,0,,,NaN,,,,,,false,,,,335973.7000000477,335973.5,,335973.2999999523,,335922.148,8,400,,,
sequence,flow.Sequence,4_36,2023-09-08T16:10:48.822Z,,0,,,5345.07699999999,completion,,,,,false,,,,335974,335973.5,330611.723,330689.2999999523,330628.423,335922.148,8,400,,,
trial,html.Screen,4_37_0,2023-09-08T16:10:56.553Z,,0,1,,7782.252000095381,response,ISIC_0065022.JPG,4,ISIC_0033834.JPG,ISIC_0033834.JPG,false,0,keypress(z),500,343704.7999999523,343704.40000009537,335905.381,335974.2999999523,335922.148,343653.589,8,400,38,,ISIC_0065022.JPG
break,html.Screen,4_37_1,2023-09-08T16:10:56.554Z,,0,,,NaN,,,,,,false,,,,343705.90000009537,343705.5,,343705.10000014305,,343653.589,8,400,,,
break_continue,html.Screen,4_37_2,2023-09-08T16:10:56.555Z,,0,,,NaN,,,,,,false,,,,343706.5,343706.2999999523,,343706.10000014305,,343653.589,8,400,,,
sequence,flow.Sequence,4_37,2023-09-08T16:10:56.555Z,,0,,,7784.15199995233,completion,,,,,false,,,,343706.7999999523,343706.2999999523,335905.381,335974.2000000477,335922.148,343653.589,8,400,,,
trial,html.Screen,4_38_0,2023-09-08T16:11:02.386Z,,0,1,,5884.210999952338,response,ISIC_3734674.JPG,5,ISIC_0014308.JPG,ISIC_0014308.JPG,false,0,keypress(z),500,349538.2000000477,349537.7999999523,343636.949,343707,343653.589,349481.692,8,400,39,,ISIC_3734674.JPG
break,html.Screen,4_38_1,2023-09-08T16:11:02.388Z,,0,,,NaN,,,,,,false,,,,349539.2999999523,349539.10000014305,,349538.60000014305,,349481.692,8,400,,,
break_continue,html.Screen,4_38_2,2023-09-08T16:11:02.388Z,,0,,,NaN,,,,,,false,,,,349540.10000014305,349539.90000009537,,349539.7000000477,,349481.692,8,400,,,
sequence,flow.Sequence,4_38,2023-09-08T16:11:02.389Z,,0,,,5886.311000095389,completion,,,,,false,,,,349540.40000009537,349539.90000009537,343636.949,343706.90000009537,343653.589,349481.692,8,400,,,
trial,html.Screen,4_39_0,2023-09-08T16:11:07.784Z,,0,1,,5453.7080000953865,response,ISIC_6640753.JPG,5,ISIC_1002979.JPG,ISIC_1002979.JPG,false,0,keypress(z),500,354935.7000000477,354935.40000009537,349465.106,349540.7000000477,349481.692,354875.482,8,400,40,,ISIC_6640753.JPG
break,html.Screen,4_39_1,2023-09-08T16:11:07.785Z,,0,,,NaN,,,,,,false,,,,354936.7000000477,354936.40000009537,,354936.10000014305,,354875.482,8,400,,,
break_continue,html.Screen,4_39_2,2023-09-08T16:11:07.785Z,,0,,,NaN,,,,,,false,,,,354937.2000000477,354937.10000014305,,354936.90000009537,,354875.482,8,400,,,
sequence,flow.Sequence,4_39,2023-09-08T16:11:07.786Z,,0,,,5455.40800014307,completion,,,,,false,,,,354937.40000009537,354937.10000014305,349465.106,349540.60000014305,349481.692,354875.482,8,400,,,
trial,html.Screen,4_40_0,2023-09-08T16:11:12.670Z,,0,1,,4946.618000143033,response,ISIC_7008969.JPG,5,ISIC_0056677.JPG,ISIC_0056677.JPG,false,0,keypress(z),500,359822.2999999523,359822.10000014305,354858.842,354937.60000014305,354875.482,359768.344,8,400,41,,ISIC_7008969.JPG
break,html.Screen,4_40_1,2023-09-08T16:11:12.671Z,,0,,,NaN,,,,,,false,,,,359822.60000014305,359822.5,,359822.2999999523,,359768.344,8,400,,,
break_continue,html.Screen,4_40_2,2023-09-08T16:11:12.671Z,,0,,,NaN,,,,,,false,,,,359822.7999999523,359822.7000000477,,359822.60000014305,,359768.344,8,400,,,
sequence,flow.Sequence,4_40,2023-09-08T16:11:12.671Z,,0,,,4947.218000047666,completion,,,,,false,,,,359822.90000009537,359822.7000000477,354858.842,354937.5,354875.482,359768.344,8,400,,,
trial,html.Screen,4_41_0,2023-09-08T16:11:16.985Z,,0,1,,4367.4559999523335,response,ISIC_0030255.JPG,4,ISIC_0068616.JPG,ISIC_0068616.JPG,false,0,keypress(z),500,364136.2000000477,364135.7999999523,359751.749,359823,359768.344,364076.649,8,400,42,,ISIC_0030255.JPG
break,html.Screen,4_41_1,2023-09-08T16:11:16.985Z,,0,,,NaN,,,,,,false,,,,364136.7000000477,364136.5,,364136.2999999523,,364076.649,8,400,,,
break_continue,html.Screen,4_41_2,2023-09-08T16:11:16.986Z,,0,,,NaN,,,,,,false,,,,364136.90000009537,364136.7999999523,,364136.7000000477,,364076.649,8,400,,,
sequence,flow.Sequence,4_41,2023-09-08T16:11:16.986Z,,0,,,4368.4559999523335,completion,,,,,false,,,,364137,364136.7999999523,359751.749,359823,359768.344,364076.649,8,400,,,
trial,html.Screen,4_42_0,2023-09-08T16:11:25.107Z,,0,1,,8181.051000047708,response,ISIC_0059625.JPG,5,ISIC_2520840.JPG,ISIC_2520840.JPG,false,0,keypress(z),500,372257.90000009537,372257.7000000477,364059.951,364137,364076.649,372192.48,8,400,43,,ISIC_0059625.JPG
break,html.Screen,4_42_1,2023-09-08T16:11:25.107Z,,0,,,NaN,,,,,,false,,,,372258.2999999523,372258.10000014305,,372258,,372192.48,8,400,,,
break_continue,html.Screen,4_42_2,2023-09-08T16:11:25.108Z,,0,,,NaN,,,,,,false,,,,372258.90000009537,372258.7999999523,,372258.5,,372192.48,8,400,,,
sequence,flow.Sequence,4_42,2023-09-08T16:11:25.108Z,,0,,,8182.1509999523405,completion,,,,,false,,,,372259,372258.7999999523,364059.951,364137,364076.649,372192.48,8,400,,,
trial,html.Screen,4_43_0,2023-09-08T16:11:29.703Z,,0,1,,4661.12000014307,response,ISIC_0485881.JPG,5,ISIC_2748736.JPG,ISIC_0485881.JPG,false,1,keypress(m),500,376854,376853.60000014305,372175.979,372259,372192.48,376801.549,8,400,44,,ISIC_2748736.JPG
break,html.Screen,4_43_1,2023-09-08T16:11:29.704Z,,0,,,NaN,,,,,,false,,,,376854.90000009537,376854.60000014305,,376854.2000000477,,376801.549,8,400,,,
break_continue,html.Screen,4_43_2,2023-09-08T16:11:29.704Z,,0,,,NaN,,,,,,false,,,,376855.40000009537,376855.10000014305,,376855,,376801.549,8,400,,,
sequence,flow.Sequence,4_43,2023-09-08T16:11:29.704Z,,0,,,4662.62000014307,completion,,,,,false,,,,376855.60000014305,376855.10000014305,372175.979,372259,372192.48,376801.549,8,400,,,
trial,html.Screen,4_44_0,2023-09-08T16:11:36.395Z,,0,1,,6743.951000000001,response,ISIC_0067274.JPG,4,ISIC_5994645.JPG,ISIC_0067274.JPG,false,1,keypress(m),500,383545.90000009537,383545.5,376784.78,376855.90000009537,376801.549,383497.796,8,400,45,,ISIC_5994645.JPG
break,html.Screen,4_44_1,2023-09-08T16:11:36.396Z,,0,,,NaN,,,,,,false,,,,383547,383546.7000000477,,383546.2000000477,,383497.796,8,400,,,
break_continue,html.Screen,4_44_2,2023-09-08T16:11:36.397Z,,0,,,NaN,,,,,,false,,,,383547.7999999523,383547.5,,383547.40000009537,,383497.796,8,400,,,
sequence,flow.Sequence,4_44,2023-09-08T16:11:36.397Z,,0,,,6745.951000000001,completion,,,,,false,,,,383548.10000014305,383547.5,376784.78,376855.7999999523,376801.549,383497.796,8,400,,,
trial,html.Screen,4_45_0,2023-09-08T16:11:42.289Z,,0,1,,5942.404000047711,response,ISIC_0062196.JPG,5,ISIC_7161651.JPG,ISIC_0062196.JPG,false,1,keypress(m),500,389440.2999999523,389440.2000000477,383481.169,383548.40000009537,383497.796,389375.946,8,400,46,,ISIC_7161651.JPG
break,html.Screen,4_45_1,2023-09-08T16:11:42.289Z,,0,,,NaN,,,,,,false,,,,389440.7000000477,389440.5,,389440.40000009537,,389375.946,8,400,,,
break_continue,html.Screen,4_45_2,2023-09-08T16:11:42.290Z,,0,,,NaN,,,,,,false,,,,389441.10000014305,389440.90000009537,,389440.7999999523,,389375.946,8,400,,,
sequence,flow.Sequence,4_45,2023-09-08T16:11:42.290Z,,0,,,5943.104000095394,completion,,,,,false,,,,389441.10000014305,389440.90000009537,383481.169,383548.2000000477,383497.796,389375.946,8,400,,,
trial,html.Screen,4_46_0,2023-09-08T16:11:47.781Z,,0,1,,5555.954000095371,response,ISIC_0027408.JPG,5,ISIC_0034150.JPG,ISIC_0034150.JPG,false,0,keypress(z),500,394932,394931.90000009537,389359.244,389441.2000000477,389375.946,394869.95,8,400,47,,ISIC_0027408.JPG
break,html.Screen,4_46_1,2023-09-08T16:11:47.781Z,,0,,,NaN,,,,,,false,,,,394932.2999999523,394932.2000000477,,394932.10000014305,,394869.95,8,400,,,
break_continue,html.Screen,4_46_2,2023-09-08T16:11:47.781Z,,0,,,NaN,,,,,,false,,,,394932.60000014305,394932.5,,394932.40000009537,,394869.95,8,400,,,
sequence,flow.Sequence,4_46,2023-09-08T16:11:47.781Z,,0,,,5556.554000000004,completion,,,,,false,,,,394932.7000000477,394932.5,389359.244,389441.2000000477,389375.946,394869.95,8,400,,,
trial,html.Screen,4_47_0,2023-09-08T16:11:52.119Z,,0,1,,4400.049999999988,response,ISIC_6800044.JPG,4,ISIC_4803943.JPG,ISIC_4803943.JPG,false,0,keypress(z),500,399270.2000000477,399270,394853.231,394932.7999999523,394869.95,399211.784,8,400,48,,ISIC_6800044.JPG
break,html.Screen,4_47_1,2023-09-08T16:11:52.119Z,,0,,,NaN,,,,,,false,,,,399270.7000000477,399270.5,,399270.2999999523,,399211.784,8,400,,,
break_continue,html.Screen,4_47_2,2023-09-08T16:11:52.120Z,,0,,,NaN,,,,,,false,,,,399271,399270.90000009537,,399270.7999999523,,399211.784,8,400,,,
sequence,flow.Sequence,4_47,2023-09-08T16:11:52.120Z,,0,,,4400.950000095356,completion,,,,,false,,,,399271.10000014305,399270.90000009537,394853.231,394932.7999999523,394869.95,399211.784,8,400,,,
trial,html.Screen,4_48_0,2023-09-08T16:11:56.314Z,,0,1,,4253.216000000015,response,ISIC_9239093.JPG,6,ISIC_0033956.JPG,ISIC_0033956.JPG,false,0,keypress(z),500,403465.40000009537,403465,399195.062,399271.2999999523,399211.784,403403.335,8,400,49,,ISIC_9239093.JPG
break,html.Screen,4_48_1,2023-09-08T16:11:56.315Z,,0,,,NaN,,,,,,false,,,,403466.60000014305,403466.2000000477,,403465.7999999523,,403403.335,8,400,,,
break_continue,html.Screen,4_48_2,2023-09-08T16:11:56.316Z,,0,,,NaN,,,,,,false,,,,403467.2000000477,403466.90000009537,,403466.7999999523,,403403.335,8,400,,,
sequence,flow.Sequence,4_48,2023-09-08T16:11:56.316Z,,0,,,4255.116000095382,completion,,,,,false,,,,403467.40000009537,403466.90000009537,399195.062,399271.2000000477,399211.784,403403.335,8,400,,,
trial,html.Screen,4_49_0,2023-09-08T16:12:01.636Z,,0,1,,5383.865000047663,response,ISIC_0016139.JPG,5,ISIC_7677876.JPG,ISIC_7677876.JPG,false,0,keypress(z),500,408787.2000000477,408787.2000000477,403386.645,403467.7000000477,403403.335,408730.196,8,400,50,,ISIC_0016139.JPG
break,html.Screen,4_49_1,2023-09-08T16:12:11.632Z,,0,,,10003.021000000008,timeout,,,,,false,,,,418783.2999999523,418716.497,408713.722,408787.40000009537,408730.196,418733.217,8,400,,,
break_continue,html.Screen,4_49_2,2023-09-08T16:12:12.667Z,,0,,,1080.1830000953632,response,,,,,false,continue,keypress(Space),,419818,419813.40000009537,418716.497,418783.60000014305,418733.217,419768.361,8,400,,,
sequence,flow.Sequence,4_49,2023-09-08T16:12:12.667Z,,0,,,16410.065000095346,completion,,,,,false,,,,419818.2999999523,419813.40000009537,403386.645,403467.60000014305,403403.335,419768.361,8,400,,,
trial,html.Screen,4_50_0,2023-09-08T16:12:17.230Z,,0,2,,4612.839000047708,response,ISIC_0025800.JPG,5,ISIC_4554381.JPG,ISIC_0025800.JPG,false,1,keypress(m),500,424381.2999999523,424381.2000000477,419751.752,419818.40000009537,419768.361,424327.273,8,400,1,,ISIC_4554381.JPG
break,html.Screen,4_50_1,2023-09-08T16:12:17.231Z,,0,,,NaN,,,,,,false,,,,424381.7000000477,424381.60000014305,,424381.40000009537,,424327.273,8,400,,,
break_continue,html.Screen,4_50_2,2023-09-08T16:12:17.231Z,,0,,,NaN,,,,,,false,,,,424382,424381.90000009537,,424381.7999999523,,424327.273,8,400,,,
sequence,flow.Sequence,4_50,2023-09-08T16:12:17.231Z,,0,,,4613.539000095392,completion,,,,,false,,,,424382,424381.90000009537,419751.752,419818.40000009537,419768.361,424327.273,8,400,,,
trial,html.Screen,4_51_0,2023-09-08T16:12:24.149Z,,0,2,,6972.02699995233,response,ISIC_6752060.JPG,5,ISIC_0028949.JPG,ISIC_6752060.JPG,false,1,keypress(m),500,431299.5,431299.2999999523,424310.618,424382.2000000477,424327.273,431240.823,8,400,2,,ISIC_0028949.JPG
break,html.Screen,4_51_1,2023-09-08T16:12:24.149Z,,0,,,NaN,,,,,,false,,,,431300.40000009537,431300.10000014305,,431299.7999999523,,431240.823,8,400,,,
break_continue,html.Screen,4_51_2,2023-09-08T16:12:24.150Z,,0,,,NaN,,,,,,false,,,,431300.7999999523,431300.60000014305,,431300.5,,431240.823,8,400,,,
sequence,flow.Sequence,4_51,2023-09-08T16:12:24.150Z,,0,,,6973.327000143065,completion,,,,,false,,,,431300.90000009537,431300.60000014305,424310.618,424382.10000014305,424327.273,431240.823,8,400,,,
trial,html.Screen,4_52_0,2023-09-08T16:12:27.802Z,,0,2,,3712.4769999523414,response,ISIC_0057655.JPG,5,ISIC_0033384.JPG,ISIC_0057655.JPG,false,1,keypress(m),500,434953.40000009537,434953.2999999523,431224.109,431301.2000000477,431240.823,434898.011,8,400,3,,ISIC_0033384.JPG
break,html.Screen,4_52_1,2023-09-08T16:12:27.803Z,,0,,,NaN,,,,,,false,,,,434953.7000000477,434953.60000014305,,434953.5,,434898.011,8,400,,,
break_continue,html.Screen,4_52_2,2023-09-08T16:12:27.803Z,,0,,,NaN,,,,,,false,,,,434954.10000014305,434954,,434953.7999999523,,434898.011,8,400,,,
sequence,flow.Sequence,4_52,2023-09-08T16:12:27.803Z,,0,,,3713.177000000025,completion,,,,,false,,,,434954.2000000477,434954,431224.109,431301.10000014305,431240.823,434898.011,8,400,,,
trial,html.Screen,4_53_0,2023-09-08T16:12:31.805Z,,0,2,,4057.189000047685,response,ISIC_4589609.JPG,5,ISIC_3013569.JPG,ISIC_3013569.JPG,false,0,keypress(z),500,438955.5,438955.2000000477,434881.151,434954.2999999523,434898.011,438905.786,8,400,4,,ISIC_4589609.JPG
break,html.Screen,4_53_1,2023-09-08T16:12:31.805Z,,0,,,NaN,,,,,,false,,,,438956.10000014305,438955.90000009537,,438955.7000000477,,438905.786,8,400,,,
break_continue,html.Screen,4_53_2,2023-09-08T16:12:31.805Z,,0,,,NaN,,,,,,false,,,,438956.2000000477,438956.2000000477,,438956.2000000477,,438905.786,8,400,,,
sequence,flow.Sequence,4_53,2023-09-08T16:12:31.805Z,,0,,,4058.189000047685,completion,,,,,false,,,,438956.40000009537,438956.2000000477,434881.151,434954.2000000477,434898.011,438905.786,8,400,,,
trial,html.Screen,4_54_0,2023-09-08T16:12:35.941Z,,0,2,,4185.513999952294,response,ISIC_0031499.JPG,4,ISIC_8094432.JPG,ISIC_0031499.JPG,false,1,keypress(m),500,443091.7999999523,443091.2999999523,438889.084,438956.40000009537,438905.786,443030.331,8,400,5,,ISIC_8094432.JPG
break,html.Screen,4_54_1,2023-09-08T16:12:35.942Z,,0,,,NaN,,,,,,false,,,,443093.10000014305,443092.7000000477,,443092.2999999523,,443030.331,8,400,,,
break_continue,html.Screen,4_54_2,2023-09-08T16:12:35.943Z,,0,,,NaN,,,,,,false,,,,443093.90000009537,443093.7000000477,,443093.40000009537,,443030.331,8,400,,,
sequence,flow.Sequence,4_54,2023-09-08T16:12:35.943Z,,0,,,4187.914000047662,completion,,,,,false,,,,443094.2000000477,443093.7000000477,438889.084,438956.40000009537,438905.786,443030.331,8,400,,,
trial,html.Screen,4_55_0,2023-09-08T16:12:42.282Z,,0,2,,6402.668999999994,response,ISIC_0027306.JPG,4,ISIC_0058024.JPG,ISIC_0058024.JPG,false,0,keypress(z),500,449433.10000014305,449433,443013.791,443094.5,443030.331,449376.081,8,400,6,,ISIC_0027306.JPG
break,html.Screen,4_55_1,2023-09-08T16:12:42.282Z,,0,,,NaN,,,,,,false,,,,449433.40000009537,449433.2999999523,,449433.10000014305,,449376.081,8,400,,,
break_continue,html.Screen,4_55_2,2023-09-08T16:12:42.283Z,,0,,,NaN,,,,,,false,,,,449433.60000014305,449433.60000014305,,449433.5,,449376.081,8,400,,,
sequence,flow.Sequence,4_55,2023-09-08T16:12:42.283Z,,0,,,6403.269000143046,completion,,,,,false,,,,449433.7000000477,449433.60000014305,443013.791,443094.2999999523,443030.331,449376.081,8,400,,,
trial,html.Screen,4_56_0,2023-09-08T16:12:46.604Z,,0,2,,4379.218999952311,response,ISIC_0031425.JPG,5,ISIC_0011403.JPG,ISIC_0011403.JPG,false,0,keypress(z),500,453755.40000009537,453755.2999999523,449359.43,449433.7999999523,449376.081,453701.291,8,400,7,,ISIC_0031425.JPG
break,html.Screen,4_56_1,2023-09-08T16:12:46.605Z,,0,,,NaN,,,,,,false,,,,453756,453755.7999999523,,453755.60000014305,,453701.291,8,400,,,
break_continue,html.Screen,4_56_2,2023-09-08T16:12:46.605Z,,0,,,NaN,,,,,,false,,,,453756.2999999523,453756.2999999523,,453756.2000000477,,453701.291,8,400,,,
sequence,flow.Sequence,4_56,2023-09-08T16:12:46.605Z,,0,,,4380.218999952311,completion,,,,,false,,,,453756.5,453756.2999999523,449359.43,449433.7999999523,449376.081,453701.291,8,400,,,
trial,html.Screen,4_57_0,2023-09-08T16:12:50.822Z,,0,2,,4271.809000143025,response,ISIC_0027100.JPG,5,ISIC_3945116.JPG,ISIC_0027100.JPG,false,1,keypress(m),500,457973.40000009537,457973.10000014305,453684.501,453756.60000014305,453701.291,457927.439,8,400,8,,ISIC_3945116.JPG
break,html.Screen,4_57_1,2023-09-08T16:12:50.823Z,,0,,,NaN,,,,,,false,,,,457974.2999999523,457974,,457973.7000000477,,457927.439,8,400,,,
break_continue,html.Screen,4_57_2,2023-09-08T16:12:50.824Z,,0,,,NaN,,,,,,false,,,,457974.7000000477,457974.60000014305,,457974.40000009537,,457927.439,8,400,,,
sequence,flow.Sequence,4_57,2023-09-08T16:12:50.824Z,,0,,,4273.309000143025,completion,,,,,false,,,,457975,457974.60000014305,453684.501,453756.5,453701.291,457927.439,8,400,,,
trial,html.Screen,4_58_0,2023-09-08T16:12:55.279Z,,0,2,,4502.360999952303,response,ISIC_0010770.JPG,6,ISIC_4532303.JPG,ISIC_0010770.JPG,false,1,keypress(m),500,462430,462429.7999999523,457892.555,457975.10000014305,457927.439,462368.037,8,400,9,,ISIC_4532303.JPG
break,html.Screen,4_58_1,2023-09-08T16:12:55.280Z,,0,,,NaN,,,,,,false,,,,462430.7000000477,462430.60000014305,,462430.2000000477,,462368.037,8,400,,,
break_continue,html.Screen,4_58_2,2023-09-08T16:12:55.280Z,,0,,,NaN,,,,,,false,,,,462431.10000014305,462431,,462430.90000009537,,462368.037,8,400,,,
sequence,flow.Sequence,4_58,2023-09-08T16:12:55.280Z,,0,,,4503.560999999987,completion,,,,,false,,,,462431.2999999523,462431,457892.555,457975.10000014305,457927.439,462368.037,8,400,,,
trial,html.Screen,4_59_0,2023-09-08T16:13:00.178Z,,0,2,,4960.962999999989,response,ISIC_5048124.JPG,5,ISIC_0069292.JPG,ISIC_0069292.JPG,false,0,keypress(z),500,467329.2000000477,467329,462351.356,462431.40000009537,462368.037,467277.764,8,400,10,,ISIC_5048124.JPG
break,html.Screen,4_59_1,2023-09-08T16:13:00.179Z,,0,,,NaN,,,,,,false,,,,467329.60000014305,467329.5,,467329.2999999523,,467277.764,8,400,,,
break_continue,html.Screen,4_59_2,2023-09-08T16:13:00.179Z,,0,,,NaN,,,,,,false,,,,467330,467329.90000009537,,467329.7000000477,,467277.764,8,400,,,
sequence,flow.Sequence,4_59,2023-09-08T16:13:00.179Z,,0,,,4961.863000095356,completion,,,,,false,,,,467330.10000014305,467329.90000009537,462351.356,462431.40000009537,462368.037,467277.764,8,400,,,
trial,html.Screen,4_60_0,2023-09-08T16:13:05.925Z,,0,2,,5797.8360001430265,response,ISIC_4806829.JPG,4,ISIC_0028081.JPG,ISIC_0028081.JPG,false,0,keypress(z),500,473075.7999999523,473075.60000014305,467260.826,467330.2000000477,467277.764,473022.099,8,400,11,,ISIC_4806829.JPG
break,html.Screen,4_60_1,2023-09-08T16:13:05.925Z,,0,,,NaN,,,,,,false,,,,473076.40000009537,473076.2000000477,,473076,,473022.099,8,400,,,
break_continue,html.Screen,4_60_2,2023-09-08T16:13:05.926Z,,0,,,NaN,,,,,,false,,,,473076.7999999523,473076.60000014305,,473076.60000014305,,473022.099,8,400,,,
sequence,flow.Sequence,4_60,2023-09-08T16:13:05.926Z,,0,,,5798.8360001430265,completion,,,,,false,,,,473076.90000009537,473076.60000014305,467260.826,467330.2000000477,467277.764,473022.099,8,400,,,
trial,html.Screen,4_61_0,2023-09-08T16:13:11.576Z,,0,2,,5704.30100009538,response,ISIC_8023705.JPG,5,ISIC_8822738.JPG,ISIC_8023705.JPG,false,1,keypress(m),500,478726.7000000477,478726.40000009537,473005.462,473077,473022.099,478666.336,8,400,12,,ISIC_8822738.JPG
break,html.Screen,4_61_1,2023-09-08T16:13:11.577Z,,0,,,NaN,,,,,,false,,,,478727.7000000477,478727.40000009537,,478727,,478666.336,8,400,,,
break_continue,html.Screen,4_61_2,2023-09-08T16:13:11.577Z,,0,,,NaN,,,,,,false,,,,478728.2000000477,478728.10000014305,,478727.90000009537,,478666.336,8,400,,,
sequence,flow.Sequence,4_61,2023-09-08T16:13:11.578Z,,0,,,5706.001000143064,completion,,,,,false,,,,478728.5,478728.10000014305,473005.462,473076.90000009537,473022.099,478666.336,8,400,,,
trial,html.Screen,4_62_0,2023-09-08T16:13:18.092Z,,0,2,,6576.463999952306,response,ISIC_7840728.JPG,4,ISIC_0059341.JPG,ISIC_0059341.JPG,false,0,keypress(z),500,485242.90000009537,485242.7999999523,478649.704,478728.7999999523,478666.336,485179.033,8,400,13,,ISIC_7840728.JPG
break,html.Screen,4_62_1,2023-09-08T16:13:18.092Z,,0,,,NaN,,,,,,false,,,,485243.2000000477,485243.2000000477,,485243,,485179.033,8,400,,,
break_continue,html.Screen,4_62_2,2023-09-08T16:13:18.093Z,,0,,,NaN,,,,,,false,,,,485243.5,485243.40000009537,,485243.2999999523,,485179.033,8,400,,,
sequence,flow.Sequence,4_62,2023-09-08T16:13:18.093Z,,0,,,6577.064000095357,completion,,,,,false,,,,485243.7000000477,485243.40000009537,478649.704,478728.7000000477,478666.336,485179.033,8,400,,,
trial,html.Screen,4_63_0,2023-09-08T16:13:22.575Z,,0,2,,4547.067000143055,response,ISIC_1330008.JPG,5,ISIC_0034000.JPG,ISIC_0034000.JPG,false,0,keypress(z),500,489726.2999999523,489726.10000014305,485162.46,485243.7999999523,485179.033,489671.095,8,400,14,,ISIC_1330008.JPG
break,html.Screen,4_63_1,2023-09-08T16:13:22.576Z,,0,,,NaN,,,,,,false,,,,489726.7000000477,489726.5,,489726.2999999523,,489671.095,8,400,,,
break_continue,html.Screen,4_63_2,2023-09-08T16:13:22.576Z,,0,,,NaN,,,,,,false,,,,489726.90000009537,489726.7999999523,,489726.7999999523,,489671.095,8,400,,,
sequence,flow.Sequence,4_63,2023-09-08T16:13:22.576Z,,0,,,4547.7669999523205,completion,,,,,false,,,,489726.90000009537,489726.7999999523,485162.46,485243.7999999523,485179.033,489671.095,8,400,,,
trial,html.Screen,4_64_0,2023-09-08T16:13:27.156Z,,0,2,,4635.204999952344,response,ISIC_0046917.JPG,5,ISIC_6113524.JPG,ISIC_0046917.JPG,false,1,keypress(m),500,494306.5,494306.2999999523,489654.403,489726.90000009537,489671.095,494246.647,8,400,15,,ISIC_6113524.JPG
break,html.Screen,4_64_1,2023-09-08T16:13:27.156Z,,0,,,NaN,,,,,,false,,,,494306.7999999523,494306.7000000477,,494306.60000014305,,494246.647,8,400,,,
break_continue,html.Screen,4_64_2,2023-09-08T16:13:27.156Z,,0,,,NaN,,,,,,false,,,,494306.90000009537,494306.7999999523,,494306.7999999523,,494246.647,8,400,,,
sequence,flow.Sequence,4_64,2023-09-08T16:13:27.156Z,,0,,,4635.704999952344,completion,,,,,false,,,,494307,494306.7999999523,489654.403,489726.90000009537,489671.095,494246.647,8,400,,,
trial,html.Screen,4_65_0,2023-09-08T16:13:32.424Z,,0,2,,5327.853000000003,response,ISIC_5909403.JPG,4,ISIC_8509219.JPG,ISIC_8509219.JPG,false,0,keypress(z),500,499574.60000014305,499574.5,494229.973,494307.10000014305,494246.647,499540.448,8,400,16,,ISIC_5909403.JPG
break,html.Screen,4_65_1,2023-09-08T16:13:32.424Z,,0,,,NaN,,,,,,false,,,,499575,499574.90000009537,,499574.7999999523,,499540.448,8,400,,,
break_continue,html.Screen,4_65_2,2023-09-08T16:13:32.424Z,,0,,,NaN,,,,,,false,,,,499575.2000000477,499575.10000014305,,499575,,499540.448,8,400,,,
sequence,flow.Sequence,4_65,2023-09-08T16:13:32.424Z,,0,,,5328.453000143054,completion,,,,,false,,,,499575.2999999523,499575.10000014305,494229.973,494307.10000014305,494246.647,499540.448,8,400,,,
trial,html.Screen,4_66_0,2023-09-08T16:13:37.451Z,,0,2,,5061.152000143076,response,ISIC_0056047.JPG,6,ISIC_0058022.JPG,ISIC_0058022.JPG,false,0,keypress(z),500,504601.7999999523,504601.60000014305,499524.629,499575.40000009537,499540.448,504550.144,8,400,17,,ISIC_0056047.JPG
break,html.Screen,4_66_1,2023-09-08T16:13:37.451Z,,0,,,NaN,,,,,,false,,,,504602,504602,,504601.7999999523,,504550.144,8,400,,,
break_continue,html.Screen,4_66_2,2023-09-08T16:13:37.452Z,,0,,,NaN,,,,,,false,,,,504602.40000009537,504602.2999999523,,504602.2000000477,,504550.144,8,400,,,
sequence,flow.Sequence,4_66,2023-09-08T16:13:37.452Z,,0,,,5061.851999952341,completion,,,,,false,,,,504602.5,504602.2999999523,499524.629,499575.2999999523,499540.448,504550.144,8,400,,,
trial,html.Screen,4_67_0,2023-09-08T16:13:45.588Z,,0,2,,8188.155999952345,response,ISIC_0060848.JPG,5,ISIC_0066430.JPG,ISIC_0066430.JPG,false,0,keypress(z),500,512738.7000000477,512738.2999999523,504533.409,504602.5,504550.144,512682.671,8,400,18,,ISIC_0060848.JPG
break,html.Screen,4_67_1,2023-09-08T16:13:45.589Z,,0,,,NaN,,,,,,false,,,,512739.7999999523,512739.60000014305,,512739.10000014305,,512682.671,8,400,,,
break_continue,html.Screen,4_67_2,2023-09-08T16:13:45.590Z,,0,,,NaN,,,,,,false,,,,512740.40000009537,512740.2000000477,,512740.10000014305,,512682.671,8,400,,,
sequence,flow.Sequence,4_67,2023-09-08T16:13:45.590Z,,0,,,8190.056000047713,completion,,,,,false,,,,512740.7000000477,512740.2000000477,504533.409,504602.5,504550.144,512682.671,8,400,,,
trial,html.Screen,4_68_0,2023-09-08T16:13:51.425Z,,0,2,,5893.029000047711,response,ISIC_0032951.JPG,5,ISIC_5204408.JPG,ISIC_0032951.JPG,false,1,keypress(m),500,518576.2000000477,518575.7000000477,512666.037,512740.90000009537,512682.671,518544.064,8,400,19,,ISIC_5204408.JPG
break,html.Screen,4_68_1,2023-09-08T16:13:51.427Z,,0,,,NaN,,,,,,false,,,,518577.5,518577.2000000477,,518576.7999999523,,518544.064,8,400,,,
break_continue,html.Screen,4_68_2,2023-09-08T16:13:51.427Z,,0,,,NaN,,,,,,false,,,,518578.10000014305,518577.7999999523,,518577.7000000477,,518544.064,8,400,,,
sequence,flow.Sequence,4_68,2023-09-08T16:13:51.428Z,,0,,,5895.128999952343,completion,,,,,false,,,,518578.2999999523,518577.7999999523,512666.037,512740.90000009537,512682.671,518544.064,8,400,,,
trial,html.Screen,4_69_0,2023-09-08T16:13:57.718Z,,0,2,,6323.935999999987,response,ISIC_2946577.JPG,4,ISIC_0010873.JPG,ISIC_0010873.JPG,false,0,keypress(z),500,524868.5,524868,518527.357,518578.60000014305,518544.064,524806.262,8,400,20,,ISIC_2946577.JPG
break,html.Screen,4_69_1,2023-09-08T16:13:57.719Z,,0,,,NaN,,,,,,false,,,,524869.5,524869.2000000477,,524868.7999999523,,524806.262,8,400,,,
break_continue,html.Screen,4_69_2,2023-09-08T16:13:57.719Z,,0,,,NaN,,,,,,false,,,,524870.2999999523,524870.100000143,,524869.9000000954,,524806.262,8,400,,,
sequence,flow.Sequence,4_69,2023-09-08T16:13:57.720Z,,0,,,6326.036000143038,completion,,,,,false,,,,524870.600000143,524870.100000143,518527.357,518578.5,518544.064,524806.262,8,400,,,
trial,html.Screen,4_70_0,2023-09-08T16:14:01.963Z,,0,2,,4307.537999952328,response,ISIC_8899350.JPG,5,ISIC_9894782.JPG,ISIC_8899350.JPG,false,1,keypress(m),500,529114,529113.7999999523,524789.605,524870.7999999523,524806.262,529064.482,8,400,21,,ISIC_9894782.JPG
break,html.Screen,4_70_1,2023-09-08T16:14:01.964Z,,0,,,NaN,,,,,,false,,,,529114.5,529114.4000000954,,529114.2000000477,,529064.482,8,400,,,
break_continue,html.Screen,4_70_2,2023-09-08T16:14:01.964Z,,0,,,NaN,,,,,,false,,,,529114.7000000477,529114.600000143,,529114.600000143,,529064.482,8,400,,,
sequence,flow.Sequence,4_70,2023-09-08T16:14:01.964Z,,0,,,4308.338000143063,completion,,,,,false,,,,529114.7999999523,529114.600000143,524789.605,524870.7999999523,524806.262,529064.482,8,400,,,
trial,html.Screen,4_71_0,2023-09-08T16:14:07.213Z,,0,2,,5299.51800000004,response,ISIC_4322954.JPG,6,ISIC_3994250.JPG,ISIC_4322954.JPG,false,1,keypress(m),500,534364.100000143,534364,529047.88,529114.7999999523,529064.482,534308.043,8,400,22,,ISIC_3994250.JPG
break,html.Screen,4_71_1,2023-09-08T16:14:07.214Z,,0,,,NaN,,,,,,false,,,,534364.5,534364.4000000954,,534364.2000000477,,534308.043,8,400,,,
break_continue,html.Screen,4_71_2,2023-09-08T16:14:07.214Z,,0,,,NaN,,,,,,false,,,,534364.7999999523,534364.7000000477,,534364.600000143,,534308.043,8,400,,,
sequence,flow.Sequence,4_71,2023-09-08T16:14:07.214Z,,0,,,5300.218000047724,completion,,,,,false,,,,534364.9000000954,534364.7000000477,529047.88,529114.7999999523,529064.482,534308.043,8,400,,,
trial,html.Screen,4_72_0,2023-09-08T16:14:12.180Z,,0,2,,5022.3570000954205,response,ISIC_0072990.JPG,5,ISIC_0071678.JPG,ISIC_0071678.JPG,false,0,keypress(z),500,539330.5,539330.4000000954,534291.453,534365,534308.043,539267.585,8,400,23,,ISIC_0072990.JPG
break,html.Screen,4_72_1,2023-09-08T16:14:12.180Z,,0,,,NaN,,,,,,false,,,,539330.9000000954,539330.7999999523,,539330.600000143,,539267.585,8,400,,,
break_continue,html.Screen,4_72_2,2023-09-08T16:14:12.180Z,,0,,,NaN,,,,,,false,,,,539331.2000000477,539331.100000143,,539331,,539267.585,8,400,,,
sequence,flow.Sequence,4_72,2023-09-08T16:14:12.181Z,,0,,,5023.057000143104,completion,,,,,false,,,,539331.4000000954,539331.100000143,534291.453,534365,534308.043,539267.585,8,400,,,
trial,html.Screen,4_73_0,2023-09-08T16:14:16.854Z,,0,2,,4736.915000000037,response,ISIC_4653503.JPG,6,ISIC_3372750.JPG,ISIC_3372750.JPG,false,0,keypress(z),500,544004.7000000477,544004.5,539250.905,539331.4000000954,539267.585,543943.358,8,400,24,,ISIC_4653503.JPG
break,html.Screen,4_73_1,2023-09-08T16:14:16.855Z,,0,,,NaN,,,,,,false,,,,544005,544004.9000000954,,544004.7000000477,,543943.358,8,400,,,
break_continue,html.Screen,4_73_2,2023-09-08T16:14:16.855Z,,0,,,NaN,,,,,,false,,,,544005.2999999523,544005.2000000477,,544005.100000143,,543943.358,8,400,,,
sequence,flow.Sequence,4_73,2023-09-08T16:14:16.855Z,,0,,,4737.615000047721,completion,,,,,false,,,,544005.5,544005.2000000477,539250.905,539331.4000000954,539267.585,543943.358,8,400,,,
trial,html.Screen,4_74_0,2023-09-08T16:14:21.352Z,,0,2,,4558.941999952309,response,ISIC_8759207.JPG,4,ISIC_0006321.JPG,ISIC_8759207.JPG,false,1,keypress(m),500,548502.4000000954,548502.2999999523,543926.832,544005.600000143,543943.358,548452.287,8,400,25,,ISIC_0006321.JPG
break,html.Screen,4_74_1,2023-09-08T16:14:21.352Z,,0,,,NaN,,,,,,false,,,,548502.600000143,548502.600000143,,548502.5,,548452.287,8,400,,,
break_continue,html.Screen,4_74_2,2023-09-08T16:14:21.353Z,,0,,,NaN,,,,,,false,,,,548502.9000000954,548502.7999999523,,548502.7999999523,,548452.287,8,400,,,
sequence,flow.Sequence,4_74,2023-09-08T16:14:21.353Z,,0,,,4559.441999952309,completion,,,,,false,,,,548502.9000000954,548502.7999999523,543926.832,544005.5,543943.358,548452.287,8,400,,,
trial,html.Screen,4_75_0,2023-09-08T16:14:25.307Z,,0,2,,4004.4130000476725,response,ISIC_0013651.JPG,5,ISIC_6684042.JPG,ISIC_0013651.JPG,false,1,keypress(m),500,552456.9000000954,552456.7000000477,548435.602,548503,548452.287,552393.165,8,400,26,,ISIC_6684042.JPG
break,html.Screen,4_75_1,2023-09-08T16:14:25.307Z,,0,,,NaN,,,,,,false,,,,552457.2999999523,552457.100000143,,552457,,552393.165,8,400,,,
break_continue,html.Screen,4_75_2,2023-09-08T16:14:25.307Z,,0,,,NaN,,,,,,false,,,,552457.5,552457.5,,552457.4000000954,,552393.165,8,400,,,
sequence,flow.Sequence,4_75,2023-09-08T16:14:25.307Z,,0,,,4005.212999999989,completion,,,,,false,,,,552457.600000143,552457.5,548435.602,548503,548452.287,552393.165,8,400,,,
trial,html.Screen,4_76_0,2023-09-08T16:14:29.890Z,,0,2,,4646.73500009533,response,ISIC_0068048.JPG,5,ISIC_0027928.JPG,ISIC_0027928.JPG,false,0,keypress(z),500,557040.2999999523,557039.9000000954,552376.42,552457.7000000477,552393.165,556985.618,8,400,27,,ISIC_0068048.JPG
break,html.Screen,4_76_1,2023-09-08T16:14:29.891Z,,0,,,NaN,,,,,,false,,,,557041.5,557041.2000000477,,557040.7000000477,,556985.618,8,400,,,
break_continue,html.Screen,4_76_2,2023-09-08T16:14:29.892Z,,0,,,NaN,,,,,,false,,,,557042.100000143,557041.9000000954,,557041.7000000477,,556985.618,8,400,,,
sequence,flow.Sequence,4_76,2023-09-08T16:14:29.892Z,,0,,,4648.73500009533,completion,,,,,false,,,,557042.4000000954,557041.9000000954,552376.42,552457.7000000477,552393.165,556985.618,8,400,,,
trial,html.Screen,4_77_0,2023-09-08T16:14:37.725Z,,0,2,,7889.381999999983,response,ISIC_6785249.JPG,4,ISIC_0623284.JPG,ISIC_6785249.JPG,false,1,keypress(m),500,564875.4000000954,564875,556968.685,557042.7000000477,556985.618,564817.967,8,400,28,,ISIC_0623284.JPG
break,html.Screen,4_77_1,2023-09-08T16:14:37.726Z,,0,,,NaN,,,,,,false,,,,564876.600000143,564876.2999999523,,564875.9000000954,,564817.967,8,400,,,
break_continue,html.Screen,4_77_2,2023-09-08T16:14:37.727Z,,0,,,NaN,,,,,,false,,,,564877.4000000954,564877.2000000477,,564877,,564817.967,8,400,,,
sequence,flow.Sequence,4_77,2023-09-08T16:14:37.728Z,,0,,,7891.582000047667,completion,,,,,false,,,,564877.7999999523,564877.2000000477,556968.685,557042.600000143,556985.618,564817.967,8,400,,,
trial,html.Screen,4_78_0,2023-09-08T16:14:45.643Z,,0,2,,7974.633000143105,response,ISIC_3283317.JPG,5,ISIC_3734674.JPG,ISIC_3283317.JPG,false,1,keypress(m),500,572792.7999999523,572792.600000143,564800.696,564878,564817.967,572732.887,8,400,29,,ISIC_3734674.JPG
break,html.Screen,4_78_1,2023-09-08T16:14:45.643Z,,0,,,NaN,,,,,,false,,,,572793.2000000477,572793,,572792.9000000954,,572732.887,8,400,,,
break_continue,html.Screen,4_78_2,2023-09-08T16:14:45.643Z,,0,,,NaN,,,,,,false,,,,572793.4000000954,572793.2999999523,,572793.2000000477,,572732.887,8,400,,,
sequence,flow.Sequence,4_78,2023-09-08T16:14:45.643Z,,0,,,7975.33299995237,completion,,,,,false,,,,572793.4000000954,572793.2999999523,564800.696,564877.9000000954,564817.967,572732.887,8,400,,,
trial,html.Screen,4_79_0,2023-09-08T16:14:49.732Z,,0,2,,4148.813000047696,response,ISIC_4427755.JPG,4,ISIC_3770380.JPG,ISIC_4427755.JPG,false,1,keypress(m),500,576881.7999999523,576881.7000000477,572716.069,572793.5,572732.887,576823.998,8,400,30,,ISIC_3770380.JPG
break,html.Screen,4_79_1,2023-09-08T16:14:49.732Z,,0,,,NaN,,,,,,false,,,,576882.100000143,576882,,576881.9000000954,,576823.998,8,400,,,
break_continue,html.Screen,4_79_2,2023-09-08T16:14:49.732Z,,0,,,NaN,,,,,,false,,,,576882.2000000477,576882.2000000477,,576882.100000143,,576823.998,8,400,,,
sequence,flow.Sequence,4_79,2023-09-08T16:14:49.732Z,,0,,,4149.313000047696,completion,,,,,false,,,,576882.2999999523,576882.2000000477,572716.069,572793.4000000954,572732.887,576823.998,8,400,,,
trial,html.Screen,4_80_0,2023-09-08T16:14:53.173Z,,0,2,,3499.402000095346,response,ISIC_0000371.JPG,5,ISIC_0029296.JPG,ISIC_0000371.JPG,false,1,keypress(m),500,580323.5,580323.4000000954,576807.35,576882.2999999523,576823.998,580264.089,8,400,31,,ISIC_0029296.JPG
break,html.Screen,4_80_1,2023-09-08T16:14:53.174Z,,0,,,NaN,,,,,,false,,,,580323.9000000954,580323.7999999523,,580323.600000143,,580264.089,8,400,,,
break_continue,html.Screen,4_80_2,2023-09-08T16:14:53.174Z,,0,,,NaN,,,,,,false,,,,580324.100000143,580324,,580324,,580264.089,8,400,,,
sequence,flow.Sequence,4_80,2023-09-08T16:14:53.174Z,,0,,,3500.0019999999786,completion,,,,,false,,,,580324.2000000477,580324,576807.35,576882.2999999523,576823.998,580264.089,8,400,,,
trial,html.Screen,4_81_0,2023-09-08T16:14:56.941Z,,0,2,,3826.9109999999637,response,ISIC_2161819.JPG,5,ISIC_0031249.JPG,ISIC_0031249.JPG,false,0,keypress(z),500,584091.2000000477,584091,580247.351,580324.2999999523,580264.089,584038.124,8,400,32,,ISIC_2161819.JPG
break,html.Screen,4_81_1,2023-09-08T16:14:56.942Z,,0,,,NaN,,,,,,false,,,,584091.7000000477,584091.7000000477,,584091.4000000954,,584038.124,8,400,,,
break_continue,html.Screen,4_81_2,2023-09-08T16:14:56.942Z,,0,,,NaN,,,,,,false,,,,584092.100000143,584092,,584091.7999999523,,584038.124,8,400,,,
sequence,flow.Sequence,4_81,2023-09-08T16:14:56.942Z,,0,,,3827.9109999999637,completion,,,,,false,,,,584092.2000000477,584092,580247.351,580324.2999999523,580264.089,584038.124,8,400,,,
trial,html.Screen,4_82_0,2023-09-08T16:15:02.022Z,,0,2,,5134.276000095415,response,ISIC_2424673.JPG,5,ISIC_0032726.JPG,ISIC_0032726.JPG,false,0,keypress(z),500,589172.600000143,589172.4000000954,584021.467,584092.2000000477,584038.124,589114.683,8,400,33,,ISIC_2424673.JPG
break,html.Screen,4_82_1,2023-09-08T16:15:02.023Z,,0,,,NaN,,,,,,false,,,,589172.9000000954,589172.7999999523,,589172.600000143,,589114.683,8,400,,,
break_continue,html.Screen,4_82_2,2023-09-08T16:15:02.023Z,,0,,,NaN,,,,,,false,,,,589173.2000000477,589173,,589173,,589114.683,8,400,,,
sequence,flow.Sequence,4_82,2023-09-08T16:15:02.023Z,,0,,,5134.8760000000475,completion,,,,,false,,,,589173.2999999523,589173,584021.467,584092.2000000477,584038.124,589114.683,8,400,,,
trial,html.Screen,4_83_0,2023-09-08T16:15:08.161Z,,0,2,,6195.91700014309,response,ISIC_1595325.JPG,6,ISIC_0026930.JPG,ISIC_0026930.JPG,false,0,keypress(z),500,595310.9000000954,595310.600000143,589097.937,589173.4000000954,589114.683,595259.937,8,400,34,,ISIC_1595325.JPG
break,html.Screen,4_83_1,2023-09-08T16:15:08.161Z,,0,,,NaN,,,,,,false,,,,595311.5,595311.2999999523,,595311,,595259.937,8,400,,,
break_continue,html.Screen,4_83_2,2023-09-08T16:15:08.162Z,,0,,,NaN,,,,,,false,,,,595311.7999999523,595311.7999999523,,595311.7000000477,,595259.937,8,400,,,
sequence,flow.Sequence,4_83,2023-09-08T16:15:08.162Z,,0,,,6197.116999952355,completion,,,,,false,,,,595312,595311.7999999523,589097.937,589173.4000000954,589114.683,595259.937,8,400,,,
trial,html.Screen,4_84_0,2023-09-08T16:15:13.413Z,,0,2,,5302.963000095333,response,ISIC_5737704.JPG,4,ISIC_6785041.JPG,ISIC_5737704.JPG,false,1,keypress(m),500,600563.2999999523,600562.9000000954,595243.318,595312.2000000477,595259.937,600503.602,8,400,35,,ISIC_6785041.JPG
break,html.Screen,4_84_1,2023-09-08T16:15:13.414Z,,0,,,NaN,,,,,,false,,,,600564.4000000954,600564.2000000477,,600563.7000000477,,600503.602,8,400,,,
break_continue,html.Screen,4_84_2,2023-09-08T16:15:13.415Z,,0,,,NaN,,,,,,false,,,,600565.100000143,600564.9000000954,,600564.600000143,,600503.602,8,400,,,
sequence,flow.Sequence,4_84,2023-09-08T16:15:13.415Z,,0,,,5304.963000095333,completion,,,,,false,,,,600565.4000000954,600564.9000000954,595243.318,595312.2000000477,595259.937,600503.602,8,400,,,
trial,html.Screen,4_85_0,2023-09-08T16:15:17.456Z,,0,2,,4101.798000095412,response,ISIC_0028070.JPG,5,ISIC_6448654.JPG,ISIC_6448654.JPG,false,0,keypress(z),500,604605.7000000477,604605.4000000954,600486.901,600565.600000143,600503.602,604544.655,8,400,36,,ISIC_0028070.JPG
break,html.Screen,4_85_1,2023-09-08T16:15:17.457Z,,0,,,NaN,,,,,,false,,,,604606.5,604606.2000000477,,604605.9000000954,,604544.655,8,400,,,
break_continue,html.Screen,4_85_2,2023-09-08T16:15:17.457Z,,0,,,NaN,,,,,,false,,,,604606.9000000954,604606.7000000477,,604606.7000000477,,604544.655,8,400,,,
sequence,flow.Sequence,4_85,2023-09-08T16:15:17.457Z,,0,,,4103.098000047728,completion,,,,,false,,,,604607.100000143,604606.7000000477,600486.901,600565.5,600503.602,604544.655,8,400,,,
trial,html.Screen,4_86_0,2023-09-08T16:15:21.443Z,,0,2,,4048.344999999972,response,ISIC_0013258.JPG,5,ISIC_1851112.JPG,ISIC_0013258.JPG,false,1,keypress(m),500,608593.2999999523,608593,604528.111,604607.2000000477,604544.655,608552.576,8,400,37,,ISIC_1851112.JPG
break,html.Screen,4_86_1,2023-09-08T16:15:21.445Z,,0,,,NaN,,,,,,false,,,,608594.7000000477,608594.2999999523,,608593.9000000954,,608552.576,8,400,,,
break_continue,html.Screen,4_86_2,2023-09-08T16:15:21.446Z,,0,,,NaN,,,,,,false,,,,608595.4000000954,608595.2000000477,,608595,,608552.576,8,400,,,
sequence,flow.Sequence,4_86,2023-09-08T16:15:21.446Z,,0,,,4050.545000047656,completion,,,,,false,,,,608595.7999999523,608595.2000000477,604528.111,604607.100000143,604544.655,608552.576,8,400,,,
trial,html.Screen,4_87_0,2023-09-08T16:15:26.448Z,,0,2,,5045.52400014305,response,ISIC_0000533.JPG,5,ISIC_5651106.JPG,ISIC_0000533.JPG,false,1,keypress(m),500,613598.2999999523,613598.100000143,608519.202,608596,608552.576,613545.664,8,400,38,,ISIC_5651106.JPG
break,html.Screen,4_87_1,2023-09-08T16:15:26.449Z,,0,,,NaN,,,,,,false,,,,613598.600000143,613598.5,,613598.2999999523,,613545.664,8,400,,,
break_continue,html.Screen,4_87_2,2023-09-08T16:15:26.449Z,,0,,,NaN,,,,,,false,,,,613598.9000000954,613598.7999999523,,613598.600000143,,613545.664,8,400,,,
sequence,flow.Sequence,4_87,2023-09-08T16:15:26.449Z,,0,,,5046.223999952315,completion,,,,,false,,,,613598.9000000954,613598.7999999523,608519.202,608595.9000000954,608552.576,613545.664,8,400,,,
trial,html.Screen,4_88_0,2023-09-08T16:15:30.650Z,,0,2,,4254.1359999523265,response,ISIC_0000660.JPG,6,ISIC_1440063.JPG,ISIC_1440063.JPG,false,0,keypress(z),500,617800.100000143,617799.7999999523,613528.808,613599.100000143,613545.664,617737.058,8,400,39,,ISIC_0000660.JPG
break,html.Screen,4_88_1,2023-09-08T16:15:30.651Z,,0,,,NaN,,,,,,false,,,,617801,617800.7000000477,,617800.4000000954,,617737.058,8,400,,,
break_continue,html.Screen,4_88_2,2023-09-08T16:15:30.652Z,,0,,,NaN,,,,,,false,,,,617801.4000000954,617801.2000000477,,617801.100000143,,617737.058,8,400,,,
sequence,flow.Sequence,4_88,2023-09-08T16:15:30.652Z,,0,,,4255.536000047694,completion,,,,,false,,,,617801.600000143,617801.2000000477,613528.808,613599,613545.664,617737.058,8,400,,,
trial,html.Screen,4_89_0,2023-09-08T16:15:36.975Z,,0,2,,6387.442000000039,response,ISIC_9896801.JPG,5,ISIC_0033787.JPG,ISIC_0033787.JPG,false,0,keypress(z),500,624124.7000000477,624124.5,617720.431,617801.9000000954,617737.058,624065.967,8,400,40,,ISIC_9896801.JPG
break,html.Screen,4_89_1,2023-09-08T16:15:36.975Z,,0,,,NaN,,,,,,false,,,,624125,624125,,624124.7999999523,,624065.967,8,400,,,
break_continue,html.Screen,4_89_2,2023-09-08T16:15:36.975Z,,0,,,NaN,,,,,,false,,,,624125.2999999523,624125.2000000477,,624125.100000143,,624065.967,8,400,,,
sequence,flow.Sequence,4_89,2023-09-08T16:15:36.975Z,,0,,,6388.142000047723,completion,,,,,false,,,,624125.2999999523,624125.2000000477,617720.431,617801.7999999523,617737.058,624065.967,8,400,,,
trial,html.Screen,4_90_0,2023-09-08T16:15:41.205Z,,0,2,,4288.533000000054,response,ISIC_0010655.JPG,5,ISIC_9956400.JPG,ISIC_0010655.JPG,false,1,keypress(m),500,628354.7000000477,628354.5,624049.265,624125.4000000954,624065.967,628290.867,8,400,41,,ISIC_9956400.JPG
break,html.Screen,4_90_1,2023-09-08T16:15:41.205Z,,0,,,NaN,,,,,,false,,,,628355.2000000477,628355.100000143,,628354.7999999523,,628290.867,8,400,,,
break_continue,html.Screen,4_90_2,2023-09-08T16:15:41.206Z,,0,,,NaN,,,,,,false,,,,628355.600000143,628355.5,,628355.4000000954,,628290.867,8,400,,,
sequence,flow.Sequence,4_90,2023-09-08T16:15:41.206Z,,0,,,4289.533000000054,completion,,,,,false,,,,628355.7000000477,628355.5,624049.265,624125.4000000954,624065.967,628290.867,8,400,,,
trial,html.Screen,4_91_0,2023-09-08T16:15:44.856Z,,0,2,,3714.432999952347,response,ISIC_0013525.JPG,6,ISIC_0009510.JPG,ISIC_0013525.JPG,false,1,keypress(m),500,632005.4000000954,632005.2999999523,628274.35,628355.9000000954,628290.867,631948.146,8,400,42,,ISIC_0009510.JPG
break,html.Screen,4_91_1,2023-09-08T16:15:44.856Z,,0,,,NaN,,,,,,false,,,,632005.7999999523,632005.7000000477,,632005.5,,631948.146,8,400,,,
break_continue,html.Screen,4_91_2,2023-09-08T16:15:44.856Z,,0,,,NaN,,,,,,false,,,,632006.100000143,632006,,632005.9000000954,,631948.146,8,400,,,
sequence,flow.Sequence,4_91,2023-09-08T16:15:44.856Z,,0,,,3715.1330000000307,completion,,,,,false,,,,632006.2000000477,632006,628274.35,628355.7999999523,628290.867,631948.146,8,400,,,
trial,html.Screen,4_92_0,2023-09-08T16:15:49.963Z,,0,2,,5164.254000095418,response,ISIC_0033166.JPG,5,ISIC_0066401.JPG,ISIC_0066401.JPG,false,0,keypress(z),500,637112.5,637112.4000000954,631931.436,632006.2000000477,631948.146,637074.69,8,400,43,,ISIC_0033166.JPG
break,html.Screen,4_92_1,2023-09-08T16:15:49.963Z,,0,,,NaN,,,,,,false,,,,637113.100000143,637112.9000000954,,637112.7000000477,,637074.69,8,400,,,
break_continue,html.Screen,4_92_2,2023-09-08T16:15:49.964Z,,0,,,NaN,,,,,,false,,,,637113.5,637113.2999999523,,637113.2000000477,,637074.69,8,400,,,
sequence,flow.Sequence,4_92,2023-09-08T16:15:49.964Z,,0,,,5165.153999952367,completion,,,,,false,,,,637113.600000143,637113.2999999523,631931.436,632006.2000000477,631948.146,637074.69,8,400,,,
trial,html.Screen,4_93_0,2023-09-08T16:15:55.950Z,,0,2,,6025.410000143107,response,ISIC_0010618.JPG,5,ISIC_1254469.JPG,ISIC_0010618.JPG,false,1,keypress(m),500,643100.2999999523,643100.100000143,637057.96,637113.7000000477,637074.69,643036.249,8,400,44,,ISIC_1254469.JPG
break,html.Screen,4_93_1,2023-09-08T16:15:55.951Z,,0,,,NaN,,,,,,false,,,,643101,643100.7000000477,,643100.5,,643036.249,8,400,,,
break_continue,html.Screen,4_93_2,2023-09-08T16:15:55.951Z,,0,,,NaN,,,,,,false,,,,643101.2999999523,643101.100000143,,643101.100000143,,643036.249,8,400,,,
sequence,flow.Sequence,4_93,2023-09-08T16:15:55.952Z,,0,,,6026.410000143107,completion,,,,,false,,,,643101.4000000954,643101.100000143,637057.96,637113.7000000477,637074.69,643036.249,8,400,,,
trial,html.Screen,4_94_0,2023-09-08T16:16:00.098Z,,0,2,,4211.050999952364,response,ISIC_7351443.JPG,5,ISIC_8692006.JPG,ISIC_7351443.JPG,false,1,keypress(m),500,647247.5,647247.2999999523,643019.623,643101.600000143,643036.249,647194.297,8,400,45,,ISIC_8692006.JPG
break,html.Screen,4_94_1,2023-09-08T16:16:00.098Z,,0,,,NaN,,,,,,false,,,,647247.7999999523,647247.7000000477,,647247.600000143,,647194.297,8,400,,,
break_continue,html.Screen,4_94_2,2023-09-08T16:16:00.098Z,,0,,,NaN,,,,,,false,,,,647248.2000000477,647248.2000000477,,647248,,647194.297,8,400,,,
sequence,flow.Sequence,4_94,2023-09-08T16:16:00.098Z,,0,,,4211.951000047731,completion,,,,,false,,,,647248.2999999523,647248.2000000477,643019.623,643101.5,643036.249,647194.297,8,400,,,
trial,html.Screen,4_95_0,2023-09-08T16:16:04.424Z,,0,2,,4379.2029999999795,response,ISIC_8320640.JPG,5,ISIC_0070342.JPG,ISIC_0070342.JPG,false,0,keypress(z),500,651573.7999999523,651573.5,647177.614,647248.2999999523,647194.297,651519.404,8,400,46,,ISIC_8320640.JPG
break,html.Screen,4_95_1,2023-09-08T16:16:04.425Z,,0,,,NaN,,,,,,false,,,,651574.600000143,651574.4000000954,,651574,,651519.404,8,400,,,
break_continue,html.Screen,4_95_2,2023-09-08T16:16:04.425Z,,0,,,NaN,,,,,,false,,,,651575.100000143,651575,,651574.7999999523,,651519.404,8,400,,,
sequence,flow.Sequence,4_95,2023-09-08T16:16:04.426Z,,0,,,4380.7029999999795,completion,,,,,false,,,,651575.4000000954,651575,647177.614,647248.2999999523,647194.297,651519.404,8,400,,,
trial,html.Screen,4_96_0,2023-09-08T16:16:14.258Z,,0,2,,9887.796000047703,response,ISIC_1560272.JPG,6,ISIC_5877410.JPG,ISIC_5877410.JPG,false,0,keypress(z),500,661407.600000143,661407.2000000477,651502.869,651575.5,651519.404,661355.247,8,400,47,,ISIC_1560272.JPG
break,html.Screen,4_96_1,2023-09-08T16:16:14.259Z,,0,,,NaN,,,,,,false,,,,661408.5,661408.2999999523,,661407.7999999523,,661355.247,8,400,,,
break_continue,html.Screen,4_96_2,2023-09-08T16:16:14.259Z,,0,,,NaN,,,,,,false,,,,661409,661408.7999999523,,661408.7000000477,,661355.247,8,400,,,
sequence,flow.Sequence,4_96,2023-09-08T16:16:14.259Z,,0,,,9889.395999952336,completion,,,,,false,,,,661409.2000000477,661408.7999999523,651502.869,651575.4000000954,651519.404,661355.247,8,400,,,
trial,html.Screen,4_97_0,2023-09-08T16:16:19.527Z,,0,2,,5321.1530000953935,response,ISIC_4728200.JPG,6,ISIC_1729223.JPG,ISIC_1729223.JPG,false,0,keypress(z),500,666676.5,666676.4000000954,661338.744,661409.4000000954,661355.247,666615.436,8,400,48,,ISIC_4728200.JPG
break,html.Screen,4_97_1,2023-09-08T16:16:19.528Z,,0,,,NaN,,,,,,false,,,,666677.100000143,666677,,666676.7000000477,,666615.436,8,400,,,
break_continue,html.Screen,4_97_2,2023-09-08T16:16:19.528Z,,0,,,NaN,,,,,,false,,,,666677.5,666677.4000000954,,666677.2999999523,,666615.436,8,400,,,
sequence,flow.Sequence,4_97,2023-09-08T16:16:19.528Z,,0,,,5322.1530000953935,completion,,,,,false,,,,666677.600000143,666677.4000000954,661338.744,661409.2999999523,661355.247,666615.436,8,400,,,
trial,html.Screen,4_98_0,2023-09-08T16:16:25.754Z,,0,2,,6287.9640000953805,response,ISIC_0025056.JPG,6,ISIC_0024552.JPG,ISIC_0024552.JPG,false,0,keypress(z),500,672903.7000000477,672903.4000000954,666598.755,666677.7000000477,666615.436,672844.344,8,400,49,,ISIC_0025056.JPG
break,html.Screen,4_98_1,2023-09-08T16:16:25.755Z,,0,,,NaN,,,,,,false,,,,672904.9000000954,672904.600000143,,672904.2000000477,,672844.344,8,400,,,
break_continue,html.Screen,4_98_2,2023-09-08T16:16:25.756Z,,0,,,NaN,,,,,,false,,,,672905.7000000477,672905.4000000954,,672905.2000000477,,672844.344,8,400,,,
sequence,flow.Sequence,4_98,2023-09-08T16:16:25.756Z,,0,,,6289.9640000953805,completion,,,,,false,,,,672905.9000000954,672905.4000000954,666598.755,666677.7000000477,666615.436,672844.344,8,400,,,
trial,html.Screen,4_99_0,2023-09-08T16:16:30.708Z,,0,2,,5013.25600014301,response,ISIC_0025573.JPG,5,ISIC_0061265.JPG,ISIC_0025573.JPG,false,1,keypress(m),500,677857.600000143,677857.600000143,672827.502,672906.2000000477,672844.344,677803.883,8,400,50,,ISIC_0061265.JPG
break,html.Screen,4_99_1,2023-09-08T16:16:40.707Z,,0,,,10002.927999999956,timeout,,,,,false,,,,687856.7000000477,687790.093,677787.298,677857.7000000477,677803.883,687806.811,8,400,,,
break_continue,html.Screen,4_99_2,2023-09-08T16:16:54.625Z,,0,,,13948.189000000013,response,,,,,false,continue,keypress(Space),,701774.600000143,701755,687790.093,687856.7999999523,687806.811,701717.08,8,400,,,
sequence,flow.Sequence,4_99,2023-09-08T16:16:54.625Z,,0,,,28910.65599999996,completion,,,,,false,,,,701774.7000000477,701755,672827.502,672906.100000143,672844.344,701717.08,8,400,,,
trial,html.Screen,4_100_0,2023-09-08T16:16:59.412Z,,0,3,,4844.320000095409,response,ISIC_6809586.JPG,6,ISIC_0056041.JPG,ISIC_0056041.JPG,false,0,keypress(z),500,706561.9000000954,706561.4000000954,701700.512,701774.7000000477,701717.08,706509.751,8,400,1,,ISIC_6809586.JPG
break,html.Screen,4_100_1,2023-09-08T16:16:59.414Z,,0,,,NaN,,,,,,false,,,,706563.100000143,706562.7999999523,,706562.2999999523,,706509.751,8,400,,,
break_continue,html.Screen,4_100_2,2023-09-08T16:16:59.414Z,,0,,,NaN,,,,,,false,,,,706563.7000000477,706563.4000000954,,706563.2999999523,,706509.751,8,400,,,
sequence,flow.Sequence,4_100,2023-09-08T16:16:59.415Z,,0,,,4846.320000095409,completion,,,,,false,,,,706564,706563.4000000954,701700.512,701774.7000000477,701717.08,706509.751,8,400,,,
trial,html.Screen,4_101_0,2023-09-08T16:17:03.658Z,,0,3,,4297.14900009532,response,ISIC_2661598.JPG,5,ISIC_0056938.JPG,ISIC_0056938.JPG,false,0,keypress(z),500,710807.100000143,710806.9000000954,706493.083,706564.2000000477,706509.751,710751.428,8,400,2,,ISIC_2661598.JPG
break,html.Screen,4_101_1,2023-09-08T16:17:03.659Z,,0,,,NaN,,,,,,false,,,,710808,710807.7000000477,,710807.4000000954,,710751.428,8,400,,,
break_continue,html.Screen,4_101_2,2023-09-08T16:17:03.659Z,,0,,,NaN,,,,,,false,,,,710808.4000000954,710808.2000000477,,710808.100000143,,710751.428,8,400,,,
sequence,flow.Sequence,4_101,2023-09-08T16:17:03.659Z,,0,,,4298.449000047636,completion,,,,,false,,,,710808.600000143,710808.2000000477,706493.083,706564.2000000477,706509.751,710751.428,8,400,,,
trial,html.Screen,4_102_0,2023-09-08T16:17:07.285Z,,0,3,,3683.2720000477275,response,ISIC_9397126.JPG,5,ISIC_1351604.JPG,ISIC_1351604.JPG,false,0,keypress(z),500,714434.9000000954,714434.7000000477,710734.721,710808.7999999523,710751.428,714375.059,8,400,3,,ISIC_9397126.JPG
break,html.Screen,4_102_1,2023-09-08T16:17:07.286Z,,0,,,NaN,,,,,,false,,,,714435.600000143,714435.4000000954,,714435.100000143,,714375.059,8,400,,,
break_continue,html.Screen,4_102_2,2023-09-08T16:17:07.287Z,,0,,,NaN,,,,,,false,,,,714436.100000143,714435.9000000954,,714435.7999999523,,714375.059,8,400,,,
sequence,flow.Sequence,4_102,2023-09-08T16:17:07.287Z,,0,,,3684.472000095411,completion,,,,,false,,,,714436.2999999523,714435.9000000954,710734.721,710808.7000000477,710751.428,714375.059,8,400,,,
trial,html.Screen,4_103_0,2023-09-08T16:17:11.161Z,,0,3,,3935.1410000476753,response,ISIC_0710431.JPG,5,ISIC_9155028.JPG,ISIC_0710431.JPG,false,1,keypress(m),500,718310.600000143,718310.2000000477,714358.504,714436.4000000954,714375.059,718249.338,8,400,4,,ISIC_9155028.JPG
break,html.Screen,4_103_1,2023-09-08T16:17:11.162Z,,0,,,NaN,,,,,,false,,,,718311.7999999523,718311.5,,718311,,718249.338,8,400,,,
break_continue,html.Screen,4_103_2,2023-09-08T16:17:11.163Z,,0,,,NaN,,,,,,false,,,,718312.5,718312.2999999523,,718312.100000143,,718249.338,8,400,,,
sequence,flow.Sequence,4_103,2023-09-08T16:17:11.163Z,,0,,,3937.240999952308,completion,,,,,false,,,,718312.7999999523,718312.2999999523,714358.504,714436.2999999523,714375.059,718249.338,8,400,,,
trial,html.Screen,4_104_0,2023-09-08T16:17:15.983Z,,0,3,,4882.4619999523275,response,ISIC_5092834.JPG,5,ISIC_6260086.JPG,ISIC_6260086.JPG,false,0,keypress(z),500,723132.4000000954,723131.7999999523,718232.718,718313,718249.338,723075.255,8,400,5,,ISIC_5092834.JPG
break,html.Screen,4_104_1,2023-09-08T16:17:15.985Z,,0,,,NaN,,,,,,false,,,,723133.600000143,723133.2999999523,,723132.600000143,,723075.255,8,400,,,
break_continue,html.Screen,4_104_2,2023-09-08T16:17:15.985Z,,0,,,NaN,,,,,,false,,,,723134.4000000954,723134.100000143,,723134,,723075.255,8,400,,,
sequence,flow.Sequence,4_104,2023-09-08T16:17:15.985Z,,0,,,4884.762000143062,completion,,,,,false,,,,723134.5,723134.100000143,718232.718,718313,718249.338,723075.255,8,400,,,
trial,html.Screen,4_105_0,2023-09-08T16:17:19.828Z,,0,3,,3901.445000047679,response,ISIC_2126575.JPG,5,ISIC_0013473.JPG,ISIC_0013473.JPG,false,0,keypress(z),500,726976.7999999523,726976.7000000477,723058.731,723134.600000143,723075.255,726916.109,8,400,6,,ISIC_2126575.JPG
break,html.Screen,4_105_1,2023-09-08T16:17:19.828Z,,0,,,NaN,,,,,,false,,,,726977.100000143,726977.100000143,,726977,,726916.109,8,400,,,
break_continue,html.Screen,4_105_2,2023-09-08T16:17:19.828Z,,0,,,NaN,,,,,,false,,,,726977.2000000477,726977.2000000477,,726977.2000000477,,726916.109,8,400,,,
sequence,flow.Sequence,4_105,2023-09-08T16:17:19.828Z,,0,,,3901.945000047679,completion,,,,,false,,,,726977.4000000954,726977.2000000477,723058.731,723134.600000143,723075.255,726916.109,8,400,,,
trial,html.Screen,4_106_0,2023-09-08T16:17:24.070Z,,0,3,,4302.690999952261,response,ISIC_1108178.JPG,5,ISIC_8559778.JPG,ISIC_1108178.JPG,false,1,keypress(m),500,731219.100000143,731218.7999999523,726899.394,726977.4000000954,726916.109,731157.816,8,400,7,,ISIC_8559778.JPG
break,html.Screen,4_106_1,2023-09-08T16:17:24.071Z,,0,,,NaN,,,,,,false,,,,731220.2000000477,731219.9000000954,,731219.5,,731157.816,8,400,,,
break_continue,html.Screen,4_106_2,2023-09-08T16:17:24.072Z,,0,,,NaN,,,,,,false,,,,731220.7999999523,731220.600000143,,731220.5,,731157.816,8,400,,,
sequence,flow.Sequence,4_106,2023-09-08T16:17:24.072Z,,0,,,4304.491000142996,completion,,,,,false,,,,731221.2000000477,731220.600000143,726899.394,726977.4000000954,726916.109,731157.816,8,400,,,
trial,html.Screen,4_107_0,2023-09-08T16:17:30.770Z,,0,3,,6760.684000000008,response,ISIC_6899527.JPG,5,ISIC_8184471.JPG,ISIC_8184471.JPG,false,0,keypress(z),500,737918.7000000477,737918.5,731141.011,731221.4000000954,731157.816,737870.866,8,400,8,,ISIC_6899527.JPG
break,html.Screen,4_107_1,2023-09-08T16:17:30.770Z,,0,,,NaN,,,,,,false,,,,737919.600000143,737919.2999999523,,737919,,737870.866,8,400,,,
break_continue,html.Screen,4_107_2,2023-09-08T16:17:30.771Z,,0,,,NaN,,,,,,false,,,,737919.7999999523,737919.7000000477,,737919.7000000477,,737870.866,8,400,,,
sequence,flow.Sequence,4_107,2023-09-08T16:17:30.771Z,,0,,,6761.884000047692,completion,,,,,false,,,,737919.7999999523,737919.7000000477,731141.011,731221.2000000477,731157.816,737870.866,8,400,,,
trial,html.Screen,4_108_0,2023-09-08T16:17:34.053Z,,0,3,,3331.234000143013,response,ISIC_0027591.JPG,5,ISIC_0030828.JPG,ISIC_0027591.JPG,false,1,keypress(m),500,741202.2000000477,741202.100000143,737854.169,737919.9000000954,737870.866,741160.527,8,400,9,,ISIC_0030828.JPG
break,html.Screen,4_108_1,2023-09-08T16:17:34.054Z,,0,,,NaN,,,,,,false,,,,741202.600000143,741202.600000143,,741202.4000000954,,741160.527,8,400,,,
break_continue,html.Screen,4_108_2,2023-09-08T16:17:34.054Z,,0,,,NaN,,,,,,false,,,,741202.9000000954,741202.7999999523,,741202.7000000477,,741160.527,8,400,,,
sequence,flow.Sequence,4_108,2023-09-08T16:17:34.054Z,,0,,,3331.933999952278,completion,,,,,false,,,,741203,741202.7999999523,737854.169,737919.9000000954,737870.866,741160.527,8,400,,,
trial,html.Screen,4_109_0,2023-09-08T16:17:42.296Z,,0,3,,8283.873000095366,response,ISIC_0011329.JPG,5,ISIC_0218072.JPG,ISIC_0011329.JPG,false,1,keypress(m),500,749444.600000143,749444.4000000954,741143.777,741203.100000143,741160.527,749393.347,8,400,10,,ISIC_0218072.JPG
break,html.Screen,4_109_1,2023-09-08T16:17:42.296Z,,0,,,NaN,,,,,,false,,,,749445.5,749445.2000000477,,749444.9000000954,,749393.347,8,400,,,
break_continue,html.Screen,4_109_2,2023-09-08T16:17:42.297Z,,0,,,NaN,,,,,,false,,,,749446,749445.7999999523,,749445.600000143,,749393.347,8,400,,,
sequence,flow.Sequence,4_109,2023-09-08T16:17:42.297Z,,0,,,8285.272999952314,completion,,,,,false,,,,749446.100000143,749445.7999999523,741143.777,741203.100000143,741160.527,749393.347,8,400,,,
trial,html.Screen,4_110_0,2023-09-08T16:17:47.501Z,,0,3,,5256.053000095417,response,ISIC_0026020.JPG,5,ISIC_4518384.JPG,ISIC_4518384.JPG,false,0,keypress(z),500,754649.7000000477,754649.4000000954,749376.599,749446.2999999523,749393.347,754586.725,8,400,11,,ISIC_0026020.JPG
break,html.Screen,4_110_1,2023-09-08T16:17:47.502Z,,0,,,NaN,,,,,,false,,,,754650.7000000477,754650.4000000954,,754650,,754586.725,8,400,,,
break_continue,html.Screen,4_110_2,2023-09-08T16:17:47.502Z,,0,,,NaN,,,,,,false,,,,754651.2000000477,754651,,754650.7999999523,,754586.725,8,400,,,
sequence,flow.Sequence,4_110,2023-09-08T16:17:47.502Z,,0,,,5257.653000000049,completion,,,,,false,,,,754651.4000000954,754651,749376.599,749446.2000000477,749393.347,754586.725,8,400,,,
trial,html.Screen,4_111_0,2023-09-08T16:17:51.377Z,,0,3,,3939.1750000953907,response,ISIC_0011185.JPG,5,ISIC_0066470.JPG,ISIC_0011185.JPG,false,1,keypress(m),500,758526.2000000477,758525.9000000954,754569.936,754651.5,754586.725,758477.797,8,400,12,,ISIC_0066470.JPG
break,html.Screen,4_111_1,2023-09-08T16:17:51.378Z,,0,,,NaN,,,,,,false,,,,758527.2000000477,758526.9000000954,,758526.4000000954,,758477.797,8,400,,,
break_continue,html.Screen,4_111_2,2023-09-08T16:17:51.379Z,,0,,,NaN,,,,,,false,,,,758527.9000000954,758527.600000143,,758527.4000000954,,758477.797,8,400,,,
sequence,flow.Sequence,4_111,2023-09-08T16:17:51.379Z,,0,,,3940.8750001430744,completion,,,,,false,,,,758528.2000000477,758527.600000143,754569.936,754651.5,754586.725,758477.797,8,400,,,
trial,html.Screen,4_112_0,2023-09-08T16:17:57.477Z,,0,3,,6148.002999952296,response,ISIC_1477990.JPG,6,ISIC_0482585.JPG,ISIC_0482585.JPG,false,0,keypress(z),500,764625.9000000954,764625.7999999523,758460.83,758528.2999999523,758477.797,764589.586,8,400,13,,ISIC_1477990.JPG
break,html.Screen,4_112_1,2023-09-08T16:17:57.477Z,,0,,,NaN,,,,,,false,,,,764626.4000000954,764626.2999999523,,764626,,764589.586,8,400,,,
break_continue,html.Screen,4_112_2,2023-09-08T16:17:57.478Z,,0,,,NaN,,,,,,false,,,,764626.7000000477,764626.5,,764626.4000000954,,764589.586,8,400,,,
sequence,flow.Sequence,4_112,2023-09-08T16:17:57.478Z,,0,,,6148.7029999999795,completion,,,,,false,,,,764626.7000000477,764626.5,758460.83,758528.2000000477,758477.797,764589.586,8,400,,,
trial,html.Screen,4_113_0,2023-09-08T16:18:01.067Z,,0,3,,3626.314000095357,response,ISIC_3591332.JPG,5,ISIC_0028320.JPG,ISIC_3591332.JPG,false,1,keypress(m),500,768216.2000000477,768215.9000000954,764572.868,764626.7999999523,764589.586,768163.215,8,400,14,,ISIC_0028320.JPG
break,html.Screen,4_113_1,2023-09-08T16:18:01.068Z,,0,,,NaN,,,,,,false,,,,768217.2999999523,768217,,768216.4000000954,,768163.215,8,400,,,
break_continue,html.Screen,4_113_2,2023-09-08T16:18:01.069Z,,0,,,NaN,,,,,,false,,,,768217.7000000477,768217.600000143,,768217.4000000954,,768163.215,8,400,,,
sequence,flow.Sequence,4_113,2023-09-08T16:18:01.069Z,,0,,,3628.014000143041,completion,,,,,false,,,,768217.9000000954,768217.600000143,764572.868,764626.7000000477,764589.586,768163.215,8,400,,,
trial,html.Screen,4_114_0,2023-09-08T16:18:04.773Z,,0,3,,3758.584999952349,response,ISIC_0056930.JPG,6,ISIC_0005006.JPG,ISIC_0005006.JPG,false,0,keypress(z),500,771922,771921.7999999523,768146.377,768218.4000000954,768163.215,771870.245,8,400,15,,ISIC_0056930.JPG
break,html.Screen,4_114_1,2023-09-08T16:18:04.773Z,,0,,,NaN,,,,,,false,,,,771922.4000000954,771922.2000000477,,771922,,771870.245,8,400,,,
break_continue,html.Screen,4_114_2,2023-09-08T16:18:04.774Z,,0,,,NaN,,,,,,false,,,,771922.600000143,771922.5,,771922.4000000954,,771870.245,8,400,,,
sequence,flow.Sequence,4_114,2023-09-08T16:18:04.774Z,,0,,,3759.2850000000326,completion,,,,,false,,,,771922.7999999523,771922.5,768146.377,768218.2999999523,768163.215,771870.245,8,400,,,
trial,html.Screen,4_115_0,2023-09-08T16:18:09.145Z,,0,3,,4423.554999952321,response,ISIC_4620053.JPG,5,ISIC_0014629.JPG,ISIC_0014629.JPG,false,0,keypress(z),500,776294,776293.7999999523,771853.666,771922.9000000954,771870.245,776228.735,8,400,16,,ISIC_4620053.JPG
break,html.Screen,4_115_1,2023-09-08T16:18:09.145Z,,0,,,NaN,,,,,,false,,,,776294.5,776294.2999999523,,776294.2000000477,,776228.735,8,400,,,
break_continue,html.Screen,4_115_2,2023-09-08T16:18:09.146Z,,0,,,NaN,,,,,,false,,,,776294.9000000954,776294.7000000477,,776294.7000000477,,776228.735,8,400,,,
sequence,flow.Sequence,4_115,2023-09-08T16:18:09.146Z,,0,,,4424.455000047688,completion,,,,,false,,,,776295,776294.7000000477,771853.666,771922.7999999523,771870.245,776228.735,8,400,,,
trial,html.Screen,4_116_0,2023-09-08T16:18:12.254Z,,0,3,,3174.265000000014,response,ISIC_4071825.JPG,5,ISIC_0065360.JPG,ISIC_0065360.JPG,false,0,keypress(z),500,779403.2000000477,779403,776212.133,776295.100000143,776228.735,779351.511,8,400,17,,ISIC_4071825.JPG
break,html.Screen,4_116_1,2023-09-08T16:18:12.255Z,,0,,,NaN,,,,,,false,,,,779404.5,779404.2000000477,,779403.7000000477,,779351.511,8,400,,,
break_continue,html.Screen,4_116_2,2023-09-08T16:18:12.256Z,,0,,,NaN,,,,,,false,,,,779405.2999999523,779405.100000143,,779404.9000000954,,779351.511,8,400,,,
sequence,flow.Sequence,4_116,2023-09-08T16:18:12.257Z,,0,,,3176.365000143065,completion,,,,,false,,,,779405.600000143,779405.100000143,776212.133,776295.100000143,776228.735,779351.511,8,400,,,
trial,html.Screen,4_117_0,2023-09-08T16:18:18.106Z,,0,3,,5902.488999999943,response,ISIC_0058024.JPG,5,ISIC_0033405.JPG,ISIC_0058024.JPG,false,1,keypress(m),500,785254.2999999523,785254,779334.976,779405.9000000954,779351.511,785196.223,8,400,18,,ISIC_0033405.JPG
break,html.Screen,4_117_1,2023-09-08T16:18:18.107Z,,0,,,NaN,,,,,,false,,,,785255.600000143,785255.2000000477,,785254.7000000477,,785196.223,8,400,,,
break_continue,html.Screen,4_117_2,2023-09-08T16:18:18.108Z,,0,,,NaN,,,,,,false,,,,785256.4000000954,785256.2000000477,,785255.9000000954,,785196.223,8,400,,,
sequence,flow.Sequence,4_117,2023-09-08T16:18:18.108Z,,0,,,5904.689000047627,completion,,,,,false,,,,785256.7999999523,785256.2000000477,779334.976,779405.7999999523,779351.511,785196.223,8,400,,,
trial,html.Screen,4_118_0,2023-09-08T16:18:22.767Z,,0,3,,4719.277000000002,response,ISIC_0065360.JPG,5,ISIC_8363485.JPG,ISIC_0065360.JPG,false,1,keypress(m),500,789915.9000000954,789915.5,785179.641,785257,785196.223,789855.259,8,400,19,,ISIC_8363485.JPG
break,html.Screen,4_118_1,2023-09-08T16:18:22.768Z,,0,,,NaN,,,,,,false,,,,789917.100000143,789916.9000000954,,789916.2999999523,,789855.259,8,400,,,
break_continue,html.Screen,4_118_2,2023-09-08T16:18:22.769Z,,0,,,NaN,,,,,,false,,,,789917.7999999523,789917.600000143,,789917.4000000954,,789855.259,8,400,,,
sequence,flow.Sequence,4_118,2023-09-08T16:18:22.769Z,,0,,,4721.377000143053,completion,,,,,false,,,,789918.2000000477,789917.600000143,785179.641,785256.9000000954,785196.223,789855.259,8,400,,,
trial,html.Screen,4_119_0,2023-09-08T16:18:28.757Z,,0,3,,6050.441000047722,response,ISIC_7555812.JPG,5,ISIC_5335139.JPG,ISIC_7555812.JPG,false,1,keypress(m),500,795905.9000000954,795905.7000000477,789838.691,789918.4000000954,789855.259,795850.292,8,400,20,,ISIC_5335139.JPG
break,html.Screen,4_119_1,2023-09-08T16:18:28.757Z,,0,,,NaN,,,,,,false,,,,795906.2999999523,795906.2000000477,,795906,,795850.292,8,400,,,
break_continue,html.Screen,4_119_2,2023-09-08T16:18:28.758Z,,0,,,NaN,,,,,,false,,,,795906.600000143,795906.5,,795906.4000000954,,795850.292,8,400,,,
sequence,flow.Sequence,4_119,2023-09-08T16:18:28.758Z,,0,,,6051.241000000038,completion,,,,,false,,,,795906.7000000477,795906.5,789838.691,789918.2999999523,789855.259,795850.292,8,400,,,
trial,html.Screen,4_120_0,2023-09-08T16:18:33.608Z,,0,3,,4906.908000047668,response,ISIC_0028898.JPG,5,ISIC_0032396.JPG,ISIC_0032396.JPG,false,0,keypress(z),500,800757.2000000477,800757.2000000477,795833.715,795906.7000000477,795850.292,800692.971,8,400,21,,ISIC_0028898.JPG
break,html.Screen,4_120_1,2023-09-08T16:18:33.609Z,,0,,,NaN,,,,,,false,,,,800757.600000143,800757.5,,800757.4000000954,,800692.971,8,400,,,
break_continue,html.Screen,4_120_2,2023-09-08T16:18:33.609Z,,0,,,NaN,,,,,,false,,,,800757.7000000477,800757.7000000477,,800757.7000000477,,800692.971,8,400,,,
sequence,flow.Sequence,4_120,2023-09-08T16:18:33.609Z,,0,,,4907.408000047668,completion,,,,,false,,,,800757.9000000954,800757.7000000477,795833.715,795906.7000000477,795850.292,800692.971,8,400,,,
trial,html.Screen,4_121_0,2023-09-08T16:18:37.802Z,,0,3,,4257.52899999998,response,ISIC_0009186.JPG,5,ISIC_4695051.JPG,ISIC_4695051.JPG,false,0,keypress(z),500,804950.7000000477,804950.5,800676.298,800757.9000000954,800692.971,804901.3,8,400,22,,ISIC_0009186.JPG
break,html.Screen,4_121_1,2023-09-08T16:18:37.802Z,,0,,,NaN,,,,,,false,,,,804951.100000143,804951,,804950.7999999523,,804901.3,8,400,,,
break_continue,html.Screen,4_121_2,2023-09-08T16:18:37.803Z,,0,,,NaN,,,,,,false,,,,804951.4000000954,804951.2000000477,,804951.2000000477,,804901.3,8,400,,,
sequence,flow.Sequence,4_121,2023-09-08T16:18:37.803Z,,0,,,4258.229000047664,completion,,,,,false,,,,804951.4000000954,804951.2000000477,800676.298,800757.9000000954,800692.971,804901.3,8,400,,,
trial,html.Screen,4_122_0,2023-09-08T16:18:42.012Z,,0,3,,4259.199999999953,response,ISIC_1590829.JPG,5,ISIC_6811363.JPG,ISIC_1590829.JPG,false,1,keypress(m),500,809160.5,809160.5,804884.507,804951.5,804901.3,809109.558,8,400,23,,ISIC_6811363.JPG
break,html.Screen,4_122_1,2023-09-08T16:18:42.012Z,,0,,,NaN,,,,,,false,,,,809160.9000000954,809160.7999999523,,809160.600000143,,809109.558,8,400,,,
break_continue,html.Screen,4_122_2,2023-09-08T16:18:42.012Z,,0,,,NaN,,,,,,false,,,,809161,809161,,809161,,809109.558,8,400,,,
sequence,flow.Sequence,4_122,2023-09-08T16:18:42.012Z,,0,,,4259.699999999953,completion,,,,,false,,,,809161.100000143,809161,804884.507,804951.5,804901.3,809109.558,8,400,,,
trial,html.Screen,4_123_0,2023-09-08T16:18:48.866Z,,0,3,,6904.442000000039,response,ISIC_0064463.JPG,4,ISIC_3727059.JPG,ISIC_0064463.JPG,false,1,keypress(m),500,816014.2999999523,816014,809092.687,809161.100000143,809109.558,815956.063,8,400,24,,ISIC_3727059.JPG
break,html.Screen,4_123_1,2023-09-08T16:18:48.867Z,,0,,,NaN,,,,,,false,,,,816015.2999999523,816014.9000000954,,816014.600000143,,815956.063,8,400,,,
break_continue,html.Screen,4_123_2,2023-09-08T16:18:48.867Z,,0,,,NaN,,,,,,false,,,,816015.7000000477,816015.600000143,,816015.4000000954,,815956.063,8,400,,,
sequence,flow.Sequence,4_123,2023-09-08T16:18:48.867Z,,0,,,6906.04200014309,completion,,,,,false,,,,816015.7999999523,816015.600000143,809092.687,809161.100000143,809109.558,815956.063,8,400,,,
trial,html.Screen,4_124_0,2023-09-08T16:18:53.254Z,,0,3,,4446.4370000000345,response,ISIC_4252268.JPG,4,ISIC_7994337.JPG,ISIC_4252268.JPG,false,1,keypress(m),500,820402.600000143,820402.5,815939.379,816016,815956.063,820348.186,8,400,25,,ISIC_7994337.JPG
break,html.Screen,4_124_1,2023-09-08T16:18:53.254Z,,0,,,NaN,,,,,,false,,,,820403.100000143,820403,,820402.7999999523,,820348.186,8,400,,,
break_continue,html.Screen,4_124_2,2023-09-08T16:18:53.255Z,,0,,,NaN,,,,,,false,,,,820403.4000000954,820403.2999999523,,820403.2000000477,,820348.186,8,400,,,
sequence,flow.Sequence,4_124,2023-09-08T16:18:53.255Z,,0,,,4447.236999952351,completion,,,,,false,,,,820403.4000000954,820403.2999999523,815939.379,816016,815956.063,820348.186,8,400,,,
trial,html.Screen,4_125_0,2023-09-08T16:18:57.151Z,,0,3,,3951.414000143064,response,ISIC_0033439.JPG,5,ISIC_4311777.JPG,ISIC_4311777.JPG,false,0,keypress(z),500,824299.7999999523,824299.600000143,820331.248,820403.5,820348.186,824238.819,8,400,26,,ISIC_0033439.JPG
break,html.Screen,4_125_1,2023-09-08T16:18:57.152Z,,0,,,NaN,,,,,,false,,,,824300.4000000954,824300.100000143,,824299.9000000954,,824238.819,8,400,,,
break_continue,html.Screen,4_125_2,2023-09-08T16:18:57.152Z,,0,,,NaN,,,,,,false,,,,824300.600000143,824300.600000143,,824300.5,,824238.819,8,400,,,
sequence,flow.Sequence,4_125,2023-09-08T16:18:57.152Z,,0,,,3952.414000143064,completion,,,,,false,,,,824300.7000000477,824300.600000143,820331.248,820403.5,820348.186,824238.819,8,400,,,
