sender,sender_type,sender_id,timestamp,meta,,blockNo,condition,duration,ended_on,img_left,img_reveal,img_right,loser,practice,response,response_action,selection_duration,time_commit,time_end,time_render,time_run,time_show,time_switch,total_blocks,total_trials,trialNo,url,winner
informed_consent,html.Screen,0,2023-09-11T19:04:47.626Z,"{""labjs_version"":""20.2.4"",""labjs_build"":{""flavor"":""development"",""commit"":""f5b4a49f956347addd546a832a3327688c2c0fef""},""location"":""https://labjs.felixhenninger.com/api/labjs_preview/index.html"",""userAgent"":""Mozilla/5.0 (Windows NT 10.0; Win64; x64) AppleWebKit/537.36 (KHTML, like Gecko) Chrome/116.0.0.0 Safari/537.36"",""platform"":""Win32"",""language"":""en-AU"",""locale"":""en-US"",""timeZone"":""America/Chicago"",""timezoneOffset"":300,""screen_width"":1680,""screen_height"":1050,""scroll_width"":1296,""scroll_height"":688,""window_innerWidth"":1296,""window_innerHeight"":736,""devicePixelRatio"":1}",,,,5755.418000286102,response,,,,,,consent,click button,,6334.60000038147,6333.700000286102,561.564,568.2000002861023,578.282,6339.469,,,,{},
Welcome,html.Screen,1,2023-09-11T19:05:03.414Z,,,,colourful,15780.331000190734,response,,,,,,continue,click button,,22120.5,22119.800000190735,6322.736,6334.800000190735,6339.469,22120.156,,,,,
trial,html.Screen,2_0_0,2023-09-11T19:05:09.864Z,,0,0,,6450.944000381471,response,ISIC_0063388.JPG,,ISIC_0025593.JPG,ISIC_0063388.JPG,true,1,keypress(m),500,28571.200000286102,28571.10000038147,22103.504,22120.60000038147,22120.156,28582.823,1,6,1,,ISIC_0025593.JPG
sequence,flow.Sequence,2_0,2023-09-11T19:05:09.865Z,,0,,,6450.944000381471,completion,,,,,true,,,,28571.400000095367,28571.10000038147,22103.504,22120.60000038147,22120.156,28582.823,1,6,,,
trial,html.Screen,2_1_0,2023-09-11T19:05:14.426Z,,0,0,,4550.177,response,ISIC_0028178.JPG,,ISIC_1309015.JPG,ISIC_1309015.JPG,true,0,keypress(z),500,33133.10000038147,33133,28566.041,28571.60000038147,28582.823,33141.623,1,6,2,,ISIC_0028178.JPG
sequence,flow.Sequence,2_1,2023-09-11T19:05:14.426Z,,0,,,4550.177,completion,,,,,true,,,,33133.2000002861,33133,28566.041,28571.5,28582.823,33141.623,1,6,,,
trial,html.Screen,2_2_0,2023-09-11T19:05:17.611Z,,0,0,,3176.5770002861027,response,ISIC_3314853.JPG,,ISIC_0031128.JPG,ISIC_3314853.JPG,true,1,keypress(m),500,36318.40000009537,36318.2000002861,33124.953,33133.40000009537,33141.623,36331.164,1,6,3,,ISIC_0031128.JPG
sequence,flow.Sequence,2_2,2023-09-11T19:05:17.612Z,,0,,,3176.5770002861027,completion,,,,,true,,,,36318.5,36318.2000002861,33124.953,33133.40000009537,33141.623,36331.164,1,6,,,
trial,html.Screen,2_3_0,2023-09-11T19:05:20.557Z,,0,0,,2932.636000190738,response,ISIC_0031612.JPG,,ISIC_8980141.JPG,ISIC_8980141.JPG,true,0,keypress(z),500,39264.10000038147,39263.800000190735,36314.483,36318.60000038147,36331.164,39270.169,1,6,4,,ISIC_0031612.JPG
sequence,flow.Sequence,2_3,2023-09-11T19:05:20.557Z,,0,,,2932.636000190738,completion,,,,,true,,,,39264.300000190735,39263.800000190735,36314.483,36318.5,36331.164,39270.169,1,6,,,
trial,html.Screen,2_4_0,2023-09-11T19:05:23.862Z,,0,0,,3298.3309999999983,response,ISIC_9721604.JPG,,ISIC_1197737.JPG,ISIC_9721604.JPG,true,1,keypress(m),500,42568.7000002861,42568.5,39253.479,39264.5,39270.169,42576.598,1,6,5,,ISIC_1197737.JPG
sequence,flow.Sequence,2_4,2023-09-11T19:05:23.862Z,,0,,,3298.3309999999983,completion,,,,,true,,,,42568.800000190735,42568.5,39253.479,39264.40000009537,39270.169,42576.598,1,6,,,
trial,html.Screen,2_5_0,2023-09-11T19:05:28.615Z,,0,0,,4745.102000286104,response,ISIC_0010681.JPG,,ISIC_0025346.JPG,ISIC_0010681.JPG,true,1,keypress(m),500,47322,47321.7000002861,42560.02,42569,42576.598,47336.049,1,6,6,,ISIC_0025346.JPG
sequence,flow.Sequence,2_5,2023-09-11T19:05:28.615Z,,0,,,4745.102000286104,completion,,,,,true,,,,47322.300000190735,47321.7000002861,42560.02,42569,42576.598,47336.049,1,6,,,
loop,flow.Loop,2,2023-09-11T19:05:28.616Z,,,,,25201.544000286103,completion,,,,,true,,,,47322.5,47321.7000002861,22103.504,22120.60000038147,22120.156,47336.049,1,6,,,
exp_instructions,html.Screen,3,2023-09-11T19:05:34.149Z,,,,,5519.851000095368,response,,,,,,continue,keypress(Space),,52856.300000190735,52855.90000009537,47319.358,47322.60000038147,47336.049,52863.316,,,,,
trial,html.Screen,4_0_0,2023-09-11T19:05:39.273Z,,0,1,,5116.284000381471,response,ISIC_1736735.JPG,5,ISIC_0024990.JPG,ISIC_1736735.JPG,false,1,keypress(m),500,57979.7000002861,57979.60000038147,52846.616,52856.40000009537,52863.316,57989.958,8,400,1,,ISIC_0024990.JPG
break,html.Screen,4_0_1,2023-09-11T19:05:39.274Z,,0,,,NaN,,,,,,false,,,,57980.5,57980.2000002861,,57979.800000190735,,57989.958,8,400,,,
break_continue,html.Screen,4_0_2,2023-09-11T19:05:39.274Z,,0,,,NaN,,,,,,false,,,,57980.800000190735,57980.7000002861,,57980.5,,57989.958,8,400,,,
sequence,flow.Sequence,4_0,2023-09-11T19:05:39.274Z,,0,,,5117.384000286103,completion,,,,,false,,,,57980.90000009537,57980.7000002861,52846.616,52856.40000009537,52863.316,57989.958,8,400,,,
trial,html.Screen,4_1_0,2023-09-11T19:05:45.483Z,,0,1,,6200.042000000001,response,ISIC_4329176.JPG,10,ISIC_9709101.JPG,ISIC_9709101.JPG,false,0,keypress(z),500,64190.10000038147,64190,57973.358,57980.90000009537,57989.958,64202.041,8,400,2,,ISIC_4329176.JPG
break,html.Screen,4_1_1,2023-09-11T19:05:45.484Z,,0,,,NaN,,,,,,false,,,,64190.7000002861,64190.5,,64190.2000002861,,64202.041,8,400,,,
break_continue,html.Screen,4_1_2,2023-09-11T19:05:45.484Z,,0,,,NaN,,,,,,false,,,,64191,64190.90000009537,,64190.7000002861,,64202.041,8,400,,,
sequence,flow.Sequence,4_1,2023-09-11T19:05:45.484Z,,0,,,6200.942000095369,completion,,,,,false,,,,64191.10000038147,64190.90000009537,57973.358,57980.90000009537,57989.958,64202.041,8,400,,,
trial,html.Screen,4_2_0,2023-09-11T19:05:50.542Z,,0,1,,5046.259000190737,response,ISIC_0070566.JPG,4,ISIC_5563553.JPG,ISIC_5563553.JPG,false,0,keypress(z),500,69248.40000009537,69248.30000019073,64185.398,64191.2000002861,64202.041,69261.988,8,400,3,,ISIC_0070566.JPG
break,html.Screen,4_2_1,2023-09-11T19:05:50.542Z,,0,,,NaN,,,,,,false,,,,69248.90000009537,69248.90000009537,,69248.60000038147,,69261.988,8,400,,,
break_continue,html.Screen,4_2_2,2023-09-11T19:05:50.542Z,,0,,,NaN,,,,,,false,,,,69249.10000038147,69249,,69249,,69261.988,8,400,,,
sequence,flow.Sequence,4_2,2023-09-11T19:05:50.542Z,,0,,,5046.959000000003,completion,,,,,false,,,,69249.2000002861,69249,64185.398,64191.10000038147,64202.041,69261.988,8,400,,,
trial,html.Screen,4_3_0,2023-09-11T19:05:54.433Z,,0,1,,3877.3120001907373,response,ISIC_2746860.JPG,5,ISIC_0061825.JPG,ISIC_2746860.JPG,false,1,keypress(m),500,73139.5,73139.30000019073,69245.228,69249.30000019073,69261.988,73152.803,8,400,4,,ISIC_0061825.JPG
break,html.Screen,4_3_1,2023-09-11T19:05:54.434Z,,0,,,NaN,,,,,,false,,,,73140.80000019073,73140.30000019073,,73139.7000002861,,73152.803,8,400,,,
break_continue,html.Screen,4_3_2,2023-09-11T19:05:54.435Z,,0,,,NaN,,,,,,false,,,,73141.40000009537,73141.30000019073,,73141,,73152.803,8,400,,,
sequence,flow.Sequence,4_3,2023-09-11T19:05:54.435Z,,0,,,3879.3120001907373,completion,,,,,false,,,,73141.60000038147,73141.30000019073,69245.228,69249.30000019073,69261.988,73152.803,8,400,,,
trial,html.Screen,4_4_0,2023-09-11T19:05:59.278Z,,0,1,,4830.997000190735,response,ISIC_6445453.JPG,5,ISIC_0063447.JPG,ISIC_6445453.JPG,false,1,keypress(m),500,77983.80000019073,77983.80000019073,73136.158,73141.7000002861,73152.803,77995.521,8,400,5,,ISIC_0063447.JPG
break,html.Screen,4_4_1,2023-09-11T19:05:59.279Z,,0,,,NaN,,,,,,false,,,,77984.5,77984.30000019073,,77984,,77995.521,8,400,,,
break_continue,html.Screen,4_4_2,2023-09-11T19:05:59.279Z,,0,,,NaN,,,,,,false,,,,77984.80000019073,77984.80000019073,,77984.7000002861,,77995.521,8,400,,,
sequence,flow.Sequence,4_4,2023-09-11T19:05:59.279Z,,0,,,4831.997000190735,completion,,,,,false,,,,77984.90000009537,77984.80000019073,73136.158,73141.7000002861,73152.803,77995.521,8,400,,,
trial,html.Screen,4_5_0,2023-09-11T19:06:03.473Z,,0,1,,4182.479000000007,response,ISIC_0024297.JPG,5,ISIC_2809019.JPG,ISIC_2809019.JPG,false,0,keypress(z),500,82178.10000038147,82178,77978.874,77985,77995.521,82187.042,8,400,6,,ISIC_0024297.JPG
break,html.Screen,4_5_1,2023-09-11T19:06:03.473Z,,0,,,NaN,,,,,,false,,,,82178.90000009537,82178.60000038147,,82178.30000019073,,82187.042,8,400,,,
break_continue,html.Screen,4_5_2,2023-09-11T19:06:03.474Z,,0,,,NaN,,,,,,false,,,,82179.2000002861,82179.10000038147,,82178.90000009537,,82187.042,8,400,,,
sequence,flow.Sequence,4_5,2023-09-11T19:06:03.474Z,,0,,,4183.579000381476,completion,,,,,false,,,,82179.2000002861,82179.10000038147,77978.874,77985,77995.521,82187.042,8,400,,,
trial,html.Screen,4_6_0,2023-09-11T19:06:11.203Z,,0,1,,7721.758000190734,response,ISIC_3416324.JPG,5,ISIC_2310935.JPG,ISIC_3416324.JPG,false,1,keypress(m),500,89908.90000009537,89908.80000019073,82170.413,82179.30000019073,82187.042,89918.839,8,400,7,,ISIC_2310935.JPG
break,html.Screen,4_6_1,2023-09-11T19:06:11.204Z,,0,,,NaN,,,,,,false,,,,89909.40000009537,89909.2000002861,,89909,,89918.839,8,400,,,
break_continue,html.Screen,4_6_2,2023-09-11T19:06:11.204Z,,0,,,NaN,,,,,,false,,,,89909.5,89909.5,,89909.40000009537,,89918.839,8,400,,,
sequence,flow.Sequence,4_6,2023-09-11T19:06:11.204Z,,0,,,7722.457999999999,completion,,,,,false,,,,89909.60000038147,89909.5,82170.413,82179.30000019073,82187.042,89918.839,8,400,,,
trial,html.Screen,4_7_0,2023-09-11T19:06:16.918Z,,0,1,,5704.2610003814625,response,ISIC_7319686.JPG,5,ISIC_3466769.JPG,ISIC_3466769.JPG,false,0,keypress(z),500,95623.30000019073,95623.10000038147,89902.128,89909.7000002861,89918.839,95630,8,400,8,,ISIC_7319686.JPG
break,html.Screen,4_7_1,2023-09-11T19:06:16.918Z,,0,,,NaN,,,,,,false,,,,95623.80000019073,95623.7000002861,,95623.30000019073,,95630,8,400,,,
break_continue,html.Screen,4_7_2,2023-09-11T19:06:16.919Z,,0,,,NaN,,,,,,false,,,,95624.2000002861,95624,,95624,,95630,8,400,,,
sequence,flow.Sequence,4_7,2023-09-11T19:06:16.919Z,,0,,,5705.160999999993,completion,,,,,false,,,,95624.2000002861,95624,89902.128,89909.7000002861,89918.839,95630,8,400,,,
trial,html.Screen,4_8_0,2023-09-11T19:06:21.900Z,,0,1,,4975.10000038147,response,ISIC_7147898.JPG,5,ISIC_0064563.JPG,ISIC_7147898.JPG,false,1,keypress(m),500,100605.2000002861,100605.10000038147,95613.274,95624.30000019073,95630,100606.196,8,400,9,,ISIC_0064563.JPG
break,html.Screen,4_8_1,2023-09-11T19:06:21.900Z,,0,,,NaN,,,,,,false,,,,100606,100605.80000019073,,100605.40000009537,,100606.196,8,400,,,
break_continue,html.Screen,4_8_2,2023-09-11T19:06:21.901Z,,0,,,NaN,,,,,,false,,,,100606.30000019073,100606.2000002861,,100606.10000038147,,100606.196,8,400,,,
sequence,flow.Sequence,4_8,2023-09-11T19:06:21.901Z,,0,,,4976.200000286102,completion,,,,,false,,,,100606.5,100606.2000002861,95613.274,95624.2000002861,95630,100606.196,8,400,,,
trial,html.Screen,4_9_0,2023-09-11T19:06:27.621Z,,0,1,,5720.004000286106,response,ISIC_0015938.JPG,5,ISIC_2565986.JPG,ISIC_2565986.JPG,false,0,keypress(z),500,106326.60000038147,106326.2000002861,100589.501,100606.60000038147,100606.196,106334.08,8,400,10,,ISIC_0015938.JPG
break,html.Screen,4_9_1,2023-09-11T19:06:27.623Z,,0,,,NaN,,,,,,false,,,,106328.30000019073,106327.90000009537,,106327,,106334.08,8,400,,,
break_continue,html.Screen,4_9_2,2023-09-11T19:06:27.623Z,,0,,,NaN,,,,,,false,,,,106328.90000009537,106328.7000002861,,106328.5,,106334.08,8,400,,,
sequence,flow.Sequence,4_9,2023-09-11T19:06:27.624Z,,0,,,5722.504000286106,completion,,,,,false,,,,106329.10000038147,106328.7000002861,100589.501,100606.60000038147,100606.196,106334.08,8,400,,,
trial,html.Screen,4_10_0,2023-09-11T19:06:32.091Z,,0,1,,4461.919999999998,response,ISIC_2337786.JPG,5,ISIC_3871225.JPG,ISIC_3871225.JPG,false,0,keypress(z),500,110796.10000038147,110796,106317.343,106329.30000019073,106334.08,110809.429,8,400,11,,ISIC_2337786.JPG
break,html.Screen,4_10_1,2023-09-11T19:06:32.091Z,,0,,,NaN,,,,,,false,,,,110796.7000002861,110796.60000038147,,110796.30000019073,,110809.429,8,400,,,
break_continue,html.Screen,4_10_2,2023-09-11T19:06:32.091Z,,0,,,NaN,,,,,,false,,,,110796.90000009537,110796.80000019073,,110796.80000019073,,110809.429,8,400,,,
sequence,flow.Sequence,4_10,2023-09-11T19:06:32.091Z,,0,,,4462.720000190733,completion,,,,,false,,,,110797,110796.80000019073,106317.343,106329.30000019073,106334.08,110809.429,8,400,,,
trial,html.Screen,4_11_0,2023-09-11T19:06:39.277Z,,0,1,,7173.271000286099,response,ISIC_0011482.JPG,5,ISIC_5820693.JPG,ISIC_0011482.JPG,false,1,keypress(m),500,117982.80000019073,117982.7000002861,110792.716,110797.2000002861,110809.429,117990.029,8,400,12,,ISIC_5820693.JPG
break,html.Screen,4_11_1,2023-09-11T19:06:39.278Z,,0,,,NaN,,,,,,false,,,,117983.2000002861,117983.2000002861,,117982.90000009537,,117990.029,8,400,,,
break_continue,html.Screen,4_11_2,2023-09-11T19:06:39.278Z,,0,,,NaN,,,,,,false,,,,117983.40000009537,117983.40000009537,,117983.2000002861,,117990.029,8,400,,,
sequence,flow.Sequence,4_11,2023-09-11T19:06:39.278Z,,0,,,7173.971000095364,completion,,,,,false,,,,117983.40000009537,117983.40000009537,110792.716,110797.2000002861,110809.429,117990.029,8,400,,,
trial,html.Screen,4_12_0,2023-09-11T19:06:43.760Z,,0,1,,4474.971000000005,response,ISIC_5777181.JPG,5,ISIC_0014985.JPG,ISIC_5777181.JPG,false,1,keypress(m),500,122465.10000038147,122465,117973.488,117983.60000038147,117990.029,122498.836,8,400,13,,ISIC_0014985.JPG
break,html.Screen,4_12_1,2023-09-11T19:06:43.760Z,,0,,,NaN,,,,,,false,,,,122465.90000009537,122465.7000002861,,122465.30000019073,,122498.836,8,400,,,
break_continue,html.Screen,4_12_2,2023-09-11T19:06:43.761Z,,0,,,NaN,,,,,,false,,,,122466.2000002861,122466.2000002861,,122466,,122498.836,8,400,,,
sequence,flow.Sequence,4_12,2023-09-11T19:06:43.761Z,,0,,,4476.171000286107,completion,,,,,false,,,,122466.30000019073,122466.2000002861,117973.488,117983.5,117990.029,122498.836,8,400,,,
trial,html.Screen,4_13_0,2023-09-11T19:06:50.195Z,,0,1,,6401.364000286107,response,ISIC_0015401.JPG,5,ISIC_6228963.JPG,ISIC_6228963.JPG,false,0,keypress(z),500,128900.30000019073,128900.2000002861,122482.13,122466.40000009537,122498.836,128911.433,8,400,14,,ISIC_0015401.JPG
break,html.Screen,4_13_1,2023-09-11T19:06:50.195Z,,0,,,NaN,,,,,,false,,,,128900.7000002861,128900.60000038147,,128900.40000009537,,128911.433,8,400,,,
break_continue,html.Screen,4_13_2,2023-09-11T19:06:50.195Z,,0,,,NaN,,,,,,false,,,,128900.90000009537,128900.80000019073,,128900.80000019073,,128911.433,8,400,,,
sequence,flow.Sequence,4_13,2023-09-11T19:06:50.195Z,,0,,,6401.964000190739,completion,,,,,false,,,,128900.90000009537,128900.80000019073,122482.13,122466.40000009537,122498.836,128911.433,8,400,,,
trial,html.Screen,4_14_0,2023-09-11T19:06:54.729Z,,0,1,,4522.767000286098,response,ISIC_0032938.JPG,5,ISIC_6517852.JPG,ISIC_6517852.JPG,false,0,keypress(z),500,133434.30000019073,133434.2000002861,128894.602,128901,128911.433,133436.812,8,400,15,,ISIC_0032938.JPG
break,html.Screen,4_14_1,2023-09-11T19:06:54.730Z,,0,,,NaN,,,,,,false,,,,133435,133434.7000002861,,133434.5,,133436.812,8,400,,,
break_continue,html.Screen,4_14_2,2023-09-11T19:06:54.730Z,,0,,,NaN,,,,,,false,,,,133435.40000009537,133435.30000019073,,133435.2000002861,,133436.812,8,400,,,
sequence,flow.Sequence,4_14,2023-09-11T19:06:54.730Z,,0,,,4523.86700019073,completion,,,,,false,,,,133435.60000038147,133435.30000019073,128894.602,128901,128911.433,133436.812,8,400,,,
trial,html.Screen,4_15_0,2023-09-11T19:06:59.245Z,,0,1,,4512.388000286097,response,ISIC_0822116.JPG,6,ISIC_0013733.JPG,ISIC_0822116.JPG,false,1,keypress(m),500,137949.30000019073,137949.2000002861,133420.057,133435.60000038147,133436.812,137962.336,8,400,16,,ISIC_0013733.JPG
break,html.Screen,4_15_1,2023-09-11T19:06:59.245Z,,0,,,NaN,,,,,,false,,,,137949.80000019073,137949.60000038147,,137949.40000009537,,137962.336,8,400,,,
break_continue,html.Screen,4_15_2,2023-09-11T19:06:59.246Z,,0,,,NaN,,,,,,false,,,,137950.2000002861,137950.2000002861,,137950,,137962.336,8,400,,,
sequence,flow.Sequence,4_15,2023-09-11T19:06:59.246Z,,0,,,4513.388000286097,completion,,,,,false,,,,137950.30000019073,137950.2000002861,133420.057,133435.60000038147,133436.812,137962.336,8,400,,,
trial,html.Screen,4_16_0,2023-09-11T19:07:04.483Z,,0,1,,5224.864000286092,response,ISIC_0010718.JPG,5,ISIC_0053572.JPG,ISIC_0010718.JPG,false,1,keypress(m),500,143187.40000009537,143187.2000002861,137945.562,137950.30000019073,137962.336,143189.097,8,400,17,,ISIC_0053572.JPG
break,html.Screen,4_16_1,2023-09-11T19:07:04.484Z,,0,,,NaN,,,,,,false,,,,143188.10000038147,143187.90000009537,,143187.60000038147,,143189.097,8,400,,,
break_continue,html.Screen,4_16_2,2023-09-11T19:07:04.484Z,,0,,,NaN,,,,,,false,,,,143188.40000009537,143188.30000019073,,143188.2000002861,,143189.097,8,400,,,
sequence,flow.Sequence,4_16,2023-09-11T19:07:04.484Z,,0,,,5225.964000190725,completion,,,,,false,,,,143188.5,143188.30000019073,137945.562,137950.30000019073,137962.336,143189.097,8,400,,,
trial,html.Screen,4_17_0,2023-09-11T19:07:09.509Z,,0,1,,5024.703000190726,response,ISIC_0031127.JPG,5,ISIC_8176449.JPG,ISIC_8176449.JPG,false,0,keypress(z),500,148213.90000009537,148213.80000019073,143172.475,143188.60000038147,143189.097,148215.527,8,400,18,,ISIC_0031127.JPG
break,html.Screen,4_17_1,2023-09-11T19:07:09.510Z,,0,,,NaN,,,,,,false,,,,148214.7000002861,148214.40000009537,,148214,,148215.527,8,400,,,
break_continue,html.Screen,4_17_2,2023-09-11T19:07:09.511Z,,0,,,NaN,,,,,,false,,,,148215.10000038147,148215,,148214.80000019073,,148215.527,8,400,,,
sequence,flow.Sequence,4_17,2023-09-11T19:07:09.511Z,,0,,,5025.902999999991,completion,,,,,false,,,,148215.2000002861,148215,143172.475,143188.5,143189.097,148215.527,8,400,,,
trial,html.Screen,4_18_0,2023-09-11T19:07:13.177Z,,0,1,,3665.8730000953656,response,ISIC_0031039.JPG,5,ISIC_0054146.JPG,ISIC_0031039.JPG,false,1,keypress(m),500,151881.5,151881.40000009537,148198.857,148215.30000019073,148215.527,151889.34,8,400,19,,ISIC_0054146.JPG
break,html.Screen,4_18_1,2023-09-11T19:07:13.178Z,,0,,,NaN,,,,,,false,,,,151882,151881.80000019073,,151881.60000038147,,151889.34,8,400,,,
break_continue,html.Screen,4_18_2,2023-09-11T19:07:13.178Z,,0,,,NaN,,,,,,false,,,,151882.30000019073,151882.30000019073,,151882.10000038147,,151889.34,8,400,,,
sequence,flow.Sequence,4_18,2023-09-11T19:07:13.178Z,,0,,,3666.773000190733,completion,,,,,false,,,,151882.40000009537,151882.30000019073,148198.857,148215.2000002861,148215.527,151889.34,8,400,,,
trial,html.Screen,4_19_0,2023-09-11T19:07:18.220Z,,0,1,,5034.6600000000035,response,ISIC_0068438.JPG,5,ISIC_0014826.JPG,ISIC_0014826.JPG,false,0,keypress(z),500,156924.10000038147,156924,151872.754,151882.5,151889.34,156932.508,8,400,20,,ISIC_0068438.JPG
break,html.Screen,4_19_1,2023-09-11T19:07:18.220Z,,0,,,NaN,,,,,,false,,,,156924.60000038147,156924.5,,156924.2000002861,,156932.508,8,400,,,
break_continue,html.Screen,4_19_2,2023-09-11T19:07:18.220Z,,0,,,NaN,,,,,,false,,,,156924.80000019073,156924.80000019073,,156924.7000002861,,156932.508,8,400,,,
sequence,flow.Sequence,4_19,2023-09-11T19:07:18.220Z,,0,,,5035.460000190738,completion,,,,,false,,,,156924.90000009537,156924.80000019073,151872.754,151882.5,151889.34,156932.508,8,400,,,
trial,html.Screen,4_20_0,2023-09-11T19:07:22.975Z,,0,1,,4746.692000286101,response,ISIC_4764568.JPG,5,ISIC_3945916.JPG,ISIC_3945916.JPG,false,0,keypress(z),500,161679.40000009537,161679.2000002861,156915.895,156924.90000009537,156932.508,161691.873,8,400,21,,ISIC_4764568.JPG
break,html.Screen,4_20_1,2023-09-11T19:07:22.976Z,,0,,,NaN,,,,,,false,,,,161680.2000002861,161679.90000009537,,161679.60000038147,,161691.873,8,400,,,
break_continue,html.Screen,4_20_2,2023-09-11T19:07:22.976Z,,0,,,NaN,,,,,,false,,,,161680.40000009537,161680.40000009537,,161680.2000002861,,161691.873,8,400,,,
sequence,flow.Sequence,4_20,2023-09-11T19:07:22.976Z,,0,,,4747.892000095366,completion,,,,,false,,,,161680.5,161680.40000009537,156915.895,156924.90000009537,156932.508,161691.873,8,400,,,
trial,html.Screen,4_21_0,2023-09-11T19:07:27.154Z,,0,1,,4166.027000095375,response,ISIC_0010777.JPG,4,ISIC_0033204.JPG,ISIC_0010777.JPG,false,1,keypress(m),500,165858,165857.90000009537,161675.076,161680.60000038147,161691.873,165866.512,8,400,22,,ISIC_0033204.JPG
break,html.Screen,4_21_1,2023-09-11T19:07:27.154Z,,0,,,NaN,,,,,,false,,,,165858.40000009537,165858.30000019073,,165858.10000038147,,165866.512,8,400,,,
break_continue,html.Screen,4_21_2,2023-09-11T19:07:27.154Z,,0,,,NaN,,,,,,false,,,,165858.60000038147,165858.60000038147,,165858.5,,165866.512,8,400,,,
sequence,flow.Sequence,4_21,2023-09-11T19:07:27.154Z,,0,,,4166.727000381477,completion,,,,,false,,,,165858.7000002861,165858.60000038147,161675.076,161680.60000038147,161691.873,165866.512,8,400,,,
trial,html.Screen,4_22_0,2023-09-11T19:07:32.627Z,,0,1,,5464.8880000953795,response,ISIC_3613012.JPG,5,ISIC_0025056.JPG,ISIC_3613012.JPG,false,1,keypress(m),500,171331.5,171331.40000009537,165849.94,165858.80000019073,165866.512,171344.014,8,400,23,,ISIC_0025056.JPG
break,html.Screen,4_22_1,2023-09-11T19:07:32.628Z,,0,,,NaN,,,,,,false,,,,171332.2000002861,171332,,171331.60000038147,,171344.014,8,400,,,
break_continue,html.Screen,4_22_2,2023-09-11T19:07:32.628Z,,0,,,NaN,,,,,,false,,,,171332.5,171332.40000009537,,171332.30000019073,,171344.014,8,400,,,
sequence,flow.Sequence,4_22,2023-09-11T19:07:32.628Z,,0,,,5465.8880000953795,completion,,,,,false,,,,171332.60000038147,171332.40000009537,165849.94,165858.80000019073,165866.512,171344.014,8,400,,,
trial,html.Screen,4_23_0,2023-09-11T19:07:36.854Z,,0,1,,4214.186000286107,response,ISIC_7306535.JPG,4,ISIC_4804158.JPG,ISIC_4804158.JPG,false,0,keypress(z),500,175558.30000019073,175558.2000002861,171327.203,171332.60000038147,171344.014,175568.834,8,400,24,,ISIC_7306535.JPG
break,html.Screen,4_23_1,2023-09-11T19:07:36.855Z,,0,,,NaN,,,,,,false,,,,175559.40000009537,175559.2000002861,,175558.60000038147,,175568.834,8,400,,,
break_continue,html.Screen,4_23_2,2023-09-11T19:07:36.856Z,,0,,,NaN,,,,,,false,,,,175560,175559.80000019073,,175559.60000038147,,175568.834,8,400,,,
sequence,flow.Sequence,4_23,2023-09-11T19:07:36.856Z,,0,,,4215.786000190739,completion,,,,,false,,,,175560.2000002861,175559.80000019073,171327.203,171332.60000038147,171344.014,175568.834,8,400,,,
trial,html.Screen,4_24_0,2023-09-11T19:07:41.226Z,,0,1,,4361.3660002861,response,ISIC_0029214.JPG,5,ISIC_9529297.JPG,ISIC_9529297.JPG,false,0,keypress(z),500,179930.30000019073,179930.2000002861,175552.147,175560.40000009537,175568.834,179944.049,8,400,25,,ISIC_0029214.JPG
break,html.Screen,4_24_1,2023-09-11T19:07:41.226Z,,0,,,NaN,,,,,,false,,,,179930.7000002861,179930.60000038147,,179930.40000009537,,179944.049,8,400,,,
break_continue,html.Screen,4_24_2,2023-09-11T19:07:41.226Z,,0,,,NaN,,,,,,false,,,,179930.90000009537,179930.90000009537,,179930.80000019073,,179944.049,8,400,,,
sequence,flow.Sequence,4_24,2023-09-11T19:07:41.227Z,,0,,,4362.066000095365,completion,,,,,false,,,,179931,179930.90000009537,175552.147,175560.30000019073,175568.834,179944.049,8,400,,,
trial,html.Screen,4_25_0,2023-09-11T19:07:45.476Z,,0,1,,4236.551000381471,response,ISIC_0004000.JPG,5,ISIC_0025127.JPG,ISIC_0004000.JPG,false,1,keypress(m),500,184180.7000002861,184180.60000038147,179927.231,179931.10000038147,179944.049,184185.485,8,400,26,,ISIC_0025127.JPG
break,html.Screen,4_25_1,2023-09-11T19:07:45.477Z,,0,,,NaN,,,,,,false,,,,184181.30000019073,184181.10000038147,,184180.90000009537,,184185.485,8,400,,,
break_continue,html.Screen,4_25_2,2023-09-11T19:07:45.477Z,,0,,,NaN,,,,,,false,,,,184181.5,184181.40000009537,,184181.40000009537,,184185.485,8,400,,,
sequence,flow.Sequence,4_25,2023-09-11T19:07:45.477Z,,0,,,4237.351000095368,completion,,,,,false,,,,184181.7000002861,184181.40000009537,179927.231,179931,179944.049,184185.485,8,400,,,
trial,html.Screen,4_26_0,2023-09-11T19:07:49.067Z,,0,1,,3585.4150000953814,response,ISIC_1883330.JPG,5,ISIC_0032396.JPG,ISIC_1883330.JPG,false,1,keypress(m),500,187771.10000038147,187770.90000009537,184168.881,184181.80000019073,184185.485,187775.847,8,400,27,,ISIC_0032396.JPG
break,html.Screen,4_26_1,2023-09-11T19:07:49.067Z,,0,,,NaN,,,,,,false,,,,187771.7000002861,187771.5,,187771.2000002861,,187775.847,8,400,,,
break_continue,html.Screen,4_26_2,2023-09-11T19:07:49.067Z,,0,,,NaN,,,,,,false,,,,187771.90000009537,187771.90000009537,,187771.80000019073,,187775.847,8,400,,,
sequence,flow.Sequence,4_26,2023-09-11T19:07:49.068Z,,0,,,3586.4150000953814,completion,,,,,false,,,,187772.10000038147,187771.90000009537,184168.881,184181.80000019073,184185.485,187775.847,8,400,,,
trial,html.Screen,4_27_0,2023-09-11T19:07:54.770Z,,0,1,,5698.753000381461,response,ISIC_0031891.JPG,6,ISIC_0592973.JPG,ISIC_0592973.JPG,false,0,keypress(z),500,193474.7000002861,193474.60000038147,187759.44,187772.10000038147,187775.847,193486.972,8,400,28,,ISIC_0031891.JPG
break,html.Screen,4_27_1,2023-09-11T19:07:54.771Z,,0,,,NaN,,,,,,false,,,,193475.30000019073,193475.10000038147,,193474.80000019073,,193486.972,8,400,,,
break_continue,html.Screen,4_27_2,2023-09-11T19:07:54.771Z,,0,,,NaN,,,,,,false,,,,193475.60000038147,193475.60000038147,,193475.40000009537,,193486.972,8,400,,,
sequence,flow.Sequence,4_27,2023-09-11T19:07:54.771Z,,0,,,5699.753000381461,completion,,,,,false,,,,193475.80000019073,193475.60000038147,187759.44,187772.10000038147,187775.847,193486.972,8,400,,,
trial,html.Screen,4_28_0,2023-09-11T19:07:59.161Z,,0,1,,4377.328000190726,response,ISIC_0026619.JPG,4,ISIC_1175776.JPG,ISIC_1175776.JPG,false,0,keypress(z),500,197864.40000009537,197864.30000019073,193470.436,193475.80000019073,193486.972,197879.008,8,400,29,,ISIC_0026619.JPG
break,html.Screen,4_28_1,2023-09-11T19:07:59.162Z,,0,,,NaN,,,,,,false,,,,197865.10000038147,197864.90000009537,,197864.5,,197879.008,8,400,,,
break_continue,html.Screen,4_28_2,2023-09-11T19:07:59.162Z,,0,,,NaN,,,,,,false,,,,197865.5,197865.40000009537,,197865.2000002861,,197879.008,8,400,,,
sequence,flow.Sequence,4_28,2023-09-11T19:07:59.162Z,,0,,,4378.428000095359,completion,,,,,false,,,,197865.60000038147,197865.40000009537,193470.436,193475.80000019073,193486.972,197879.008,8,400,,,
trial,html.Screen,4_29_0,2023-09-11T19:08:03.836Z,,0,1,,4659.991999999998,response,ISIC_2638895.JPG,5,ISIC_6124481.JPG,ISIC_2638895.JPG,false,1,keypress(m),500,202539.2000002861,202539,197862.137,197865.7000002861,197879.008,202554.663,8,400,30,,ISIC_6124481.JPG
break,html.Screen,4_29_1,2023-09-11T19:08:03.837Z,,0,,,NaN,,,,,,false,,,,202540.10000038147,202539.80000019073,,202539.40000009537,,202554.663,8,400,,,
break_continue,html.Screen,4_29_2,2023-09-11T19:08:03.837Z,,0,,,NaN,,,,,,false,,,,202540.40000009537,202540.30000019073,,202540.2000002861,,202554.663,8,400,,,
sequence,flow.Sequence,4_29,2023-09-11T19:08:03.837Z,,0,,,4661.292000190733,completion,,,,,false,,,,202540.5,202540.30000019073,197862.137,197865.7000002861,197879.008,202554.663,8,400,,,
trial,html.Screen,4_30_0,2023-09-11T19:08:08.980Z,,0,1,,5128.8369999999995,response,ISIC_0004564.JPG,9,ISIC_9604922.JPG,ISIC_9604922.JPG,false,0,keypress(z),500,207683.7000002861,207683.5,202538.006,202540.60000038147,202554.663,207698.129,8,400,31,,ISIC_0004564.JPG
break,html.Screen,4_30_1,2023-09-11T19:08:08.981Z,,0,,,NaN,,,,,,false,,,,207684.30000019073,207684,,207683.80000019073,,207698.129,8,400,,,
break_continue,html.Screen,4_30_2,2023-09-11T19:08:08.981Z,,0,,,NaN,,,,,,false,,,,207684.60000038147,207684.5,,207684.40000009537,,207698.129,8,400,,,
sequence,flow.Sequence,4_30,2023-09-11T19:08:08.981Z,,0,,,5129.8369999999995,completion,,,,,false,,,,207684.7000002861,207684.5,202538.006,202540.60000038147,202554.663,207698.129,8,400,,,
trial,html.Screen,4_31_0,2023-09-11T19:08:14.823Z,,0,1,,5828.571000286116,response,ISIC_0011701.JPG,4,ISIC_5942564.JPG,ISIC_5942564.JPG,false,0,keypress(z),500,213526.80000019073,213526.7000002861,207681.301,207684.7000002861,207698.129,213542.672,8,400,32,,ISIC_0011701.JPG
break,html.Screen,4_31_1,2023-09-11T19:08:14.824Z,,0,,,NaN,,,,,,false,,,,213527.2000002861,213527.10000038147,,213526.90000009537,,213542.672,8,400,,,
break_continue,html.Screen,4_31_2,2023-09-11T19:08:14.824Z,,0,,,NaN,,,,,,false,,,,213527.5,213527.40000009537,,213527.30000019073,,213542.672,8,400,,,
sequence,flow.Sequence,4_31,2023-09-11T19:08:14.824Z,,0,,,5829.271000095381,completion,,,,,false,,,,213527.7000002861,213527.40000009537,207681.301,207684.7000002861,207698.129,213542.672,8,400,,,
trial,html.Screen,4_32_0,2023-09-11T19:08:21.195Z,,0,1,,6355.428000381478,response,ISIC_5714411.JPG,5,ISIC_0027402.JPG,ISIC_0027402.JPG,false,0,keypress(z),500,219898.2000002861,219898.10000038147,213526.205,213527.80000019073,213542.672,219905.03,8,400,33,,ISIC_5714411.JPG
break,html.Screen,4_32_1,2023-09-11T19:08:21.195Z,,0,,,NaN,,,,,,false,,,,219898.60000038147,219898.60000038147,,219898.30000019073,,219905.03,8,400,,,
break_continue,html.Screen,4_32_2,2023-09-11T19:08:21.195Z,,0,,,NaN,,,,,,false,,,,219898.80000019073,219898.7000002861,,219898.7000002861,,219905.03,8,400,,,
sequence,flow.Sequence,4_32,2023-09-11T19:08:21.195Z,,0,,,6356.028000286111,completion,,,,,false,,,,219898.80000019073,219898.7000002861,213526.205,213527.7000002861,213542.672,219905.03,8,400,,,
trial,html.Screen,4_33_0,2023-09-11T19:08:27.985Z,,0,1,,6783.270000190736,response,ISIC_2490481.JPG,4,ISIC_0003345.JPG,ISIC_0003345.JPG,false,0,keypress(z),500,226688.5,226688.30000019073,219888.355,219898.90000009537,219905.03,226701.629,8,400,34,,ISIC_2490481.JPG
break,html.Screen,4_33_1,2023-09-11T19:08:27.986Z,,0,,,NaN,,,,,,false,,,,226689.10000038147,226689,,226688.7000002861,,226701.629,8,400,,,
break_continue,html.Screen,4_33_2,2023-09-11T19:08:27.986Z,,0,,,NaN,,,,,,false,,,,226689.40000009537,226689.30000019073,,226689.2000002861,,226701.629,8,400,,,
sequence,flow.Sequence,4_33,2023-09-11T19:08:27.986Z,,0,,,6784.270000190736,completion,,,,,false,,,,226689.40000009537,226689.30000019073,219888.355,219898.80000019073,219905.03,226701.629,8,400,,,
trial,html.Screen,4_34_0,2023-09-11T19:08:34.531Z,,0,1,,6532.9710003814835,response,ISIC_4649440.JPG,5,ISIC_0024481.JPG,ISIC_4649440.JPG,false,1,keypress(m),500,233234.60000038147,233234.60000038147,226685.108,226689.5,226701.629,233247.699,8,400,35,,ISIC_0024481.JPG
break,html.Screen,4_34_1,2023-09-11T19:08:34.532Z,,0,,,NaN,,,,,,false,,,,233235.30000019073,233235,,233234.80000019073,,233247.699,8,400,,,
break_continue,html.Screen,4_34_2,2023-09-11T19:08:34.532Z,,0,,,NaN,,,,,,false,,,,233235.60000038147,233235.5,,233235.30000019073,,233247.699,8,400,,,
sequence,flow.Sequence,4_34,2023-09-11T19:08:34.532Z,,0,,,6533.871000000014,completion,,,,,false,,,,233235.7000002861,233235.5,226685.108,226689.5,226701.629,233247.699,8,400,,,
trial,html.Screen,4_35_0,2023-09-11T19:08:40.262Z,,0,1,,5717.501000286109,response,ISIC_0072843.JPG,5,ISIC_0057484.JPG,ISIC_0072843.JPG,false,1,keypress(m),500,238965.30000019073,238965.2000002861,233230.99,233235.80000019073,233247.699,238975.576,8,400,36,,ISIC_0057484.JPG
break,html.Screen,4_35_1,2023-09-11T19:08:40.262Z,,0,,,NaN,,,,,,false,,,,238965.80000019073,238965.7000002861,,238965.40000009537,,238975.576,8,400,,,
break_continue,html.Screen,4_35_2,2023-09-11T19:08:40.263Z,,0,,,NaN,,,,,,false,,,,238965.90000009537,238965.90000009537,,238965.80000019073,,238975.576,8,400,,,
sequence,flow.Sequence,4_35,2023-09-11T19:08:40.263Z,,0,,,5718.201000095374,completion,,,,,false,,,,238966,238965.90000009537,233230.99,233235.7000002861,233247.699,238975.576,8,400,,,
trial,html.Screen,4_36_0,2023-09-11T19:08:46.894Z,,0,1,,6621.423999999999,response,ISIC_5422940.JPG,5,ISIC_2421696.JPG,ISIC_5422940.JPG,false,1,keypress(m),500,245597.2000002861,245597,238958.798,238966.10000038147,238975.576,245605.026,8,400,37,,ISIC_2421696.JPG
break,html.Screen,4_36_1,2023-09-11T19:08:46.894Z,,0,,,NaN,,,,,,false,,,,245597.60000038147,245597.60000038147,,245597.30000019073,,245605.026,8,400,,,
break_continue,html.Screen,4_36_2,2023-09-11T19:08:46.894Z,,0,,,NaN,,,,,,false,,,,245597.90000009537,245597.80000019073,,245597.7000002861,,245605.026,8,400,,,
sequence,flow.Sequence,4_36,2023-09-11T19:08:46.895Z,,0,,,6622.224000190734,completion,,,,,false,,,,245598,245597.80000019073,238958.798,238966.10000038147,238975.576,245605.026,8,400,,,
trial,html.Screen,4_37_0,2023-09-11T19:08:51.430Z,,0,1,,4528.274000190722,response,ISIC_8135931.JPG,4,ISIC_1695424.JPG,ISIC_8135931.JPG,false,1,keypress(m),500,250133.5,250133.30000019073,245588.363,245598,245605.026,250147.31,8,400,38,,ISIC_1695424.JPG
break,html.Screen,4_37_1,2023-09-11T19:08:51.432Z,,0,,,NaN,,,,,,false,,,,250135,250134.7000002861,,250133.80000019073,,250147.31,8,400,,,
break_continue,html.Screen,4_37_2,2023-09-11T19:08:51.433Z,,0,,,NaN,,,,,,false,,,,250136.10000038147,250135.7000002861,,250135.2000002861,,250147.31,8,400,,,
sequence,flow.Sequence,4_37,2023-09-11T19:08:51.433Z,,0,,,4530.67400028609,completion,,,,,false,,,,250136.40000009537,250135.7000002861,245588.363,245598,245605.026,250147.31,8,400,,,
trial,html.Screen,4_38_0,2023-09-11T19:08:56.347Z,,0,1,,4902.490000190737,response,ISIC_4459528.JPG,5,ISIC_2993032.JPG,ISIC_2993032.JPG,false,0,keypress(z),500,255050,255049.80000019073,250130.544,250136.7000002861,250147.31,255056.834,8,400,39,,ISIC_4459528.JPG
break,html.Screen,4_38_1,2023-09-11T19:08:56.347Z,,0,,,NaN,,,,,,false,,,,255050.40000009537,255050.40000009537,,255050.10000038147,,255056.834,8,400,,,
break_continue,html.Screen,4_38_2,2023-09-11T19:08:56.347Z,,0,,,NaN,,,,,,false,,,,255050.7000002861,255050.60000038147,,255050.5,,255056.834,8,400,,,
sequence,flow.Sequence,4_38,2023-09-11T19:08:56.347Z,,0,,,4903.290000381472,completion,,,,,false,,,,255050.80000019073,255050.60000038147,250130.544,250136.60000038147,250147.31,255056.834,8,400,,,
trial,html.Screen,4_39_0,2023-09-11T19:09:00.612Z,,0,1,,4257.066000095365,response,ISIC_0073032.JPG,5,ISIC_0014211.JPG,ISIC_0014211.JPG,false,0,keypress(z),500,259313.90000009537,259313.90000009537,255040.173,255050.80000019073,255056.834,259315.076,8,400,40,,ISIC_0073032.JPG
break,html.Screen,4_39_1,2023-09-11T19:09:00.612Z,,0,,,NaN,,,,,,false,,,,259314.40000009537,259314.2000002861,,259314.10000038147,,259315.076,8,400,,,
break_continue,html.Screen,4_39_2,2023-09-11T19:09:00.613Z,,0,,,NaN,,,,,,false,,,,259314.60000038147,259314.5,,259314.5,,259315.076,8,400,,,
sequence,flow.Sequence,4_39,2023-09-11T19:09:00.613Z,,0,,,4257.665999999997,completion,,,,,false,,,,259314.80000019073,259314.5,255040.173,255050.80000019073,255056.834,259315.076,8,400,,,
trial,html.Screen,4_40_0,2023-09-11T19:09:07.386Z,,0,1,,6772.423999999999,response,ISIC_4680417.JPG,5,ISIC_0315631.JPG,ISIC_4680417.JPG,false,1,keypress(m),500,266087.7000002861,266087.5,259298.368,259314.90000009537,259315.076,266094.956,8,400,41,,ISIC_0315631.JPG
break,html.Screen,4_40_1,2023-09-11T19:09:07.386Z,,0,,,NaN,,,,,,false,,,,266088.40000009537,266088.10000038147,,266087.90000009537,,266094.956,8,400,,,
break_continue,html.Screen,4_40_2,2023-09-11T19:09:07.387Z,,0,,,NaN,,,,,,false,,,,266088.90000009537,266088.80000019073,,266088.5,,266094.956,8,400,,,
sequence,flow.Sequence,4_40,2023-09-11T19:09:07.387Z,,0,,,6773.724000190734,completion,,,,,false,,,,266088.90000009537,266088.80000019073,259298.368,259314.90000009537,259315.076,266094.956,8,400,,,
trial,html.Screen,4_41_0,2023-09-11T19:09:14.396Z,,0,1,,7003.444000095362,response,ISIC_0011215.JPG,5,ISIC_4907595.JPG,ISIC_0011215.JPG,false,1,keypress(m),500,273098.60000038147,273098.40000009537,266078.239,266089,266094.956,273108.618,8,400,42,,ISIC_4907595.JPG
break,html.Screen,4_41_1,2023-09-11T19:09:14.397Z,,0,,,NaN,,,,,,false,,,,273099.10000038147,273099,,273098.7000002861,,273108.618,8,400,,,
break_continue,html.Screen,4_41_2,2023-09-11T19:09:14.397Z,,0,,,NaN,,,,,,false,,,,273099.30000019073,273099.2000002861,,273099.10000038147,,273108.618,8,400,,,
sequence,flow.Sequence,4_41,2023-09-11T19:09:14.397Z,,0,,,7004.244000286097,completion,,,,,false,,,,273099.5,273099.2000002861,266078.239,266089,266094.956,273108.618,8,400,,,
trial,html.Screen,4_42_0,2023-09-11T19:09:20.079Z,,0,1,,5672.482000381453,response,ISIC_1915890.JPG,5,ISIC_3471815.JPG,ISIC_3471815.JPG,false,0,keypress(z),500,278781.2000002861,278781.10000038147,273091.929,273099.5,273108.618,278786.283,8,400,43,,ISIC_1915890.JPG
break,html.Screen,4_42_1,2023-09-11T19:09:20.080Z,,0,,,NaN,,,,,,false,,,,278781.80000019073,278781.60000038147,,278781.30000019073,,278786.283,8,400,,,
break_continue,html.Screen,4_42_2,2023-09-11T19:09:20.080Z,,0,,,NaN,,,,,,false,,,,278782.10000038147,278782.10000038147,,278781.90000009537,,278786.283,8,400,,,
sequence,flow.Sequence,4_42,2023-09-11T19:09:20.080Z,,0,,,5673.482000381453,completion,,,,,false,,,,278782.2000002861,278782.10000038147,273091.929,273099.5,273108.618,278786.283,8,400,,,
trial,html.Screen,4_43_0,2023-09-11T19:09:23.522Z,,0,1,,3437.517000190739,response,ISIC_0064427.JPG,6,ISIC_4533833.JPG,ISIC_4533833.JPG,false,0,keypress(z),500,282224,282223.80000019073,278769.578,278782.30000019073,278786.283,282226.362,8,400,44,,ISIC_0064427.JPG
break,html.Screen,4_43_1,2023-09-11T19:09:23.523Z,,0,,,NaN,,,,,,false,,,,282225.30000019073,282225,,282224.30000019073,,282226.362,8,400,,,
break_continue,html.Screen,4_43_2,2023-09-11T19:09:23.524Z,,0,,,NaN,,,,,,false,,,,282226,282225.80000019073,,282225.5,,282226.362,8,400,,,
sequence,flow.Sequence,4_43,2023-09-11T19:09:23.524Z,,0,,,3439.517000190739,completion,,,,,false,,,,282226.2000002861,282225.80000019073,278769.578,278782.2000002861,278786.283,282226.362,8,400,,,
trial,html.Screen,4_44_0,2023-09-11T19:09:27.678Z,,0,1,,4153.438000190712,response,ISIC_0033369.JPG,5,ISIC_0397464.JPG,ISIC_0397464.JPG,false,0,keypress(z),500,286379.90000009537,286379.80000019073,282209.688,282227.5,282226.362,286384.532,8,400,45,,ISIC_0033369.JPG
break,html.Screen,4_44_1,2023-09-11T19:09:27.678Z,,0,,,NaN,,,,,,false,,,,286380.30000019073,286380.2000002861,,286380,,286384.532,8,400,,,
break_continue,html.Screen,4_44_2,2023-09-11T19:09:27.678Z,,0,,,NaN,,,,,,false,,,,286380.60000038147,286380.60000038147,,286380.5,,286384.532,8,400,,,
sequence,flow.Sequence,4_44,2023-09-11T19:09:27.679Z,,0,,,4154.238000381447,completion,,,,,false,,,,286380.7000002861,286380.60000038147,282209.688,282227.40000009537,282226.362,286384.532,8,400,,,
trial,html.Screen,4_45_0,2023-09-11T19:09:31.129Z,,0,1,,3446.068000381463,response,ISIC_7535412.JPG,6,ISIC_6027459.JPG,ISIC_7535412.JPG,false,1,keypress(m),500,289830.80000019073,289830.60000038147,286367.873,286380.7000002861,286384.532,289841.219,8,400,46,,ISIC_6027459.JPG
break,html.Screen,4_45_1,2023-09-11T19:09:31.129Z,,0,,,NaN,,,,,,false,,,,289831.10000038147,289831.10000038147,,289830.80000019073,,289841.219,8,400,,,
break_continue,html.Screen,4_45_2,2023-09-11T19:09:31.129Z,,0,,,NaN,,,,,,false,,,,289831.30000019073,289831.30000019073,,289831.2000002861,,289841.219,8,400,,,
sequence,flow.Sequence,4_45,2023-09-11T19:09:31.129Z,,0,,,3446.7680001907283,completion,,,,,false,,,,289831.40000009537,289831.30000019073,286367.873,286380.7000002861,286384.532,289841.219,8,400,,,
trial,html.Screen,4_46_0,2023-09-11T19:09:34.939Z,,0,1,,3799.6810000953847,response,ISIC_0062114.JPG,5,ISIC_0005686.JPG,ISIC_0005686.JPG,false,0,keypress(z),500,293641,293640.90000009537,289824.447,289831.40000009537,289841.219,293648.611,8,400,47,,ISIC_0062114.JPG
break,html.Screen,4_46_1,2023-09-11T19:09:34.940Z,,0,,,NaN,,,,,,false,,,,293641.7000002861,293641.40000009537,,293641.2000002861,,293648.611,8,400,,,
break_continue,html.Screen,4_46_2,2023-09-11T19:09:34.940Z,,0,,,NaN,,,,,,false,,,,293642.10000038147,293642,,293641.90000009537,,293648.611,8,400,,,
sequence,flow.Sequence,4_46,2023-09-11T19:09:34.940Z,,0,,,3800.7810000000172,completion,,,,,false,,,,293642.2000002861,293642,289824.447,289831.40000009537,289841.219,293648.611,8,400,,,
trial,html.Screen,4_47_0,2023-09-11T19:09:39.904Z,,0,1,,4957.489000381494,response,ISIC_0068184.JPG,5,ISIC_8684147.JPG,ISIC_8684147.JPG,false,0,keypress(z),500,298606.10000038147,298606.10000038147,293631.989,293642.30000019073,293648.611,298608.236,8,400,48,,ISIC_0068184.JPG
break,html.Screen,4_47_1,2023-09-11T19:09:39.904Z,,0,,,NaN,,,,,,false,,,,298606.5,298606.5,,298606.30000019073,,298608.236,8,400,,,
break_continue,html.Screen,4_47_2,2023-09-11T19:09:39.905Z,,0,,,NaN,,,,,,false,,,,298606.80000019073,298606.7000002861,,298606.60000038147,,298608.236,8,400,,,
sequence,flow.Sequence,4_47,2023-09-11T19:09:39.905Z,,0,,,4958.089000286127,completion,,,,,false,,,,298606.80000019073,298606.7000002861,293631.989,293642.2000002861,293648.611,298608.236,8,400,,,
trial,html.Screen,4_48_0,2023-09-11T19:09:47.347Z,,0,1,,7440.964000286127,response,ISIC_0032233.JPG,5,ISIC_0027993.JPG,ISIC_0027993.JPG,false,0,keypress(z),500,306049.30000019073,306049.2000002861,298591.555,298606.90000009537,298608.236,306056.008,8,400,49,,ISIC_0032233.JPG
break,html.Screen,4_48_1,2023-09-11T19:09:47.348Z,,0,,,NaN,,,,,,false,,,,306049.80000019073,306049.60000038147,,306049.40000009537,,306056.008,8,400,,,
break_continue,html.Screen,4_48_2,2023-09-11T19:09:47.348Z,,0,,,NaN,,,,,,false,,,,306049.90000009537,306049.90000009537,,306049.80000019073,,306056.008,8,400,,,
sequence,flow.Sequence,4_48,2023-09-11T19:09:47.348Z,,0,,,7441.664000095392,completion,,,,,false,,,,306050,306049.90000009537,298591.555,298606.90000009537,298608.236,306056.008,8,400,,,
trial,html.Screen,4_49_0,2023-09-11T19:09:51.862Z,,0,1,,4507.9920000000275,response,ISIC_7313348.JPG,5,ISIC_4331481.JPG,ISIC_7313348.JPG,false,1,keypress(m),500,310564.30000019073,310564,306039.334,306050,306056.008,310598.282,8,400,50,,ISIC_4331481.JPG
break,html.Screen,4_49_1,2023-09-11T19:10:01.884Z,,0,,,10002.841000000015,timeout,,,,,false,,,,320585.30000019073,320584.434,310581.658,310564.40000009537,310598.282,320601.123,8,400,,,
break_continue,html.Screen,4_49_2,2023-09-11T19:10:02.241Z,,0,,,335.0770002860809,response,,,,,false,continue,keypress(Space),,320942.30000019073,320936.2000002861,320584.434,320585.5,320601.123,320968.505,8,400,,,
sequence,flow.Sequence,4_49,2023-09-11T19:10:02.241Z,,0,,,14880.19200028613,completion,,,,,false,,,,320942.30000019073,320936.2000002861,306039.334,306050,306056.008,320968.505,8,400,,,
trial,html.Screen,4_50_0,2023-09-11T19:10:06.037Z,,0,2,,3769.79500019073,response,ISIC_1856556.JPG,4,ISIC_5707761.JPG,ISIC_1856556.JPG,false,1,keypress(m),500,324738.5,324738.30000019073,320951.803,320942.40000009537,320968.505,324742.37,8,400,1,,ISIC_5707761.JPG
break,html.Screen,4_50_1,2023-09-11T19:10:06.038Z,,0,,,NaN,,,,,,false,,,,324739.10000038147,324738.80000019073,,324738.60000038147,,324742.37,8,400,,,
break_continue,html.Screen,4_50_2,2023-09-11T19:10:06.038Z,,0,,,NaN,,,,,,false,,,,324739.30000019073,324739.30000019073,,324739.10000038147,,324742.37,8,400,,,
sequence,flow.Sequence,4_50,2023-09-11T19:10:06.038Z,,0,,,3770.79500019073,completion,,,,,false,,,,324739.40000009537,324739.30000019073,320951.803,320942.30000019073,320968.505,324742.37,8,400,,,
trial,html.Screen,4_51_0,2023-09-11T19:10:12.776Z,,0,2,,6734.530000095372,response,ISIC_8020153.JPG,6,ISIC_0034062.JPG,ISIC_8020153.JPG,false,1,keypress(m),500,331477.30000019073,331476.90000009537,324725.749,324739.40000009537,324742.37,331488.881,8,400,2,,ISIC_0034062.JPG
break,html.Screen,4_51_1,2023-09-11T19:10:12.778Z,,0,,,NaN,,,,,,false,,,,331478.90000009537,331478.40000009537,,331477.7000002861,,331488.881,8,400,,,
break_continue,html.Screen,4_51_2,2023-09-11T19:10:12.778Z,,0,,,NaN,,,,,,false,,,,331479.40000009537,331479.30000019073,,331479.10000038147,,331488.881,8,400,,,
sequence,flow.Sequence,4_51,2023-09-11T19:10:12.778Z,,0,,,6736.9300001907395,completion,,,,,false,,,,331479.7000002861,331479.30000019073,324725.749,324739.40000009537,324742.37,331488.881,8,400,,,
trial,html.Screen,4_52_0,2023-09-11T19:10:17.107Z,,0,2,,4319.219000381476,response,ISIC_0011365.JPG,5,ISIC_6561111.JPG,ISIC_6561111.JPG,false,0,keypress(z),500,335808.2000002861,335808.10000038147,331472.218,331479.80000019073,331488.881,335813.911,8,400,3,,ISIC_0011365.JPG
break,html.Screen,4_52_1,2023-09-11T19:10:17.107Z,,0,,,NaN,,,,,,false,,,,335808.60000038147,335808.60000038147,,335808.30000019073,,335813.911,8,400,,,
break_continue,html.Screen,4_52_2,2023-09-11T19:10:17.107Z,,0,,,NaN,,,,,,false,,,,335808.80000019073,335808.7000002861,,335808.60000038147,,335813.911,8,400,,,
sequence,flow.Sequence,4_52,2023-09-11T19:10:17.108Z,,0,,,4319.819000286108,completion,,,,,false,,,,335808.90000009537,335808.7000002861,331472.218,331479.80000019073,331488.881,335813.911,8,400,,,
trial,html.Screen,4_53_0,2023-09-11T19:10:21.389Z,,0,2,,4275.889000190713,response,ISIC_0031463.JPG,5,ISIC_9041897.JPG,ISIC_9041897.JPG,false,0,keypress(z),500,340089.90000009537,340089.80000019073,335797.275,335809,335813.911,340105.632,8,400,4,,ISIC_0031463.JPG
break,html.Screen,4_53_1,2023-09-11T19:10:21.389Z,,0,,,NaN,,,,,,false,,,,340090.60000038147,340090.40000009537,,340090.2000002861,,340105.632,8,400,,,
break_continue,html.Screen,4_53_2,2023-09-11T19:10:21.389Z,,0,,,NaN,,,,,,false,,,,340090.7000002861,340090.7000002861,,340090.60000038147,,340105.632,8,400,,,
sequence,flow.Sequence,4_53,2023-09-11T19:10:21.389Z,,0,,,4276.78900028608,completion,,,,,false,,,,340090.7000002861,340090.7000002861,335797.275,335808.90000009537,335813.911,340105.632,8,400,,,
trial,html.Screen,4_54_0,2023-09-11T19:10:26.085Z,,0,2,,4680.768000095384,response,ISIC_1114966.JPG,4,ISIC_2324728.JPG,ISIC_1114966.JPG,false,1,keypress(m),500,344786.60000038147,344786.40000009537,340088.934,340090.90000009537,340105.632,344798.183,8,400,5,,ISIC_2324728.JPG
break,html.Screen,4_54_1,2023-09-11T19:10:26.086Z,,0,,,NaN,,,,,,false,,,,344787.10000038147,344786.90000009537,,344786.7000002861,,344798.183,8,400,,,
break_continue,html.Screen,4_54_2,2023-09-11T19:10:26.086Z,,0,,,NaN,,,,,,false,,,,344787.5,344787.30000019073,,344787.2000002861,,344798.183,8,400,,,
sequence,flow.Sequence,4_54,2023-09-11T19:10:26.086Z,,0,,,4681.668000190752,completion,,,,,false,,,,344787.60000038147,344787.30000019073,340088.934,340090.80000019073,340105.632,344798.183,8,400,,,
trial,html.Screen,4_55_0,2023-09-11T19:10:30.232Z,,0,2,,4135.117000190716,response,ISIC_6701139.JPG,5,ISIC_4022621.JPG,ISIC_6701139.JPG,false,1,keypress(m),500,348933.5,348933.30000019073,344781.563,344787.60000038147,344798.183,348939.548,8,400,6,,ISIC_4022621.JPG
break,html.Screen,4_55_1,2023-09-11T19:10:30.233Z,,0,,,NaN,,,,,,false,,,,348934.40000009537,348934.10000038147,,348933.7000002861,,348939.548,8,400,,,
break_continue,html.Screen,4_55_2,2023-09-11T19:10:30.234Z,,0,,,NaN,,,,,,false,,,,348934.80000019073,348934.7000002861,,348934.60000038147,,348939.548,8,400,,,
sequence,flow.Sequence,4_55,2023-09-11T19:10:30.234Z,,0,,,4136.517000286083,completion,,,,,false,,,,348935,348934.7000002861,344781.563,344787.60000038147,344798.183,348939.548,8,400,,,
trial,html.Screen,4_56_0,2023-09-11T19:10:35.731Z,,0,2,,5492.252000190725,response,ISIC_3439215.JPG,5,ISIC_9469284.JPG,ISIC_3439215.JPG,false,1,keypress(m),500,354431.90000009537,354431.80000019073,348922.87,348935.2000002861,348939.548,354433.49,8,400,7,,ISIC_9469284.JPG
break,html.Screen,4_56_1,2023-09-11T19:10:35.731Z,,0,,,NaN,,,,,,false,,,,354432.30000019073,354432.30000019073,,354432,,354433.49,8,400,,,
break_continue,html.Screen,4_56_2,2023-09-11T19:10:35.731Z,,0,,,NaN,,,,,,false,,,,354432.5,354432.5,,354432.30000019073,,354433.49,8,400,,,
sequence,flow.Sequence,4_56,2023-09-11T19:10:35.731Z,,0,,,5492.95199999999,completion,,,,,false,,,,354432.60000038147,354432.5,348922.87,348935.10000038147,348939.548,354433.49,8,400,,,
trial,html.Screen,4_57_0,2023-09-11T19:10:41.685Z,,0,2,,5952.810000190744,response,ISIC_0011950.JPG,4,ISIC_7312977.JPG,ISIC_7312977.JPG,false,0,keypress(z),500,360386.5,360386.30000019073,354416.879,354432.60000038147,354433.49,360395.077,8,400,8,,ISIC_0011950.JPG
break,html.Screen,4_57_1,2023-09-11T19:10:41.686Z,,0,,,NaN,,,,,,false,,,,360387,360386.80000019073,,360386.5,,360395.077,8,400,,,
break_continue,html.Screen,4_57_2,2023-09-11T19:10:41.686Z,,0,,,NaN,,,,,,false,,,,360387.30000019073,360387.2000002861,,360387.10000038147,,360395.077,8,400,,,
sequence,flow.Sequence,4_57,2023-09-11T19:10:41.686Z,,0,,,5953.710000286112,completion,,,,,false,,,,360387.40000009537,360387.2000002861,354416.879,354432.60000038147,354433.49,360395.077,8,400,,,
trial,html.Screen,4_58_0,2023-09-11T19:10:47.336Z,,0,2,,5642.0230003814795,response,ISIC_5679942.JPG,4,ISIC_0002295.JPG,ISIC_5679942.JPG,false,1,keypress(m),500,366037.30000019073,366037.10000038147,360378.425,360387.5,360395.077,366039.391,8,400,9,,ISIC_0002295.JPG
break,html.Screen,4_58_1,2023-09-11T19:10:47.336Z,,0,,,NaN,,,,,,false,,,,366037.60000038147,366037.60000038147,,366037.40000009537,,366039.391,8,400,,,
break_continue,html.Screen,4_58_2,2023-09-11T19:10:47.337Z,,0,,,NaN,,,,,,false,,,,366037.80000019073,366037.80000019073,,366037.7000002861,,366039.391,8,400,,,
sequence,flow.Sequence,4_58,2023-09-11T19:10:47.337Z,,0,,,5642.723000190745,completion,,,,,false,,,,366037.90000009537,366037.80000019073,360378.425,360387.40000009537,360395.077,366039.391,8,400,,,
trial,html.Screen,4_59_0,2023-09-11T19:10:53.614Z,,0,2,,6275.509000095364,response,ISIC_1534391.JPG,5,ISIC_1585370.JPG,ISIC_1585370.JPG,false,0,keypress(z),500,372315.2000002861,372314.90000009537,366022.747,366037.90000009537,366039.391,372318.326,8,400,10,,ISIC_1534391.JPG
break,html.Screen,4_59_1,2023-09-11T19:10:53.615Z,,0,,,NaN,,,,,,false,,,,372316,372315.80000019073,,372315.40000009537,,372318.326,8,400,,,
break_continue,html.Screen,4_59_2,2023-09-11T19:10:53.615Z,,0,,,NaN,,,,,,false,,,,372316.2000002861,372316.2000002861,,372316,,372318.326,8,400,,,
sequence,flow.Sequence,4_59,2023-09-11T19:10:53.615Z,,0,,,6276.809000286099,completion,,,,,false,,,,372316.40000009537,372316.2000002861,366022.747,366037.90000009537,366039.391,372318.326,8,400,,,
trial,html.Screen,4_60_0,2023-09-11T19:10:59.600Z,,0,2,,5982.974000190734,response,ISIC_3519679.JPG,5,ISIC_0031377.JPG,ISIC_3519679.JPG,false,1,keypress(m),500,378301.5,378301.30000019073,372301.631,372316.40000009537,372318.326,378313.283,8,400,11,,ISIC_0031377.JPG
break,html.Screen,4_60_1,2023-09-11T19:10:59.601Z,,0,,,NaN,,,,,,false,,,,378301.90000009537,378301.80000019073,,378301.5,,378313.283,8,400,,,
break_continue,html.Screen,4_60_2,2023-09-11T19:10:59.601Z,,0,,,NaN,,,,,,false,,,,378302.2000002861,378302.10000038147,,378302,,378313.283,8,400,,,
sequence,flow.Sequence,4_60,2023-09-11T19:10:59.601Z,,0,,,5983.774000381469,completion,,,,,false,,,,378302.2000002861,378302.10000038147,372301.631,372316.40000009537,372318.326,378313.283,8,400,,,
trial,html.Screen,4_61_0,2023-09-11T19:11:05.011Z,,0,2,,5397.717000000004,response,ISIC_0012055.JPG,5,ISIC_0010671.JPG,ISIC_0010671.JPG,false,0,keypress(z),500,383711.10000038147,383711,378296.807,378302.2000002861,378313.283,383723.84,8,400,12,,ISIC_0012055.JPG
break,html.Screen,4_61_1,2023-09-11T19:11:05.012Z,,0,,,NaN,,,,,,false,,,,383711.80000019073,383711.60000038147,,383711.30000019073,,383723.84,8,400,,,
break_continue,html.Screen,4_61_2,2023-09-11T19:11:05.012Z,,0,,,NaN,,,,,,false,,,,383712.10000038147,383712.10000038147,,383712,,383723.84,8,400,,,
sequence,flow.Sequence,4_61,2023-09-11T19:11:05.012Z,,0,,,5398.817000381474,completion,,,,,false,,,,383712.30000019073,383712.10000038147,378296.807,378302.2000002861,378313.283,383723.84,8,400,,,
trial,html.Screen,4_62_0,2023-09-11T19:11:09.206Z,,0,2,,4181.560000095342,response,ISIC_0061583.JPG,5,ISIC_0010225.JPG,ISIC_0010225.JPG,false,0,keypress(z),500,387905.60000038147,387905.40000009537,383707.173,383712.30000019073,383723.84,387915.379,8,400,13,,ISIC_0061583.JPG
break,html.Screen,4_62_1,2023-09-11T19:11:09.206Z,,0,,,NaN,,,,,,false,,,,387906.30000019073,387906.10000038147,,387905.80000019073,,387915.379,8,400,,,
break_continue,html.Screen,4_62_2,2023-09-11T19:11:09.207Z,,0,,,NaN,,,,,,false,,,,387906.60000038147,387906.40000009537,,387906.30000019073,,387915.379,8,400,,,
sequence,flow.Sequence,4_62,2023-09-11T19:11:09.207Z,,0,,,4182.560000095342,completion,,,,,false,,,,387906.60000038147,387906.40000009537,383707.173,383712.30000019073,383723.84,387915.379,8,400,,,
trial,html.Screen,4_63_0,2023-09-11T19:11:13.963Z,,0,2,,4747.321000286087,response,ISIC_9956400.JPG,5,ISIC_0033061.JPG,ISIC_9956400.JPG,false,1,keypress(m),500,392662.90000009537,392662.7000002861,387898.666,387906.7000002861,387915.379,392674.678,8,400,14,,ISIC_0033061.JPG
break,html.Screen,4_63_1,2023-09-11T19:11:13.964Z,,0,,,NaN,,,,,,false,,,,392663.5,392663.30000019073,,392663.10000038147,,392674.678,8,400,,,
break_continue,html.Screen,4_63_2,2023-09-11T19:11:13.964Z,,0,,,NaN,,,,,,false,,,,392663.80000019073,392663.7000002861,,392663.5,,392674.678,8,400,,,
sequence,flow.Sequence,4_63,2023-09-11T19:11:13.964Z,,0,,,4748.321000286087,completion,,,,,false,,,,392663.90000009537,392663.7000002861,387898.666,387906.60000038147,387915.379,392674.678,8,400,,,
trial,html.Screen,4_64_0,2023-09-11T19:11:19.389Z,,0,2,,5414.222000095353,response,ISIC_1874480.JPG,4,ISIC_8253317.JPG,ISIC_8253317.JPG,false,0,keypress(z),500,398089.10000038147,398088.90000009537,392657.985,392664,392674.678,398101.855,8,400,15,,ISIC_1874480.JPG
break,html.Screen,4_64_1,2023-09-11T19:11:19.390Z,,0,,,NaN,,,,,,false,,,,398089.90000009537,398089.5,,398089.2000002861,,398101.855,8,400,,,
break_continue,html.Screen,4_64_2,2023-09-11T19:11:19.390Z,,0,,,NaN,,,,,,false,,,,398090.30000019073,398090.2000002861,,398090,,398101.855,8,400,,,
sequence,flow.Sequence,4_64,2023-09-11T19:11:19.391Z,,0,,,5415.522000286088,completion,,,,,false,,,,398090.40000009537,398090.2000002861,392657.985,392664,392674.678,398101.855,8,400,,,
trial,html.Screen,4_65_0,2023-09-11T19:11:26.277Z,,0,2,,6875.045000095386,response,ISIC_7833178.JPG,5,ISIC_0028129.JPG,ISIC_7833178.JPG,false,1,keypress(m),500,404977.10000038147,404976.90000009537,398085.124,398090.5,398101.855,404981.919,8,400,16,,ISIC_0028129.JPG
break,html.Screen,4_65_1,2023-09-11T19:11:26.278Z,,0,,,NaN,,,,,,false,,,,404977.7000002861,404977.5,,404977.10000038147,,404981.919,8,400,,,
break_continue,html.Screen,4_65_2,2023-09-11T19:11:26.278Z,,0,,,NaN,,,,,,false,,,,404978.10000038147,404978,,404977.80000019073,,404981.919,8,400,,,
sequence,flow.Sequence,4_65,2023-09-11T19:11:26.278Z,,0,,,6876.145000000019,completion,,,,,false,,,,404978.2000002861,404978,398085.124,398090.5,398101.855,404981.919,8,400,,,
trial,html.Screen,4_66_0,2023-09-11T19:11:30.457Z,,0,2,,4174.88100019074,response,ISIC_1412843.JPG,5,ISIC_3800974.JPG,ISIC_3800974.JPG,false,0,keypress(z),500,409157,409156.80000019073,404965.155,404978.2000002861,404981.919,409173.366,8,400,17,,ISIC_1412843.JPG
break,html.Screen,4_66_1,2023-09-11T19:11:30.458Z,,0,,,NaN,,,,,,false,,,,409157.80000019073,409157.7000002861,,409157.30000019073,,409173.366,8,400,,,
break_continue,html.Screen,4_66_2,2023-09-11T19:11:30.458Z,,0,,,NaN,,,,,,false,,,,409158.2000002861,409158,,409157.90000009537,,409173.366,8,400,,,
sequence,flow.Sequence,4_66,2023-09-11T19:11:30.458Z,,0,,,4176.081000000006,completion,,,,,false,,,,409158.2000002861,409158,404965.155,404978.2000002861,404981.919,409173.366,8,400,,,
trial,html.Screen,4_67_0,2023-09-11T19:11:35.324Z,,0,2,,4850.63400000002,response,ISIC_9126992.JPG,5,ISIC_0000434.JPG,ISIC_9126992.JPG,false,1,keypress(m),500,414024.2000002861,414024,409156.674,409158.30000019073,409173.366,414032.823,8,400,18,,ISIC_0000434.JPG
break,html.Screen,4_67_1,2023-09-11T19:11:35.325Z,,0,,,NaN,,,,,,false,,,,414024.7000002861,414024.60000038147,,414024.30000019073,,414032.823,8,400,,,
break_continue,html.Screen,4_67_2,2023-09-11T19:11:35.325Z,,0,,,NaN,,,,,,false,,,,414025,414024.90000009537,,414024.80000019073,,414032.823,8,400,,,
sequence,flow.Sequence,4_67,2023-09-11T19:11:35.325Z,,0,,,4851.5340000953875,completion,,,,,false,,,,414025,414024.90000009537,409156.674,409158.30000019073,409173.366,414032.823,8,400,,,
trial,html.Screen,4_68_0,2023-09-11T19:11:42.000Z,,0,2,,6666.97700019076,response,ISIC_8956001.JPG,4,ISIC_0027304.JPG,ISIC_8956001.JPG,false,1,keypress(m),500,420700,420699.80000019073,414016.214,414025.10000038147,414032.823,420712.571,8,400,19,,ISIC_0027304.JPG
break,html.Screen,4_68_1,2023-09-11T19:11:42.001Z,,0,,,NaN,,,,,,false,,,,420700.7000002861,420700.5,,420700.10000038147,,420712.571,8,400,,,
break_continue,html.Screen,4_68_2,2023-09-11T19:11:42.001Z,,0,,,NaN,,,,,,false,,,,420701.10000038147,420701,,420700.80000019073,,420712.571,8,400,,,
sequence,flow.Sequence,4_68,2023-09-11T19:11:42.001Z,,0,,,6668.177000000025,completion,,,,,false,,,,420701.30000019073,420701,414016.214,414025.10000038147,414032.823,420712.571,8,400,,,
trial,html.Screen,4_69_0,2023-09-11T19:11:47.795Z,,0,2,,5782.129000286106,response,ISIC_0064823.JPG,5,ISIC_5813642.JPG,ISIC_0064823.JPG,false,1,keypress(m),500,426494.90000009537,426494.7000002861,420695.81,420701.30000019073,420712.571,426507.089,8,400,20,,ISIC_5813642.JPG
break,html.Screen,4_69_1,2023-09-11T19:11:47.796Z,,0,,,NaN,,,,,,false,,,,426495.80000019073,426495.40000009537,,426495.10000038147,,426507.089,8,400,,,
break_continue,html.Screen,4_69_2,2023-09-11T19:11:47.796Z,,0,,,NaN,,,,,,false,,,,426496,426496,,426495.90000009537,,426507.089,8,400,,,
sequence,flow.Sequence,4_69,2023-09-11T19:11:47.796Z,,0,,,5783.429000000004,completion,,,,,false,,,,426496.10000038147,426496,420695.81,420701.30000019073,420712.571,426507.089,8,400,,,
trial,html.Screen,4_70_0,2023-09-11T19:11:52.299Z,,0,2,,4491.811000095389,response,ISIC_9751601.JPG,4,ISIC_0027684.JPG,ISIC_9751601.JPG,false,1,keypress(m),500,430998.90000009537,430998.90000009537,426490.552,426496.30000019073,426507.089,431015.86,8,400,21,,ISIC_0027684.JPG
break,html.Screen,4_70_1,2023-09-11T19:11:52.300Z,,0,,,NaN,,,,,,false,,,,431000,430999.5,,430999,,431015.86,8,400,,,
break_continue,html.Screen,4_70_2,2023-09-11T19:11:52.300Z,,0,,,NaN,,,,,,false,,,,431000.30000019073,431000.2000002861,,431000.10000038147,,431015.86,8,400,,,
sequence,flow.Sequence,4_70,2023-09-11T19:11:52.300Z,,0,,,4493.111000286124,completion,,,,,false,,,,431000.30000019073,431000.2000002861,426490.552,426496.30000019073,426507.089,431015.86,8,400,,,
trial,html.Screen,4_71_0,2023-09-11T19:11:55.742Z,,0,2,,3425.940000190749,response,ISIC_0072642.JPG,5,ISIC_6548734.JPG,ISIC_6548734.JPG,false,0,keypress(z),500,434442,434441.80000019073,430999.256,431000.40000009537,431015.86,434455.89,8,400,22,,ISIC_0072642.JPG
break,html.Screen,4_71_1,2023-09-11T19:11:55.742Z,,0,,,NaN,,,,,,false,,,,434442.40000009537,434442.30000019073,,434442.10000038147,,434455.89,8,400,,,
break_continue,html.Screen,4_71_2,2023-09-11T19:11:55.743Z,,0,,,NaN,,,,,,false,,,,434442.5,434442.5,,434442.5,,434455.89,8,400,,,
sequence,flow.Sequence,4_71,2023-09-11T19:11:55.743Z,,0,,,3426.640000000014,completion,,,,,false,,,,434442.7000002861,434442.5,430999.256,431000.40000009537,431015.86,434455.89,8,400,,,
trial,html.Screen,4_72_0,2023-09-11T19:12:01.941Z,,0,2,,6183.609999999986,response,ISIC_0060321.JPG,5,ISIC_0066952.JPG,ISIC_0060321.JPG,false,1,keypress(m),500,440639.60000038147,440639.5,434439.252,434442.7000002861,434455.89,440651.316,8,400,23,,ISIC_0066952.JPG
break,html.Screen,4_72_1,2023-09-11T19:12:01.941Z,,0,,,NaN,,,,,,false,,,,440640.2000002861,440640,,440639.80000019073,,440651.316,8,400,,,
break_continue,html.Screen,4_72_2,2023-09-11T19:12:01.942Z,,0,,,NaN,,,,,,false,,,,440640.30000019073,440640.30000019073,,440640.2000002861,,440651.316,8,400,,,
sequence,flow.Sequence,4_72,2023-09-11T19:12:01.942Z,,0,,,6184.410000190721,completion,,,,,false,,,,440640.5,440640.30000019073,434439.252,434442.7000002861,434455.89,440651.316,8,400,,,
trial,html.Screen,4_73_0,2023-09-11T19:12:08.601Z,,0,2,,6648.684000000008,response,ISIC_5087951.JPG,5,ISIC_0012082.JPG,ISIC_5087951.JPG,false,1,keypress(m),500,447300.10000038147,447300,440634.626,440640.5,440651.316,447314.249,8,400,24,,ISIC_0012082.JPG
break,html.Screen,4_73_1,2023-09-11T19:12:08.602Z,,0,,,NaN,,,,,,false,,,,447300.60000038147,447300.40000009537,,447300.2000002861,,447314.249,8,400,,,
break_continue,html.Screen,4_73_2,2023-09-11T19:12:08.602Z,,0,,,NaN,,,,,,false,,,,447300.80000019073,447300.7000002861,,447300.60000038147,,447314.249,8,400,,,
sequence,flow.Sequence,4_73,2023-09-11T19:12:08.602Z,,0,,,6649.384000286111,completion,,,,,false,,,,447300.80000019073,447300.7000002861,440634.626,440640.5,440651.316,447314.249,8,400,,,
trial,html.Screen,4_74_0,2023-09-11T19:12:13.459Z,,0,2,,4843.351000381459,response,ISIC_0065480.JPG,4,ISIC_1509635.JPG,ISIC_1509635.JPG,false,0,keypress(z),500,452157.80000019073,452157.60000038147,447297.572,447300.90000009537,447314.249,452173.745,8,400,25,,ISIC_0065480.JPG
break,html.Screen,4_74_1,2023-09-11T19:12:13.460Z,,0,,,NaN,,,,,,false,,,,452158.60000038147,452158.40000009537,,452158,,452173.745,8,400,,,
break_continue,html.Screen,4_74_2,2023-09-11T19:12:13.460Z,,0,,,NaN,,,,,,false,,,,452158.90000009537,452158.80000019073,,452158.60000038147,,452173.745,8,400,,,
sequence,flow.Sequence,4_74,2023-09-11T19:12:13.460Z,,0,,,4844.551000190724,completion,,,,,false,,,,452159,452158.80000019073,447297.572,447300.90000009537,447314.249,452173.745,8,400,,,
trial,html.Screen,4_75_0,2023-09-11T19:12:18.919Z,,0,2,,5443.655000095372,response,ISIC_5416978.JPG,4,ISIC_7454512.JPG,ISIC_7454512.JPG,false,0,keypress(z),500,457617.5,457617.40000009537,452157.101,452159.10000038147,452173.745,457634.374,8,400,26,,ISIC_5416978.JPG
break,html.Screen,4_75_1,2023-09-11T19:12:18.920Z,,0,,,NaN,,,,,,false,,,,457618.30000019073,457618.10000038147,,457617.7000002861,,457634.374,8,400,,,
break_continue,html.Screen,4_75_2,2023-09-11T19:12:18.920Z,,0,,,NaN,,,,,,false,,,,457618.60000038147,457618.5,,457618.40000009537,,457634.374,8,400,,,
sequence,flow.Sequence,4_75,2023-09-11T19:12:18.920Z,,0,,,5444.755000000005,completion,,,,,false,,,,457618.60000038147,457618.5,452157.101,452159.10000038147,452173.745,457634.374,8,400,,,
trial,html.Screen,4_76_0,2023-09-11T19:12:23.098Z,,0,2,,4161.926000190724,response,ISIC_5370803.JPG,5,ISIC_0026759.JPG,ISIC_5370803.JPG,false,1,keypress(m),500,461796.40000009537,461796.30000019073,457617.72,457618.7000002861,457634.374,461809.166,8,400,27,,ISIC_0026759.JPG
break,html.Screen,4_76_1,2023-09-11T19:12:23.098Z,,0,,,NaN,,,,,,false,,,,461796.80000019073,461796.7000002861,,461796.5,,461809.166,8,400,,,
break_continue,html.Screen,4_76_2,2023-09-11T19:12:23.098Z,,0,,,NaN,,,,,,false,,,,461797,461796.90000009537,,461796.80000019073,,461809.166,8,400,,,
sequence,flow.Sequence,4_76,2023-09-11T19:12:23.098Z,,0,,,4162.526000095357,completion,,,,,false,,,,461797.10000038147,461796.90000009537,457617.72,457618.60000038147,457634.374,461809.166,8,400,,,
trial,html.Screen,4_77_0,2023-09-11T19:12:28.993Z,,0,2,,5882.434000381443,response,ISIC_9312264.JPG,5,ISIC_9112747.JPG,ISIC_9112747.JPG,false,0,keypress(z),500,467691.80000019073,467691.60000038147,461792.423,461797.10000038147,461809.166,467703.917,8,400,28,,ISIC_9312264.JPG
break,html.Screen,4_77_1,2023-09-11T19:12:28.994Z,,0,,,NaN,,,,,,false,,,,467692.40000009537,467692.30000019073,,467691.90000009537,,467703.917,8,400,,,
break_continue,html.Screen,4_77_2,2023-09-11T19:12:28.994Z,,0,,,NaN,,,,,,false,,,,467692.7000002861,467692.60000038147,,467692.5,,467703.917,8,400,,,
sequence,flow.Sequence,4_77,2023-09-11T19:12:28.994Z,,0,,,5883.434000381443,completion,,,,,false,,,,467692.80000019073,467692.60000038147,461792.423,461797.10000038147,461809.166,467703.917,8,400,,,
trial,html.Screen,4_78_0,2023-09-11T19:12:33.946Z,,0,2,,4940.2830002860865,response,ISIC_5223280.JPG,6,ISIC_0058432.JPG,ISIC_0058432.JPG,false,0,keypress(z),500,472644.30000019073,472644.2000002861,467687.297,467692.90000009537,467703.917,472646.869,8,400,29,,ISIC_5223280.JPG
break,html.Screen,4_78_1,2023-09-11T19:12:33.946Z,,0,,,NaN,,,,,,false,,,,472644.90000009537,472644.80000019073,,472644.5,,472646.869,8,400,,,
break_continue,html.Screen,4_78_2,2023-09-11T19:12:33.947Z,,0,,,NaN,,,,,,false,,,,472645.2000002861,472645.2000002861,,472645,,472646.869,8,400,,,
sequence,flow.Sequence,4_78,2023-09-11T19:12:33.947Z,,0,,,4941.2830002860865,completion,,,,,false,,,,472645.30000019073,472645.2000002861,467687.297,467692.90000009537,467703.917,472646.869,8,400,,,
trial,html.Screen,4_79_0,2023-09-11T19:12:39.436Z,,0,2,,5487.931000190729,response,ISIC_0061066.JPG,5,ISIC_2159510.JPG,ISIC_2159510.JPG,false,0,keypress(z),500,478134.90000009537,478134.80000019073,472630.273,472645.5,472646.869,478140.885,8,400,30,,ISIC_0061066.JPG
break,html.Screen,4_79_1,2023-09-11T19:12:39.437Z,,0,,,NaN,,,,,,false,,,,478135.40000009537,478135.30000019073,,478135,,478140.885,8,400,,,
break_continue,html.Screen,4_79_2,2023-09-11T19:12:39.437Z,,0,,,NaN,,,,,,false,,,,478135.60000038147,478135.60000038147,,478135.5,,478140.885,8,400,,,
sequence,flow.Sequence,4_79,2023-09-11T19:12:39.437Z,,0,,,5488.731000381464,completion,,,,,false,,,,478135.7000002861,478135.60000038147,472630.273,472645.5,472646.869,478140.885,8,400,,,
trial,html.Screen,4_80_0,2023-09-11T19:12:45.567Z,,0,2,,6124.71500038146,response,ISIC_6590303.JPG,6,ISIC_0054355.JPG,ISIC_6590303.JPG,false,1,keypress(m),500,484265.7000002861,484265.60000038147,478124.236,478135.7000002861,478140.885,484269.495,8,400,31,,ISIC_0054355.JPG
break,html.Screen,4_80_1,2023-09-11T19:12:45.567Z,,0,,,NaN,,,,,,false,,,,484266.10000038147,484266,,484265.80000019073,,484269.495,8,400,,,
break_continue,html.Screen,4_80_2,2023-09-11T19:12:45.568Z,,0,,,NaN,,,,,,false,,,,484266.30000019073,484266.30000019073,,484266.2000002861,,484269.495,8,400,,,
sequence,flow.Sequence,4_80,2023-09-11T19:12:45.568Z,,0,,,6125.415000190726,completion,,,,,false,,,,484266.40000009537,484266.30000019073,478124.236,478135.7000002861,478140.885,484269.495,8,400,,,
trial,html.Screen,4_81_0,2023-09-11T19:12:49.353Z,,0,2,,3781.6050003814744,response,ISIC_0032034.JPG,5,ISIC_0024285.JPG,ISIC_0024285.JPG,false,0,keypress(z),500,488051.2000002861,488051.10000038147,484252.974,484266.5,484269.495,488077.012,8,400,32,,ISIC_0032034.JPG
break,html.Screen,4_81_1,2023-09-11T19:12:49.353Z,,0,,,NaN,,,,,,false,,,,488052,488051.60000038147,,488051.40000009537,,488077.012,8,400,,,
break_continue,html.Screen,4_81_2,2023-09-11T19:12:49.354Z,,0,,,NaN,,,,,,false,,,,488052.40000009537,488052.30000019073,,488052.2000002861,,488077.012,8,400,,,
sequence,flow.Sequence,4_81,2023-09-11T19:12:49.354Z,,0,,,3782.8050001907395,completion,,,,,false,,,,488052.5,488052.30000019073,484252.974,484266.40000009537,484269.495,488077.012,8,400,,,
trial,html.Screen,4_82_0,2023-09-11T19:12:53.420Z,,0,2,,4041.3880000953795,response,ISIC_5620802.JPG,5,ISIC_0072977.JPG,ISIC_5620802.JPG,false,1,keypress(m),500,492118.60000038147,492118.40000009537,488060.251,488052.60000038147,488077.012,492134.788,8,400,33,,ISIC_0072977.JPG
break,html.Screen,4_82_1,2023-09-11T19:12:53.421Z,,0,,,NaN,,,,,,false,,,,492119.30000019073,492119.10000038147,,492118.80000019073,,492134.788,8,400,,,
break_continue,html.Screen,4_82_2,2023-09-11T19:12:53.421Z,,0,,,NaN,,,,,,false,,,,492119.5,492119.5,,492119.30000019073,,492134.788,8,400,,,
sequence,flow.Sequence,4_82,2023-09-11T19:12:53.421Z,,0,,,4042.488000000012,completion,,,,,false,,,,492119.60000038147,492119.5,488060.251,488052.60000038147,488077.012,492134.788,8,400,,,
trial,html.Screen,4_83_0,2023-09-11T19:12:58.206Z,,0,2,,4769.912000286102,response,ISIC_1388297.JPG,5,ISIC_0024261.JPG,ISIC_0024261.JPG,false,0,keypress(z),500,496904.80000019073,496904.7000002861,492118.091,492119.7000002861,492134.788,496910.771,8,400,34,,ISIC_1388297.JPG
break,html.Screen,4_83_1,2023-09-11T19:12:58.207Z,,0,,,NaN,,,,,,false,,,,496905.30000019073,496905.2000002861,,496904.90000009537,,496910.771,8,400,,,
break_continue,html.Screen,4_83_2,2023-09-11T19:12:58.207Z,,0,,,NaN,,,,,,false,,,,496905.5,496905.40000009537,,496905.40000009537,,496910.771,8,400,,,
sequence,flow.Sequence,4_83,2023-09-11T19:12:58.207Z,,0,,,4770.612000095367,completion,,,,,false,,,,496905.60000038147,496905.40000009537,492118.091,492119.7000002861,492134.788,496910.771,8,400,,,
trial,html.Screen,4_84_0,2023-09-11T19:13:04.514Z,,0,2,,6300.728999999992,response,ISIC_0072173.JPG,5,ISIC_0031821.JPG,ISIC_0031821.JPG,false,0,keypress(z),500,503211.7000002861,503211.5,496894.263,496905.60000038147,496910.771,503223.073,8,400,35,,ISIC_0072173.JPG
break,html.Screen,4_84_1,2023-09-11T19:13:04.515Z,,0,,,NaN,,,,,,false,,,,503212.2000002861,503212.10000038147,,503211.80000019073,,503223.073,8,400,,,
break_continue,html.Screen,4_84_2,2023-09-11T19:13:04.515Z,,0,,,NaN,,,,,,false,,,,503212.60000038147,503212.5,,503212.30000019073,,503223.073,8,400,,,
sequence,flow.Sequence,4_84,2023-09-11T19:13:04.515Z,,0,,,6301.728999999992,completion,,,,,false,,,,503212.7000002861,503212.5,496894.263,496905.60000038147,496910.771,503223.073,8,400,,,
trial,html.Screen,4_85_0,2023-09-11T19:13:10.618Z,,0,2,,6091.827000095393,response,ISIC_0032774.JPG,4,ISIC_0031941.JPG,ISIC_0032774.JPG,false,1,keypress(m),500,509315.2000002861,509314.90000009537,503206.326,503212.80000019073,503223.073,509318.314,8,400,36,,ISIC_0031941.JPG
break,html.Screen,4_85_1,2023-09-11T19:13:10.619Z,,0,,,NaN,,,,,,false,,,,509316.2000002861,509316,,509315.40000009537,,509318.314,8,400,,,
break_continue,html.Screen,4_85_2,2023-09-11T19:13:10.619Z,,0,,,NaN,,,,,,false,,,,509316.7000002861,509316.60000038147,,509316.40000009537,,509318.314,8,400,,,
sequence,flow.Sequence,4_85,2023-09-11T19:13:10.619Z,,0,,,6093.527000381495,completion,,,,,false,,,,509316.90000009537,509316.60000038147,503206.326,503212.80000019073,503223.073,509318.314,8,400,,,
trial,html.Screen,4_86_0,2023-09-11T19:13:17.838Z,,0,2,,7217.586000095354,response,ISIC_6171084.JPG,5,ISIC_0003217.JPG,ISIC_6171084.JPG,false,1,keypress(m),500,516536,516535.90000009537,509301.657,509317.10000038147,509318.314,516548.993,8,400,37,,ISIC_0003217.JPG
break,html.Screen,4_86_1,2023-09-11T19:13:17.839Z,,0,,,NaN,,,,,,false,,,,516536.40000009537,516536.30000019073,,516536.10000038147,,516548.993,8,400,,,
break_continue,html.Screen,4_86_2,2023-09-11T19:13:17.839Z,,0,,,NaN,,,,,,false,,,,516536.60000038147,516536.60000038147,,516536.5,,516548.993,8,400,,,
sequence,flow.Sequence,4_86,2023-09-11T19:13:17.839Z,,0,,,7218.286000381457,completion,,,,,false,,,,516536.60000038147,516536.60000038147,509301.657,509317.10000038147,509318.314,516548.993,8,400,,,
trial,html.Screen,4_87_0,2023-09-11T19:13:24.449Z,,0,2,,6597.607000381453,response,ISIC_9330527.JPG,6,ISIC_0072221.JPG,ISIC_9330527.JPG,false,1,keypress(m),500,523146.7000002861,523146.60000038147,516532.3,516536.80000019073,516548.993,523161.915,8,400,38,,ISIC_0072221.JPG
break,html.Screen,4_87_1,2023-09-11T19:13:24.450Z,,0,,,NaN,,,,,,false,,,,523147.10000038147,523147,,523146.80000019073,,523161.915,8,400,,,
break_continue,html.Screen,4_87_2,2023-09-11T19:13:24.450Z,,0,,,NaN,,,,,,false,,,,523147.40000009537,523147.30000019073,,523147.2000002861,,523161.915,8,400,,,
sequence,flow.Sequence,4_87,2023-09-11T19:13:24.450Z,,0,,,6598.307000190718,completion,,,,,false,,,,523147.5,523147.30000019073,516532.3,516536.80000019073,516548.993,523161.915,8,400,,,
trial,html.Screen,4_88_0,2023-09-11T19:13:28.435Z,,0,2,,3970.385000190756,response,ISIC_0061334.JPG,5,ISIC_3961647.JPG,ISIC_0061334.JPG,false,1,keypress(m),500,527132.5,527132.3000001907,523145.357,523147.5,523161.915,527136.31,8,400,39,,ISIC_3961647.JPG
break,html.Screen,4_88_1,2023-09-11T19:13:28.436Z,,0,,,NaN,,,,,,false,,,,527133.5,527133.2000002861,,527132.8000001907,,527136.31,8,400,,,
break_continue,html.Screen,4_88_2,2023-09-11T19:13:28.437Z,,0,,,NaN,,,,,,false,,,,527134.1000003815,527133.9000000954,,527133.7000002861,,527136.31,8,400,,,
sequence,flow.Sequence,4_88,2023-09-11T19:13:28.437Z,,0,,,3971.9850000953884,completion,,,,,false,,,,527134.3000001907,527133.9000000954,523145.357,523147.5,523161.915,527136.31,8,400,,,
trial,html.Screen,4_89_0,2023-09-11T19:13:36.631Z,,0,2,,8192.390000286046,response,ISIC_0033119.JPG,5,ISIC_0013644.JPG,ISIC_0013644.JPG,false,0,keypress(z),500,535328.8000001907,535328.7000002861,527119.649,527134.4000000954,527136.31,535335.534,8,400,40,,ISIC_0033119.JPG
break,html.Screen,4_89_1,2023-09-11T19:13:36.632Z,,0,,,NaN,,,,,,false,,,,535329.2000002861,535329.1000003815,,535328.9000000954,,535335.534,8,400,,,
break_continue,html.Screen,4_89_2,2023-09-11T19:13:36.632Z,,0,,,NaN,,,,,,false,,,,535329.5,535329.4000000954,,535329.4000000954,,535335.534,8,400,,,
sequence,flow.Sequence,4_89,2023-09-11T19:13:36.632Z,,0,,,8193.090000095312,completion,,,,,false,,,,535329.6000003815,535329.4000000954,527119.649,527134.4000000954,527136.31,535335.534,8,400,,,
trial,html.Screen,4_90_0,2023-09-11T19:13:41.562Z,,0,2,,4923.466000000015,response,ISIC_2999018.JPG,6,ISIC_0003046.JPG,ISIC_0003046.JPG,false,0,keypress(z),500,540259.2000002861,540259,535318.865,535329.6000003815,535335.534,540261.769,8,400,41,,ISIC_2999018.JPG
break,html.Screen,4_90_1,2023-09-11T19:13:41.562Z,,0,,,NaN,,,,,,false,,,,540259.8000001907,540259.7000002861,,540259.4000000954,,540261.769,8,400,,,
break_continue,html.Screen,4_90_2,2023-09-11T19:13:41.563Z,,0,,,NaN,,,,,,false,,,,540260.1000003815,540260.1000003815,,540260,,540261.769,8,400,,,
sequence,flow.Sequence,4_90,2023-09-11T19:13:41.563Z,,0,,,4924.566000381485,completion,,,,,false,,,,540260.3000001907,540260.1000003815,535318.865,535329.6000003815,535335.534,540261.769,8,400,,,
trial,html.Screen,4_91_0,2023-09-11T19:13:46.957Z,,0,2,,5392.131000095396,response,ISIC_0063655.JPG,5,ISIC_0014480.JPG,ISIC_0014480.JPG,false,0,keypress(z),500,545654.2000002861,545653.9000000954,540245.116,540260.4000000954,540261.769,545655.59,8,400,42,,ISIC_0063655.JPG
break,html.Screen,4_91_1,2023-09-11T19:13:46.957Z,,0,,,NaN,,,,,,false,,,,545654.9000000954,545654.7000002861,,545654.4000000954,,545655.59,8,400,,,
break_continue,html.Screen,4_91_2,2023-09-11T19:13:46.958Z,,0,,,NaN,,,,,,false,,,,545655.2000002861,545655.1000003815,,545655.1000003815,,545655.59,8,400,,,
sequence,flow.Sequence,4_91,2023-09-11T19:13:46.958Z,,0,,,5393.331000381499,completion,,,,,false,,,,545655.3000001907,545655.1000003815,540245.116,540260.3000001907,540261.769,545655.59,8,400,,,
trial,html.Screen,4_92_0,2023-09-11T19:13:50.977Z,,0,2,,4018.5100003815023,response,ISIC_3380212.JPG,7,ISIC_0952221.JPG,ISIC_0952221.JPG,false,0,keypress(z),500,549674.2000002861,549674.1000003815,545638.956,545655.4000000954,545655.59,549680.174,8,400,43,,ISIC_3380212.JPG
break,html.Screen,4_92_1,2023-09-11T19:13:50.977Z,,0,,,NaN,,,,,,false,,,,549674.7000002861,549674.5,,549674.4000000954,,549680.174,8,400,,,
break_continue,html.Screen,4_92_2,2023-09-11T19:13:50.977Z,,0,,,NaN,,,,,,false,,,,549674.8000001907,549674.8000001907,,549674.7000002861,,549680.174,8,400,,,
sequence,flow.Sequence,4_92,2023-09-11T19:13:50.977Z,,0,,,4019.2100001907675,completion,,,,,false,,,,549674.9000000954,549674.8000001907,545638.956,545655.4000000954,545655.59,549680.174,8,400,,,
trial,html.Screen,4_93_0,2023-09-11T19:13:54.819Z,,0,2,,3836.526000286103,response,ISIC_4951035.JPG,5,ISIC_0032873.JPG,ISIC_4951035.JPG,false,1,keypress(m),500,553516.7000002861,553516.7000002861,549663.517,549675,549680.174,553520.917,8,400,44,,ISIC_0032873.JPG
break,html.Screen,4_93_1,2023-09-11T19:13:54.820Z,,0,,,NaN,,,,,,false,,,,553517.2000002861,553517.1000003815,,553516.9000000954,,553520.917,8,400,,,
break_continue,html.Screen,4_93_2,2023-09-11T19:13:54.820Z,,0,,,NaN,,,,,,false,,,,553517.5,553517.5,,553517.3000001907,,553520.917,8,400,,,
sequence,flow.Sequence,4_93,2023-09-11T19:13:54.820Z,,0,,,3837.326000000001,completion,,,,,false,,,,553517.6000003815,553517.5,549663.517,549674.9000000954,549680.174,553520.917,8,400,,,
trial,html.Screen,4_94_0,2023-09-11T19:14:00.582Z,,0,2,,5758.183000381454,response,ISIC_0010591.JPG,5,ISIC_2077116.JPG,ISIC_2077116.JPG,false,0,keypress(z),500,559279.2000002861,559279.1000003815,553504.266,553517.7000002861,553520.917,559282.158,8,400,45,,ISIC_0010591.JPG
break,html.Screen,4_94_1,2023-09-11T19:14:00.582Z,,0,,,NaN,,,,,,false,,,,559279.9000000954,559279.6000003815,,559279.4000000954,,559282.158,8,400,,,
break_continue,html.Screen,4_94_2,2023-09-11T19:14:00.583Z,,0,,,NaN,,,,,,false,,,,559280.3000001907,559280.2000002861,,559280,,559282.158,8,400,,,
sequence,flow.Sequence,4_94,2023-09-11T19:14:00.583Z,,0,,,5759.2830002860865,completion,,,,,false,,,,559280.4000000954,559280.2000002861,553504.266,553517.7000002861,553520.917,559282.158,8,400,,,
trial,html.Screen,4_95_0,2023-09-11T19:14:04.842Z,,0,2,,4256.142000190681,response,ISIC_0001505.JPG,7,ISIC_1513720.JPG,ISIC_0001505.JPG,false,1,keypress(m),500,563538.4000000954,563538.3000001907,559265.493,559280.5,559282.158,563540.459,8,400,46,,ISIC_1513720.JPG
break,html.Screen,4_95_1,2023-09-11T19:14:04.842Z,,0,,,NaN,,,,,,false,,,,563538.9000000954,563538.8000001907,,563538.5,,563540.459,8,400,,,
break_continue,html.Screen,4_95_2,2023-09-11T19:14:04.843Z,,0,,,NaN,,,,,,false,,,,563539.1000003815,563539,,563539,,563540.459,8,400,,,
sequence,flow.Sequence,4_95,2023-09-11T19:14:04.843Z,,0,,,4256.841999999946,completion,,,,,false,,,,563539.2000002861,563539,559265.493,559280.5,559282.158,563540.459,8,400,,,
trial,html.Screen,4_96_0,2023-09-11T19:14:10.237Z,,0,2,,5392.540999999968,response,ISIC_0025929.JPG,5,ISIC_8145260.JPG,ISIC_8145260.JPG,false,0,keypress(z),500,568933.2000002861,568933,563523.776,563539.3000001907,563540.459,568934.248,8,400,47,,ISIC_0025929.JPG
break,html.Screen,4_96_1,2023-09-11T19:14:10.238Z,,0,,,NaN,,,,,,false,,,,568934.2000002861,568934,,568933.5,,568934.248,8,400,,,
break_continue,html.Screen,4_96_2,2023-09-11T19:14:10.238Z,,0,,,NaN,,,,,,false,,,,568934.8000001907,568934.6000003815,,568934.5,,568934.248,8,400,,,
sequence,flow.Sequence,4_96,2023-09-11T19:14:10.238Z,,0,,,5394.141000381438,completion,,,,,false,,,,568934.9000000954,568934.6000003815,563523.776,563539.3000001907,563540.459,568934.248,8,400,,,
trial,html.Screen,4_97_0,2023-09-11T19:14:14.596Z,,0,2,,4357.852000381448,response,ISIC_2440407.JPG,6,ISIC_3975133.JPG,ISIC_2440407.JPG,false,1,keypress(m),500,573292.3000001907,573292.1000003815,568917.736,568935,568934.248,573309.531,8,400,48,,ISIC_3975133.JPG
break,html.Screen,4_97_1,2023-09-11T19:14:14.597Z,,0,,,NaN,,,,,,false,,,,573293.1000003815,573292.9000000954,,573292.5,,573309.531,8,400,,,
break_continue,html.Screen,4_97_2,2023-09-11T19:14:14.597Z,,0,,,NaN,,,,,,false,,,,573293.6000003815,573293.5,,573293.3000001907,,573309.531,8,400,,,
sequence,flow.Sequence,4_97,2023-09-11T19:14:14.597Z,,0,,,4359.251999999979,completion,,,,,false,,,,573293.6000003815,573293.5,568917.736,568934.9000000954,568934.248,573309.531,8,400,,,
trial,html.Screen,4_98_0,2023-09-11T19:14:21.161Z,,0,2,,6547.669000286143,response,ISIC_1944650.JPG,5,ISIC_0055404.JPG,ISIC_1944650.JPG,false,1,keypress(m),500,579857.3000001907,579857.2000002861,573292.776,573293.8000001907,573309.531,579872.19,8,400,49,,ISIC_0055404.JPG
break,html.Screen,4_98_1,2023-09-11T19:14:21.162Z,,0,,,NaN,,,,,,false,,,,579858.1000003815,579857.9000000954,,579857.5,,579872.19,8,400,,,
break_continue,html.Screen,4_98_2,2023-09-11T19:14:21.162Z,,0,,,NaN,,,,,,false,,,,579858.5,579858.3000001907,,579858.2000002861,,579872.19,8,400,,,
sequence,flow.Sequence,4_98,2023-09-11T19:14:21.162Z,,0,,,6548.769000190776,completion,,,,,false,,,,579858.6000003815,579858.3000001907,573292.776,573293.8000001907,573309.531,579872.19,8,400,,,
trial,html.Screen,4_99_0,2023-09-11T19:14:26.750Z,,0,2,,5574.210000095423,response,ISIC_0015938.JPG,5,ISIC_0029593.JPG,ISIC_0015938.JPG,false,1,keypress(m),500,585446.8000001907,585446.4000000954,579855.603,579858.7000002861,579872.19,585449.843,8,400,50,,ISIC_0029593.JPG
break,html.Screen,4_99_1,2023-09-11T19:14:36.740Z,,0,,,10002.891999999993,timeout,,,,,false,,,,595436.5,595435.951,585433.13,585447.2000002861,585449.843,595452.735,8,400,,,
break_continue,html.Screen,4_99_2,2023-09-11T19:14:39.417Z,,0,,,2652.3650003814837,response,,,,,false,continue,keypress(Space),,598113.1000003815,598105.1000003815,595435.951,595436.6000003815,595452.735,598124.581,8,400,,,
sequence,flow.Sequence,4_99,2023-09-11T19:14:39.417Z,,0,,,18232.910000381526,completion,,,,,false,,,,598113.3000001907,598105.1000003815,579855.603,579858.7000002861,579872.19,598124.581,8,400,,,
trial,html.Screen,4_100_0,2023-09-11T19:14:44.080Z,,0,3,,4651.319000095362,response,ISIC_0030994.JPG,5,ISIC_0199116.JPG,ISIC_0199116.JPG,false,0,keypress(z),500,602776,602775.9000000954,598107.729,598113.3000001907,598124.581,602783.462,8,400,1,,ISIC_0030994.JPG
break,html.Screen,4_100_1,2023-09-11T19:14:44.080Z,,0,,,NaN,,,,,,false,,,,602776.6000003815,602776.4000000954,,602776.2000002861,,602783.462,8,400,,,
break_continue,html.Screen,4_100_2,2023-09-11T19:14:44.080Z,,0,,,NaN,,,,,,false,,,,602776.7000002861,602776.7000002861,,602776.6000003815,,602783.462,8,400,,,
sequence,flow.Sequence,4_100,2023-09-11T19:14:44.080Z,,0,,,4652.119000286097,completion,,,,,false,,,,602776.9000000954,602776.7000002861,598107.729,598113.3000001907,598124.581,602783.462,8,400,,,
trial,html.Screen,4_101_0,2023-09-11T19:14:47.974Z,,0,3,,3886.7380002860446,response,ISIC_0027112.JPG,4,ISIC_6828587.JPG,ISIC_0027112.JPG,false,1,keypress(m),500,606670.3000001907,606670.2000002861,602766.785,602776.9000000954,602783.462,606674.346,8,400,2,,ISIC_6828587.JPG
break,html.Screen,4_101_1,2023-09-11T19:14:47.974Z,,0,,,NaN,,,,,,false,,,,606670.8000001907,606670.6000003815,,606670.5,,606674.346,8,400,,,
break_continue,html.Screen,4_101_2,2023-09-11T19:14:47.975Z,,0,,,NaN,,,,,,false,,,,606671,606671,,606670.8000001907,,606674.346,8,400,,,
sequence,flow.Sequence,4_101,2023-09-11T19:14:47.975Z,,0,,,3887.5379999999423,completion,,,,,false,,,,606671.1000003815,606671,602766.785,602776.9000000954,602783.462,606674.346,8,400,,,
trial,html.Screen,4_102_0,2023-09-11T19:14:52.745Z,,0,3,,4766.65399999998,response,ISIC_0029244.JPG,5,ISIC_0054053.JPG,ISIC_0029244.JPG,false,1,keypress(m),500,611441.1000003815,611441,606657.842,606671.2000002861,606674.346,611450.478,8,400,3,,ISIC_0054053.JPG
break,html.Screen,4_102_1,2023-09-11T19:14:52.745Z,,0,,,NaN,,,,,,false,,,,611441.6000003815,611441.4000000954,,611441.2000002861,,611450.478,8,400,,,
break_continue,html.Screen,4_102_2,2023-09-11T19:14:52.745Z,,0,,,NaN,,,,,,false,,,,611441.8000001907,611441.7000002861,,611441.7000002861,,611450.478,8,400,,,
sequence,flow.Sequence,4_102,2023-09-11T19:14:52.745Z,,0,,,4767.354000286083,completion,,,,,false,,,,611441.8000001907,611441.7000002861,606657.842,606671.2000002861,606674.346,611450.478,8,400,,,
trial,html.Screen,4_103_0,2023-09-11T19:14:56.812Z,,0,3,,4057.2220002860995,response,ISIC_0067549.JPG,4,ISIC_9441572.JPG,ISIC_0067549.JPG,false,1,keypress(m),500,615508.1000003815,615507.7000002861,611433.731,611441.9000000954,611450.478,615524.997,8,400,4,,ISIC_9441572.JPG
break,html.Screen,4_103_1,2023-09-11T19:14:56.814Z,,0,,,NaN,,,,,,false,,,,615509.9000000954,615509.2000002861,,615508.5,,615524.997,8,400,,,
break_continue,html.Screen,4_103_2,2023-09-11T19:14:56.814Z,,0,,,NaN,,,,,,false,,,,615510.8000001907,615510.5,,615510.2000002861,,615524.997,8,400,,,
sequence,flow.Sequence,4_103,2023-09-11T19:14:56.815Z,,0,,,4060.021999999997,completion,,,,,false,,,,615511.1000003815,615510.5,611433.731,611441.9000000954,611450.478,615524.997,8,400,,,
trial,html.Screen,4_104_0,2023-09-11T19:15:01.266Z,,0,3,,4436.9030000953935,response,ISIC_0367225.JPG,5,ISIC_0012904.JPG,ISIC_0012904.JPG,false,0,keypress(z),500,619962.1000003815,619961.9000000954,615508.36,615511.3000001907,615524.997,619966.915,8,400,5,,ISIC_0367225.JPG
break,html.Screen,4_104_1,2023-09-11T19:15:01.266Z,,0,,,NaN,,,,,,false,,,,619962.8000001907,619962.7000002861,,619962.3000001907,,619966.915,8,400,,,
break_continue,html.Screen,4_104_2,2023-09-11T19:15:01.267Z,,0,,,NaN,,,,,,false,,,,619963.2000002861,619963.1000003815,,619963,,619966.915,8,400,,,
sequence,flow.Sequence,4_104,2023-09-11T19:15:01.267Z,,0,,,4438.103000381496,completion,,,,,false,,,,619963.3000001907,619963.1000003815,615508.36,615511.3000001907,615524.997,619966.915,8,400,,,
trial,html.Screen,4_105_0,2023-09-11T19:15:04.950Z,,0,3,,3678.6850003814325,response,ISIC_0028075.JPG,6,ISIC_0011943.JPG,ISIC_0028075.JPG,false,1,keypress(m),500,623645.8000001907,623645.6000003815,619950.254,619963.4000000954,619966.915,623657.543,8,400,6,,ISIC_0011943.JPG
break,html.Screen,4_105_1,2023-09-11T19:15:04.951Z,,0,,,NaN,,,,,,false,,,,623646.2000002861,623646.1000003815,,623645.8000001907,,623657.543,8,400,,,
break_continue,html.Screen,4_105_2,2023-09-11T19:15:04.951Z,,0,,,NaN,,,,,,false,,,,623646.4000000954,623646.3000001907,,623646.3000001907,,623657.543,8,400,,,
sequence,flow.Sequence,4_105,2023-09-11T19:15:04.951Z,,0,,,3679.3850001906976,completion,,,,,false,,,,623646.5,623646.3000001907,619950.254,619963.4000000954,619966.915,623657.543,8,400,,,
trial,html.Screen,4_106_0,2023-09-11T19:15:08.731Z,,0,3,,3768.457000000053,response,ISIC_0033239.JPG,5,ISIC_8978290.JPG,ISIC_8978290.JPG,false,0,keypress(z),500,627426.2000002861,627426,623640.861,623646.5,623657.543,627431.513,8,400,7,,ISIC_0033239.JPG
break,html.Screen,4_106_1,2023-09-11T19:15:08.731Z,,0,,,NaN,,,,,,false,,,,627426.6000003815,627426.5,,627426.3000001907,,627431.513,8,400,,,
break_continue,html.Screen,4_106_2,2023-09-11T19:15:08.731Z,,0,,,NaN,,,,,,false,,,,627426.8000001907,627426.7000002861,,627426.7000002861,,627431.513,8,400,,,
sequence,flow.Sequence,4_106,2023-09-11T19:15:08.731Z,,0,,,3769.1570002861554,completion,,,,,false,,,,627426.8000001907,627426.7000002861,623640.861,623646.5,623657.543,627431.513,8,400,,,
trial,html.Screen,4_107_0,2023-09-11T19:15:14.542Z,,0,3,,5805.2870001906995,response,ISIC_0580054.JPG,4,ISIC_8133350.JPG,ISIC_0580054.JPG,false,1,keypress(m),500,633236.9000000954,633236.8000001907,627414.756,627426.9000000954,627431.513,633242.796,8,400,8,,ISIC_8133350.JPG
break,html.Screen,4_107_1,2023-09-11T19:15:14.542Z,,0,,,NaN,,,,,,false,,,,633237.3000001907,633237.2000002861,,633237,,633242.796,8,400,,,
break_continue,html.Screen,4_107_2,2023-09-11T19:15:14.542Z,,0,,,NaN,,,,,,false,,,,633237.5,633237.4000000954,,633237.4000000954,,633242.796,8,400,,,
sequence,flow.Sequence,4_107,2023-09-11T19:15:14.542Z,,0,,,5805.887000095332,completion,,,,,false,,,,633237.6000003815,633237.4000000954,627414.756,627426.8000001907,627431.513,633242.796,8,400,,,
trial,html.Screen,4_108_0,2023-09-11T19:15:18.183Z,,0,3,,3635.3040003814967,response,ISIC_0072826.JPG,4,ISIC_7097931.JPG,ISIC_7097931.JPG,false,0,keypress(z),500,636878.2000002861,636878.1000003815,633226.069,633237.7000002861,633242.796,636883.221,8,400,9,,ISIC_0072826.JPG
break,html.Screen,4_108_1,2023-09-11T19:15:18.183Z,,0,,,NaN,,,,,,false,,,,636878.7000002861,636878.6000003815,,636878.4000000954,,636883.221,8,400,,,
break_continue,html.Screen,4_108_2,2023-09-11T19:15:18.184Z,,0,,,NaN,,,,,,false,,,,636879,636878.9000000954,,636878.8000001907,,636883.221,8,400,,,
sequence,flow.Sequence,4_108,2023-09-11T19:15:18.184Z,,0,,,3636.1040000953944,completion,,,,,false,,,,636879.1000003815,636878.9000000954,633226.069,633237.7000002861,633242.796,636883.221,8,400,,,
trial,html.Screen,4_109_0,2023-09-11T19:15:23.114Z,,0,3,,4925.87900038145,response,ISIC_0010235.JPG,5,ISIC_9334956.JPG,ISIC_9334956.JPG,false,0,keypress(z),500,641809.3000001907,641809.1000003815,636866.558,636879.1000003815,636883.221,641826.166,8,400,10,,ISIC_0010235.JPG
break,html.Screen,4_109_1,2023-09-11T19:15:23.115Z,,0,,,NaN,,,,,,false,,,,641810.3000001907,641810,,641809.4000000954,,641826.166,8,400,,,
break_continue,html.Screen,4_109_2,2023-09-11T19:15:23.115Z,,0,,,NaN,,,,,,false,,,,641810.6000003815,641810.5,,641810.4000000954,,641826.166,8,400,,,
sequence,flow.Sequence,4_109,2023-09-11T19:15:23.115Z,,0,,,4927.27899999998,completion,,,,,false,,,,641810.7000002861,641810.5,636866.558,636879.1000003815,636883.221,641826.166,8,400,,,
trial,html.Screen,4_110_0,2023-09-11T19:15:26.910Z,,0,3,,3778.8340000000317,response,ISIC_0305800.JPG,4,ISIC_0055314.JPG,ISIC_0305800.JPG,false,1,keypress(m),500,645605.1000003815,645605,641809.414,641810.9000000954,641826.166,645616.919,8,400,11,,ISIC_0055314.JPG
break,html.Screen,4_110_1,2023-09-11T19:15:26.910Z,,0,,,NaN,,,,,,false,,,,645605.8000001907,645605.6000003815,,645605.3000001907,,645616.919,8,400,,,
break_continue,html.Screen,4_110_2,2023-09-11T19:15:26.911Z,,0,,,NaN,,,,,,false,,,,645606,645606,,645605.8000001907,,645616.919,8,400,,,
sequence,flow.Sequence,4_110,2023-09-11T19:15:26.911Z,,0,,,3779.8340000000317,completion,,,,,false,,,,645606.1000003815,645606,641809.414,641810.9000000954,641826.166,645616.919,8,400,,,
trial,html.Screen,4_111_0,2023-09-11T19:15:31.672Z,,0,3,,4750.181000381475,response,ISIC_0014026.JPG,5,ISIC_7520843.JPG,ISIC_7520843.JPG,false,0,keypress(z),500,650367.3000001907,650367.1000003815,645600.303,645606.2000002861,645616.919,650376.064,8,400,12,,ISIC_0014026.JPG
break,html.Screen,4_111_1,2023-09-11T19:15:31.673Z,,0,,,NaN,,,,,,false,,,,650368.1000003815,650367.8000001907,,650367.5,,650376.064,8,400,,,
break_continue,html.Screen,4_111_2,2023-09-11T19:15:31.673Z,,0,,,NaN,,,,,,false,,,,650368.3000001907,650368.2000002861,,650368.1000003815,,650376.064,8,400,,,
sequence,flow.Sequence,4_111,2023-09-11T19:15:31.673Z,,0,,,4751.281000286108,completion,,,,,false,,,,650368.4000000954,650368.2000002861,645600.303,645606.2000002861,645616.919,650376.064,8,400,,,
trial,html.Screen,4_112_0,2023-09-11T19:15:36.282Z,,0,3,,4601.336000095354,response,ISIC_0026586.JPG,5,ISIC_0025582.JPG,ISIC_0025582.JPG,false,0,keypress(z),500,654977.6000003815,654977.4000000954,650359.426,650368.5,650376.064,654985.061,8,400,13,,ISIC_0026586.JPG
break,html.Screen,4_112_1,2023-09-11T19:15:36.283Z,,0,,,NaN,,,,,,false,,,,654978.1000003815,654978,,654977.8000001907,,654985.061,8,400,,,
break_continue,html.Screen,4_112_2,2023-09-11T19:15:36.283Z,,0,,,NaN,,,,,,false,,,,654978.4000000954,654978.3000001907,,654978.2000002861,,654985.061,8,400,,,
sequence,flow.Sequence,4_112,2023-09-11T19:15:36.283Z,,0,,,4602.236000190722,completion,,,,,false,,,,654978.6000003815,654978.3000001907,650359.426,650368.5,650376.064,654985.061,8,400,,,
trial,html.Screen,4_113_0,2023-09-11T19:15:41.039Z,,0,3,,4749.539000381483,response,ISIC_0013580.JPG,6,ISIC_9779803.JPG,ISIC_9779803.JPG,false,0,keypress(z),500,659734.9000000954,659734.6000003815,654968.341,654978.6000003815,654985.061,659744.334,8,400,14,,ISIC_0013580.JPG
break,html.Screen,4_113_1,2023-09-11T19:15:41.041Z,,0,,,NaN,,,,,,false,,,,659735.9000000954,659735.6000003815,,659735,,659744.334,8,400,,,
break_continue,html.Screen,4_113_2,2023-09-11T19:15:41.041Z,,0,,,NaN,,,,,,false,,,,659736.3000001907,659736.2000002861,,659736,,659744.334,8,400,,,
sequence,flow.Sequence,4_113,2023-09-11T19:15:41.041Z,,0,,,4751.139000286115,completion,,,,,false,,,,659736.5,659736.2000002861,654968.341,654978.6000003815,654985.061,659744.334,8,400,,,
trial,html.Screen,4_114_0,2023-09-11T19:15:45.539Z,,0,3,,4489.966000190703,response,ISIC_0027085.JPG,5,ISIC_0012425.JPG,ISIC_0012425.JPG,false,0,keypress(z),500,664234.5,664234.3000001907,659727.75,659736.8000001907,659744.334,664236.419,8,400,15,,ISIC_0027085.JPG
break,html.Screen,4_114_1,2023-09-11T19:15:45.540Z,,0,,,NaN,,,,,,false,,,,664235.2000002861,664235,,664234.7000002861,,664236.419,8,400,,,
break_continue,html.Screen,4_114_2,2023-09-11T19:15:45.540Z,,0,,,NaN,,,,,,false,,,,664235.5,664235.4000000954,,664235.2000002861,,664236.419,8,400,,,
sequence,flow.Sequence,4_114,2023-09-11T19:15:45.540Z,,0,,,4491.066000095336,completion,,,,,false,,,,664235.6000003815,664235.4000000954,659727.75,659736.8000001907,659744.334,664236.419,8,400,,,
trial,html.Screen,4_115_0,2023-09-11T19:15:53.478Z,,0,3,,7937.281000286108,response,ISIC_0071257.JPG,5,ISIC_0011698.JPG,ISIC_0071257.JPG,false,1,keypress(m),500,672173.7000002861,672173.7000002861,664219.771,664235.7000002861,664236.419,672185.178,8,400,16,,ISIC_0011698.JPG
break,html.Screen,4_115_1,2023-09-11T19:15:53.479Z,,0,,,NaN,,,,,,false,,,,672174.3000001907,672174.2000002861,,672173.9000000954,,672185.178,8,400,,,
break_continue,html.Screen,4_115_2,2023-09-11T19:15:53.479Z,,0,,,NaN,,,,,,false,,,,672174.7000002861,672174.6000003815,,672174.4000000954,,672185.178,8,400,,,
sequence,flow.Sequence,4_115,2023-09-11T19:15:53.479Z,,0,,,7938.181000381475,completion,,,,,false,,,,672174.8000001907,672174.6000003815,664219.771,664235.7000002861,664236.419,672185.178,8,400,,,
trial,html.Screen,4_116_0,2023-09-11T19:15:58.492Z,,0,3,,5001.722000095411,response,ISIC_7984569.JPG,5,ISIC_5181177.JPG,ISIC_5181177.JPG,false,0,keypress(z),500,677187,677186.9000000954,672168.624,672174.8000001907,672185.178,677194.947,8,400,17,,ISIC_7984569.JPG
break,html.Screen,4_116_1,2023-09-11T19:15:58.492Z,,0,,,NaN,,,,,,false,,,,677187.4000000954,677187.4000000954,,677187.2000002861,,677194.947,8,400,,,
break_continue,html.Screen,4_116_2,2023-09-11T19:15:58.492Z,,0,,,NaN,,,,,,false,,,,677187.7000002861,677187.7000002861,,677187.6000003815,,677194.947,8,400,,,
sequence,flow.Sequence,4_116,2023-09-11T19:15:58.492Z,,0,,,5002.522000286146,completion,,,,,false,,,,677187.8000001907,677187.7000002861,672168.624,672174.8000001907,672185.178,677194.947,8,400,,,
trial,html.Screen,4_117_0,2023-09-11T19:16:04.613Z,,0,3,,6112.153000381426,response,ISIC_0030089.JPG,4,ISIC_0000466.JPG,ISIC_0000466.JPG,false,0,keypress(z),500,683307.3000001907,683307.1000003815,677178.258,677187.8000001907,677194.947,683323.529,8,400,18,,ISIC_0030089.JPG
break,html.Screen,4_117_1,2023-09-11T19:16:04.614Z,,0,,,NaN,,,,,,false,,,,683307.8000001907,683307.6000003815,,683307.5,,683323.529,8,400,,,
break_continue,html.Screen,4_117_2,2023-09-11T19:16:04.614Z,,0,,,NaN,,,,,,false,,,,683308.1000003815,683308,,683307.9000000954,,683323.529,8,400,,,
sequence,flow.Sequence,4_117,2023-09-11T19:16:04.614Z,,0,,,6113.052999999956,completion,,,,,false,,,,683308.1000003815,683308,677178.258,677187.8000001907,677194.947,683323.529,8,400,,,
trial,html.Screen,4_118_0,2023-09-11T19:16:08.988Z,,0,3,,4358.771000190754,response,ISIC_0029250.JPG,5,ISIC_1154109.JPG,ISIC_1154109.JPG,false,0,keypress(z),500,687682.4000000954,687682.3000001907,683306.848,683308.1000003815,683323.529,687698.738,8,400,19,,ISIC_0029250.JPG
break,html.Screen,4_118_1,2023-09-11T19:16:08.989Z,,0,,,NaN,,,,,,false,,,,687682.9000000954,687682.8000001907,,687682.5,,687698.738,8,400,,,
break_continue,html.Screen,4_118_2,2023-09-11T19:16:08.989Z,,0,,,NaN,,,,,,false,,,,687683,687683,,687682.9000000954,,687698.738,8,400,,,
sequence,flow.Sequence,4_118,2023-09-11T19:16:08.989Z,,0,,,4359.47100000002,completion,,,,,false,,,,687683.1000003815,687683,683306.848,683308.1000003815,683323.529,687698.738,8,400,,,
trial,html.Screen,4_119_0,2023-09-11T19:16:13.247Z,,0,3,,4242.562000190723,response,ISIC_1348538.JPG,5,ISIC_4796100.JPG,ISIC_1348538.JPG,false,1,keypress(m),500,691941.4000000954,691941.3000001907,687681.997,687683.2000002861,687698.738,691956.96,8,400,20,,ISIC_4796100.JPG
break,html.Screen,4_119_1,2023-09-11T19:16:13.248Z,,0,,,NaN,,,,,,false,,,,691942.1000003815,691942,,691941.6000003815,,691956.96,8,400,,,
break_continue,html.Screen,4_119_2,2023-09-11T19:16:13.248Z,,0,,,NaN,,,,,,false,,,,691942.4000000954,691942.4000000954,,691942.2000002861,,691956.96,8,400,,,
sequence,flow.Sequence,4_119,2023-09-11T19:16:13.248Z,,0,,,4243.662000095355,completion,,,,,false,,,,691942.5,691942.4000000954,687681.997,687683.2000002861,687698.738,691956.96,8,400,,,
trial,html.Screen,4_120_0,2023-09-11T19:16:18.641Z,,0,3,,5378.440000095405,response,ISIC_8590883.JPG,4,ISIC_0032544.JPG,ISIC_8590883.JPG,false,1,keypress(m),500,697335.6000003815,697335.4000000954,691940.273,691942.6000003815,691956.96,697350.836,8,400,21,,ISIC_0032544.JPG
break,html.Screen,4_120_1,2023-09-11T19:16:18.642Z,,0,,,NaN,,,,,,false,,,,697336.4000000954,697336.1000003815,,697335.8000001907,,697350.836,8,400,,,
break_continue,html.Screen,4_120_2,2023-09-11T19:16:18.642Z,,0,,,NaN,,,,,,false,,,,697336.8000001907,697336.6000003815,,697336.6000003815,,697350.836,8,400,,,
sequence,flow.Sequence,4_120,2023-09-11T19:16:18.643Z,,0,,,5379.640000381507,completion,,,,,false,,,,697336.8000001907,697336.6000003815,691940.273,691942.5,691956.96,697350.836,8,400,,,
trial,html.Screen,4_121_0,2023-09-11T19:16:24.693Z,,0,3,,6036.364000286092,response,ISIC_0069891.JPG,5,ISIC_0024266.JPG,ISIC_0024266.JPG,false,0,keypress(z),500,703387.4000000954,703387.2000002861,697334.3,697336.9000000954,697350.836,703396.013,8,400,22,,ISIC_0069891.JPG
break,html.Screen,4_121_1,2023-09-11T19:16:24.694Z,,0,,,NaN,,,,,,false,,,,703387.9000000954,703387.7000002861,,703387.5,,703396.013,8,400,,,
break_continue,html.Screen,4_121_2,2023-09-11T19:16:24.694Z,,0,,,NaN,,,,,,false,,,,703388.2000002861,703388.1000003815,,703388,,703396.013,8,400,,,
sequence,flow.Sequence,4_121,2023-09-11T19:16:24.694Z,,0,,,6037.2640003814595,completion,,,,,false,,,,703388.3000001907,703388.1000003815,697334.3,697336.9000000954,697350.836,703396.013,8,400,,,
trial,html.Screen,4_122_0,2023-09-11T19:16:29.483Z,,0,3,,4780.387000095332,response,ISIC_0026314.JPG,5,ISIC_0062031.JPG,ISIC_0026314.JPG,false,1,keypress(m),500,708176.9000000954,708176.4000000954,703379.335,703388.3000001907,703396.013,708188.678,8,400,23,,ISIC_0062031.JPG
break,html.Screen,4_122_1,2023-09-11T19:16:29.485Z,,0,,,NaN,,,,,,false,,,,708179.1000003815,708178.5,,708177.4000000954,,708188.678,8,400,,,
break_continue,html.Screen,4_122_2,2023-09-11T19:16:29.485Z,,0,,,NaN,,,,,,false,,,,708179.7000002861,708179.6000003815,,708179.4000000954,,708188.678,8,400,,,
sequence,flow.Sequence,4_122,2023-09-11T19:16:29.486Z,,0,,,4783.587000381434,completion,,,,,false,,,,708179.7000002861,708179.6000003815,703379.335,703388.3000001907,703396.013,708188.678,8,400,,,
trial,html.Screen,4_123_0,2023-09-11T19:16:33.279Z,,0,3,,3784.9220003815135,response,ISIC_0064517.JPG,5,ISIC_9538419.JPG,ISIC_9538419.JPG,false,0,keypress(z),500,711973.7000002861,711973.6000003815,708172.008,708179.8000001907,708188.678,711979.281,8,400,24,,ISIC_0064517.JPG
break,html.Screen,4_123_1,2023-09-11T19:16:33.280Z,,0,,,NaN,,,,,,false,,,,711974.3000001907,711974,,711973.8000001907,,711979.281,8,400,,,
break_continue,html.Screen,4_123_2,2023-09-11T19:16:33.280Z,,0,,,NaN,,,,,,false,,,,711974.6000003815,711974.4000000954,,711974.3000001907,,711979.281,8,400,,,
sequence,flow.Sequence,4_123,2023-09-11T19:16:33.280Z,,0,,,3785.722000095411,completion,,,,,false,,,,711974.7000002861,711974.4000000954,708172.008,708179.8000001907,708188.678,711979.281,8,400,,,
trial,html.Screen,4_124_0,2023-09-11T19:16:38.465Z,,0,3,,5180.219000000041,response,ISIC_4613437.JPG,5,ISIC_0026943.JPG,ISIC_0026943.JPG,false,0,keypress(z),500,717159.7000002861,717159.5,711962.677,711974.7000002861,711979.281,717172.715,8,400,25,,ISIC_4613437.JPG
break,html.Screen,4_124_1,2023-09-11T19:16:38.466Z,,0,,,NaN,,,,,,false,,,,717160.2000002861,717160.1000003815,,717159.8000001907,,717172.715,8,400,,,
break_continue,html.Screen,4_124_2,2023-09-11T19:16:38.466Z,,0,,,NaN,,,,,,false,,,,717160.3000001907,717160.2000002861,,717160.2000002861,,717172.715,8,400,,,
sequence,flow.Sequence,4_124,2023-09-11T19:16:38.466Z,,0,,,5180.919000286143,completion,,,,,false,,,,717160.4000000954,717160.2000002861,711962.677,711974.7000002861,711979.281,717172.715,8,400,,,
trial,html.Screen,4_125_0,2023-09-11T19:16:44.396Z,,0,3,,5917.385000381502,response,ISIC_0060089.JPG,5,ISIC_9572761.JPG,ISIC_9572761.JPG,false,0,keypress(z),500,723090.2000002861,723090.1000003815,717156.048,717160.4000000954,717172.715,723100.968,8,400,26,,ISIC_0060089.JPG
break,html.Screen,4_125_1,2023-09-11T19:16:44.396Z,,0,,,NaN,,,,,,false,,,,723090.7000002861,723090.5,,723090.3000001907,,723100.968,8,400,,,
break_continue,html.Screen,4_125_2,2023-09-11T19:16:44.397Z,,0,,,NaN,,,,,,false,,,,723090.8000001907,723090.8000001907,,723090.7000002861,,723100.968,8,400,,,
sequence,flow.Sequence,4_125,2023-09-11T19:16:44.397Z,,0,,,5918.0850001907675,completion,,,,,false,,,,723090.8000001907,723090.8000001907,717156.048,717160.4000000954,717172.715,723100.968,8,400,,,
