sender,sender_type,sender_id,timestamp,meta,,blockNo,condition,duration,ended_on,img_left,img_reveal,img_right,loser,practice,response,response_action,selection_duration,time_commit,time_end,time_render,time_run,time_show,time_switch,total_blocks,total_trials,trialNo,url,winner
informed_consent,html.Screen,0,2023-09-08T16:06:12.719Z,"{""labjs_version"":""20.2.4"",""labjs_build"":{""flavor"":""development"",""commit"":""f5b4a49f956347addd546a832a3327688c2c0fef""},""location"":""https://labjs.felixhenninger.com/api/labjs_preview/index.html"",""userAgent"":""Mozilla/5.0 (Windows NT 10.0; Win64; x64) AppleWebKit/537.36 (KHTML, like Gecko) Chrome/116.0.0.0 Safari/537.36"",""platform"":""Win32"",""language"":""en-AU"",""locale"":""en-US"",""timeZone"":""America/Chicago"",""timezoneOffset"":300,""screen_width"":1680,""screen_height"":1050,""scroll_width"":1296,""scroll_height"":688,""window_innerWidth"":1296,""window_innerHeight"":736,""devicePixelRatio"":1}",,,,93582.68799980926,response,,,,,,consent,click button,,93993.29999995232,93992.69999980927,59.37,454.5,410.012,93975.558,,,,{},
Welcome,html.Screen,1,2023-09-08T16:06:41.489Z,,,,regular,28787.341999856944,response,,,,,,continue,click button,,122763.39999985695,122762.89999985695,93958.752,93993.5,93975.558,122748.074,,,,,
trial,html.Screen,2_0_0,2023-09-08T16:06:48.358Z,,0,0,,6883.225999952323,response,ISIC_0061792.JPG,,ISIC_4679428.JPG,ISIC_4679428.JPG,true,0,keypress(z),500,129632,129631.29999995232,122731.57,122763.69999980927,122748.074,129594.891,1,6,1,,ISIC_0061792.JPG
sequence,flow.Sequence,2_0,2023-09-08T16:06:48.358Z,,0,,,6883.225999952323,completion,,,,,true,,,,129632.69999980927,129631.29999995232,122731.57,122763.59999990463,122748.074,129594.891,1,6,,,
trial,html.Screen,2_1_0,2023-09-08T16:06:51.647Z,,0,0,,3326.5089998569456,response,ISIC_5199497.JPG,,ISIC_0776486.JPG,ISIC_0776486.JPG,true,0,keypress(z),500,132921.59999990463,132921.39999985695,129578.118,129633.09999990463,129594.891,132884.469,1,6,2,,ISIC_5199497.JPG
sequence,flow.Sequence,2_1,2023-09-08T16:06:51.647Z,,0,,,3326.5089998569456,completion,,,,,true,,,,132921.69999980927,132921.39999985695,129578.118,129633,129594.891,132884.469,1,6,,,
trial,html.Screen,2_2_0,2023-09-08T16:06:56.951Z,,0,0,,5340.130999904621,response,ISIC_2556187.JPG,,ISIC_8575776.JPG,ISIC_2556187.JPG,true,1,keypress(m),500,138225.09999990463,138224.59999990463,132867.981,132921.79999995232,132884.469,138194.863,1,6,3,,ISIC_8575776.JPG
sequence,flow.Sequence,2_2,2023-09-08T16:06:56.952Z,,0,,,5340.130999904621,completion,,,,,true,,,,138226,138224.59999990463,132867.981,132921.79999995232,132884.469,138194.863,1,6,,,
trial,html.Screen,2_3_0,2023-09-08T16:07:00.138Z,,0,0,,3216.936999952304,response,ISIC_9238366.JPG,,ISIC_8141769.JPG,ISIC_8141769.JPG,true,0,keypress(z),500,141412,141411.79999995232,138178.262,138226.29999995232,138194.863,141384.366,1,6,4,,ISIC_9238366.JPG
sequence,flow.Sequence,2_3,2023-09-08T16:07:00.138Z,,0,,,3216.936999952304,completion,,,,,true,,,,141412.09999990463,141411.79999995232,138178.262,138226.19999980927,138194.863,141384.366,1,6,,,
trial,html.Screen,2_4_0,2023-09-08T16:07:03.163Z,,0,0,,3052.7339999046235,response,ISIC_8949026.JPG,,ISIC_9959593.JPG,ISIC_9959593.JPG,true,0,keypress(z),500,144437.5,144437.09999990463,141367.784,141412.09999990463,141384.366,144406.939,1,6,5,,ISIC_8949026.JPG
sequence,flow.Sequence,2_4,2023-09-08T16:07:03.164Z,,0,,,3052.7339999046235,completion,,,,,true,,,,144438.09999990463,144437.09999990463,141367.784,141412.09999990463,141384.366,144406.939,1,6,,,
trial,html.Screen,2_5_0,2023-09-08T16:07:07.044Z,,0,0,,3911.3609999523032,response,ISIC_0460240.JPG,,ISIC_0010479.JPG,ISIC_0010479.JPG,true,0,keypress(z),500,148318.59999990463,148318.29999995232,144390.39,144438.29999995232,144406.939,148281.121,1,6,6,,ISIC_0460240.JPG
sequence,flow.Sequence,2_5,2023-09-08T16:07:07.045Z,,0,,,3911.3609999523032,completion,,,,,true,,,,148319,148318.29999995232,144390.39,144438.29999995232,144406.939,148281.121,1,6,,,
loop,flow.Loop,2,2023-09-08T16:07:07.045Z,,,,,25570.225999952323,completion,,,,,true,,,,148319.19999980927,148318.29999995232,122731.57,122763.59999990463,122748.074,148281.121,1,6,,,
exp_instructions,html.Screen,3,2023-09-08T16:07:27.502Z,,,,,20494.97899990462,response,,,,,,continue,keypress(Space),,168776.79999995232,168776.09999990463,148264.589,148319.39999985695,148281.121,168754.322,,,,,
trial,html.Screen,4_0_0,2023-09-08T16:07:31.448Z,,0,1,,3967.5779998569633,response,ISIC_1071355.JPG,4,ISIC_4326917.JPG,ISIC_1071355.JPG,false,1,keypress(m),500,172722.19999980927,172721.89999985695,168720.904,168777,168754.322,172678.729,8,400,1,,ISIC_4326917.JPG
break,html.Screen,4_0_1,2023-09-08T16:07:31.450Z,,0,,,NaN,,,,,,false,,,,172723.89999985695,172723.59999990463,,172722.69999980927,,172678.729,8,400,,,
break_continue,html.Screen,4_0_2,2023-09-08T16:07:31.451Z,,0,,,NaN,,,,,,false,,,,172725,172724.5,,172724.19999980927,,172678.729,8,400,,,
sequence,flow.Sequence,4_0,2023-09-08T16:07:31.451Z,,0,,,3970.1780000000144,completion,,,,,false,,,,172725.79999995232,172724.5,168720.904,168777,168754.322,172678.729,8,400,,,
trial,html.Screen,4_1_0,2023-09-08T16:07:37.796Z,,0,1,,6391.271000000008,response,ISIC_0003767.JPG,5,ISIC_5354827.JPG,ISIC_5354827.JPG,false,0,keypress(z),500,179070.5,179070,172662.063,172726.09999990463,172678.729,179041.263,8,400,2,,ISIC_0003767.JPG
break,html.Screen,4_1_1,2023-09-08T16:07:37.797Z,,0,,,NaN,,,,,,false,,,,179071.59999990463,179071.39999985695,,179070.79999995232,,179041.263,8,400,,,
break_continue,html.Screen,4_1_2,2023-09-08T16:07:37.798Z,,0,,,NaN,,,,,,false,,,,179072.29999995232,179072.09999990463,,179071.89999985695,,179041.263,8,400,,,
sequence,flow.Sequence,4_1,2023-09-08T16:07:37.798Z,,0,,,6393.3709999046405,completion,,,,,false,,,,179072.59999990463,179072.09999990463,172662.063,172726,172678.729,179041.263,8,400,,,
trial,html.Screen,4_2_0,2023-09-08T16:07:44.222Z,,0,1,,6454.936999809259,response,ISIC_3836576.JPG,5,ISIC_2426937.JPG,ISIC_3836576.JPG,false,1,keypress(m),500,185496.29999995232,185496.19999980927,179024.436,179072.89999985695,179041.263,185453.464,8,400,3,,ISIC_2426937.JPG
break,html.Screen,4_2_1,2023-09-08T16:07:44.222Z,,0,,,NaN,,,,,,false,,,,185496.69999980927,185496.5,,185496.39999985695,,185453.464,8,400,,,
break_continue,html.Screen,4_2_2,2023-09-08T16:07:44.222Z,,0,,,NaN,,,,,,false,,,,185496.79999995232,185496.69999980927,,185496.69999980927,,185453.464,8,400,,,
sequence,flow.Sequence,4_2,2023-09-08T16:07:44.223Z,,0,,,6455.436999809259,completion,,,,,false,,,,185496.79999995232,185496.69999980927,179024.436,179072.79999995232,179041.263,185453.464,8,400,,,
trial,html.Screen,4_3_0,2023-09-08T16:07:50.005Z,,0,1,,5825.735999809258,response,ISIC_0033560.JPG,5,ISIC_6685532.JPG,ISIC_0033560.JPG,false,1,keypress(m),500,191279.39999985695,191279.19999980927,185436.896,185496.89999985695,185453.464,191248.143,8,400,4,,ISIC_6685532.JPG
break,html.Screen,4_3_1,2023-09-08T16:07:50.005Z,,0,,,NaN,,,,,,false,,,,191279.59999990463,191279.59999990463,,191279.39999985695,,191248.143,8,400,,,
break_continue,html.Screen,4_3_2,2023-09-08T16:07:50.006Z,,0,,,NaN,,,,,,false,,,,191279.79999995232,191279.79999995232,,191279.79999995232,,191248.143,8,400,,,
sequence,flow.Sequence,4_3,2023-09-08T16:07:50.006Z,,0,,,5826.335999952309,completion,,,,,false,,,,191279.89999985695,191279.79999995232,185436.896,185496.89999985695,185453.464,191248.143,8,400,,,
trial,html.Screen,4_4_0,2023-09-08T16:07:56.055Z,,0,1,,6081.256999856938,response,ISIC_7183212.JPG,5,ISIC_4459125.JPG,ISIC_7183212.JPG,false,1,keypress(m),500,197329.59999990463,197329.39999985695,191231.382,191280,191248.143,197293.327,8,400,5,,ISIC_4459125.JPG
break,html.Screen,4_4_1,2023-09-08T16:07:56.056Z,,0,,,NaN,,,,,,false,,,,197330.29999995232,197330,,197329.79999995232,,197293.327,8,400,,,
break_continue,html.Screen,4_4_2,2023-09-08T16:07:56.056Z,,0,,,NaN,,,,,,false,,,,197330.59999990463,197330.5,,197330.39999985695,,197293.327,8,400,,,
sequence,flow.Sequence,4_4,2023-09-08T16:07:56.056Z,,0,,,6082.356999999989,completion,,,,,false,,,,197330.69999980927,197330.5,191231.382,191280,191248.143,197293.327,8,400,,,
trial,html.Screen,4_5_0,2023-09-08T16:08:02.106Z,,0,1,,6086.572999856959,response,ISIC_8325226.JPG,6,ISIC_0007678.JPG,ISIC_8325226.JPG,false,1,keypress(m),500,203380.09999990463,203379.89999985695,197276.696,197330.89999985695,197293.327,203338.338,8,400,6,,ISIC_0007678.JPG
break,html.Screen,4_5_1,2023-09-08T16:08:02.107Z,,0,,,NaN,,,,,,false,,,,203381.29999995232,203381,,203380.59999990463,,203338.338,8,400,,,
break_continue,html.Screen,4_5_2,2023-09-08T16:08:02.108Z,,0,,,NaN,,,,,,false,,,,203381.89999985695,203381.79999995232,,203381.5,,203338.338,8,400,,,
sequence,flow.Sequence,4_5,2023-09-08T16:08:02.108Z,,0,,,6088.472999952326,completion,,,,,false,,,,203382.09999990463,203381.79999995232,197276.696,197330.79999995232,197293.327,203338.338,8,400,,,
trial,html.Screen,4_6_0,2023-09-08T16:08:06.974Z,,0,1,,4909.56199985696,response,ISIC_3447311.JPG,5,ISIC_0011702.JPG,ISIC_0011702.JPG,false,0,keypress(z),500,208248,208247.89999985695,203321.736,203382.39999985695,203338.338,208214.461,8,400,7,,ISIC_3447311.JPG
break,html.Screen,4_6_1,2023-09-08T16:08:06.974Z,,0,,,NaN,,,,,,false,,,,208248.59999990463,208248.39999985695,,208248.19999980927,,208214.461,8,400,,,
break_continue,html.Screen,4_6_2,2023-09-08T16:08:06.975Z,,0,,,NaN,,,,,,false,,,,208248.89999985695,208248.79999995232,,208248.69999980927,,208214.461,8,400,,,
sequence,flow.Sequence,4_6,2023-09-08T16:08:06.975Z,,0,,,4910.4619999523275,completion,,,,,false,,,,208249,208248.79999995232,203321.736,203382.29999995232,203338.338,208214.461,8,400,,,
trial,html.Screen,4_7_0,2023-09-08T16:08:12.917Z,,0,1,,5976.338999952306,response,ISIC_9257356.JPG,6,ISIC_4672131.JPG,ISIC_4672131.JPG,false,0,keypress(z),500,214191,214190.79999995232,208197.878,208249.09999990463,208214.461,214159.413,8,400,8,,ISIC_9257356.JPG
break,html.Screen,4_7_1,2023-09-08T16:08:12.917Z,,0,,,NaN,,,,,,false,,,,214191.5,214191.39999985695,,214191.09999990463,,214159.413,8,400,,,
break_continue,html.Screen,4_7_2,2023-09-08T16:08:12.918Z,,0,,,NaN,,,,,,false,,,,214191.59999990463,214191.59999990463,,214191.59999990463,,214159.413,8,400,,,
sequence,flow.Sequence,4_7,2023-09-08T16:08:12.918Z,,0,,,5977.138999904622,completion,,,,,false,,,,214191.69999980927,214191.59999990463,208197.878,208249.09999990463,208214.461,214159.413,8,400,,,
trial,html.Screen,4_8_0,2023-09-08T16:08:17.447Z,,0,1,,4562.0869999999995,response,ISIC_7300631.JPG,6,ISIC_5934239.JPG,ISIC_5934239.JPG,false,0,keypress(z),500,218721.5,218721.5,214142.8,214191.79999995232,214159.413,218684.805,8,400,9,,ISIC_7300631.JPG
break,html.Screen,4_8_1,2023-09-08T16:08:17.448Z,,0,,,NaN,,,,,,false,,,,218722,218721.79999995232,,218721.69999980927,,218684.805,8,400,,,
break_continue,html.Screen,4_8_2,2023-09-08T16:08:17.448Z,,0,,,NaN,,,,,,false,,,,218722.09999990463,218722.09999990463,,218722,,218684.805,8,400,,,
sequence,flow.Sequence,4_8,2023-09-08T16:08:17.448Z,,0,,,4562.686999904632,completion,,,,,false,,,,218722.19999980927,218722.09999990463,214142.8,214191.79999995232,214159.413,218684.805,8,400,,,
trial,html.Screen,4_9_0,2023-09-08T16:08:22.769Z,,0,1,,5358.094999856956,response,ISIC_4045781.JPG,6,ISIC_2935987.JPG,ISIC_4045781.JPG,false,1,keypress(m),500,224043,224042.89999985695,218668.074,218722.19999980927,218684.805,224011.837,8,400,10,,ISIC_2935987.JPG
break,html.Screen,4_9_1,2023-09-08T16:08:22.769Z,,0,,,NaN,,,,,,false,,,,224043.5,224043.29999995232,,224043.19999980927,,224011.837,8,400,,,
break_continue,html.Screen,4_9_2,2023-09-08T16:08:22.770Z,,0,,,NaN,,,,,,false,,,,224044.39999985695,224044.29999995232,,224044.09999990463,,224011.837,8,400,,,
sequence,flow.Sequence,4_9,2023-09-08T16:08:22.770Z,,0,,,5359.494999952323,completion,,,,,false,,,,224044.59999990463,224044.29999995232,218668.074,218722.19999980927,218684.805,224011.837,8,400,,,
trial,html.Screen,4_10_0,2023-09-08T16:08:30.074Z,,0,1,,7335.762999904633,response,ISIC_0013610.JPG,5,ISIC_0028018.JPG,ISIC_0028018.JPG,false,0,keypress(z),500,231347.79999995232,231347.59999990463,223995.272,224044.59999990463,224011.837,231326.067,8,400,11,,ISIC_0013610.JPG
break,html.Screen,4_10_1,2023-09-08T16:08:30.074Z,,0,,,NaN,,,,,,false,,,,231348.29999995232,231348.19999980927,,231347.89999985695,,231326.067,8,400,,,
break_continue,html.Screen,4_10_2,2023-09-08T16:08:30.074Z,,0,,,NaN,,,,,,false,,,,231348.5,231348.5,,231348.39999985695,,231326.067,8,400,,,
sequence,flow.Sequence,4_10,2023-09-08T16:08:30.075Z,,0,,,7336.6630000000005,completion,,,,,false,,,,231348.59999990463,231348.5,223995.272,224044.59999990463,224011.837,231326.067,8,400,,,
trial,html.Screen,4_11_0,2023-09-08T16:08:36.316Z,,0,1,,6263.832999856939,response,ISIC_0979974.JPG,5,ISIC_0026596.JPG,ISIC_0026596.JPG,false,0,keypress(z),500,237589.89999985695,237589.89999985695,231309.452,231348.79999995232,231326.067,237554.84,8,400,12,,ISIC_0979974.JPG
break,html.Screen,4_11_1,2023-09-08T16:08:36.316Z,,0,,,NaN,,,,,,false,,,,237590.29999995232,237590.29999995232,,237590.09999990463,,237554.84,8,400,,,
break_continue,html.Screen,4_11_2,2023-09-08T16:08:36.316Z,,0,,,NaN,,,,,,false,,,,237590.59999990463,237590.39999985695,,237590.39999985695,,237554.84,8,400,,,
sequence,flow.Sequence,4_11,2023-09-08T16:08:36.316Z,,0,,,6264.332999856939,completion,,,,,false,,,,237590.59999990463,237590.39999985695,231309.452,231348.79999995232,231326.067,237554.84,8,400,,,
trial,html.Screen,4_12_0,2023-09-08T16:08:40.560Z,,0,1,,4279.1600000000035,response,ISIC_4271108.JPG,5,ISIC_0000801.JPG,ISIC_0000801.JPG,false,0,keypress(z),500,241834.19999980927,241834,237538.292,237590.69999980927,237554.84,241796.402,8,400,13,,ISIC_4271108.JPG
break,html.Screen,4_12_1,2023-09-08T16:08:40.560Z,,0,,,NaN,,,,,,false,,,,241834.5,241834.5,,241834.29999995232,,241796.402,8,400,,,
break_continue,html.Screen,4_12_2,2023-09-08T16:08:40.561Z,,0,,,NaN,,,,,,false,,,,241834.79999995232,241834.69999980927,,241834.59999990463,,241796.402,8,400,,,
sequence,flow.Sequence,4_12,2023-09-08T16:08:40.561Z,,0,,,4279.859999809269,completion,,,,,false,,,,241834.89999985695,241834.69999980927,237538.292,237590.69999980927,237554.84,241796.402,8,400,,,
trial,html.Screen,4_13_0,2023-09-08T16:08:44.370Z,,0,1,,3847.497999856947,response,ISIC_0403458.JPG,6,ISIC_0063157.JPG,ISIC_0063157.JPG,false,0,keypress(z),500,245644.09999990463,245643.89999985695,241779.904,241835,241796.402,245603.892,8,400,14,,ISIC_0403458.JPG
break,html.Screen,4_13_1,2023-09-08T16:08:44.370Z,,0,,,NaN,,,,,,false,,,,245644.59999990463,245644.39999985695,,245644.29999995232,,245603.892,8,400,,,
break_continue,html.Screen,4_13_2,2023-09-08T16:08:44.371Z,,0,,,NaN,,,,,,false,,,,245644.89999985695,245644.69999980927,,245644.69999980927,,245603.892,8,400,,,
sequence,flow.Sequence,4_13,2023-09-08T16:08:44.371Z,,0,,,3848.2979998092633,completion,,,,,false,,,,245644.89999985695,245644.69999980927,241779.904,241834.89999985695,241796.402,245603.892,8,400,,,
trial,html.Screen,4_14_0,2023-09-08T16:08:51.467Z,,0,1,,7136.807999809273,response,ISIC_8451869.JPG,5,ISIC_4024062.JPG,ISIC_4024062.JPG,false,0,keypress(z),500,252740.79999995232,252740.69999980927,245587.286,245645,245603.892,252700.992,8,400,15,,ISIC_8451869.JPG
break,html.Screen,4_14_1,2023-09-08T16:08:51.467Z,,0,,,NaN,,,,,,false,,,,252741.19999980927,252741.09999990463,,252740.79999995232,,252700.992,8,400,,,
break_continue,html.Screen,4_14_2,2023-09-08T16:08:51.467Z,,0,,,NaN,,,,,,false,,,,252741.39999985695,252741.29999995232,,252741.19999980927,,252700.992,8,400,,,
sequence,flow.Sequence,4_14,2023-09-08T16:08:51.467Z,,0,,,7137.407999952324,completion,,,,,false,,,,252741.5,252741.29999995232,245587.286,245645,245603.892,252700.992,8,400,,,
trial,html.Screen,4_15_0,2023-09-08T16:08:55.916Z,,0,1,,4489.107999904634,response,ISIC_0025093.JPG,5,ISIC_0028716.JPG,ISIC_0028716.JPG,false,0,keypress(z),500,257190.29999995232,257190.09999990463,252684.317,252741.5,252700.992,257159.692,8,400,16,,ISIC_0025093.JPG
break,html.Screen,4_15_1,2023-09-08T16:08:55.916Z,,0,,,NaN,,,,,,false,,,,257190.59999990463,257190.59999990463,,257190.39999985695,,257159.692,8,400,,,
break_continue,html.Screen,4_15_2,2023-09-08T16:08:55.917Z,,0,,,NaN,,,,,,false,,,,257190.69999980927,257190.69999980927,,257190.69999980927,,257159.692,8,400,,,
sequence,flow.Sequence,4_15,2023-09-08T16:08:55.917Z,,0,,,4489.707999809267,completion,,,,,false,,,,257190.89999985695,257190.69999980927,252684.317,252741.5,252700.992,257159.692,8,400,,,
trial,html.Screen,4_16_0,2023-09-08T16:09:00.943Z,,0,1,,5056.907999904623,response,ISIC_0055087.JPG,5,ISIC_2252958.JPG,ISIC_0055087.JPG,false,1,keypress(m),500,262216.69999980927,262216.59999990463,257142.955,257191,257159.692,262186.12,8,400,17,,ISIC_2252958.JPG
break,html.Screen,4_16_1,2023-09-08T16:09:00.943Z,,0,,,NaN,,,,,,false,,,,262217.09999990463,262217,,262216.7999999523,,262186.12,8,400,,,
break_continue,html.Screen,4_16_2,2023-09-08T16:09:00.943Z,,0,,,NaN,,,,,,false,,,,262217.2999999523,262217.2999999523,,262217.19999980927,,262186.12,8,400,,,
sequence,flow.Sequence,4_16,2023-09-08T16:09:00.943Z,,0,,,5057.607999952306,completion,,,,,false,,,,262217.2999999523,262217.2999999523,257142.955,257191,257159.692,262186.12,8,400,,,
trial,html.Screen,4_17_0,2023-09-08T16:09:06.674Z,,0,1,,5761.380000000005,response,ISIC_5833422.JPG,5,ISIC_2212473.JPG,ISIC_2212473.JPG,false,0,keypress(z),500,267947.7999999523,267947.5,262169.548,262217.5,262186.12,267914.063,8,400,18,,ISIC_5833422.JPG
break,html.Screen,4_17_1,2023-09-08T16:09:06.675Z,,0,,,NaN,,,,,,false,,,,267948.89999985695,267948.69999980927,,267948.2999999523,,267914.063,8,400,,,
break_continue,html.Screen,4_17_2,2023-09-08T16:09:06.676Z,,0,,,NaN,,,,,,false,,,,267949.69999980927,267949.5,,267949.19999980927,,267914.063,8,400,,,
sequence,flow.Sequence,4_17,2023-09-08T16:09:06.676Z,,0,,,5763.380000000005,completion,,,,,false,,,,267950.09999990463,267949.5,262169.548,262217.39999985695,262186.12,267914.063,8,400,,,
trial,html.Screen,4_18_0,2023-09-08T16:09:14.905Z,,0,1,,8263.936999999976,response,ISIC_0011633.JPG,6,ISIC_6024335.JPG,ISIC_0011633.JPG,false,1,keypress(m),500,276178.19999980927,276178,267897.318,267950.19999980927,267914.063,276146.764,8,400,19,,ISIC_6024335.JPG
break,html.Screen,4_18_1,2023-09-08T16:09:14.906Z,,0,,,NaN,,,,,,false,,,,276178.7999999523,276178.59999990463,,276178.39999985695,,276146.764,8,400,,,
break_continue,html.Screen,4_18_2,2023-09-08T16:09:14.906Z,,0,,,NaN,,,,,,false,,,,276179.09999990463,276179.09999990463,,276179,,276146.764,8,400,,,
sequence,flow.Sequence,4_18,2023-09-08T16:09:14.906Z,,0,,,8265.036999904609,completion,,,,,false,,,,276179.19999980927,276179.09999990463,267897.318,267950.09999990463,267914.063,276146.764,8,400,,,
trial,html.Screen,4_19_0,2023-09-08T16:09:20.188Z,,0,1,,5314.535999952292,response,ISIC_0033560.JPG,4,ISIC_0003281.JPG,ISIC_0033560.JPG,false,1,keypress(m),500,281461.39999985695,281461.2999999523,276130.104,276179.2999999523,276146.764,281423.653,8,400,20,,ISIC_0003281.JPG
break,html.Screen,4_19_1,2023-09-08T16:09:20.189Z,,0,,,NaN,,,,,,false,,,,281461.69999980927,281461.59999990463,,281461.5,,281423.653,8,400,,,
break_continue,html.Screen,4_19_2,2023-09-08T16:09:20.189Z,,0,,,NaN,,,,,,false,,,,281462,281461.89999985695,,281461.7999999523,,281423.653,8,400,,,
sequence,flow.Sequence,4_19,2023-09-08T16:09:20.189Z,,0,,,5315.135999856924,completion,,,,,false,,,,281462,281461.89999985695,276130.104,276179.2999999523,276146.764,281423.653,8,400,,,
trial,html.Screen,4_20_0,2023-09-08T16:09:26.370Z,,0,1,,6218.746999856958,response,ISIC_7491389.JPG,5,ISIC_5552066.JPG,ISIC_5552066.JPG,false,0,keypress(z),500,287642.59999990463,287642.39999985695,281407.007,281462.09999990463,281423.653,287618.931,8,400,21,,ISIC_7491389.JPG
break,html.Screen,4_20_1,2023-09-08T16:09:26.370Z,,0,,,NaN,,,,,,false,,,,287643,287642.7999999523,,287642.69999980927,,287618.931,8,400,,,
break_continue,html.Screen,4_20_2,2023-09-08T16:09:26.370Z,,0,,,NaN,,,,,,false,,,,287643.09999990463,287643.09999990463,,287643,,287618.931,8,400,,,
sequence,flow.Sequence,4_20,2023-09-08T16:09:26.370Z,,0,,,6219.446999904641,completion,,,,,false,,,,287643.19999980927,287643.09999990463,281407.007,281462.09999990463,281423.653,287618.931,8,400,,,
trial,html.Screen,4_21_0,2023-09-08T16:09:30.680Z,,0,1,,4333.968999856967,response,ISIC_9407690.JPG,5,ISIC_0000459.JPG,ISIC_0000459.JPG,false,0,keypress(z),500,291953.19999980927,291952.89999985695,287602.398,287643.19999980927,287618.931,291910.647,8,400,22,,ISIC_9407690.JPG
break,html.Screen,4_21_1,2023-09-08T16:09:30.681Z,,0,,,NaN,,,,,,false,,,,291954.09999990463,291953.89999985695,,291953.5,,291910.647,8,400,,,
break_continue,html.Screen,4_21_2,2023-09-08T16:09:30.682Z,,0,,,NaN,,,,,,false,,,,291954.59999990463,291954.5,,291954.2999999523,,291910.647,8,400,,,
sequence,flow.Sequence,4_21,2023-09-08T16:09:30.682Z,,0,,,4335.569000000018,completion,,,,,false,,,,291954.7999999523,291954.5,287602.398,287643.19999980927,287618.931,291910.647,8,400,,,
trial,html.Screen,4_22_0,2023-09-08T16:09:36.204Z,,0,1,,5566.752999856952,response,ISIC_0054151.JPG,5,ISIC_1757941.JPG,ISIC_0054151.JPG,false,1,keypress(m),500,297477.39999985695,297477.39999985695,291893.953,291955,291910.647,297454.826,8,400,23,,ISIC_1757941.JPG
break,html.Screen,4_22_1,2023-09-08T16:09:36.205Z,,0,,,NaN,,,,,,false,,,,297477.89999985695,297477.69999980927,,297477.59999990463,,297454.826,8,400,,,
break_continue,html.Screen,4_22_2,2023-09-08T16:09:36.205Z,,0,,,NaN,,,,,,false,,,,297478,297478,,297477.89999985695,,297454.826,8,400,,,
sequence,flow.Sequence,4_22,2023-09-08T16:09:36.205Z,,0,,,5567.353000000003,completion,,,,,false,,,,297478.09999990463,297478,291893.953,291954.89999985695,291910.647,297454.826,8,400,,,
trial,html.Screen,4_23_0,2023-09-08T16:09:40.399Z,,0,1,,4216.773999904632,response,ISIC_1977315.JPG,6,ISIC_0005681.JPG,ISIC_1977315.JPG,false,1,keypress(m),500,301671.7999999523,301671.59999990463,297438.061,297478.09999990463,297454.826,301629.631,8,400,24,,ISIC_0005681.JPG
break,html.Screen,4_23_1,2023-09-08T16:09:40.399Z,,0,,,NaN,,,,,,false,,,,301672.09999990463,301672,,301671.89999985695,,301629.631,8,400,,,
break_continue,html.Screen,4_23_2,2023-09-08T16:09:40.399Z,,0,,,NaN,,,,,,false,,,,301672.39999985695,301672.2999999523,,301672.09999990463,,301629.631,8,400,,,
sequence,flow.Sequence,4_23,2023-09-08T16:09:40.399Z,,0,,,4217.473999952315,completion,,,,,false,,,,301672.5,301672.2999999523,297438.061,297478.09999990463,297454.826,301629.631,8,400,,,
trial,html.Screen,4_24_0,2023-09-08T16:09:45.320Z,,0,1,,4962.968999904639,response,ISIC_5312710.JPG,4,ISIC_0031408.JPG,ISIC_0031408.JPG,false,0,keypress(z),500,306592.7999999523,306592.59999990463,301612.949,301672.5,301629.631,306555.781,8,400,25,,ISIC_5312710.JPG
break,html.Screen,4_24_1,2023-09-08T16:09:45.320Z,,0,,,NaN,,,,,,false,,,,306593.09999990463,306593,,306592.7999999523,,306555.781,8,400,,,
break_continue,html.Screen,4_24_2,2023-09-08T16:09:45.320Z,,0,,,NaN,,,,,,false,,,,306593.39999985695,306593.19999980927,,306593.19999980927,,306555.781,8,400,,,
sequence,flow.Sequence,4_24,2023-09-08T16:09:45.320Z,,0,,,4963.568999809271,completion,,,,,false,,,,306593.39999985695,306593.19999980927,301612.949,301672.5,301629.631,306555.781,8,400,,,
trial,html.Screen,4_25_0,2023-09-08T16:09:52.667Z,,0,1,,7383.918999809248,response,ISIC_0055701.JPG,5,ISIC_0011484.JPG,ISIC_0055701.JPG,false,1,keypress(m),500,313939.69999980927,313939.69999980927,306539.092,306593.39999985695,306555.781,313903.426,8,400,26,,ISIC_0011484.JPG
break,html.Screen,4_25_1,2023-09-08T16:09:52.667Z,,0,,,NaN,,,,,,false,,,,313940,313940,,313939.7999999523,,313903.426,8,400,,,
break_continue,html.Screen,4_25_2,2023-09-08T16:09:52.667Z,,0,,,NaN,,,,,,false,,,,313940.19999980927,313940.19999980927,,313940.09999990463,,313903.426,8,400,,,
sequence,flow.Sequence,4_25,2023-09-08T16:09:52.667Z,,0,,,7384.418999809248,completion,,,,,false,,,,313940.2999999523,313940.19999980927,306539.092,306593.39999985695,306555.781,313903.426,8,400,,,
trial,html.Screen,4_26_0,2023-09-08T16:09:58.941Z,,0,1,,6310.173999904655,response,ISIC_1834920.JPG,5,ISIC_0069891.JPG,ISIC_0069891.JPG,false,0,keypress(z),500,320214,320213.59999990463,313886.846,313940.39999985695,313903.426,320182.404,8,400,27,,ISIC_1834920.JPG
break,html.Screen,4_26_1,2023-09-08T16:09:58.944Z,,0,,,NaN,,,,,,false,,,,320216.69999980927,320214.89999985695,,320214.39999985695,,320182.404,8,400,,,
break_continue,html.Screen,4_26_2,2023-09-08T16:09:58.945Z,,0,,,NaN,,,,,,false,,,,320217.59999990463,320217.2999999523,,320217,,320182.404,8,400,,,
sequence,flow.Sequence,4_26,2023-09-08T16:09:58.945Z,,0,,,6313.873999952339,completion,,,,,false,,,,320217.89999985695,320217.2999999523,313886.846,313940.39999985695,313903.426,320182.404,8,400,,,
trial,html.Screen,4_27_0,2023-09-08T16:10:05.446Z,,0,1,,6536.695999904652,response,ISIC_0148751.JPG,5,ISIC_6937905.JPG,ISIC_6937905.JPG,false,0,keypress(z),500,326719.39999985695,326719.09999990463,320165.608,320218.19999980927,320182.404,326678.392,8,400,28,,ISIC_0148751.JPG
break,html.Screen,4_27_1,2023-09-08T16:10:05.447Z,,0,,,NaN,,,,,,false,,,,326720.39999985695,326720.09999990463,,326719.69999980927,,326678.392,8,400,,,
break_continue,html.Screen,4_27_2,2023-09-08T16:10:05.448Z,,0,,,NaN,,,,,,false,,,,326720.89999985695,326720.59999990463,,326720.5,,326678.392,8,400,,,
sequence,flow.Sequence,4_27,2023-09-08T16:10:05.448Z,,0,,,6538.195999904652,completion,,,,,false,,,,326721.09999990463,326720.59999990463,320165.608,320218.09999990463,320182.404,326678.392,8,400,,,
trial,html.Screen,4_28_0,2023-09-08T16:10:10.074Z,,0,1,,4668.407999952324,response,ISIC_0001100.JPG,5,ISIC_6444989.JPG,ISIC_0001100.JPG,false,1,keypress(m),500,331347,331346.7999999523,326661.654,326721.2999999523,326678.392,331303.948,8,400,29,,ISIC_6444989.JPG
break,html.Screen,4_28_1,2023-09-08T16:10:10.074Z,,0,,,NaN,,,,,,false,,,,331347.39999985695,331347.19999980927,,331347.09999990463,,331303.948,8,400,,,
break_continue,html.Screen,4_28_2,2023-09-08T16:10:10.075Z,,0,,,NaN,,,,,,false,,,,331347.69999980927,331347.5,,331347.39999985695,,331303.948,8,400,,,
sequence,flow.Sequence,4_28,2023-09-08T16:10:10.075Z,,0,,,4669.108000000007,completion,,,,,false,,,,331347.69999980927,331347.5,326661.654,326721.2999999523,326678.392,331303.948,8,400,,,
trial,html.Screen,4_29_0,2023-09-08T16:10:14.797Z,,0,1,,4765.552000000025,response,ISIC_0058730.JPG,6,ISIC_0031295.JPG,ISIC_0031295.JPG,false,0,keypress(z),500,336069.69999980927,336069.5,331287.302,331347.7999999523,331303.948,336029.809,8,400,30,,ISIC_0058730.JPG
break,html.Screen,4_29_1,2023-09-08T16:10:14.797Z,,0,,,NaN,,,,,,false,,,,336070,336070,,336069.69999980927,,336029.809,8,400,,,
break_continue,html.Screen,4_29_2,2023-09-08T16:10:14.797Z,,0,,,NaN,,,,,,false,,,,336070.19999980927,336070.19999980927,,336070.09999990463,,336029.809,8,400,,,
sequence,flow.Sequence,4_29,2023-09-08T16:10:14.798Z,,0,,,4766.25199980929,completion,,,,,false,,,,336070.39999985695,336070.19999980927,331287.302,331347.7999999523,331303.948,336029.809,8,400,,,
trial,html.Screen,4_30_0,2023-09-08T16:10:19.969Z,,0,1,,5211.890999809257,response,ISIC_3608788.JPG,5,ISIC_0026039.JPG,ISIC_0026039.JPG,false,0,keypress(z),500,341241.89999985695,341241.69999980927,336013.117,336070.39999985695,336029.809,341223.359,8,400,31,,ISIC_3608788.JPG
break,html.Screen,4_30_1,2023-09-08T16:10:19.970Z,,0,,,NaN,,,,,,false,,,,341242.5,341242.39999985695,,341242.09999990463,,341223.359,8,400,,,
break_continue,html.Screen,4_30_2,2023-09-08T16:10:19.970Z,,0,,,NaN,,,,,,false,,,,341242.89999985695,341242.7999999523,,341242.69999980927,,341223.359,8,400,,,
sequence,flow.Sequence,4_30,2023-09-08T16:10:19.970Z,,0,,,5212.990999952308,completion,,,,,false,,,,341243.09999990463,341242.7999999523,336013.117,336070.39999985695,336029.809,341223.359,8,400,,,
trial,html.Screen,4_31_0,2023-09-08T16:10:24.040Z,,0,1,,4088.9409999523195,response,ISIC_3556980.JPG,5,ISIC_0054459.JPG,ISIC_0054459.JPG,false,0,keypress(z),500,345312.39999985695,345312.2999999523,341206.653,341243.19999980927,341223.359,345281.204,8,400,32,,ISIC_3556980.JPG
break,html.Screen,4_31_1,2023-09-08T16:10:24.040Z,,0,,,NaN,,,,,,false,,,,345312.7999999523,345312.69999980927,,345312.5,,345281.204,8,400,,,
break_continue,html.Screen,4_31_2,2023-09-08T16:10:24.040Z,,0,,,NaN,,,,,,false,,,,345313.09999990463,345313,,345312.89999985695,,345281.204,8,400,,,
sequence,flow.Sequence,4_31,2023-09-08T16:10:24.040Z,,0,,,4089.6410000000033,completion,,,,,false,,,,345313.19999980927,345313,341206.653,341243.19999980927,341223.359,345281.204,8,400,,,
trial,html.Screen,4_32_0,2023-09-08T16:10:27.807Z,,0,1,,3798.795999999973,response,ISIC_0033959.JPG,5,ISIC_0061559.JPG,ISIC_0061559.JPG,false,0,keypress(z),500,349080.19999980927,349080,345264.471,345313.19999980927,345281.204,349038.529,8,400,33,,ISIC_0033959.JPG
break,html.Screen,4_32_1,2023-09-08T16:10:27.808Z,,0,,,NaN,,,,,,false,,,,349080.59999990463,349080.5,,349080.2999999523,,349038.529,8,400,,,
break_continue,html.Screen,4_32_2,2023-09-08T16:10:27.808Z,,0,,,NaN,,,,,,false,,,,349081,349080.7999999523,,349080.69999980927,,349038.529,8,400,,,
sequence,flow.Sequence,4_32,2023-09-08T16:10:27.808Z,,0,,,3799.5959999522893,completion,,,,,false,,,,349081,349080.7999999523,345264.471,345313.19999980927,345281.204,349038.529,8,400,,,
trial,html.Screen,4_33_0,2023-09-08T16:10:32.930Z,,0,1,,5164.370999856968,response,ISIC_3327201.JPG,5,ISIC_1080647.JPG,ISIC_3327201.JPG,false,1,keypress(m),500,354202.89999985695,354202.89999985695,349021.87,349081.09999990463,349038.529,354165.088,8,400,34,,ISIC_1080647.JPG
break,html.Screen,4_33_1,2023-09-08T16:10:32.931Z,,0,,,NaN,,,,,,false,,,,354203.19999980927,354203.19999980927,,354203.09999990463,,354165.088,8,400,,,
break_continue,html.Screen,4_33_2,2023-09-08T16:10:32.931Z,,0,,,NaN,,,,,,false,,,,354203.39999985695,354203.39999985695,,354203.2999999523,,354165.088,8,400,,,
sequence,flow.Sequence,4_33,2023-09-08T16:10:32.931Z,,0,,,5164.870999856968,completion,,,,,false,,,,354203.5,354203.39999985695,349021.87,349081.09999990463,349038.529,354165.088,8,400,,,
trial,html.Screen,4_34_0,2023-09-08T16:10:37.237Z,,0,1,,4344.011999904644,response,ISIC_8798059.JPG,5,ISIC_9087221.JPG,ISIC_8798059.JPG,false,1,keypress(m),500,358509.5,358509.09999990463,354148.396,354203.5,354165.088,358490.267,8,400,35,,ISIC_9087221.JPG
break,html.Screen,4_34_1,2023-09-08T16:10:37.238Z,,0,,,NaN,,,,,,false,,,,358510.69999980927,358510.39999985695,,358509.89999985695,,358490.267,8,400,,,
break_continue,html.Screen,4_34_2,2023-09-08T16:10:37.239Z,,0,,,NaN,,,,,,false,,,,358511.7999999523,358511.39999985695,,358511.19999980927,,358490.267,8,400,,,
sequence,flow.Sequence,4_34,2023-09-08T16:10:37.239Z,,0,,,4346.31199985696,completion,,,,,false,,,,358512.19999980927,358511.39999985695,354148.396,354203.5,354165.088,358490.267,8,400,,,
trial,html.Screen,4_35_0,2023-09-08T16:10:42.906Z,,0,1,,5688.532999952324,response,ISIC_7271745.JPG,6,ISIC_0033725.JPG,ISIC_0033725.JPG,false,0,keypress(z),500,364178.89999985695,364178.7999999523,358473.585,358512.5,358490.267,364151.274,8,400,36,,ISIC_7271745.JPG
break,html.Screen,4_35_1,2023-09-08T16:10:42.907Z,,0,,,NaN,,,,,,false,,,,364179.2999999523,364179.19999980927,,364179.09999990463,,364151.274,8,400,,,
break_continue,html.Screen,4_35_2,2023-09-08T16:10:42.907Z,,0,,,NaN,,,,,,false,,,,364179.59999990463,364179.5,,364179.39999985695,,364151.274,8,400,,,
sequence,flow.Sequence,4_35,2023-09-08T16:10:42.907Z,,0,,,5689.233000000007,completion,,,,,false,,,,364179.69999980927,364179.5,358473.585,358512.39999985695,358490.267,364151.274,8,400,,,
trial,html.Screen,4_36_0,2023-09-08T16:10:46.637Z,,0,1,,3758.325999904657,response,ISIC_0029225.JPG,5,ISIC_0011289.JPG,ISIC_0029225.JPG,false,1,keypress(m),500,367909.89999985695,367909.59999990463,364134.554,364179.7999999523,364151.274,367891.89,8,400,37,,ISIC_0011289.JPG
break,html.Screen,4_36_1,2023-09-08T16:10:46.638Z,,0,,,NaN,,,,,,false,,,,367910.7999999523,367910.59999990463,,367910.19999980927,,367891.89,8,400,,,
break_continue,html.Screen,4_36_2,2023-09-08T16:10:46.638Z,,0,,,NaN,,,,,,false,,,,367911.19999980927,367911,,367910.89999985695,,367891.89,8,400,,,
sequence,flow.Sequence,4_36,2023-09-08T16:10:46.639Z,,0,,,3759.726000000024,completion,,,,,false,,,,367911.5,367911,364134.554,364179.69999980927,364151.274,367891.89,8,400,,,
trial,html.Screen,4_37_0,2023-09-08T16:10:54.775Z,,0,1,,8155.109999999986,response,ISIC_0058580.JPG,5,ISIC_0033027.JPG,ISIC_0058580.JPG,false,1,keypress(m),500,376047.5,376047,367875.301,367911.69999980927,367891.89,376007.745,8,400,38,,ISIC_0033027.JPG
break,html.Screen,4_37_1,2023-09-08T16:10:54.776Z,,0,,,NaN,,,,,,false,,,,376049.19999980927,376048.5,,376048,,376007.745,8,400,,,
break_continue,html.Screen,4_37_2,2023-09-08T16:10:54.778Z,,0,,,NaN,,,,,,false,,,,376050.19999980927,376049.89999985695,,376049.59999990463,,376007.745,8,400,,,
sequence,flow.Sequence,4_37,2023-09-08T16:10:54.778Z,,0,,,8158.009999856935,completion,,,,,false,,,,376050.89999985695,376049.89999985695,367875.301,367911.59999990463,367891.89,376007.745,8,400,,,
trial,html.Screen,4_38_0,2023-09-08T16:11:01.535Z,,0,1,,6799.354999904637,response,ISIC_0000077.JPG,6,ISIC_0071338.JPG,ISIC_0000077.JPG,false,1,keypress(m),500,382807.5,382807.09999990463,375991.079,376051.2999999523,376007.745,382770.843,8,400,39,,ISIC_0071338.JPG
break,html.Screen,4_38_1,2023-09-08T16:11:01.536Z,,0,,,NaN,,,,,,false,,,,382808.7999999523,382808.39999985695,,382808,,382770.843,8,400,,,
break_continue,html.Screen,4_38_2,2023-09-08T16:11:01.537Z,,0,,,NaN,,,,,,false,,,,382809.7999999523,382809.39999985695,,382809.09999990463,,382770.843,8,400,,,
sequence,flow.Sequence,4_38,2023-09-08T16:11:01.537Z,,0,,,6801.6549998569535,completion,,,,,false,,,,382810.09999990463,382809.39999985695,375991.079,376051.19999980927,376007.745,382770.843,8,400,,,
trial,html.Screen,4_39_0,2023-09-08T16:11:06.980Z,,0,1,,5482.056999856955,response,ISIC_0056900.JPG,5,ISIC_7421214.JPG,ISIC_7421214.JPG,false,0,keypress(z),500,388253,388252.89999985695,382754.228,382810.2999999523,382770.843,388214.708,8,400,40,,ISIC_0056900.JPG
break,html.Screen,4_39_1,2023-09-08T16:11:06.981Z,,0,,,NaN,,,,,,false,,,,388253.2999999523,388253.2999999523,,388253.09999990463,,388214.708,8,400,,,
break_continue,html.Screen,4_39_2,2023-09-08T16:11:06.981Z,,0,,,NaN,,,,,,false,,,,388253.59999990463,388253.5,,388253.39999985695,,388214.708,8,400,,,
sequence,flow.Sequence,4_39,2023-09-08T16:11:06.981Z,,0,,,5482.6570000000065,completion,,,,,false,,,,388253.59999990463,388253.5,382754.228,382810.2999999523,382770.843,388214.708,8,400,,,
trial,html.Screen,4_40_0,2023-09-08T16:11:11.799Z,,0,1,,4856.891999904648,response,ISIC_0011471.JPG,5,ISIC_0501108.JPG,ISIC_0011471.JPG,false,1,keypress(m),500,393071.7999999523,393071.59999990463,388198.007,388253.69999980927,388214.708,393040.937,8,400,41,,ISIC_0501108.JPG
break,html.Screen,4_40_1,2023-09-08T16:11:11.800Z,,0,,,NaN,,,,,,false,,,,393072.2999999523,393072.09999990463,,393072,,393040.937,8,400,,,
break_continue,html.Screen,4_40_2,2023-09-08T16:11:11.800Z,,0,,,NaN,,,,,,false,,,,393072.69999980927,393072.59999990463,,393072.5,,393040.937,8,400,,,
sequence,flow.Sequence,4_40,2023-09-08T16:11:11.800Z,,0,,,4857.891999904648,completion,,,,,false,,,,393072.7999999523,393072.59999990463,388198.007,388253.69999980927,388214.708,393040.937,8,400,,,
trial,html.Screen,4_41_0,2023-09-08T16:11:16.093Z,,0,1,,4324.462999856973,response,ISIC_0028582.JPG,5,ISIC_6681802.JPG,ISIC_6681802.JPG,false,0,keypress(z),500,397365.5,397365.39999985695,393024.049,393072.7999999523,393040.937,397332.448,8,400,42,,ISIC_0028582.JPG
break,html.Screen,4_41_1,2023-09-08T16:11:16.094Z,,0,,,NaN,,,,,,false,,,,397365.7999999523,397365.69999980927,,397365.59999990463,,397332.448,8,400,,,
break_continue,html.Screen,4_41_2,2023-09-08T16:11:16.094Z,,0,,,NaN,,,,,,false,,,,397366.09999990463,397366,,397365.89999985695,,397332.448,8,400,,,
sequence,flow.Sequence,4_41,2023-09-08T16:11:16.094Z,,0,,,4325.063000000024,completion,,,,,false,,,,397366.19999980927,397366,393024.049,393072.7999999523,393040.937,397332.448,8,400,,,
trial,html.Screen,4_42_0,2023-09-08T16:11:21.935Z,,0,1,,5875.052000000025,response,ISIC_0010962.JPG,6,ISIC_3702669.JPG,ISIC_0010962.JPG,false,1,keypress(m),500,403207.59999990463,403207.5,397315.896,397366.2999999523,397332.448,403177.179,8,400,43,,ISIC_3702669.JPG
break,html.Screen,4_42_1,2023-09-08T16:11:21.936Z,,0,,,NaN,,,,,,false,,,,403208,403207.89999985695,,403207.7999999523,,403177.179,8,400,,,
break_continue,html.Screen,4_42_2,2023-09-08T16:11:21.936Z,,0,,,NaN,,,,,,false,,,,403208.09999990463,403208.09999990463,,403208.09999990463,,403177.179,8,400,,,
sequence,flow.Sequence,4_42,2023-09-08T16:11:21.936Z,,0,,,5875.651999904658,completion,,,,,false,,,,403208.19999980927,403208.09999990463,397315.896,397366.2999999523,397332.448,403177.179,8,400,,,
trial,html.Screen,4_43_0,2023-09-08T16:11:28.193Z,,0,1,,6288.420999904629,response,ISIC_0069908.JPG,5,ISIC_2151727.JPG,ISIC_0069908.JPG,false,1,keypress(m),500,409465.69999980927,409465.59999990463,403160.524,403208.2999999523,403177.179,409422.648,8,400,44,,ISIC_2151727.JPG
break,html.Screen,4_43_1,2023-09-08T16:11:28.194Z,,0,,,NaN,,,,,,false,,,,409466.09999990463,409465.89999985695,,409465.7999999523,,409422.648,8,400,,,
break_continue,html.Screen,4_43_2,2023-09-08T16:11:28.194Z,,0,,,NaN,,,,,,false,,,,409466.2999999523,409466.19999980927,,409466.19999980927,,409422.648,8,400,,,
sequence,flow.Sequence,4_43,2023-09-08T16:11:28.194Z,,0,,,6289.020999809261,completion,,,,,false,,,,409466.39999985695,409466.19999980927,403160.524,403208.2999999523,403177.179,409422.648,8,400,,,
trial,html.Screen,4_44_0,2023-09-08T16:11:33.355Z,,0,1,,5203.951999904646,response,ISIC_2647198.JPG,4,ISIC_0030300.JPG,ISIC_0030300.JPG,false,0,keypress(z),500,414627,414626.59999990463,409406.046,409466.5,409422.648,414582.728,8,400,45,,ISIC_2647198.JPG
break,html.Screen,4_44_1,2023-09-08T16:11:33.356Z,,0,,,NaN,,,,,,false,,,,414628.19999980927,414627.89999985695,,414627.39999985695,,414582.728,8,400,,,
break_continue,html.Screen,4_44_2,2023-09-08T16:11:33.357Z,,0,,,NaN,,,,,,false,,,,414629.2999999523,414628.89999985695,,414628.59999990463,,414582.728,8,400,,,
sequence,flow.Sequence,4_44,2023-09-08T16:11:33.357Z,,0,,,5206.251999856962,completion,,,,,false,,,,414629.59999990463,414628.89999985695,409406.046,409466.5,409422.648,414582.728,8,400,,,
trial,html.Screen,4_45_0,2023-09-08T16:11:41.122Z,,0,1,,7811.471999809262,response,ISIC_2619533.JPG,5,ISIC_5504286.JPG,ISIC_5504286.JPG,false,0,keypress(z),500,422394.7999999523,422394.19999980927,414566.188,414629.89999985695,414582.728,422364.569,8,400,46,,ISIC_2619533.JPG
break,html.Screen,4_45_1,2023-09-08T16:11:41.124Z,,0,,,NaN,,,,,,false,,,,422396,422395.59999990463,,422395.19999980927,,422364.569,8,400,,,
break_continue,html.Screen,4_45_2,2023-09-08T16:11:41.124Z,,0,,,NaN,,,,,,false,,,,422396.69999980927,422396.5,,422396.2999999523,,422364.569,8,400,,,
sequence,flow.Sequence,4_45,2023-09-08T16:11:41.125Z,,0,,,7813.771999999997,completion,,,,,false,,,,422397.09999990463,422396.5,414566.188,414629.7999999523,414582.728,422364.569,8,400,,,
trial,html.Screen,4_46_0,2023-09-08T16:11:47.310Z,,0,1,,6218.030999904615,response,ISIC_0032598.JPG,6,ISIC_0053734.JPG,ISIC_0053734.JPG,false,0,keypress(z),500,428582.69999980927,428582.59999990463,422347.891,422397.39999985695,422364.569,428543.239,8,400,47,,ISIC_0032598.JPG
break,html.Screen,4_46_1,2023-09-08T16:11:47.311Z,,0,,,NaN,,,,,,false,,,,428583.09999990463,428583,,428582.7999999523,,428543.239,8,400,,,
break_continue,html.Screen,4_46_2,2023-09-08T16:11:47.311Z,,0,,,NaN,,,,,,false,,,,428583.5,428583.39999985695,,428583.2999999523,,428543.239,8,400,,,
sequence,flow.Sequence,4_46,2023-09-08T16:11:47.311Z,,0,,,6218.830999856931,completion,,,,,false,,,,428583.59999990463,428583.39999985695,422347.891,422397.2999999523,422364.569,428543.239,8,400,,,
trial,html.Screen,4_47_0,2023-09-08T16:11:50.977Z,,0,1,,3705.4609998092637,response,ISIC_0063234.JPG,5,ISIC_0033239.JPG,ISIC_0063234.JPG,false,1,keypress(m),500,432249,432248.69999980927,428526.62,428583.69999980927,428543.239,432217.274,8,400,48,,ISIC_0033239.JPG
break,html.Screen,4_47_1,2023-09-08T16:11:50.978Z,,0,,,NaN,,,,,,false,,,,432250.19999980927,432249.89999985695,,432249.2999999523,,432217.274,8,400,,,
break_continue,html.Screen,4_47_2,2023-09-08T16:11:50.979Z,,0,,,NaN,,,,,,false,,,,432250.89999985695,432250.59999990463,,432250.39999985695,,432217.274,8,400,,,
sequence,flow.Sequence,4_47,2023-09-08T16:11:50.979Z,,0,,,3707.360999904631,completion,,,,,false,,,,432251.09999990463,432250.59999990463,428526.62,428583.69999980927,428543.239,432217.274,8,400,,,
trial,html.Screen,4_48_0,2023-09-08T16:11:55.660Z,,0,1,,4714.425999809289,response,ISIC_0000763.JPG,6,ISIC_9499787.JPG,ISIC_0000763.JPG,false,1,keypress(m),500,436932,436931.69999980927,432200.44,432251.2999999523,432217.274,436892.776,8,400,49,,ISIC_9499787.JPG
break,html.Screen,4_48_1,2023-09-08T16:11:55.661Z,,0,,,NaN,,,,,,false,,,,436933,436932.7999999523,,436932.2999999523,,436892.776,8,400,,,
break_continue,html.Screen,4_48_2,2023-09-08T16:11:55.661Z,,0,,,NaN,,,,,,false,,,,436933.7999999523,436933.59999990463,,436933.2999999523,,436892.776,8,400,,,
sequence,flow.Sequence,4_48,2023-09-08T16:11:55.662Z,,0,,,4716.325999904657,completion,,,,,false,,,,436934,436933.59999990463,432200.44,432251.2999999523,432217.274,436892.776,8,400,,,
trial,html.Screen,4_49_0,2023-09-08T16:12:00.401Z,,0,1,,4780.123999856936,response,ISIC_7035368.JPG,5,ISIC_0055742.JPG,ISIC_0055742.JPG,false,0,keypress(z),500,441673.19999980927,441672.89999985695,436876.112,436934.2999999523,436892.776,441635.474,8,400,50,,ISIC_7035368.JPG
break,html.Screen,4_49_1,2023-09-08T16:12:10.396Z,,0,,,10002.803000000014,timeout,,,,,false,,,,451668.5,451621.66,441618.78,441673.69999980927,441635.474,451638.277,8,400,,,
break_continue,html.Screen,4_49_2,2023-09-08T16:12:12.215Z,,0,,,1844.5229999523144,response,,,,,false,continue,keypress(Space),,453487,453482.7999999523,451621.66,451668.7999999523,451638.277,453441.572,8,400,,,
sequence,flow.Sequence,4_49,2023-09-08T16:12:12.215Z,,0,,,16590.023999952304,completion,,,,,false,,,,453487.09999990463,453482.7999999523,436876.112,436934.19999980927,436892.776,453441.572,8,400,,,
trial,html.Screen,4_50_0,2023-09-08T16:12:16.584Z,,0,2,,4414.227999952331,response,ISIC_2784686.JPG,6,ISIC_0659400.JPG,ISIC_0659400.JPG,false,0,keypress(z),500,457855.89999985695,457855.7999999523,453425.106,453487.09999990463,453441.572,457816.828,8,400,1,,ISIC_2784686.JPG
break,html.Screen,4_50_1,2023-09-08T16:12:16.584Z,,0,,,NaN,,,,,,false,,,,457856.2999999523,457856.19999980927,,457856.09999990463,,457816.828,8,400,,,
break_continue,html.Screen,4_50_2,2023-09-08T16:12:16.585Z,,0,,,NaN,,,,,,false,,,,457856.7999999523,457856.5,,457856.5,,457816.828,8,400,,,
sequence,flow.Sequence,4_50,2023-09-08T16:12:16.585Z,,0,,,4414.928000000014,completion,,,,,false,,,,457856.7999999523,457856.5,453425.106,453487.09999990463,453441.572,457816.828,8,400,,,
trial,html.Screen,4_51_0,2023-09-08T16:12:21.771Z,,0,2,,5226.1720000000205,response,ISIC_0033498.JPG,6,ISIC_0067205.JPG,ISIC_0033498.JPG,false,1,keypress(m),500,463043.39999985695,463043,457800.267,457857,457816.828,463010.445,8,400,2,,ISIC_0067205.JPG
break,html.Screen,4_51_1,2023-09-08T16:12:21.772Z,,0,,,NaN,,,,,,false,,,,463044.5,463044.2999999523,,463043.7999999523,,463010.445,8,400,,,
break_continue,html.Screen,4_51_2,2023-09-08T16:12:21.773Z,,0,,,NaN,,,,,,false,,,,463045.19999980927,463045,,463044.7999999523,,463010.445,8,400,,,
sequence,flow.Sequence,4_51,2023-09-08T16:12:21.773Z,,0,,,5228.1720000000205,completion,,,,,false,,,,463045.5,463045,457800.267,457856.89999985695,457816.828,463010.445,8,400,,,
trial,html.Screen,4_52_0,2023-09-08T16:12:26.881Z,,0,2,,5142.254999809258,response,ISIC_5833015.JPG,5,ISIC_5413788.JPG,ISIC_5833015.JPG,false,1,keypress(m),500,468152.7999999523,468152.69999980927,462993.668,463045.7999999523,463010.445,468120.3,8,400,3,,ISIC_5413788.JPG
break,html.Screen,4_52_1,2023-09-08T16:12:26.881Z,,0,,,NaN,,,,,,false,,,,468153.19999980927,468153.09999990463,,468153,,468120.3,8,400,,,
break_continue,html.Screen,4_52_2,2023-09-08T16:12:26.881Z,,0,,,NaN,,,,,,false,,,,468153.59999990463,468153.39999985695,,468153.39999985695,,468120.3,8,400,,,
sequence,flow.Sequence,4_52,2023-09-08T16:12:26.882Z,,0,,,5142.954999856942,completion,,,,,false,,,,468153.59999990463,468153.39999985695,462993.668,463045.69999980927,463010.445,468120.3,8,400,,,
trial,html.Screen,4_53_0,2023-09-08T16:12:30.852Z,,0,2,,4003.5999998569605,response,ISIC_1569775.JPG,5,ISIC_9588065.JPG,ISIC_9588065.JPG,false,0,keypress(z),500,472124,472123.89999985695,468103.678,468153.7999999523,468120.3,472094.606,8,400,4,,ISIC_1569775.JPG
break,html.Screen,4_53_1,2023-09-08T16:12:30.852Z,,0,,,NaN,,,,,,false,,,,472124.69999980927,472124.5,,472124.19999980927,,472094.606,8,400,,,
break_continue,html.Screen,4_53_2,2023-09-08T16:12:30.853Z,,0,,,NaN,,,,,,false,,,,472125,472124.89999985695,,472124.7999999523,,472094.606,8,400,,,
sequence,flow.Sequence,4_53,2023-09-08T16:12:30.853Z,,0,,,4004.5999998569605,completion,,,,,false,,,,472125.09999990463,472124.89999985695,468103.678,468153.7999999523,468120.3,472094.606,8,400,,,
trial,html.Screen,4_54_0,2023-09-08T16:12:34.826Z,,0,2,,4003.0939998092363,response,ISIC_0025616.JPG,5,ISIC_1108178.JPG,ISIC_0025616.JPG,false,1,keypress(m),500,476097.89999985695,476097.69999980927,472077.928,472125.19999980927,472094.606,476069.089,8,400,5,,ISIC_1108178.JPG
break,html.Screen,4_54_1,2023-09-08T16:12:34.826Z,,0,,,NaN,,,,,,false,,,,476098.2999999523,476098.19999980927,,476097.89999985695,,476069.089,8,400,,,
break_continue,html.Screen,4_54_2,2023-09-08T16:12:34.827Z,,0,,,NaN,,,,,,false,,,,476099,476098.7999999523,,476098.69999980927,,476069.089,8,400,,,
sequence,flow.Sequence,4_54,2023-09-08T16:12:34.827Z,,0,,,4004.1939999522874,completion,,,,,false,,,,476099.09999990463,476098.7999999523,472077.928,472125.19999980927,472094.606,476069.089,8,400,,,
trial,html.Screen,4_55_0,2023-09-08T16:12:38.802Z,,0,2,,4005.210999952338,response,ISIC_0002613.JPG,5,ISIC_3708739.JPG,ISIC_3708739.JPG,false,0,keypress(z),500,480074.59999990463,480074.2999999523,476052.342,476099.09999990463,476069.089,480043.564,8,400,6,,ISIC_0002613.JPG
break,html.Screen,4_55_1,2023-09-08T16:12:38.804Z,,0,,,NaN,,,,,,false,,,,480075.7999999523,480075.5,,480075,,480043.564,8,400,,,
break_continue,html.Screen,4_55_2,2023-09-08T16:12:38.804Z,,0,,,NaN,,,,,,false,,,,480076.59999990463,480076.39999985695,,480076.19999980927,,480043.564,8,400,,,
sequence,flow.Sequence,4_55,2023-09-08T16:12:38.805Z,,0,,,4007.3109998569707,completion,,,,,false,,,,480076.89999985695,480076.39999985695,476052.342,476099.09999990463,476069.089,480043.564,8,400,,,
trial,html.Screen,4_56_0,2023-09-08T16:12:45.869Z,,0,2,,7097.335999856936,response,ISIC_0031926.JPG,6,ISIC_8159779.JPG,ISIC_0031926.JPG,false,1,keypress(m),500,487141.19999980927,487140.89999985695,480026.872,480077.09999990463,480043.564,487107.245,8,400,7,,ISIC_8159779.JPG
break,html.Screen,4_56_1,2023-09-08T16:12:45.870Z,,0,,,NaN,,,,,,false,,,,487142.39999985695,487142.09999990463,,487141.59999990463,,487107.245,8,400,,,
break_continue,html.Screen,4_56_2,2023-09-08T16:12:45.871Z,,0,,,NaN,,,,,,false,,,,487143.19999980927,487143,,487142.69999980927,,487107.245,8,400,,,
sequence,flow.Sequence,4_56,2023-09-08T16:12:45.871Z,,0,,,7099.435999999987,completion,,,,,false,,,,487143.59999990463,487143,480026.872,480077.09999990463,480043.564,487107.245,8,400,,,
trial,html.Screen,4_57_0,2023-09-08T16:12:50.024Z,,0,2,,4188.854999904637,response,ISIC_6208107.JPG,5,ISIC_0021271.JPG,ISIC_0021271.JPG,false,0,keypress(z),500,491296.39999985695,491296.09999990463,487090.592,487143.7999999523,487107.245,491265.507,8,400,8,,ISIC_6208107.JPG
break,html.Screen,4_57_1,2023-09-08T16:12:50.025Z,,0,,,NaN,,,,,,false,,,,491297.59999990463,491297.2999999523,,491296.7999999523,,491265.507,8,400,,,
break_continue,html.Screen,4_57_2,2023-09-08T16:12:50.026Z,,0,,,NaN,,,,,,false,,,,491298.39999985695,491298.2999999523,,491298,,491265.507,8,400,,,
sequence,flow.Sequence,4_57,2023-09-08T16:12:50.027Z,,0,,,4191.054999952321,completion,,,,,false,,,,491298.7999999523,491298.2999999523,487090.592,487143.69999980927,487107.245,491265.507,8,400,,,
trial,html.Screen,4_58_0,2023-09-08T16:12:53.632Z,,0,2,,3638.8929998569656,response,ISIC_0011510.JPG,5,ISIC_0027684.JPG,ISIC_0011510.JPG,false,1,keypress(m),500,494904.59999990463,494904.39999985695,491248.734,491299.09999990463,491265.507,494872.266,8,400,9,,ISIC_0027684.JPG
break,html.Screen,4_58_1,2023-09-08T16:12:53.633Z,,0,,,NaN,,,,,,false,,,,494905,494904.7999999523,,494904.69999980927,,494872.266,8,400,,,
break_continue,html.Screen,4_58_2,2023-09-08T16:12:53.633Z,,0,,,NaN,,,,,,false,,,,494905.09999990463,494905,,494905,,494872.266,8,400,,,
sequence,flow.Sequence,4_58,2023-09-08T16:12:53.633Z,,0,,,3639.4930000000168,completion,,,,,false,,,,494905.19999980927,494905,491248.734,491299,491265.507,494872.266,8,400,,,
trial,html.Screen,4_59_0,2023-09-08T16:12:59.339Z,,0,2,,5738.533999952313,response,ISIC_0010772.JPG,6,ISIC_8206667.JPG,ISIC_0010772.JPG,false,1,keypress(m),500,500610.89999985695,500610.7999999523,494855.556,494905.19999980927,494872.266,500566.697,8,400,10,,ISIC_8206667.JPG
break,html.Screen,4_59_1,2023-09-08T16:12:59.339Z,,0,,,NaN,,,,,,false,,,,500611.5,500611.39999985695,,500611.09999990463,,500566.697,8,400,,,
break_continue,html.Screen,4_59_2,2023-09-08T16:12:59.340Z,,0,,,NaN,,,,,,false,,,,500611.7999999523,500611.69999980927,,500611.59999990463,,500566.697,8,400,,,
sequence,flow.Sequence,4_59,2023-09-08T16:12:59.340Z,,0,,,5739.433999809262,completion,,,,,false,,,,500612,500611.69999980927,494855.556,494905.19999980927,494872.266,500566.697,8,400,,,
trial,html.Screen,4_60_0,2023-09-08T16:13:05.053Z,,0,2,,5758.303000000014,response,ISIC_3147084.JPG,6,ISIC_0033392.JPG,ISIC_0033392.JPG,false,0,keypress(z),500,506325.19999980927,506325,500550.041,500612,500566.697,506294.458,8,400,11,,ISIC_3147084.JPG
break,html.Screen,4_60_1,2023-09-08T16:13:05.053Z,,0,,,NaN,,,,,,false,,,,506325.59999990463,506325.39999985695,,506325.19999980927,,506294.458,8,400,,,
break_continue,html.Screen,4_60_2,2023-09-08T16:13:05.054Z,,0,,,NaN,,,,,,false,,,,506325.89999985695,506325.7999999523,,506325.69999980927,,506294.458,8,400,,,
sequence,flow.Sequence,4_60,2023-09-08T16:13:05.054Z,,0,,,5759.102999952331,completion,,,,,false,,,,506325.89999985695,506325.7999999523,500550.041,500612,500566.697,506294.458,8,400,,,
trial,html.Screen,4_61_0,2023-09-08T16:13:09.763Z,,0,2,,4740.042000000016,response,ISIC_0002184.JPG,5,ISIC_0033644.JPG,ISIC_0033644.JPG,false,0,keypress(z),500,511035.09999990463,511034.5,506277.969,506326,506294.458,511003.74,8,400,12,,ISIC_0002184.JPG
break,html.Screen,4_61_1,2023-09-08T16:13:09.764Z,,0,,,NaN,,,,,,false,,,,511036.39999985695,511036.09999990463,,511035.59999990463,,511003.74,8,400,,,
break_continue,html.Screen,4_61_2,2023-09-08T16:13:09.765Z,,0,,,NaN,,,,,,false,,,,511037.09999990463,511036.7999999523,,511036.69999980927,,511003.74,8,400,,,
sequence,flow.Sequence,4_61,2023-09-08T16:13:09.765Z,,0,,,4742.341999952332,completion,,,,,false,,,,511037.39999985695,511036.7999999523,506277.969,506326,506294.458,511003.74,8,400,,,
trial,html.Screen,4_62_0,2023-09-08T16:13:15.865Z,,0,2,,6132.059999952326,response,ISIC_3267196.JPG,5,ISIC_0064943.JPG,ISIC_0064943.JPG,false,0,keypress(z),500,517136.2999999523,517135.7999999523,510986.932,511037.69999980927,511003.74,517098.941,8,400,13,,ISIC_3267196.JPG
break,html.Screen,4_62_1,2023-09-08T16:13:15.866Z,,0,,,NaN,,,,,,false,,,,517137.5,517137.09999990463,,517136.69999980927,,517098.941,8,400,,,
break_continue,html.Screen,4_62_2,2023-09-08T16:13:15.867Z,,0,,,NaN,,,,,,false,,,,517138.09999990463,517137.7999999523,,517137.69999980927,,517098.941,8,400,,,
sequence,flow.Sequence,4_62,2023-09-08T16:13:15.867Z,,0,,,6134.059999952326,completion,,,,,false,,,,517138.2999999523,517137.7999999523,510986.932,511037.59999990463,511003.74,517098.941,8,400,,,
trial,html.Screen,4_63_0,2023-09-08T16:13:21.839Z,,0,2,,6011.2589998092735,response,ISIC_0013342.JPG,5,ISIC_2833213.JPG,ISIC_0013342.JPG,false,1,keypress(m),500,523110.39999985695,523110.19999980927,517082.272,517138.59999990463,517098.941,523077.095,8,400,14,,ISIC_2833213.JPG
break,html.Screen,4_63_1,2023-09-08T16:13:21.839Z,,0,,,NaN,,,,,,false,,,,523110.69999980927,523110.59999990463,,523110.39999985695,,523077.095,8,400,,,
break_continue,html.Screen,4_63_2,2023-09-08T16:13:21.839Z,,0,,,NaN,,,,,,false,,,,523110.89999985695,523110.69999980927,,523110.69999980927,,523077.095,8,400,,,
sequence,flow.Sequence,4_63,2023-09-08T16:13:21.839Z,,0,,,6011.7589998092735,completion,,,,,false,,,,523110.89999985695,523110.69999980927,517082.272,517138.5,517098.941,523077.095,8,400,,,
trial,html.Screen,4_64_0,2023-09-08T16:13:26.466Z,,0,2,,4660.204999952344,response,ISIC_8029613.JPG,4,ISIC_6694724.JPG,ISIC_6694724.JPG,false,0,keypress(z),500,527737.399999857,527737.2999999523,523060.464,523110.89999985695,523077.095,527702.838,8,400,15,,ISIC_8029613.JPG
break,html.Screen,4_64_1,2023-09-08T16:13:26.466Z,,0,,,NaN,,,,,,false,,,,527737.6999998093,527737.6999998093,,527737.5,,527702.838,8,400,,,
break_continue,html.Screen,4_64_2,2023-09-08T16:13:26.466Z,,0,,,NaN,,,,,,false,,,,527738,527737.899999857,,527737.899999857,,527702.838,8,400,,,
sequence,flow.Sequence,4_64,2023-09-08T16:13:26.466Z,,0,,,4660.804999856977,completion,,,,,false,,,,527738,527737.899999857,523060.464,523110.89999985695,523077.095,527702.838,8,400,,,
trial,html.Screen,4_65_0,2023-09-08T16:13:31.835Z,,0,2,,5403.662000000011,response,ISIC_5181177.JPG,5,ISIC_6348638.JPG,ISIC_6348638.JPG,false,0,keypress(z),500,533106.6999998093,533106.5,527686.147,527738.1999998093,527702.838,533080.177,8,400,16,,ISIC_5181177.JPG
break,html.Screen,4_65_1,2023-09-08T16:13:31.836Z,,0,,,NaN,,,,,,false,,,,533107.899999857,533107.5999999046,,533107.1999998093,,533080.177,8,400,,,
break_continue,html.Screen,4_65_2,2023-09-08T16:13:31.837Z,,0,,,NaN,,,,,,false,,,,533108.5,533108.2999999523,,533108.0999999046,,533080.177,8,400,,,
sequence,flow.Sequence,4_65,2023-09-08T16:13:31.837Z,,0,,,5405.4619999523275,completion,,,,,false,,,,533108.899999857,533108.2999999523,527686.147,527738,527702.838,533080.177,8,400,,,
trial,html.Screen,4_66_0,2023-09-08T16:13:36.500Z,,0,2,,4691.422999904607,response,ISIC_8901784.JPG,4,ISIC_0011507.JPG,ISIC_0011507.JPG,false,0,keypress(z),500,537771.6999998093,537771.5999999046,533063.318,533109.0999999046,533080.177,537755.826,8,400,17,,ISIC_8901784.JPG
break,html.Screen,4_66_1,2023-09-08T16:13:36.501Z,,0,,,NaN,,,,,,false,,,,537772.0999999046,537772,,537771.7999999523,,537755.826,8,400,,,
break_continue,html.Screen,4_66_2,2023-09-08T16:13:36.501Z,,0,,,NaN,,,,,,false,,,,537772.2999999523,537772.2999999523,,537772.1999998093,,537755.826,8,400,,,
sequence,flow.Sequence,4_66,2023-09-08T16:13:36.501Z,,0,,,4692.122999952291,completion,,,,,false,,,,537772.399999857,537772.2999999523,533063.318,533109,533080.177,537755.826,8,400,,,
trial,html.Screen,4_67_0,2023-09-08T16:13:44.663Z,,0,2,,8178.673999999999,response,ISIC_0034046.JPG,5,ISIC_0013651.JPG,ISIC_0013651.JPG,false,0,keypress(z),500,545934.7999999523,545934.5,537739.266,537772.5,537755.826,545904.96,8,400,18,,ISIC_0034046.JPG
break,html.Screen,4_67_1,2023-09-08T16:13:44.664Z,,0,,,NaN,,,,,,false,,,,545935.0999999046,545935,,545934.899999857,,545904.96,8,400,,,
break_continue,html.Screen,4_67_2,2023-09-08T16:13:44.664Z,,0,,,NaN,,,,,,false,,,,545935.399999857,545935.2999999523,,545935.2999999523,,545904.96,8,400,,,
sequence,flow.Sequence,4_67,2023-09-08T16:13:44.664Z,,0,,,8179.473999952315,completion,,,,,false,,,,545935.5,545935.2999999523,537739.266,537772.5,537755.826,545904.96,8,400,,,
trial,html.Screen,4_68_0,2023-09-08T16:13:50.253Z,,0,2,,5618.739999809302,response,ISIC_0002435.JPG,5,ISIC_0024811.JPG,ISIC_0024811.JPG,false,0,keypress(z),500,551524,551523.6999998093,545888.374,545935.5,545904.96,551482.552,8,400,19,,ISIC_0002435.JPG
break,html.Screen,4_68_1,2023-09-08T16:13:50.254Z,,0,,,NaN,,,,,,false,,,,551525.2999999523,551525,,551524.5,,551482.552,8,400,,,
break_continue,html.Screen,4_68_2,2023-09-08T16:13:50.255Z,,0,,,NaN,,,,,,false,,,,551526.0999999046,551525.899999857,,551525.5999999046,,551482.552,8,400,,,
sequence,flow.Sequence,4_68,2023-09-08T16:13:50.255Z,,0,,,5620.939999856986,completion,,,,,false,,,,551526.399999857,551525.899999857,545888.374,545935.5,545904.96,551482.552,8,400,,,
trial,html.Screen,4_69_0,2023-09-08T16:13:56.726Z,,0,2,,6515.047999904607,response,ISIC_2987613.JPG,6,ISIC_0360367.JPG,ISIC_2987613.JPG,false,1,keypress(m),500,557998,557997.5999999046,551465.835,551526.6999998093,551482.552,557961.745,8,400,20,,ISIC_0360367.JPG
break,html.Screen,4_69_1,2023-09-08T16:13:56.728Z,,0,,,NaN,,,,,,false,,,,557999.2999999523,557998.899999857,,557998.399999857,,557961.745,8,400,,,
break_continue,html.Screen,4_69_2,2023-09-08T16:13:56.729Z,,0,,,NaN,,,,,,false,,,,558000.1999998093,557999.899999857,,557999.6999998093,,557961.745,8,400,,,
sequence,flow.Sequence,4_69,2023-09-08T16:13:56.729Z,,0,,,6517.347999856924,completion,,,,,false,,,,558000.5,557999.899999857,551465.835,551526.6999998093,551482.552,557961.745,8,400,,,
trial,html.Screen,4_70_0,2023-09-08T16:14:01.164Z,,0,2,,4473.554999952321,response,ISIC_1964243.JPG,6,ISIC_3298596.JPG,ISIC_1964243.JPG,false,1,keypress(m),500,562435.5,562435.2999999523,557945.159,558000.7999999523,557961.745,562403.85,8,400,21,,ISIC_3298596.JPG
break,html.Screen,4_70_1,2023-09-08T16:14:01.164Z,,0,,,NaN,,,,,,false,,,,562435.899999857,562435.7999999523,,562435.5999999046,,562403.85,8,400,,,
break_continue,html.Screen,4_70_2,2023-09-08T16:14:01.165Z,,0,,,NaN,,,,,,false,,,,562436.2999999523,562436.1999998093,,562436.0999999046,,562403.85,8,400,,,
sequence,flow.Sequence,4_70,2023-09-08T16:14:01.165Z,,0,,,4474.45499980927,completion,,,,,false,,,,562436.399999857,562436.1999998093,557945.159,558000.5999999046,557961.745,562403.85,8,400,,,
trial,html.Screen,4_71_0,2023-09-08T16:14:06.559Z,,0,2,,5426.049999856972,response,ISIC_0066429.JPG,5,ISIC_0231167.JPG,ISIC_0066429.JPG,false,1,keypress(m),500,567830.1999998093,567829.899999857,562387.146,562436.5,562403.85,567797.715,8,400,22,,ISIC_0231167.JPG
break,html.Screen,4_71_1,2023-09-08T16:14:06.560Z,,0,,,NaN,,,,,,false,,,,567831.5,567831.0999999046,,567830.6999998093,,567797.715,8,400,,,
break_continue,html.Screen,4_71_2,2023-09-08T16:14:06.560Z,,0,,,NaN,,,,,,false,,,,567832.0999999046,567831.899999857,,567831.6999998093,,567797.715,8,400,,,
sequence,flow.Sequence,4_71,2023-09-08T16:14:06.561Z,,0,,,5428.049999856972,completion,,,,,false,,,,567832.399999857,567831.899999857,562387.146,562436.5,562403.85,567797.715,8,400,,,
trial,html.Screen,4_72_0,2023-09-08T16:14:11.354Z,,0,2,,4827.584999952349,response,ISIC_0068215.JPG,6,ISIC_2430937.JPG,ISIC_0068215.JPG,false,1,keypress(m),500,572625.6999998093,572625.2999999523,567780.872,567832.5999999046,567797.715,572590.305,8,400,23,,ISIC_2430937.JPG
break,html.Screen,4_72_1,2023-09-08T16:14:11.355Z,,0,,,NaN,,,,,,false,,,,572626.899999857,572626.6999998093,,572626.1999998093,,572590.305,8,400,,,
break_continue,html.Screen,4_72_2,2023-09-08T16:14:11.356Z,,0,,,NaN,,,,,,false,,,,572627.6999998093,572627.399999857,,572627.1999998093,,572590.305,8,400,,,
sequence,flow.Sequence,4_72,2023-09-08T16:14:11.356Z,,0,,,4829.684999856981,completion,,,,,false,,,,572627.899999857,572627.399999857,567780.872,567832.5,567797.715,572590.305,8,400,,,
trial,html.Screen,4_73_0,2023-09-08T16:14:16.148Z,,0,2,,4827.994999952265,response,ISIC_0758797.JPG,5,ISIC_4141898.JPG,ISIC_0758797.JPG,false,1,keypress(m),500,577418.6999998093,577418.2999999523,572573.544,572628.1999998093,572590.305,577382.931,8,400,24,,ISIC_4141898.JPG
break,html.Screen,4_73_1,2023-09-08T16:14:16.149Z,,0,,,NaN,,,,,,false,,,,577420,577419.6999998093,,577419.0999999046,,577382.931,8,400,,,
break_continue,html.Screen,4_73_2,2023-09-08T16:14:16.150Z,,0,,,NaN,,,,,,false,,,,577420.899999857,577420.5,,577420.2999999523,,577382.931,8,400,,,
sequence,flow.Sequence,4_73,2023-09-08T16:14:16.150Z,,0,,,4830.194999999949,completion,,,,,false,,,,577421.1999998093,577420.5,572573.544,572628.0999999046,572590.305,577382.931,8,400,,,
trial,html.Screen,4_74_0,2023-09-08T16:14:20.473Z,,0,2,,4360.868999952334,response,ISIC_9324486.JPG,5,ISIC_3590997.JPG,ISIC_9324486.JPG,false,1,keypress(m),500,581744,581743.7999999523,577366.273,577421.5,577382.931,581707.979,8,400,25,,ISIC_3590997.JPG
break,html.Screen,4_74_1,2023-09-08T16:14:20.474Z,,0,,,NaN,,,,,,false,,,,581744.899999857,581744.6999998093,,581744.1999998093,,581707.979,8,400,,,
break_continue,html.Screen,4_74_2,2023-09-08T16:14:20.474Z,,0,,,NaN,,,,,,false,,,,581745.1999998093,581745.0999999046,,581745,,581707.979,8,400,,,
sequence,flow.Sequence,4_74,2023-09-08T16:14:20.474Z,,0,,,4362.16899990465,completion,,,,,false,,,,581745.399999857,581745.0999999046,577366.273,577421.399999857,577382.931,581707.979,8,400,,,
trial,html.Screen,4_75_0,2023-09-08T16:14:24.333Z,,0,2,,3896.320999952266,response,ISIC_5190484.JPG,5,ISIC_6996553.JPG,ISIC_5190484.JPG,false,1,keypress(m),500,585604.399999857,585604.2999999523,581691.267,581746.1999998093,581707.979,585565.43,8,400,26,,ISIC_6996553.JPG
break,html.Screen,4_75_1,2023-09-08T16:14:24.334Z,,0,,,NaN,,,,,,false,,,,585604.7999999523,585604.6999998093,,585604.5999999046,,585565.43,8,400,,,
break_continue,html.Screen,4_75_2,2023-09-08T16:14:24.334Z,,0,,,NaN,,,,,,false,,,,585605.0999999046,585605,,585604.899999857,,585565.43,8,400,,,
sequence,flow.Sequence,4_75,2023-09-08T16:14:24.334Z,,0,,,3897.0209999999497,completion,,,,,false,,,,585605.2999999523,585605,581691.267,581746.1999998093,581707.979,585565.43,8,400,,,
trial,html.Screen,4_76_0,2023-09-08T16:14:28.273Z,,0,2,,3978.6699999045813,response,ISIC_9458746.JPG,6,ISIC_0060351.JPG,ISIC_9458746.JPG,false,1,keypress(m),500,589544.2999999523,589544.0999999046,585548.72,585605.2999999523,585565.43,589506.436,8,400,27,,ISIC_0060351.JPG
break,html.Screen,4_76_1,2023-09-08T16:14:28.274Z,,0,,,NaN,,,,,,false,,,,589544.899999857,589544.7999999523,,589544.5,,589506.436,8,400,,,
break_continue,html.Screen,4_76_2,2023-09-08T16:14:28.274Z,,0,,,NaN,,,,,,false,,,,589545.2999999523,589545.1999998093,,589545,,589506.436,8,400,,,
sequence,flow.Sequence,4_76,2023-09-08T16:14:28.274Z,,0,,,3979.769999809214,completion,,,,,false,,,,589545.399999857,589545.1999998093,585548.72,585605.2999999523,585565.43,589506.436,8,400,,,
trial,html.Screen,4_77_0,2023-09-08T16:14:35.907Z,,0,2,,7671.863999952329,response,ISIC_0034187.JPG,5,ISIC_0004679.JPG,ISIC_0034187.JPG,false,1,keypress(m),500,597178.5999999046,597178.2999999523,589489.866,589545.5,589506.436,597154.693,8,400,28,,ISIC_0004679.JPG
break,html.Screen,4_77_1,2023-09-08T16:14:35.908Z,,0,,,NaN,,,,,,false,,,,597179.5,597179.2999999523,,597179,,597154.693,8,400,,,
break_continue,html.Screen,4_77_2,2023-09-08T16:14:35.909Z,,0,,,NaN,,,,,,false,,,,597180,597179.7999999523,,597179.6999998093,,597154.693,8,400,,,
sequence,flow.Sequence,4_77,2023-09-08T16:14:35.909Z,,0,,,7673.363999952329,completion,,,,,false,,,,597180.2999999523,597179.7999999523,589489.866,589545.5,589506.436,597154.693,8,400,,,
trial,html.Screen,4_78_0,2023-09-08T16:14:43.466Z,,0,2,,7581.706999856979,response,ISIC_0015206.JPG,6,ISIC_0059349.JPG,ISIC_0015206.JPG,false,1,keypress(m),500,604736.6999998093,604736.399999857,597138.038,597180.399999857,597154.693,604702.823,8,400,29,,ISIC_0059349.JPG
break,html.Screen,4_78_1,2023-09-08T16:14:43.467Z,,0,,,NaN,,,,,,false,,,,604737.6999998093,604737.5,,604737,,604702.823,8,400,,,
break_continue,html.Screen,4_78_2,2023-09-08T16:14:43.467Z,,0,,,NaN,,,,,,false,,,,604738.1999998093,604738.0999999046,,604737.899999857,,604702.823,8,400,,,
sequence,flow.Sequence,4_78,2023-09-08T16:14:43.467Z,,0,,,7583.406999904662,completion,,,,,false,,,,604738.5,604738.0999999046,597138.038,597180.399999857,597154.693,604702.823,8,400,,,
trial,html.Screen,4_79_0,2023-09-08T16:14:48.637Z,,0,2,,5205.677000000025,response,ISIC_1738738.JPG,5,ISIC_7022381.JPG,ISIC_7022381.JPG,false,0,keypress(z),500,609908.5999999046,609908.5,604686.116,604738.6999998093,604702.823,609879.473,8,400,30,,ISIC_1738738.JPG
break,html.Screen,4_79_1,2023-09-08T16:14:48.638Z,,0,,,NaN,,,,,,false,,,,609909,609908.899999857,,609908.6999998093,,609879.473,8,400,,,
break_continue,html.Screen,4_79_2,2023-09-08T16:14:48.638Z,,0,,,NaN,,,,,,false,,,,609909.2999999523,609909.1999998093,,609909.0999999046,,609879.473,8,400,,,
sequence,flow.Sequence,4_79,2023-09-08T16:14:48.638Z,,0,,,5206.37699980929,completion,,,,,false,,,,609909.399999857,609909.1999998093,604686.116,604738.5999999046,604702.823,609879.473,8,400,,,
trial,html.Screen,4_80_0,2023-09-08T16:14:52.532Z,,0,2,,3923.226999809267,response,ISIC_0011703.JPG,4,ISIC_9564379.JPG,ISIC_0011703.JPG,false,1,keypress(m),500,613802.7999999523,613802.6999998093,609862.869,609909.5,609879.473,613770.292,8,400,31,,ISIC_9564379.JPG
break,html.Screen,4_80_1,2023-09-08T16:14:52.532Z,,0,,,NaN,,,,,,false,,,,613803.1999998093,613803,,613802.899999857,,613770.292,8,400,,,
break_continue,html.Screen,4_80_2,2023-09-08T16:14:52.532Z,,0,,,NaN,,,,,,false,,,,613803.399999857,613803.2999999523,,613803.2999999523,,613770.292,8,400,,,
sequence,flow.Sequence,4_80,2023-09-08T16:14:52.532Z,,0,,,3923.826999952318,completion,,,,,false,,,,613803.5,613803.2999999523,609862.869,609909.399999857,609879.473,613770.292,8,400,,,
trial,html.Screen,4_81_0,2023-09-08T16:14:56.232Z,,0,2,,3732.207999999984,response,ISIC_0008619.JPG,5,ISIC_8636706.JPG,ISIC_0008619.JPG,false,1,keypress(m),500,617502.7999999523,617502.5,613753.736,613803.5,613770.292,617460.933,8,400,32,,ISIC_8636706.JPG
break,html.Screen,4_81_1,2023-09-08T16:14:56.233Z,,0,,,NaN,,,,,,false,,,,617504,617503.7999999523,,617503.2999999523,,617460.933,8,400,,,
break_continue,html.Screen,4_81_2,2023-09-08T16:14:56.234Z,,0,,,NaN,,,,,,false,,,,617504.5999999046,617504.399999857,,617504.2999999523,,617460.933,8,400,,,
sequence,flow.Sequence,4_81,2023-09-08T16:14:56.234Z,,0,,,3734.107999856933,completion,,,,,false,,,,617505,617504.399999857,613753.736,613803.5,613770.292,617460.933,8,400,,,
trial,html.Screen,4_82_0,2023-09-08T16:15:01.437Z,,0,2,,5246.966999856988,response,ISIC_0070308.JPG,5,ISIC_0150363.JPG,ISIC_0070308.JPG,false,1,keypress(m),500,622708.0999999046,622707.899999857,617444.274,617505.1999998093,617460.933,622671.009,8,400,33,,ISIC_0150363.JPG
break,html.Screen,4_82_1,2023-09-08T16:15:01.438Z,,0,,,NaN,,,,,,false,,,,622709,622708.7999999523,,622708.399999857,,622671.009,8,400,,,
break_continue,html.Screen,4_82_2,2023-09-08T16:15:01.438Z,,0,,,NaN,,,,,,false,,,,622709.5,622709.399999857,,622709.1999998093,,622671.009,8,400,,,
sequence,flow.Sequence,4_82,2023-09-08T16:15:01.439Z,,0,,,5248.466999856988,completion,,,,,false,,,,622709.5999999046,622709.399999857,617444.274,617505.0999999046,617460.933,622671.009,8,400,,,
trial,html.Screen,4_83_0,2023-09-08T16:15:07.298Z,,0,2,,5897.2909999523545,response,ISIC_0046670.JPG,5,ISIC_2226940.JPG,ISIC_2226940.JPG,false,0,keypress(z),500,628568.6999998093,628568.2999999523,622654.288,622709.7999999523,622671.009,628532.472,8,400,34,,ISIC_0046670.JPG
break,html.Screen,4_83_1,2023-09-08T16:15:07.299Z,,0,,,NaN,,,,,,false,,,,628569.899999857,628569.5999999046,,628569.0999999046,,628532.472,8,400,,,
break_continue,html.Screen,4_83_2,2023-09-08T16:15:07.300Z,,0,,,NaN,,,,,,false,,,,628570.6999998093,628570.5,,628570.1999998093,,628532.472,8,400,,,
sequence,flow.Sequence,4_83,2023-09-08T16:15:07.300Z,,0,,,5899.491000000038,completion,,,,,false,,,,628571,628570.5,622654.288,622709.7999999523,622671.009,628532.472,8,400,,,
trial,html.Screen,4_84_0,2023-09-08T16:15:12.599Z,,0,2,,5337.028000000049,response,ISIC_0033090.JPG,6,ISIC_9442018.JPG,ISIC_9442018.JPG,false,0,keypress(z),500,633869.899999857,633869.5,628515.666,628571.1999998093,628532.472,633843.659,8,400,35,,ISIC_0033090.JPG
break,html.Screen,4_84_1,2023-09-08T16:15:12.600Z,,0,,,NaN,,,,,,false,,,,633871,633870.7999999523,,633870.2999999523,,633843.659,8,400,,,
break_continue,html.Screen,4_84_2,2023-09-08T16:15:12.601Z,,0,,,NaN,,,,,,false,,,,633871.6999998093,633871.5,,633871.2999999523,,633843.659,8,400,,,
sequence,flow.Sequence,4_84,2023-09-08T16:15:12.601Z,,0,,,5339.028000000049,completion,,,,,false,,,,633872,633871.5,628515.666,628571.1999998093,628532.472,633843.659,8,400,,,
trial,html.Screen,4_85_0,2023-09-08T16:15:16.288Z,,0,2,,3715.04099980928,response,ISIC_0029909.JPG,5,ISIC_0058376.JPG,ISIC_0058376.JPG,false,0,keypress(z),500,637559,637558.6999998093,633809.557,633872.2999999523,633843.659,637516.63,8,400,36,,ISIC_0029909.JPG
break,html.Screen,4_85_1,2023-09-08T16:15:16.289Z,,0,,,NaN,,,,,,false,,,,637560.1999998093,637560,,637559.5,,637516.63,8,400,,,
break_continue,html.Screen,4_85_2,2023-09-08T16:15:16.290Z,,0,,,NaN,,,,,,false,,,,637561,637560.7999999523,,637560.5999999046,,637516.63,8,400,,,
sequence,flow.Sequence,4_85,2023-09-08T16:15:16.291Z,,0,,,3717.140999952331,completion,,,,,false,,,,637561.399999857,637560.7999999523,633809.557,633872.1999998093,633843.659,637516.63,8,400,,,
trial,html.Screen,4_86_0,2023-09-08T16:15:20.501Z,,0,2,,4255.169999952312,response,ISIC_0072030.JPG,5,ISIC_4980328.JPG,ISIC_0072030.JPG,false,1,keypress(m),500,641772.1999998093,641771.7999999523,637500,637561.5999999046,637516.63,641741.468,8,400,37,,ISIC_4980328.JPG
break,html.Screen,4_86_1,2023-09-08T16:15:20.503Z,,0,,,NaN,,,,,,false,,,,641773.399999857,641773.0999999046,,641772.5999999046,,641741.468,8,400,,,
break_continue,html.Screen,4_86_2,2023-09-08T16:15:20.503Z,,0,,,NaN,,,,,,false,,,,641774.1999998093,641774,,641773.7999999523,,641741.468,8,400,,,
sequence,flow.Sequence,4_86,2023-09-08T16:15:20.504Z,,0,,,4257.369999999995,completion,,,,,false,,,,641774.5999999046,641774,637500,637561.5999999046,637516.63,641741.468,8,400,,,
trial,html.Screen,4_87_0,2023-09-08T16:15:25.626Z,,0,2,,5155.731999809272,response,ISIC_0066338.JPG,6,ISIC_0032121.JPG,ISIC_0032121.JPG,false,0,keypress(z),500,646897.2999999523,646897.1999998093,641724.724,641774.899999857,641741.468,646868.054,8,400,38,,ISIC_0066338.JPG
break,html.Screen,4_87_1,2023-09-08T16:15:25.627Z,,0,,,NaN,,,,,,false,,,,646897.6999998093,646897.5999999046,,646897.399999857,,646868.054,8,400,,,
break_continue,html.Screen,4_87_2,2023-09-08T16:15:25.627Z,,0,,,NaN,,,,,,false,,,,646898,646897.899999857,,646897.7999999523,,646868.054,8,400,,,
sequence,flow.Sequence,4_87,2023-09-08T16:15:25.627Z,,0,,,5156.431999856955,completion,,,,,false,,,,646898.1999998093,646897.899999857,641724.724,641774.7999999523,641741.468,646868.054,8,400,,,
trial,html.Screen,4_88_0,2023-09-08T16:15:29.774Z,,0,2,,4176.345999856945,response,ISIC_9077722.JPG,5,ISIC_9562157.JPG,ISIC_9077722.JPG,false,1,keypress(m),500,651044.399999857,651044.399999857,646851.339,646898.2999999523,646868.054,651009.452,8,400,39,,ISIC_9562157.JPG
break,html.Screen,4_88_1,2023-09-08T16:15:29.774Z,,0,,,NaN,,,,,,false,,,,651044.7999999523,651044.6999998093,,651044.5999999046,,651009.452,8,400,,,
break_continue,html.Screen,4_88_2,2023-09-08T16:15:29.774Z,,0,,,NaN,,,,,,false,,,,651045,651044.899999857,,651044.7999999523,,651009.452,8,400,,,
sequence,flow.Sequence,4_88,2023-09-08T16:15:29.774Z,,0,,,4176.845999856945,completion,,,,,false,,,,651045.0999999046,651044.899999857,646851.339,646898.2999999523,646868.054,651009.452,8,400,,,
trial,html.Screen,4_89_0,2023-09-08T16:15:36.342Z,,0,2,,6603.747999809217,response,ISIC_0010400.JPG,5,ISIC_0033075.JPG,ISIC_0010400.JPG,false,1,keypress(m),500,657613.2999999523,657613.1999998093,650992.752,651045.0999999046,651009.452,657572.213,8,400,40,,ISIC_0033075.JPG
break,html.Screen,4_89_1,2023-09-08T16:15:36.343Z,,0,,,NaN,,,,,,false,,,,657613.7999999523,657613.6999998093,,657613.5,,657572.213,8,400,,,
break_continue,html.Screen,4_89_2,2023-09-08T16:15:36.343Z,,0,,,NaN,,,,,,false,,,,657614.1999998093,657614,,657613.899999857,,657572.213,8,400,,,
sequence,flow.Sequence,4_89,2023-09-08T16:15:36.343Z,,0,,,6604.547999999952,completion,,,,,false,,,,657614.1999998093,657614,650992.752,651045.0999999046,651009.452,657572.213,8,400,,,
trial,html.Screen,4_90_0,2023-09-08T16:15:40.569Z,,0,2,,4267.0869999523275,response,ISIC_6625102.JPG,4,ISIC_0027021.JPG,ISIC_0027021.JPG,false,0,keypress(z),500,661839.5,661839.2999999523,657555.505,657614.2999999523,657572.213,661797.185,8,400,41,,ISIC_6625102.JPG
break,html.Screen,4_90_1,2023-09-08T16:15:40.570Z,,0,,,NaN,,,,,,false,,,,661840.399999857,661840.2999999523,,661839.7999999523,,661797.185,8,400,,,
break_continue,html.Screen,4_90_2,2023-09-08T16:15:40.570Z,,0,,,NaN,,,,,,false,,,,661840.899999857,661840.7999999523,,661840.5999999046,,661797.185,8,400,,,
sequence,flow.Sequence,4_90,2023-09-08T16:15:40.570Z,,0,,,4268.5869999523275,completion,,,,,false,,,,661841.1999998093,661840.7999999523,657555.505,657614.2999999523,657572.213,661797.185,8,400,,,
trial,html.Screen,4_91_0,2023-09-08T16:15:44.188Z,,0,2,,3661.5149998092093,response,ISIC_2741583.JPG,5,ISIC_6609484.JPG,ISIC_6609484.JPG,false,0,keypress(z),500,665459.0999999046,665458.6999998093,661780.405,661841.2999999523,661797.185,665420.862,8,400,42,,ISIC_2741583.JPG
break,html.Screen,4_91_1,2023-09-08T16:15:44.189Z,,0,,,NaN,,,,,,false,,,,665460.0999999046,665459.7999999523,,665459.399999857,,665420.862,8,400,,,
break_continue,html.Screen,4_91_2,2023-09-08T16:15:44.190Z,,0,,,NaN,,,,,,false,,,,665460.6999998093,665460.5,,665460.2999999523,,665420.862,8,400,,,
sequence,flow.Sequence,4_91,2023-09-08T16:15:44.190Z,,0,,,3663.314999999944,completion,,,,,false,,,,665461,665460.5,661780.405,661841.1999998093,661797.185,665420.862,8,400,,,
trial,html.Screen,4_92_0,2023-09-08T16:15:49.441Z,,0,2,,5290.737999904668,response,ISIC_0026545.JPG,5,ISIC_0026309.JPG,ISIC_0026545.JPG,false,1,keypress(m),500,670711.7999999523,670711.5999999046,665404.112,665461.1999998093,665420.862,670681.093,8,400,43,,ISIC_0026309.JPG
break,html.Screen,4_92_1,2023-09-08T16:15:49.442Z,,0,,,NaN,,,,,,false,,,,670712.5999999046,670712.5,,670712.0999999046,,670681.093,8,400,,,
break_continue,html.Screen,4_92_2,2023-09-08T16:15:49.442Z,,0,,,NaN,,,,,,false,,,,670713.0999999046,670712.899999857,,670712.7999999523,,670681.093,8,400,,,
sequence,flow.Sequence,4_92,2023-09-08T16:15:49.442Z,,0,,,5292.037999856984,completion,,,,,false,,,,670713.1999998093,670712.899999857,665404.112,665461.1999998093,665420.862,670681.093,8,400,,,
trial,html.Screen,4_93_0,2023-09-08T16:15:53.974Z,,0,2,,4563.706999952323,response,ISIC_4255013.JPG,5,ISIC_8799674.JPG,ISIC_4255013.JPG,false,1,keypress(m),500,675245,675244.7999999523,670664.493,670713.399999857,670681.093,675206.491,8,400,44,,ISIC_8799674.JPG
break,html.Screen,4_93_1,2023-09-08T16:15:53.975Z,,0,,,NaN,,,,,,false,,,,675245.7999999523,675245.5999999046,,675245.2999999523,,675206.491,8,400,,,
break_continue,html.Screen,4_93_2,2023-09-08T16:15:53.975Z,,0,,,NaN,,,,,,false,,,,675246.2999999523,675246.0999999046,,675246,,675206.491,8,400,,,
sequence,flow.Sequence,4_93,2023-09-08T16:15:53.976Z,,0,,,4565.006999904639,completion,,,,,false,,,,675246.399999857,675246.0999999046,670664.493,670713.399999857,670681.093,675206.491,8,400,,,
trial,html.Screen,4_94_0,2023-09-08T16:15:59.290Z,,0,2,,5353.908999856911,response,ISIC_6705966.JPG,5,ISIC_4177450.JPG,ISIC_6705966.JPG,false,1,keypress(m),500,680560.5999999046,680560.399999857,675189.836,675246.5999999046,675206.491,680533.561,8,400,45,,ISIC_4177450.JPG
break,html.Screen,4_94_1,2023-09-08T16:15:59.290Z,,0,,,NaN,,,,,,false,,,,680560.899999857,680560.899999857,,680560.5999999046,,680533.561,8,400,,,
break_continue,html.Screen,4_94_2,2023-09-08T16:15:59.290Z,,0,,,NaN,,,,,,false,,,,680561.2999999523,680561.1999998093,,680561,,680533.561,8,400,,,
sequence,flow.Sequence,4_94,2023-09-08T16:15:59.290Z,,0,,,5354.708999809227,completion,,,,,false,,,,680561.2999999523,680561.1999998093,675189.836,675246.5,675206.491,680533.561,8,400,,,
trial,html.Screen,4_95_0,2023-09-08T16:16:03.908Z,,0,2,,4645.038999904646,response,ISIC_0003925.JPG,5,ISIC_0011094.JPG,ISIC_0011094.JPG,false,0,keypress(z),500,685178.899999857,685178.5999999046,680517.001,680561.5,680533.561,685159.285,8,400,46,,ISIC_0003925.JPG
break,html.Screen,4_95_1,2023-09-08T16:16:03.909Z,,0,,,NaN,,,,,,false,,,,685179.6999998093,685179.5,,685179.1999998093,,685159.285,8,400,,,
break_continue,html.Screen,4_95_2,2023-09-08T16:16:03.909Z,,0,,,NaN,,,,,,false,,,,685180,685179.899999857,,685179.7999999523,,685159.285,8,400,,,
sequence,flow.Sequence,4_95,2023-09-08T16:16:03.909Z,,0,,,4646.338999856962,completion,,,,,false,,,,685180.2999999523,685179.899999857,680517.001,680561.399999857,680533.561,685159.285,8,400,,,
trial,html.Screen,4_96_0,2023-09-08T16:16:08.440Z,,0,2,,4551.014999952284,response,ISIC_7438013.JPG,6,ISIC_2498215.JPG,ISIC_2498215.JPG,false,0,keypress(z),500,689710.5999999046,689710.2999999523,685142.75,685180.399999857,685159.285,689669.121,8,400,47,,ISIC_7438013.JPG
break,html.Screen,4_96_1,2023-09-08T16:16:08.441Z,,0,,,NaN,,,,,,false,,,,689711.899999857,689711.5999999046,,689711.0999999046,,689669.121,8,400,,,
break_continue,html.Screen,4_96_2,2023-09-08T16:16:08.442Z,,0,,,NaN,,,,,,false,,,,689712.5999999046,689712.2999999523,,689712.1999998093,,689669.121,8,400,,,
sequence,flow.Sequence,4_96,2023-09-08T16:16:08.442Z,,0,,,4553.014999952284,completion,,,,,false,,,,689712.899999857,689712.2999999523,685142.75,685180.399999857,685159.285,689669.121,8,400,,,
trial,html.Screen,4_97_0,2023-09-08T16:16:18.902Z,,0,2,,10502.878999999957,response,ISIC_0025242.JPG,6,ISIC_1685962.JPG,ISIC_0025242.JPG,false,1,keypress(m),500,700172.399999857,700172,689651.473,689713.1999998093,689669.121,700138.495,8,400,48,,ISIC_1685962.JPG
break,html.Screen,4_97_1,2023-09-08T16:16:18.903Z,,0,,,NaN,,,,,,false,,,,700173.5,700173.1999998093,,700172.7999999523,,700138.495,8,400,,,
break_continue,html.Screen,4_97_2,2023-09-08T16:16:18.904Z,,0,,,NaN,,,,,,false,,,,700174.0999999046,700173.899999857,,700173.7999999523,,700138.495,8,400,,,
sequence,flow.Sequence,4_97,2023-09-08T16:16:18.904Z,,0,,,10504.778999856906,completion,,,,,false,,,,700174.399999857,700173.899999857,689651.473,689713.0999999046,689669.121,700138.495,8,400,,,
trial,html.Screen,4_98_0,2023-09-08T16:16:23.486Z,,0,2,,4618.104999904637,response,ISIC_7368239.JPG,4,ISIC_8589961.JPG,ISIC_8589961.JPG,false,0,keypress(z),500,704757,704756.5999999046,700121.839,700174.5,700138.495,704714.024,8,400,49,,ISIC_7368239.JPG
break,html.Screen,4_98_1,2023-09-08T16:16:23.488Z,,0,,,NaN,,,,,,false,,,,704758.1999998093,704757.899999857,,704757.5,,704714.024,8,400,,,
break_continue,html.Screen,4_98_2,2023-09-08T16:16:23.489Z,,0,,,NaN,,,,,,false,,,,704759,704758.7999999523,,704758.5,,704714.024,8,400,,,
sequence,flow.Sequence,4_98,2023-09-08T16:16:23.489Z,,0,,,4620.304999952321,completion,,,,,false,,,,704759.2999999523,704758.7999999523,700121.839,700174.5,700138.495,704714.024,8,400,,,
trial,html.Screen,4_99_0,2023-09-08T16:16:29.651Z,,0,2,,6207.7759999523405,response,ISIC_4011169.JPG,5,ISIC_8794567.JPG,ISIC_8794567.JPG,false,0,keypress(z),500,710921.899999857,710921.7999999523,704697.425,704759.5999999046,704714.024,710892.606,8,400,50,,ISIC_4011169.JPG
break,html.Screen,4_99_1,2023-09-08T16:16:39.655Z,,0,,,10002.815999999992,timeout,,,,,false,,,,720925.1999998093,720878.756,710875.953,710922,710892.606,720895.422,8,400,,,
break_continue,html.Screen,4_99_2,2023-09-08T16:16:53.994Z,,0,,,14334.07799999998,response,,,,,false,continue,keypress(Space),,735264.0999999046,735229.5,720878.756,720925.1999998093,720895.422,735223.261,8,400,,,
sequence,flow.Sequence,4_99,2023-09-08T16:16:53.994Z,,0,,,30515.476000000024,completion,,,,,false,,,,735264.1999998093,735229.5,704697.425,704759.5999999046,704714.024,735223.261,8,400,,,
trial,html.Screen,4_100_0,2023-09-08T16:16:57.582Z,,0,3,,3629.638999856892,response,ISIC_0056155.JPG,5,ISIC_0027126.JPG,ISIC_0027126.JPG,false,0,keypress(z),500,738853,738852.899999857,735206.969,735264.2999999523,735223.261,738813.756,8,400,1,,ISIC_0056155.JPG
break,html.Screen,4_100_1,2023-09-08T16:16:57.583Z,,0,,,NaN,,,,,,false,,,,738853.2999999523,738853.1999998093,,738853.0999999046,,738813.756,8,400,,,
break_continue,html.Screen,4_100_2,2023-09-08T16:16:57.583Z,,0,,,NaN,,,,,,false,,,,738853.5,738853.399999857,,738853.399999857,,738813.756,8,400,,,
sequence,flow.Sequence,4_100,2023-09-08T16:16:57.583Z,,0,,,3630.138999856892,completion,,,,,false,,,,738853.5999999046,738853.399999857,735206.969,735264.1999998093,735223.261,738813.756,8,400,,,
trial,html.Screen,4_101_0,2023-09-08T16:17:02.865Z,,0,3,,5321.943999809213,response,ISIC_0009666.JPG,5,ISIC_0253516.JPG,ISIC_0253516.JPG,false,0,keypress(z),500,744135.7999999523,744135.6999998093,738797.076,738853.5999999046,738813.756,744090.578,8,400,2,,ISIC_0009666.JPG
break,html.Screen,4_101_1,2023-09-08T16:17:02.866Z,,0,,,NaN,,,,,,false,,,,744136.2999999523,744136.0999999046,,744135.899999857,,744090.578,8,400,,,
break_continue,html.Screen,4_101_2,2023-09-08T16:17:02.866Z,,0,,,NaN,,,,,,false,,,,744136.399999857,744136.399999857,,744136.2999999523,,744090.578,8,400,,,
sequence,flow.Sequence,4_101,2023-09-08T16:17:02.866Z,,0,,,5322.643999856897,completion,,,,,false,,,,744136.5999999046,744136.399999857,738797.076,738853.5999999046,738813.756,744090.578,8,400,,,
trial,html.Screen,4_102_0,2023-09-08T16:17:06.676Z,,0,3,,3855.721999952337,response,ISIC_5772144.JPG,5,ISIC_0293086.JPG,ISIC_0293086.JPG,false,0,keypress(z),500,747946.6999998093,747946.2999999523,744073.887,744136.7999999523,744090.578,747914.826,8,400,3,,ISIC_5772144.JPG
break,html.Screen,4_102_1,2023-09-08T16:17:06.677Z,,0,,,NaN,,,,,,false,,,,747948,747947.6999998093,,747947.1999998093,,747914.826,8,400,,,
break_continue,html.Screen,4_102_2,2023-09-08T16:17:06.678Z,,0,,,NaN,,,,,,false,,,,747948.5999999046,747948.399999857,,747948.1999998093,,747914.826,8,400,,,
sequence,flow.Sequence,4_102,2023-09-08T16:17:06.678Z,,0,,,3857.8219998569693,completion,,,,,false,,,,747948.899999857,747948.399999857,744073.887,744136.7999999523,744090.578,747914.826,8,400,,,
trial,html.Screen,4_103_0,2023-09-08T16:17:10.474Z,,0,3,,3829.173999999999,response,ISIC_9881460.JPG,5,ISIC_0055367.JPG,ISIC_0055367.JPG,false,0,keypress(z),500,751744.399999857,751744,747898.042,747949.1999998093,747914.826,751705.423,8,400,4,,ISIC_9881460.JPG
break,html.Screen,4_103_1,2023-09-08T16:17:10.475Z,,0,,,NaN,,,,,,false,,,,751745.5999999046,751745.2999999523,,751744.7999999523,,751705.423,8,400,,,
break_continue,html.Screen,4_103_2,2023-09-08T16:17:10.476Z,,0,,,NaN,,,,,,false,,,,751746.0999999046,751745.899999857,,751745.7999999523,,751705.423,8,400,,,
sequence,flow.Sequence,4_103,2023-09-08T16:17:10.476Z,,0,,,3831.073999856948,completion,,,,,false,,,,751746.5,751745.899999857,747898.042,747949.0999999046,747914.826,751705.423,8,400,,,
trial,html.Screen,4_104_0,2023-09-08T16:17:14.879Z,,0,3,,4443.376999952365,response,ISIC_0011930.JPG,5,ISIC_0011127.JPG,ISIC_0011930.JPG,false,1,keypress(m),500,756148.899999857,756148.7999999523,751688.894,751746.7999999523,751705.423,756113.963,8,400,5,,ISIC_0011127.JPG
break,html.Screen,4_104_1,2023-09-08T16:17:14.879Z,,0,,,NaN,,,,,,false,,,,756149.1999998093,756149.1999998093,,756149,,756113.963,8,400,,,
break_continue,html.Screen,4_104_2,2023-09-08T16:17:14.879Z,,0,,,NaN,,,,,,false,,,,756149.5999999046,756149.399999857,,756149.399999857,,756113.963,8,400,,,
sequence,flow.Sequence,4_104,2023-09-08T16:17:14.880Z,,0,,,4443.976999856997,completion,,,,,false,,,,756149.5999999046,756149.399999857,751688.894,751746.5999999046,751705.423,756113.963,8,400,,,
trial,html.Screen,4_105_0,2023-09-08T16:17:18.631Z,,0,3,,3786.7369998092763,response,ISIC_6588853.JPG,5,ISIC_5994645.JPG,ISIC_5994645.JPG,false,0,keypress(z),500,759901,759900.6999998093,756097.422,756149.6999998093,756113.963,759871.433,8,400,6,,ISIC_6588853.JPG
break,html.Screen,4_105_1,2023-09-08T16:17:18.632Z,,0,,,NaN,,,,,,false,,,,759901.899999857,759901.5999999046,,759901.399999857,,759871.433,8,400,,,
break_continue,html.Screen,4_105_2,2023-09-08T16:17:18.632Z,,0,,,NaN,,,,,,false,,,,759902.2999999523,759902.1999998093,,759902.0999999046,,759871.433,8,400,,,
sequence,flow.Sequence,4_105,2023-09-08T16:17:18.632Z,,0,,,3788.2369998092763,completion,,,,,false,,,,759902.399999857,759902.1999998093,756097.422,756149.6999998093,756113.963,759871.433,8,400,,,
trial,html.Screen,4_106_0,2023-09-08T16:17:23.418Z,,0,3,,4816.466999856988,response,ISIC_7592920.JPG,5,ISIC_0000393.JPG,ISIC_0000393.JPG,false,0,keypress(z),500,764688.1999998093,764687.899999857,759854.747,759902.5,759871.433,764647.249,8,400,7,,ISIC_7592920.JPG
break,html.Screen,4_106_1,2023-09-08T16:17:23.419Z,,0,,,NaN,,,,,,false,,,,764689.399999857,764689.0999999046,,764688.6999998093,,764647.249,8,400,,,
break_continue,html.Screen,4_106_2,2023-09-08T16:17:23.420Z,,0,,,NaN,,,,,,false,,,,764689.5999999046,764689.5,,764689.5,,764647.249,8,400,,,
sequence,flow.Sequence,4_106,2023-09-08T16:17:23.420Z,,0,,,4818.067000000039,completion,,,,,false,,,,764689.5999999046,764689.5,759854.747,759902.5,759871.433,764647.249,8,400,,,
trial,html.Screen,4_107_0,2023-09-08T16:17:29.021Z,,0,3,,5643.85099990468,response,ISIC_0029910.JPG,5,ISIC_1507583.JPG,ISIC_0029910.JPG,false,1,keypress(m),500,770291.2999999523,770291.0999999046,764630.698,764689.6999998093,764647.249,770258.307,8,400,8,,ISIC_1507583.JPG
break,html.Screen,4_107_1,2023-09-08T16:17:29.022Z,,0,,,NaN,,,,,,false,,,,770291.5999999046,770291.5,,770291.399999857,,770258.307,8,400,,,
break_continue,html.Screen,4_107_2,2023-09-08T16:17:29.022Z,,0,,,NaN,,,,,,false,,,,770291.7999999523,770291.7999999523,,770291.6999998093,,770258.307,8,400,,,
sequence,flow.Sequence,4_107,2023-09-08T16:17:29.022Z,,0,,,5644.550999952364,completion,,,,,false,,,,770291.899999857,770291.7999999523,764630.698,764689.5999999046,764647.249,770258.307,8,400,,,
trial,html.Screen,4_108_0,2023-09-08T16:17:33.199Z,,0,3,,4210.592999856919,response,ISIC_5364330.JPG,5,ISIC_6207688.JPG,ISIC_5364330.JPG,false,1,keypress(m),500,774469.1999998093,774468.899999857,770241.481,770291.899999857,770258.307,774433.116,8,400,9,,ISIC_6207688.JPG
break,html.Screen,4_108_1,2023-09-08T16:17:33.200Z,,0,,,NaN,,,,,,false,,,,774470.1999998093,774469.899999857,,774469.5,,774433.116,8,400,,,
break_continue,html.Screen,4_108_2,2023-09-08T16:17:33.201Z,,0,,,NaN,,,,,,false,,,,774470.6999998093,774470.5,,774470.399999857,,774433.116,8,400,,,
sequence,flow.Sequence,4_108,2023-09-08T16:17:33.201Z,,0,,,4212.19299999997,completion,,,,,false,,,,774470.899999857,774470.5,770241.481,770291.899999857,770258.307,774433.116,8,400,,,
trial,html.Screen,4_109_0,2023-09-08T16:17:40.979Z,,0,3,,7816.283999856911,response,ISIC_8642938.JPG,6,ISIC_5578239.JPG,ISIC_8642938.JPG,false,1,keypress(m),500,782249.5,782249.399999857,774416.502,774471.0999999046,774433.116,782214.904,8,400,10,,ISIC_5578239.JPG
break,html.Screen,4_109_1,2023-09-08T16:17:40.980Z,,0,,,NaN,,,,,,false,,,,782250.1999998093,782250,,782249.7999999523,,782214.904,8,400,,,
break_continue,html.Screen,4_109_2,2023-09-08T16:17:40.980Z,,0,,,NaN,,,,,,false,,,,782250.399999857,782250.399999857,,782250.2999999523,,782214.904,8,400,,,
sequence,flow.Sequence,4_109,2023-09-08T16:17:40.980Z,,0,,,7817.283999856911,completion,,,,,false,,,,782250.5999999046,782250.399999857,774416.502,774471.0999999046,774433.116,782214.904,8,400,,,
trial,html.Screen,4_110_0,2023-09-08T16:17:45.402Z,,0,3,,4457.295999809285,response,ISIC_8106899.JPG,5,ISIC_7236842.JPG,ISIC_7236842.JPG,false,0,keypress(z),500,786672.399999857,786672.1999998093,782198.263,782250.5999999046,782214.904,786640.091,8,400,11,,ISIC_8106899.JPG
break,html.Screen,4_110_1,2023-09-08T16:17:45.403Z,,0,,,NaN,,,,,,false,,,,786672.7999999523,786672.6999998093,,786672.5,,786640.091,8,400,,,
break_continue,html.Screen,4_110_2,2023-09-08T16:17:45.403Z,,0,,,NaN,,,,,,false,,,,786673.0999999046,786673,,786672.899999857,,786640.091,8,400,,,
sequence,flow.Sequence,4_110,2023-09-08T16:17:45.403Z,,0,,,4458.09600000002,completion,,,,,false,,,,786673.1999998093,786673,782198.263,782250.5999999046,782214.904,786640.091,8,400,,,
trial,html.Screen,4_111_0,2023-09-08T16:17:50.748Z,,0,3,,5378.208999952301,response,ISIC_0028082.JPG,5,ISIC_8156101.JPG,ISIC_0028082.JPG,false,1,keypress(m),500,792018.5,792018.2999999523,786623.549,786673.2999999523,786640.091,791983.841,8,400,12,,ISIC_8156101.JPG
break,html.Screen,4_111_1,2023-09-08T16:17:50.749Z,,0,,,NaN,,,,,,false,,,,792019.0999999046,792018.899999857,,792018.6999998093,,791983.841,8,400,,,
break_continue,html.Screen,4_111_2,2023-09-08T16:17:50.749Z,,0,,,NaN,,,,,,false,,,,792019.5,792019.399999857,,792019.1999998093,,791983.841,8,400,,,
sequence,flow.Sequence,4_111,2023-09-08T16:17:50.750Z,,0,,,5379.308999856934,completion,,,,,false,,,,792019.5999999046,792019.399999857,786623.549,786673.2999999523,786640.091,791983.841,8,400,,,
trial,html.Screen,4_112_0,2023-09-08T16:17:56.903Z,,0,3,,6189.058999856934,response,ISIC_1414751.JPG,5,ISIC_9756858.JPG,ISIC_1414751.JPG,false,1,keypress(m),500,798173.2999999523,798172.899999857,791967.18,792019.6999998093,791983.841,798129.158,8,400,13,,ISIC_9756858.JPG
break,html.Screen,4_112_1,2023-09-08T16:17:56.904Z,,0,,,NaN,,,,,,false,,,,798174.5,798174.0999999046,,798173.6999998093,,798129.158,8,400,,,
break_continue,html.Screen,4_112_2,2023-09-08T16:17:56.905Z,,0,,,NaN,,,,,,false,,,,798174.899999857,798174.6999998093,,798174.5999999046,,798129.158,8,400,,,
sequence,flow.Sequence,4_112,2023-09-08T16:17:56.905Z,,0,,,6190.85899980925,completion,,,,,false,,,,798175.1999998093,798174.6999998093,791967.18,792019.6999998093,791983.841,798129.158,8,400,,,
trial,html.Screen,4_113_0,2023-09-08T16:18:00.396Z,,0,3,,3536.341999999946,response,ISIC_0024720.JPG,5,ISIC_0011256.JPG,ISIC_0024720.JPG,false,1,keypress(m),500,801665.6999998093,801665.5,798112.528,798175.399999857,798129.158,801635.999,8,400,14,,ISIC_0011256.JPG
break,html.Screen,4_113_1,2023-09-08T16:18:00.396Z,,0,,,NaN,,,,,,false,,,,801666.0999999046,801666,,801665.6999998093,,801635.999,8,400,,,
break_continue,html.Screen,4_113_2,2023-09-08T16:18:00.396Z,,0,,,NaN,,,,,,false,,,,801666.5,801666.399999857,,801666.2999999523,,801635.999,8,400,,,
sequence,flow.Sequence,4_113,2023-09-08T16:18:00.396Z,,0,,,3537.241999856895,completion,,,,,false,,,,801666.5,801666.399999857,798112.528,798175.2999999523,798129.158,801635.999,8,400,,,
trial,html.Screen,4_114_0,2023-09-08T16:18:04.131Z,,0,3,,3764.9009998569963,response,ISIC_6588853.JPG,4,ISIC_0069411.JPG,ISIC_0069411.JPG,false,0,keypress(z),500,805401.0999999046,805400.899999857,801619.424,801666.5999999046,801635.999,805359.873,8,400,15,,ISIC_6588853.JPG
break,html.Screen,4_114_1,2023-09-08T16:18:04.132Z,,0,,,NaN,,,,,,false,,,,805401.7999999523,805401.5999999046,,805401.2999999523,,805359.873,8,400,,,
break_continue,html.Screen,4_114_2,2023-09-08T16:18:04.132Z,,0,,,NaN,,,,,,false,,,,805402.0999999046,805402,,805401.899999857,,805359.873,8,400,,,
sequence,flow.Sequence,4_114,2023-09-08T16:18:04.132Z,,0,,,3766.0010000000475,completion,,,,,false,,,,805402.1999998093,805402,801619.424,801666.5999999046,801635.999,805359.873,8,400,,,
trial,html.Screen,4_115_0,2023-09-08T16:18:08.342Z,,0,3,,4252.526999856927,response,ISIC_8666446.JPG,5,ISIC_8363485.JPG,ISIC_8666446.JPG,false,1,keypress(m),500,809612.5999999046,809612.399999857,805343.261,805402.399999857,805359.873,809568.081,8,400,16,,ISIC_8363485.JPG
break,html.Screen,4_115_1,2023-09-08T16:18:08.343Z,,0,,,NaN,,,,,,false,,,,809613.2999999523,809613.1999998093,,809612.7999999523,,809568.081,8,400,,,
break_continue,html.Screen,4_115_2,2023-09-08T16:18:08.344Z,,0,,,NaN,,,,,,false,,,,809613.6999998093,809613.5999999046,,809613.5,,809568.081,8,400,,,
sequence,flow.Sequence,4_115,2023-09-08T16:18:08.344Z,,0,,,4253.726999904611,completion,,,,,false,,,,809613.899999857,809613.5999999046,805343.261,805402.399999857,805359.873,809568.081,8,400,,,
trial,html.Screen,4_116_0,2023-09-08T16:18:11.578Z,,0,3,,3279.8189998569433,response,ISIC_0014975.JPG,4,ISIC_1398618.JPG,ISIC_0014975.JPG,false,1,keypress(m),500,812848,812847.899999857,809551.399,809614.0999999046,809568.081,812807.708,8,400,17,,ISIC_1398618.JPG
break,html.Screen,4_116_1,2023-09-08T16:18:11.578Z,,0,,,NaN,,,,,,false,,,,812848.2999999523,812848.2999999523,,812848.0999999046,,812807.708,8,400,,,
break_continue,html.Screen,4_116_2,2023-09-08T16:18:11.579Z,,0,,,NaN,,,,,,false,,,,812848.6999998093,812848.5999999046,,812848.5,,812807.708,8,400,,,
sequence,flow.Sequence,4_116,2023-09-08T16:18:11.579Z,,0,,,3280.518999904627,completion,,,,,false,,,,812848.7999999523,812848.5999999046,809551.399,809614.0999999046,809568.081,812807.708,8,400,,,
trial,html.Screen,4_117_0,2023-09-08T16:18:16.860Z,,0,3,,5322.491999809281,response,ISIC_1337726.JPG,5,ISIC_2562668.JPG,ISIC_2562668.JPG,false,0,keypress(z),500,818130.399999857,818130.1999998093,812790.947,812849,812807.708,818101.375,8,400,18,,ISIC_1337726.JPG
break,html.Screen,4_117_1,2023-09-08T16:18:16.861Z,,0,,,NaN,,,,,,false,,,,818130.6999998093,818130.5999999046,,818130.399999857,,818101.375,8,400,,,
break_continue,html.Screen,4_117_2,2023-09-08T16:18:16.861Z,,0,,,NaN,,,,,,false,,,,818130.7999999523,818130.7999999523,,818130.7999999523,,818101.375,8,400,,,
sequence,flow.Sequence,4_117,2023-09-08T16:18:16.861Z,,0,,,5323.091999952332,completion,,,,,false,,,,818130.899999857,818130.7999999523,812790.947,812848.899999857,812807.708,818101.375,8,400,,,
trial,html.Screen,4_118_0,2023-09-08T16:18:22.063Z,,0,3,,5231.224999904633,response,ISIC_5073160.JPG,5,ISIC_0071966.JPG,ISIC_5073160.JPG,false,1,keypress(m),500,823333,823332.5999999046,818084.739,818131,818101.375,823294.759,8,400,19,,ISIC_0071966.JPG
break,html.Screen,4_118_1,2023-09-08T16:18:22.064Z,,0,,,NaN,,,,,,false,,,,823334.1999998093,823334,,823333.399999857,,823294.759,8,400,,,
break_continue,html.Screen,4_118_2,2023-09-08T16:18:22.065Z,,0,,,NaN,,,,,,false,,,,823334.899999857,823334.5999999046,,823334.5,,823294.759,8,400,,,
sequence,flow.Sequence,4_118,2023-09-08T16:18:22.065Z,,0,,,5233.224999904633,completion,,,,,false,,,,823335.1999998093,823334.5999999046,818084.739,818130.899999857,818101.375,823294.759,8,400,,,
trial,html.Screen,4_119_0,2023-09-08T16:18:27.945Z,,0,3,,5919.741000000038,response,ISIC_0006757.JPG,5,ISIC_1910158.JPG,ISIC_1910158.JPG,false,0,keypress(z),500,829214.6999998093,829214.5,823278.003,823335.5,823294.759,829172.844,8,400,20,,ISIC_0006757.JPG
break,html.Screen,4_119_1,2023-09-08T16:18:27.946Z,,0,,,NaN,,,,,,false,,,,829215.5,829215.1999998093,,829214.899999857,,829172.844,8,400,,,
break_continue,html.Screen,4_119_2,2023-09-08T16:18:27.946Z,,0,,,NaN,,,,,,false,,,,829215.899999857,829215.6999998093,,829215.5999999046,,829172.844,8,400,,,
sequence,flow.Sequence,4_119,2023-09-08T16:18:27.946Z,,0,,,5920.940999809303,completion,,,,,false,,,,829216.0999999046,829215.6999998093,823278.003,823335.399999857,823294.759,829172.844,8,400,,,
trial,html.Screen,4_120_0,2023-09-08T16:18:32.829Z,,0,3,,4925.955999952275,response,ISIC_3518299.JPG,4,ISIC_7293518.JPG,ISIC_7293518.JPG,false,0,keypress(z),500,834098.899999857,834098.7999999523,829156.335,829216.0999999046,829172.844,834065.681,8,400,21,,ISIC_3518299.JPG
break,html.Screen,4_120_1,2023-09-08T16:18:32.829Z,,0,,,NaN,,,,,,false,,,,834099.1999998093,834099.1999998093,,834099.0999999046,,834065.681,8,400,,,
break_continue,html.Screen,4_120_2,2023-09-08T16:18:32.830Z,,0,,,NaN,,,,,,false,,,,834099.399999857,834099.2999999523,,834099.2999999523,,834065.681,8,400,,,
sequence,flow.Sequence,4_120,2023-09-08T16:18:32.830Z,,0,,,4926.455999952275,completion,,,,,false,,,,834099.5,834099.2999999523,829156.335,829216.0999999046,829172.844,834065.681,8,400,,,
trial,html.Screen,4_121_0,2023-09-08T16:18:36.927Z,,0,3,,4130.819000000018,response,ISIC_0055388.JPG,5,ISIC_2198823.JPG,ISIC_0055388.JPG,false,1,keypress(m),500,838196.5999999046,838196.5,834049.004,834099.5999999046,834065.681,838156.975,8,400,22,,ISIC_2198823.JPG
break,html.Screen,4_121_1,2023-09-08T16:18:36.927Z,,0,,,NaN,,,,,,false,,,,838197,838196.899999857,,838196.6999998093,,838156.975,8,400,,,
break_continue,html.Screen,4_121_2,2023-09-08T16:18:36.927Z,,0,,,NaN,,,,,,false,,,,838197.0999999046,838197.0999999046,,838197,,838156.975,8,400,,,
sequence,flow.Sequence,4_121,2023-09-08T16:18:36.927Z,,0,,,4131.41899990465,completion,,,,,false,,,,838197.2999999523,838197.0999999046,834049.004,834099.5,834065.681,838156.975,8,400,,,
trial,html.Screen,4_122_0,2023-09-08T16:18:41.233Z,,0,3,,4345.32499995234,response,ISIC_0001126.JPG,5,ISIC_0026344.JPG,ISIC_0001126.JPG,false,1,keypress(m),500,842502.5,842502.2999999523,838140.267,838197.2999999523,838156.975,842465.403,8,400,23,,ISIC_0026344.JPG
break,html.Screen,4_122_1,2023-09-08T16:18:41.233Z,,0,,,NaN,,,,,,false,,,,842503,842502.7999999523,,842502.6999998093,,842465.403,8,400,,,
break_continue,html.Screen,4_122_2,2023-09-08T16:18:41.234Z,,0,,,NaN,,,,,,false,,,,842503.399999857,842503.2999999523,,842503.0999999046,,842465.403,8,400,,,
sequence,flow.Sequence,4_122,2023-09-08T16:18:41.234Z,,0,,,4346.32499995234,completion,,,,,false,,,,842503.5,842503.2999999523,838140.267,838197.2999999523,838156.975,842465.403,8,400,,,
trial,html.Screen,4_123_0,2023-09-08T16:18:46.475Z,,0,3,,5278.796999809216,response,ISIC_1554992.JPG,5,ISIC_9742891.JPG,ISIC_9742891.JPG,false,0,keypress(z),500,847744.5999999046,847744.1999998093,842448.75,842503.6999998093,842465.403,847708.888,8,400,24,,ISIC_1554992.JPG
break,html.Screen,4_123_1,2023-09-08T16:18:46.476Z,,0,,,NaN,,,,,,false,,,,847745.6999998093,847745.5,,847745,,847708.888,8,400,,,
break_continue,html.Screen,4_123_2,2023-09-08T16:18:46.477Z,,0,,,NaN,,,,,,false,,,,847746.5999999046,847746.2999999523,,847746.1999998093,,847708.888,8,400,,,
sequence,flow.Sequence,4_123,2023-09-08T16:18:46.477Z,,0,,,5280.896999952267,completion,,,,,false,,,,847747,847746.2999999523,842448.75,842503.5999999046,842465.403,847708.888,8,400,,,
trial,html.Screen,4_124_0,2023-09-08T16:18:52.464Z,,0,3,,6024.5119998569135,response,ISIC_0029761.JPG,5,ISIC_0070215.JPG,ISIC_0070215.JPG,false,0,keypress(z),500,853733.7999999523,853733.399999857,847692.403,847747.1999998093,847708.888,853704.049,8,400,25,,ISIC_0029761.JPG
break,html.Screen,4_124_1,2023-09-08T16:18:52.465Z,,0,,,NaN,,,,,,false,,,,853735.0999999046,853734.899999857,,853734.399999857,,853704.049,8,400,,,
break_continue,html.Screen,4_124_2,2023-09-08T16:18:52.466Z,,0,,,NaN,,,,,,false,,,,853735.7999999523,853735.5,,853735.2999999523,,853704.049,8,400,,,
sequence,flow.Sequence,4_124,2023-09-08T16:18:52.466Z,,0,,,6026.611999999965,completion,,,,,false,,,,853736.0999999046,853735.5,847692.403,847747.0999999046,847708.888,853704.049,8,400,,,
trial,html.Screen,4_125_0,2023-09-08T16:18:56.229Z,,0,3,,3794.650999809266,response,ISIC_5826878.JPG,5,ISIC_6755132.JPG,ISIC_5826878.JPG,false,1,keypress(m),500,857498.899999857,857498.6999998093,853687.177,853736.2999999523,853704.049,857461.211,8,400,26,,ISIC_6755132.JPG
break,html.Screen,4_125_1,2023-09-08T16:18:56.229Z,,0,,,NaN,,,,,,false,,,,857499.1999998093,857499.0999999046,,857498.899999857,,857461.211,8,400,,,
break_continue,html.Screen,4_125_2,2023-09-08T16:18:56.230Z,,0,,,NaN,,,,,,false,,,,857499.6999998093,857499.2999999523,,857499.1999998093,,857461.211,8,400,,,
sequence,flow.Sequence,4_125,2023-09-08T16:18:56.230Z,,0,,,3795.250999952317,completion,,,,,false,,,,857499.899999857,857499.2999999523,853687.177,853736.1999998093,853704.049,857461.211,8,400,,,
