sender,sender_type,sender_id,timestamp,meta,,age,blockNo,c1,c2,condition,control_tolerance,correct,correctResponse,duration,ended_on,f1,f1_high,f1_low,f2,f2_high,f2_low,feature_level1,feature_level2,gender,img_left,img_reveal,img_right,n_target_images,practice,range_tolerance,response,response_action,selection_duration,staircase,time_commit,time_end,time_render,time_run,time_show,time_switch,total_blocks,total_trials,trialNo,url
informed_consent,html.Screen,0,2023-11-17T19:38:38.034Z,"{""labjs_version"":""20.2.4"",""labjs_build"":{""flavor"":""development"",""commit"":""f5b4a49f956347addd546a832a3327688c2c0fef""},""location"":""https://labjs.felixhenninger.com/api/labjs_preview/index.html"",""userAgent"":""Mozilla/5.0 (Windows NT 10.0; Win64; x64) AppleWebKit/537.36 (KHTML, like Gecko) Chrome/119.0.0.0 Safari/537.36"",""platform"":""Win32"",""language"":""en-US"",""locale"":""en-US"",""timeZone"":""America/Chicago"",""timezoneOffset"":360,""screen_width"":1680,""screen_height"":1050,""scroll_width"":825,""scroll_height"":888,""window_innerWidth"":825,""window_innerHeight"":936,""devicePixelRatio"":1}",,,,,,,,,,29377.611999976158,response,,,,,,,,,,,,,,,,consent,click button,,,30118.099999904633,30107.399999976158,713.088,706.7999999523163,729.788,30137.29,,,,{}
Demography form,html.Form,1,2023-11-17T19:38:45.712Z,,,19,,,,,,,,7658.409999928474,form submission,,,,,,,,,female,,,,,,,,,,,37795.89999997616,37795.699999928474,30120.32,30118.399999976158,30137.29,37818.775,,,,
Welcome,html.Screen,2,2023-11-17T19:38:46.880Z,,,,,,,"[""asym"",""col""]",,,,1144.7249999999985,response,,,,,,,,,,,,,,,,continue,click button,,,38964.09999990463,38963.5,37802.022,37796,37818.775,38987.595,,,,
demo_instructions,html.Screen,3,2023-11-17T19:39:22.011Z,,,,,,,,,,,35103.704999952315,response,,,,,,,,,,,,,,,,continue,click button,,,74091.79999995232,74091.29999995232,38971.017,38964.199999928474,38987.595,74122.536,,,,
trial,html.Screen,4_0_0,2023-11-17T19:39:36.856Z,,,,0,1.055319394932912,-1.409116680310466,,,true,lh,14814.163999928482,response,-1.11329866545753,1.2,-1.2,1.2155631217348757,1.2,-1.2,low,high,,ISIC_6398669.JPG,,ISIC_0032610.JPG,29,true,0.3600000000000002,lh,keypress(e),100,false,88937,88936.69999992847,74105.867,74092,74122.536,88968.329,1,16,1,
sequence,flow.Sequence,4_0,2023-11-17T19:39:36.857Z,,,,,,,,,,,14814.163999928482,completion,,,,,,,low,high,,,,,,true,,,,,false,88937.5,88936.69999992847,74105.867,74092,74122.536,88968.329,1,16,,
trial,html.Screen,4_1_0,2023-11-17T19:39:41.449Z,,,,0,1.082730232773217,-0.8833175387485132,,,true,lh,4561.8709999284765,response,-0.9385447468573198,1.2,-1.2,1.2289860846064424,1.2,-1.2,low,high,,ISIC_0011933.JPG,,ISIC_0032780.JPG,29,true,0.3600000000000002,lh,keypress(e),100,false,93530.39999997616,93530.19999992847,88951.422,88937.69999992847,88968.329,93560.386,1,16,2,
sequence,flow.Sequence,4_1,2023-11-17T19:39:41.450Z,,,,,,,,,,,4561.8709999284765,completion,,,,,,,low,high,,,,,,true,,,,,false,93530.5,93530.19999992847,88951.422,88937.59999990463,88968.329,93560.386,1,16,,
trial,html.Screen,4_2_0,2023-11-17T19:39:43.853Z,,,,0,1.082730232773217,-0.8833175387485132,,,true,lh,2373.0139999761595,response,-1.4748095371445096,1.2,-1.2,0.9579010801034902,1.2,-1.2,low,high,,ISIC_0011933.JPG,,ISIC_0033216.JPG,29,true,0.3600000000000002,lh,keypress(e),100,false,95933.59999990463,95933.39999997616,93543.703,93530.69999992847,93560.386,95965.125,1,16,3,
sequence,flow.Sequence,4_2,2023-11-17T19:39:43.853Z,,,,,,,,,,,2373.0139999761595,completion,,,,,,,low,high,,,,,,true,,,,,false,95934,95933.39999997616,93543.703,93530.59999990463,93560.386,95965.125,1,16,,
trial,html.Screen,4_3_0,2023-11-17T19:39:45.990Z,,,,0,0.9212323139676136,-0.9882196642247332,,,true,lh,2105.4749999046326,response,-1.1890109863264902,1.2,-1.2,0.8867825318561365,1.2,-1.2,low,high,,ISIC_0014255.JPG,,ISIC_0072576.JPG,29,true,0.3600000000000002,lh,keypress(e),100,false,98070.69999992847,98070.59999990463,95948.385,95934.19999992847,95965.125,98102.637,1,16,4,
sequence,flow.Sequence,4_3,2023-11-17T19:39:45.990Z,,,,,,,,,,,2105.4749999046326,completion,,,,,,,low,high,,,,,,true,,,,,false,98070.89999997616,98070.59999990463,95948.385,95934.09999990463,95965.125,98102.637,1,16,,
trial,html.Screen,4_4_0,2023-11-17T19:39:48.779Z,,,,0,1.2315945866020412,1.13226141421557,,,true,ll,2757.3629999999976,response,-0.8789245418555859,1.2,-1.2,-1.207575413157872,1.2,-1.2,low,low,,ISIC_0033595.JPG,,ISIC_0001602.JPG,127,true,0.3300000000000002,ll,keypress(f),100,false,100860.19999992847,100860,98085.997,98071,98102.637,100891.325,1,16,5,
sequence,flow.Sequence,4_4,2023-11-17T19:39:48.780Z,,,,,,,,,,,2757.3629999999976,completion,,,,,,,low,low,,,,,,true,,,,,false,100860.59999990463,100860,98085.997,98071,98102.637,100891.325,1,16,,
trial,html.Screen,4_5_0,2023-11-17T19:39:50.537Z,,,,0,1.1711612520017805,1.191169949562454,,,true,ll,1726.3749999284773,response,-1.0885984639975343,1.2,-1.2,-1.2042618719491294,1.2,-1.2,low,low,,ISIC_0061936.JPG,,ISIC_0012740.JPG,25,true,0.15000000000000002,ll,keypress(f),100,false,102617.89999997616,102617.69999992847,100874.724,100860.69999992847,100891.325,102644.826,1,16,6,
sequence,flow.Sequence,4_5,2023-11-17T19:39:50.537Z,,,,,,,,,,,1726.3749999284773,completion,,,,,,,low,low,,,,,,true,,,,,false,102618.09999990463,102617.69999992847,100874.724,100860.69999992847,100891.325,102644.826,1,16,,
trial,html.Screen,4_6_0,2023-11-17T19:39:57.760Z,,,,0,1.089914260719518,1.1695563571046357,,,true,ll,7195.773999904632,response,-1.1510001454240106,1.2,-1.2,-1.132540312667795,1.2,-1.2,low,low,,ISIC_0030695.JPG,,ISIC_0009959.JPG,25,true,0.15000000000000002,ll,keypress(f),100,false,109840.79999995232,109840.59999990463,102628.236,102618.19999992847,102644.826,109858.772,1,16,7,
sequence,flow.Sequence,4_6,2023-11-17T19:39:57.760Z,,,,,,,,,,,7195.773999904632,completion,,,,,,,low,low,,,,,,true,,,,,false,109841.09999990463,109840.59999990463,102628.236,102618.19999992847,102644.826,109858.772,1,16,,
trial,html.Screen,4_7_0,2023-11-17T19:40:00.096Z,,,,0,1.089914260719518,1.1695563571046357,,,true,ll,2315.3279999046354,response,-1.2200968917423711,1.2,-1.2,-1.3183466064109373,1.2,-1.2,low,low,,ISIC_0030695.JPG,,ISIC_3624318.JPG,25,true,0.15000000000000002,ll,keypress(f),100,false,112174.09999990463,112174.09999990463,109842.046,109841.29999995232,109858.772,112196.607,1,16,8,
sequence,flow.Sequence,4_7,2023-11-17T19:40:00.096Z,,,,,,,,,,,2315.3279999046354,completion,,,,,,,low,low,,,,,,true,,,,,false,112174.39999997616,112174.09999990463,109842.046,109841.19999992847,109858.772,112196.607,1,16,,
trial,html.Screen,4_8_0,2023-11-17T19:40:05.913Z,,,,0,-0.8479396253253069,1.011054319516718,,,true,hl,5794.092999928471,response,1.155796217969438,1.2,-1.2,-1.1646564121743912,1.2,-1.2,high,low,,ISIC_0063521.JPG,,ISIC_2685523.JPG,26,true,0.3300000000000002,hl,keypress(j),100,false,117990.79999995232,117990.69999992847,112179.941,112174.5,112196.607,118007.912,1,16,9,
sequence,flow.Sequence,4_8,2023-11-17T19:40:05.913Z,,,,,,,,,,,5794.092999928471,completion,,,,,,,high,low,,,,,,true,,,,,false,117990.89999997616,117990.69999992847,112179.941,112174.39999997616,112196.607,118007.912,1,16,,
trial,html.Screen,4_9_0,2023-11-17T19:40:07.900Z,,,,0,-1.225025174430573,0.8422679054456499,,,true,hl,1970.3879999523197,response,1.2463522959513311,1.2,-1.2,-0.8691422647859491,1.2,-1.2,high,low,,ISIC_7503950.JPG,,ISIC_0057192.JPG,33,true,0.3600000000000002,hl,keypress(j),100,false,119978.39999997616,119978.29999995232,117991.203,117991,118007.912,119995.113,1,16,10,
sequence,flow.Sequence,4_9,2023-11-17T19:40:07.900Z,,,,,,,,,,,1970.3879999523197,completion,,,,,,,high,low,,,,,,true,,,,,false,119978.59999990463,119978.29999995232,117991.203,117991,118007.912,119995.113,1,16,,
trial,html.Screen,4_10_0,2023-11-17T19:40:09.663Z,,,,0,-1.3559315773956395,0.924768326187701,,,true,hl,1745.8870000000024,response,1.155796217969438,1.2,-1.2,-1.1646564121743912,1.2,-1.2,high,low,,ISIC_5101111.JPG,,ISIC_2685523.JPG,33,true,0.3600000000000002,hl,keypress(j),100,false,121741.29999995232,121741,119978.408,119978.69999992847,119995.113,121765.218,1,16,11,
sequence,flow.Sequence,4_10,2023-11-17T19:40:09.664Z,,,,,,,,,,,1745.8870000000024,completion,,,,,,,high,low,,,,,,true,,,,,false,121741.89999997616,121741,119978.408,119978.69999992847,119995.113,121765.218,1,16,,
trial,html.Screen,4_11_0,2023-11-17T19:40:11.308Z,,,,0,-1.0143509683988825,1.0281980567462463,,,true,hl,1620.981999928481,response,1.0961318727760048,1.2,-1.2,-1.2134960228256146,1.2,-1.2,high,low,,ISIC_0062031.JPG,,ISIC_9768421.JPG,33,true,0.3600000000000002,hl,keypress(j),100,false,123386.29999995232,123386.19999992847,121748.545,121742.19999992847,121765.218,123418.539,1,16,12,
sequence,flow.Sequence,4_11,2023-11-17T19:40:11.308Z,,,,,,,,,,,1620.981999928481,completion,,,,,,,high,low,,,,,,true,,,,,false,123386.5,123386.19999992847,121748.545,121742.09999990463,121765.218,123418.539,1,16,,
trial,html.Screen,4_12_0,2023-11-17T19:40:20.513Z,,,,0,-1.073296525451802,-1.3454282740421717,,,true,hh,9172.260999952312,response,0.9453986743399044,1.2,-1.2,1.1220583709928147,1.2,-1.2,high,high,,ISIC_5787312.JPG,,ISIC_0068696.JPG,249,true,0.3600000000000002,hh,keypress(i),100,false,132591.09999990463,132590.79999995232,123401.721,123386.59999990463,123418.539,132619.716,1,16,13,
sequence,flow.Sequence,4_12,2023-11-17T19:40:20.513Z,,,,,,,,,,,9172.260999952312,completion,,,,,,,high,high,,,,,,true,,,,,false,132591.5,132590.79999995232,123401.721,123386.5,123418.539,132619.716,1,16,,
trial,html.Screen,4_13_0,2023-11-17T19:40:21.999Z,,,,0,-1.0878102877901663,-1.3154097543539391,,,true,hh,1457.4839999284886,response,1.1671212908494544,1.2,-1.2,1.1286681796701683,1.2,-1.2,high,high,,ISIC_1413242.JPG,,ISIC_0065022.JPG,41,true,0.15000000000000002,hh,keypress(i),100,false,134077.39999997616,134077.19999992847,132602.997,132591.69999992847,132619.716,134105.869,1,16,14,
sequence,flow.Sequence,4_13,2023-11-17T19:40:21.999Z,,,,,,,,,,,1457.4839999284886,completion,,,,,,,high,high,,,,,,true,,,,,false,134077.69999992847,134077.19999992847,132602.997,132591.59999990463,132619.716,134105.869,1,16,,
trial,html.Screen,4_14_0,2023-11-17T19:40:23.494Z,,,,0,-1.1305948371148624,-1.2802709447034604,,,true,hh,1466.2309999046265,response,1.189469386514313,1.2,-1.2,1.3008582067137853,1.2,-1.2,high,high,,ISIC_5648111.JPG,,ISIC_0010644.JPG,41,true,0.15000000000000002,hh,keypress(i),100,false,135572.29999995232,135572.09999990463,134089.221,134077.79999995232,134105.869,135592.172,1,16,15,
sequence,flow.Sequence,4_14,2023-11-17T19:40:23.494Z,,,,,,,,,,,1466.2309999046265,completion,,,,,,,high,high,,,,,,true,,,,,false,135572.39999997616,135572.09999990463,134089.221,134077.79999995232,134105.869,135592.172,1,16,,
trial,html.Screen,4_15_0,2023-11-17T19:40:25.309Z,,,,0,-1.3471772753257971,-1.055978100098093,,,true,hh,1795.027999928483,response,1.3132505134129506,1.2,-1.2,1.0949928516457437,1.2,-1.2,high,high,,ISIC_2077116.JPG,,ISIC_0066935.JPG,41,true,0.15000000000000002,hh,keypress(i),100,false,137387.19999992847,137387.19999992847,135575.392,135572.59999990463,135592.172,137412.47,1,16,16,
sequence,flow.Sequence,4_15,2023-11-17T19:40:25.309Z,,,,,,,,,,,1795.027999928483,completion,,,,,,,high,high,,,,,,true,,,,,false,137387.39999997616,137387.19999992847,135575.392,135572.5,135592.172,137412.47,1,16,,
demonstration_loop,flow.Loop,4,2023-11-17T19:40:25.309Z,,,,,,,,,,,63264.66399992848,completion,,,,,,,,,,,,,,true,,,,,false,137387.5,137387.19999992847,74105.867,74091.89999997616,74122.536,137412.47,1,16,,
practice_instructions,html.Screen,5,2023-11-17T19:40:28.117Z,,,,,,,,,,,2782.6299999046314,response,,,,,,,,,,,,,,,,continue,click button,,,140195.5,140195.09999990463,137395.649,137387.59999990463,137412.47,140201.027,,,,
trial,html.Screen,6_0_0,2023-11-17T19:40:44.105Z,,,,1,-1.1604734171556077,-1.0789312625280616,,,,,16014.592000000004,timeout,1.1715181192107684,1.2,-1.2,1.2251845559044463,1.2,-1.2,high,high,,ISIC_3950753.JPG,,ISIC_0011957.JPG,27,true,0.12,,,0,false,156182.79999995232,156182.59999990463,140184.618,140195.59999990463,140201.027,156215.619,1,40,1,
sequence,flow.Sequence,6_0,2023-11-17T19:40:44.105Z,,,,,,,,,,,15981.57299990463,completion,,,,,,,high,high,,,,,,true,,,,,false,156182.89999997616,156182.59999990463,140184.618,140195.59999990463,140201.027,156215.619,1,40,,
trial,html.Screen,6_1_0,2023-11-17T19:40:46.678Z,,,,1,-1.0003671514840182,0.8992716557663581,,,false,hl,2540.4809999046265,response,1.055319394932912,1.2,-1.2,-1.409116680310466,1.2,-1.2,high,low,,ISIC_0061749.JPG,,ISIC_6398669.JPG,26,true,0.3300000000000002,hh,keypress(i),0,false,158756.29999995232,158756.09999990463,156198.853,156183,156215.619,158770.543,1,40,2,
sequence,flow.Sequence,6_1,2023-11-17T19:40:46.678Z,,,,,,,,,,,2540.4809999046265,completion,,,,,,,high,low,,,,,,true,,,,,false,158756.5,158756.09999990463,156198.853,156183,156215.619,158770.543,1,40,,
trial,html.Screen,6_2_0,2023-11-17T19:40:49.414Z,,,,1,0.9448560599810628,-0.9099421612683488,,,true,lh,2721.1569999284693,response,-0.8494721812820843,1.2,-1.2,1.3435429139974266,1.2,-1.2,low,high,,ISIC_9684318.JPG,,ISIC_0033585.JPG,29,true,0.3600000000000002,lh,keypress(e),0,false,161491.79999995232,161491.69999992847,158753.888,158756.59999990463,158770.543,161509.593,1,40,3,
sequence,flow.Sequence,6_2,2023-11-17T19:40:49.414Z,,,,,,,,,,,2721.1569999284693,completion,,,,,,,low,high,,,,,,true,,,,,false,161491.89999997616,161491.69999992847,158753.888,158756.59999990463,158770.543,161509.593,1,40,,
trial,html.Screen,6_3_0,2023-11-17T19:40:51.966Z,,,,1,1.2974483548597415,1.2071506593281005,,,false,ll,2534.606999928481,response,-0.8839757968937295,1.2,-1.2,-0.9422051867002986,1.2,-1.2,low,low,,ISIC_0011007.JPG,,ISIC_6739241.JPG,127,true,0.3300000000000002,lh,keypress(e),0,false,164044.5,164044.19999992847,161475.874,161492,161509.593,164064.125,1,40,4,
sequence,flow.Sequence,6_3,2023-11-17T19:40:51.967Z,,,,,,,,,,,2534.606999928481,completion,,,,,,,low,low,,,,,,true,,,,,false,164044.79999995232,164044.19999992847,161475.874,161492,161509.593,164064.125,1,40,,
trial,html.Screen,6_4_0,2023-11-17T19:40:56.310Z,,,,1,-1.1235224875125256,0.8641223012137988,,,false,hl,4324.174999952316,response,1.2043484010107477,1.2,-1.2,-1.2178113180138233,1.2,-1.2,high,low,,ISIC_0033901.JPG,,ISIC_0011917.JPG,26,true,0.3300000000000002,ll,keypress(f),0,false,168388.5,168388.29999995232,164030.978,164044.89999997616,164064.125,168406.154,1,40,5,
sequence,flow.Sequence,6_4,2023-11-17T19:40:56.311Z,,,,,,,,,,,4324.174999952316,completion,,,,,,,high,low,,,,,,true,,,,,false,168388.69999992847,168388.29999995232,164030.978,164044.89999997616,164064.125,168406.154,1,40,,
trial,html.Screen,6_5_0,2023-11-17T19:41:01.776Z,,,,1,-1.1363600109870835,-1.295816345369928,,,true,hh,5445.445999904623,response,1.4640287979846858,1.2,-1.2,0.9843183885836532,1.2,-1.2,high,high,,ISIC_0026141.JPG,,ISIC_0053540.JPG,249,true,0.3600000000000002,hh,keypress(i),0,false,173851.79999995232,173851.59999990463,168372.621,168388.89999997616,168406.154,173866.54,1,40,6,
sequence,flow.Sequence,6_5,2023-11-17T19:41:01.776Z,,,,,,,,,,,5445.445999904623,completion,,,,,,,high,high,,,,,,true,,,,,false,173851.89999997616,173851.59999990463,168372.621,168388.79999995232,168406.154,173866.54,1,40,,
trial,html.Screen,6_6_0,2023-11-17T19:41:06.000Z,,,,1,0.9566823908868002,-0.9602125665128364,,,true,lh,4209.659999928466,response,-1.411763789273233,1.2,-1.2,1.0057734478347988,1.2,-1.2,low,high,,ISIC_0056784.JPG,,ISIC_0027235.JPG,29,true,0.3600000000000002,lh,keypress(e),0,false,178076.39999997616,178076.19999992847,173850.032,173852,173866.54,178091.43,1,40,7,
sequence,flow.Sequence,6_6,2023-11-17T19:41:06.000Z,,,,,,,,,,,4209.659999928466,completion,,,,,,,low,high,,,,,,true,,,,,false,178076.59999990463,178076.19999992847,173850.032,173851.89999997616,173866.54,178091.43,1,40,,
trial,html.Screen,6_7_0,2023-11-17T19:41:09.464Z,,,,1,-1.0003671514840182,0.8992716557663581,,,true,hl,3448.6699999046396,response,1.0700930503975157,1.2,-1.2,-0.923753102263735,1.2,-1.2,high,low,,ISIC_0061749.JPG,,ISIC_0000022.JPG,26,true,0.3300000000000002,hl,keypress(j),0,false,181540.29999995232,181540.09999990463,178074.826,178076.69999992847,178091.43,181548.207,1,40,8,
sequence,flow.Sequence,6_7,2023-11-17T19:41:09.464Z,,,,,,,,,,,3448.6699999046396,completion,,,,,,,high,low,,,,,,true,,,,,false,181540.59999990463,181540.09999990463,178074.826,178076.69999992847,178091.43,181548.207,1,40,,
trial,html.Screen,6_8_0,2023-11-17T19:41:10.952Z,,,,1,1.1407514641016443,1.280017651202714,,,false,ll,1479.6929999761633,response,-0.9520649807922285,1.2,-1.2,-1.2060773672502134,1.2,-1.2,low,low,,ISIC_0072507.JPG,,ISIC_9439742.JPG,157,true,0.3600000000000002,hl,keypress(j),0,false,183028.09999990463,183027.89999997616,181531.544,181540.69999992847,181548.207,183034.335,1,40,9,
sequence,flow.Sequence,6_8,2023-11-17T19:41:10.952Z,,,,,,,,,,,1479.6929999761633,completion,,,,,,,low,low,,,,,,true,,,,,false,183028.29999995232,183027.89999997616,181531.544,181540.59999990463,181548.207,183034.335,1,40,,
trial,html.Screen,6_9_0,2023-11-17T19:41:18.464Z,,,,1,0.9448560599810628,-0.9099421612683488,,,false,lh,7505.964999952324,response,-1.3515962101204746,1.2,-1.2,0.8414583575292955,1.2,-1.2,low,high,,ISIC_9684318.JPG,,ISIC_0274382.JPG,29,true,0.3600000000000002,hh,keypress(i),0,false,190540.5,190540.29999995232,183017.792,183028.29999995232,183034.335,190548.99,1,40,10,
sequence,flow.Sequence,6_9,2023-11-17T19:41:18.465Z,,,,,,,,,,,7505.964999952324,completion,,,,,,,low,high,,,,,,true,,,,,false,190540.89999997616,190540.29999995232,183017.792,183028.29999995232,183034.335,190548.99,1,40,,
trial,html.Screen,6_10_0,2023-11-17T19:41:21.209Z,,,,1,-0.8779374983479176,0.9745548032823428,,,true,hl,2735.8099999523256,response,1.2609895831255231,1.2,-1.2,-1.0687377724194886,1.2,-1.2,high,low,,ISIC_2991354.JPG,,ISIC_1367610.JPG,26,true,0.3300000000000002,hl,keypress(j),0,false,193285.09999990463,193284.79999995232,190532.445,190541.09999990463,190548.99,193287.715,1,40,11,
sequence,flow.Sequence,6_10,2023-11-17T19:41:21.209Z,,,,,,,,,,,2735.8099999523256,completion,,,,,,,high,low,,,,,,true,,,,,false,193285.5,193284.79999995232,190532.445,190541,190548.99,193287.715,1,40,,
trial,html.Screen,6_11_0,2023-11-17T19:41:25.432Z,,,,1,-1.1655508270784471,-1.1162776063248168,,,true,hh,4220.384999904636,response,1.0561331896671369,1.2,-1.2,1.026183861508091,1.2,-1.2,high,high,,ISIC_5509946.JPG,,ISIC_0026595.JPG,249,true,0.3600000000000002,hh,keypress(i),0,false,197508.29999995232,197508.09999990463,193271.103,193285.69999992847,193287.715,197512.564,1,40,12,
sequence,flow.Sequence,6_11,2023-11-17T19:41:25.432Z,,,,,,,,,,,4220.384999904636,completion,,,,,,,high,high,,,,,,true,,,,,false,197508.59999990463,197508.09999990463,193271.103,193285.59999990463,193287.715,197512.564,1,40,,
trial,html.Screen,6_12_0,2023-11-17T19:41:28.471Z,,,,1,1.089914260719518,1.1695563571046357,,,false,ll,3034.835999976145,response,-1.1727618800748076,1.2,-1.2,-1.0636787813411093,1.2,-1.2,low,low,,ISIC_0030695.JPG,,ISIC_9690371.JPG,25,true,0.15000000000000002,hh,keypress(i),0,false,200547.5,200547.39999997616,197496.025,197508.79999995232,197512.564,200568.449,1,40,13,
sequence,flow.Sequence,6_12,2023-11-17T19:41:28.471Z,,,,,,,,,,,3034.835999976145,completion,,,,,,,low,low,,,,,,true,,,,,false,200547.59999990463,200547.39999997616,197496.025,197508.79999995232,197512.564,200568.449,1,40,,
trial,html.Screen,6_13_0,2023-11-17T19:41:31.568Z,,,,1,-1.0143509683988825,1.0281980567462463,,,true,hl,3075.450999976165,response,1.296989496412063,1.2,-1.2,-1.1425074323097002,1.2,-1.2,high,low,,ISIC_0062031.JPG,,ISIC_6356803.JPG,26,true,0.3300000000000002,hl,keypress(j),0,false,203644,203643.89999997616,200535.292,200547.59999990463,200568.449,203657.826,1,40,14,
sequence,flow.Sequence,6_13,2023-11-17T19:41:31.568Z,,,,,,,,,,,3075.450999976165,completion,,,,,,,high,low,,,,,,true,,,,,false,203644.19999992847,203643.89999997616,200535.292,200547.59999990463,200568.449,203657.826,1,40,,
trial,html.Screen,6_14_0,2023-11-17T19:41:40.040Z,,,,1,-1.0581281450494728,-1.133169116569424,,,true,hh,8457.873999928473,response,1.2289750544294995,1.2,-1.2,1.3003764624334877,1.2,-1.2,high,high,,ISIC_5490352.JPG,,ISIC_0054167.JPG,249,true,0.3600000000000002,hh,keypress(i),0,false,212115.89999997616,212115.69999992847,203641.181,203644.39999997616,203657.826,212124.25,1,40,15,
sequence,flow.Sequence,6_14,2023-11-17T19:41:40.040Z,,,,,,,,,,,8457.873999928473,completion,,,,,,,high,high,,,,,,true,,,,,false,212116,212115.69999992847,203641.181,203644.39999997616,203657.826,212124.25,1,40,,
trial,html.Screen,6_15_0,2023-11-17T19:41:45.376Z,,,,1,1.1894733304494307,1.1169761866204877,,,true,ll,5328.25,response,-1.2714351764931109,1.2,-1.2,-1.0785174776187512,1.2,-1.2,low,low,,ISIC_0033813.JPG,,ISIC_2454898.JPG,25,true,0.15000000000000002,ll,keypress(f),0,false,217452.69999992847,217452.5,212107.739,212116.09999990463,212124.25,217484.708,1,40,16,
sequence,flow.Sequence,6_15,2023-11-17T19:41:45.377Z,,,,,,,,,,,5328.25,completion,,,,,,,low,low,,,,,,true,,,,,false,217452.89999997616,217452.5,212107.739,212116,212124.25,217484.708,1,40,,
trial,html.Screen,6_16_0,2023-11-17T19:41:51.128Z,,,,1,1.0345332538240786,-1.4719115945084815,,,true,lh,5719.191999976145,response,-0.8779374983479176,1.2,-1.2,0.9745548032823428,1.2,-1.2,low,high,,ISIC_0192490.JPG,,ISIC_2991354.JPG,29,true,0.3600000000000002,lh,keypress(e),0,false,223204,223203.89999997616,217451.279,217453.09999990463,217484.708,223212.525,1,40,17,
sequence,flow.Sequence,6_16,2023-11-17T19:41:51.128Z,,,,,,,,,,,5719.191999976145,completion,,,,,,,low,high,,,,,,true,,,,,false,223204.19999992847,223203.89999997616,217451.279,217453.09999990463,217484.708,223212.525,1,40,,
trial,html.Screen,6_17_0,2023-11-17T19:41:59.130Z,,,,1,-1.1638334638021437,-1.0846635401396965,,,false,hh,7991.574999904638,response,0.903200901040808,1.2,-1.2,0.8884252535933715,1.2,-1.2,high,high,,ISIC_4718313.JPG,,ISIC_0065260.JPG,211,true,0.3300000000000002,lh,keypress(e),0,false,231204.29999995232,231204.09999990463,223195.794,223204.29999995232,223212.525,231211.42,1,40,18,
sequence,flow.Sequence,6_17,2023-11-17T19:41:59.130Z,,,,,,,,,,,7991.574999904638,completion,,,,,,,high,high,,,,,,true,,,,,false,231204.5,231204.09999990463,223195.794,223204.19999992847,223212.525,231211.42,1,40,,
trial,html.Screen,6_18_0,2023-11-17T19:42:05.138Z,,,,1,-1.3045229691102764,-1.1781544075681951,,,true,hh,6000.3799999523035,response,1.2059606637811695,1.2,-1.2,1.214966446488752,1.2,-1.2,high,high,,ISIC_6148533.JPG,,ISIC_0013334.JPG,41,true,0.15000000000000002,hh,keypress(i),0,false,237211.89999997616,237211.79999995232,231194.873,231204.69999992847,231211.42,237239.789,1,40,19,
sequence,flow.Sequence,6_18,2023-11-17T19:42:05.138Z,,,,,,,,,,,6000.3799999523035,completion,,,,,,,high,high,,,,,,true,,,,,false,237212.09999990463,237211.79999995232,231194.873,231204.59999990463,231211.42,237239.789,1,40,,
trial,html.Screen,6_19_0,2023-11-17T19:42:07.274Z,,,,1,-0.8644465729542988,0.8679598285079457,,,true,hl,2108.5109999523265,response,1.296989496412063,1.2,-1.2,-1.1425074323097002,1.2,-1.2,high,low,,ISIC_6718969.JPG,,ISIC_6356803.JPG,26,true,0.3300000000000002,hl,keypress(j),0,false,239348.59999990463,239348.29999995232,237206.446,237212.19999992847,237239.789,239360.767,1,40,20,
sequence,flow.Sequence,6_19,2023-11-17T19:42:07.275Z,,,,,,,,,,,2108.5109999523265,completion,,,,,,,high,low,,,,,,true,,,,,false,239348.89999997616,239348.29999995232,237206.446,237212.09999990463,237239.789,239360.767,1,40,,
trial,html.Screen,6_20_0,2023-11-17T19:42:11.186Z,,,,1,1.1711612520017805,1.191169949562454,,,false,ll,3899.432999928482,response,-1.294521945180264,1.2,-1.2,-1.3078626540563885,1.2,-1.2,low,low,,ISIC_0061936.JPG,,ISIC_3601224.JPG,157,true,0.3600000000000002,lh,keypress(e),0,false,243260.39999997616,243260.19999992847,239344.023,239349.09999990463,239360.767,243284.885,1,40,21,
sequence,flow.Sequence,6_20,2023-11-17T19:42:11.186Z,,,,,,,,,,,3899.432999928482,completion,,,,,,,low,low,,,,,,true,,,,,false,243260.69999992847,243260.19999992847,239344.023,239349.09999990463,239360.767,243284.885,1,40,,
trial,html.Screen,6_21_0,2023-11-17T19:42:15.226Z,,,,1,0.9225524349657857,-0.929746784178986,,,true,lh,4015.2149999046233,response,-1.3411487193830047,1.2,-1.2,1.198640448317381,1.2,-1.2,low,high,,ISIC_0011077.JPG,,ISIC_3093026.JPG,29,true,0.3600000000000002,lh,keypress(e),0,false,247300.19999992847,247300.09999990463,243251.469,243260.79999995232,243284.885,247309.407,1,40,22,
sequence,flow.Sequence,6_21,2023-11-17T19:42:15.226Z,,,,,,,,,,,4015.2149999046233,completion,,,,,,,low,high,,,,,,true,,,,,false,247300.5,247300.09999990463,243251.469,243260.79999995232,243284.885,247309.407,1,40,,
trial,html.Screen,6_22_0,2023-11-17T19:42:17.642Z,,,,1,-1.3411487193830047,1.198640448317381,,,true,hl,2406.3929999523098,response,1.1592423187534993,1.2,-1.2,-1.067128884093211,1.2,-1.2,high,low,,ISIC_3093026.JPG,,ISIC_6854940.JPG,26,true,0.3300000000000002,hl,keypress(j),0,false,249715.79999995232,249715.79999995232,247292.765,247300.79999995232,247309.407,249730.905,1,40,23,
sequence,flow.Sequence,6_22,2023-11-17T19:42:17.642Z,,,,,,,,,,,2406.3929999523098,completion,,,,,,,high,low,,,,,,true,,,,,false,249716,249715.79999995232,247292.765,247300.69999992847,247309.407,249730.905,1,40,,
trial,html.Screen,6_23_0,2023-11-17T19:42:23.010Z,,,,1,0.9873794329144926,-0.9500689037516484,,,false,lh,5353.194999904634,response,-1.4727776799485246,1.2,-1.2,0.8779113138076752,1.2,-1.2,low,high,,ISIC_0013498.JPG,,ISIC_0033074.JPG,29,true,0.3600000000000002,ll,keypress(f),0,false,255084.19999992847,255084.09999990463,249714.181,249716.09999990463,249730.905,255091.146,1,40,24,
sequence,flow.Sequence,6_23,2023-11-17T19:42:23.010Z,,,,,,,,,,,5353.194999904634,completion,,,,,,,low,high,,,,,,true,,,,,false,255084.5,255084.09999990463,249714.181,249716,249730.905,255091.146,1,40,,
trial,html.Screen,6_24_0,2023-11-17T19:42:28.234Z,,,,1,-1.1305948371148624,-1.2802709447034604,,,true,hh,5216.653999952308,response,0.903200901040808,1.2,-1.2,0.8884252535933715,1.2,-1.2,high,high,,ISIC_5648111.JPG,,ISIC_0065260.JPG,211,true,0.3300000000000002,hh,keypress(i),0,false,260308,260307.79999995232,255074.712,255084.59999990463,255091.146,260318.035,1,40,25,
sequence,flow.Sequence,6_24,2023-11-17T19:42:28.234Z,,,,,,,,,,,5216.653999952308,completion,,,,,,,high,high,,,,,,true,,,,,false,260308.59999990463,260307.79999995232,255074.712,255084.59999990463,255091.146,260318.035,1,40,,
trial,html.Screen,6_25_0,2023-11-17T19:42:31.498Z,,,,1,-1.1510001454240106,-1.132540312667795,,,true,hh,3253.664999928471,response,1.1407514641016443,1.2,-1.2,1.280017651202714,1.2,-1.2,high,high,,ISIC_0009959.JPG,,ISIC_0072507.JPG,41,true,0.15000000000000002,hh,keypress(i),0,false,263571.7999999523,263571.6999999285,260301.44,260308.79999995232,260318.035,263591.048,1,40,26,
sequence,flow.Sequence,6_25,2023-11-17T19:42:31.498Z,,,,,,,,,,,3253.664999928471,completion,,,,,,,high,high,,,,,,true,,,,,false,263572,263571.6999999285,260301.44,260308.79999995232,260318.035,263591.048,1,40,,
trial,html.Screen,6_26_0,2023-11-17T19:42:34.434Z,,,,1,-1.3515962101204746,0.8414583575292955,,,true,hl,2917.1519999284646,response,1.0822170028935367,1.2,-1.2,-1.1654796154432183,1.2,-1.2,high,low,,ISIC_0274382.JPG,,ISIC_7288818.JPG,26,true,0.3300000000000002,hl,keypress(j),0,false,266508.2999999523,266508.1999999285,263557.657,263572,263591.048,266513.41,1,40,27,
sequence,flow.Sequence,6_26,2023-11-17T19:42:34.434Z,,,,,,,,,,,2917.1519999284646,completion,,,,,,,high,low,,,,,,true,,,,,false,266508.5,266508.1999999285,263557.657,263572,263591.048,266513.41,1,40,,
trial,html.Screen,6_27_0,2023-11-17T19:42:38.986Z,,,,1,-1.1168199061753437,-1.212287319329914,,,true,hh,4546.389999952342,response,1.1894639707647994,1.2,-1.2,0.8576622545513327,1.2,-1.2,high,high,,ISIC_5919355.JPG,,ISIC_0032858.JPG,249,true,0.3600000000000002,hh,keypress(i),0,false,271060,271059.7999999523,266496.834,266508.6999999285,266513.41,271088.961,1,40,28,
sequence,flow.Sequence,6_27,2023-11-17T19:42:38.986Z,,,,,,,,,,,4546.389999952342,completion,,,,,,,high,high,,,,,,true,,,,,false,271060.09999990463,271059.7999999523,266496.834,266508.59999990463,266513.41,271088.961,1,40,,
trial,html.Screen,6_28_0,2023-11-17T19:42:42.770Z,,,,1,1.0700930503975157,-0.923753102263735,,,true,lh,3754.738999928464,response,-1.3411487193830047,1.2,-1.2,1.198640448317381,1.2,-1.2,low,high,,ISIC_0000022.JPG,,ISIC_3093026.JPG,29,true,0.3600000000000002,lh,keypress(e),0,false,274843.7999999523,274843.6999999285,271055.654,271060.2999999523,271088.961,274846.24,1,40,29,
sequence,flow.Sequence,6_28,2023-11-17T19:42:42.770Z,,,,,,,,,,,3754.738999928464,completion,,,,,,,low,high,,,,,,true,,,,,false,274843.89999997616,274843.6999999285,271055.654,271060.2999999523,271088.961,274846.24,1,40,,
trial,html.Screen,6_29_0,2023-11-17T19:42:44.666Z,,,,1,1.296989496412063,-1.1425074323097002,,,true,lh,1893.5599999523256,response,-1.3559315773956395,1.2,-1.2,0.924768326187701,1.2,-1.2,low,high,,ISIC_6356803.JPG,,ISIC_5101111.JPG,29,true,0.3600000000000002,lh,keypress(e),0,false,276739.89999997616,276739.7999999523,274829.636,274844,274846.24,276750.117,1,40,30,
sequence,flow.Sequence,6_29,2023-11-17T19:42:44.666Z,,,,,,,,,,,1893.5599999523256,completion,,,,,,,low,high,,,,,,true,,,,,false,276740.09999990463,276739.7999999523,274829.636,274844,274846.24,276750.117,1,40,,
trial,html.Screen,6_30_0,2023-11-17T19:42:46.833Z,,,,1,1.1711612520017805,1.191169949562454,,,false,ll,2157.3829999999725,response,-1.09666761087476,1.2,-1.2,-0.9917482735105084,1.2,-1.2,low,low,,ISIC_0061936.JPG,,ISIC_0071754.JPG,127,true,0.3300000000000002,lh,keypress(e),0,false,278907.59999990463,278907.5,276733.241,276740.09999990463,276750.117,278921.083,1,40,31,
sequence,flow.Sequence,6_30,2023-11-17T19:42:46.833Z,,,,,,,,,,,2157.3829999999725,completion,,,,,,,low,low,,,,,,true,,,,,false,278907.6999999285,278907.5,276733.241,276740.09999990463,276750.117,278921.083,1,40,,
trial,html.Screen,6_31_0,2023-11-17T19:42:50.218Z,,,,1,1.2059606637811695,1.214966446488752,,,false,ll,3371.1169999284903,response,-1.301795918505203,1.2,-1.2,-1.0518606632781424,1.2,-1.2,low,low,,ISIC_0013334.JPG,,ISIC_0027666.JPG,25,true,0.15000000000000002,lh,keypress(e),0,false,282292.2999999523,282292.1999999285,278904.255,278907.89999997616,278921.083,282311.177,1,40,32,
sequence,flow.Sequence,6_31,2023-11-17T19:42:50.218Z,,,,,,,,,,,3371.1169999284903,completion,,,,,,,low,low,,,,,,true,,,,,false,282292.5,282292.1999999285,278904.255,278907.7999999523,278921.083,282311.177,1,40,,
trial,html.Screen,6_32_0,2023-11-17T19:42:54.154Z,,,,1,-1.2838089642212804,0.8550527900640753,,,true,hl,3916.5229999284493,response,0.8787496315223856,1.2,-1.2,-1.3680901203013998,1.2,-1.2,high,low,,ISIC_0034187.JPG,,ISIC_0023811.JPG,26,true,0.3300000000000002,hl,keypress(j),0,false,286227.89999997616,286227.6999999285,282277.601,282292.59999990463,282311.177,286235.07,1,40,33,
sequence,flow.Sequence,6_32,2023-11-17T19:42:54.154Z,,,,,,,,,,,3916.5229999284493,completion,,,,,,,high,low,,,,,,true,,,,,false,286228.09999990463,286227.6999999285,282277.601,282292.59999990463,282311.177,286235.07,1,40,,
trial,html.Screen,6_33_0,2023-11-17T19:42:56.122Z,,,,1,-1.0143509683988825,1.0281980567462463,,,true,hl,1961.2299999523093,response,1.2704198237183777,1.2,-1.2,-1.138121072015301,1.2,-1.2,high,low,,ISIC_0062031.JPG,,ISIC_0501843.JPG,33,true,0.3600000000000002,hl,keypress(j),0,false,288196.5,288196.2999999523,286218.463,286228.09999990463,286235.07,288205.599,1,40,34,
sequence,flow.Sequence,6_33,2023-11-17T19:42:56.123Z,,,,,,,,,,,1961.2299999523093,completion,,,,,,,high,low,,,,,,true,,,,,false,288196.7999999523,288196.2999999523,286218.463,286228.09999990463,286235.07,288205.599,1,40,,
trial,html.Screen,6_34_0,2023-11-17T19:43:03.516Z,,,,1,1.152619213055059,1.2957497771092716,,,true,ll,7382.300999976171,response,-1.0470046230517895,1.2,-1.2,-1.5415455548526504,1.2,-1.2,low,low,,ISIC_0061915.JPG,,ISIC_3471815.JPG,157,true,0.3600000000000002,ll,keypress(f),0,false,295588,295587.89999997616,288189.127,288197,288205.599,295603.496,1,40,35,
sequence,flow.Sequence,6_34,2023-11-17T19:43:03.516Z,,,,,,,,,,,7382.300999976171,completion,,,,,,,low,low,,,,,,true,,,,,false,295588.1999999285,295587.89999997616,288189.127,288197,288205.599,295603.496,1,40,,
trial,html.Screen,6_35_0,2023-11-17T19:43:09.124Z,,,,1,-1.204229955025689,-1.0874249761617445,,,true,hh,5592.20399992849,response,1.2040551955011098,1.2,-1.2,1.2664651062241792,1.2,-1.2,high,high,,ISIC_0056930.JPG,,ISIC_0068886.JPG,27,true,0.12,hh,keypress(i),0,false,301195.7999999523,301195.6999999285,295586.646,295588.1999999285,295603.496,301197.478,1,40,36,
sequence,flow.Sequence,6_35,2023-11-17T19:43:09.124Z,,,,,,,,,,,5592.20399992849,completion,,,,,,,high,high,,,,,,true,,,,,false,301195.89999997616,301195.6999999285,295586.646,295588.1999999285,295603.496,301197.478,1,40,,
trial,html.Screen,6_36_0,2023-11-17T19:43:11.267Z,,,,1,1.3034518282811869,1.0897657776277234,,,false,ll,2142.021999999997,response,-1.2200968917423711,1.2,-1.2,-1.3183466064109373,1.2,-1.2,low,low,,ISIC_0071988.JPG,,ISIC_3624318.JPG,25,true,0.15000000000000002,hl,keypress(j),0,false,303339.59999990463,303339.5,301180.782,301196,301197.478,303351.772,1,40,37,
sequence,flow.Sequence,6_36,2023-11-17T19:43:11.267Z,,,,,,,,,,,2142.021999999997,completion,,,,,,,low,low,,,,,,true,,,,,false,303339.6999999285,303339.5,301180.782,301196,301197.478,303351.772,1,40,,
trial,html.Screen,6_37_0,2023-11-17T19:43:15.612Z,,,,1,1.2232482867978696,1.2451219760556858,,,true,ll,4332.027999952319,response,-1.1604734171556077,1.2,-1.2,-1.0789312625280616,1.2,-1.2,low,low,,ISIC_0030889.JPG,,ISIC_3950753.JPG,25,true,0.15000000000000002,ll,keypress(f),0,false,307684,307683.7999999523,303335.083,303339.6999999285,303351.772,307693.459,1,40,38,
sequence,flow.Sequence,6_37,2023-11-17T19:43:15.612Z,,,,,,,,,,,4332.027999952319,completion,,,,,,,low,low,,,,,,true,,,,,false,307684.2999999523,307683.7999999523,303335.083,303339.6999999285,303351.772,307693.459,1,40,,
trial,html.Screen,6_38_0,2023-11-17T19:43:17.636Z,,,,1,1.155796217969438,-1.1646564121743912,,,true,lh,2014.240999928501,response,-0.9039158082670506,1.2,-1.2,1.0517562064343149,1.2,-1.2,low,high,,ISIC_2685523.JPG,,ISIC_0015411.JPG,29,true,0.3600000000000002,lh,keypress(e),0,false,309707.7999999523,309707.6999999285,307676.835,307684.39999997616,307693.459,309714.046,1,40,39,
sequence,flow.Sequence,6_38,2023-11-17T19:43:17.636Z,,,,,,,,,,,2014.240999928501,completion,,,,,,,low,high,,,,,,true,,,,,false,309708,309707.6999999285,307676.835,307684.39999997616,307693.459,309714.046,1,40,,
trial,html.Screen,6_39_0,2023-11-17T19:43:19.244Z,,,,1,0.9566823908868002,-0.9602125665128364,,,true,lh,1602.0539999046596,response,-0.8591294258188253,1.2,-1.2,0.870797302150167,1.2,-1.2,low,high,,ISIC_0056784.JPG,,ISIC_0055841.JPG,29,true,0.3600000000000002,lh,keypress(e),0,false,311316.1999999285,311316.09999990463,309697.585,309708,309714.046,311335.131,1,40,40,
sequence,flow.Sequence,6_39,2023-11-17T19:43:19.244Z,,,,,,,,,,,1602.0539999046596,completion,,,,,,,low,high,,,,,,true,,,,,false,311316.39999997616,311316.09999990463,309697.585,309708,309714.046,311335.131,1,40,,
practice_loop,flow.Loop,6,2023-11-17T19:43:19.244Z,,,,,,,,,,,171115.07299990463,completion,,,,,,,,,,,,,,true,,,,,false,311316.5,311316.09999990463,140184.618,140195.59999990463,140201.027,311335.131,1,40,,
stair_instructions,html.Screen,7,2023-11-17T19:43:22.339Z,,,,,,,,,,,3075.869000000006,response,,,,,,,,,,,,,,,,continue,click button,,,314411.5,314411,311300.485,311316.59999990463,311335.131,314440.109,,,,
trial,html.Screen,8_0_0,2023-11-17T19:43:28.644Z,,,,2,-0.0063515208248796,-0.0194177605767913,,0.04,true,lh,6275.6909999523195,response,-0.9385447468573198,1.2,-1.2,1.2289860846064424,1.2,-1.2,low,high,,ISIC_5281908.JPG,,ISIC_0032780.JPG,29,false,0.3600000000000002,lh,keypress(e),0,true,320716,320715.7999999523,314423.393,314411.6999999285,314440.109,320735.529,1,40,1,
sequence,flow.Sequence,8_0,2023-11-17T19:43:28.644Z,,,,,,,,,,,6275.6909999523195,completion,,,,,,,low,high,,,,,,false,,,,,true,320716.1999999285,320715.7999999523,314423.393,314411.6999999285,314440.109,320735.529,1,40,,
trial,html.Screen,8_1_0,2023-11-17T19:43:35.716Z,,,,2,0.0057914759495055,-0.018500200317654,,0.04,true,hh,7052.170999928494,response,1.2315945866020412,1.15,-1.15,1.13226141421557,1.15,-1.15,high,high,,ISIC_0058723.JPG,,ISIC_0033595.JPG,25,false,0.11,hh,keypress(i),0,true,327787.7999999523,327787.6999999285,320718.823,320716.1999999285,320735.529,327799.222,1,40,2,
sequence,flow.Sequence,8_1,2023-11-17T19:43:35.716Z,,,,,,,,,,,7052.170999928494,completion,,,,,,,high,high,,,,,,false,,,,,true,327788,327787.6999999285,320718.823,320716.1999999285,320735.529,327799.222,1,40,,
trial,html.Screen,8_2_0,2023-11-17T19:43:37.788Z,,,,2,0.0118555311043871,0.0087774532070196,,0.04,false,ll,2061.277999999991,response,-1.1655508270784471,1.15,-1.15,-1.1162776063248168,1.1319280004088055,-1.15,low,low,,ISIC_6488658.JPG,,ISIC_5509946.JPG,26,false,0.14,hl,keypress(j),0,true,329860.59999990463,329860.5,327782.622,327788,327799.222,329869.976,1,40,3,
sequence,flow.Sequence,8_2,2023-11-17T19:43:37.789Z,,,,,,,,,,,2061.277999999991,completion,,,,,,,low,low,,,,,,false,,,,,true,329861,329860.5,327782.622,327788,327799.222,329869.976,1,40,,
trial,html.Screen,8_3_0,2023-11-17T19:43:41.859Z,,,,2,0.0377791839943904,-0.0227626648172468,,0.04,true,ll,4061.6239999046084,response,-1.1655508270784471,1.15,-1.15,-1.1162776063248168,1.1319280004088055,-1.15,low,low,,ISIC_7167479.JPG,,ISIC_5509946.JPG,26,false,0.14,ll,keypress(f),0,true,333931.6999999285,333931.59999990463,329853.489,329861.09999990463,329869.976,333944.676,1,40,4,
sequence,flow.Sequence,8_3,2023-11-17T19:43:41.860Z,,,,,,,,,,,4061.6239999046084,completion,,,,,,,low,low,,,,,,false,,,,,true,333931.7999999523,333931.59999990463,329853.489,329861.09999990463,329869.976,333944.676,1,40,,
trial,html.Screen,8_4_0,2023-11-17T19:43:45.163Z,,,,2,-0.0361875505619981,0.0291457404567876,,0.04,true,hh,3290.8240000000224,response,1.0561331896671369,1.15,-1.15,1.026183861508091,1.1319280004088055,-1.090914216701632,high,high,,ISIC_0027480.JPG,,ISIC_0026595.JPG,27,false,0.11,hh,keypress(i),0,true,337235.59999990463,337235.5,333928.067,333931.89999997616,333944.676,337251.216,1,40,5,
sequence,flow.Sequence,8_4,2023-11-17T19:43:45.163Z,,,,,,,,,,,3290.8240000000224,completion,,,,,,,high,high,,,,,,false,,,,,true,337235.7999999523,337235.5,333928.067,333931.89999997616,333944.676,337251.216,1,40,,
trial,html.Screen,8_5_0,2023-11-17T19:43:47.420Z,,,,2,0.0350697500805515,0.0166617848231997,,0.04,true,hl,2240.9839999284595,response,0.9212323139676136,0.9911585255876139,-1.15,-0.9882196642247332,1.1319280004088055,-1.090914216701632,high,low,,ISIC_0024423.JPG,,ISIC_0014255.JPG,27,false,0.21000000000000008,hl,keypress(j),0,true,339492.39999997616,339492.1999999285,337234.472,337235.7999999523,337251.216,339505.32,1,40,6,
sequence,flow.Sequence,8_5,2023-11-17T19:43:47.420Z,,,,,,,,,,,2240.9839999284595,completion,,,,,,,high,low,,,,,,false,,,,,true,339492.59999990463,339492.1999999285,337234.472,337235.7999999523,337251.216,339505.32,1,40,,
trial,html.Screen,8_6_0,2023-11-17T19:43:53.508Z,,,,2,-0.0321039635696159,-0.020496766286318,,0.04,true,lh,6074.579999976151,response,-1.3411487193830047,0.9911585255876139,-1.15,1.198640448317381,1.1319280004088055,-1.090914216701632,low,high,,ISIC_0058063.JPG,,ISIC_3093026.JPG,25,false,0.30000000000000016,lh,keypress(e),0,true,345580,345579.89999997616,339488.788,339492.6999999285,339505.32,345583.815,1,40,7,
sequence,flow.Sequence,8_6,2023-11-17T19:43:53.508Z,,,,,,,,,,,6074.579999976151,completion,,,,,,,low,high,,,,,,false,,,,,true,345580.1999999285,345579.89999997616,339488.788,339492.6999999285,339505.32,345583.815,1,40,,
trial,html.Screen,8_7_0,2023-11-17T19:43:58.550Z,,,,2,-0.0199897690678184,-0.0312486875504497,,0.04,true,hh,5035.984999952314,response,1.0048859018073242,0.9911585255876139,-1.0999999999999999,1.0825120442937108,1.0819280004088054,-1.090914216701632,high,high,,ISIC_5482426.JPG,,ISIC_0068080.JPG,40,false,0.1,hh,keypress(i),0,true,350619.89999997616,350619.7999999523,345567.295,345580.1999999285,345583.815,350626.981,1,40,8,
sequence,flow.Sequence,8_7,2023-11-17T19:43:58.550Z,,,,,,,,,,,5035.984999952314,completion,,,,,,,high,high,,,,,,false,,,,,true,350620.09999990463,350619.7999999523,345567.295,345580.1999999285,345583.815,350626.981,1,40,,
trial,html.Screen,8_8_0,2023-11-17T19:44:01.558Z,,,,2,-0.0199897690678184,-0.0312486875504497,,0.04,false,ll,3000.9189999761293,response,-1.09666761087476,0.9936989730505175,-1.0999999999999999,-0.9917482735105084,1.0819280004088054,-1.090914216701632,low,low,,ISIC_5482426.JPG,,ISIC_0071754.JPG,26,false,0.12,lh,keypress(e),0,true,353628,353627.89999997616,350610.475,350620.09999990463,350626.981,353632.824,1,40,9,
sequence,flow.Sequence,8_8,2023-11-17T19:44:01.558Z,,,,,,,,,,,3000.9189999761293,completion,,,,,,,low,low,,,,,,false,,,,,true,353628.2999999523,353627.89999997616,350610.475,350620.09999990463,350626.981,353632.824,1,40,,
trial,html.Screen,8_9_0,2023-11-17T19:44:03.550Z,,,,2,0.0023664502831079,0.0252784582169994,,0.04,true,hl,1987.1759999999776,response,0.8407642478899736,0.9936989730505175,-1.0999999999999999,-0.9542322753334054,1.0819280004088054,-1.140914216701632,high,low,,ISIC_4156010.JPG,,ISIC_9090822.JPG,29,false,0.22000000000000008,hl,keypress(j),0,true,355620.09999990463,355620,353616.238,353628.39999997616,353632.824,355636.751,1,40,10,
sequence,flow.Sequence,8_9,2023-11-17T19:44:03.550Z,,,,,,,,,,,1987.1759999999776,completion,,,,,,,high,low,,,,,,false,,,,,true,355620.2999999523,355620,353616.238,353628.39999997616,353632.824,355636.751,1,40,,
trial,html.Screen,8_10_0,2023-11-17T19:44:07.022Z,,,,2,0.0060918352854008,-0.029032683404407,,0.04,true,lh,3455.7490000000107,response,-1.2615315960773072,0.9936989730505175,-1.0999999999999999,1.194084675079932,1.0819280004088054,-1.140914216701632,low,high,,ISIC_8436194.JPG,,ISIC_0010044.JPG,27,false,0.2600000000000001,lh,keypress(e),0,true,359092.7999999523,359092.5,355620.032,355620.39999997616,355636.751,359110.295,1,40,11,
sequence,flow.Sequence,8_10,2023-11-17T19:44:07.023Z,,,,,,,,,,,3455.7490000000107,completion,,,,,,,low,high,,,,,,false,,,,,true,359093.1999999285,359092.5,355620.032,355620.39999997616,355636.751,359110.295,1,40,,
trial,html.Screen,8_11_0,2023-11-17T19:44:11.422Z,,,,2,-0.0127320821962457,0.0315308940184827,,0.04,true,hh,4382.004999952333,response,0.9858885614273278,0.9936989730505175,-1.0499999999999998,1.050716657084935,1.0319280004088054,-1.140914216701632,high,high,,ISIC_8156101.JPG,,ISIC_0055498.JPG,42,false,0.1,hh,keypress(i),0,true,363492.59999990463,363492.2999999523,359093.554,359093.39999997616,359110.295,363502.066,1,40,12,
sequence,flow.Sequence,8_11,2023-11-17T19:44:11.422Z,,,,,,,,,,,4382.004999952333,completion,,,,,,,high,high,,,,,,false,,,,,true,363492.7999999523,363492.2999999523,359093.554,359093.39999997616,359110.295,363502.066,1,40,,
trial,html.Screen,8_12_0,2023-11-17T19:44:13.613Z,,,,2,0.0050679133050021,0.0174815595031679,,0.04,false,hh,2181.633999928483,response,0.8847502213514871,0.9683026092561313,-1.0499999999999998,0.9725947392713435,1.0319280004088054,-1.140914216701632,high,high,,ISIC_9848743.JPG,,ISIC_0073044.JPG,40,false,0.1,hl,keypress(j),0,true,365683.7999999523,365683.6999999285,363485.513,363492.89999997616,363502.066,365689.573,1,40,13,
sequence,flow.Sequence,8_12,2023-11-17T19:44:13.614Z,,,,,,,,,,,2181.633999928483,completion,,,,,,,high,high,,,,,,false,,,,,true,365684,365683.6999999285,363485.513,363492.89999997616,363502.066,365689.573,1,40,,
trial,html.Screen,8_13_0,2023-11-17T19:44:15.798Z,,,,2,-0.0063515208248796,-0.0194177605767913,,0.04,false,ll,2178.427000000025,response,-0.9537595754201148,0.9683026092561313,-1.0499999999999998,-1.1342661775432377,1.0819280004088054,-1.140914216701632,low,low,,ISIC_5281908.JPG,,ISIC_0741694.JPG,26,false,0.12,hl,keypress(j),0,true,367868.09999990463,367868,365673.127,365684,365689.573,367877.216,1,40,14,
sequence,flow.Sequence,8_13,2023-11-17T19:44:15.798Z,,,,,,,,,,,2178.427000000025,completion,,,,,,,low,low,,,,,,false,,,,,true,367868.39999997616,367868,365673.127,365684,365689.573,367877.216,1,40,,
trial,html.Screen,8_14_0,2023-11-17T19:44:18.358Z,,,,2,0.0118555311043871,0.0087774532070196,,0.04,true,hl,2551.1839999761432,response,0.8035152873995188,0.9683026092561313,-1.0999999999999999,-1.2407642249743125,1.0819280004088054,-1.090914216701632,high,low,,ISIC_6488658.JPG,,ISIC_0010671.JPG,29,false,0.20000000000000007,hl,keypress(j),0,true,370428.59999990463,370428.39999997616,367860.699,367868.5,367877.216,370432.222,1,40,15,
sequence,flow.Sequence,8_14,2023-11-17T19:44:18.359Z,,,,,,,,,,,2551.1839999761432,completion,,,,,,,high,low,,,,,,false,,,,,true,370429,370428.39999997616,367860.699,367868.39999997616,367877.216,370432.222,1,40,,
trial,html.Screen,8_15_0,2023-11-17T19:44:21.758Z,,,,2,0.012810673904807,-0.00400964452501,,0.04,false,hh,3395.9779999284656,response,0.9293599144917216,0.9183026092561313,-1.0999999999999999,1.045616100036335,1.0819280004088054,-1.090914216701632,high,high,,ISIC_0064656.JPG,,ISIC_0011031.JPG,34,false,0.1,hl,keypress(j),0,true,373828.39999997616,373828.1999999285,370415.601,370429.09999990463,370432.222,373838.807,1,40,16,
sequence,flow.Sequence,8_15,2023-11-17T19:44:21.758Z,,,,,,,,,,,3395.9779999284656,completion,,,,,,,high,high,,,,,,false,,,,,true,373828.6999999285,373828.1999999285,370415.601,370429.09999990463,370432.222,373838.807,1,40,,
trial,html.Screen,8_16_0,2023-11-17T19:44:25.933Z,,,,2,0.0071892445601978,-0.0246015408628738,,0.04,false,ll,4164.693000000028,response,-1.1727618800748076,0.9183026092561313,-1.0999999999999999,-1.0636787813411093,1.1319280004088055,-1.090914216701632,low,low,,ISIC_0014133.JPG,,ISIC_9690371.JPG,26,false,0.12,hh,keypress(i),0,true,378003.59999990463,378003.5,373822.067,373828.6999999285,373838.807,378013.649,1,40,17,
sequence,flow.Sequence,8_16,2023-11-17T19:44:25.933Z,,,,,,,,,,,4164.693000000028,completion,,,,,,,low,low,,,,,,false,,,,,true,378003.6999999285,378003.5,373822.067,373828.6999999285,373838.807,378013.649,1,40,,
trial,html.Screen,8_17_0,2023-11-17T19:44:34.109Z,,,,2,0.0023664502831079,0.0252784582169994,,0.04,false,ll,8166.050999928499,response,-1.1217390688497193,0.9183026092561313,-1.15,-1.2276600934505035,1.1319280004088055,-1.140914216701632,low,low,,ISIC_4156010.JPG,,ISIC_0026344.JPG,26,false,0.14,hh,keypress(i),0,true,386179.7999999523,386179.6999999285,377996.949,378003.7999999523,378013.649,386196.165,1,40,18,
sequence,flow.Sequence,8_17,2023-11-17T19:44:34.110Z,,,,,,,,,,,8166.050999928499,completion,,,,,,,low,low,,,,,,false,,,,,true,386179.89999997616,386179.6999999285,377996.949,378003.7999999523,378013.649,386196.165,1,40,,
trial,html.Screen,8_18_0,2023-11-17T19:44:40.870Z,,,,2,0.0060934073440827,0.0279108145883031,,0.04,true,lh,6743.634999952337,response,-0.8644465729542988,0.9183026092561313,-1.15,0.8679598285079457,1.1319280004088055,-1.190914216701632,low,high,,ISIC_0032604.JPG,,ISIC_6718969.JPG,25,false,0.30000000000000016,lh,keypress(e),0,true,392940,392939.7999999523,386179.398,386180,386196.165,392942.632,1,40,19,
sequence,flow.Sequence,8_18,2023-11-17T19:44:40.870Z,,,,,,,,,,,6743.634999952337,completion,,,,,,,low,high,,,,,,false,,,,,true,392940.1999999285,392939.7999999523,386179.398,386180,386196.165,392942.632,1,40,,
trial,html.Screen,8_19_0,2023-11-17T19:44:43.213Z,,,,2,-0.0189295602385628,-0.0128812415435153,,0.04,false,ll,2341.067999928491,response,-1.1642596483638106,0.9183026092561313,-1.15,-1.091507924157762,1.1319280004088055,-1.190914216701632,low,low,,ISIC_0010372.JPG,,ISIC_0765584.JPG,27,false,0.15000000000000002,hl,keypress(j),0,true,395283.7999999523,395283.6999999285,392925.872,392940.2999999523,392942.632,395297.2,1,40,20,
sequence,flow.Sequence,8_19,2023-11-17T19:44:43.214Z,,,,,,,,,,,2341.067999928491,completion,,,,,,,low,low,,,,,,false,,,,,true,395284.09999990463,395283.6999999285,392925.872,392940.2999999523,392942.632,395297.2,1,40,,
trial,html.Screen,8_20_0,2023-11-17T19:44:45.013Z,,,,2,0.0377791839943904,-0.0227626648172468,,0.04,true,hl,1786.4999999284628,response,0.9046170303418553,0.9183026092561313,-1.15,-1.0063426986460375,1.1319280004088055,-1.190914216701632,high,low,,ISIC_7167479.JPG,,ISIC_0055759.JPG,25,false,0.21000000000000008,hl,keypress(j),0,true,397083.6999999285,397083.6999999285,395280.605,395284.1999999285,395297.2,397100.703,1,40,21,
sequence,flow.Sequence,8_20,2023-11-17T19:44:45.014Z,,,,,,,,,,,1786.4999999284628,completion,,,,,,,high,low,,,,,,false,,,,,true,397083.89999997616,397083.6999999285,395280.605,395284.09999990463,395297.2,397100.703,1,40,,
trial,html.Screen,8_21_0,2023-11-17T19:44:48.518Z,,,,2,0.0158987717472563,0.0292472192292015,,0.04,false,lh,3487.1969999761786,response,-1.00615481805876,0.8683026092561312,-1.15,0.8428903771195875,1.1319280004088055,-0.9989253114018999,low,high,,ISIC_1366765.JPG,,ISIC_0069970.JPG,25,false,0.30000000000000016,hh,keypress(i),0,true,400588.09999990463,400587.89999997616,397084.152,397083.89999997616,397100.703,400607.503,1,40,22,
sequence,flow.Sequence,8_21,2023-11-17T19:44:48.518Z,,,,,,,,,,,3487.1969999761786,completion,,,,,,,low,high,,,,,,false,,,,,true,400588.2999999523,400587.89999997616,397084.152,397083.89999997616,397100.703,400607.503,1,40,,
trial,html.Screen,8_22_0,2023-11-17T19:44:52.069Z,,,,2,-0.0086413421586899,-0.0360184993500958,,0.04,true,lh,3532.29699995229,response,-0.9013888878932071,0.8683026092561312,-1.15,0.9328095253308732,1.0819280004088054,-0.9989253114018999,low,high,,ISIC_0010767.JPG,,ISIC_0068259.JPG,25,false,0.28000000000000014,lh,keypress(e),0,true,404139.89999997616,404139.7999999523,400574.206,400588.39999997616,400607.503,404147.746,1,40,23,
sequence,flow.Sequence,8_22,2023-11-17T19:44:52.070Z,,,,,,,,,,,3532.29699995229,completion,,,,,,,low,high,,,,,,false,,,,,true,404140,404139.7999999523,400574.206,400588.39999997616,400607.503,404147.746,1,40,,
trial,html.Screen,8_23_0,2023-11-17T19:44:57.533Z,,,,2,0.0071892445601978,-0.0246015408628738,,0.04,true,hh,5455.754000000015,response,0.9304005163834584,0.8683026092561312,-1.15,0.9903292668457988,1.0819280004088054,-0.9989253114018999,high,high,,ISIC_0014133.JPG,,ISIC_3485482.JPG,35,false,0.1,hh,keypress(i),0,true,409603.59999990463,409603.5,404131.169,404140.09999990463,404147.746,409608.363,1,40,24,
sequence,flow.Sequence,8_23,2023-11-17T19:44:57.533Z,,,,,,,,,,,5455.754000000015,completion,,,,,,,high,high,,,,,,false,,,,,true,409603.7999999523,409603.5,404131.169,404140.09999990463,404147.746,409608.363,1,40,,
trial,html.Screen,8_24_0,2023-11-17T19:44:59.896Z,,,,2,-0.0051046740562181,0.0178832721027728,,0.04,true,hl,2355.536999976146,response,0.7705174182595537,0.8683026092561312,-1.15,-1.085710894474977,0.9103648916146285,-0.9989253114018999,high,low,,ISIC_9545819.JPG,,ISIC_0013644.JPG,27,false,0.17000000000000004,hl,keypress(j),0,true,411964,411963.89999997616,409591.803,409603.89999997616,409608.363,411979.624,1,40,25,
sequence,flow.Sequence,8_24,2023-11-17T19:44:59.896Z,,,,,,,,,,,2355.536999976146,completion,,,,,,,high,low,,,,,,false,,,,,true,411964.1999999285,411963.89999997616,409591.803,409603.89999997616,409608.363,411979.624,1,40,,
trial,html.Screen,8_25_0,2023-11-17T19:45:04.872Z,,,,2,0.0118555311043871,0.0087774532070196,,0.04,true,lh,4960.175999952306,response,-1.2018448523268856,0.8183026092561312,-1.15,0.8157731190790072,0.9103648916146285,-0.9989253114018999,low,high,,ISIC_6488658.JPG,,ISIC_7662993.JPG,28,false,0.22000000000000008,lh,keypress(e),0,true,416940,416939.7999999523,411963.144,411964.2999999523,411979.624,416956.023,1,40,26,
sequence,flow.Sequence,8_25,2023-11-17T19:45:04.872Z,,,,,,,,,,,4960.175999952306,completion,,,,,,,low,high,,,,,,false,,,,,true,416940.1999999285,416939.7999999523,411963.144,411964.1999999285,411979.624,416956.023,1,40,,
trial,html.Screen,8_26_0,2023-11-17T19:45:09.687Z,,,,2,0.0050679133050021,0.0174815595031679,,0.04,false,hh,4799.4770000000135,response,0.8797187572470211,0.8183026092561312,-1.0999999999999999,0.9573640085332544,0.9103648916146285,-0.9989253114018999,high,high,,ISIC_9848743.JPG,,ISIC_0010235.JPG,55,false,0.1,hl,keypress(j),0,true,421755.59999990463,421755.5,416939.255,416940.2999999523,416956.023,421765.316,1,40,27,
sequence,flow.Sequence,8_26,2023-11-17T19:45:09.687Z,,,,,,,,,,,4799.4770000000135,completion,,,,,,,high,high,,,,,,false,,,,,true,421755.7999999523,421755.5,416939.255,416940.2999999523,416956.023,421765.316,1,40,,
trial,html.Screen,8_27_0,2023-11-17T19:45:13.424Z,,,,2,-0.0189295602385628,-0.0128812415435153,,0.04,false,hh,3726.5839999761665,response,0.7217326688439986,0.8183026092561312,-1.0999999999999999,0.8764497729455479,0.9603648916146286,-0.9989253114018999,high,high,,ISIC_0010372.JPG,,ISIC_0030080.JPG,47,false,0.1,hl,keypress(j),0,true,425492,425491.89999997616,421748.746,421755.7999999523,421765.316,425506.1,1,40,28,
sequence,flow.Sequence,8_27,2023-11-17T19:45:13.424Z,,,,,,,,,,,3726.5839999761665,completion,,,,,,,high,high,,,,,,false,,,,,true,425492.1999999285,425491.89999997616,421748.746,421755.7999999523,421765.316,425506.1,1,40,,
trial,html.Screen,8_28_0,2023-11-17T19:45:19.536Z,,,,2,-0.0127320821962457,0.0315308940184827,,0.04,true,ll,6097.900000000023,response,-1.1604734171556077,0.7507257130455098,-1.0999999999999999,-1.0789312625280616,1.0103648916146286,-0.9989253114018999,low,low,,ISIC_8156101.JPG,,ISIC_3950753.JPG,25,false,0.1,ll,keypress(f),0,true,431604.09999990463,431604,425489.302,425492.2999999523,425506.1,431617.812,1,40,29,
sequence,flow.Sequence,8_28,2023-11-17T19:45:19.536Z,,,,,,,,,,,6097.900000000023,completion,,,,,,,low,low,,,,,,false,,,,,true,431604.39999997616,431604,425489.302,425492.2999999523,425506.1,431617.812,1,40,,
trial,html.Screen,8_29_0,2023-11-17T19:45:23.024Z,,,,2,0.0350697500805515,0.0166617848231997,,0.04,true,lh,3474.2879999046563,response,-0.9445114955578736,0.7507257130455098,-1.0999999999999999,1.0054210059625863,1.0103648916146286,-1.0697023398418346,low,high,,ISIC_0024423.JPG,,ISIC_0033807.JPG,26,false,0.2500000000000001,lh,keypress(e),0,true,435092.2999999523,435092.09999990463,431601.325,431604.5,431617.812,435108.142,1,40,30,
sequence,flow.Sequence,8_29,2023-11-17T19:45:23.024Z,,,,,,,,,,,3474.2879999046563,completion,,,,,,,low,high,,,,,,false,,,,,true,435092.5,435092.09999990463,431601.325,431604.5,431617.812,435108.142,1,40,,
trial,html.Screen,8_30_0,2023-11-17T19:45:25.751Z,,,,2,0.0399381815506136,0.0177751789152893,,0.04,true,hl,2711.2579999761656,response,0.6971413872676647,0.7507257130455098,-1.0499999999999998,-1.040122402473425,1.0103648916146286,-1.0697023398418346,high,low,,ISIC_3981425.JPG,,ISIC_8195528.JPG,26,false,0.14,hl,keypress(j),0,true,437819.59999990463,437819.39999997616,435091.308,435092.5,435108.142,437829.889,1,40,31,
sequence,flow.Sequence,8_30,2023-11-17T19:45:25.751Z,,,,,,,,,,,2711.2579999761656,completion,,,,,,,high,low,,,,,,false,,,,,true,437819.6999999285,437819.39999997616,435091.308,435092.5,435108.142,437829.889,1,40,,
trial,html.Screen,8_31_0,2023-11-17T19:45:30.263Z,,,,2,0.0377791839943904,-0.0227626648172468,,0.04,true,lh,4501.710999904608,response,-1.1162273456306029,0.7507257130455098,-1.0499999999999998,0.7890271955816722,1.0103648916146286,-1.0697023398418346,low,high,,ISIC_7167479.JPG,,ISIC_0011564.JPG,25,false,0.2300000000000001,lh,keypress(e),0,true,442331.6999999285,442331.59999990463,437813.304,437819.7999999523,437829.889,442338.638,1,40,32,
sequence,flow.Sequence,8_31,2023-11-17T19:45:30.263Z,,,,,,,,,,,4501.710999904608,completion,,,,,,,low,high,,,,,,false,,,,,true,442331.7999999523,442331.59999990463,437813.304,437819.7999999523,437829.889,442338.638,1,40,,
trial,html.Screen,8_32_0,2023-11-17T19:45:34.736Z,,,,2,-0.0199897690678184,-0.0312486875504497,,0.04,false,hl,4465.362000000023,response,0.6971413872676647,0.7507257130455098,-1.0499999999999998,-1.040122402473425,0.9603648916146286,-1.0697023398418346,high,low,,ISIC_5482426.JPG,,ISIC_8195528.JPG,26,false,0.14,hh,keypress(i),0,true,446804.1999999285,446804,442322.197,442331.89999997616,442338.638,446814.045,1,40,33,
sequence,flow.Sequence,8_32,2023-11-17T19:45:34.736Z,,,,,,,,,,,4465.362000000023,completion,,,,,,,high,low,,,,,,false,,,,,true,446804.39999997616,446804,442322.197,442331.89999997616,442338.638,446814.045,1,40,,
trial,html.Screen,8_33_0,2023-11-17T19:45:43.127Z,,,,2,0.0350697500805515,0.0166617848231997,,0.04,true,lh,8381.455000000016,response,-1.064425982109969,0.7007257130455098,-1.0499999999999998,0.958564243697126,0.9603648916146286,-1.1197023398418346,low,high,,ISIC_0024423.JPG,,ISIC_3203344.JPG,25,false,0.22000000000000008,lh,keypress(e),0,true,455195.59999990463,455195.5,446797.525,446804.59999990463,446814.045,455214.935,1,40,34,
sequence,flow.Sequence,8_33,2023-11-17T19:45:43.127Z,,,,,,,,,,,8381.455000000016,completion,,,,,,,low,high,,,,,,false,,,,,true,455195.7999999523,455195.5,446797.525,446804.5,446814.045,455214.935,1,40,,
trial,html.Screen,8_34_0,2023-11-17T19:45:48.423Z,,,,2,-0.0365981355399771,-0.0162670920008846,,0.04,false,hl,5276.664999904635,response,0.6416699984222508,0.7007257130455098,-0.9999999999999998,-1.1702231398575993,0.9603648916146286,-1.1197023398418346,high,low,,ISIC_0982855.JPG,,ISIC_0064784.JPG,26,false,0.13,hh,keypress(i),0,true,460491.6999999285,460491.59999990463,455180.507,455195.7999999523,455214.935,460507.413,1,40,35,
sequence,flow.Sequence,8_34,2023-11-17T19:45:48.424Z,,,,,,,,,,,5276.664999904635,completion,,,,,,,high,low,,,,,,false,,,,,true,460492,460491.59999990463,455180.507,455195.7999999523,455214.935,460507.413,1,40,,
trial,html.Screen,8_35_0,2023-11-17T19:45:51.504Z,,,,2,-0.0327772618698018,0.0056908372048728,,0.04,false,ll,3064.686999904632,response,-0.8789245418555859,0.7007257130455098,-0.9999999999999998,-1.207575413157872,0.9603648916146286,-1.1697023398418347,low,low,,ISIC_7897925.JPG,,ISIC_0001602.JPG,30,false,0.13,hh,keypress(i),0,true,463572.39999997616,463572.09999990463,460490.713,460492,460507.413,463579.971,1,40,36,
sequence,flow.Sequence,8_35,2023-11-17T19:45:51.504Z,,,,,,,,,,,3064.686999904632,completion,,,,,,,low,low,,,,,,false,,,,,true,463572.6999999285,463572.09999990463,460490.713,460492,460507.413,463579.971,1,40,,
trial,html.Screen,8_36_0,2023-11-17T19:45:54.200Z,,,,2,-0.0199897690678184,-0.0312486875504497,,0.04,false,hh,2688.0289999999804,response,0.7998473707897232,0.7007257130455098,-1.0499999999999998,0.89794677837575,0.9603648916146286,-1.1697023398418347,high,high,,ISIC_5482426.JPG,,ISIC_0061685.JPG,46,false,0.1,hl,keypress(j),0,true,466268.1999999285,466268,463563.412,463573,463579.971,466285.222,1,40,37,
sequence,flow.Sequence,8_36,2023-11-17T19:45:54.200Z,,,,,,,,,,,2688.0289999999804,completion,,,,,,,high,high,,,,,,false,,,,,true,466268.5,466268,463563.412,463573,463579.971,466285.222,1,40,,
trial,html.Screen,8_37_0,2023-11-17T19:45:56.776Z,,,,2,0.0377791839943904,-0.0227626648172468,,0.04,true,hl,2558.6779999761493,response,0.8035152873995188,0.670758684605987,-1.0499999999999998,-1.2407642249743125,1.0103648916146286,-1.1697023398418347,high,low,,ISIC_7167479.JPG,,ISIC_0010671.JPG,26,false,0.14,hl,keypress(j),0,true,468844.09999990463,468843.89999997616,466268.631,466268.59999990463,466285.222,468856.988,1,40,38,
sequence,flow.Sequence,8_37,2023-11-17T19:45:56.776Z,,,,,,,,,,,2558.6779999761493,completion,,,,,,,high,low,,,,,,false,,,,,true,468844.39999997616,468843.89999997616,466268.631,466268.59999990463,466285.222,468856.988,1,40,,
trial,html.Screen,8_38_0,2023-11-17T19:45:59.553Z,,,,2,-0.0063515208248796,-0.0194177605767913,,0.04,false,ll,2762.6119999046205,response,-1.1513073368404492,0.670758684605987,-1.0499999999999998,-1.0485268550965705,1.0103648916146286,-1.1697023398418347,low,low,,ISIC_5281908.JPG,,ISIC_0030666.JPG,29,false,0.13,lh,keypress(e),0,true,471619.6999999285,471619.59999990463,468840.428,468844.5,468856.988,471628.977,1,40,39,
sequence,flow.Sequence,8_38,2023-11-17T19:45:59.553Z,,,,,,,,,,,2762.6119999046205,completion,,,,,,,low,low,,,,,,false,,,,,true,471619.7999999523,471619.59999990463,468840.428,468844.5,468856.988,471628.977,1,40,,
trial,html.Screen,8_39_0,2023-11-17T19:46:03.136Z,,,,2,0.0060918352854008,-0.029032683404407,,0.04,false,hl,3574.322999952303,response,0.6714344890480403,0.670758684605987,-1.0499999999999998,-1.1317411618506656,1.0103648916146286,-1.1697023398418347,high,low,,ISIC_8436194.JPG,,ISIC_3691320.JPG,26,false,0.14,lh,keypress(e),0,true,475203.39999997616,475203.2999999523,471612.312,471619.7999999523,471628.977,475219.561,1,40,40,
sequence,flow.Sequence,8_39,2023-11-17T19:46:03.137Z,,,,,,,,,,,3574.322999952303,completion,,,,,,,high,low,,,,,,false,,,,,true,475203.59999990463,475203.2999999523,471612.312,471619.7999999523,471628.977,475219.561,1,40,,
stair_loop,flow.Loop,8,2023-11-17T19:46:03.137Z,,,,,,,,,,,160763.19099995232,completion,,,,,,,,,,,,,,false,,,,,true,475203.7999999523,475203.2999999523,314423.393,314411.59999990463,314440.109,475219.561,1,40,,
exp_instructions,html.Screen,9,2023-11-17T19:46:13.616Z,,,,,,,,,,,10463.638999928487,response,,,,,,,,,,,,,,,,continue,keypress(Space),,,485683.5,485683.1999999285,475202.683,475203.89999997616,475219.561,485689.66,,,,
trial,html.Screen,10_0_0,2023-11-17T19:46:22.985Z,,,,1,0.0377791839943904,-0.0227626648172468,,0.04,false,ll,9361.840000000026,response,-1.0730492496332733,0.7707614172638297,-1.0850000000000002,-1.0252626598876022,0.9996775133734637,-1.0774521223088502,low,low,,ISIC_7167479.JPG,10,ISIC_0007029.JPG,26,false,0.12,hl,keypress(j),0,false,495051.59999990463,495051.5,485673.081,485683.6999999285,485689.66,495057.873,4,500,1,
break,html.Screen,10_0_1,2023-11-17T19:46:22.985Z,,,,,,,,,,,NaN,,,,,,,,low,low,,,,,,false,,,,,false,495052.09999990463,495051.89999997616,,495051.7999999523,,495057.873,4,500,,
break_continue,html.Screen,10_0_2,2023-11-17T19:46:22.985Z,,,,,,,,,,,NaN,,,,,,,,low,low,,,,,,false,,,,,false,495052.2999999523,495052.09999990463,,495052.09999990463,,495057.873,4,500,,
sequence,flow.Sequence,10_0,2023-11-17T19:46:22.985Z,,,,,,,,,,,9362.439999904658,completion,,,,,,,low,low,,,,,,false,,,,,false,495052.2999999523,495052.09999990463,485673.081,485683.6999999285,485689.66,495057.873,4,500,,
trial,html.Screen,10_1_0,2023-11-17T19:46:25.201Z,,,,1,-0.0189295602385628,-0.0128812415435153,,0.04,false,ll,2209.6269999999786,response,-1.0064329161780483,0.7707614172638297,-1.0850000000000002,-1.0631481857644678,0.9996775133734637,-1.0774521223088502,low,low,,ISIC_0010372.JPG,9,ISIC_0033137.JPG,26,false,0.12,lh,keypress(e),0,false,497267.59999990463,497267.5,495041.188,495052.39999997616,495057.873,497278.927,4,500,2,
break,html.Screen,10_1_1,2023-11-17T19:46:25.201Z,,,,,,,,,,,NaN,,,,,,,,low,low,,,,,,false,,,,,false,497268,497268,,497267.6999999285,,497278.927,4,500,,
break_continue,html.Screen,10_1_2,2023-11-17T19:46:25.201Z,,,,,,,,,,,NaN,,,,,,,,low,low,,,,,,false,,,,,false,497268.2999999523,497268.09999990463,,497268.09999990463,,497278.927,4,500,,
sequence,flow.Sequence,10_1,2023-11-17T19:46:25.201Z,,,,,,,,,,,2210.226999904611,completion,,,,,,,low,low,,,,,,false,,,,,false,497268.2999999523,497268.09999990463,495041.188,495052.2999999523,495057.873,497278.927,4,500,,
trial,html.Screen,10_2_0,2023-11-17T19:46:28.402Z,,,,1,-0.0327772618698018,0.0056908372048728,,0.04,true,hl,3189.872999952291,response,0.6795011676675823,0.7707614172638297,-1.0850000000000002,-0.9453006131304652,0.9996775133734637,-1.0774521223088502,high,low,,ISIC_7897925.JPG,9,ISIC_4229473.JPG,26,false,0.14,hl,keypress(j),0,false,500469,500468.7999999523,497262.133,497268.39999997616,497278.927,500485.099,4,500,3,
break,html.Screen,10_2_1,2023-11-17T19:46:28.403Z,,,,,,,,,,,NaN,,,,,,,,high,low,,,,,,false,,,,,false,500470.2999999523,500470,,500469.39999997616,,500485.099,4,500,,
break_continue,html.Screen,10_2_2,2023-11-17T19:46:28.404Z,,,,,,,,,,,NaN,,,,,,,,high,low,,,,,,false,,,,,false,500470.89999997616,500470.6999999285,,500470.39999997616,,500485.099,4,500,,
sequence,flow.Sequence,10_2,2023-11-17T19:46:28.404Z,,,,,,,,,,,3191.7729999284493,completion,,,,,,,high,low,,,,,,false,,,,,false,500471.1999999285,500470.6999999285,497262.133,497268.39999997616,497278.927,500485.099,4,500,,
trial,html.Screen,10_3_0,2023-11-17T19:46:32.833Z,,,,1,0.0057914759495055,-0.018500200317654,,0.04,true,hh,4415.100999928487,response,0.838053327796249,0.7707614172638297,-1.0850000000000002,0.9376491160549733,0.9996775133734637,-1.0774521223088502,high,high,,ISIC_0058723.JPG,9,ISIC_4834687.JPG,43,false,0.1,hh,keypress(i),0,false,504900.39999997616,504900.1999999285,500468.604,500471.39999997616,500485.099,504927.22,4,500,4,
break,html.Screen,10_3_1,2023-11-17T19:46:32.834Z,,,,,,,,,,,NaN,,,,,,,,high,high,,,,,,false,,,,,false,504901.1999999285,504901,,504900.59999990463,,504927.22,4,500,,
break_continue,html.Screen,10_3_2,2023-11-17T19:46:32.835Z,,,,,,,,,,,NaN,,,,,,,,high,high,,,,,,false,,,,,false,504901.59999990463,504901.5,,504901.2999999523,,504927.22,4,500,,
sequence,flow.Sequence,10_3,2023-11-17T19:46:32.835Z,,,,,,,,,,,4416.401000000013,completion,,,,,,,high,high,,,,,,false,,,,,false,504901.7999999523,504901.5,500468.604,500471.2999999523,500485.099,504927.22,4,500,,
trial,html.Screen,10_4_0,2023-11-17T19:46:34.865Z,,,,1,0.0071892445601978,-0.0246015408628738,,0.04,true,hl,2004.679999976186,response,0.6436227505158556,0.7707614172638297,-1.0850000000000002,-0.9403300747222216,0.9996775133734637,-1.0774521223088502,high,low,,ISIC_0014133.JPG,9,ISIC_9842269.JPG,26,false,0.14,hl,keypress(j),0,false,506932.1999999285,506931.89999997616,504910.404,504901.89999997616,504927.22,506947.772,4,500,5,
break,html.Screen,10_4_1,2023-11-17T19:46:34.866Z,,,,,,,,,,,NaN,,,,,,,,high,low,,,,,,false,,,,,false,506932.6999999285,506932.59999990463,,506932.2999999523,,506947.772,4,500,,
break_continue,html.Screen,10_4_2,2023-11-17T19:46:34.866Z,,,,,,,,,,,NaN,,,,,,,,high,low,,,,,,false,,,,,false,506933,506932.89999997616,,506932.6999999285,,506947.772,4,500,,
sequence,flow.Sequence,10_4,2023-11-17T19:46:34.866Z,,,,,,,,,,,2005.679999976186,completion,,,,,,,high,low,,,,,,false,,,,,false,506933.09999990463,506932.89999997616,504910.404,504901.89999997616,504927.22,506947.772,4,500,,
trial,html.Screen,10_5_0,2023-11-17T19:46:41.945Z,,,,1,-0.0367218428225813,0.0026956749740767,,0.04,true,ll,7064.427999928477,response,-1.1432120973785689,0.7707614172638297,-1.0850000000000002,-0.973254467915268,0.9996775133734637,-1.0774521223088502,low,low,,ISIC_7212271.JPG,9,ISIC_2072219.JPG,26,false,0.12,ll,keypress(f),0,false,514012.39999997616,514012.1999999285,506930.992,506933.1999999285,506947.772,514028.139,4,500,6,
break,html.Screen,10_5_1,2023-11-17T19:46:41.946Z,,,,,,,,,,,NaN,,,,,,,,low,low,,,,,,false,,,,,false,514013.09999990463,514012.89999997616,,514012.59999990463,,514028.139,4,500,,
break_continue,html.Screen,10_5_2,2023-11-17T19:46:41.946Z,,,,,,,,,,,NaN,,,,,,,,low,low,,,,,,false,,,,,false,514013.5,514013.39999997616,,514013.2999999523,,514028.139,4,500,,
sequence,flow.Sequence,10_5,2023-11-17T19:46:41.947Z,,,,,,,,,,,7065.627999976161,completion,,,,,,,low,low,,,,,,false,,,,,false,514013.6999999285,514013.39999997616,506930.992,506933.1999999285,506947.772,514028.139,4,500,,
trial,html.Screen,10_6_0,2023-11-17T19:46:44.274Z,,,,1,0.0057914759495055,-0.018500200317654,,0.04,false,ll,2312.460999904608,response,-1.0064329161780483,0.7707614172638297,-1.0850000000000002,-1.0631481857644678,0.9996775133734637,-1.0774521223088502,low,low,,ISIC_0058723.JPG,10,ISIC_0033137.JPG,26,false,0.12,lh,keypress(e),0,false,516340.89999997616,516340.59999990463,514011.469,514013.7999999523,514028.139,516349.289,4,500,7,
break,html.Screen,10_6_1,2023-11-17T19:46:44.275Z,,,,,,,,,,,NaN,,,,,,,,low,low,,,,,,false,,,,,false,516342,516341.6999999285,,516341.1999999285,,516349.289,4,500,,
break_continue,html.Screen,10_6_2,2023-11-17T19:46:44.276Z,,,,,,,,,,,NaN,,,,,,,,low,low,,,,,,false,,,,,false,516342.6999999285,516342.5,,516342.2999999523,,516349.289,4,500,,
sequence,flow.Sequence,10_6,2023-11-17T19:46:44.276Z,,,,,,,,,,,2314.3609999999753,completion,,,,,,,low,low,,,,,,false,,,,,false,516342.89999997616,516342.5,514011.469,514013.7999999523,514028.139,516349.289,4,500,,
trial,html.Screen,10_7_0,2023-11-17T19:46:48.345Z,,,,1,0.0023664502831079,0.0252784582169994,,0.04,false,hl,4062.5109999523265,response,0.7871162143493278,0.7707614172638297,-1.0850000000000002,-1.2153707004941214,0.9996775133734637,-1.0774521223088502,high,low,,ISIC_4156010.JPG,9,ISIC_3439215.JPG,26,false,0.14,hh,keypress(i),0,false,520412,520411.7999999523,516332.799,516343.1999999285,516349.289,520424.123,4,500,8,
break,html.Screen,10_7_1,2023-11-17T19:46:48.346Z,,,,,,,,,,,NaN,,,,,,,,high,low,,,,,,false,,,,,false,520412.59999990463,520412.39999997616,,520412.1999999285,,520424.123,4,500,,
break_continue,html.Screen,10_7_2,2023-11-17T19:46:48.346Z,,,,,,,,,,,NaN,,,,,,,,high,low,,,,,,false,,,,,false,520412.6999999285,520412.6999999285,,520412.59999990463,,520424.123,4,500,,
sequence,flow.Sequence,10_7,2023-11-17T19:46:48.346Z,,,,,,,,,,,4063.4109999284847,completion,,,,,,,high,low,,,,,,false,,,,,false,520412.7999999523,520412.6999999285,516332.799,516343.09999990463,516349.289,520424.123,4,500,,
trial,html.Screen,10_8_0,2023-11-17T19:46:52.313Z,,,,1,-0.0327772618698018,0.0056908372048728,,0.04,false,hh,3955.676999952295,response,0.7291462397404709,0.7707614172638297,-1.0850000000000002,0.9195149254716736,0.9996775133734637,-1.0774521223088502,high,high,,ISIC_7897925.JPG,9,ISIC_3445468.JPG,43,false,0.1,hl,keypress(j),0,false,524379.8999999762,524379.7999999523,520407.337,520412.7999999523,520424.123,524381.582,4,500,9,
break,html.Screen,10_8_1,2023-11-17T19:46:52.313Z,,,,,,,,,,,NaN,,,,,,,,high,high,,,,,,false,,,,,false,524380.5,524380.3999999762,,524380.0999999046,,524381.582,4,500,,
break_continue,html.Screen,10_8_2,2023-11-17T19:46:52.314Z,,,,,,,,,,,NaN,,,,,,,,high,high,,,,,,false,,,,,false,524380.7999999523,524380.6999999285,,524380.5,,524381.582,4,500,,
sequence,flow.Sequence,10_8,2023-11-17T19:46:52.314Z,,,,,,,,,,,3956.576999928453,completion,,,,,,,high,high,,,,,,false,,,,,false,524380.7999999523,524380.6999999285,520407.337,520412.7999999523,520424.123,524381.582,4,500,,
trial,html.Screen,10_9_0,2023-11-17T19:46:54.489Z,,,,1,-0.0327772618698018,0.0056908372048728,,0.04,true,hl,2173.917999999947,response,0.8688859182707874,0.7707614172638297,-1.0850000000000002,-0.9566733172438716,0.9996775133734637,-1.0774521223088502,high,low,,ISIC_7897925.JPG,10,ISIC_0640770.JPG,26,false,0.14,hl,keypress(j),0,false,526555.5999999046,526555.5,524365.086,524381,524381.582,526569.403,4,500,10,
break,html.Screen,10_9_1,2023-11-17T19:46:54.489Z,,,,,,,,,,,NaN,,,,,,,,high,low,,,,,,false,,,,,false,526555.7999999523,526555.7999999523,,526555.6999999285,,526569.403,4,500,,
break_continue,html.Screen,10_9_2,2023-11-17T19:46:54.489Z,,,,,,,,,,,NaN,,,,,,,,high,low,,,,,,false,,,,,false,526556,526556,,526555.8999999762,,526569.403,4,500,,
sequence,flow.Sequence,10_9,2023-11-17T19:46:54.489Z,,,,,,,,,,,2174.417999999947,completion,,,,,,,high,low,,,,,,false,,,,,false,526556.0999999046,526556,524365.086,524381,524381.582,526569.403,4,500,,
trial,html.Screen,10_10_0,2023-11-17T19:46:56.106Z,,,,1,-0.0367218428225813,0.0026956749740767,,0.04,false,ll,1603.0969999999506,response,-1.1642596483638106,0.7707614172638297,-1.0850000000000002,-1.091507924157762,0.9996775133734637,-1.0774521223088502,low,low,,ISIC_7212271.JPG,8,ISIC_0765584.JPG,26,false,0.12,hl,keypress(j),0,false,528172.7999999523,528172.5,526552.689,526556.0999999046,526569.403,528188.999,4,500,11,
break,html.Screen,10_10_1,2023-11-17T19:46:56.107Z,,,,,,,,,,,NaN,,,,,,,,low,low,,,,,,false,,,,,false,528173.7999999523,528173.5999999046,,528173.0999999046,,528188.999,4,500,,
break_continue,html.Screen,10_10_2,2023-11-17T19:46:56.107Z,,,,,,,,,,,NaN,,,,,,,,low,low,,,,,,false,,,,,false,528174.3999999762,528174.1999999285,,528174,,528188.999,4,500,,
sequence,flow.Sequence,10_10,2023-11-17T19:46:56.108Z,,,,,,,,,,,1604.796999928425,completion,,,,,,,low,low,,,,,,false,,,,,false,528174.5999999046,528174.1999999285,526552.689,526556.0999999046,526569.403,528188.999,4,500,,
trial,html.Screen,10_11_0,2023-11-17T19:46:59.355Z,,,,1,-0.0199897690678184,-0.0312486875504497,,0.04,true,hh,3231.0010000000475,response,0.8667223452789944,0.7707614172638297,-1.0850000000000002,1.08062537708245,0.9996775133734637,-1.0774521223088502,high,high,,ISIC_5482426.JPG,9,ISIC_0070032.JPG,43,false,0.1,hh,keypress(i),0,false,531420.1999999285,531420,528172.499,528174.7999999523,528188.999,531428.601,4,500,12,
break,html.Screen,10_11_1,2023-11-17T19:46:59.355Z,,,,,,,,,,,NaN,,,,,,,,high,high,,,,,,false,,,,,false,531420.7999999523,531420.6999999285,,531420.5,,531428.601,4,500,,
break_continue,html.Screen,10_11_2,2023-11-17T19:46:59.356Z,,,,,,,,,,,NaN,,,,,,,,high,high,,,,,,false,,,,,false,531421.1999999285,531421,,531420.8999999762,,531428.601,4,500,,
sequence,flow.Sequence,10_11,2023-11-17T19:46:59.356Z,,,,,,,,,,,3232.0010000000475,completion,,,,,,,high,high,,,,,,false,,,,,false,531421.1999999285,531421,528172.499,528174.7999999523,528188.999,531428.601,4,500,,
trial,html.Screen,10_12_0,2023-11-17T19:47:03.587Z,,,,1,0.012810673904807,-0.00400964452501,,0.04,true,hh,4223.698999952292,response,0.8050443016688825,0.7707614172638297,-1.0850000000000002,0.9509237118003132,0.9996775133734637,-1.0774521223088502,high,high,,ISIC_0064656.JPG,9,ISIC_0000554.JPG,43,false,0.1,hh,keypress(i),0,false,535652.6999999285,535652.2999999523,531411.898,531421.2999999523,531428.601,535670.242,4,500,13,
break,html.Screen,10_12_1,2023-11-17T19:47:03.588Z,,,,,,,,,,,NaN,,,,,,,,high,high,,,,,,false,,,,,false,535654,535653.5999999046,,535653.0999999046,,535670.242,4,500,,
break_continue,html.Screen,10_12_2,2023-11-17T19:47:03.589Z,,,,,,,,,,,NaN,,,,,,,,high,high,,,,,,false,,,,,false,535654.5999999046,535654.5,,535654.1999999285,,535670.242,4,500,,
sequence,flow.Sequence,10_12,2023-11-17T19:47:03.589Z,,,,,,,,,,,4225.898999999976,completion,,,,,,,high,high,,,,,,false,,,,,false,535654.8999999762,535654.5,531411.898,531421.2999999523,531428.601,535670.242,4,500,,
trial,html.Screen,10_13_0,2023-11-17T19:47:05.626Z,,,,1,-0.0189295602385628,-0.0128812415435153,,0.04,true,hl,2021.2580000000307,response,0.7622326985614671,0.7707614172638297,-1.0850000000000002,-1.1077754321509423,0.9996775133734637,-1.0774521223088502,high,low,,ISIC_0010372.JPG,9,ISIC_4548995.JPG,26,false,0.14,hl,keypress(j),0,false,537691.5999999046,537691.5,535653.612,535655,535670.242,537707.74,4,500,14,
break,html.Screen,10_13_1,2023-11-17T19:47:05.626Z,,,,,,,,,,,NaN,,,,,,,,high,low,,,,,,false,,,,,false,537691.8999999762,537691.8999999762,,537691.6999999285,,537707.74,4,500,,
break_continue,html.Screen,10_13_2,2023-11-17T19:47:05.627Z,,,,,,,,,,,NaN,,,,,,,,high,low,,,,,,false,,,,,false,537692.0999999046,537692.0999999046,,537691.8999999762,,537707.74,4,500,,
sequence,flow.Sequence,10_13,2023-11-17T19:47:05.627Z,,,,,,,,,,,2021.8579999046633,completion,,,,,,,high,low,,,,,,false,,,,,false,537692.0999999046,537692.0999999046,535653.612,535655,535670.242,537707.74,4,500,,
trial,html.Screen,10_14_0,2023-11-17T19:47:09.650Z,,,,1,-0.0086413421586899,-0.0360184993500958,,0.04,true,ll,4008.0599999523256,response,-1.1802887330422154,0.7707614172638297,-1.0850000000000002,-1.0224375154810723,0.9996775133734637,-1.0774521223088502,low,low,,ISIC_0010767.JPG,9,ISIC_9225640.JPG,26,false,0.12,ll,keypress(f),0,false,541716,541715.7999999523,537690.915,537692.1999999285,537707.74,541731.986,4,500,15,
break,html.Screen,10_14_1,2023-11-17T19:47:09.651Z,,,,,,,,,,,NaN,,,,,,,,low,low,,,,,,false,,,,,false,541716.5,541716.2999999523,,541716.0999999046,,541731.986,4,500,,
break_continue,html.Screen,10_14_2,2023-11-17T19:47:09.651Z,,,,,,,,,,,NaN,,,,,,,,low,low,,,,,,false,,,,,false,541716.6999999285,541716.5999999046,,541716.5999999046,,541731.986,4,500,,
sequence,flow.Sequence,10_14,2023-11-17T19:47:09.651Z,,,,,,,,,,,4008.859999904642,completion,,,,,,,low,low,,,,,,false,,,,,false,541716.8999999762,541716.5999999046,537690.915,537692.1999999285,537707.74,541731.986,4,500,,
trial,html.Screen,10_15_0,2023-11-17T19:47:13.970Z,,,,1,-0.0189295602385628,-0.0128812415435153,,0.04,true,lh,4303.613999904599,response,-0.9013888878932071,0.7707614172638297,-1.0850000000000002,0.9328095253308732,0.9996775133734637,-1.0774521223088502,low,high,,ISIC_0010372.JPG,10,ISIC_0068259.JPG,25,false,0.2300000000000001,lh,keypress(e),0,false,546035.7999999523,546035.5999999046,541715.523,541716.8999999762,541731.986,546040.363,4,500,16,
break,html.Screen,10_15_1,2023-11-17T19:47:13.970Z,,,,,,,,,,,NaN,,,,,,,,low,high,,,,,,false,,,,,false,546036.0999999046,546036,,546035.8999999762,,546040.363,4,500,,
break_continue,html.Screen,10_15_2,2023-11-17T19:47:13.971Z,,,,,,,,,,,NaN,,,,,,,,low,high,,,,,,false,,,,,false,546036.2999999523,546036.1999999285,,546036.0999999046,,546040.363,4,500,,
sequence,flow.Sequence,10_15,2023-11-17T19:47:13.971Z,,,,,,,,,,,4304.213999928441,completion,,,,,,,low,high,,,,,,false,,,,,false,546036.3999999762,546036.1999999285,541715.523,541716.8999999762,541731.986,546040.363,4,500,,
trial,html.Screen,10_16_0,2023-11-17T19:47:19.570Z,,,,1,0.0118555311043871,0.0087774532070196,,0.04,false,lh,5595.536999976146,response,-0.9385447468573198,0.7707614172638297,-1.0850000000000002,1.2289860846064424,0.9996775133734637,-1.0774521223088502,low,high,,ISIC_6488658.JPG,9,ISIC_0032780.JPG,25,false,0.2300000000000001,ll,keypress(f),0,false,551636,551635.8999999762,546023.925,546036.3999999762,546040.363,551668.229,4,500,17,
break,html.Screen,10_16_1,2023-11-17T19:47:19.571Z,,,,,,,,,,,NaN,,,,,,,,low,high,,,,,,false,,,,,false,551636.6999999285,551636.5999999046,,551636.1999999285,,551668.229,4,500,,
break_continue,html.Screen,10_16_2,2023-11-17T19:47:19.572Z,,,,,,,,,,,NaN,,,,,,,,low,high,,,,,,false,,,,,false,551637.0999999046,551637,,551636.7999999523,,551668.229,4,500,,
sequence,flow.Sequence,10_16,2023-11-17T19:47:19.572Z,,,,,,,,,,,5596.636999999988,completion,,,,,,,low,high,,,,,,false,,,,,false,551637.1999999285,551637,546023.925,546036.3999999762,546040.363,551668.229,4,500,,
trial,html.Screen,10_17_0,2023-11-17T19:47:23.194Z,,,,1,-0.0189295602385628,-0.0128812415435153,,0.04,true,hh,3591.570999952266,response,0.7291462397404709,0.7707614172638297,-1.0850000000000002,0.9195149254716736,0.9996775133734637,-1.0774521223088502,high,high,,ISIC_0010372.JPG,9,ISIC_3445468.JPG,43,false,0.1,hh,keypress(i),0,false,555260,555259.7999999523,551651.311,551637.3999999762,551668.229,555274.964,4,500,18,
break,html.Screen,10_17_1,2023-11-17T19:47:23.195Z,,,,,,,,,,,NaN,,,,,,,,high,high,,,,,,false,,,,,false,555260.5,555260.5,,555260.1999999285,,555274.964,4,500,,
break_continue,html.Screen,10_17_2,2023-11-17T19:47:23.195Z,,,,,,,,,,,NaN,,,,,,,,high,high,,,,,,false,,,,,false,555260.8999999762,555260.8999999762,,555260.7999999523,,555274.964,4,500,,
sequence,flow.Sequence,10_17,2023-11-17T19:47:23.196Z,,,,,,,,,,,3592.670999976108,completion,,,,,,,high,high,,,,,,false,,,,,false,555261.1999999285,555260.8999999762,551651.311,551637.3999999762,551668.229,555274.964,4,500,,
trial,html.Screen,10_18_0,2023-11-17T19:47:25.234Z,,,,1,-0.0063515208248796,-0.0194177605767913,,0.04,false,ll,2024.6359999045962,response,-1.004164099430695,0.7707614172638297,-1.0850000000000002,-1.0674669038247562,0.9996775133734637,-1.0774521223088502,low,low,,ISIC_5281908.JPG,9,ISIC_0541345.JPG,26,false,0.12,hl,keypress(j),0,false,557299.6999999285,557299.5999999046,555258.481,555261.1999999285,555274.964,557312.417,4,500,19,
break,html.Screen,10_18_1,2023-11-17T19:47:25.234Z,,,,,,,,,,,NaN,,,,,,,,low,low,,,,,,false,,,,,false,557300,557299.8999999762,,557299.8999999762,,557312.417,4,500,,
break_continue,html.Screen,10_18_2,2023-11-17T19:47:25.235Z,,,,,,,,,,,NaN,,,,,,,,low,low,,,,,,false,,,,,false,557300.1999999285,557300.0999999046,,557300,,557312.417,4,500,,
sequence,flow.Sequence,10_18,2023-11-17T19:47:25.235Z,,,,,,,,,,,2025.1359999045962,completion,,,,,,,low,low,,,,,,false,,,,,false,557300.2999999523,557300.0999999046,555258.481,555261.1999999285,555274.964,557312.417,4,500,,
trial,html.Screen,10_19_0,2023-11-17T19:47:28.890Z,,,,1,-0.0199897690678184,-0.0312486875504497,,0.04,true,hh,3643.1829999046167,response,0.7488760129079584,0.7707614172638297,-1.0850000000000002,0.9431848379424128,0.9996775133734637,-1.0774521223088502,high,high,,ISIC_5482426.JPG,10,ISIC_0069395.JPG,43,false,0.1,hh,keypress(i),0,false,560955.5999999046,560955.5999999046,557295.631,557300.3999999762,557312.417,560969.598,4,500,20,
break,html.Screen,10_19_1,2023-11-17T19:47:28.890Z,,,,,,,,,,,NaN,,,,,,,,high,high,,,,,,false,,,,,false,560956,560956,,560955.7999999523,,560969.598,4,500,,
break_continue,html.Screen,10_19_2,2023-11-17T19:47:28.891Z,,,,,,,,,,,NaN,,,,,,,,high,high,,,,,,false,,,,,false,560956.1999999285,560956.1999999285,,560956,,560969.598,4,500,,
sequence,flow.Sequence,10_19,2023-11-17T19:47:28.891Z,,,,,,,,,,,3643.7829999284586,completion,,,,,,,high,high,,,,,,false,,,,,false,560956.2999999523,560956.1999999285,557295.631,557300.2999999523,557312.417,560969.598,4,500,,
trial,html.Screen,10_20_0,2023-11-17T19:47:30.859Z,,,,1,0.0071892445601978,-0.0246015408628738,,0.04,true,hl,1954.7019999523181,response,0.7753299102004093,0.7707614172638297,-1.0850000000000002,-1.053851019509641,0.9996775133734637,-1.0774521223088502,high,low,,ISIC_0014133.JPG,10,ISIC_9511832.JPG,26,false,0.14,hl,keypress(j),0,false,562924.5,562924.2999999523,560952.668,560956.3999999762,560969.598,562939.917,4,500,21,
break,html.Screen,10_20_1,2023-11-17T19:47:30.860Z,,,,,,,,,,,NaN,,,,,,,,high,low,,,,,,false,,,,,false,562925.3999999762,562925.1999999285,,562924.7999999523,,562939.917,4,500,,
break_continue,html.Screen,10_20_2,2023-11-17T19:47:30.860Z,,,,,,,,,,,NaN,,,,,,,,high,low,,,,,,false,,,,,false,562925.8999999762,562925.6999999285,,562925.5999999046,,562939.917,4,500,,
sequence,flow.Sequence,10_20,2023-11-17T19:47:30.861Z,,,,,,,,,,,1956.1019999284763,completion,,,,,,,high,low,,,,,,false,,,,,false,562926.0999999046,562925.6999999285,560952.668,560956.2999999523,560969.598,562939.917,4,500,,
trial,html.Screen,10_21_0,2023-11-17T19:47:32.594Z,,,,1,0.0158987717472563,0.0292472192292015,,0.04,false,ll,1719.5829999999842,response,-1.0901635293704552,0.7707614172638297,-1.0850000000000002,-1.0348352814358883,0.9996775133734637,-1.0774521223088502,low,low,,ISIC_1366765.JPG,10,ISIC_7583134.JPG,26,false,0.12,hl,keypress(j),0,false,564659.5999999046,564659.5,562923.334,562926.2999999523,562939.917,564693.514,4,500,22,
break,html.Screen,10_21_1,2023-11-17T19:47:32.594Z,,,,,,,,,,,NaN,,,,,,,,low,low,,,,,,false,,,,,false,564659.8999999762,564659.8999999762,,564659.6999999285,,564693.514,4,500,,
break_continue,html.Screen,10_21_2,2023-11-17T19:47:32.594Z,,,,,,,,,,,NaN,,,,,,,,low,low,,,,,,false,,,,,false,564660,564660,,564659.8999999762,,564693.514,4,500,,
sequence,flow.Sequence,10_21,2023-11-17T19:47:32.595Z,,,,,,,,,,,1720.0829999999842,completion,,,,,,,low,low,,,,,,false,,,,,false,564660.0999999046,564660,562923.334,562926.1999999285,562939.917,564693.514,4,500,,
trial,html.Screen,10_22_0,2023-11-17T19:47:34.514Z,,,,1,0.0377791839943904,-0.0227626648172468,,0.04,false,ll,1886.3859999761917,response,-1.0064329161780483,0.7707614172638297,-1.0850000000000002,-1.0631481857644678,0.9996775133734637,-1.0774521223088502,low,low,,ISIC_7167479.JPG,8,ISIC_0033137.JPG,26,false,0.12,lh,keypress(e),0,false,566580,566579.8999999762,564676.614,564660.1999999285,564693.514,566597.257,4,500,23,
break,html.Screen,10_22_1,2023-11-17T19:47:34.515Z,,,,,,,,,,,NaN,,,,,,,,low,low,,,,,,false,,,,,false,566580.5999999046,566580.3999999762,,566580.1999999285,,566597.257,4,500,,
break_continue,html.Screen,10_22_2,2023-11-17T19:47:34.515Z,,,,,,,,,,,NaN,,,,,,,,low,low,,,,,,false,,,,,false,566580.7999999523,566580.6999999285,,566580.6999999285,,566597.257,4,500,,
sequence,flow.Sequence,10_22,2023-11-17T19:47:34.515Z,,,,,,,,,,,1887.185999928508,completion,,,,,,,low,low,,,,,,false,,,,,false,566581,566580.6999999285,564676.614,564660.1999999285,564693.514,566597.257,4,500,,
trial,html.Screen,10_23_0,2023-11-17T19:47:36.586Z,,,,1,-0.0086413421586899,-0.0360184993500958,,0.04,false,hh,2054.3429999046493,response,0.7242341059458012,0.7707614172638297,-1.0850000000000002,1.086167902767275,0.9996775133734637,-1.0774521223088502,high,high,,ISIC_0010767.JPG,9,ISIC_0011526.JPG,43,false,0.1,lh,keypress(e),0,false,568651.6999999285,568651.5999999046,566580.411,566581.0999999046,566597.257,568667.86,4,500,24,
break,html.Screen,10_23_1,2023-11-17T19:47:36.586Z,,,,,,,,,,,NaN,,,,,,,,high,high,,,,,,false,,,,,false,568652,568651.8999999762,,568651.7999999523,,568667.86,4,500,,
break_continue,html.Screen,10_23_2,2023-11-17T19:47:36.587Z,,,,,,,,,,,NaN,,,,,,,,high,high,,,,,,false,,,,,false,568652.1999999285,568652.0999999046,,568652.0999999046,,568667.86,4,500,,
sequence,flow.Sequence,10_23,2023-11-17T19:47:36.587Z,,,,,,,,,,,2054.8429999046493,completion,,,,,,,high,high,,,,,,false,,,,,false,568652.1999999285,568652.0999999046,566580.411,566581,566597.257,568667.86,4,500,,
trial,html.Screen,10_24_0,2023-11-17T19:47:38.642Z,,,,1,-0.0361875505619981,0.0291457404567876,,0.04,true,hl,2039.4399999523303,response,0.7450700429395554,0.7707614172638297,-1.0850000000000002,-1.1659665266603083,0.9996775133734637,-1.0774521223088502,high,low,,ISIC_0027480.JPG,9,ISIC_3736075.JPG,26,false,0.14,hl,keypress(j),0,false,570707.2999999523,570707.2999999523,568651.018,568652.2999999523,568667.86,570721.853,4,500,25,
break,html.Screen,10_24_1,2023-11-17T19:47:38.642Z,,,,,,,,,,,NaN,,,,,,,,high,low,,,,,,false,,,,,false,570707.8999999762,570707.6999999285,,570707.3999999762,,570721.853,4,500,,
break_continue,html.Screen,10_24_2,2023-11-17T19:47:38.643Z,,,,,,,,,,,NaN,,,,,,,,high,low,,,,,,false,,,,,false,570708.1999999285,570708.0999999046,,570708,,570721.853,4,500,,
sequence,flow.Sequence,10_24,2023-11-17T19:47:38.643Z,,,,,,,,,,,2040.2399999046465,completion,,,,,,,high,low,,,,,,false,,,,,false,570708.1999999285,570708.0999999046,568651.018,568652.2999999523,568667.86,570721.853,4,500,,
trial,html.Screen,10_25_0,2023-11-17T19:47:43.418Z,,,,1,-0.0189295602385628,-0.0128812415435153,,0.04,false,hl,4761.646999999997,response,0.6707413499192771,0.7707614172638297,-1.0850000000000002,-1.176352590105879,0.9996775133734637,-1.0774521223088502,high,low,,ISIC_0010372.JPG,9,ISIC_0567814.JPG,26,false,0.14,hh,keypress(i),0,false,575483.6999999285,575483.5,570705.12,570708.2999999523,570721.853,575497.663,4,500,26,
break,html.Screen,10_25_1,2023-11-17T19:47:43.419Z,,,,,,,,,,,NaN,,,,,,,,high,low,,,,,,false,,,,,false,575484.3999999762,575484.1999999285,,575483.7999999523,,575497.663,4,500,,
break_continue,html.Screen,10_25_2,2023-11-17T19:47:43.419Z,,,,,,,,,,,NaN,,,,,,,,high,low,,,,,,false,,,,,false,575484.6999999285,575484.5,,575484.5,,575497.663,4,500,,
sequence,flow.Sequence,10_25,2023-11-17T19:47:43.419Z,,,,,,,,,,,4762.646999999997,completion,,,,,,,high,low,,,,,,false,,,,,false,575484.7999999523,575484.5,570705.12,570708.2999999523,570721.853,575497.663,4,500,,
trial,html.Screen,10_26_0,2023-11-17T19:47:47.058Z,,,,1,-0.0189295602385628,-0.0128812415435153,,0.04,true,hh,3625.536999928532,response,0.722836070950726,0.7707614172638297,-1.0850000000000002,0.9131975040259578,0.9996775133734637,-1.0774521223088502,high,high,,ISIC_0010372.JPG,9,ISIC_7320371.JPG,43,false,0.1,hh,keypress(i),0,false,579123.3999999762,579123.1999999285,575481.115,575484.8999999762,575497.663,579138.126,4,500,27,
break,html.Screen,10_26_1,2023-11-17T19:47:47.058Z,,,,,,,,,,,NaN,,,,,,,,high,high,,,,,,false,,,,,false,579123.6999999285,579123.5999999046,,579123.3999999762,,579138.126,4,500,,
break_continue,html.Screen,10_26_2,2023-11-17T19:47:47.058Z,,,,,,,,,,,NaN,,,,,,,,high,high,,,,,,false,,,,,false,579123.7999999523,579123.7999999523,,579123.6999999285,,579138.126,4,500,,
sequence,flow.Sequence,10_26,2023-11-17T19:47:47.058Z,,,,,,,,,,,3626.136999952374,completion,,,,,,,high,high,,,,,,false,,,,,false,579123.8999999762,579123.7999999523,575481.115,575484.7999999523,575497.663,579138.126,4,500,,
trial,html.Screen,10_27_0,2023-11-17T19:47:50.154Z,,,,1,-0.0086413421586899,-0.0360184993500958,,0.04,true,lh,3081.3739999999525,response,-0.9394943755829636,0.7707614172638297,-1.0850000000000002,0.7928025019302636,0.9996775133734637,-1.0774521223088502,low,high,,ISIC_0010767.JPG,10,ISIC_0071550.JPG,25,false,0.2300000000000001,lh,keypress(e),0,false,582219.5,582219.5,579121.437,579123.8999999762,579138.126,582227.475,4,500,28,
break,html.Screen,10_27_1,2023-11-17T19:47:50.154Z,,,,,,,,,,,NaN,,,,,,,,low,high,,,,,,false,,,,,false,582219.8999999762,582219.8999999762,,582219.6999999285,,582227.475,4,500,,
break_continue,html.Screen,10_27_2,2023-11-17T19:47:50.154Z,,,,,,,,,,,NaN,,,,,,,,low,high,,,,,,false,,,,,false,582220.0999999046,582220,,582220,,582227.475,4,500,,
sequence,flow.Sequence,10_27,2023-11-17T19:47:50.155Z,,,,,,,,,,,3081.8739999999525,completion,,,,,,,low,high,,,,,,false,,,,,false,582220.0999999046,582220,579121.437,579123.8999999762,579138.126,582227.475,4,500,,
trial,html.Screen,10_28_0,2023-11-17T19:47:52.274Z,,,,1,0.0399381815506136,0.0177751789152893,,0.04,false,hh,2111.9249999761814,response,0.731232527745512,0.7707614172638297,-1.0850000000000002,0.9697140990856988,0.9996775133734637,-1.0774521223088502,high,high,,ISIC_3981425.JPG,9,ISIC_6882582.JPG,43,false,0.1,lh,keypress(e),0,false,584339.5,584339.3999999762,582210.776,582220.0999999046,582227.475,584348.192,4,500,29,
break,html.Screen,10_28_1,2023-11-17T19:47:52.274Z,,,,,,,,,,,NaN,,,,,,,,high,high,,,,,,false,,,,,false,584339.7999999523,584339.6999999285,,584339.5999999046,,584348.192,4,500,,
break_continue,html.Screen,10_28_2,2023-11-17T19:47:52.274Z,,,,,,,,,,,NaN,,,,,,,,high,high,,,,,,false,,,,,false,584340,584340,,584339.8999999762,,584348.192,4,500,,
sequence,flow.Sequence,10_28,2023-11-17T19:47:52.274Z,,,,,,,,,,,2112.5250000000233,completion,,,,,,,high,high,,,,,,false,,,,,false,584340,584340,582210.776,582220.0999999046,582227.475,584348.192,4,500,,
trial,html.Screen,10_29_0,2023-11-17T19:47:56.554Z,,,,1,-0.0199897690678184,-0.0312486875504497,,0.04,true,lh,4271.207999976119,response,-1.2018448523268856,0.7707614172638297,-1.0850000000000002,0.8157731190790072,0.9996775133734637,-1.0774521223088502,low,high,,ISIC_5482426.JPG,8,ISIC_7662993.JPG,25,false,0.2300000000000001,lh,keypress(e),0,false,588619.5999999046,588619.3999999762,584331.55,584340.0999999046,584348.192,588623.176,4,500,30,
break,html.Screen,10_29_1,2023-11-17T19:47:56.554Z,,,,,,,,,,,NaN,,,,,,,,low,high,,,,,,false,,,,,false,588619.8999999762,588619.7999999523,,588619.5999999046,,588623.176,4,500,,
break_continue,html.Screen,10_29_2,2023-11-17T19:47:56.554Z,,,,,,,,,,,NaN,,,,,,,,low,high,,,,,,false,,,,,false,588620,588619.8999999762,,588619.8999999762,,588623.176,4,500,,
sequence,flow.Sequence,10_29,2023-11-17T19:47:56.554Z,,,,,,,,,,,4271.707999976119,completion,,,,,,,low,high,,,,,,false,,,,,false,588620.0999999046,588619.8999999762,584331.55,584340.0999999046,584348.192,588623.176,4,500,,
trial,html.Screen,10_30_0,2023-11-17T19:47:59.331Z,,,,1,-0.0189295602385628,-0.0128812415435153,,0.04,true,hh,2772.3240000000224,response,0.7885346483975911,0.7707614172638297,-1.0850000000000002,1.0139262987357185,0.9996775133734637,-1.0774521223088502,high,high,,ISIC_0010372.JPG,9,ISIC_0000406.JPG,43,false,0.1,hh,keypress(i),0,false,591395.6999999285,591395.5,588606.613,588620.0999999046,588623.176,591412.004,4,500,31,
break,html.Screen,10_30_1,2023-11-17T19:47:59.332Z,,,,,,,,,,,NaN,,,,,,,,high,high,,,,,,false,,,,,false,591396,591396,,591395.7999999523,,591412.004,4,500,,
break_continue,html.Screen,10_30_2,2023-11-17T19:47:59.332Z,,,,,,,,,,,NaN,,,,,,,,high,high,,,,,,false,,,,,false,591396.1999999285,591396.0999999046,,591396.0999999046,,591412.004,4,500,,
sequence,flow.Sequence,10_30,2023-11-17T19:47:59.332Z,,,,,,,,,,,2772.923999904655,completion,,,,,,,high,high,,,,,,false,,,,,false,591396.2999999523,591396.0999999046,588606.613,588620.0999999046,588623.176,591412.004,4,500,,
trial,html.Screen,10_31_0,2023-11-17T19:48:01.316Z,,,,1,0.012020985739544,-0.0126097407389903,,0.04,false,ll,1968.1959999285173,response,-1.2029833962266836,0.7707614172638297,-1.0850000000000002,-0.9698119319380986,0.9996775133734637,-1.0774521223088502,low,low,,ISIC_0069379.JPG,10,ISIC_6208107.JPG,26,false,0.12,hl,keypress(j),0,false,593380.5,593380.1999999285,591395.351,591396.2999999523,591412.004,593382.473,4,500,32,
break,html.Screen,10_31_1,2023-11-17T19:48:01.317Z,,,,,,,,,,,NaN,,,,,,,,low,low,,,,,,false,,,,,false,593381.3999999762,593381.2999999523,,593380.7999999523,,593382.473,4,500,,
break_continue,html.Screen,10_31_2,2023-11-17T19:48:01.318Z,,,,,,,,,,,NaN,,,,,,,,low,low,,,,,,false,,,,,false,593381.7999999523,593381.6999999285,,593381.5,,593382.473,4,500,,
sequence,flow.Sequence,10_31,2023-11-17T19:48:01.318Z,,,,,,,,,,,1969.6959999285173,completion,,,,,,,low,low,,,,,,false,,,,,false,593382,593381.6999999285,591395.351,591396.2999999523,591412.004,593382.473,4,500,,
trial,html.Screen,10_32_0,2023-11-17T19:48:02.844Z,,,,1,-0.0321039635696159,-0.020496766286318,,0.04,false,ll,1525.1269999046344,response,-1.0730492496332733,0.7707614172638297,-1.0850000000000002,-1.0252626598876022,0.9996775133734637,-1.0774521223088502,low,low,,ISIC_0058063.JPG,10,ISIC_0007029.JPG,26,false,0.12,hl,keypress(j),0,false,594907.7999999523,594907.5999999046,593365.74,593382.0999999046,593382.473,594918.958,4,500,33,
break,html.Screen,10_32_1,2023-11-17T19:48:02.844Z,,,,,,,,,,,NaN,,,,,,,,low,low,,,,,,false,,,,,false,594908.1999999285,594908.1999999285,,594907.8999999762,,594918.958,4,500,,
break_continue,html.Screen,10_32_2,2023-11-17T19:48:02.844Z,,,,,,,,,,,NaN,,,,,,,,low,low,,,,,,false,,,,,false,594908.5,594908.5,,594908.2999999523,,594918.958,4,500,,
sequence,flow.Sequence,10_32,2023-11-17T19:48:02.844Z,,,,,,,,,,,1526.0270000000019,completion,,,,,,,low,low,,,,,,false,,,,,false,594908.5999999046,594908.5,593365.74,593382.0999999046,593382.473,594918.958,4,500,,
trial,html.Screen,10_33_0,2023-11-17T19:48:05.596Z,,,,1,0.0158987717472563,0.0292472192292015,,0.04,true,hh,2740.6419999046484,response,0.7123344251569738,0.7707614172638297,-1.0850000000000002,1.0605755702127622,0.9996775133734637,-1.0774521223088502,high,high,,ISIC_1366765.JPG,8,ISIC_0065622.JPG,43,false,0.1,hh,keypress(i),0,false,597659.7999999523,597659.5999999046,594902.269,594908.5999999046,594918.958,597674.116,4,500,34,
break,html.Screen,10_33_1,2023-11-17T19:48:05.596Z,,,,,,,,,,,NaN,,,,,,,,high,high,,,,,,false,,,,,false,597660.1999999285,597660.1999999285,,597659.8999999762,,597674.116,4,500,,
break_continue,html.Screen,10_33_2,2023-11-17T19:48:05.596Z,,,,,,,,,,,NaN,,,,,,,,high,high,,,,,,false,,,,,false,597660.5,597660.5,,597660.3999999762,,597674.116,4,500,,
sequence,flow.Sequence,10_33,2023-11-17T19:48:05.596Z,,,,,,,,,,,2741.542000000016,completion,,,,,,,high,high,,,,,,false,,,,,false,597660.6999999285,597660.5,594902.269,594908.5999999046,594918.958,597674.116,4,500,,
trial,html.Screen,10_34_0,2023-11-17T19:48:08.420Z,,,,1,-0.0063515208248796,-0.0194177605767913,,0.04,true,hl,2809.683999952278,response,0.9046170303418553,0.7707614172638297,-1.0850000000000002,-1.0063426986460375,0.9996775133734637,-1.0774521223088502,high,low,,ISIC_5281908.JPG,9,ISIC_0055759.JPG,26,false,0.14,hl,keypress(j),0,false,600484,600483.7999999523,597657.617,597660.6999999285,597674.116,600496.501,4,500,35,
break,html.Screen,10_34_1,2023-11-17T19:48:08.420Z,,,,,,,,,,,NaN,,,,,,,,high,low,,,,,,false,,,,,false,600484.6999999285,600484.5,,600484.1999999285,,600496.501,4,500,,
break_continue,html.Screen,10_34_2,2023-11-17T19:48:08.421Z,,,,,,,,,,,NaN,,,,,,,,high,low,,,,,,false,,,,,false,600485.0999999046,600484.8999999762,,600484.7999999523,,600496.501,4,500,,
sequence,flow.Sequence,10_34,2023-11-17T19:48:08.421Z,,,,,,,,,,,2810.78399997612,completion,,,,,,,high,low,,,,,,false,,,,,false,600485.1999999285,600484.8999999762,597657.617,597660.6999999285,597674.116,600496.501,4,500,,
trial,html.Screen,10_35_0,2023-11-17T19:48:12.421Z,,,,1,0.0060918352854008,-0.029032683404407,,0.04,true,hh,3988.298999952269,response,0.8112269594281695,0.7707614172638297,-1.0850000000000002,1.041128166465784,0.9996775133734637,-1.0774521223088502,high,high,,ISIC_8436194.JPG,9,ISIC_0059248.JPG,43,false,0.1,hh,keypress(i),0,false,604485.0999999046,604484.7999999523,600479.683,600485.3999999762,600496.501,604504.116,4,500,36,
break,html.Screen,10_35_1,2023-11-17T19:48:12.422Z,,,,,,,,,,,NaN,,,,,,,,high,high,,,,,,false,,,,,false,604486.0999999046,604485.7999999523,,604485.3999999762,,604504.116,4,500,,
break_continue,html.Screen,10_35_2,2023-11-17T19:48:12.422Z,,,,,,,,,,,NaN,,,,,,,,high,high,,,,,,false,,,,,false,604486.5999999046,604486.3999999762,,604486.1999999285,,604504.116,4,500,,
sequence,flow.Sequence,10_35,2023-11-17T19:48:12.423Z,,,,,,,,,,,3989.8989999761106,completion,,,,,,,high,high,,,,,,false,,,,,false,604486.7999999523,604486.3999999762,600479.683,600485.3999999762,600496.501,604504.116,4,500,,
trial,html.Screen,10_36_0,2023-11-17T19:48:21.395Z,,,,1,-0.0127320821962457,0.0315308940184827,,0.04,false,lh,8955.28399997612,response,-0.9445114955578736,0.7707614172638297,-1.0850000000000002,1.0054210059625863,0.9996775133734637,-1.0774521223088502,low,high,,ISIC_8156101.JPG,8,ISIC_0033807.JPG,25,false,0.2300000000000001,ll,keypress(f),0,false,613459.5,613459.3999999762,604470.73,604487.0999999046,604504.116,613471.572,4,500,37,
break,html.Screen,10_36_1,2023-11-17T19:48:21.396Z,,,,,,,,,,,NaN,,,,,,,,low,high,,,,,,false,,,,,false,613459.7999999523,613459.7999999523,,613459.5999999046,,613471.572,4,500,,
break_continue,html.Screen,10_36_2,2023-11-17T19:48:21.396Z,,,,,,,,,,,NaN,,,,,,,,low,high,,,,,,false,,,,,false,613460,613459.8999999762,,613459.7999999523,,613471.572,4,500,,
sequence,flow.Sequence,10_36,2023-11-17T19:48:21.396Z,,,,,,,,,,,8955.78399997612,completion,,,,,,,low,high,,,,,,false,,,,,false,613460.0999999046,613459.8999999762,604470.73,604487,604504.116,613471.572,4,500,,
trial,html.Screen,10_37_0,2023-11-17T19:48:23.315Z,,,,1,-0.0365981355399771,-0.0162670920008846,,0.04,true,hl,1907.9279999999562,response,0.8688859182707874,0.7707614172638297,-1.0850000000000002,-0.9566733172438716,0.9996775133734637,-1.0774521223088502,high,low,,ISIC_0982855.JPG,8,ISIC_0640770.JPG,26,false,0.14,hl,keypress(j),0,false,615379.5999999046,615379.5,613454.941,613460.0999999046,613471.572,615392.085,4,500,38,
break,html.Screen,10_37_1,2023-11-17T19:48:23.316Z,,,,,,,,,,,NaN,,,,,,,,high,low,,,,,,false,,,,,false,615380,615379.8999999762,,615379.6999999285,,615392.085,4,500,,
break_continue,html.Screen,10_37_2,2023-11-17T19:48:23.316Z,,,,,,,,,,,NaN,,,,,,,,high,low,,,,,,false,,,,,false,615380.1999999285,615380.0999999046,,615380.0999999046,,615392.085,4,500,,
sequence,flow.Sequence,10_37,2023-11-17T19:48:23.316Z,,,,,,,,,,,1908.5279999045888,completion,,,,,,,high,low,,,,,,false,,,,,false,615380.2999999523,615380.0999999046,613454.941,613460.0999999046,613471.572,615392.085,4,500,,
trial,html.Screen,10_38_0,2023-11-17T19:48:25.708Z,,,,1,0.012810673904807,-0.00400964452501,,0.04,true,hl,2379.9150000000373,response,0.9046170303418553,0.7707614172638297,-1.0850000000000002,-1.0063426986460375,0.9996775133734637,-1.0774521223088502,high,low,,ISIC_0064656.JPG,9,ISIC_0055759.JPG,26,false,0.14,hl,keypress(j),0,false,617772.1999999285,617772,615375.199,615380.3999999762,615392.085,617779.926,4,500,39,
