sender,sender_type,sender_id,timestamp,meta,,age,blockNo,c1,c2,condition,control_tolerance,correct,correctResponse,duration,ended_on,f1,f1_high,f1_low,f2,f2_high,f2_low,feature_level1,feature_level2,gender,img_left,img_reveal,img_right,n_target_images,practice,range_tolerance,response,response_action,selection_duration,staircase,time_commit,time_end,time_render,time_run,time_show,time_switch,total_blocks,total_trials,trialNo,url
informed_consent,html.Screen,0,2023-11-17T19:37:18.346Z,"{""labjs_version"":""20.2.4"",""labjs_build"":{""flavor"":""development"",""commit"":""f5b4a49f956347addd546a832a3327688c2c0fef""},""location"":""https://labjs.felixhenninger.com/api/labjs_preview/index.html"",""userAgent"":""Mozilla/5.0 (Windows NT 10.0; Win64; x64) AppleWebKit/537.36 (KHTML, like Gecko) Chrome/119.0.0.0 Safari/537.36"",""platform"":""Win32"",""language"":""en-US"",""locale"":""en-US"",""timeZone"":""America/Chicago"",""timezoneOffset"":360,""screen_width"":1920,""screen_height"":1080,""scroll_width"":945,""scroll_height"":918,""window_innerWidth"":945,""window_innerHeight"":966,""devicePixelRatio"":1}",,,,,,,,,,25298.372999988078,response,,,,,,,,,,,,,,,,consent,click button,,,26002.099999964237,25993.19999998808,678.174,665.0999999642372,694.827,25994.817,,,,{}
Demography form,html.Form,1,2023-11-17T19:37:26.122Z,,,19,,,,,,,,7782.88299998808,form submission,,,,,,,,,male,,,,,,,,,,,33777.80000001192,33777.69999998808,25978.164,26002.30000001192,25994.817,33795.092,,,,
Welcome,html.Screen,2,2023-11-17T19:38:10.826Z,,,,,,,"[""asym"",""col""]",,,,44686.10799998808,response,,,,,,,,,,,,,,,,continue,click button,,,78481.69999998808,78481.19999998808,33778.155,33778,33795.092,78495.039,,,,
demo_instructions,html.Screen,3,2023-11-17T19:38:48.946Z,,,,,,,,,,,38106.06099996423,response,,,,,,,,,,,,,,,,continue,click button,,,116601.69999998808,116601.09999996424,78478.319,78481.89999997616,78495.039,116628.261,,,,
trial,html.Screen,4_0_0,2023-11-17T19:38:56.679Z,,,,0,1.0345332538240786,-1.4719115945084815,,,true,lh,7706.739000000001,response,-1.1224745971429997,1.2,-1.2,0.8423270217438888,1.2,-1.2,low,high,,ISIC_0192490.JPG,,ISIC_0057032.JPG,29,true,0.3600000000000002,lh,keypress(e),100,false,124335.19999998808,124335,116595.119,116601.80000001192,116628.261,124361.782,1,16,1,
sequence,flow.Sequence,4_0,2023-11-17T19:38:56.680Z,,,,,,,,,,,7706.739000000001,completion,,,,,,,low,high,,,,,,true,,,,,false,124335.59999996424,124335,116595.119,116601.80000001192,116628.261,124361.782,1,16,,
trial,html.Screen,4_1_0,2023-11-17T19:39:02.203Z,,,,0,0.8787496315223856,-1.3680901203013998,,,false,lh,5497.117999976152,response,-1.00615481805876,1.2,-1.2,0.8428903771195875,1.2,-1.2,low,high,,ISIC_0023811.JPG,,ISIC_0069970.JPG,29,true,0.3600000000000002,hh,keypress(i),100,false,129859.30000001192,129858.89999997616,124344.994,124335.69999998808,124361.782,129878.313,1,16,2,
sequence,flow.Sequence,4_1,2023-11-17T19:39:02.204Z,,,,,,,,,,,5497.117999976152,completion,,,,,,,low,high,,,,,,true,,,,,false,129859.69999998808,129858.89999997616,124344.994,124335.59999996424,124361.782,129878.313,1,16,,
trial,html.Screen,4_2_0,2023-11-17T19:39:08.084Z,,,,0,0.9873794329144926,-0.9500689037516484,,,true,lh,5860.5869999761635,response,-1.3411487193830047,1.2,-1.2,1.198640448317381,1.2,-1.2,low,high,,ISIC_0013498.JPG,,ISIC_3093026.JPG,29,true,0.3600000000000002,lh,keypress(e),100,false,135739.19999998808,135738.89999997616,129861.686,129859.80000001192,129878.313,135761.835,1,16,3,
sequence,flow.Sequence,4_2,2023-11-17T19:39:08.084Z,,,,,,,,,,,5860.5869999761635,completion,,,,,,,low,high,,,,,,true,,,,,false,135739.39999997616,135738.89999997616,129861.686,129859.69999998808,129878.313,135761.835,1,16,,
trial,html.Screen,4_3_0,2023-11-17T19:39:16.802Z,,,,0,1.0700930503975157,-0.923753102263735,,,true,lh,8694.864999988087,response,-1.3515962101204746,1.2,-1.2,0.8414583575292955,1.2,-1.2,low,high,,ISIC_0000022.JPG,,ISIC_0274382.JPG,29,true,0.3600000000000002,lh,keypress(e),100,false,144457.09999996424,144456.69999998808,135744.964,135739.5,135761.835,144478.57,1,16,4,
sequence,flow.Sequence,4_3,2023-11-17T19:39:16.802Z,,,,,,,,,,,8694.864999988087,completion,,,,,,,low,high,,,,,,true,,,,,false,144457.5,144456.69999998808,135744.964,135739.39999997616,135761.835,144478.57,1,16,,
trial,html.Screen,4_4_0,2023-11-17T19:39:23.706Z,,,,0,1.1715181192107684,1.2251845559044463,,,true,ll,6882.52999996423,response,-1.1513073368404492,1.2,-1.2,-1.0485268550965705,1.2,-1.2,low,low,,ISIC_0011957.JPG,,ISIC_0030666.JPG,127,true,0.3300000000000002,ll,keypress(f),100,false,151361.30000001192,151361.09999996424,144461.676,144457.69999998808,144478.57,151378.456,1,16,5,
sequence,flow.Sequence,4_4,2023-11-17T19:39:23.706Z,,,,,,,,,,,6882.52999996423,completion,,,,,,,low,low,,,,,,true,,,,,false,151361.59999996424,151361.09999996424,144461.676,144457.59999996424,144478.57,151378.456,1,16,,
trial,html.Screen,4_5_0,2023-11-17T19:39:34.290Z,,,,0,1.1392234684115472,1.3198277407683998,,,true,ll,10566.543999999994,response,-1.1510001454240106,1.2,-1.2,-1.132540312667795,1.2,-1.2,low,low,,ISIC_0071875.JPG,,ISIC_0009959.JPG,25,true,0.15000000000000002,ll,keypress(f),100,false,161945.30000001192,161945,151361.705,151361.69999998808,151378.456,161961.84,1,16,6,
sequence,flow.Sequence,4_5,2023-11-17T19:39:34.290Z,,,,,,,,,,,10566.543999999994,completion,,,,,,,low,low,,,,,,true,,,,,false,161945.69999998808,161945,151361.705,151361.69999998808,151378.456,161961.84,1,16,,
trial,html.Screen,4_6_0,2023-11-17T19:39:41.004Z,,,,0,1.152619213055059,1.2957497771092716,,,true,ll,6697.559999976162,response,-1.0885984639975343,1.2,-1.2,-1.2042618719491294,1.2,-1.2,low,low,,ISIC_0061915.JPG,,ISIC_0012740.JPG,25,true,0.15000000000000002,ll,keypress(f),100,false,168659.5,168659.39999997616,161945.064,161945.89999997616,161961.84,168678.35,1,16,7,
sequence,flow.Sequence,4_6,2023-11-17T19:39:41.004Z,,,,,,,,,,,6697.559999976162,completion,,,,,,,low,low,,,,,,true,,,,,false,168659.69999998808,168659.39999997616,161945.064,161945.89999997616,161961.84,168678.35,1,16,,
trial,html.Screen,4_7_0,2023-11-17T19:39:47.748Z,,,,0,1.2872758518949912,1.313723254903214,,,true,ll,6724.649999999994,response,-1.1990772227054871,1.2,-1.2,-1.1224329926844498,1.2,-1.2,low,low,,ISIC_0064376.JPG,,ISIC_3425388.JPG,25,true,0.15000000000000002,ll,keypress(f),100,false,175403.19999998808,175403,168661.685,168659.69999998808,168678.35,175428.347,1,16,8,
sequence,flow.Sequence,4_7,2023-11-17T19:39:47.748Z,,,,,,,,,,,6724.649999999994,completion,,,,,,,low,low,,,,,,true,,,,,false,175403.39999997616,175403,168661.685,168659.69999998808,168678.35,175428.347,1,16,,
trial,html.Screen,4_8_0,2023-11-17T19:39:52.687Z,,,,0,-1.00615481805876,0.8428903771195875,,,true,hl,4914.252999964228,response,0.9873794329144926,1.2,-1.2,-0.9500689037516484,1.2,-1.2,high,low,,ISIC_0069970.JPG,,ISIC_0013498.JPG,26,true,0.3300000000000002,hl,keypress(j),100,false,180342.80000001192,180342.59999996424,175411.727,175403.5,175428.347,180361.781,1,16,9,
sequence,flow.Sequence,4_8,2023-11-17T19:39:52.688Z,,,,,,,,,,,4914.252999964228,completion,,,,,,,high,low,,,,,,true,,,,,false,180343,180342.59999996424,175411.727,175403.39999997616,175428.347,180361.781,1,16,,
trial,html.Screen,4_9_0,2023-11-17T19:39:57.839Z,,,,0,-1.411763789273233,1.0057734478347988,,,false,hl,5132.61899997617,response,1.082730232773217,1.2,-1.2,-0.8833175387485132,1.2,-1.2,high,low,,ISIC_0027235.JPG,,ISIC_0011933.JPG,33,true,0.3600000000000002,hh,keypress(i),100,false,185494.59999996424,185494.39999997616,180345.054,180343.09999996424,180361.781,185511.689,1,16,10,
sequence,flow.Sequence,4_9,2023-11-17T19:39:57.839Z,,,,,,,,,,,5132.61899997617,completion,,,,,,,high,low,,,,,,true,,,,,false,185494.80000001192,185494.39999997616,180345.054,180343.09999996424,180361.781,185511.689,1,16,,
trial,html.Screen,4_10_0,2023-11-17T19:40:01.841Z,,,,0,-1.225025174430573,0.8422679054456499,,,false,hl,3984.410999964224,response,1.082730232773217,1.2,-1.2,-0.8833175387485132,1.2,-1.2,high,low,,ISIC_7503950.JPG,,ISIC_0011933.JPG,33,true,0.3600000000000002,hh,keypress(i),100,false,189496.19999998808,189496.09999996424,185495.079,185494.89999997616,185511.689,189528.363,1,16,11,
sequence,flow.Sequence,4_10,2023-11-17T19:40:01.841Z,,,,,,,,,,,3984.410999964224,completion,,,,,,,high,low,,,,,,true,,,,,false,189496.30000001192,189496.09999996424,185495.079,185494.89999997616,185511.689,189528.363,1,16,,
trial,html.Screen,4_11_0,2023-11-17T19:40:12.531Z,,,,0,-0.8644465729542988,0.8679598285079457,,,false,hl,10657.536999976146,response,0.9873794329144926,1.2,-1.2,-0.9500689037516484,1.2,-1.2,high,low,,ISIC_6718969.JPG,,ISIC_0013498.JPG,33,true,0.3600000000000002,hh,keypress(i),100,false,200186.19999998808,200185.89999997616,189511.693,189496.5,189528.363,200211.871,1,16,12,
sequence,flow.Sequence,4_11,2023-11-17T19:40:12.531Z,,,,,,,,,,,10657.536999976146,completion,,,,,,,high,low,,,,,,true,,,,,false,200186.5,200185.89999997616,189511.693,189496.39999997616,189528.363,200211.871,1,16,,
trial,html.Screen,4_12_0,2023-11-17T19:40:17.182Z,,,,0,-1.294521945180264,-1.3078626540563885,,,true,hh,4624.828999988065,response,0.9455512119785764,1.2,-1.2,1.2791121042047748,1.2,-1.2,high,high,,ISIC_3601224.JPG,,ISIC_0057286.JPG,249,true,0.3600000000000002,hh,keypress(i),100,false,204836.89999997616,204836.69999998808,200195.11,200186.69999998808,200211.871,204861.764,1,16,13,
sequence,flow.Sequence,4_12,2023-11-17T19:40:17.182Z,,,,,,,,,,,4624.828999988065,completion,,,,,,,high,high,,,,,,true,,,,,false,204837.09999996424,204836.69999998808,200195.11,200186.59999996424,200211.871,204861.764,1,16,,
trial,html.Screen,4_13_0,2023-11-17T19:40:23.045Z,,,,0,-1.3045229691102764,-1.1781544075681951,,,false,hh,5838.635999976163,response,1.2839527450318475,1.2,-1.2,1.342019616565807,1.2,-1.2,high,high,,ISIC_6148533.JPG,,ISIC_0070210.JPG,41,true,0.15000000000000002,hl,keypress(j),100,false,210700.59999996424,210700.39999997616,204845.205,204837.19999998808,204861.764,210728.425,1,16,14,
sequence,flow.Sequence,4_13,2023-11-17T19:40:23.046Z,,,,,,,,,,,5838.635999976163,completion,,,,,,,high,high,,,,,,true,,,,,false,210700.89999997616,210700.39999997616,204845.205,204837.19999998808,204861.764,210728.425,1,16,,
trial,html.Screen,4_14_0,2023-11-17T19:40:26.802Z,,,,0,-1.301795918505203,-1.0518606632781424,,,true,hh,3728.3750000119326,response,1.1407514641016443,1.2,-1.2,1.280017651202714,1.2,-1.2,high,high,,ISIC_0027666.JPG,,ISIC_0072507.JPG,41,true,0.15000000000000002,hh,keypress(i),100,false,214456.89999997616,214456.80000001192,210711.799,210701.09999996424,210728.425,214478.573,1,16,15,
sequence,flow.Sequence,4_14,2023-11-17T19:40:26.802Z,,,,,,,,,,,3728.3750000119326,completion,,,,,,,high,high,,,,,,true,,,,,false,214457.09999996424,214456.80000001192,210711.799,210701,210728.425,214478.573,1,16,,
trial,html.Screen,4_15_0,2023-11-17T19:40:30.424Z,,,,0,-1.1638334638021437,-1.0846635401396965,,,true,hh,3600.326999976154,response,1.3034518282811869,1.2,-1.2,1.0897657776277234,1.2,-1.2,high,high,,ISIC_4718313.JPG,,ISIC_0071988.JPG,41,true,0.15000000000000002,hh,keypress(i),100,false,218079,218078.89999997616,214461.772,214457.09999996424,214478.573,218095.104,1,16,16,
sequence,flow.Sequence,4_15,2023-11-17T19:40:30.424Z,,,,,,,,,,,3600.326999976154,completion,,,,,,,high,high,,,,,,true,,,,,false,218079.30000001192,218078.89999997616,214461.772,214457.09999996424,214478.573,218095.104,1,16,,
demonstration_loop,flow.Loop,4,2023-11-17T19:40:30.424Z,,,,,,,,,,,101450.63899997616,completion,,,,,,,,,,,,,,true,,,,,false,218079.5,218078.89999997616,116595.119,116601.80000001192,116628.261,218095.104,1,16,,
practice_instructions,html.Screen,5,2023-11-17T19:40:40.375Z,,,,,,,,,,,9914.595999988087,response,,,,,,,,,,,,,,,,continue,keypress(Space),,,228030,228009.69999998808,218078.629,218079.59999996424,218095.104,228045.093,,,,
trial,html.Screen,6_0_0,2023-11-17T19:40:46.125Z,,,,1,0.8787496315223856,-1.3680901203013998,,,true,lh,5727.9070000000065,response,-1.11329866545753,1.2,-1.2,1.2155631217348757,1.2,-1.2,low,high,,ISIC_0023811.JPG,,ISIC_0032610.JPG,29,true,0.3600000000000002,lh,keypress(e),0,false,233780,233773,228028.231,228030.19999998808,228045.093,233795.091,1,40,1,
sequence,flow.Sequence,6_0,2023-11-17T19:40:46.125Z,,,,,,,,,,,5727.9070000000065,completion,,,,,,,low,high,,,,,,true,,,,,false,233780.19999998808,233773,228028.231,228030.19999998808,228045.093,233795.091,1,40,,
trial,html.Screen,6_1_0,2023-11-17T19:40:49.019Z,,,,1,1.0748728054622358,-1.2840853987892311,,,true,lh,2879.3089999761723,response,-1.2838089642212804,1.2,-1.2,0.8550527900640753,1.2,-1.2,low,high,,ISIC_0059219.JPG,,ISIC_0034187.JPG,29,true,0.3600000000000002,lh,keypress(e),0,false,236674.59999996424,236674.39999997616,233778.256,233780.19999998808,233795.091,236678.467,1,40,2,
sequence,flow.Sequence,6_1,2023-11-17T19:40:49.020Z,,,,,,,,,,,2879.3089999761723,completion,,,,,,,low,high,,,,,,true,,,,,false,236674.89999997616,236674.39999997616,233778.256,233780.19999998808,233795.091,236678.467,1,40,,
trial,html.Screen,6_2_0,2023-11-17T19:40:54.499Z,,,,1,1.238264833797662,1.176099940770289,,,true,ll,5475.632999964233,response,-1.301795918505203,1.2,-1.2,-1.0518606632781424,1.2,-1.2,low,low,,ISIC_0032861.JPG,,ISIC_0027666.JPG,127,true,0.3300000000000002,ll,keypress(f),0,false,242154.19999998808,242154.09999996424,236661.706,236675.09999996424,236678.467,242178.458,1,40,3,
sequence,flow.Sequence,6_2,2023-11-17T19:40:54.499Z,,,,,,,,,,,5475.632999964233,completion,,,,,,,low,low,,,,,,true,,,,,false,242154.39999997616,242154.09999996424,236661.706,236675,236678.467,242178.458,1,40,,
trial,html.Screen,6_3_0,2023-11-17T19:40:58.915Z,,,,1,1.1592423187534993,-1.067128884093211,,,true,lh,4391.641999964224,response,-0.9385447468573198,1.2,-1.2,1.2289860846064424,1.2,-1.2,low,high,,ISIC_6854940.JPG,,ISIC_0032780.JPG,29,true,0.3600000000000002,lh,keypress(e),0,false,246570.30000001192,246570.09999996424,242144.958,242154.5,242178.458,246578.433,1,40,4,
sequence,flow.Sequence,6_3,2023-11-17T19:40:58.915Z,,,,,,,,,,,4391.641999964224,completion,,,,,,,low,high,,,,,,true,,,,,false,246570.5,246570.09999996424,242144.958,242154.5,242178.458,246578.433,1,40,,
trial,html.Screen,6_4_0,2023-11-17T19:41:02.068Z,,,,1,-1.225025174430573,0.8422679054456499,,,true,hl,3144.06700000001,response,1.0700930503975157,1.2,-1.2,-0.923753102263735,1.2,-1.2,high,low,,ISIC_7503950.JPG,,ISIC_0000022.JPG,26,true,0.3300000000000002,hl,keypress(j),0,false,249722.80000001192,249722.5,246561.794,246570.69999998808,246578.433,249745.132,1,40,5,
sequence,flow.Sequence,6_4,2023-11-17T19:41:02.068Z,,,,,,,,,,,3144.06700000001,completion,,,,,,,high,low,,,,,,true,,,,,false,249723.09999996424,249722.5,246561.794,246570.59999996424,246578.433,249745.132,1,40,,
trial,html.Screen,6_5_0,2023-11-17T19:41:05.539Z,,,,1,-0.849847885203758,0.973447384095442,,,true,hl,3449.0679999880667,response,0.8561946552009824,1.2,-1.2,-0.9282171889213044,1.2,-1.2,high,low,,ISIC_9612228.JPG,,ISIC_3065032.JPG,33,true,0.3600000000000002,hl,keypress(j),0,false,253194.39999997616,253194.19999998808,249711.853,249723.19999998808,249745.132,253228.49,1,40,6,
sequence,flow.Sequence,6_5,2023-11-17T19:41:05.540Z,,,,,,,,,,,3449.0679999880667,completion,,,,,,,high,low,,,,,,true,,,,,false,253194.69999998808,253194.19999998808,249711.853,249723.09999996424,249745.132,253228.49,1,40,,
trial,html.Screen,6_6_0,2023-11-17T19:41:12.115Z,,,,1,-1.212030980680325,-1.139863018685685,,,true,hh,6541.209999988088,response,1.2015106101917423,1.2,-1.2,1.3393124611420348,1.2,-1.2,high,high,,ISIC_0008510.JPG,,ISIC_0072496.JPG,249,true,0.3600000000000002,hh,keypress(i),0,false,259769.69999998808,259769.69999998808,253211.926,253194.80000001192,253228.49,259778.538,1,40,7,
sequence,flow.Sequence,6_6,2023-11-17T19:41:12.115Z,,,,,,,,,,,6541.209999988088,completion,,,,,,,high,high,,,,,,true,,,,,false,259769.89999997616,259769.69999998808,253211.926,253194.69999998808,253228.49,259778.538,1,40,,
trial,html.Screen,6_7_0,2023-11-17T19:41:15.740Z,,,,1,-1.1638334638021437,-1.0846635401396965,,,true,hh,3616.0619999642367,response,1.3132505134129506,1.2,-1.2,1.0949928516457437,1.2,-1.2,high,high,,ISIC_4718313.JPG,,ISIC_0066935.JPG,41,true,0.15000000000000002,hh,keypress(i),0,false,263394.89999997616,263394.59999996424,259761.786,259770,259778.538,263411.804,1,40,8,
sequence,flow.Sequence,6_7,2023-11-17T19:41:15.740Z,,,,,,,,,,,3616.0619999642367,completion,,,,,,,high,high,,,,,,true,,,,,false,263395.09999996424,263394.59999996424,259761.786,259769.89999997616,259778.538,263411.804,1,40,,
trial,html.Screen,6_8_0,2023-11-17T19:41:21.132Z,,,,1,1.250220052739973,1.2967258992731714,,,true,ll,5374.7959999642335,response,-1.1604734171556077,1.2,-1.2,-1.0789312625280616,1.2,-1.2,low,low,,ISIC_0031368.JPG,,ISIC_3950753.JPG,25,true,0.15000000000000002,ll,keypress(f),0,false,268786.89999997616,268786.59999996424,263395.088,263395.3000000119,263411.804,268811.795,1,40,9,
sequence,flow.Sequence,6_8,2023-11-17T19:41:21.132Z,,,,,,,,,,,5374.7959999642335,completion,,,,,,,low,low,,,,,,true,,,,,false,268787.3000000119,268786.59999996424,263395.088,263395.1999999881,263411.804,268811.795,1,40,,
trial,html.Screen,6_9_0,2023-11-17T19:41:24.580Z,,,,1,1.0700930503975157,-0.923753102263735,,,true,lh,3422.6049999761744,response,-0.8779374983479176,1.2,-1.2,0.9745548032823428,1.2,-1.2,low,high,,ISIC_0000022.JPG,,ISIC_2991354.JPG,29,true,0.3600000000000002,lh,keypress(e),0,false,272234.6999999881,272234.39999997616,268778.329,268787.39999997616,268811.795,272245.155,1,40,10,
sequence,flow.Sequence,6_9,2023-11-17T19:41:24.580Z,,,,,,,,,,,3422.6049999761744,completion,,,,,,,low,high,,,,,,true,,,,,false,272235,272234.39999997616,268778.329,268787.39999997616,268811.795,272245.155,1,40,,
trial,html.Screen,6_10_0,2023-11-17T19:41:26.867Z,,,,1,1.1783311757907324,1.266840220031473,,,true,ll,2276.544999988051,response,-1.0066944863194518,1.2,-1.2,-1.2755557894401093,1.2,-1.2,low,low,,ISIC_8241457.JPG,,ISIC_3885041.JPG,127,true,0.3300000000000002,ll,keypress(f),0,false,274521.89999997616,274521.6999999881,272228.431,272235.09999996424,272245.155,274528.487,1,40,11,
sequence,flow.Sequence,6_10,2023-11-17T19:41:26.867Z,,,,,,,,,,,2276.544999988051,completion,,,,,,,low,low,,,,,,true,,,,,false,274521.89999997616,274521.6999999881,272228.431,272235.09999996424,272245.155,274528.487,1,40,,
trial,html.Screen,6_11_0,2023-11-17T19:41:28.723Z,,,,1,-1.2615315960773072,1.194084675079932,,,true,hl,1849.5129999999772,response,1.1547137855907486,1.2,-1.2,-1.0185275168641534,1.2,-1.2,high,low,,ISIC_0010044.JPG,,ISIC_7604870.JPG,26,true,0.3300000000000002,hl,keypress(j),0,false,276378.1999999881,276378,274511.998,274522,274528.487,276395.136,1,40,12,
sequence,flow.Sequence,6_11,2023-11-17T19:41:28.724Z,,,,,,,,,,,1849.5129999999772,completion,,,,,,,high,low,,,,,,true,,,,,false,276378.5,276378,274511.998,274522,274528.487,276395.136,1,40,,
trial,html.Screen,6_12_0,2023-11-17T19:41:30.756Z,,,,1,-1.00615481805876,0.8428903771195875,,,true,hl,2015.2639999761595,response,0.8787496315223856,1.2,-1.2,-1.3680901203013998,1.2,-1.2,high,low,,ISIC_0069970.JPG,,ISIC_0023811.JPG,33,true,0.3600000000000002,hl,keypress(j),0,false,278410.59999996424,278410.39999997616,276378.519,276378.6999999881,276395.136,278429.531,1,40,13,
sequence,flow.Sequence,6_12,2023-11-17T19:41:30.756Z,,,,,,,,,,,2015.2639999761595,completion,,,,,,,high,low,,,,,,true,,,,,false,278410.89999997616,278410.39999997616,276378.519,276378.59999996424,276395.136,278429.531,1,40,,
trial,html.Screen,6_13_0,2023-11-17T19:41:33.364Z,,,,1,0.9225524349657857,-0.929746784178986,,,true,lh,2588.7690000119037,response,-0.8479396253253069,1.2,-1.2,1.011054319516718,1.2,-1.2,low,high,,ISIC_0011077.JPG,,ISIC_0063521.JPG,29,true,0.3600000000000002,lh,keypress(e),0,false,281018.39999997616,281018.3000000119,278395.214,278411.09999996424,278429.531,281028.527,1,40,14,
sequence,flow.Sequence,6_13,2023-11-17T19:41:33.364Z,,,,,,,,,,,2588.7690000119037,completion,,,,,,,low,high,,,,,,true,,,,,false,281018.8000000119,281018.3000000119,278395.214,278411.09999996424,278429.531,281028.527,1,40,,
trial,html.Screen,6_14_0,2023-11-17T19:41:35.275Z,,,,1,-1.301795918505203,-1.0518606632781424,,,true,hh,1901.5729999642354,response,1.250220052739973,1.2,-1.2,1.2967258992731714,1.2,-1.2,high,high,,ISIC_0027666.JPG,,ISIC_0031368.JPG,211,true,0.3300000000000002,hh,keypress(i),0,false,282930.1999999881,282930.09999996424,281011.951,281018.89999997616,281028.527,282945.402,1,40,15,
sequence,flow.Sequence,6_14,2023-11-17T19:41:35.276Z,,,,,,,,,,,1901.5729999642354,completion,,,,,,,high,high,,,,,,true,,,,,false,282930.5,282930.09999996424,281011.951,281018.89999997616,281028.527,282945.402,1,40,,
trial,html.Screen,6_15_0,2023-11-17T19:41:37.204Z,,,,1,1.194799101954455,1.2071632388858642,,,true,ll,1913.2979999880772,response,-1.204229955025689,1.2,-1.2,-1.0874249761617445,1.2,-1.2,low,low,,ISIC_4347535.JPG,,ISIC_0056930.JPG,25,true,0.15000000000000002,ll,keypress(f),0,false,284858.89999997616,284858.6999999881,282928.607,282930.59999996424,282945.402,284861.895,1,40,16,
sequence,flow.Sequence,6_15,2023-11-17T19:41:37.204Z,,,,,,,,,,,1913.2979999880772,completion,,,,,,,low,low,,,,,,true,,,,,false,284859.1999999881,284858.6999999881,282928.607,282930.59999996424,282945.402,284861.895,1,40,,
trial,html.Screen,6_16_0,2023-11-17T19:41:39.411Z,,,,1,1.2055236989581275,1.1960893075698802,,,true,ll,2204.1049999999814,response,-1.073296525451802,1.2,-1.2,-1.3454282740421717,1.2,-1.2,low,low,,ISIC_0072393.JPG,,ISIC_5787312.JPG,25,true,0.15000000000000002,ll,keypress(f),0,false,287066.1999999881,287066,284845.381,284859.39999997616,284861.895,287078.482,1,40,17,
sequence,flow.Sequence,6_16,2023-11-17T19:41:39.412Z,,,,,,,,,,,2204.1049999999814,completion,,,,,,,low,low,,,,,,true,,,,,false,287066.5,287066,284845.381,284859.39999997616,284861.895,287078.482,1,40,,
trial,html.Screen,6_17_0,2023-11-17T19:41:44.827Z,,,,1,0.8787496315223856,-1.3680901203013998,,,true,lh,5403.617999964219,response,-1.00615481805876,1.2,-1.2,0.8428903771195875,1.2,-1.2,low,high,,ISIC_0023811.JPG,,ISIC_0069970.JPG,29,true,0.3600000000000002,lh,keypress(e),0,false,292482.1999999881,292482.09999996424,287062.05,287066.5,287078.482,292495.148,1,40,18,
sequence,flow.Sequence,6_17,2023-11-17T19:41:44.828Z,,,,,,,,,,,5403.617999964219,completion,,,,,,,low,high,,,,,,true,,,,,false,292482.39999997616,292482.09999996424,287062.05,287066.5,287078.482,292495.148,1,40,,
trial,html.Screen,6_18_0,2023-11-17T19:41:46.347Z,,,,1,-1.1168199061753437,-1.212287319329914,,,true,hh,1506.7519999761716,response,1.1715181192107684,1.2,-1.2,1.2251845559044463,1.2,-1.2,high,high,,ISIC_5919355.JPG,,ISIC_0011957.JPG,211,true,0.3300000000000002,hh,keypress(i),0,false,294002.1999999881,294001.89999997616,292478.565,292482.59999996424,292495.148,294011.856,1,40,19,
sequence,flow.Sequence,6_18,2023-11-17T19:41:46.347Z,,,,,,,,,,,1506.7519999761716,completion,,,,,,,high,high,,,,,,true,,,,,false,294002.39999997616,294001.89999997616,292478.565,292482.5,292495.148,294011.856,1,40,,
trial,html.Screen,6_19_0,2023-11-17T19:41:47.725Z,,,,1,-1.1604734171556077,-1.0789312625280616,,,true,hh,1367.2439999642083,response,1.152619213055059,1.2,-1.2,1.2957497771092716,1.2,-1.2,high,high,,ISIC_3950753.JPG,,ISIC_0061915.JPG,41,true,0.15000000000000002,hh,keypress(i),0,false,295379.5,295379.09999996424,293995.371,294002.5,294011.856,295395.171,1,40,20,
sequence,flow.Sequence,6_19,2023-11-17T19:41:47.725Z,,,,,,,,,,,1367.2439999642083,completion,,,,,,,high,high,,,,,,true,,,,,false,295379.8000000119,295379.09999996424,293995.371,294002.5,294011.856,295395.171,1,40,,
trial,html.Screen,6_20_0,2023-11-17T19:41:49.627Z,,,,1,-1.225025174430573,0.8422679054456499,,,true,hl,1886.528999988106,response,1.082730232773217,1.2,-1.2,-0.8833175387485132,1.2,-1.2,high,low,,ISIC_7503950.JPG,,ISIC_0011933.JPG,26,true,0.3300000000000002,hl,keypress(j),0,false,297281.8000000119,297281.6999999881,295378.557,295380.09999996424,295395.171,297295.228,1,40,21,
sequence,flow.Sequence,6_20,2023-11-17T19:41:49.627Z,,,,,,,,,,,1886.528999988106,completion,,,,,,,high,low,,,,,,true,,,,,false,297281.89999997616,297281.6999999881,295378.557,295380.09999996424,295395.171,297295.228,1,40,,
trial,html.Screen,6_21_0,2023-11-17T19:41:51.507Z,,,,1,-1.301795918505203,-1.0518606632781424,,,true,hh,1866.9719999880763,response,1.4105375832604383,1.2,-1.2,0.8411556450336622,1.2,-1.2,high,high,,ISIC_0027666.JPG,,ISIC_0000452.JPG,249,true,0.3600000000000002,hh,keypress(i),0,false,299162.39999997616,299162.1999999881,297278.622,297282,297295.228,299178.5,1,40,22,
sequence,flow.Sequence,6_21,2023-11-17T19:41:51.508Z,,,,,,,,,,,1866.9719999880763,completion,,,,,,,high,high,,,,,,true,,,,,false,299162.6999999881,299162.1999999881,297278.622,297281.89999997616,297295.228,299178.5,1,40,,
trial,html.Screen,6_22_0,2023-11-17T19:41:53.356Z,,,,1,1.1671212908494544,1.1286681796701683,,,true,ll,1831.800000011921,response,-1.3045229691102764,1.2,-1.2,-1.1781544075681951,1.2,-1.2,low,low,,ISIC_0065022.JPG,,ISIC_6148533.JPG,25,true,0.15000000000000002,ll,keypress(f),0,false,301010.59999996424,301010.3000000119,299161.864,299162.8000000119,299178.5,301029.782,1,40,23,
sequence,flow.Sequence,6_22,2023-11-17T19:41:53.356Z,,,,,,,,,,,1831.800000011921,completion,,,,,,,low,low,,,,,,true,,,,,false,301010.8000000119,301010.3000000119,299161.864,299162.8000000119,299178.5,301029.782,1,40,,
trial,html.Screen,6_23_0,2023-11-17T19:41:55.444Z,,,,1,-1.4748095371445096,0.9579010801034902,,,true,hl,2068.4179999880726,response,1.0748728054622358,1.2,-1.2,-1.2840853987892311,1.2,-1.2,high,low,,ISIC_0033216.JPG,,ISIC_0059219.JPG,26,true,0.3300000000000002,hl,keypress(j),0,false,303098.5,303098.1999999881,300995.196,301010.89999997616,301029.782,303111.849,1,40,24,
sequence,flow.Sequence,6_23,2023-11-17T19:41:55.444Z,,,,,,,,,,,2068.4179999880726,completion,,,,,,,high,low,,,,,,true,,,,,false,303098.8000000119,303098.1999999881,300995.196,301010.89999997616,301029.782,303111.849,1,40,,
trial,html.Screen,6_24_0,2023-11-17T19:41:57.979Z,,,,1,-1.1224745971429997,0.8423270217438888,,,true,hl,2521.8509999880916,response,0.9873794329144926,1.2,-1.2,-0.9500689037516484,1.2,-1.2,high,low,,ISIC_0057032.JPG,,ISIC_0013498.JPG,33,true,0.3600000000000002,hl,keypress(j),0,false,305633.8000000119,305633.6999999881,303095.215,303098.89999997616,303111.849,305645.156,1,40,25,
sequence,flow.Sequence,6_24,2023-11-17T19:41:57.979Z,,,,,,,,,,,2521.8509999880916,completion,,,,,,,high,low,,,,,,true,,,,,false,305633.89999997616,305633.6999999881,303095.215,303098.8000000119,303111.849,305645.156,1,40,,
trial,html.Screen,6_25_0,2023-11-17T19:42:00.123Z,,,,1,-0.8534691366511764,1.276663727068437,,,true,hl,2132.44399996422,response,0.9293545888449,1.2,-1.2,-1.551750455622795,1.2,-1.2,high,low,,ISIC_0056788.JPG,,ISIC_7717907.JPG,33,true,0.3600000000000002,hl,keypress(j),0,false,307777.6999999881,307777.59999996424,305628.483,305634,305645.156,307795.79,1,40,26,
sequence,flow.Sequence,6_25,2023-11-17T19:42:00.123Z,,,,,,,,,,,2132.44399996422,completion,,,,,,,high,low,,,,,,true,,,,,false,307777.8000000119,307777.59999996424,305628.483,305634,305645.156,307795.79,1,40,,
trial,html.Screen,6_26_0,2023-11-17T19:42:01.795Z,,,,1,-1.1655508270784471,-1.1162776063248168,,,true,hh,1654.0100000119419,response,1.320382426640536,1.2,-1.2,1.010460601525102,1.2,-1.2,high,high,,ISIC_5509946.JPG,,ISIC_0010746.JPG,249,true,0.3600000000000002,hh,keypress(i),0,false,309449.89999997616,309449.8000000119,307761.897,307777.89999997616,307795.79,309461.872,1,40,27,
sequence,flow.Sequence,6_26,2023-11-17T19:42:01.795Z,,,,,,,,,,,1654.0100000119419,completion,,,,,,,high,high,,,,,,true,,,,,false,309450.09999996424,309449.8000000119,307761.897,307777.89999997616,307795.79,309461.872,1,40,,
trial,html.Screen,6_27_0,2023-11-17T19:42:03.900Z,,,,1,1.1592423187534993,-1.067128884093211,,,true,lh,2092.128000000026,response,-1.4748095371445096,1.2,-1.2,0.9579010801034902,1.2,-1.2,low,high,,ISIC_6854940.JPG,,ISIC_0033216.JPG,29,true,0.3600000000000002,lh,keypress(e),0,false,311554.1999999881,311554,309445.402,309450.1999999881,309461.872,311561.865,1,40,28,
sequence,flow.Sequence,6_27,2023-11-17T19:42:03.900Z,,,,,,,,,,,2092.128000000026,completion,,,,,,,low,high,,,,,,true,,,,,false,311554.39999997616,311554,309445.402,309450.09999996424,309461.872,311561.865,1,40,,
trial,html.Screen,6_28_0,2023-11-17T19:42:05.996Z,,,,1,-1.1727618800748076,-1.0636787813411093,,,true,hh,2088.2349999642465,response,1.2282561398079586,1.2,-1.2,1.4704753321872233,1.2,-1.2,high,high,,ISIC_9690371.JPG,,ISIC_9141817.JPG,211,true,0.3300000000000002,hh,keypress(i),0,false,313650.3000000119,313650.09999996424,311545.314,311554.5,311561.865,313661.957,1,40,29,
sequence,flow.Sequence,6_28,2023-11-17T19:42:05.996Z,,,,,,,,,,,2088.2349999642465,completion,,,,,,,high,high,,,,,,true,,,,,false,313650.5,313650.09999996424,311545.314,311554.39999997616,311561.865,313661.957,1,40,,
trial,html.Screen,6_29_0,2023-11-17T19:42:07.955Z,,,,1,-1.0885984639975343,-1.2042618719491294,,,true,hh,1947.5430000000051,response,1.089914260719518,1.2,-1.2,1.1695563571046357,1.2,-1.2,high,high,,ISIC_0012740.JPG,,ISIC_0030695.JPG,41,true,0.15000000000000002,hh,keypress(i),0,false,315609.5,315609.5,313645.405,313650.6999999881,313661.957,315628.527,1,40,30,
sequence,flow.Sequence,6_29,2023-11-17T19:42:07.955Z,,,,,,,,,,,1947.5430000000051,completion,,,,,,,high,high,,,,,,true,,,,,false,315609.6999999881,315609.5,313645.405,313650.59999996424,313661.957,315628.527,1,40,,
trial,html.Screen,6_30_0,2023-11-17T19:42:10.004Z,,,,1,-1.1235224875125256,0.8641223012137988,,,true,hl,2029.5729999642354,response,1.055319394932912,1.2,-1.2,-1.409116680310466,1.2,-1.2,high,low,,ISIC_0033901.JPG,,ISIC_6398669.JPG,26,true,0.3300000000000002,hl,keypress(j),0,false,317658.1999999881,317658.09999996424,315595.147,315609.6999999881,315628.527,317661.885,1,40,31,
sequence,flow.Sequence,6_30,2023-11-17T19:42:10.004Z,,,,,,,,,,,2029.5729999642354,completion,,,,,,,high,low,,,,,,true,,,,,false,317658.39999997616,317658.09999996424,315595.147,315609.6999999881,315628.527,317661.885,1,40,,
trial,html.Screen,6_31_0,2023-11-17T19:42:11.899Z,,,,1,1.2704198237183777,-1.138121072015301,,,false,lh,1892.0149999761488,response,-0.9385447468573198,1.2,-1.2,1.2289860846064424,1.2,-1.2,low,high,,ISIC_0501843.JPG,,ISIC_0032780.JPG,29,true,0.3600000000000002,hl,keypress(j),0,false,319554,319553.89999997616,317645.179,317658.39999997616,317661.885,319562.018,1,40,32,
sequence,flow.Sequence,6_31,2023-11-17T19:42:11.899Z,,,,,,,,,,,1892.0149999761488,completion,,,,,,,low,high,,,,,,true,,,,,false,319554.09999996424,319553.89999997616,317645.179,317658.39999997616,317661.885,319562.018,1,40,,
trial,html.Screen,6_32_0,2023-11-17T19:42:14.268Z,,,,1,1.3034518282811869,1.0897657776277234,,,true,ll,2360.782000011939,response,-1.1655508270784471,1.2,-1.2,-1.1162776063248168,1.2,-1.2,low,low,,ISIC_0071988.JPG,,ISIC_5509946.JPG,127,true,0.3300000000000002,ll,keypress(f),0,false,321923.09999996424,321922.8000000119,319545.366,319554.1999999881,319562.018,321928.62,1,40,33,
sequence,flow.Sequence,6_32,2023-11-17T19:42:14.269Z,,,,,,,,,,,2360.782000011939,completion,,,,,,,low,low,,,,,,true,,,,,false,321923.5,321922.8000000119,319545.366,319554.1999999881,319562.018,321928.62,1,40,,
trial,html.Screen,6_33_0,2023-11-17T19:42:15.907Z,,,,1,-1.212030980680325,-1.139863018685685,,,true,hh,1633.0799999880837,response,1.2435042401134029,1.2,-1.2,1.2939710463315144,1.2,-1.2,high,high,,ISIC_0008510.JPG,,ISIC_0056119.JPG,27,true,0.12,hh,keypress(i),0,false,323561.89999997616,323561.6999999881,321911.933,321923.8000000119,321928.62,323578.68,1,40,34,
sequence,flow.Sequence,6_33,2023-11-17T19:42:15.907Z,,,,,,,,,,,1633.0799999880837,completion,,,,,,,high,high,,,,,,true,,,,,false,323562.09999996424,323561.6999999881,321911.933,321923.6999999881,321928.62,323578.68,1,40,,
trial,html.Screen,6_34_0,2023-11-17T19:42:17.588Z,,,,1,1.2055236989581275,1.1960893075698802,,,true,ll,1663.4199999642442,response,-1.1217390688497193,1.2,-1.2,-1.2276600934505035,1.2,-1.2,low,low,,ISIC_0072393.JPG,,ISIC_0026344.JPG,25,true,0.15000000000000002,ll,keypress(f),0,false,325242.3000000119,325242.09999996424,323561.911,323562.1999999881,323578.68,325245.254,1,40,35,
sequence,flow.Sequence,6_34,2023-11-17T19:42:17.588Z,,,,,,,,,,,1663.4199999642442,completion,,,,,,,low,low,,,,,,true,,,,,false,325242.5,325242.09999996424,323561.911,323562.1999999881,323578.68,325245.254,1,40,,
trial,html.Screen,6_35_0,2023-11-17T19:42:19.348Z,,,,1,1.152619213055059,1.2957497771092716,,,false,ll,1757.0460000119056,response,-1.204229955025689,1.2,-1.2,-1.0874249761617445,1.2,-1.2,low,low,,ISIC_0061915.JPG,,ISIC_0056930.JPG,25,true,0.15000000000000002,lh,keypress(e),0,false,327002.59999996424,327002.3000000119,325228.66,325242.6999999881,325245.254,327011.9,1,40,36,
sequence,flow.Sequence,6_35,2023-11-17T19:42:19.348Z,,,,,,,,,,,1757.0460000119056,completion,,,,,,,low,low,,,,,,true,,,,,false,327003,327002.3000000119,325228.66,325242.6999999881,325245.254,327011.9,1,40,,
trial,html.Screen,6_36_0,2023-11-17T19:42:21.004Z,,,,1,1.0961318727760048,-1.2134960228256146,,,true,lh,1646.4000000118976,response,-1.4748095371445096,1.2,-1.2,0.9579010801034902,1.2,-1.2,low,high,,ISIC_9768421.JPG,,ISIC_0033216.JPG,29,true,0.3600000000000002,lh,keypress(e),0,false,328658.5,328658.3000000119,326995.328,327003.1999999881,327011.9,328661.904,1,40,37,
sequence,flow.Sequence,6_36,2023-11-17T19:42:21.004Z,,,,,,,,,,,1646.4000000118976,completion,,,,,,,low,high,,,,,,true,,,,,false,328658.59999996424,328658.3000000119,326995.328,327003.1999999881,327011.9,328661.904,1,40,,
trial,html.Screen,6_37_0,2023-11-17T19:42:22.875Z,,,,1,1.3034518282811869,1.0897657776277234,,,true,ll,1867.6959999642568,response,-1.415411781259296,1.2,-1.2,-1.085289936617366,1.2,-1.2,low,low,,ISIC_0071988.JPG,,ISIC_4277207.JPG,127,true,0.3300000000000002,ll,keypress(f),0,false,330529.6999999881,330529.59999996424,328645.345,328658.8000000119,328661.904,330545.207,1,40,38,
sequence,flow.Sequence,6_37,2023-11-17T19:42:22.875Z,,,,,,,,,,,1867.6959999642568,completion,,,,,,,low,low,,,,,,true,,,,,false,330529.8000000119,330529.59999996424,328645.345,328658.6999999881,328661.904,330545.207,1,40,,
trial,html.Screen,6_38_0,2023-11-17T19:42:24.372Z,,,,1,-0.8494721812820843,1.3435429139974266,,,true,hl,1481.4929999880842,response,0.9448560599810628,1.2,-1.2,-0.9099421612683488,1.2,-1.2,high,low,,ISIC_0033585.JPG,,ISIC_9684318.JPG,26,true,0.3300000000000002,hl,keypress(j),0,false,332027.09999996424,332026.6999999881,330528.549,330529.89999997616,330545.207,332045.949,1,40,39,
sequence,flow.Sequence,6_38,2023-11-17T19:42:24.373Z,,,,,,,,,,,1481.4929999880842,completion,,,,,,,high,low,,,,,,true,,,,,false,332027.5,332026.6999999881,330528.549,330529.89999997616,330545.207,332045.949,1,40,,
trial,html.Screen,6_39_0,2023-11-17T19:42:25.972Z,,,,1,1.1547137855907486,-1.0185275168641534,,,true,lh,1580.3510000118986,response,-1.1235224875125256,1.2,-1.2,0.8641223012137988,1.2,-1.2,low,high,,ISIC_7604870.JPG,,ISIC_0033901.JPG,29,true,0.3600000000000002,lh,keypress(e),0,false,333626.3000000119,333626.3000000119,332011.895,332027.59999996424,332045.949,333628.591,1,40,40,
sequence,flow.Sequence,6_39,2023-11-17T19:42:25.972Z,,,,,,,,,,,1580.3510000118986,completion,,,,,,,low,high,,,,,,true,,,,,false,333626.6999999881,333626.3000000119,332011.895,332027.59999996424,332045.949,333628.591,1,40,,
practice_loop,flow.Loop,6,2023-11-17T19:42:25.972Z,,,,,,,,,,,105581.20700001193,completion,,,,,,,,,,,,,,true,,,,,false,333626.8000000119,333626.3000000119,228028.231,228030.19999998808,228045.093,333628.591,1,40,,
stair_instructions,html.Screen,7,2023-11-17T19:42:31.116Z,,,,,,,,,,,5141.108999988064,response,,,,,,,,,,,,,,,,continue,keypress(Space),,,338770.3000000119,338769.6999999881,333611.945,333626.89999997616,333628.591,338778.584,,,,
trial,html.Screen,8_0_0,2023-11-17T19:42:33.580Z,,,,2,0.012810673904807,-0.00400964452501,,0.04,true,hl,2455.9160000000265,response,1.2609895831255231,1.2,-1.2,-1.0687377724194886,1.2,-1.2,high,low,,ISIC_0064656.JPG,,ISIC_1367610.JPG,26,false,0.3300000000000002,hl,keypress(j),0,true,341234.59999996424,341234.5,338761.921,338770.5,338778.584,341245.244,1,40,1,
sequence,flow.Sequence,8_0,2023-11-17T19:42:33.580Z,,,,,,,,,,,2455.9160000000265,completion,,,,,,,high,low,,,,,,false,,,,,true,341234.89999997616,341234.5,338761.921,338770.5,338778.584,341245.244,1,40,,
trial,html.Screen,8_1_0,2023-11-17T19:42:36.643Z,,,,2,0.012020985739544,-0.0126097407389903,,0.04,true,lh,3052.355999964231,response,-0.8591294258188253,1.15,-1.15,0.870797302150167,1.15,-1.15,low,high,,ISIC_0069379.JPG,,ISIC_0055841.JPG,27,false,0.31000000000000016,lh,keypress(e),0,true,344297.8000000119,344297.59999996424,341228.741,341235,341245.244,344311.981,1,40,2,
sequence,flow.Sequence,8_1,2023-11-17T19:42:36.643Z,,,,,,,,,,,3052.355999964231,completion,,,,,,,low,high,,,,,,false,,,,,true,344297.89999997616,344297.59999996424,341228.741,341235,341245.244,344311.981,1,40,,
trial,html.Screen,8_2_0,2023-11-17T19:42:40.057Z,,,,2,0.0060918352854008,-0.029032683404407,,0.04,true,ll,3399.1189999642083,response,-1.1655508270784471,1.15,-1.15,-1.1162776063248168,1.15,-1.15,low,low,,ISIC_8436194.JPG,,ISIC_5509946.JPG,26,false,0.14,ll,keypress(f),0,true,347711.1999999881,347711.09999996424,344295.403,344298,344311.981,347729.832,1,40,3,
sequence,flow.Sequence,8_2,2023-11-17T19:42:40.057Z,,,,,,,,,,,3399.1189999642083,completion,,,,,,,low,low,,,,,,false,,,,,true,347711.39999997616,347711.09999996424,344295.403,344297.89999997616,344311.981,347729.832,1,40,,
trial,html.Screen,8_3_0,2023-11-17T19:42:43.300Z,,,,2,0.012810673904807,-0.00400964452501,,0.04,false,ll,3224.668000000005,response,-1.1802887330422154,1.15,-1.0999999999999999,-1.0224375154810723,1.15,-1.0999999999999999,low,low,,ISIC_0064656.JPG,,ISIC_9225640.JPG,26,false,0.12,hl,keypress(j),0,true,350954.8000000119,350954.5,347695.193,347711.39999997616,347729.832,350961.879,1,40,4,
sequence,flow.Sequence,8_3,2023-11-17T19:42:43.300Z,,,,,,,,,,,3224.668000000005,completion,,,,,,,low,low,,,,,,false,,,,,true,350955.09999996424,350954.5,347695.193,347711.39999997616,347729.832,350961.879,1,40,,
trial,html.Screen,8_4_0,2023-11-17T19:42:46.756Z,,,,2,0.00126575685933,0.0325046559638838,,0.04,true,lh,3448.4210000119056,response,-0.8479396253253069,1.15,-1.15,1.011054319516718,1.15,-1.0999999999999999,low,high,,ISIC_5682259.JPG,,ISIC_0063521.JPG,27,false,0.31000000000000016,lh,keypress(e),0,true,354410.39999997616,354410.3000000119,350945.32,350955.1999999881,350961.879,354429.778,1,40,5,
sequence,flow.Sequence,8_4,2023-11-17T19:42:46.756Z,,,,,,,,,,,3448.4210000119056,completion,,,,,,,low,high,,,,,,false,,,,,true,354410.59999996424,354410.3000000119,350945.32,350955.1999999881,350961.879,354429.778,1,40,,
trial,html.Screen,8_5_0,2023-11-17T19:42:51.507Z,,,,2,-0.0321039635696159,-0.020496766286318,,0.04,true,ll,4732.121999976167,response,-1.1638334638021437,1.15,-1.15,-1.0846635401396965,1.0999999999999999,-1.0999999999999999,low,low,,ISIC_0058063.JPG,,ISIC_4718313.JPG,26,false,0.13,ll,keypress(f),0,true,359162,359161.89999997616,354395.218,354410.8000000119,354429.778,359178.573,1,40,6,
sequence,flow.Sequence,8_5,2023-11-17T19:42:51.508Z,,,,,,,,,,,4732.121999976167,completion,,,,,,,low,low,,,,,,false,,,,,true,359162.1999999881,359161.89999997616,354395.218,354410.8000000119,354429.778,359178.573,1,40,,
trial,html.Screen,8_6_0,2023-11-17T19:42:54.395Z,,,,2,-0.0365981355399771,-0.0162670920008846,,0.04,true,lh,2871.427000000025,response,-0.7622914383475332,1.15,-0.9163015827325016,0.8883896910883083,1.0999999999999999,-0.9163015827325016,low,high,,ISIC_0982855.JPG,,ISIC_0032005.JPG,29,false,0.2300000000000001,lh,keypress(e),0,true,362050,362050,359161.79,359162.3000000119,359178.573,362061.969,1,40,7,
sequence,flow.Sequence,8_6,2023-11-17T19:42:54.395Z,,,,,,,,,,,2871.427000000025,completion,,,,,,,low,high,,,,,,false,,,,,true,362050.1999999881,362050,359161.79,359162.3000000119,359178.573,362061.969,1,40,,
trial,html.Screen,8_7_0,2023-11-17T19:42:59.827Z,,,,2,-0.0327772618698018,0.0056908372048728,,0.04,true,ll,5419.930999976175,response,-0.8285454085852607,1.15,-0.9163015827325016,-0.8539676082936701,1.0999999999999999,-0.9163015827325016,low,low,,ISIC_7897925.JPG,,ISIC_2131707.JPG,33,false,0.1,ll,keypress(f),0,true,367482,367481.89999997616,362045.222,362050.1999999881,362061.969,367495.347,1,40,8,
sequence,flow.Sequence,8_7,2023-11-17T19:42:59.828Z,,,,,,,,,,,5419.930999976175,completion,,,,,,,low,low,,,,,,false,,,,,true,367482.1999999881,367481.89999997616,362045.222,362050.1999999881,362061.969,367495.347,1,40,,
trial,html.Screen,8_8_0,2023-11-17T19:43:03.949Z,,,,2,-0.0086413421586899,-0.0360184993500958,,0.04,false,hl,4107.35299998807,response,1.135372722680314,1.15,-0.7912565084394654,-0.7741624649032207,1.0999999999999999,-0.9163015827325016,high,low,,ISIC_0010767.JPG,,ISIC_2355513.JPG,26,false,0.2300000000000001,lh,keypress(e),0,true,371603,371602.6999999881,367478.567,367482.3000000119,367495.347,371612.023,1,40,9,
sequence,flow.Sequence,8_8,2023-11-17T19:43:03.949Z,,,,,,,,,,,4107.35299998807,completion,,,,,,,high,low,,,,,,false,,,,,true,371603.3000000119,371602.6999999881,367478.567,367482.3000000119,367495.347,371612.023,1,40,,
trial,html.Screen,8_9_0,2023-11-17T19:43:07.836Z,,,,2,-0.0361875505619981,0.0291457404567876,,0.04,true,hh,3877.9770000000135,response,1.0441672988386008,1.15,-0.7912565084394654,1.108916716139547,1.0999999999999999,-0.9663015827325017,high,high,,ISIC_0027480.JPG,,ISIC_0063243.JPG,27,false,0.11,hh,keypress(i),0,true,375490.09999996424,375490,371595.264,371603.5,371612.023,375495.286,1,40,10,
sequence,flow.Sequence,8_9,2023-11-17T19:43:07.836Z,,,,,,,,,,,3877.9770000000135,completion,,,,,,,high,high,,,,,,false,,,,,true,375490.3000000119,375490,371595.264,371603.5,371612.023,375495.286,1,40,,
trial,html.Screen,8_10_0,2023-11-17T19:43:12.067Z,,,,2,-0.0361875505619981,0.0291457404567876,,0.04,false,ll,4226.514000011899,response,-0.8299201784919694,1.15,-0.7912565084394654,-0.9555257680008306,1.0265420074890739,-0.9663015827325017,low,low,,ISIC_0027480.JPG,,ISIC_6937199.JPG,48,false,0.1,lh,keypress(e),0,true,379721.89999997616,379721.8000000119,375478.697,375490.39999997616,375495.286,379728.69,1,40,11,
sequence,flow.Sequence,8_10,2023-11-17T19:43:12.068Z,,,,,,,,,,,4226.514000011899,completion,,,,,,,low,low,,,,,,false,,,,,true,379722.09999996424,379721.8000000119,375478.697,375490.39999997616,375495.286,379728.69,1,40,,
trial,html.Screen,8_11_0,2023-11-17T19:43:16.653Z,,,,2,0.0057914759495055,-0.018500200317654,,0.04,false,hh,4578.209999976156,response,1.143881656046846,1.15,-0.7912565084394654,0.9998119797725442,1.0265420074890739,-1.0163015827325017,high,high,,ISIC_0058723.JPG,,ISIC_8685259.JPG,32,false,0.11,hl,keypress(j),0,true,384307.1999999881,384306.89999997616,379712.051,379722.09999996424,379728.69,384328.619,1,40,12,
sequence,flow.Sequence,8_11,2023-11-17T19:43:16.653Z,,,,,,,,,,,4578.209999976156,completion,,,,,,,high,high,,,,,,false,,,,,true,384307.6999999881,384306.89999997616,379712.051,379722.09999996424,379728.69,384328.619,1,40,,
trial,html.Screen,8_12_0,2023-11-17T19:43:19.243Z,,,,2,0.0071892445601978,-0.0246015408628738,,0.04,false,hl,2569.280999976152,response,1.082730232773217,1.0999999999999999,-0.7912565084394654,-0.8833175387485132,1.076542007489074,-1.0163015827325017,high,low,,ISIC_0014133.JPG,,ISIC_0011933.JPG,27,false,0.2400000000000001,hh,keypress(i),0,true,386898,386897.89999997616,384295.206,384307.89999997616,384328.619,386911.953,1,40,13,
sequence,flow.Sequence,8_12,2023-11-17T19:43:19.244Z,,,,,,,,,,,2569.280999976152,completion,,,,,,,high,low,,,,,,false,,,,,true,386898.09999996424,386897.89999997616,384295.206,384307.8000000119,384328.619,386911.953,1,40,,
trial,html.Screen,8_13_0,2023-11-17T19:43:21.980Z,,,,2,0.0166849894750452,-0.0371614812368835,,0.04,true,lh,2722.1469999642577,response,-0.8070820195894357,1.0999999999999999,-0.7912565084394654,0.8958120092147633,1.076542007489074,-1.0663015827325018,low,high,,ISIC_6231450.JPG,,ISIC_0060585.JPG,29,false,0.19000000000000006,lh,keypress(e),0,true,389634.1999999881,389634.09999996424,386895.298,386898.09999996424,386911.953,389645.344,1,40,14,
sequence,flow.Sequence,8_13,2023-11-17T19:43:21.980Z,,,,,,,,,,,2722.1469999642577,completion,,,,,,,low,high,,,,,,false,,,,,true,389634.39999997616,389634.09999996424,386895.298,386898.09999996424,386911.953,389645.344,1,40,,
trial,html.Screen,8_14_0,2023-11-17T19:43:24.140Z,,,,2,0.0060934073440827,0.0279108145883031,,0.04,true,lh,2149.3559999880963,response,-0.8779374983479176,1.0999999999999999,-0.7412565084394653,0.9745548032823428,1.076542007489074,-1.0663015827325018,low,high,,ISIC_0032604.JPG,,ISIC_2991354.JPG,29,false,0.17000000000000004,lh,keypress(e),0,true,391794.89999997616,391794.6999999881,389628.61,389634.5,389645.344,391811.954,1,40,15,
sequence,flow.Sequence,8_14,2023-11-17T19:43:24.141Z,,,,,,,,,,,2149.3559999880963,completion,,,,,,,low,high,,,,,,false,,,,,true,391795.1999999881,391794.6999999881,389628.61,389634.5,389645.344,391811.954,1,40,,
trial,html.Screen,8_15_0,2023-11-17T19:43:27.836Z,,,,2,0.012020985739544,-0.0126097407389903,,0.04,true,hl,3678.045999999973,response,1.155796217969438,1.0999999999999999,-0.7412565084394653,-1.1646564121743912,1.0265420074890739,-1.0663015827325018,high,low,,ISIC_0069379.JPG,,ISIC_2685523.JPG,27,false,0.2500000000000001,hl,keypress(j),0,true,395490.09999996424,395490,391795.249,391795.3000000119,391811.954,395495.313,1,40,16,
sequence,flow.Sequence,8_15,2023-11-17T19:43:27.836Z,,,,,,,,,,,3678.045999999973,completion,,,,,,,high,low,,,,,,false,,,,,true,395490.1999999881,395490,391795.249,391795.3000000119,391811.954,395495.313,1,40,,
trial,html.Screen,8_16_0,2023-11-17T19:43:31.604Z,,,,2,-0.0367218428225813,0.0026956749740767,,0.04,false,lh,3763.2869999642135,response,-0.849847885203758,1.0499999999999998,-0.7412565084394653,0.973447384095442,1.0265420074890739,-1.0663015827325018,low,high,,ISIC_7212271.JPG,,ISIC_9612228.JPG,30,false,0.16000000000000003,hh,keypress(i),0,true,399258.8000000119,399258.59999996424,395478.584,395490.3000000119,395495.313,399262.021,1,40,17,
sequence,flow.Sequence,8_16,2023-11-17T19:43:31.605Z,,,,,,,,,,,3763.2869999642135,completion,,,,,,,low,high,,,,,,false,,,,,true,399259,399258.59999996424,395478.584,395490.1999999881,395495.313,399262.021,1,40,,
trial,html.Screen,8_17_0,2023-11-17T19:43:34.179Z,,,,2,0.012810673904807,-0.00400964452501,,0.04,true,lh,2571.678999988071,response,-0.7555963738331037,1.0499999999999998,-0.7912565084394654,0.8728259922218632,1.0265420074890739,-1.0663015827325018,low,high,,ISIC_0064656.JPG,,ISIC_3060248.JPG,25,false,0.16000000000000003,lh,keypress(e),0,true,401833.8000000119,401833.6999999881,399245.321,399259.1999999881,399262.021,401845.314,1,40,18,
sequence,flow.Sequence,8_17,2023-11-17T19:43:34.179Z,,,,,,,,,,,2571.678999988071,completion,,,,,,,low,high,,,,,,false,,,,,true,401834,401833.6999999881,399245.321,399259.1999999881,399262.021,401845.314,1,40,,
trial,html.Screen,8_18_0,2023-11-17T19:43:36.557Z,,,,2,0.0166849894750452,-0.0371614812368835,,0.04,false,ll,2365.486000011908,response,-0.7644360167655132,1.0499999999999998,-0.7912565084394654,-1.0801387335654689,0.9765420074890738,-1.0663015827325018,low,low,,ISIC_6231450.JPG,,ISIC_8423248.JPG,32,false,0.1,hl,keypress(j),0,true,404211.09999996424,404210.8000000119,401828.641,401834,401845.314,404228.842,1,40,19,
sequence,flow.Sequence,8_18,2023-11-17T19:43:36.557Z,,,,,,,,,,,2365.486000011908,completion,,,,,,,low,low,,,,,,false,,,,,true,404211.5,404210.8000000119,401828.641,401834,401845.314,404228.842,1,40,,
trial,html.Screen,8_19_0,2023-11-17T19:43:38.556Z,,,,2,0.0377791839943904,-0.0227626648172468,,0.04,true,hl,1981.1579999999958,response,0.8623414234919863,1.0499999999999998,-0.8412565084394654,-0.6885252343895165,0.9765420074890738,-0.8678675536992863,high,low,,ISIC_7167479.JPG,,ISIC_2727016.JPG,27,false,0.19000000000000006,hl,keypress(j),0,true,406210.1999999881,406210,404211.967,404211.8000000119,404228.842,406211.983,1,40,20,
sequence,flow.Sequence,8_19,2023-11-17T19:43:38.556Z,,,,,,,,,,,1981.1579999999958,completion,,,,,,,high,low,,,,,,false,,,,,true,406210.39999997616,406210,404211.967,404211.6999999881,404228.842,406211.983,1,40,,
trial,html.Screen,8_20_0,2023-11-17T19:43:41.660Z,,,,2,-0.0199897690678184,-0.0312486875504497,,0.04,true,hh,3102.7169999880716,response,0.9738365957110542,1.0499999999999998,-0.8412565084394654,0.9145475604754156,0.9765420074890738,-0.8678675536992863,high,high,,ISIC_5482426.JPG,,ISIC_3435596.JPG,42,false,0.1,hh,keypress(i),0,true,409314.89999997616,409314.6999999881,406195.384,406210.5,406211.983,409328.684,1,40,21,
sequence,flow.Sequence,8_20,2023-11-17T19:43:41.661Z,,,,,,,,,,,3102.7169999880716,completion,,,,,,,high,high,,,,,,false,,,,,true,409315.1999999881,409314.6999999881,406195.384,406210.5,406211.983,409328.684,1,40,,
trial,html.Screen,8_21_0,2023-11-17T19:43:44.356Z,,,,2,0.0158987717472563,0.0292472192292015,,0.04,false,hl,2681.5159999880707,response,0.8561946552009824,0.8941920780932349,-0.8412565084394654,-0.9282171889213044,0.9765420074890738,-0.8678675536992863,high,low,,ISIC_1366765.JPG,,ISIC_3065032.JPG,25,false,0.14,lh,keypress(e),0,true,412010.5,412010.1999999881,409312.139,409315.39999997616,409328.684,412029.381,1,40,22,
sequence,flow.Sequence,8_21,2023-11-17T19:43:44.356Z,,,,,,,,,,,2681.5159999880707,completion,,,,,,,high,low,,,,,,false,,,,,true,412010.8000000119,412010.1999999881,409312.139,409315.3000000119,409328.684,412029.381,1,40,,
trial,html.Screen,8_22_0,2023-11-17T19:43:46.580Z,,,,2,0.0158987717472563,0.0292472192292015,,0.04,false,ll,2205.318999988085,response,-0.7540852601934345,0.9441920780932349,-0.8412565084394654,-0.8837864902869942,0.9765420074890738,-0.9178675536992863,low,low,,ISIC_1366765.JPG,,ISIC_4332846.JPG,42,false,0.1,lh,keypress(e),0,true,414234.89999997616,414234.6999999881,411995.518,412011,412029.381,414245.347,1,40,23,
sequence,flow.Sequence,8_22,2023-11-17T19:43:46.581Z,,,,,,,,,,,2205.318999988085,completion,,,,,,,low,low,,,,,,false,,,,,true,414235.09999996424,414234.6999999881,411995.518,412010.89999997616,412029.381,414245.347,1,40,,
trial,html.Screen,8_23_0,2023-11-17T19:43:48.860Z,,,,2,-0.0063515208248796,-0.0194177605767913,,0.04,false,hl,2269.152999999991,response,1.0700930503975157,0.9441920780932349,-0.8412565084394654,-0.923753102263735,0.9765420074890738,-0.9678675536992863,high,low,,ISIC_5281908.JPG,,ISIC_0000022.JPG,25,false,0.18000000000000005,lh,keypress(e),0,true,416514.6999999881,416514.5,414228.786,414235.3000000119,414245.347,416528.82,1,40,24,
sequence,flow.Sequence,8_23,2023-11-17T19:43:48.861Z,,,,,,,,,,,2269.152999999991,completion,,,,,,,high,low,,,,,,false,,,,,true,416515,416514.5,414228.786,414235.3000000119,414245.347,416528.82,1,40,,
trial,html.Screen,8_24_0,2023-11-17T19:43:51.388Z,,,,2,0.012020985739544,-0.0126097407389903,,0.04,false,hh,2513.480000011914,response,1.0088070132449485,0.994192078093235,-0.8412565084394654,0.9026684221154396,0.9765420074890738,-1.0178675536992863,high,high,,ISIC_0069379.JPG,,ISIC_0059314.JPG,48,false,0.1,hl,keypress(j),0,true,419042.39999997616,419042.3000000119,416512.106,416515.1999999881,416528.82,419045.35,1,40,25,
sequence,flow.Sequence,8_24,2023-11-17T19:43:51.388Z,,,,,,,,,,,2513.480000011914,completion,,,,,,,high,high,,,,,,false,,,,,true,419042.59999996424,419042.3000000119,416512.106,416515.09999996424,416528.82,419045.35,1,40,,
trial,html.Screen,8_25_0,2023-11-17T19:43:54.652Z,,,,2,-0.0199897690678184,-0.0312486875504497,,0.04,true,hh,3260.6500000000233,response,0.968277930473984,0.994192078093235,-0.8412565084394654,1.0901346674420178,1.0265420074890739,-1.0178675536992863,high,high,,ISIC_5482426.JPG,,ISIC_0519386.JPG,43,false,0.1,hh,keypress(i),0,true,422306.1999999881,422306,419028.658,419042.8000000119,419045.35,422312.019,1,40,26,
sequence,flow.Sequence,8_25,2023-11-17T19:43:54.652Z,,,,,,,,,,,3260.6500000000233,completion,,,,,,,high,high,,,,,,false,,,,,true,422306.3000000119,422306,419028.658,419042.6999999881,419045.35,422312.019,1,40,,
trial,html.Screen,8_26_0,2023-11-17T19:43:57.532Z,,,,2,0.0071892445601978,-0.0246015408628738,,0.04,true,hl,2874.580999964266,response,1.1547137855907486,0.9792062989580008,-0.8412565084394654,-1.0185275168641534,1.0265420074890739,-1.0178675536992863,high,low,,ISIC_0014133.JPG,,ISIC_7604870.JPG,27,false,0.20000000000000007,hl,keypress(j),0,true,425186.8000000119,425186.59999996424,422295.48,422306.3000000119,422312.019,425195.379,1,40,27,
sequence,flow.Sequence,8_26,2023-11-17T19:43:57.533Z,,,,,,,,,,,2874.580999964266,completion,,,,,,,high,low,,,,,,false,,,,,true,425187.09999996424,425186.59999996424,422295.48,422306.3000000119,422312.019,425195.379,1,40,,
trial,html.Screen,8_27_0,2023-11-17T19:44:03.187Z,,,,2,-0.0199897690678184,-0.0312486875504497,,0.04,false,hl,5646.320999988064,response,0.781391003063482,0.9792062989580008,-0.8412565084394654,-0.9644960393010829,1.0265420074890739,-1.0178675536992863,high,low,,ISIC_5482426.JPG,,ISIC_2087913.JPG,27,false,0.20000000000000007,hh,keypress(i),0,true,430841.8000000119,430841.6999999881,425178.765,425187.3000000119,425195.379,430845.368,1,40,28,
sequence,flow.Sequence,8_27,2023-11-17T19:44:03.188Z,,,,,,,,,,,5646.320999988064,completion,,,,,,,high,low,,,,,,false,,,,,true,430842,430841.6999999881,425178.765,425187.3000000119,425195.379,430845.368,1,40,,
trial,html.Screen,8_28_0,2023-11-17T19:44:06.572Z,,,,2,0.012810673904807,-0.00400964452501,,0.04,true,hh,3380.5319999761414,response,1.0011647073734584,0.9292062989580008,-0.8412565084394654,1.090690958018423,1.0265420074890739,-1.0678675536992863,high,high,,ISIC_0064656.JPG,,ISIC_0021901.JPG,41,false,0.1,hh,keypress(i),0,true,434225.89999997616,434225.89999997616,430828.728,430842,430845.368,434228.699,1,40,29,
sequence,flow.Sequence,8_28,2023-11-17T19:44:06.572Z,,,,,,,,,,,3380.5319999761414,completion,,,,,,,high,high,,,,,,false,,,,,true,434226.09999996424,434225.89999997616,430828.728,430842,430845.368,434228.699,1,40,,
trial,html.Screen,8_29_0,2023-11-17T19:44:09.531Z,,,,2,-0.0127320821962457,0.0315308940184827,,0.04,false,lh,2956.8009999999776,response,-0.8152354890677903,0.9292062989580008,-0.8412565084394654,1.10470584815077,0.9959278326959407,-1.0678675536992863,low,high,,ISIC_8156101.JPG,,ISIC_0010283.JPG,29,false,0.17000000000000004,hh,keypress(i),0,true,437185.59999996424,437185.5,434211.948,434226.09999996424,434228.699,437195.471,1,40,30,
sequence,flow.Sequence,8_29,2023-11-17T19:44:09.531Z,,,,,,,,,,,2956.8009999999776,completion,,,,,,,low,high,,,,,,false,,,,,true,437185.6999999881,437185.5,434211.948,434226.09999996424,434228.699,437195.471,1,40,,
trial,html.Screen,8_30_0,2023-11-17T19:44:13.132Z,,,,2,-0.0327772618698018,0.0056908372048728,,0.04,false,hh,3590.5289999999804,response,0.8543323078107433,0.9292062989580008,-0.8912565084394655,0.9163054072963652,0.9959278326959407,-1.0678675536992863,high,high,,ISIC_7897925.JPG,,ISIC_0012070.JPG,48,false,0.1,hl,keypress(j),0,true,440786.09999996424,440786,437178.849,437185.89999997616,437195.471,440795.387,1,40,31,
sequence,flow.Sequence,8_30,2023-11-17T19:44:13.132Z,,,,,,,,,,,3590.5289999999804,completion,,,,,,,high,high,,,,,,false,,,,,true,440786.1999999881,440786,437178.849,437185.8000000119,437195.471,440795.387,1,40,,
trial,html.Screen,8_31_0,2023-11-17T19:44:16.020Z,,,,2,0.0350697500805515,0.0166617848231997,,0.04,true,ll,2878.913000011933,response,-0.9191486333136276,0.9295190779807567,-0.8912565084394655,-1.080719641270871,1.0459278326959407,-1.0678675536992863,low,low,,ISIC_0024423.JPG,,ISIC_0663941.JPG,28,false,0.1,ll,keypress(f),0,true,443674.59999996424,443674.3000000119,440778.855,440786.1999999881,440795.387,443678.746,1,40,32,
sequence,flow.Sequence,8_31,2023-11-17T19:44:16.021Z,,,,,,,,,,,2878.913000011933,completion,,,,,,,low,low,,,,,,false,,,,,true,443674.8000000119,443674.3000000119,440778.855,440786.1999999881,440795.387,443678.746,1,40,,
trial,html.Screen,8_32_0,2023-11-17T19:44:18.804Z,,,,2,0.0158987717472563,0.0292472192292015,,0.04,false,lh,2779.5540000119363,response,-0.7203854121635694,0.9295190779807567,-0.8912565084394655,0.967180948735857,1.0459278326959407,-1.0678675536992863,low,high,,ISIC_1366765.JPG,,ISIC_0439726.JPG,26,false,0.19000000000000006,ll,keypress(f),0,true,446458.39999997616,446458.3000000119,443662.101,443675,443678.746,446462.074,1,40,33,
sequence,flow.Sequence,8_32,2023-11-17T19:44:18.804Z,,,,,,,,,,,2779.5540000119363,completion,,,,,,,low,high,,,,,,false,,,,,true,446458.6999999881,446458.3000000119,443662.101,443674.89999997616,443678.746,446462.074,1,40,,
trial,html.Screen,8_33_0,2023-11-17T19:44:21.012Z,,,,2,-0.0199897690678184,-0.0312486875504497,,0.04,false,hh,2203.7260000118986,response,0.968832577506943,0.9295190779807567,-0.8505525267172203,1.068698723750748,1.0959278326959407,-1.0678675536992863,high,high,,ISIC_5482426.JPG,,ISIC_0010962.JPG,34,false,0.1,lh,keypress(e),0,true,448666,448665.8000000119,446445.396,446458.8000000119,446462.074,448678.76,1,40,34,
sequence,flow.Sequence,8_33,2023-11-17T19:44:21.012Z,,,,,,,,,,,2203.7260000118986,completion,,,,,,,high,high,,,,,,false,,,,,true,448666.1999999881,448665.8000000119,446445.396,446458.8000000119,446462.074,448678.76,1,40,,
trial,html.Screen,8_34_0,2023-11-17T19:44:24.756Z,,,,2,0.0071892445601978,-0.0246015408628738,,0.04,true,hh,3731.7399999999907,response,0.892888705264033,0.9795190779807568,-0.8505525267172203,1.1616901486941038,1.0959278326959407,-1.0678675536992863,high,high,,ISIC_0014133.JPG,,ISIC_0066101.JPG,37,false,0.1,hh,keypress(i),0,true,452410.6999999881,452410.5,448662.135,448666.1999999881,448678.76,452429.894,1,40,35,
sequence,flow.Sequence,8_34,2023-11-17T19:44:24.757Z,,,,,,,,,,,3731.7399999999907,completion,,,,,,,high,high,,,,,,false,,,,,true,452411,452410.5,448662.135,448666.1999999881,448678.76,452429.894,1,40,,
trial,html.Screen,8_35_0,2023-11-17T19:44:26.828Z,,,,2,0.012020985739544,-0.0126097407389903,,0.04,true,lh,2052.505999976187,response,-0.7555963738331037,0.9795190779807568,-0.8505525267172203,0.8728259922218632,0.9772894269790684,-1.0678675536992863,low,high,,ISIC_0069379.JPG,,ISIC_3060248.JPG,28,false,0.16000000000000003,lh,keypress(e),0,true,454482.59999996424,454482.39999997616,452395.376,452411.09999996424,452429.894,454495.446,1,40,36,
sequence,flow.Sequence,8_35,2023-11-17T19:44:26.829Z,,,,,,,,,,,2052.505999976187,completion,,,,,,,low,high,,,,,,false,,,,,true,454482.89999997616,454482.39999997616,452395.376,452411.09999996424,452429.894,454495.446,1,40,,
trial,html.Screen,8_36_0,2023-11-17T19:44:30.356Z,,,,2,0.0077673378094614,0.0021810768579373,,0.04,false,hl,3514.8540000119247,response,0.9448560599810628,0.9795190779807568,-0.8505525267172203,-0.9099421612683488,0.9772894269790684,-1.0678675536992863,high,low,,ISIC_0067621.JPG,,ISIC_9684318.JPG,26,false,0.20000000000000007,ll,keypress(f),0,true,458010.39999997616,458010.3000000119,454478.837,454483.09999996424,454495.446,458029.976,1,40,37,
sequence,flow.Sequence,8_36,2023-11-17T19:44:30.356Z,,,,,,,,,,,3514.8540000119247,completion,,,,,,,high,low,,,,,,false,,,,,true,458010.6999999881,458010.3000000119,454478.837,454483,454495.446,458029.976,1,40,,
trial,html.Screen,8_37_0,2023-11-17T19:44:33.021Z,,,,2,0.0050679133050021,0.0174815595031679,,0.04,false,hh,2644.8240000118967,response,1.073353722471336,1.0295190779807568,-0.8505525267172203,0.9464043043104888,0.9772894269790684,-1.0178675536992863,high,high,,ISIC_9848743.JPG,,ISIC_0055293.JPG,38,false,0.1,hl,keypress(j),0,true,460675,460674.8000000119,457995.534,458010.8000000119,458029.976,460678.707,1,40,38,
sequence,flow.Sequence,8_37,2023-11-17T19:44:33.021Z,,,,,,,,,,,2644.8240000118967,completion,,,,,,,high,high,,,,,,false,,,,,true,460675.3000000119,460674.8000000119,457995.534,458010.8000000119,458029.976,460678.707,1,40,,
trial,html.Screen,8_38_0,2023-11-17T19:44:35.516Z,,,,2,0.0350697500805515,0.0166617848231997,,0.04,false,ll,2491.793000000005,response,-0.7848333827448511,1.0295190779807568,-0.8505525267172203,-0.9557254346276748,1.0272894269790684,-1.0178675536992863,low,low,,ISIC_0024423.JPG,,ISIC_6778515.JPG,35,false,0.1,hh,keypress(i),0,true,463170.8000000119,463170.5,460662.174,460675.5,460678.707,463178.813,1,40,39,
sequence,flow.Sequence,8_38,2023-11-17T19:44:35.517Z,,,,,,,,,,,2491.793000000005,completion,,,,,,,low,low,,,,,,false,,,,,true,463171.09999996424,463170.5,460662.174,460675.39999997616,460678.707,463178.813,1,40,,
trial,html.Screen,8_39_0,2023-11-17T19:44:41.813Z,,,,2,0.0050679133050021,0.0174815595031679,,0.04,true,ll,6287.886999988055,response,-0.8529242055711017,1.0295190779807568,-0.9005525267172203,-1.0761216763182415,1.0272894269790684,-1.0678675536992863,low,low,,ISIC_9848743.JPG,,ISIC_8169564.JPG,29,false,0.1,ll,keypress(f),0,true,469466.89999997616,469466.6999999881,463162.161,463171.3000000119,463178.813,469478.759,1,40,40,
sequence,flow.Sequence,8_39,2023-11-17T19:44:41.813Z,,,,,,,,,,,6287.886999988055,completion,,,,,,,low,low,,,,,,false,,,,,true,469467.3000000119,469466.6999999881,463162.161,463171.1999999881,463178.813,469478.759,1,40,,
stair_loop,flow.Loop,8,2023-11-17T19:44:41.813Z,,,,,,,,,,,130688.1159999881,completion,,,,,,,,,,,,,,false,,,,,true,469467.39999997616,469466.6999999881,338761.921,338770.5,338778.584,469478.759,1,40,,
exp_instructions,html.Screen,9,2023-11-17T19:44:58.764Z,,,,,,,,,,,16938.94099998806,response,,,,,,,,,,,,,,,,continue,keypress(Space),,,486418,486417.6999999881,469462.024,469467.59999996424,469478.759,486428.754,,,,
trial,html.Screen,10_0_0,2023-11-17T19:45:01.861Z,,,,1,0.0077673378094614,0.0021810768579373,,0.04,false,ll,3085.9459999880637,response,-0.8207155237115402,0.9691331793541498,-0.8545101148366794,-0.9831752618289616,1.0125446099236324,-1.0203675536992867,low,low,,ISIC_0067621.JPG,9,ISIC_0053929.JPG,35,false,0.1,lh,keypress(e),0,false,489515,489514.6999999881,486411.422,486418.09999996424,486428.754,489528.747,4,500,1,
break,html.Screen,10_0_1,2023-11-17T19:45:01.862Z,,,,,,,,,,,NaN,,,,,,,,low,low,,,,,,false,,,,,false,489516.1999999881,489515.8000000119,,489515.1999999881,,489528.747,4,500,,
break_continue,html.Screen,10_0_2,2023-11-17T19:45:01.863Z,,,,,,,,,,,NaN,,,,,,,,low,low,,,,,,false,,,,,false,489516.89999997616,489516.59999996424,,489516.3000000119,,489528.747,4,500,,
sequence,flow.Sequence,10_0,2023-11-17T19:45:01.863Z,,,,,,,,,,,3087.845999964222,completion,,,,,,,low,low,,,,,,false,,,,,false,489517.1999999881,489516.59999996424,486411.422,486418.09999996424,486428.754,489528.747,4,500,,
trial,html.Screen,10_1_0,2023-11-17T19:45:04.396Z,,,,1,-0.0199897690678184,-0.0312486875504497,,0.04,true,hl,2521.3529999642633,response,1.1547137855907486,0.9691331793541498,-0.8545101148366794,-1.0185275168641534,1.0125446099236324,-1.0203675536992867,high,low,,ISIC_5482426.JPG,8,ISIC_7604870.JPG,31,false,0.20000000000000007,hl,keypress(j),0,false,492050.3000000119,492050.09999996424,489512.047,489517.39999997616,489528.747,492062.143,4,500,2,
break,html.Screen,10_1_1,2023-11-17T19:45:04.397Z,,,,,,,,,,,NaN,,,,,,,,high,low,,,,,,false,,,,,false,492050.6999999881,492050.59999996424,,492050.39999997616,,492062.143,4,500,,
break_continue,html.Screen,10_1_2,2023-11-17T19:45:04.397Z,,,,,,,,,,,NaN,,,,,,,,high,low,,,,,,false,,,,,false,492051.09999996424,492050.89999997616,,492050.8000000119,,492062.143,4,500,,
sequence,flow.Sequence,10_1,2023-11-17T19:45:04.397Z,,,,,,,,,,,2522.152999976184,completion,,,,,,,high,low,,,,,,false,,,,,false,492051.1999999881,492050.89999997616,489512.047,489517.3000000119,489528.747,492062.143,4,500,,
trial,html.Screen,10_2_0,2023-11-17T19:45:08.164Z,,,,1,-0.0361875505619981,0.0291457404567876,,0.04,true,lh,3755.857000000018,response,-0.8070820195894357,0.9691331793541498,-0.8545101148366794,0.8958120092147633,1.0125446099236324,-1.0203675536992867,low,high,,ISIC_0027480.JPG,9,ISIC_0060585.JPG,26,false,0.17000000000000004,lh,keypress(e),0,false,495818.09999996424,495818,492045.594,492051.3000000119,492062.143,495828.841,4,500,3,
break,html.Screen,10_2_1,2023-11-17T19:45:08.164Z,,,,,,,,,,,NaN,,,,,,,,low,high,,,,,,false,,,,,false,495818.39999997616,495818.3000000119,,495818.1999999881,,495828.841,4,500,,
break_continue,html.Screen,10_2_2,2023-11-17T19:45:08.164Z,,,,,,,,,,,NaN,,,,,,,,low,high,,,,,,false,,,,,false,495818.59999996424,495818.59999996424,,495818.39999997616,,495828.841,4,500,,
sequence,flow.Sequence,10_2,2023-11-17T19:45:08.164Z,,,,,,,,,,,3756.4569999642554,completion,,,,,,,low,high,,,,,,false,,,,,false,495818.6999999881,495818.59999996424,492045.594,492051.3000000119,492062.143,495828.841,4,500,,
trial,html.Screen,10_3_0,2023-11-17T19:45:11.565Z,,,,1,0.0399381815506136,0.0177751789152893,,0.04,false,hl,3389.7589999642223,response,0.8620516892494489,0.9691331793541498,-0.8545101148366794,-1.1108509340502866,1.0125446099236324,-1.0203675536992867,high,low,,ISIC_3981425.JPG,9,ISIC_5557806.JPG,31,false,0.20000000000000007,ll,keypress(f),0,false,499218.89999997616,499218.59999996424,495812.167,495818.6999999881,495828.841,499228.793,4,500,4,
break,html.Screen,10_3_1,2023-11-17T19:45:11.565Z,,,,,,,,,,,NaN,,,,,,,,high,low,,,,,,false,,,,,false,499219.59999996424,499219.39999997616,,499219.09999996424,,499228.793,4,500,,
break_continue,html.Screen,10_3_2,2023-11-17T19:45:11.566Z,,,,,,,,,,,NaN,,,,,,,,high,low,,,,,,false,,,,,false,499220,499219.89999997616,,499219.6999999881,,499228.793,4,500,,
sequence,flow.Sequence,10_3,2023-11-17T19:45:11.566Z,,,,,,,,,,,3391.0589999761432,completion,,,,,,,high,low,,,,,,false,,,,,false,499220.09999996424,499219.89999997616,495812.167,495818.6999999881,495828.841,499228.793,4,500,,
trial,html.Screen,10_4_0,2023-11-17T19:45:15.260Z,,,,1,-0.0086413421586899,-0.0360184993500958,,0.04,true,lh,3685.007000011916,response,-0.8644465729542988,0.9691331793541498,-0.8545101148366794,0.8679598285079457,1.0125446099236324,-1.0203675536992867,low,high,,ISIC_0010767.JPG,9,ISIC_6718969.JPG,26,false,0.17000000000000004,lh,keypress(e),0,false,502913.89999997616,502913.8000000119,499212.137,499220.3000000119,499228.793,502928.953,4,500,5,
break,html.Screen,10_4_1,2023-11-17T19:45:15.260Z,,,,,,,,,,,NaN,,,,,,,,low,high,,,,,,false,,,,,false,502914.3000000119,502914.3000000119,,502914.09999996424,,502928.953,4,500,,
break_continue,html.Screen,10_4_2,2023-11-17T19:45:15.260Z,,,,,,,,,,,NaN,,,,,,,,low,high,,,,,,false,,,,,false,502914.59999996424,502914.39999997616,,502914.39999997616,,502928.953,4,500,,
sequence,flow.Sequence,10_4,2023-11-17T19:45:15.260Z,,,,,,,,,,,3685.606999976153,completion,,,,,,,low,high,,,,,,false,,,,,false,502914.59999996424,502914.39999997616,499212.137,499220.1999999881,499228.793,502928.953,4,500,,
trial,html.Screen,10_5_0,2023-11-17T19:45:18.980Z,,,,1,-0.0189295602385628,-0.0128812415435153,,0.04,true,lh,3705.1469999642577,response,-0.7044626395896347,0.9691331793541498,-0.8545101148366794,1.1821868813141057,1.0125446099236324,-1.0203675536992867,low,high,,ISIC_0010372.JPG,9,ISIC_0024317.JPG,26,false,0.17000000000000004,lh,keypress(e),0,false,506634.1999999881,506634.09999996424,502912.243,502914.59999996424,502928.953,506645.534,4,500,6,
break,html.Screen,10_5_1,2023-11-17T19:45:18.980Z,,,,,,,,,,,NaN,,,,,,,,low,high,,,,,,false,,,,,false,506634.59999996424,506634.59999996424,,506634.39999997616,,506645.534,4,500,,
break_continue,html.Screen,10_5_2,2023-11-17T19:45:18.981Z,,,,,,,,,,,NaN,,,,,,,,low,high,,,,,,false,,,,,false,506634.89999997616,506634.8000000119,,506634.6999999881,,506645.534,4,500,,
sequence,flow.Sequence,10_5,2023-11-17T19:45:18.981Z,,,,,,,,,,,3705.8470000119414,completion,,,,,,,low,high,,,,,,false,,,,,false,506635,506634.8000000119,502912.243,502914.59999996424,502928.953,506645.534,4,500,,
trial,html.Screen,10_6_0,2023-11-17T19:45:22.309Z,,,,1,0.0057914759495055,-0.018500200317654,,0.04,false,lh,3317.266000011936,response,-0.7622914383475332,0.9691331793541498,-0.8545101148366794,0.8883896910883083,1.0125446099236324,-1.0203675536992867,low,high,,ISIC_0058723.JPG,9,ISIC_0032005.JPG,26,false,0.17000000000000004,hh,keypress(i),0,false,509963,509962.8000000119,506628.927,506635,506645.534,509978.821,4,500,7,
break,html.Screen,10_6_1,2023-11-17T19:45:22.310Z,,,,,,,,,,,NaN,,,,,,,,low,high,,,,,,false,,,,,false,509963.89999997616,509963.6999999881,,509963.3000000119,,509978.821,4,500,,
break_continue,html.Screen,10_6_2,2023-11-17T19:45:22.310Z,,,,,,,,,,,NaN,,,,,,,,low,high,,,,,,false,,,,,false,509964.39999997616,509964.1999999881,,509964,,509978.821,4,500,,
sequence,flow.Sequence,10_6,2023-11-17T19:45:22.311Z,,,,,,,,,,,3318.665999988094,completion,,,,,,,low,high,,,,,,false,,,,,false,509964.6999999881,509964.1999999881,506628.927,506635,506645.534,509978.821,4,500,,
trial,html.Screen,10_7_0,2023-11-17T19:45:25.973Z,,,,1,0.00126575685933,0.0325046559638838,,0.04,true,hh,3647.778999964241,response,1.0324288349148223,0.9691331793541498,-0.8545101148366794,0.9551989453759216,1.0125446099236324,-1.0203675536992867,high,high,,ISIC_5682259.JPG,9,ISIC_0033570.JPG,41,false,0.1,hh,keypress(i),0,false,513626.8000000119,513626.59999996424,509962.284,509964.8000000119,509978.821,513628.796,4,500,8,
break,html.Screen,10_7_1,2023-11-17T19:45:25.974Z,,,,,,,,,,,NaN,,,,,,,,high,high,,,,,,false,,,,,false,513627.6999999881,513627.39999997616,,513627.09999996424,,513628.796,4,500,,
break_continue,html.Screen,10_7_2,2023-11-17T19:45:25.974Z,,,,,,,,,,,NaN,,,,,,,,high,high,,,,,,false,,,,,false,513628.1999999881,513628,,513627.89999997616,,513628.796,4,500,,
sequence,flow.Sequence,10_7,2023-11-17T19:45:25.974Z,,,,,,,,,,,3649.1790000000037,completion,,,,,,,high,high,,,,,,false,,,,,false,513628.39999997616,513628,509962.284,509964.8000000119,509978.821,513628.796,4,500,,
trial,html.Screen,10_8_0,2023-11-17T19:45:28.468Z,,,,1,0.0166849894750452,-0.0371614812368835,,0.04,true,hl,2493.204000000027,response,0.8087127179888679,0.9691331793541498,-0.8545101148366794,-0.8480635840272462,1.0125446099236324,-1.0203675536992867,high,low,,ISIC_6231450.JPG,9,ISIC_3941147.JPG,31,false,0.20000000000000007,hl,keypress(j),0,false,516122.09999996424,516122,513612.124,513628.59999996424,513628.796,516128.837,4,500,9,
break,html.Screen,10_8_1,2023-11-17T19:45:28.468Z,,,,,,,,,,,NaN,,,,,,,,high,low,,,,,,false,,,,,false,516122.59999996424,516122.5,,516122.3000000119,,516128.837,4,500,,
break_continue,html.Screen,10_8_2,2023-11-17T19:45:28.469Z,,,,,,,,,,,NaN,,,,,,,,high,low,,,,,,false,,,,,false,516122.89999997616,516122.8000000119,,516122.6999999881,,516128.837,4,500,,
sequence,flow.Sequence,10_8,2023-11-17T19:45:28.469Z,,,,,,,,,,,2494.004000011948,completion,,,,,,,high,low,,,,,,false,,,,,false,516123,516122.8000000119,513612.124,513628.59999996424,513628.796,516128.837,4,500,,
trial,html.Screen,10_9_0,2023-11-17T19:45:32.996Z,,,,1,-0.0365981355399771,-0.0162670920008846,,0.04,true,lh,4521.1630000000005,response,-0.7785184841253222,0.9691331793541498,-0.8545101148366794,0.8564302235174217,1.0125446099236324,-1.0203675536992867,low,high,,ISIC_0982855.JPG,9,ISIC_6529073.JPG,26,false,0.17000000000000004,lh,keypress(e),0,false,520650.1999999881,520650,516112.323,516123.09999996424,516128.837,520662.281,4,500,10,
break,html.Screen,10_9_1,2023-11-17T19:45:32.996Z,,,,,,,,,,,NaN,,,,,,,,low,high,,,,,,false,,,,,false,520650.5,520650.5,,520650.1999999881,,520662.281,4,500,,
break_continue,html.Screen,10_9_2,2023-11-17T19:45:32.997Z,,,,,,,,,,,NaN,,,,,,,,low,high,,,,,,false,,,,,false,520650.6999999881,520650.59999996424,,520650.59999996424,,520662.281,4,500,,
sequence,flow.Sequence,10_9,2023-11-17T19:45:32.997Z,,,,,,,,,,,4521.762999964238,completion,,,,,,,low,high,,,,,,false,,,,,false,520650.8000000119,520650.59999996424,516112.323,516123.09999996424,516128.837,520662.281,4,500,,
trial,html.Screen,10_10_0,2023-11-17T19:45:37.301Z,,,,1,-0.0051046740562181,0.0178832721027728,,0.04,true,ll,4292.218999999983,response,-0.7808813078434221,0.9691331793541498,-0.8545101148366794,-1.0657303317575737,1.0125446099236324,-1.0203675536992867,low,low,,ISIC_9545819.JPG,8,ISIC_5357288.JPG,35,false,0.1,ll,keypress(f),0,false,524954.6999999881,524954.5,520645.483,520650.8000000119,520662.281,524962.135,4,500,11,
break,html.Screen,10_10_1,2023-11-17T19:45:37.301Z,,,,,,,,,,,NaN,,,,,,,,low,low,,,,,,false,,,,,false,524955.5,524955.1999999881,,524954.8999999762,,524962.135,4,500,,
break_continue,html.Screen,10_10_2,2023-11-17T19:45:37.302Z,,,,,,,,,,,NaN,,,,,,,,low,low,,,,,,false,,,,,false,524955.8000000119,524955.6999999881,,524955.5999999642,,524962.135,4,500,,
sequence,flow.Sequence,10_10,2023-11-17T19:45:37.302Z,,,,,,,,,,,4293.418999988062,completion,,,,,,,low,low,,,,,,false,,,,,false,524956,524955.6999999881,520645.483,520650.8000000119,520662.281,524962.135,4,500,,
trial,html.Screen,10_11_0,2023-11-17T19:45:47.036Z,,,,1,0.0118555311043871,0.0087774532070196,,0.04,false,hl,9727.86499999999,response,1.0264463986917702,0.9691331793541498,-0.8545101148366794,-1.171271535505083,1.0125446099236324,-1.0203675536992867,high,low,,ISIC_6488658.JPG,10,ISIC_7889838.JPG,31,false,0.20000000000000007,ll,keypress(f),0,false,534690.0999999642,534690,524945.65,524956.1999999881,524962.135,534695.499,4,500,12,
break,html.Screen,10_11_1,2023-11-17T19:45:47.036Z,,,,,,,,,,,NaN,,,,,,,,high,low,,,,,,false,,,,,false,534690.5,534690.3999999762,,534690.1999999881,,534695.499,4,500,,
break_continue,html.Screen,10_11_2,2023-11-17T19:45:47.036Z,,,,,,,,,,,NaN,,,,,,,,high,low,,,,,,false,,,,,false,534690.6999999881,534690.5999999642,,534690.5,,534695.499,4,500,,
sequence,flow.Sequence,10_11,2023-11-17T19:45:47.037Z,,,,,,,,,,,9728.464999964228,completion,,,,,,,high,low,,,,,,false,,,,,false,534690.6999999881,534690.5999999642,524945.65,524956.1999999881,524962.135,534695.499,4,500,,
trial,html.Screen,10_12_0,2023-11-17T19:45:52.156Z,,,,1,0.00126575685933,0.0325046559638838,,0.04,false,lh,5114.600999964285,response,-0.8069562753553525,0.9691331793541498,-0.8545101148366794,0.9101764190105358,1.0125446099236324,-1.0203675536992867,low,high,,ISIC_5682259.JPG,10,ISIC_0046596.JPG,26,false,0.17000000000000004,hh,keypress(i),0,false,539810.1999999881,539810.0999999642,534678.691,534690.8000000119,534695.499,539812.173,4,500,13,
break,html.Screen,10_12_1,2023-11-17T19:45:52.156Z,,,,,,,,,,,NaN,,,,,,,,low,high,,,,,,false,,,,,false,539810.5,539810.3999999762,,539810.3000000119,,539812.173,4,500,,
break_continue,html.Screen,10_12_2,2023-11-17T19:45:52.156Z,,,,,,,,,,,NaN,,,,,,,,low,high,,,,,,false,,,,,false,539810.5999999642,539810.5999999642,,539810.5,,539812.173,4,500,,
sequence,flow.Sequence,10_12,2023-11-17T19:45:52.157Z,,,,,,,,,,,5115.100999964285,completion,,,,,,,low,high,,,,,,false,,,,,false,539810.6999999881,539810.5999999642,534678.691,534690.8000000119,534695.499,539812.173,4,500,,
trial,html.Screen,10_13_0,2023-11-17T19:45:56.844Z,,,,1,-0.0127320821962457,0.0315308940184827,,0.04,false,hh,4686.127000011969,response,0.913652449364318,0.9691331793541498,-0.8545101148366794,0.9917659814487484,1.0125446099236324,-1.0203675536992867,high,high,,ISIC_8156101.JPG,9,ISIC_0032233.JPG,41,false,0.1,hl,keypress(j),0,false,544498.3999999762,544498.3000000119,539795.397,539810.6999999881,539812.173,544512.176,4,500,14,
break,html.Screen,10_13_1,2023-11-17T19:45:56.845Z,,,,,,,,,,,NaN,,,,,,,,high,high,,,,,,false,,,,,false,544499.0999999642,544498.8999999762,,544498.5999999642,,544512.176,4,500,,
break_continue,html.Screen,10_13_2,2023-11-17T19:45:56.845Z,,,,,,,,,,,NaN,,,,,,,,high,high,,,,,,false,,,,,false,544499.5,544499.3999999762,,544499.1999999881,,544512.176,4,500,,
sequence,flow.Sequence,10_13,2023-11-17T19:45:56.846Z,,,,,,,,,,,4687.226999976207,completion,,,,,,,high,high,,,,,,false,,,,,false,544499.8000000119,544499.3999999762,539795.397,539810.6999999881,539812.173,544512.176,4,500,,
trial,html.Screen,10_14_0,2023-11-17T19:45:59.493Z,,,,1,0.0158987717472563,0.0292472192292015,,0.04,true,hh,2634.4239999642596,response,0.9506699737853276,0.9691331793541498,-0.8545101148366794,0.988934053363149,1.0125446099236324,-1.0203675536992867,high,high,,ISIC_1366765.JPG,10,ISIC_0014217.JPG,41,false,0.1,hh,keypress(i),0,false,547146.8000000119,547146.5999999642,544495.489,544499.8999999762,544512.176,547162.242,4,500,15,
break,html.Screen,10_14_1,2023-11-17T19:45:59.493Z,,,,,,,,,,,NaN,,,,,,,,high,high,,,,,,false,,,,,false,547147.5999999642,547147.3999999762,,547147,,547162.242,4,500,,
break_continue,html.Screen,10_14_2,2023-11-17T19:45:59.494Z,,,,,,,,,,,NaN,,,,,,,,high,high,,,,,,false,,,,,false,547148,547147.8999999762,,547147.6999999881,,547162.242,4,500,,
sequence,flow.Sequence,10_14,2023-11-17T19:45:59.494Z,,,,,,,,,,,2635.7239999761805,completion,,,,,,,high,high,,,,,,false,,,,,false,547148.1999999881,547147.8999999762,544495.489,544499.8000000119,544512.176,547162.242,4,500,,
trial,html.Screen,10_15_0,2023-11-17T19:46:01.556Z,,,,1,-0.0365981355399771,-0.0162670920008846,,0.04,false,hl,2047.4579999881098,response,0.7809949855371787,0.9691331793541498,-0.8545101148366794,-0.8834146203433249,1.0125446099236324,-1.0203675536992867,high,low,,ISIC_0982855.JPG,9,ISIC_7450481.JPG,31,false,0.20000000000000007,hh,keypress(i),0,false,549209.8000000119,549209.6999999881,547145.583,547148.3000000119,547162.242,549212.165,4,500,16,
break,html.Screen,10_15_1,2023-11-17T19:46:01.556Z,,,,,,,,,,,NaN,,,,,,,,high,low,,,,,,false,,,,,false,549210.0999999642,549210,,549209.8999999762,,549212.165,4,500,,
break_continue,html.Screen,10_15_2,2023-11-17T19:46:01.556Z,,,,,,,,,,,NaN,,,,,,,,high,low,,,,,,false,,,,,false,549210.1999999881,549210.1999999881,,549210.0999999642,,549212.165,4,500,,
sequence,flow.Sequence,10_15,2023-11-17T19:46:01.556Z,,,,,,,,,,,2047.9579999881098,completion,,,,,,,high,low,,,,,,false,,,,,false,549210.3000000119,549210.1999999881,547145.583,547148.3000000119,547162.242,549212.165,4,500,,
trial,html.Screen,10_16_0,2023-11-17T19:46:03.700Z,,,,1,0.012020985739544,-0.0126097407389903,,0.04,true,hh,2141.8349999999627,response,1.042500842905652,0.9691331793541498,-0.8545101148366794,1.083053464502593,1.0125446099236324,-1.0203675536992867,high,high,,ISIC_0069379.JPG,10,ISIC_0071135.JPG,41,false,0.1,hh,keypress(i),0,false,551354,551354,549195.488,549210.3000000119,549212.165,551362.298,4,500,17,
break,html.Screen,10_16_1,2023-11-17T19:46:03.700Z,,,,,,,,,,,NaN,,,,,,,,high,high,,,,,,false,,,,,false,551354.3999999762,551354.3000000119,,551354.1999999881,,551362.298,4,500,,
break_continue,html.Screen,10_16_2,2023-11-17T19:46:03.701Z,,,,,,,,,,,NaN,,,,,,,,high,high,,,,,,false,,,,,false,551354.5999999642,551354.5,,551354.3999999762,,551362.298,4,500,,
sequence,flow.Sequence,10_16,2023-11-17T19:46:03.701Z,,,,,,,,,,,2142.3349999999627,completion,,,,,,,high,high,,,,,,false,,,,,false,551354.6999999881,551354.5,549195.488,549210.3000000119,549212.165,551362.298,4,500,,
trial,html.Screen,10_17_0,2023-11-17T19:46:06.916Z,,,,1,-0.0051046740562181,0.0178832721027728,,0.04,true,ll,3207.4019999881275,response,-0.8997449990565672,0.9691331793541498,-0.8545101148366794,-0.9792890899144426,1.0125446099236324,-1.0203675536992867,low,low,,ISIC_9545819.JPG,10,ISIC_0469314.JPG,35,false,0.1,ll,keypress(f),0,false,554569.8000000119,554569.6999999881,551345.604,551354.6999999881,551362.298,554579.016,4,500,18,
break,html.Screen,10_17_1,2023-11-17T19:46:06.916Z,,,,,,,,,,,NaN,,,,,,,,low,low,,,,,,false,,,,,false,554570.0999999642,554570.0999999642,,554569.8999999762,,554579.016,4,500,,
break_continue,html.Screen,10_17_2,2023-11-17T19:46:06.916Z,,,,,,,,,,,NaN,,,,,,,,low,low,,,,,,false,,,,,false,554570.3000000119,554570.3000000119,,554570.1999999881,,554579.016,4,500,,
sequence,flow.Sequence,10_17,2023-11-17T19:46:06.916Z,,,,,,,,,,,3208.0020000119694,completion,,,,,,,low,low,,,,,,false,,,,,false,554570.3999999762,554570.3000000119,551345.604,551354.6999999881,551362.298,554579.016,4,500,,
trial,html.Screen,10_18_0,2023-11-17T19:46:09.909Z,,,,1,-0.0365981355399771,-0.0162670920008846,,0.04,false,hh,2983.683999988134,response,0.9850572151440374,0.9691331793541498,-0.8545101148366794,1.028720908260899,1.0125446099236324,-1.0203675536992867,high,high,,ISIC_0982855.JPG,8,ISIC_0068993.JPG,41,false,0.1,hl,keypress(j),0,false,557562.8999999762,557562.6999999881,554562.191,554570.3999999762,554579.016,557579.025,4,500,19,
break,html.Screen,10_18_1,2023-11-17T19:46:09.910Z,,,,,,,,,,,NaN,,,,,,,,high,high,,,,,,false,,,,,false,557563.8999999762,557563.5999999642,,557563.3000000119,,557579.025,4,500,,
break_continue,html.Screen,10_18_2,2023-11-17T19:46:09.910Z,,,,,,,,,,,NaN,,,,,,,,high,high,,,,,,false,,,,,false,557564.3999999762,557564.1999999881,,557564.0999999642,,557579.025,4,500,,
sequence,flow.Sequence,10_18,2023-11-17T19:46:09.911Z,,,,,,,,,,,2985.183999988134,completion,,,,,,,high,high,,,,,,false,,,,,false,557564.5,557564.1999999881,554562.191,554570.3999999762,554579.016,557579.025,4,500,,
trial,html.Screen,10_19_0,2023-11-17T19:46:14.197Z,,,,1,0.0071892445601978,-0.0246015408628738,,0.04,false,ll,4271.275000011898,response,-0.7830751937312889,0.9691331793541498,-0.8545101148366794,-1.022904755724704,1.0125446099236324,-1.0203675536992867,low,low,,ISIC_0014133.JPG,9,ISIC_1927858.JPG,35,false,0.1,hh,keypress(i),0,false,561850.5,561850.3000000119,557562.318,557564.8000000119,557579.025,561862.224,4,500,20,
break,html.Screen,10_19_1,2023-11-17T19:46:14.197Z,,,,,,,,,,,NaN,,,,,,,,low,low,,,,,,false,,,,,false,561851,561850.8999999762,,561850.5999999642,,561862.224,4,500,,
break_continue,html.Screen,10_19_2,2023-11-17T19:46:14.198Z,,,,,,,,,,,NaN,,,,,,,,low,low,,,,,,false,,,,,false,561851.3999999762,561851.3000000119,,561851.1999999881,,561862.224,4,500,,
sequence,flow.Sequence,10_19,2023-11-17T19:46:14.198Z,,,,,,,,,,,4272.275000011898,completion,,,,,,,low,low,,,,,,false,,,,,false,561851.6999999881,561851.3000000119,557562.318,557564.6999999881,557579.025,561862.224,4,500,,
trial,html.Screen,10_20_0,2023-11-17T19:46:17.101Z,,,,1,0.0077673378094614,0.0021810768579373,,0.04,true,lh,2892.1759999761125,response,-0.9087169856594104,0.9691331793541498,-0.8545101148366794,0.8835647084207277,1.0125446099236324,-1.0203675536992867,low,high,,ISIC_0067621.JPG,9,ISIC_0000349.JPG,26,false,0.17000000000000004,lh,keypress(e),0,false,564754.5,564754.3999999762,561845.776,561851.6999999881,561862.224,564762.244,4,500,21,
break,html.Screen,10_20_1,2023-11-17T19:46:17.101Z,,,,,,,,,,,NaN,,,,,,,,low,high,,,,,,false,,,,,false,564755.0999999642,564754.8999999762,,564754.8000000119,,564762.244,4,500,,
break_continue,html.Screen,10_20_2,2023-11-17T19:46:17.102Z,,,,,,,,,,,NaN,,,,,,,,low,high,,,,,,false,,,,,false,564755.5,564755.3999999762,,564755.1999999881,,564762.244,4,500,,
sequence,flow.Sequence,10_20,2023-11-17T19:46:17.102Z,,,,,,,,,,,2893.1759999761125,completion,,,,,,,low,high,,,,,,false,,,,,false,564755.5999999642,564755.3999999762,561845.776,561851.6999999881,561862.224,564762.244,4,500,,
trial,html.Screen,10_21_0,2023-11-17T19:46:20.060Z,,,,1,-0.0063515208248796,-0.0194177605767913,,0.04,false,ll,2951.556000011973,response,-0.8839757968937295,0.9691331793541498,-0.8545101148366794,-0.9422051867002986,1.0125446099236324,-1.0203675536992867,low,low,,ISIC_5281908.JPG,10,ISIC_6739241.JPG,35,false,0.1,lh,keypress(e),0,false,567713.8999999762,567713.8000000119,564745.781,564755.6999999881,564762.244,567729.038,4,500,22,
break,html.Screen,10_21_1,2023-11-17T19:46:20.060Z,,,,,,,,,,,NaN,,,,,,,,low,low,,,,,,false,,,,,false,567714.1999999881,567714.1999999881,,567714,,567729.038,4,500,,
break_continue,html.Screen,10_21_2,2023-11-17T19:46:20.060Z,,,,,,,,,,,NaN,,,,,,,,low,low,,,,,,false,,,,,false,567714.3999999762,567714.3000000119,,567714.3000000119,,567729.038,4,500,,
sequence,flow.Sequence,10_21,2023-11-17T19:46:20.061Z,,,,,,,,,,,2952.056000011973,completion,,,,,,,low,low,,,,,,false,,,,,false,567714.5,567714.3000000119,564745.781,564755.6999999881,564762.244,567729.038,4,500,,
trial,html.Screen,10_22_0,2023-11-17T19:46:22.821Z,,,,1,0.0118555311043871,0.0087774532070196,,0.04,true,hh,2745.4620000000577,response,0.9293599144917216,0.9691331793541498,-0.8545101148366794,1.045616100036335,1.0125446099236324,-1.0203675536992867,high,high,,ISIC_6488658.JPG,9,ISIC_0011031.JPG,41,false,0.1,hh,keypress(i),0,false,570474.8000000119,570474.5,567712.295,567714.5,567729.038,570495.579,4,500,23,
break,html.Screen,10_22_1,2023-11-17T19:46:22.822Z,,,,,,,,,,,NaN,,,,,,,,high,high,,,,,,false,,,,,false,570475.5999999642,570475.3999999762,,570475,,570495.579,4,500,,
break_continue,html.Screen,10_22_2,2023-11-17T19:46:22.822Z,,,,,,,,,,,NaN,,,,,,,,high,high,,,,,,false,,,,,false,570476.1999999881,570476,,570475.8000000119,,570495.579,4,500,,
sequence,flow.Sequence,10_22,2023-11-17T19:46:22.822Z,,,,,,,,,,,2746.9620000000577,completion,,,,,,,high,high,,,,,,false,,,,,false,570476.3999999762,570476,567712.295,567714.5,567729.038,570495.579,4,500,,
trial,html.Screen,10_23_0,2023-11-17T19:46:25.725Z,,,,1,0.00126575685933,0.0325046559638838,,0.04,true,hl,2882.920999999973,response,0.8015753713975186,0.9691331793541498,-0.8545101148366794,-1.0067065355978264,1.0125446099236324,-1.0203675536992867,high,low,,ISIC_5682259.JPG,10,ISIC_0002119.JPG,31,false,0.20000000000000007,hl,keypress(j),0,false,573378.6999999881,573378.5,570462.158,570476.5,570495.579,573395.605,4,500,24,
break,html.Screen,10_23_1,2023-11-17T19:46:25.726Z,,,,,,,,,,,NaN,,,,,,,,high,low,,,,,,false,,,,,false,573379.5,573379.1999999881,,573378.8999999762,,573395.605,4,500,,
break_continue,html.Screen,10_23_2,2023-11-17T19:46:25.726Z,,,,,,,,,,,NaN,,,,,,,,high,low,,,,,,false,,,,,false,573379.8999999762,573379.8000000119,,573379.5999999642,,573395.605,4,500,,
sequence,flow.Sequence,10_23,2023-11-17T19:46:25.726Z,,,,,,,,,,,2884.221000011894,completion,,,,,,,high,low,,,,,,false,,,,,false,573380.0999999642,573379.8000000119,570462.158,570476.5,570495.579,573395.605,4,500,,
trial,html.Screen,10_24_0,2023-11-17T19:46:28.380Z,,,,1,0.012810673904807,-0.00400964452501,,0.04,true,hh,2638.3950000000186,response,0.9858885614273278,0.9691331793541498,-0.8545101148366794,1.050716657084935,1.0125446099236324,-1.0203675536992867,high,high,,ISIC_0064656.JPG,9,ISIC_0055498.JPG,41,false,0.1,hh,keypress(i),0,false,576034.1999999881,576034,573378.993,573380.1999999881,573395.605,576045.542,4,500,25,
break,html.Screen,10_24_1,2023-11-17T19:46:28.381Z,,,,,,,,,,,NaN,,,,,,,,high,high,,,,,,false,,,,,false,576034.6999999881,576034.5999999642,,576034.3000000119,,576045.542,4,500,,
break_continue,html.Screen,10_24_2,2023-11-17T19:46:28.381Z,,,,,,,,,,,NaN,,,,,,,,high,high,,,,,,false,,,,,false,576035,576034.8000000119,,576034.8000000119,,576045.542,4,500,,
sequence,flow.Sequence,10_24,2023-11-17T19:46:28.381Z,,,,,,,,,,,2639.1950000119396,completion,,,,,,,high,high,,,,,,false,,,,,false,576035,576034.8000000119,573378.993,573380.0999999642,573395.605,576045.542,4,500,,
trial,html.Screen,10_25_0,2023-11-17T19:46:35.269Z,,,,1,-0.0127320821962457,0.0315308940184827,,0.04,false,lh,6877.357999976142,response,-0.849847885203758,0.9691331793541498,-0.8545101148366794,0.973447384095442,1.0125446099236324,-1.0203675536992867,low,high,,ISIC_8156101.JPG,10,ISIC_9612228.JPG,26,false,0.17000000000000004,hh,keypress(i),0,false,582923.1999999881,582922.8999999762,576028.903,576035.0999999642,576045.542,582928.901,4,500,26,
break,html.Screen,10_25_1,2023-11-17T19:46:35.270Z,,,,,,,,,,,NaN,,,,,,,,low,high,,,,,,false,,,,,false,582923.8999999762,582923.8000000119,,582923.3999999762,,582928.901,4,500,,
break_continue,html.Screen,10_25_2,2023-11-17T19:46:35.271Z,,,,,,,,,,,NaN,,,,,,,,low,high,,,,,,false,,,,,false,582924.3999999762,582924.3000000119,,582924.0999999642,,582928.901,4,500,,
sequence,flow.Sequence,10_25,2023-11-17T19:46:35.271Z,,,,,,,,,,,6878.758000011905,completion,,,,,,,low,high,,,,,,false,,,,,false,582924.5999999642,582924.3000000119,576028.903,576035.0999999642,576045.542,582928.901,4,500,,
trial,html.Screen,10_26_0,2023-11-17T19:46:37.748Z,,,,1,-0.0063515208248796,-0.0194177605767913,,0.04,true,hh,2472.698999964283,response,0.9858885614273278,0.9691331793541498,-0.8545101148366794,1.050716657084935,1.0125446099236324,-1.0203675536992867,high,high,,ISIC_5281908.JPG,8,ISIC_0055498.JPG,41,false,0.1,hh,keypress(i),0,false,585401.5999999642,585401.5999999642,582912.245,582924.6999999881,582928.901,585412.223,4,500,27,
break,html.Screen,10_26_1,2023-11-17T19:46:37.748Z,,,,,,,,,,,NaN,,,,,,,,high,high,,,,,,false,,,,,false,585401.8999999762,585401.8999999762,,585401.8000000119,,585412.223,4,500,,
break_continue,html.Screen,10_26_2,2023-11-17T19:46:37.748Z,,,,,,,,,,,NaN,,,,,,,,high,high,,,,,,false,,,,,false,585402.0999999642,585402,,585402,,585412.223,4,500,,
sequence,flow.Sequence,10_26,2023-11-17T19:46:37.748Z,,,,,,,,,,,2473.0990000000456,completion,,,,,,,high,high,,,,,,false,,,,,false,585402.1999999881,585402,582912.245,582924.6999999881,582928.901,585412.223,4,500,,
trial,html.Screen,10_27_0,2023-11-17T19:46:41.765Z,,,,1,-0.0361875505619981,0.0291457404567876,,0.04,false,hh,4006.777000000002,response,0.968277930473984,0.9691331793541498,-0.8545101148366794,1.0901346674420178,1.0125446099236324,-1.0203675536992867,high,high,,ISIC_0027480.JPG,8,ISIC_0519386.JPG,41,false,0.1,lh,keypress(e),0,false,589419.1999999881,589419,585395.715,585402.1999999881,585412.223,589428.975,4,500,28,
break,html.Screen,10_27_1,2023-11-17T19:46:41.766Z,,,,,,,,,,,NaN,,,,,,,,high,high,,,,,,false,,,,,false,589420.3000000119,589420.0999999642,,589419.5999999642,,589428.975,4,500,,
break_continue,html.Screen,10_27_2,2023-11-17T19:46:41.767Z,,,,,,,,,,,NaN,,,,,,,,high,high,,,,,,false,,,,,false,589420.8999999762,589420.6999999881,,589420.5,,589428.975,4,500,,
sequence,flow.Sequence,10_27,2023-11-17T19:46:41.767Z,,,,,,,,,,,4008.476999988081,completion,,,,,,,high,high,,,,,,false,,,,,false,589421.1999999881,589420.6999999881,585395.715,585402.1999999881,585412.223,589428.975,4,500,,
trial,html.Screen,10_28_0,2023-11-17T19:46:44.404Z,,,,1,0.0023664502831079,0.0252784582169994,,0.04,true,hh,2629.325000011944,response,1.0228768574896494,0.9691331793541498,-0.8545101148366794,0.9413691675751268,1.0125446099236324,-1.0203675536992867,high,high,,ISIC_4156010.JPG,9,ISIC_0063492.JPG,41,false,0.1,hh,keypress(i),0,false,592058.3999999762,592058.3000000119,589412.295,589421.3999999762,589428.975,592062.288,4,500,29,
break,html.Screen,10_28_1,2023-11-17T19:46:44.405Z,,,,,,,,,,,NaN,,,,,,,,high,high,,,,,,false,,,,,false,592058.8999999762,592058.8999999762,,592058.5999999642,,592062.288,4,500,,
break_continue,html.Screen,10_28_2,2023-11-17T19:46:44.405Z,,,,,,,,,,,NaN,,,,,,,,high,high,,,,,,false,,,,,false,592059.1999999881,592059.0999999642,,592059.0999999642,,592062.288,4,500,,
sequence,flow.Sequence,10_28,2023-11-17T19:46:44.405Z,,,,,,,,,,,2630.1249999642605,completion,,,,,,,high,high,,,,,,false,,,,,false,592059.3999999762,592059.0999999642,589412.295,589421.3000000119,589428.975,592062.288,4,500,,
trial,html.Screen,10_29_0,2023-11-17T19:46:47.126Z,,,,1,0.0077673378094614,0.0021810768579373,,0.04,true,lh,2717.0120000119787,response,-0.9039158082670506,0.9691331793541498,-0.8545101148366794,1.0517562064343149,1.0125446099236324,-1.0203675536992867,low,high,,ISIC_0067621.JPG,10,ISIC_0015411.JPG,26,false,0.17000000000000004,lh,keypress(e),0,false,594779.5,594779.3000000119,592045.674,592059.5,592062.288,594795.577,4,500,30,
break,html.Screen,10_29_1,2023-11-17T19:46:47.127Z,,,,,,,,,,,NaN,,,,,,,,low,high,,,,,,false,,,,,false,594780.5999999642,594780.3000000119,,594779.8000000119,,594795.577,4,500,,
break_continue,html.Screen,10_29_2,2023-11-17T19:46:47.127Z,,,,,,,,,,,NaN,,,,,,,,low,high,,,,,,false,,,,,false,594781.0999999642,594781,,594780.6999999881,,594795.577,4,500,,
sequence,flow.Sequence,10_29,2023-11-17T19:46:47.127Z,,,,,,,,,,,2718.7120000000577,completion,,,,,,,low,high,,,,,,false,,,,,false,594781.3999999762,594781,592045.674,592059.3999999762,592062.288,594795.577,4,500,,
trial,html.Screen,10_30_0,2023-11-17T19:46:49.333Z,,,,1,0.0060934073440827,0.0279108145883031,,0.04,true,lh,2190.8229999761097,response,-0.8779374983479176,0.9691331793541498,-0.8545101148366794,0.9745548032823428,1.0125446099236324,-1.0203675536992867,low,high,,ISIC_0032604.JPG,8,ISIC_2991354.JPG,26,false,0.17000000000000004,lh,keypress(e),0,false,596986.5999999642,596986.3999999762,594779.019,594781.5,594795.577,596995.575,4,500,31,
break,html.Screen,10_30_1,2023-11-17T19:46:49.333Z,,,,,,,,,,,NaN,,,,,,,,low,high,,,,,,false,,,,,false,596987.3000000119,596987.0999999642,,596986.8000000119,,596995.575,4,500,,
break_continue,html.Screen,10_30_2,2023-11-17T19:46:49.334Z,,,,,,,,,,,NaN,,,,,,,,low,high,,,,,,false,,,,,false,596987.5999999642,596987.5,,596987.3999999762,,596995.575,4,500,,
sequence,flow.Sequence,10_30,2023-11-17T19:46:49.334Z,,,,,,,,,,,2191.9229999999516,completion,,,,,,,low,high,,,,,,false,,,,,false,596987.8000000119,596987.5,594779.019,594781.5,594795.577,596995.575,4,500,,
trial,html.Screen,10_31_0,2023-11-17T19:46:55.956Z,,,,1,-0.0127320821962457,0.0315308940184827,,0.04,false,hh,6614.425000000047,response,0.968832577506943,0.9691331793541498,-0.8545101148366794,1.068698723750748,1.0125446099236324,-1.0203675536992867,high,high,,ISIC_8156101.JPG,10,ISIC_0010962.JPG,41,false,0.1,lh,keypress(e),0,false,603610,603610,596978.841,596987.8999999762,596995.575,603612.265,4,500,32,
break,html.Screen,10_31_1,2023-11-17T19:46:55.956Z,,,,,,,,,,,NaN,,,,,,,,high,high,,,,,,false,,,,,false,603610.3999999762,603610.3000000119,,603610.1999999881,,603612.265,4,500,,
break_continue,html.Screen,10_31_2,2023-11-17T19:46:55.957Z,,,,,,,,,,,NaN,,,,,,,,high,high,,,,,,false,,,,,false,603610.5999999642,603610.5,,603610.3999999762,,603612.265,4,500,,
sequence,flow.Sequence,10_31,2023-11-17T19:46:55.957Z,,,,,,,,,,,6614.925000000047,completion,,,,,,,high,high,,,,,,false,,,,,false,603610.6999999881,603610.5,596978.841,596987.8000000119,596995.575,603612.265,4,500,,
trial,html.Screen,10_32_0,2023-11-17T19:46:58.701Z,,,,1,0.0023664502831079,0.0252784582169994,,0.04,true,hh,2742.734999999986,response,1.0324288349148223,0.9691331793541498,-0.8545101148366794,0.9551989453759216,1.0125446099236324,-1.0203675536992867,high,high,,ISIC_4156010.JPG,9,ISIC_0033570.JPG,41,false,0.1,hh,keypress(i),0,false,606355.1999999881,606355,603595.638,603610.8000000119,603612.265,606362.28,4,500,33,
break,html.Screen,10_32_1,2023-11-17T19:46:58.702Z,,,,,,,,,,,NaN,,,,,,,,high,high,,,,,,false,,,,,false,606356,606355.8000000119,,606355.5,,606362.28,4,500,,
break_continue,html.Screen,10_32_2,2023-11-17T19:46:58.703Z,,,,,,,,,,,NaN,,,,,,,,high,high,,,,,,false,,,,,false,606356.5999999642,606356.5,,606356.1999999881,,606362.28,4,500,,
sequence,flow.Sequence,10_32,2023-11-17T19:46:58.703Z,,,,,,,,,,,2744.234999999986,completion,,,,,,,high,high,,,,,,false,,,,,false,606356.8000000119,606356.5,603595.638,603610.8000000119,603612.265,606362.28,4,500,,
trial,html.Screen,10_33_0,2023-11-17T19:47:02.038Z,,,,1,0.0399381815506136,0.0177751789152893,,0.04,true,hh,3329.419999988051,response,0.9850572151440374,0.9691331793541498,-0.8545101148366794,1.028720908260899,1.0125446099236324,-1.0203675536992867,high,high,,ISIC_3981425.JPG,9,ISIC_0068993.JPG,41,false,0.1,hh,keypress(i),0,false,609691.8999999762,609691.6999999881,606345.622,606357,606362.28,609695.562,4,500,34,
break,html.Screen,10_33_1,2023-11-17T19:47:02.039Z,,,,,,,,,,,NaN,,,,,,,,high,high,,,,,,false,,,,,false,609692.8999999762,609692.8000000119,,609692.3000000119,,609695.562,4,500,,
break_continue,html.Screen,10_33_2,2023-11-17T19:47:02.039Z,,,,,,,,,,,NaN,,,,,,,,high,high,,,,,,false,,,,,false,609693.3000000119,609693.0999999642,,609693,,609695.562,4,500,,
sequence,flow.Sequence,10_33,2023-11-17T19:47:02.039Z,,,,,,,,,,,3330.8199999642093,completion,,,,,,,high,high,,,,,,false,,,,,false,609693.3999999762,609693.0999999642,606345.622,606356.8999999762,606362.28,609695.562,4,500,,
trial,html.Screen,10_34_0,2023-11-17T19:47:04.821Z,,,,1,0.0118555311043871,0.0087774532070196,,0.04,true,lh,2779.0379999642028,response,-1.00615481805876,0.9691331793541498,-0.8545101148366794,0.8428903771195875,1.0125446099236324,-1.0203675536992867,low,high,,ISIC_6488658.JPG,9,ISIC_0069970.JPG,26,false,0.17000000000000004,lh,keypress(e),0,false,612474.8000000119,612474.5999999642,609679.083,609693.5,609695.562,612478.914,4,500,35,
break,html.Screen,10_34_1,2023-11-17T19:47:04.822Z,,,,,,,,,,,NaN,,,,,,,,low,high,,,,,,false,,,,,false,612475.5999999642,612475.3999999762,,612475.0999999642,,612478.914,4,500,,
break_continue,html.Screen,10_34_2,2023-11-17T19:47:04.822Z,,,,,,,,,,,NaN,,,,,,,,low,high,,,,,,false,,,,,false,612476.1999999881,612475.8999999762,,612475.6999999881,,612478.914,4,500,,
sequence,flow.Sequence,10_34,2023-11-17T19:47:04.822Z,,,,,,,,,,,2780.3379999761237,completion,,,,,,,low,high,,,,,,false,,,,,false,612476.3000000119,612475.8999999762,609679.083,609693.5,609695.562,612478.914,4,500,,
trial,html.Screen,10_35_0,2023-11-17T19:47:07.620Z,,,,1,0.0060918352854008,-0.029032683404407,,0.04,true,lh,2795.1859999642475,response,-0.7133243033950115,0.9691331793541498,-0.8545101148366794,1.0307816252475666,1.0125446099236324,-1.0203675536992867,low,high,,ISIC_8436194.JPG,8,ISIC_1369273.JPG,26,false,0.17000000000000004,lh,keypress(e),0,false,615274.3000000119,615274.0999999642,612462.211,612476.3999999762,612478.914,615278.95,4,500,36,
break,html.Screen,10_35_1,2023-11-17T19:47:07.621Z,,,,,,,,,,,NaN,,,,,,,,low,high,,,,,,false,,,,,false,615274.6999999881,615274.6999999881,,615274.5,,615278.95,4,500,,
break_continue,html.Screen,10_35_2,2023-11-17T19:47:07.621Z,,,,,,,,,,,NaN,,,,,,,,low,high,,,,,,false,,,,,false,615275,615274.8999999762,,615274.8000000119,,615278.95,4,500,,
sequence,flow.Sequence,10_35,2023-11-17T19:47:07.621Z,,,,,,,,,,,2795.9859999761684,completion,,,,,,,low,high,,,,,,false,,,,,false,615275.0999999642,615274.8999999762,612462.211,612476.3999999762,612478.914,615278.95,4,500,,
trial,html.Screen,10_36_0,2023-11-17T19:47:10.526Z,,,,1,0.0399381815506136,0.0177751789152893,,0.04,false,ll,2900.0500000000466,response,-0.7914346928019095,0.9691331793541498,-0.8545101148366794,-0.9448806246145584,1.0125446099236324,-1.0203675536992867,low,low,,ISIC_3981425.JPG,9,ISIC_9646599.JPG,35,false,0.1,lh,keypress(e),0,false,618179.5999999642,618179,615262.461,615275.1999999881,615278.95,618195.608,4,500,37,
break,html.Screen,10_36_1,2023-11-17T19:47:10.527Z,,,,,,,,,,,NaN,,,,,,,,low,low,,,,,,false,,,,,false,618180.5999999642,618180.3000000119,,618179.8999999762,,618195.608,4,500,,
break_continue,html.Screen,10_36_2,2023-11-17T19:47:10.527Z,,,,,,,,,,,NaN,,,,,,,,low,low,,,,,,false,,,,,false,618181.0999999642,618180.8999999762,,618180.6999999881,,618195.608,4,500,,
sequence,flow.Sequence,10_36,2023-11-17T19:47:10.527Z,,,,,,,,,,,2901.9499999762047,completion,,,,,,,low,low,,,,,,false,,,,,false,618181.1999999881,618180.8999999762,615262.461,615275.1999999881,615278.95,618195.608,4,500,,
trial,html.Screen,10_37_0,2023-11-17T19:47:12.948Z,,,,1,-0.0086413421586899,-0.0360184993500958,,0.04,true,lh,2406.4919999642298,response,-0.9039158082670506,0.9691331793541498,-0.8545101148366794,1.0517562064343149,1.0125446099236324,-1.0203675536992867,low,high,,ISIC_0010767.JPG,9,ISIC_0015411.JPG,26,false,0.17000000000000004,lh,keypress(e),0,false,620602.1999999881,620602.0999999642,618179.004,618181.3999999762,618195.608,620612.264,4,500,38,
break,html.Screen,10_37_1,2023-11-17T19:47:12.949Z,,,,,,,,,,,NaN,,,,,,,,low,high,,,,,,false,,,,,false,620602.8000000119,620602.6999999881,,620602.3000000119,,620612.264,4,500,,
break_continue,html.Screen,10_37_2,2023-11-17T19:47:12.949Z,,,,,,,,,,,NaN,,,,,,,,low,high,,,,,,false,,,,,false,620603,620603,,620602.8999999762,,620612.264,4,500,,
sequence,flow.Sequence,10_37,2023-11-17T19:47:12.949Z,,,,,,,,,,,2407.3919999999925,completion,,,,,,,low,high,,,,,,false,,,,,false,620603.0999999642,620603,618179.004,618181.3000000119,618195.608,620612.264,4,500,,
