sender,sender_type,sender_id,timestamp,meta,,age,blockNo,c1,c2,condition,control_tolerance,correct,correctResponse,duration,ended_on,f1,f1_high,f1_low,f2,f2_high,f2_low,feature_level1,feature_level2,gender,img_left,img_reveal,img_right,n_target_images,practice,range_tolerance,response,response_action,selection_duration,staircase,time_commit,time_end,time_render,time_run,time_show,time_switch,total_blocks,total_trials,trialNo,url
informed_consent,html.Screen,0,2023-11-17T22:17:37.890Z,"{""labjs_version"":""20.2.4"",""labjs_build"":{""flavor"":""development"",""commit"":""f5b4a49f956347addd546a832a3327688c2c0fef""},""location"":""https://labjs.felixhenninger.com/api/labjs_preview/index.html"",""userAgent"":""Mozilla/5.0 (Windows NT 10.0; Win64; x64) AppleWebKit/537.36 (KHTML, like Gecko) Chrome/119.0.0.0 Safari/537.36"",""platform"":""Win32"",""language"":""en-US"",""locale"":""en-US"",""timeZone"":""America/Chicago"",""timezoneOffset"":360,""screen_width"":1920,""screen_height"":1080,""scroll_width"":945,""scroll_height"":918,""window_innerWidth"":945,""window_innerHeight"":966,""devicePixelRatio"":1}",,,,,,,,,,109260.93400002384,response,,,,,,,,,,,,,,,,consent,click button,,,109688.80000007153,109683.10000002384,405.518,504.3000000715256,422.166,109605.429,,,,{}
Demography form,html.Form,1,2023-11-17T22:17:44.642Z,,,19,,,,,,,,6835.070999999996,form submission,,,,,,,,,male,,,,,,,,,,,116440.60000002384,116440.5,109588.946,109689,109605.429,116355.42,,,,
Welcome,html.Screen,2,2023-11-17T22:18:15.701Z,,,,,,,"[""bor"",""col""]",,,,31143.58,response,,,,,,,,,,,,,,,,continue,click button,,,147499.80000007153,147499,116339.214,116440.70000004768,116355.42,147422.166,,,,
demo_instructions,html.Screen,3,2023-11-17T22:18:53.541Z,,,,,,,,,,,37916.73400009537,response,,,,,,,,,,,,,,,,continue,click button,,,185339.80000007153,185338.90000009537,147405.446,147499.90000009537,147422.166,185272.091,,,,
trial,html.Screen,4_0_0,2023-11-17T22:19:15.484Z,,,,0,0.8067116931297591,-1.215898074058027,,,true,lh,22010.009000023856,response,-1.075512775389519,1.2,-1.2,1.0454702683049502,1.2,-1.2,low,high,,ISIC_1457687.JPG,,ISIC_0033603.JPG,26,true,0.4500000000000003,lh,keypress(e),100,false,207282.30000007153,207282.10000002384,185238.705,185339.90000009537,185272.091,207222.063,1,16,1,
sequence,flow.Sequence,4_0,2023-11-17T22:19:15.484Z,,,,,,,,,,,22010.009000023856,completion,,,,,,,low,high,,,,,,true,,,,,false,207282.40000009537,207282.10000002384,185238.705,185339.90000009537,185272.091,207222.063,1,16,,
trial,html.Screen,4_1_0,2023-11-17T22:19:21.510Z,,,,0,1.2594580992890123,-0.8833175387485132,,,true,lh,6086.537000023847,response,-1.2054195059663604,1.2,-1.2,0.7760611240296147,1.2,-1.2,low,high,,ISIC_0011933.JPG,,ISIC_8712559.JPG,26,true,0.4500000000000003,lh,keypress(e),100,false,213308.70000004768,213308.60000002384,207205.354,207282.5,207222.063,213239.163,1,16,2,
sequence,flow.Sequence,4_1,2023-11-17T22:19:21.510Z,,,,,,,,,,,6086.537000023847,completion,,,,,,,low,high,,,,,,true,,,,,false,213309,213308.60000002384,207205.354,207282.5,207222.063,213239.163,1,16,,
trial,html.Screen,4_2_0,2023-11-17T22:19:27.937Z,,,,0,1.0788024398087033,-0.9911875460374616,,,true,lh,6496.137000071525,response,-1.3046390428588206,1.2,-1.2,0.7942099232219556,1.2,-1.2,low,high,,ISIC_5951430.JPG,,ISIC_0013096.JPG,26,true,0.4500000000000003,lh,keypress(e),100,false,219735.40000009537,219735.30000007153,213222.01,213309,213239.163,219672.433,1,16,3,
sequence,flow.Sequence,4_2,2023-11-17T22:19:27.937Z,,,,,,,,,,,6496.137000071525,completion,,,,,,,low,high,,,,,,true,,,,,false,219735.60000002384,219735.30000007153,213222.01,213309,213239.163,219672.433,1,16,,
trial,html.Screen,4_3_0,2023-11-17T22:19:31.837Z,,,,0,0.8047295996345292,-1.551750455622795,,,true,lh,3962.9670000953774,response,-1.075512775389519,1.2,-1.2,1.0454702683049502,1.2,-1.2,low,high,,ISIC_7717907.JPG,,ISIC_0033603.JPG,26,true,0.4500000000000003,lh,keypress(e),100,false,223635.5,223635.40000009537,219655.352,219735.70000004768,219672.433,223572.037,1,16,4,
sequence,flow.Sequence,4_3,2023-11-17T22:19:31.837Z,,,,,,,,,,,3962.9670000953774,completion,,,,,,,low,high,,,,,,true,,,,,false,223635.60000002384,223635.40000009537,219655.352,219735.60000002384,219672.433,223572.037,1,16,,
trial,html.Screen,4_4_0,2023-11-17T22:19:37.281Z,,,,0,1.1117876838408909,1.2957497771092716,,,true,ll,5507.1630000476725,response,-0.8628391797088851,1.2,-1.2,-1.2689449231451748,1.2,-1.2,low,low,,ISIC_0061915.JPG,,ISIC_0001743.JPG,203,true,0.40000000000000024,ll,keypress(f),100,false,229079.5,229079.20000004768,223555.446,223635.70000004768,223572.037,229022.016,1,16,5,
sequence,flow.Sequence,4_4,2023-11-17T22:19:37.281Z,,,,,,,,,,,5507.1630000476725,completion,,,,,,,low,low,,,,,,true,,,,,false,229079.60000002384,229079.20000004768,223555.446,223635.70000004768,223572.037,229022.016,1,16,,
trial,html.Screen,4_5_0,2023-11-17T22:19:43.670Z,,,,0,1.136677654701082,1.2647850993872314,,,true,ll,6446.483999999997,response,-1.1684835186766898,1.2,-1.2,-1.2921331918483707,1.2,-1.2,low,low,,ISIC_0015436.JPG,,ISIC_5920470.JPG,25,true,0.14,ll,keypress(f),100,false,235468.70000004768,235468.5,229005.59,229079.70000004768,229022.016,235405.521,1,16,6,
sequence,flow.Sequence,4_5,2023-11-17T22:19:43.670Z,,,,,,,,,,,6446.483999999997,completion,,,,,,,low,low,,,,,,true,,,,,false,235468.90000009537,235468.5,229005.59,229079.70000004768,229022.016,235405.521,1,16,,
trial,html.Screen,4_6_0,2023-11-17T22:19:50.457Z,,,,0,1.2014901828022857,1.1484096197304636,,,true,ll,6850.478999999992,response,-1.252716660627398,1.2,-1.2,-1.183977080937476,1.2,-1.2,low,low,,ISIC_0067808.JPG,,ISIC_0034194.JPG,25,true,0.14,ll,keypress(f),100,false,242256,242256,235388.912,235468.90000009537,235405.521,242188.801,1,16,7,
sequence,flow.Sequence,4_6,2023-11-17T22:19:50.458Z,,,,,,,,,,,6850.478999999992,completion,,,,,,,low,low,,,,,,true,,,,,false,242256.20000004768,242256,235388.912,235468.90000009537,235405.521,242188.801,1,16,,
trial,html.Screen,4_7_0,2023-11-17T22:19:54.013Z,,,,0,1.1117876838408909,1.2957497771092716,,,true,ll,3622.499000071519,response,-1.3246728710248594,1.2,-1.2,-1.1527736000922424,1.2,-1.2,low,low,,ISIC_0061915.JPG,,ISIC_6876281.JPG,25,true,0.14,ll,keypress(f),100,false,245811.30000007153,245811.30000007153,242172.466,242256.20000004768,242188.801,245738.65,1,16,8,
sequence,flow.Sequence,4_7,2023-11-17T22:19:54.013Z,,,,,,,,,,,3622.499000071519,completion,,,,,,,low,low,,,,,,true,,,,,false,245811.60000002384,245811.30000007153,242172.466,242256.20000004768,242188.801,245738.65,1,16,,
trial,html.Screen,4_8_0,2023-11-17T22:20:00.544Z,,,,0,-0.8926515927689261,0.7935960767768927,,,true,hl,6603.750000095373,response,0.9138670886161264,1.2,-1.2,-0.8414121478342018,1.2,-1.2,high,low,,ISIC_8901371.JPG,,ISIC_6709052.JPG,27,true,0.40000000000000024,hl,keypress(j),100,false,252342.5,252342.40000009537,245722.278,245811.70000004768,245738.65,252272.117,1,16,9,
sequence,flow.Sequence,4_8,2023-11-17T22:20:00.544Z,,,,,,,,,,,6603.750000095373,completion,,,,,,,high,low,,,,,,true,,,,,false,252342.70000004768,252342.40000009537,245722.278,245811.70000004768,245738.65,252272.117,1,16,,
trial,html.Screen,4_9_0,2023-11-17T22:20:12.013Z,,,,0,-0.8472024037189965,0.986370061404882,,,true,hl,11539.283000095369,response,0.8047295996345292,1.2,-1.2,-1.551750455622795,1.2,-1.2,high,low,,ISIC_0054355.JPG,,ISIC_7717907.JPG,40,true,0.4500000000000003,hl,keypress(j),100,false,263811.60000002384,263811.40000009537,252255.311,252342.70000004768,252272.117,263738.705,1,16,10,
sequence,flow.Sequence,4_9,2023-11-17T22:20:12.013Z,,,,,,,,,,,11539.283000095369,completion,,,,,,,high,low,,,,,,true,,,,,false,263811.8000000715,263811.40000009537,252255.311,252342.70000004768,252272.117,263738.705,1,16,,
trial,html.Screen,4_10_0,2023-11-17T22:20:16.986Z,,,,0,-1.0453124399868816,0.8986747280184286,,,true,hl,5045.395000023826,response,0.7856143618373893,1.2,-1.2,-1.0273608829432213,1.2,-1.2,high,low,,ISIC_0013967.JPG,,ISIC_9303849.JPG,40,true,0.4500000000000003,hl,keypress(j),100,false,268784.2000000477,268784.10000002384,263722.24,263811.8000000715,263738.705,268722.464,1,16,11,
sequence,flow.Sequence,4_10,2023-11-17T22:20:16.986Z,,,,,,,,,,,5045.395000023826,completion,,,,,,,high,low,,,,,,true,,,,,false,268784.40000009537,268784.10000002384,263722.24,263811.8000000715,263738.705,268722.464,1,16,,
trial,html.Screen,4_11_0,2023-11-17T22:20:21.319Z,,,,0,-1.199471562817528,0.8631260534979347,,,true,hl,4395.136000023864,response,0.8867328775712738,1.2,-1.2,-1.0063426986460375,1.2,-1.2,high,low,,ISIC_0030754.JPG,,ISIC_0055759.JPG,40,true,0.4500000000000003,hl,keypress(j),100,false,273117.60000002384,273117.60000002384,268705.357,268784.5,268722.464,273055.484,1,16,12,
sequence,flow.Sequence,4_11,2023-11-17T22:20:21.319Z,,,,,,,,,,,4395.136000023864,completion,,,,,,,high,low,,,,,,true,,,,,false,273117.7000000477,273117.60000002384,268705.357,268784.5,268722.464,273055.484,1,16,,
trial,html.Screen,4_12_0,2023-11-17T22:20:25.883Z,,,,0,-1.1989130276493527,-1.2666195460149832,,,true,hh,4626.016000000003,response,1.522178057607135,1.2,-1.2,1.348695488923881,1.2,-1.2,high,high,,ISIC_0031705.JPG,,ISIC_7462953.JPG,359,true,0.4500000000000003,hh,keypress(i),100,false,277681.8000000715,277681.5,273038.715,273117.8000000715,273055.484,277622.445,1,16,13,
sequence,flow.Sequence,4_12,2023-11-17T22:20:25.884Z,,,,,,,,,,,4626.016000000003,completion,,,,,,,high,high,,,,,,true,,,,,false,277682,277681.5,273038.715,273117.8000000715,273055.484,277622.445,1,16,,
trial,html.Screen,4_13_0,2023-11-17T22:20:31.904Z,,,,0,-1.1409143352872226,-1.1323007949069106,,,true,hh,6079.755000047677,response,1.0915173513546716,1.2,-1.2,1.266840220031473,1.2,-1.2,high,high,,ISIC_0030291.JPG,,ISIC_8241457.JPG,40,true,0.14,hh,keypress(i),100,false,283702.3000000715,283702.2000000477,277605.39,277682,277622.445,283639.108,1,16,14,
sequence,flow.Sequence,4_13,2023-11-17T22:20:31.904Z,,,,,,,,,,,6079.755000047677,completion,,,,,,,high,high,,,,,,true,,,,,false,283702.5,283702.2000000477,277605.39,277682,277622.445,283639.108,1,16,,
trial,html.Screen,4_14_0,2023-11-17T22:20:36.212Z,,,,0,-1.3246728710248594,-1.1527736000922424,,,true,hh,4370.992000023834,response,1.2749714218614645,1.2,-1.2,1.1578619398362149,1.2,-1.2,high,high,,ISIC_6876281.JPG,,ISIC_0024999.JPG,40,true,0.14,hh,keypress(i),100,false,288010.2000000477,288010.10000002384,283622.439,283702.60000002384,283639.108,287939.112,1,16,15,
sequence,flow.Sequence,4_14,2023-11-17T22:20:36.212Z,,,,,,,,,,,4370.992000023834,completion,,,,,,,high,high,,,,,,true,,,,,false,288010.40000009537,288010.10000002384,283622.439,283702.60000002384,283639.108,287939.112,1,16,,
trial,html.Screen,4_15_0,2023-11-17T22:20:41.497Z,,,,0,-1.2946277435220357,-1.255157480204324,,,true,hh,5356.188000071503,response,1.1195710731537871,1.2,-1.2,1.1961732733209125,1.2,-1.2,high,high,,ISIC_1870309.JPG,,ISIC_0067170.JPG,40,true,0.14,hh,keypress(i),100,false,293295.5,293295.3000000715,287922.02,288010.40000009537,287939.112,293238.672,1,16,16,
sequence,flow.Sequence,4_15,2023-11-17T22:20:41.497Z,,,,,,,,,,,5356.188000071503,completion,,,,,,,high,high,,,,,,true,,,,,false,293295.60000002384,293295.3000000715,287922.02,288010.40000009537,287939.112,293238.672,1,16,,
demonstration_loop,flow.Loop,4,2023-11-17T22:20:41.497Z,,,,,,,,,,,108023.20900007154,completion,,,,,,,,,,,,,,true,,,,,false,293295.90000009537,293295.3000000715,185238.705,185339.90000009537,185272.091,293238.672,1,16,,
practice_instructions,html.Screen,5,2023-11-17T22:20:48.082Z,,,,,,,,,,,6635.928000023821,response,,,,,,,,,,,,,,,,continue,click button,,,299880.7000000477,299874.60000002384,293222.199,293295.90000009537,293238.672,299788.64,,,,
trial,html.Screen,6_0_0,2023-11-17T22:20:57.046Z,,,,1,-1.151139267005652,-1.0838749490501327,,,true,hh,9055.660000071512,response,1.1668613502915044,1.2,-1.2,1.327068780840367,1.2,-1.2,high,high,,ISIC_0002566.JPG,,ISIC_0054459.JPG,30,true,0.13,hh,keypress(i),0,false,308844.40000009537,308844.3000000715,299771.994,299880.90000009537,299788.64,308772.169,1,40,1,
sequence,flow.Sequence,6_0,2023-11-17T22:20:57.046Z,,,,,,,,,,,9055.660000071512,completion,,,,,,,high,high,,,,,,true,,,,,false,308844.60000002384,308844.3000000715,299771.994,299880.90000009537,299788.64,308772.169,1,40,,
trial,html.Screen,6_1_0,2023-11-17T22:21:02.038Z,,,,1,1.0915173513546716,1.266840220031473,,,true,ll,5063.631000071531,response,-1.1684835186766898,1.2,-1.2,-1.2921331918483707,1.2,-1.2,low,low,,ISIC_8241457.JPG,,ISIC_5920470.JPG,25,true,0.14,ll,keypress(f),0,false,313835.90000009537,313835.8000000715,308754.985,308844.60000002384,308772.169,313755.436,1,40,2,
sequence,flow.Sequence,6_1,2023-11-17T22:21:02.038Z,,,,,,,,,,,5063.631000071531,completion,,,,,,,low,low,,,,,,true,,,,,false,313836,313835.8000000715,308754.985,308844.60000002384,308772.169,313755.436,1,40,,
trial,html.Screen,6_2_0,2023-11-17T22:21:06.374Z,,,,1,-1.2946277435220357,-1.255157480204324,,,true,hh,4416.764000047697,response,1.1048559518249943,1.2,-1.2,1.2252457981338687,1.2,-1.2,high,high,,ISIC_1870309.JPG,,ISIC_0060817.JPG,30,true,0.13,hh,keypress(i),0,false,318172.40000009537,318172.2000000477,313738.696,313836.10000002384,313755.436,318088.675,1,40,3,
sequence,flow.Sequence,6_2,2023-11-17T22:21:06.374Z,,,,,,,,,,,4416.764000047697,completion,,,,,,,high,high,,,,,,true,,,,,false,318172.5,318172.2000000477,313738.696,313836,313755.436,318088.675,1,40,,
trial,html.Screen,6_3_0,2023-11-17T22:21:10.437Z,,,,1,-1.2246024683501224,-1.2904526351590244,,,true,hh,4146.9250000238535,response,1.0773466327271526,1.2,-1.2,1.1601445610079184,1.2,-1.2,high,high,,ISIC_4730066.JPG,,ISIC_0055169.JPG,40,true,0.14,hh,keypress(i),0,false,322235.7000000477,322235.60000002384,318072.29,318172.5,318088.675,322155.373,1,40,4,
sequence,flow.Sequence,6_3,2023-11-17T22:21:10.437Z,,,,,,,,,,,4146.9250000238535,completion,,,,,,,high,high,,,,,,true,,,,,false,322235.90000009537,322235.60000002384,318072.29,318172.5,318088.675,322155.373,1,40,,
trial,html.Screen,6_4_0,2023-11-17T22:21:15.574Z,,,,1,-1.160746324899676,-1.1927876559115576,,,true,hh,5217.126999999979,response,1.1195710731537871,1.2,-1.2,1.1961732733209125,1.2,-1.2,high,high,,ISIC_8651053.JPG,,ISIC_0067170.JPG,40,true,0.14,hh,keypress(i),0,false,327372.5,327372.5,322138.989,322235.90000009537,322155.373,327288.608,1,40,5,
sequence,flow.Sequence,6_4,2023-11-17T22:21:15.574Z,,,,,,,,,,,5217.126999999979,completion,,,,,,,high,high,,,,,,true,,,,,false,327372.60000002384,327372.5,322138.989,322235.90000009537,322155.373,327288.608,1,40,,
trial,html.Screen,6_5_0,2023-11-17T22:21:23.782Z,,,,1,1.1243896694621007,1.1772340944704969,,,true,ll,8291.592000047676,response,-1.160746324899676,1.2,-1.2,-1.1927876559115576,1.2,-1.2,low,low,,ISIC_0062765.JPG,,ISIC_8651053.JPG,25,true,0.14,ll,keypress(f),0,false,335580.40000009537,335580.2000000477,327272.261,327372.7000000477,327288.608,335505.268,1,40,6,
sequence,flow.Sequence,6_5,2023-11-17T22:21:23.782Z,,,,,,,,,,,8291.592000047676,completion,,,,,,,low,low,,,,,,true,,,,,false,335580.5,335580.2000000477,327272.261,327372.7000000477,327288.608,335505.268,1,40,,
trial,html.Screen,6_6_0,2023-11-17T22:21:31.990Z,,,,1,1.2020012168275056,-0.923753102263735,,,true,lh,8283.33200002386,response,-0.8926515927689261,1.2,-1.2,0.7935960767768927,1.2,-1.2,low,high,,ISIC_0000022.JPG,,ISIC_8901371.JPG,26,true,0.4500000000000003,lh,keypress(e),0,false,343788.60000002384,343788.60000002384,335488.811,335580.5,335505.268,343705.247,1,40,7,
sequence,flow.Sequence,6_6,2023-11-17T22:21:31.991Z,,,,,,,,,,,8283.33200002386,completion,,,,,,,low,high,,,,,,true,,,,,false,343788.8000000715,343788.60000002384,335488.811,335580.5,335505.268,343705.247,1,40,,
trial,html.Screen,6_7_0,2023-11-17T22:21:38.598Z,,,,1,-1.199471562817528,0.8631260534979347,,,false,hl,6690.45300004771,response,1.168911077628813,1.2,-1.2,-1.2181838235193114,1.2,-1.2,high,low,,ISIC_0030754.JPG,,ISIC_7358691.JPG,27,true,0.40000000000000024,ll,keypress(f),0,false,350395.90000009537,350395.7000000477,343688.774,343788.8000000715,343705.247,350322.141,1,40,8,
sequence,flow.Sequence,6_7,2023-11-17T22:21:38.598Z,,,,,,,,,,,6690.45300004771,completion,,,,,,,high,low,,,,,,true,,,,,false,350396,350395.7000000477,343688.774,343788.8000000715,343705.247,350322.141,1,40,,
trial,html.Screen,6_8_0,2023-11-17T22:21:44.134Z,,,,1,0.8867328775712738,-1.0063426986460375,,,false,lh,5610.259000095364,response,-1.0453124399868816,1.2,-1.2,0.8986747280184286,1.2,-1.2,low,high,,ISIC_0055759.JPG,,ISIC_0013967.JPG,26,true,0.4500000000000003,ll,keypress(f),0,false,355932.5,355932.40000009537,350305.128,350396,350322.141,355855.261,1,40,9,
sequence,flow.Sequence,6_8,2023-11-17T22:21:44.134Z,,,,,,,,,,,5610.259000095364,completion,,,,,,,low,high,,,,,,true,,,,,false,355932.60000002384,355932.40000009537,350305.128,350396,350322.141,355855.261,1,40,,
trial,html.Screen,6_9_0,2023-11-17T22:21:52.678Z,,,,1,-1.274752206258116,-1.2988509166163749,,,false,hh,8620.339000023843,response,1.1675055564885573,1.2,-1.2,1.5463984263056938,1.2,-1.2,high,high,,ISIC_6704623.JPG,,ISIC_0027072.JPG,288,true,0.40000000000000024,hl,keypress(j),0,false,364475.7000000477,364475.60000002384,355838.39,355932.60000002384,355855.261,364388.574,1,40,10,
sequence,flow.Sequence,6_9,2023-11-17T22:21:52.678Z,,,,,,,,,,,8620.339000023843,completion,,,,,,,high,high,,,,,,true,,,,,false,364475.8000000715,364475.60000002384,355838.39,355932.60000002384,355855.261,364388.574,1,40,,
trial,html.Screen,6_10_0,2023-11-17T22:21:57.494Z,,,,1,1.1302628852630028,1.288906469447243,,,true,ll,4903.226000071503,response,-1.1684835186766898,1.2,-1.2,-1.2921331918483707,1.2,-1.2,low,low,,ISIC_0071050.JPG,,ISIC_5920470.JPG,25,true,0.14,ll,keypress(f),0,false,369291.90000009537,369291.8000000715,364371.597,364475.8000000715,364388.574,369205.235,1,40,11,
sequence,flow.Sequence,6_10,2023-11-17T22:21:57.494Z,,,,,,,,,,,4903.226000071503,completion,,,,,,,low,low,,,,,,true,,,,,false,369292,369291.8000000715,364371.597,364475.8000000715,364388.574,369205.235,1,40,,
trial,html.Screen,6_11_0,2023-11-17T22:22:04.022Z,,,,1,-0.8110121381849364,0.7563142141851558,,,false,hl,6615.165000095381,response,0.8443403196524287,1.2,-1.2,-0.8858525429102605,1.2,-1.2,high,low,,ISIC_0033605.JPG,,ISIC_8777813.JPG,27,true,0.40000000000000024,hh,keypress(i),0,false,375820.60000002384,375820.40000009537,369188.923,369292,369205.235,375738.577,1,40,12,
sequence,flow.Sequence,6_11,2023-11-17T22:22:04.022Z,,,,,,,,,,,6615.165000095381,completion,,,,,,,high,low,,,,,,true,,,,,false,375820.60000002384,375820.40000009537,369188.923,369292,369205.235,375738.577,1,40,,
trial,html.Screen,6_12_0,2023-11-17T22:22:12.005Z,,,,1,1.2020012168275056,-0.923753102263735,,,false,lh,8064.223000071535,response,-0.8719231363109603,1.2,-1.2,0.7704280220140033,1.2,-1.2,low,high,,ISIC_0000022.JPG,,ISIC_0029453.JPG,26,true,0.4500000000000003,ll,keypress(f),0,false,383803,383802.8000000715,375722.17,375820.8000000715,375738.577,383721.853,1,40,13,
sequence,flow.Sequence,6_12,2023-11-17T22:22:12.005Z,,,,,,,,,,,8064.223000071535,completion,,,,,,,low,high,,,,,,true,,,,,false,383803,383802.8000000715,375722.17,375820.7000000477,375738.577,383721.853,1,40,,
trial,html.Screen,6_13_0,2023-11-17T22:22:17.990Z,,,,1,-0.8828738626295417,0.8288177599439582,,,true,hl,6065.947000071523,response,0.8350129142228142,1.2,-1.2,-0.8172547818270586,1.2,-1.2,high,low,,ISIC_0056041.JPG,,ISIC_0301568.JPG,27,true,0.40000000000000024,hl,keypress(j),0,false,389787.90000009537,389787.8000000715,383705.428,383803.10000002384,383721.853,389705.207,1,40,14,
sequence,flow.Sequence,6_13,2023-11-17T22:22:17.990Z,,,,,,,,,,,6065.947000071523,completion,,,,,,,high,low,,,,,,true,,,,,false,389788,389787.8000000715,383705.428,383803.10000002384,383721.853,389705.207,1,40,,
trial,html.Screen,6_14_0,2023-11-17T22:22:24.438Z,,,,1,1.1243896694621007,1.1772340944704969,,,true,ll,6530.893000023847,response,-0.8596006200412799,1.2,-1.2,-0.9571430175944712,1.2,-1.2,low,low,,ISIC_0062765.JPG,,ISIC_0663824.JPG,265,true,0.4500000000000003,ll,keypress(f),0,false,396236.10000002384,396236.10000002384,389688.86,389788,389705.207,396155.233,1,40,15,
sequence,flow.Sequence,6_14,2023-11-17T22:22:24.438Z,,,,,,,,,,,6530.893000023847,completion,,,,,,,low,low,,,,,,true,,,,,false,396236.2000000477,396236.10000002384,389688.86,389788,389705.207,396155.233,1,40,,
trial,html.Screen,6_15_0,2023-11-17T22:22:35.238Z,,,,1,1.2020012168275056,-0.923753102263735,,,true,lh,10880.266999999993,response,-1.0887164761389951,1.2,-1.2,1.5357518752548716,1.2,-1.2,low,high,,ISIC_0000022.JPG,,ISIC_0028127.JPG,26,true,0.4500000000000003,lh,keypress(e),0,false,407035.60000002384,407035.5,396138.816,396236.3000000715,396155.233,406955.248,1,40,16,
sequence,flow.Sequence,6_15,2023-11-17T22:22:35.238Z,,,,,,,,,,,10880.266999999993,completion,,,,,,,low,high,,,,,,true,,,,,false,407035.7000000477,407035.5,396138.816,396236.3000000715,396155.233,406955.248,1,40,,
trial,html.Screen,6_16_0,2023-11-17T22:22:45.030Z,,,,1,-1.058275612142778,0.7824898568540655,,,false,hl,9873.052000071504,response,0.8500530224490773,1.2,-1.2,-1.0893360711742854,1.2,-1.2,high,low,,ISIC_4906385.JPG,,ISIC_2998367.JPG,27,true,0.40000000000000024,lh,keypress(e),0,false,416828.40000009537,416828.3000000715,406938.361,407035.8000000715,406955.248,416755.29,1,40,17,
sequence,flow.Sequence,6_16,2023-11-17T22:22:45.030Z,,,,,,,,,,,9873.052000071504,completion,,,,,,,high,low,,,,,,true,,,,,false,416828.60000002384,416828.3000000715,406938.361,407035.8000000715,406955.248,416755.29,1,40,,
trial,html.Screen,6_17_0,2023-11-17T22:22:54.054Z,,,,1,1.2749714218614645,1.1578619398362149,,,true,ll,9097.010000071547,response,-0.7936051642828523,1.2,-1.2,-0.7963514435349658,1.2,-1.2,low,low,,ISIC_0024999.JPG,,ISIC_0027031.JPG,265,true,0.4500000000000003,ll,keypress(f),0,false,425852.40000009537,425852.3000000715,416738.631,416828.60000002384,416755.29,425772.023,1,40,18,
sequence,flow.Sequence,6_17,2023-11-17T22:22:54.054Z,,,,,,,,,,,9097.010000071547,completion,,,,,,,low,low,,,,,,true,,,,,false,425852.60000002384,425852.3000000715,416738.631,416828.60000002384,416755.29,425772.023,1,40,,
trial,html.Screen,6_18_0,2023-11-17T22:22:58.038Z,,,,1,1.1392972253022884,1.208510423375335,,,true,ll,4064.0770000238554,response,-1.0659165756604234,1.2,-1.2,-1.0867497316848906,1.2,-1.2,low,low,,ISIC_0046526.JPG,,ISIC_5807608.JPG,25,true,0.14,ll,keypress(f),0,false,429836.2000000477,429836.10000002384,425755.084,425852.60000002384,425772.023,429755.271,1,40,19,
sequence,flow.Sequence,6_18,2023-11-17T22:22:58.038Z,,,,,,,,,,,4064.0770000238554,completion,,,,,,,low,low,,,,,,true,,,,,false,429836.40000009537,429836.10000002384,425755.084,425852.60000002384,425772.023,429755.271,1,40,,
trial,html.Screen,6_19_0,2023-11-17T22:23:02.678Z,,,,1,1.0915173513546716,1.266840220031473,,,true,ll,4720.329000023834,response,-1.3246728710248594,1.2,-1.2,-1.1527736000922424,1.2,-1.2,low,low,,ISIC_8241457.JPG,,ISIC_6876281.JPG,25,true,0.14,ll,keypress(f),0,false,434475.8000000715,434475.60000002384,429738.528,429836.5,429755.271,434406.377,1,40,20,
sequence,flow.Sequence,6_19,2023-11-17T22:23:02.678Z,,,,,,,,,,,4720.329000023834,completion,,,,,,,low,low,,,,,,true,,,,,false,434475.90000009537,434475.60000002384,429738.528,429836.5,429755.271,434406.377,1,40,,
trial,html.Screen,6_20_0,2023-11-17T22:23:09.302Z,,,,1,-1.1409143352872226,-1.1323007949069106,,,true,hh,6694.023000095389,response,1.1048559518249943,1.2,-1.2,1.2252457981338687,1.2,-1.2,high,high,,ISIC_0030291.JPG,,ISIC_0060817.JPG,30,true,0.13,hh,keypress(i),0,false,441100.5,441100.40000009537,434372.245,434476,434406.377,441021.868,1,40,21,
sequence,flow.Sequence,6_20,2023-11-17T22:23:09.303Z,,,,,,,,,,,6694.023000095389,completion,,,,,,,high,high,,,,,,true,,,,,false,441100.60000002384,441100.40000009537,434372.245,434475.90000009537,434406.377,441021.868,1,40,,
trial,html.Screen,6_21_0,2023-11-17T22:23:13.797Z,,,,1,-0.7882758084023446,0.8296405881378283,,,true,hl,4573.432000071509,response,0.9244148283103414,1.2,-1.2,-0.9712966348713286,1.2,-1.2,high,low,,ISIC_0065882.JPG,,ISIC_7927525.JPG,27,true,0.40000000000000024,hl,keypress(j),0,false,445595.40000009537,445595.3000000715,441005.175,441100.7000000477,441021.868,445522.35,1,40,22,
sequence,flow.Sequence,6_21,2023-11-17T22:23:13.798Z,,,,,,,,,,,4573.432000071509,completion,,,,,,,high,low,,,,,,true,,,,,false,445595.5,445595.3000000715,441005.175,441100.7000000477,441021.868,445522.35,1,40,,
trial,html.Screen,6_22_0,2023-11-17T22:23:17.974Z,,,,1,1.14454137020797,1.1082302786512033,,,false,ll,4250.050000095391,response,-0.9021253278345898,1.2,-1.2,-1.3280231840672991,1.2,-1.2,low,low,,ISIC_0065128.JPG,,ISIC_0031582.JPG,265,true,0.4500000000000003,hl,keypress(j),0,false,449772.5,449772.40000009537,445505.308,445595.60000002384,445522.35,449688.53,1,40,23,
sequence,flow.Sequence,6_22,2023-11-17T22:23:17.975Z,,,,,,,,,,,4250.050000095391,completion,,,,,,,low,low,,,,,,true,,,,,false,449772.5,449772.40000009537,445505.308,445595.60000002384,445522.35,449688.53,1,40,,
trial,html.Screen,6_23_0,2023-11-17T22:23:25.222Z,,,,1,0.9089402323867112,-0.8034544077281132,,,true,lh,7331.570000023814,response,-0.7882758084023446,1.2,-1.2,0.8296405881378283,1.2,-1.2,low,high,,ISIC_3585381.JPG,,ISIC_0065882.JPG,26,true,0.4500000000000003,lh,keypress(e),0,false,457020.2000000477,457020.10000002384,449671.921,449772.5,449688.53,456938.47,1,40,24,
sequence,flow.Sequence,6_23,2023-11-17T22:23:25.222Z,,,,,,,,,,,7331.570000023814,completion,,,,,,,low,high,,,,,,true,,,,,false,457020.3000000715,457020.10000002384,449671.921,449772.5,449688.53,456938.47,1,40,,
trial,html.Screen,6_24_0,2023-11-17T22:23:29.014Z,,,,1,-1.160746324899676,-1.1927876559115576,,,true,hh,3873.4300000953954,response,1.3343792466249569,1.2,-1.2,0.9998679601141596,1.2,-1.2,high,high,,ISIC_8651053.JPG,,ISIC_0069411.JPG,288,true,0.40000000000000024,hh,keypress(i),0,false,460811.90000009537,460811.90000009537,456922.097,457020.40000009537,456938.47,460738.519,1,40,25,
sequence,flow.Sequence,6_24,2023-11-17T22:23:29.014Z,,,,,,,,,,,3873.4300000953954,completion,,,,,,,high,high,,,,,,true,,,,,false,460812.10000002384,460811.90000009537,456922.097,457020.40000009537,456938.47,460738.519,1,40,,
trial,html.Screen,6_25_0,2023-11-17T22:23:35.447Z,,,,1,1.2020012168275056,-0.923753102263735,,,false,lh,6505.881000095396,response,-0.8830264383952469,1.2,-1.2,0.8635562538060516,1.2,-1.2,low,high,,ISIC_0000022.JPG,,ISIC_0032258.JPG,26,true,0.4500000000000003,ll,keypress(f),0,false,467244.5,467244.40000009537,460722.229,460812.10000002384,460738.519,467172.319,1,40,26,
sequence,flow.Sequence,6_25,2023-11-17T22:23:35.447Z,,,,,,,,,,,6505.881000095396,completion,,,,,,,low,high,,,,,,true,,,,,false,467244.7000000477,467244.40000009537,460722.229,460812.10000002384,460738.519,467172.319,1,40,,
trial,html.Screen,6_26_0,2023-11-17T22:23:40.118Z,,,,1,1.0849202097813322,1.0851127310415287,,,true,ll,4743.58100009535,response,-0.8087120180951024,1.2,-1.2,-1.271445950850942,1.2,-1.2,low,low,,ISIC_0010289.JPG,,ISIC_4863784.JPG,203,true,0.40000000000000024,ll,keypress(f),0,false,471916.10000002384,471915.90000009537,467155.189,467244.7000000477,467172.319,471838.985,1,40,27,
sequence,flow.Sequence,6_26,2023-11-17T22:23:40.118Z,,,,,,,,,,,4743.58100009535,completion,,,,,,,low,low,,,,,,true,,,,,false,471916.10000002384,471915.90000009537,467155.189,467244.7000000477,467172.319,471838.985,1,40,,
trial,html.Screen,6_27_0,2023-11-17T22:23:44.198Z,,,,1,-1.2946277435220357,-1.255157480204324,,,true,hh,4157.015000000014,response,1.2118207001489876,1.2,-1.2,1.3164676315545727,1.2,-1.2,high,high,,ISIC_1870309.JPG,,ISIC_0066476.JPG,30,true,0.13,hh,keypress(i),0,false,475996.2000000477,475996,471821.844,471916.10000002384,471838.985,475921.861,1,40,28,
sequence,flow.Sequence,6_27,2023-11-17T22:23:44.198Z,,,,,,,,,,,4157.015000000014,completion,,,,,,,high,high,,,,,,true,,,,,false,475996.2000000477,475996,471821.844,471916.10000002384,471838.985,475921.861,1,40,,
trial,html.Screen,6_28_0,2023-11-17T22:23:52.471Z,,,,1,-1.075512775389519,1.0454702683049502,,,false,hl,8346.639000000025,response,1.0153439398566937,1.2,-1.2,-0.93001438372942,1.2,-1.2,high,low,,ISIC_0033603.JPG,,ISIC_8211214.JPG,27,true,0.40000000000000024,ll,keypress(f),0,false,484268.60000002384,484268.5,475905.091,475996.2000000477,475921.861,484188.531,1,40,29,
sequence,flow.Sequence,6_28,2023-11-17T22:23:52.471Z,,,,,,,,,,,8346.639000000025,completion,,,,,,,high,low,,,,,,true,,,,,false,484268.7000000477,484268.5,475905.091,475996.2000000477,475921.861,484188.531,1,40,,
trial,html.Screen,6_29_0,2023-11-17T22:23:58.342Z,,,,1,1.168911077628813,-1.2181838235193114,,,false,lh,5951.769000071508,response,-0.7883321712536753,1.2,-1.2,1.0011430756825364,1.2,-1.2,low,high,,ISIC_7358691.JPG,,ISIC_9828853.JPG,26,true,0.4500000000000003,hh,keypress(i),0,false,490140.5,490140.3000000715,484171.889,484268.8000000715,484188.531,490055.154,1,40,30,
sequence,flow.Sequence,6_29,2023-11-17T22:23:58.343Z,,,,,,,,,,,5951.769000071508,completion,,,,,,,low,high,,,,,,true,,,,,false,490140.5,490140.3000000715,484171.889,484268.7000000477,484188.531,490055.154,1,40,,
trial,html.Screen,6_30_0,2023-11-17T22:24:04.854Z,,,,1,0.8067116931297591,-1.215898074058027,,,false,lh,6596.84600000002,response,-1.199471562817528,1.2,-1.2,0.8631260534979347,1.2,-1.2,low,high,,ISIC_1457687.JPG,,ISIC_0030754.JPG,26,true,0.4500000000000003,hh,keypress(i),0,false,496652.10000002384,496652,490038.733,490140.60000002384,490055.154,496571.937,1,40,31,
sequence,flow.Sequence,6_30,2023-11-17T22:24:04.854Z,,,,,,,,,,,6596.84600000002,completion,,,,,,,low,high,,,,,,true,,,,,false,496652.10000002384,496652,490038.733,490140.60000002384,490055.154,496571.937,1,40,,
trial,html.Screen,6_31_0,2023-11-17T22:24:11.910Z,,,,1,-1.2724293858920366,-1.149360738769835,,,true,hh,7135.7630000477075,response,1.068995482830036,1.2,-1.2,1.02189095692261,1.2,-1.2,high,high,,ISIC_1264725.JPG,,ISIC_0046405.JPG,288,true,0.40000000000000024,hh,keypress(i),0,false,503707.90000009537,503707.7000000477,496555.163,496652.2000000477,496571.937,503621.831,1,40,32,
sequence,flow.Sequence,6_31,2023-11-17T22:24:11.910Z,,,,,,,,,,,7135.7630000477075,completion,,,,,,,high,high,,,,,,true,,,,,false,503708,503707.7000000477,496555.163,496652.2000000477,496571.937,503621.831,1,40,,
trial,html.Screen,6_32_0,2023-11-17T22:24:20.071Z,,,,1,-1.0369885917487718,0.8486937878412699,,,true,hl,8246.569000095362,response,1.0788024398087033,1.2,-1.2,-0.9911875460374616,1.2,-1.2,high,low,,ISIC_6917681.JPG,,ISIC_5951430.JPG,27,true,0.40000000000000024,hl,keypress(j),0,false,511868.5,511868.40000009537,503604.956,503708,503621.831,511788.667,1,40,33,
sequence,flow.Sequence,6_32,2023-11-17T22:24:20.071Z,,,,,,,,,,,8246.569000095362,completion,,,,,,,high,low,,,,,,true,,,,,false,511868.7000000477,511868.40000009537,503604.956,503708,503621.831,511788.667,1,40,,
trial,html.Screen,6_33_0,2023-11-17T22:24:22.294Z,,,,1,-1.274752206258116,-1.2988509166163749,,,true,hh,2303.2330000953516,response,1.463066111574741,1.2,-1.2,1.0078470381903606,1.2,-1.2,high,high,,ISIC_6704623.JPG,,ISIC_0025996.JPG,359,true,0.4500000000000003,hh,keypress(i),0,false,514091.90000009537,514091.90000009537,511772.076,511868.7000000477,511788.667,514005.149,1,40,34,
sequence,flow.Sequence,6_33,2023-11-17T22:24:22.294Z,,,,,,,,,,,2303.2330000953516,completion,,,,,,,high,high,,,,,,true,,,,,false,514092.10000002384,514091.90000009537,511772.076,511868.7000000477,511788.667,514005.149,1,40,,
trial,html.Screen,6_34_0,2023-11-17T22:24:27.158Z,,,,1,1.1017564906891342,1.293633394635193,,,false,ll,4950.851000000024,response,-1.2246024683501224,1.2,-1.2,-1.2904526351590244,1.2,-1.2,low,low,,ISIC_0029026.JPG,,ISIC_4730066.JPG,25,true,0.14,lh,keypress(e),0,false,518956.10000002384,518956,513988.853,514092.10000002384,514005.149,518871.819,1,40,35,
sequence,flow.Sequence,6_34,2023-11-17T22:24:27.158Z,,,,,,,,,,,4950.851000000024,completion,,,,,,,low,low,,,,,,true,,,,,false,518956.2000000477,518956,513988.853,514092.10000002384,514005.149,518871.819,1,40,,
trial,html.Screen,6_35_0,2023-11-17T22:24:34.967Z,,,,1,-1.0329549150636406,1.01584100839286,,,false,hl,7892.481000071508,response,0.8443403196524287,1.2,-1.2,-0.8858525429102605,1.2,-1.2,high,low,,ISIC_0054670.JPG,,ISIC_8777813.JPG,27,true,0.40000000000000024,ll,keypress(f),0,false,526764.5,526764.3000000715,518855.509,518956.2000000477,518871.819,526688.503,1,40,36,
sequence,flow.Sequence,6_35,2023-11-17T22:24:34.967Z,,,,,,,,,,,7892.481000071508,completion,,,,,,,high,low,,,,,,true,,,,,false,526764.6000000238,526764.3000000715,518855.509,518956.2000000477,518871.819,526688.503,1,40,,
trial,html.Screen,6_36_0,2023-11-17T22:24:40.407Z,,,,1,-1.0453124399868816,0.8986747280184286,,,true,hl,5515.697000047658,response,1.045301444872812,1.2,-1.2,-1.0872560254441277,1.2,-1.2,high,low,,ISIC_0013967.JPG,,ISIC_4507700.JPG,40,true,0.4500000000000003,hl,keypress(j),0,false,532204.3000000715,532204.2000000477,526671.995,526764.6000000238,526688.503,532121.808,1,40,37,
sequence,flow.Sequence,6_36,2023-11-17T22:24:40.407Z,,,,,,,,,,,5515.697000047658,completion,,,,,,,high,low,,,,,,true,,,,,false,532204.4000000954,532204.2000000477,526671.995,526764.6000000238,526688.503,532121.808,1,40,,
trial,html.Screen,6_37_0,2023-11-17T22:24:47.031Z,,,,1,1.0153439398566937,-0.93001438372942,,,true,lh,6706.392000047723,response,-0.7991459998473059,1.2,-1.2,1.0280788723474688,1.2,-1.2,low,high,,ISIC_8211214.JPG,,ISIC_7951202.JPG,26,true,0.4500000000000003,lh,keypress(e),0,false,538828.3000000715,538828.2000000477,532105.469,532204.4000000954,532121.808,538755.334,1,40,38,
sequence,flow.Sequence,6_37,2023-11-17T22:24:47.031Z,,,,,,,,,,,6706.392000047723,completion,,,,,,,low,high,,,,,,true,,,,,false,538828.5,538828.2000000477,532105.469,532204.4000000954,532121.808,538755.334,1,40,,
trial,html.Screen,6_38_0,2023-11-17T22:24:53.014Z,,,,1,0.9138670886161264,-0.8414121478342018,,,true,lh,6056.466000071494,response,-0.7518277461369444,1.2,-1.2,1.3860759020802074,1.2,-1.2,low,high,,ISIC_6709052.JPG,,ISIC_7967397.JPG,26,true,0.4500000000000003,lh,keypress(e),0,false,544811.9000000954,544811.8000000715,538738.43,538828.5,538755.334,544738.482,1,40,39,
sequence,flow.Sequence,6_38,2023-11-17T22:24:53.014Z,,,,,,,,,,,6056.466000071494,completion,,,,,,,low,high,,,,,,true,,,,,false,544811.9000000954,544811.8000000715,538738.43,538828.5,538755.334,544738.482,1,40,,
trial,html.Screen,6_39_0,2023-11-17T22:24:57.543Z,,,,1,-0.9754077946987664,1.1821868813141057,,,false,hl,4601.9180000954075,response,0.9544693251394116,1.2,-1.2,-1.0727539917203766,1.2,-1.2,high,low,,ISIC_0024317.JPG,,ISIC_0055147.JPG,27,true,0.40000000000000024,lh,keypress(e),0,false,549340.5,549340.4000000954,544721.599,544812,544738.482,549255.153,1,40,40,
sequence,flow.Sequence,6_39,2023-11-17T22:24:57.543Z,,,,,,,,,,,4601.9180000954075,completion,,,,,,,high,low,,,,,,true,,,,,false,549340.5,549340.4000000954,544721.599,544812,544738.482,549255.153,1,40,,
practice_loop,flow.Loop,6,2023-11-17T22:24:57.543Z,,,,,,,,,,,249551.76000009535,completion,,,,,,,,,,,,,,true,,,,,false,549340.6000000238,549340.4000000954,299771.994,299880.8000000715,299788.64,549255.153,1,40,,
stair_instructions,html.Screen,7,2023-11-17T22:25:05.454Z,,,,,,,,,,,7995.647000071476,response,,,,,,,,,,,,,,,,continue,click button,,,557251.3000000715,557250.8000000715,549238.839,549340.6000000238,549255.153,557172.053,,,,
trial,html.Screen,8_0_0,2023-11-17T22:25:12.247Z,,,,2,0.0065172941585523,-0.0118857043117315,,0.04,true,hh,6872.447000000044,response,0.8949188450526304,1.2,-1.2,0.9064772839637844,1.2,-1.2,high,high,,ISIC_6119202.JPG,,ISIC_0057067.JPG,359,false,0.4500000000000003,hh,keypress(i),0,true,564044.6000000238,564044.5,557155.152,557251.5,557172.053,563971.895,1,40,1,
sequence,flow.Sequence,8_0,2023-11-17T22:25:12.247Z,,,,,,,,,,,6872.447000000044,completion,,,,,,,high,high,,,,,,false,,,,,true,564044.7000000477,564044.5,557155.152,557251.5,557172.053,563971.895,1,40,,
trial,html.Screen,8_1_0,2023-11-17T22:25:20.455Z,,,,2,-0.0200295718112167,-0.0155559071275806,,0.04,false,lh,8280.305000047665,response,-0.8926515927689261,1.15,-1.15,0.7935960767768927,1.15,-1.15,low,high,,ISIC_0061343.JPG,,ISIC_8901371.JPG,26,false,0.40000000000000024,hh,keypress(i),0,true,572252.3000000715,572252.2000000477,563954.993,564044.7000000477,563971.895,572171.984,1,40,2,
sequence,flow.Sequence,8_1,2023-11-17T22:25:20.455Z,,,,,,,,,,,8280.305000047665,completion,,,,,,,low,high,,,,,,false,,,,,true,572252.4000000954,572252.2000000477,563954.993,564044.7000000477,563971.895,572171.984,1,40,,
trial,html.Screen,8_2_0,2023-11-17T22:25:24.838Z,,,,2,,0.0102871556606504,,0.04,true,ll,4463.9160000953125,response,-1.274417010249866,1.15,-1.15,-1.0725495669014795,0.8000366803703385,-1.15,low,low,,ISIC_1805163.JPG,,ISIC_8849004.JPG,27,false,0.14,ll,keypress(f),0,true,576636,576635.9000000954,572154.957,572252.5,572171.984,576555.149,1,40,3,
sequence,flow.Sequence,8_2,2023-11-17T22:25:24.838Z,,,,,,,,,,,4463.9160000953125,completion,,,,,,,low,low,,,,,,false,,,,,true,576636.1000000238,576635.9000000954,572154.957,572252.5,572171.984,576555.149,1,40,,
trial,html.Screen,8_3_0,2023-11-17T22:25:28.198Z,,,,2,-0.0258224118104549,0.0029364553353019,,0.04,false,lh,3440.451000023866,response,-1.0794043929240107,1.15,-1.15,0.6422352972056817,0.8000366803703385,-1.15,low,high,,ISIC_8325226.JPG,,ISIC_2106823.JPG,27,false,0.2400000000000001,ll,keypress(f),0,true,579995.8000000715,579995.6000000238,576538.533,576636.1000000238,576555.149,579922.023,1,40,4,
sequence,flow.Sequence,8_3,2023-11-17T22:25:28.198Z,,,,,,,,,,,3440.451000023866,completion,,,,,,,low,high,,,,,,false,,,,,true,579995.8000000715,579995.6000000238,576538.533,576636.1000000238,576555.149,579922.023,1,40,,
trial,html.Screen,8_4_0,2023-11-17T22:25:31.655Z,,,,2,0.039520186367207,0.0377961575607372,,0.04,false,ll,3530.277000071481,response,-1.0161855018674797,1.15,-1.025976979912745,-1.1331366334676347,0.8500366803703385,-1.15,low,low,,ISIC_6356149.JPG,,ISIC_3521671.JPG,28,false,0.13,hl,keypress(j),0,true,583452.4000000954,583452.3000000715,579905.466,579995.8000000715,579922.023,583371.843,1,40,5,
sequence,flow.Sequence,8_4,2023-11-17T22:25:31.655Z,,,,,,,,,,,3530.277000071481,completion,,,,,,,low,low,,,,,,false,,,,,true,583452.5,583452.3000000715,579905.466,579995.8000000715,579922.023,583371.843,1,40,,
trial,html.Screen,8_5_0,2023-11-17T22:25:35.031Z,,,,2,-0.0009714874637896,0.0174815595031679,,0.04,true,ll,3456.557000095374,response,-1.0733807306669467,1.15,-1.075976979912745,-0.9781766331161578,0.8500366803703385,-1.052843100184557,low,low,,ISIC_9848743.JPG,,ISIC_0032383.JPG,26,false,0.1,ll,keypress(f),0,true,586828.5,586828.4000000954,583355.047,583452.5,583371.843,586755.235,1,40,6,
sequence,flow.Sequence,8_5,2023-11-17T22:25:35.031Z,,,,,,,,,,,3456.557000095374,completion,,,,,,,low,low,,,,,,false,,,,,true,586828.5,586828.4000000954,583355.047,583452.5,583371.843,586755.235,1,40,,
trial,html.Screen,8_6_0,2023-11-17T22:25:38.407Z,,,,2,-0.0118382036798625,-0.0300588245877227,,0.04,false,lh,3449.365000023856,response,-1.2499674737468107,1.15,-1.075976979912745,0.7169661572441197,0.8500366803703385,-1.052843100184557,low,high,,ISIC_4748605.JPG,,ISIC_0013617.JPG,25,false,0.21000000000000008,ll,keypress(f),0,true,590204.7000000477,590204.6000000238,586738.41,586828.5,586755.235,590121.785,1,40,7,
sequence,flow.Sequence,8_6,2023-11-17T22:25:38.407Z,,,,,,,,,,,3449.365000023856,completion,,,,,,,low,high,,,,,,false,,,,,true,590204.8000000715,590204.6000000238,586738.41,586828.5,586755.235,590121.785,1,40,,
trial,html.Screen,8_7_0,2023-11-17T22:25:45.143Z,,,,2,-0.0257631352671967,-0.0202837002774028,,0.04,false,hl,6818.714999999967,response,1.0685314915436992,1.15,-1.0640720534314843,-0.8203833713472237,0.9000366803703386,-1.052843100184557,high,low,,ISIC_0032797.JPG,,ISIC_0029374.JPG,26,false,0.30000000000000016,ll,keypress(f),0,true,596940.5,596940.5,590105.062,590204.8000000715,590121.785,596855.066,1,40,8,
sequence,flow.Sequence,8_7,2023-11-17T22:25:45.143Z,,,,,,,,,,,6818.714999999967,completion,,,,,,,high,low,,,,,,false,,,,,true,596940.6000000238,596940.5,590105.062,590204.8000000715,590121.785,596855.066,1,40,,
trial,html.Screen,8_8_0,2023-11-17T22:25:48.615Z,,,,2,-0.0367706518941078,0.0161069838272154,,0.04,true,ll,3557.134000047692,response,-1.086808687078377,1.15,-1.0640720534314843,-0.8881204850517516,0.9000366803703386,-0.8492800022316906,low,low,,ISIC_0033419.JPG,,ISIC_4014307.JPG,28,false,0.1,ll,keypress(f),0,true,600412.4000000954,600412.2000000477,596838.45,596940.7000000477,596855.066,600338.618,1,40,9,
sequence,flow.Sequence,8_8,2023-11-17T22:25:48.615Z,,,,,,,,,,,3557.134000047692,completion,,,,,,,low,low,,,,,,false,,,,,true,600412.4000000954,600412.2000000477,596838.45,596940.7000000477,596855.066,600338.618,1,40,,
trial,html.Screen,8_9_0,2023-11-17T22:25:52.263Z,,,,2,-0.0286056110007553,-0.036125199756515,,0.04,false,lh,3721.482000023825,response,-0.8830264383952469,1.15,-1.0640720534314843,0.8635562538060516,0.9000366803703386,-0.8492800022316906,low,high,,ISIC_6535558.JPG,,ISIC_0032258.JPG,26,false,0.2300000000000001,ll,keypress(f),0,true,604060.2000000477,604060.1000000238,600322.176,600412.5,600338.618,603988.906,1,40,10,
sequence,flow.Sequence,8_9,2023-11-17T22:25:52.263Z,,,,,,,,,,,3721.482000023825,completion,,,,,,,low,high,,,,,,false,,,,,true,604060.3000000715,604060.1000000238,600322.176,600412.5,600338.618,603988.906,1,40,,
trial,html.Screen,8_10_0,2023-11-17T22:25:56.455Z,,,,2,-0.0308384937406319,0.0038396364323947,,0.04,false,lh,4263.094000000041,response,-0.6742481921837281,1.15,-0.8355734617234991,0.9118635731669033,0.9500366803703386,-0.8492800022316906,low,high,,ISIC_0029825.JPG,,ISIC_7961365.JPG,30,false,0.20000000000000007,hh,keypress(i),0,true,608252.1000000238,608252,603955.471,604060.3000000715,603988.906,608171.804,1,40,11,
sequence,flow.Sequence,8_10,2023-11-17T22:25:56.455Z,,,,,,,,,,,4263.094000000041,completion,,,,,,,low,high,,,,,,false,,,,,true,608252.3000000715,608252,603955.471,604060.3000000715,603988.906,608171.804,1,40,,
trial,html.Screen,8_11_0,2023-11-17T22:25:59.367Z,,,,2,,0.0102871556606504,,0.04,false,hl,2992.89600004768,response,0.9662688541319592,1.15,-0.8855734617234992,-0.929746784178986,0.9500366803703386,-0.8492800022316906,high,low,,ISIC_1805163.JPG,,ISIC_0011077.JPG,28,false,0.2400000000000001,hh,keypress(i),0,true,611164.8000000715,611164.7000000477,608155.216,608252.3000000715,608171.804,611088.9,1,40,12,
sequence,flow.Sequence,8_11,2023-11-17T22:25:59.367Z,,,,,,,,,,,2992.89600004768,completion,,,,,,,high,low,,,,,,false,,,,,true,611164.9000000954,611164.7000000477,608155.216,608252.3000000715,608171.804,611088.9,1,40,,
trial,html.Screen,8_12_0,2023-11-17T22:26:04.934Z,,,,2,-0.0044063257337227,-0.0172548282859886,,0.04,true,hl,5642.599999999977,response,1.0099417584598938,1.15,-0.8855734617234992,-0.6898515052486707,0.9500366803703386,-0.8992800022316907,high,low,,ISIC_7413786.JPG,,ISIC_8929288.JPG,27,false,0.2500000000000001,hl,keypress(j),0,true,616731.7000000477,616731.5,611071.743,611164.9000000954,611088.9,616655.234,1,40,13,
sequence,flow.Sequence,8_12,2023-11-17T22:26:04.934Z,,,,,,,,,,,5642.599999999977,completion,,,,,,,high,low,,,,,,false,,,,,true,616731.8000000715,616731.5,611071.743,611164.9000000954,611088.9,616655.234,1,40,,
trial,html.Screen,8_13_0,2023-11-17T22:26:09.558Z,,,,2,-0.0220026381002083,0.0170756452911772,,0.04,true,ll,4700.566000071471,response,-0.8372379817368715,1.0999999999999999,-0.8855734617234992,-0.8148867547702584,0.9500366803703386,-0.8992800022316907,low,low,,ISIC_5347806.JPG,,ISIC_0024277.JPG,43,false,0.1,ll,keypress(f),0,true,621355.9000000954,621355.8000000715,616638.585,616731.8000000715,616655.234,621271.812,1,40,14,
sequence,flow.Sequence,8_13,2023-11-17T22:26:09.558Z,,,,,,,,,,,4700.566000071471,completion,,,,,,,low,low,,,,,,false,,,,,true,621356,621355.8000000715,616638.585,616731.8000000715,616655.234,621271.812,1,40,,
trial,html.Screen,8_14_0,2023-11-17T22:26:13.238Z,,,,2,-0.0220026381002083,0.0170756452911772,,0.04,true,hh,3764.088000095333,response,1.10562749024409,1.0999999999999999,-0.8855734617234992,0.9001696721297474,0.9500366803703386,-0.7760623682535649,high,high,,ISIC_5347806.JPG,,ISIC_0072748.JPG,30,false,0.11,hh,keypress(i),0,true,625036.1000000238,625035.9000000954,621255.431,621356.1000000238,621271.812,624955.064,1,40,15,
sequence,flow.Sequence,8_14,2023-11-17T22:26:13.239Z,,,,,,,,,,,3764.088000095333,completion,,,,,,,high,high,,,,,,false,,,,,true,625036.2000000477,625035.9000000954,621255.431,621356.1000000238,621271.812,624955.064,1,40,,
trial,html.Screen,8_15_0,2023-11-17T22:26:20.391Z,,,,2,0.0074667911845194,-0.018500200317654,,0.04,false,lh,7233.2360000715125,response,-0.7246771568562105,1.0999999999999999,-0.8855734617234992,0.9161385080362604,0.9528985811869186,-0.7760623682535649,low,high,,ISIC_0058723.JPG,,ISIC_0028225.JPG,27,false,0.20000000000000007,hh,keypress(i),0,true,632188.4000000954,632188.3000000715,624938.424,625036.2000000477,624955.064,632105.073,1,40,16,
sequence,flow.Sequence,8_15,2023-11-17T22:26:20.391Z,,,,,,,,,,,7233.2360000715125,completion,,,,,,,low,high,,,,,,false,,,,,true,632188.5,632188.3000000715,624938.424,625036.2000000477,624955.064,632105.073,1,40,,
trial,html.Screen,8_16_0,2023-11-17T22:26:27.063Z,,,,2,-0.0257631352671967,-0.0202837002774028,,0.04,true,ll,6755.227000071551,response,-0.91068804821478,1.0999999999999999,-0.9355734617234992,-0.6956088352169885,0.9528985811869186,-0.7760623682535649,low,low,,ISIC_0032797.JPG,,ISIC_0553932.JPG,46,false,0.1,ll,keypress(f),0,true,638860.4000000954,638860.3000000715,632088.731,632188.6000000238,632105.073,638788.891,1,40,17,
sequence,flow.Sequence,8_16,2023-11-17T22:26:27.063Z,,,,,,,,,,,6755.227000071551,completion,,,,,,,low,low,,,,,,false,,,,,true,638860.6000000238,638860.3000000715,632088.731,632188.5,632105.073,638788.891,1,40,,
trial,html.Screen,8_17_0,2023-11-17T22:26:29.927Z,,,,2,-0.0308384937406319,0.0038396364323947,,0.04,true,hh,2935.4090000715805,response,1.0980226451001782,1.0999999999999999,-0.9355734617234992,0.9421419207281913,0.9528985811869186,-0.7760623682535649,high,high,,ISIC_0029825.JPG,,ISIC_0060481.JPG,30,false,0.11,hh,keypress(i),0,true,641724.3000000715,641724.3000000715,638771.986,638860.6000000238,638788.891,641638.418,1,40,18,
sequence,flow.Sequence,8_17,2023-11-17T22:26:29.927Z,,,,,,,,,,,2935.4090000715805,completion,,,,,,,high,high,,,,,,false,,,,,true,641724.5,641724.3000000715,638771.986,638860.6000000238,638788.891,641638.418,1,40,,
trial,html.Screen,8_18_0,2023-11-17T22:26:34.630Z,,,,2,0.0241900387072296,-0.0339955304424736,,0.04,false,hl,4789.382000071579,response,0.9198276163642348,1.0499999999999998,-0.9355734617234992,-0.7754915110667046,0.9028985811869186,-0.7760623682535649,high,low,,ISIC_0010789.JPG,,ISIC_7840728.JPG,28,false,0.20000000000000007,ll,keypress(f),0,true,646427.8000000715,646427.8000000715,641621.692,641724.5,641638.418,646355.087,1,40,19,
sequence,flow.Sequence,8_18,2023-11-17T22:26:34.630Z,,,,,,,,,,,4789.382000071579,completion,,,,,,,high,low,,,,,,false,,,,,true,646428,646427.8000000715,641621.692,641724.5,641638.418,646355.087,1,40,,
trial,html.Screen,8_19_0,2023-11-17T22:26:40.695Z,,,,2,-0.0118382036798625,-0.0300588245877227,,0.04,true,ll,6137.013000023784,response,-0.8692576729104817,1.0999999999999999,-0.9355734617234992,-0.7554562761747954,0.9028985811869186,-0.6855501731418465,low,low,,ISIC_4748605.JPG,,ISIC_6963954.JPG,68,false,0.1,ll,keypress(f),0,true,652492.3000000715,652492.1000000238,646338.722,646428.1000000238,646355.087,652405.07,1,40,20,
sequence,flow.Sequence,8_19,2023-11-17T22:26:40.695Z,,,,,,,,,,,6137.013000023784,completion,,,,,,,low,low,,,,,,false,,,,,true,652492.4000000954,652492.1000000238,646338.722,646428,646355.087,652405.07,1,40,,
trial,html.Screen,8_20_0,2023-11-17T22:26:44.758Z,,,,2,-0.0308384937406319,0.0038396364323947,,0.04,false,lh,4150.530000023893,response,-0.7010101889216934,1.0999999999999999,-0.7623569745426385,0.9022783418178474,0.9028985811869186,-0.6855501731418465,low,high,,ISIC_0029825.JPG,,ISIC_0057858.JPG,26,false,0.15000000000000002,ll,keypress(f),0,true,656555.7000000477,656555.6000000238,652388.688,652492.4000000954,652405.07,656471.698,1,40,21,
sequence,flow.Sequence,8_20,2023-11-17T22:26:44.758Z,,,,,,,,,,,4150.530000023893,completion,,,,,,,low,high,,,,,,false,,,,,true,656555.9000000954,656555.6000000238,652388.688,652492.4000000954,652405.07,656471.698,1,40,,
trial,html.Screen,8_21_0,2023-11-17T22:26:50.615Z,,,,2,-0.0118382036798625,-0.0300588245877227,,0.04,false,lh,5940.602000071551,response,-0.7088606387153258,1.0999999999999999,-0.7623569745426385,0.948610930521224,0.9528985811869186,-0.6855501731418465,low,high,,ISIC_4748605.JPG,,ISIC_0026293.JPG,25,false,0.16000000000000003,ll,keypress(f),0,true,662412.4000000954,662412.3000000715,656455.446,656555.9000000954,656471.698,662338.866,1,40,22,
sequence,flow.Sequence,8_21,2023-11-17T22:26:50.615Z,,,,,,,,,,,5940.602000071551,completion,,,,,,,low,high,,,,,,false,,,,,true,662412.5,662412.3000000715,656455.446,656555.9000000954,656471.698,662338.866,1,40,,
trial,html.Screen,8_22_0,2023-11-17T22:26:54.647Z,,,,2,-0.0257631352671967,-0.0202837002774028,,0.04,true,ll,4105.234000023804,response,-0.6911444680241884,1.0999999999999999,-0.6549354138185095,-0.7007362209362324,1.0028985811869187,-0.6855501731418465,low,low,,ISIC_0032797.JPG,,ISIC_4314089.JPG,100,false,0.1,ll,keypress(f),0,true,666444.3000000715,666444.1000000238,662321.6,662412.5,662338.866,666372.197,1,40,23,
sequence,flow.Sequence,8_22,2023-11-17T22:26:54.647Z,,,,,,,,,,,4105.234000023804,completion,,,,,,,low,low,,,,,,false,,,,,true,666444.3000000715,666444.1000000238,662321.6,662412.5,662338.866,666372.197,1,40,,
trial,html.Screen,8_23_0,2023-11-17T22:26:58.135Z,,,,2,0.0198696495649504,-0.0387952353063878,,0.04,false,hl,3560.103000071482,response,0.9565629442340552,1.0999999999999999,-0.6549354138185095,-0.5322247596510017,1.0028985811869187,-0.6459403444802103,high,low,,ISIC_6735970.JPG,,ISIC_2724278.JPG,26,false,0.18000000000000005,lh,keypress(e),0,true,669932.4000000954,669932.3000000715,666354.939,666444.3000000715,666372.197,669855.495,1,40,24,
sequence,flow.Sequence,8_23,2023-11-17T22:26:58.135Z,,,,,,,,,,,3560.103000071482,completion,,,,,,,high,low,,,,,,false,,,,,true,669932.5,669932.3000000715,666354.939,666444.3000000715,666372.197,669855.495,1,40,,
trial,html.Screen,8_24_0,2023-11-17T22:27:03.974Z,,,,2,-0.0257631352671967,-0.0202837002774028,,0.04,false,hl,5916.405000095372,response,1.058869971132651,1.15,-0.6549354138185095,-0.4860366489629258,1.0028985811869187,-0.6959403444802104,high,low,,ISIC_0032797.JPG,,ISIC_3009877.JPG,28,false,0.21000000000000008,hh,keypress(i),0,true,675771.9000000954,675771.9000000954,669838.63,669932.5,669855.495,675688.416,1,40,25,
sequence,flow.Sequence,8_24,2023-11-17T22:27:03.975Z,,,,,,,,,,,5916.405000095372,completion,,,,,,,high,low,,,,,,false,,,,,true,675772.1000000238,675771.9000000954,669838.63,669932.5,669855.495,675688.416,1,40,,
trial,html.Screen,8_25_0,2023-11-17T22:27:07.031Z,,,,2,0.039520186367207,0.0377961575607372,,0.04,false,hh,3139.6840000238735,response,1.068995482830036,1.15,-0.6549354138185095,1.02189095692261,1.0028985811869187,-0.7459403444802104,high,high,,ISIC_6356149.JPG,,ISIC_0046405.JPG,34,false,0.11,lh,keypress(e),0,true,678828.2000000477,678828.1000000238,675671.752,675772.1000000238,675688.416,678755.21,1,40,26,
sequence,flow.Sequence,8_25,2023-11-17T22:27:07.031Z,,,,,,,,,,,3139.6840000238735,completion,,,,,,,high,high,,,,,,false,,,,,true,678828.3000000715,678828.1000000238,675671.752,675772.1000000238,675688.416,678755.21,1,40,,
trial,html.Screen,8_26_0,2023-11-17T22:27:12.503Z,,,,2,-0.0118382036798625,-0.0300588245877227,,0.04,false,hh,5545.290000000037,response,1.068995482830036,1.15,-0.6549354138185095,1.02189095692261,1.0028985811869187,-0.7459403444802104,high,high,,ISIC_4748605.JPG,,ISIC_0046405.JPG,34,false,0.11,lh,keypress(e),0,true,684300.6000000238,684300.5,678738.314,678828.4000000954,678755.21,684221.789,1,40,27,
sequence,flow.Sequence,8_26,2023-11-17T22:27:12.503Z,,,,,,,,,,,5545.290000000037,completion,,,,,,,high,high,,,,,,false,,,,,true,684300.7000000477,684300.5,678738.314,678828.3000000715,678755.21,684221.789,1,40,,
trial,html.Screen,8_27_0,2023-11-17T22:27:17.367Z,,,,2,0.0388181790775959,-0.0049623405709465,,0.04,false,hl,4942.511000071536,response,1.32845627319459,1.15,-0.6549354138185095,-0.6826298758999687,0.97189095692261,-0.7459403444802104,high,low,,ISIC_0061880.JPG,,ISIC_3026660.JPG,27,false,0.22000000000000008,ll,keypress(f),0,true,689164.4000000954,689164.3000000715,684205.35,684300.8000000715,684221.789,689088.867,1,40,28,
sequence,flow.Sequence,8_27,2023-11-17T22:27:17.367Z,,,,,,,,,,,4942.511000071536,completion,,,,,,,high,low,,,,,,false,,,,,true,689164.5,689164.3000000715,684205.35,684300.8000000715,684221.789,689088.867,1,40,,
trial,html.Screen,8_28_0,2023-11-17T22:27:23.703Z,,,,2,0.001445457736793,0.0165307427449982,,0.04,true,ll,6411.433000071556,response,-0.6808221552262974,1.15,-0.6549354138185095,-0.8328447549795016,0.97189095692261,-0.7459403444802104,low,low,,ISIC_0027350.JPG,,ISIC_9104843.JPG,89,false,0.1,ll,keypress(f),0,true,695500.4000000954,695500.3000000715,689071.739,689164.5,689088.867,695421.828,1,40,29,
sequence,flow.Sequence,8_28,2023-11-17T22:27:23.703Z,,,,,,,,,,,6411.433000071556,completion,,,,,,,low,low,,,,,,false,,,,,true,695500.5,695500.3000000715,689071.739,689164.5,689088.867,695421.828,1,40,,
trial,html.Screen,8_29_0,2023-11-17T22:27:28.375Z,,,,2,0.0088741920055285,0.0058246074740588,,0.04,true,hh,4750.1720000000205,response,1.1209497725708388,1.15,-0.7077373154397351,0.9895687497294692,0.97189095692261,-0.7077373154397351,high,high,,ISIC_4136663.JPG,,ISIC_0027751.JPG,27,false,0.11,hh,keypress(i),0,true,700172.1000000238,700172,695405.159,695500.6000000238,695421.828,700088.405,1,40,30,
sequence,flow.Sequence,8_29,2023-11-17T22:27:28.375Z,,,,,,,,,,,4750.1720000000205,completion,,,,,,,high,high,,,,,,false,,,,,true,700172.2000000477,700172,695405.159,695500.6000000238,695421.828,700088.405,1,40,,
trial,html.Screen,8_30_0,2023-11-17T22:27:32.407Z,,,,2,0.0074667911845194,-0.018500200317654,,0.04,false,lh,4115.795000047656,response,-0.5528762917468766,1.15,-0.7077373154397351,0.8525663902421611,0.97189095692261,-0.7077373154397351,low,high,,ISIC_0058723.JPG,,ISIC_0054244.JPG,27,false,0.16000000000000003,hl,keypress(j),0,true,704204.2000000477,704204.2000000477,700071.801,700172.2000000477,700088.405,704121.761,1,40,31,
sequence,flow.Sequence,8_30,2023-11-17T22:27:32.407Z,,,,,,,,,,,4115.795000047656,completion,,,,,,,low,high,,,,,,false,,,,,true,704204.3000000715,704204.2000000477,700071.801,700172.2000000477,700088.405,704121.761,1,40,,
trial,html.Screen,8_31_0,2023-11-17T22:27:36.215Z,,,,2,-0.0200295718112167,-0.0155559071275806,,0.04,false,hl,3890.5390000714688,response,1.075325928880211,1.15,-0.7577373154397351,-0.4901701368691577,1.02189095692261,-0.7077373154397351,high,low,,ISIC_0061343.JPG,,ISIC_0062301.JPG,30,false,0.22000000000000008,lh,keypress(e),0,true,708012.5,708012.3000000715,704105.208,704204.4000000954,704121.761,707938.614,1,40,32,
sequence,flow.Sequence,8_31,2023-11-17T22:27:36.215Z,,,,,,,,,,,3890.5390000714688,completion,,,,,,,high,low,,,,,,false,,,,,true,708012.5,708012.3000000715,704105.208,704204.4000000954,704121.761,707938.614,1,40,,
trial,html.Screen,8_32_0,2023-11-17T22:27:42.663Z,,,,2,0.0199950873045219,0.0172506388509166,,0.04,true,hl,6521.686000071582,response,0.9762052952069274,1.15,-0.7577373154397351,-0.5466893998883133,1.02189095692261,-0.7577373154397351,high,low,,ISIC_0029906.JPG,,ISIC_0063742.JPG,25,false,0.22000000000000008,hl,keypress(j),0,true,714460.3000000715,714460.3000000715,707921.632,708012.5,707938.614,714388.843,1,40,33,
sequence,flow.Sequence,8_32,2023-11-17T22:27:42.663Z,,,,,,,,,,,6521.686000071582,completion,,,,,,,high,low,,,,,,false,,,,,true,714460.5,714460.3000000715,707921.632,708012.5,707938.614,714388.843,1,40,,
trial,html.Screen,8_33_0,2023-11-17T22:27:50.839Z,,,,2,0.0388334549081915,-0.0303399972963369,,0.04,false,ll,8247.157000000007,response,-0.8443539935286377,1.15,-0.7577373154397351,-0.8083712509772605,1.02189095692261,-0.7577373154397351,low,low,,ISIC_4961708.JPG,,ISIC_1072321.JPG,72,false,0.1,lh,keypress(e),0,true,722636.1000000238,722636,714371.961,714460.6000000238,714388.843,722555.184,1,40,34,
sequence,flow.Sequence,8_33,2023-11-17T22:27:50.839Z,,,,,,,,,,,8247.157000000007,completion,,,,,,,low,low,,,,,,false,,,,,true,722636.2000000477,722636,714371.961,714460.5,714388.843,722555.184,1,40,,
trial,html.Screen,8_34_0,2023-11-17T22:27:53.734Z,,,,2,0.039520186367207,0.0377961575607372,,0.04,true,hh,2976.3159999999916,response,1.222688159093534,1.15,-0.7577373154397351,0.9354544789236824,1.02189095692261,-0.8077373154397351,high,high,,ISIC_6356149.JPG,,ISIC_0072175.JPG,26,false,0.1,hh,keypress(i),0,true,725531.6000000238,725531.5,722538.464,722636.3000000715,722555.184,725455.203,1,40,35,
sequence,flow.Sequence,8_34,2023-11-17T22:27:53.734Z,,,,,,,,,,,2976.3159999999916,completion,,,,,,,high,high,,,,,,false,,,,,true,725531.7000000477,725531.5,722538.464,722636.3000000715,722555.184,725455.203,1,40,,
trial,html.Screen,8_35_0,2023-11-17T22:27:58.711Z,,,,2,0.0074667911845194,-0.018500200317654,,0.04,true,hh,5053.2970000000205,response,1.068995482830036,1.029071319008608,-0.7577373154397351,1.02189095692261,1.02189095692261,-0.8077373154397351,high,high,,ISIC_0058723.JPG,,ISIC_0046405.JPG,41,false,0.1,hh,keypress(i),0,true,730508.6000000238,730508.5,725438.777,725531.7000000477,725455.203,730421.722,1,40,36,
sequence,flow.Sequence,8_35,2023-11-17T22:27:58.711Z,,,,,,,,,,,5053.2970000000205,completion,,,,,,,high,high,,,,,,false,,,,,true,730508.7000000477,730508.5,725438.777,725531.7000000477,725455.203,730421.722,1,40,,
trial,html.Screen,8_36_0,2023-11-17T22:28:01.527Z,,,,2,-0.0308384937406319,0.0038396364323947,,0.04,false,lh,2902.678000095417,response,-0.8830264383952469,1.029071319008608,-0.7577373154397351,0.8635562538060516,0.995443219876323,-0.8077373154397351,low,high,,ISIC_0029825.JPG,,ISIC_0032258.JPG,26,false,0.18000000000000005,hh,keypress(i),0,true,733324.5,733324.4000000954,730405.37,730508.7000000477,730421.722,733238.325,1,40,37,
sequence,flow.Sequence,8_36,2023-11-17T22:28:01.527Z,,,,,,,,,,,2902.678000095417,completion,,,,,,,low,high,,,,,,false,,,,,true,733324.6000000238,733324.4000000954,730405.37,730508.7000000477,730421.722,733238.325,1,40,,
trial,html.Screen,8_37_0,2023-11-17T22:28:08.375Z,,,,2,0.0241900387072296,-0.0339955304424736,,0.04,true,hl,6933.575000095414,response,0.8544507134472948,1.029071319008608,-0.8077373154397351,-0.9244388608707323,0.995443219876323,-0.8077373154397351,high,low,,ISIC_0010789.JPG,,ISIC_3565564.JPG,26,false,0.19000000000000006,hl,keypress(j),0,true,740172,740171.9000000954,733221.922,733324.7000000477,733238.325,740088.343,1,40,38,
sequence,flow.Sequence,8_37,2023-11-17T22:28:08.375Z,,,,,,,,,,,6933.575000095414,completion,,,,,,,high,low,,,,,,false,,,,,true,740172.1000000238,740171.9000000954,733221.922,733324.7000000477,733238.325,740088.343,1,40,,
trial,html.Screen,8_38_0,2023-11-17T22:28:10.631Z,,,,2,-0.0220026381002083,0.0170756452911772,,0.04,true,hh,2339.457000071532,response,0.944391889009556,0.979071319008608,-0.8077373154397351,1.0361692964751965,0.995443219876323,-0.8077373154397351,high,high,,ISIC_5347806.JPG,,ISIC_0058676.JPG,39,false,0.1,hh,keypress(i),0,true,742427.9000000954,742427.8000000715,740071.919,740172.1000000238,740088.343,742355.014,1,40,39,
sequence,flow.Sequence,8_38,2023-11-17T22:28:10.631Z,,,,,,,,,,,2339.457000071532,completion,,,,,,,high,high,,,,,,false,,,,,true,742428,742427.8000000715,740071.919,740172.1000000238,740088.343,742355.014,1,40,,
trial,html.Screen,8_39_0,2023-11-17T22:28:15.799Z,,,,2,-0.0308384937406319,0.0038396364323947,,0.04,true,hh,5240.886000095401,response,0.8795523971208432,0.979071319008608,-0.8077373154397351,1.035069030839197,0.9402805927423762,-0.8077373154397351,high,high,,ISIC_0029825.JPG,,ISIC_0069635.JPG,36,false,0.1,hh,keypress(i),0,true,747596,747595.9000000954,742338.793,742428,742355.014,747521.813,1,40,40,
sequence,flow.Sequence,8_39,2023-11-17T22:28:15.799Z,,,,,,,,,,,5240.886000095401,completion,,,,,,,high,high,,,,,,false,,,,,true,747596.2000000477,747595.9000000954,742338.793,742428,742355.014,747521.813,1,40,,
stair_loop,flow.Loop,8,2023-11-17T22:28:15.799Z,,,,,,,,,,,190423.8470000954,completion,,,,,,,,,,,,,,false,,,,,true,747596.3000000715,747595.9000000954,557155.152,557251.4000000954,557172.053,747521.813,1,40,,
exp_instructions,html.Screen,9,2023-11-17T22:28:26.534Z,,,,,,,,,,,10809.387000047718,response,,,,,,,,,,,,,,,,continue,keypress(Space),,,758331.7000000477,758331.2000000477,747505.137,747596.3000000715,747521.813,758255.159,,,,
trial,html.Screen,10_0_0,2023-11-17T22:28:36.263Z,,,,1,0.0388181790775959,-0.0049623405709465,,0.04,true,lh,9804.741000095382,response,-0.8513427412482127,1.104767829752152,-0.7247186157825963,0.9295303568095064,0.989695946649163,-0.7433701528071941,low,high,,ISIC_0061880.JPG,8,ISIC_0034164.JPG,25,false,0.16000000000000003,lh,keypress(e),0,false,768060,768059.9000000954,758237.989,758331.9000000954,758255.159,767988.786,4,500,1,
break,html.Screen,10_0_1,2023-11-17T22:28:36.263Z,,,,,,,,,,,NaN,,,,,,,,low,high,,,,,,false,,,,,false,768060.3000000715,768060.2000000477,,768060.1000000238,,767988.786,4,500,,
break_continue,html.Screen,10_0_2,2023-11-17T22:28:36.263Z,,,,,,,,,,,NaN,,,,,,,,low,high,,,,,,false,,,,,false,768060.6000000238,768060.5,,768060.4000000954,,767988.786,4,500,,
sequence,flow.Sequence,10_0,2023-11-17T22:28:36.263Z,,,,,,,,,,,9805.341000000015,completion,,,,,,,low,high,,,,,,false,,,,,false,768060.7000000477,768060.5,758237.989,758331.9000000954,758255.159,767988.786,4,500,,
trial,html.Screen,10_1_0,2023-11-17T22:28:44.391Z,,,,1,-0.0367744112927588,-0.0324865661712824,,0.04,true,ll,8199.214000000036,response,-0.8115434332647807,1.104767829752152,-0.7247186157825963,-0.7797153835685641,0.989695946649163,-0.7433701528071941,low,low,,ISIC_4523565.JPG,8,ISIC_7300631.JPG,80,false,0.1,ll,keypress(f),0,false,776188.2000000477,776188,767955.165,768060.7000000477,767988.786,776105.138,4,500,2,
break,html.Screen,10_1_1,2023-11-17T22:28:44.391Z,,,,,,,,,,,NaN,,,,,,,,low,low,,,,,,false,,,,,false,776188.5,776188.3000000715,,776188.3000000715,,776105.138,4,500,,
break_continue,html.Screen,10_1_2,2023-11-17T22:28:44.391Z,,,,,,,,,,,NaN,,,,,,,,low,low,,,,,,false,,,,,false,776188.7000000477,776188.6000000238,,776188.5,,776105.138,4,500,,
sequence,flow.Sequence,10_1,2023-11-17T22:28:44.391Z,,,,,,,,,,,8199.814000023878,completion,,,,,,,low,low,,,,,,false,,,,,false,776188.8000000715,776188.6000000238,767955.165,768060.7000000477,767988.786,776105.138,4,500,,
trial,html.Screen,10_2_0,2023-11-17T22:28:49.575Z,,,,1,0.0074667911845194,-0.018500200317654,,0.04,true,ll,5266.66200007149,response,-0.7303022273735517,1.104767829752152,-0.7247186157825963,-0.7676979481938448,0.989695946649163,-0.7433701528071941,low,low,,ISIC_0058723.JPG,9,ISIC_4911407.JPG,80,false,0.1,ll,keypress(f),0,false,781371.9000000954,781371.8000000715,776088.077,776188.8000000715,776105.138,781288.357,4,500,3,
break,html.Screen,10_2_1,2023-11-17T22:28:49.575Z,,,,,,,,,,,NaN,,,,,,,,low,low,,,,,,false,,,,,false,781372.3000000715,781372.1000000238,,781372,,781288.357,4,500,,
break_continue,html.Screen,10_2_2,2023-11-17T22:28:49.575Z,,,,,,,,,,,NaN,,,,,,,,low,low,,,,,,false,,,,,false,781372.4000000954,781372.3000000715,,781372.3000000715,,781288.357,4,500,,
sequence,flow.Sequence,10_2,2023-11-17T22:28:49.575Z,,,,,,,,,,,5267.16200007149,completion,,,,,,,low,low,,,,,,false,,,,,false,781372.5,781372.3000000715,776088.077,776188.8000000715,776105.138,781288.357,4,500,,
trial,html.Screen,10_3_0,2023-11-17T22:28:53.511Z,,,,1,-0.0367706518941078,0.0161069838272154,,0.04,true,ll,4019.64300000004,response,-0.7363318058631337,1.104767829752152,-0.7247186157825963,-0.8050194498162477,0.989695946649163,-0.7433701528071941,low,low,,ISIC_0033419.JPG,9,ISIC_3394080.JPG,80,false,0.1,ll,keypress(f),0,false,785308.1000000238,785308,781271.948,781372.5,781288.357,785221.625,4,500,4,
break,html.Screen,10_3_1,2023-11-17T22:28:53.511Z,,,,,,,,,,,NaN,,,,,,,,low,low,,,,,,false,,,,,false,785308.4000000954,785308.3000000715,,785308.2000000477,,785221.625,4,500,,
break_continue,html.Screen,10_3_2,2023-11-17T22:28:53.511Z,,,,,,,,,,,NaN,,,,,,,,low,low,,,,,,false,,,,,false,785308.6000000238,785308.5,,785308.4000000954,,785221.625,4,500,,
sequence,flow.Sequence,10_3,2023-11-17T22:28:53.511Z,,,,,,,,,,,4020.14300000004,completion,,,,,,,low,low,,,,,,false,,,,,false,785308.6000000238,785308.5,781271.948,781372.5,781288.357,785221.625,4,500,,
trial,html.Screen,10_4_0,2023-11-17T22:28:56.807Z,,,,1,0.0065172941585523,-0.0118857043117315,,0.04,true,ll,3382.375,response,-0.6928143790408391,1.104767829752152,-0.7247186157825963,-0.7711236278748214,0.989695946649163,-0.7433701528071941,low,low,,ISIC_6119202.JPG,9,ISIC_8025644.JPG,80,false,0.1,ll,keypress(f),0,false,788604,788604,785205.325,785308.7000000477,785221.625,788521.807,4,500,5,
break,html.Screen,10_4_1,2023-11-17T22:28:56.807Z,,,,,,,,,,,NaN,,,,,,,,low,low,,,,,,false,,,,,false,788604.4000000954,788604.3000000715,,788604.1000000238,,788521.807,4,500,,
break_continue,html.Screen,10_4_2,2023-11-17T22:28:56.807Z,,,,,,,,,,,NaN,,,,,,,,low,low,,,,,,false,,,,,false,788604.6000000238,788604.5,,788604.4000000954,,788521.807,4,500,,
sequence,flow.Sequence,10_4,2023-11-17T22:28:56.807Z,,,,,,,,,,,3382.875,completion,,,,,,,low,low,,,,,,false,,,,,false,788604.6000000238,788604.5,785205.325,785308.6000000238,785221.625,788521.807,4,500,,
trial,html.Screen,10_5_0,2023-11-17T22:29:01.319Z,,,,1,0.0088741920055285,0.0058246074740588,,0.04,false,ll,4593.993000071496,response,-0.6982740827464552,1.104767829752152,-0.7247186157825963,-0.8216739022531053,0.989695946649163,-0.7433701528071941,low,low,,ISIC_4136663.JPG,9,ISIC_0002745.JPG,80,false,0.1,lh,keypress(e),0,false,793115.9000000954,793115.8000000715,788505.351,788604.7000000477,788521.807,793038.782,4,500,6,
break,html.Screen,10_5_1,2023-11-17T22:29:01.319Z,,,,,,,,,,,NaN,,,,,,,,low,low,,,,,,false,,,,,false,793116.2000000477,793116.2000000477,,793115.9000000954,,793038.782,4,500,,
break_continue,html.Screen,10_5_2,2023-11-17T22:29:01.319Z,,,,,,,,,,,NaN,,,,,,,,low,low,,,,,,false,,,,,false,793116.5,793116.3000000715,,793116.2000000477,,793038.782,4,500,,
sequence,flow.Sequence,10_5,2023-11-17T22:29:01.319Z,,,,,,,,,,,4594.493000071496,completion,,,,,,,low,low,,,,,,false,,,,,false,793116.5,793116.3000000715,788505.351,788604.6000000238,788521.807,793038.782,4,500,,
trial,html.Screen,10_6_0,2023-11-17T22:29:05.591Z,,,,1,-0.0367744112927588,-0.0324865661712824,,0.04,false,hh,4349.2179999999935,response,1.0437879361189135,1.104767829752152,-0.7247186157825963,1.0467954238943018,0.989695946649163,-0.7433701528071941,high,high,,ISIC_4523565.JPG,9,ISIC_0011626.JPG,29,false,0.1,lh,keypress(e),0,false,797388.1000000238,797388,793021.601,793116.5,793038.782,797305.004,4,500,7,
break,html.Screen,10_6_1,2023-11-17T22:29:05.591Z,,,,,,,,,,,NaN,,,,,,,,high,high,,,,,,false,,,,,false,797388.4000000954,797388.4000000954,,797388.3000000715,,797305.004,4,500,,
break_continue,html.Screen,10_6_2,2023-11-17T22:29:05.591Z,,,,,,,,,,,NaN,,,,,,,,high,high,,,,,,false,,,,,false,797388.6000000238,797388.5,,797388.5,,797305.004,4,500,,
sequence,flow.Sequence,10_6,2023-11-17T22:29:05.591Z,,,,,,,,,,,4349.7179999999935,completion,,,,,,,high,high,,,,,,false,,,,,false,797388.8000000715,797388.5,793021.601,793116.5,793038.782,797305.004,4,500,,
trial,html.Screen,10_7_0,2023-11-17T22:29:09.351Z,,,,1,0.001445457736793,0.0165307427449982,,0.04,true,hl,3843.1960000477266,response,0.9145057080927842,1.104767829752152,-0.7247186157825963,-0.657848806080734,0.989695946649163,-0.7433701528071941,high,low,,ISIC_0027350.JPG,9,ISIC_0014308.JPG,27,false,0.20000000000000007,hl,keypress(j),0,false,801148.3000000715,801148.2000000477,797288.293,797388.8000000715,797305.004,801072.124,4,500,8,
break,html.Screen,10_7_1,2023-11-17T22:29:09.351Z,,,,,,,,,,,NaN,,,,,,,,high,low,,,,,,false,,,,,false,801148.5,801148.5,,801148.4000000954,,801072.124,4,500,,
break_continue,html.Screen,10_7_2,2023-11-17T22:29:09.352Z,,,,,,,,,,,NaN,,,,,,,,high,low,,,,,,false,,,,,false,801148.8000000715,801148.7000000477,,801148.6000000238,,801072.124,4,500,,
sequence,flow.Sequence,10_7,2023-11-17T22:29:09.352Z,,,,,,,,,,,3843.6960000477266,completion,,,,,,,high,low,,,,,,false,,,,,false,801148.8000000715,801148.7000000477,797288.293,797388.8000000715,797305.004,801072.124,4,500,,
trial,html.Screen,10_8_0,2023-11-17T22:29:12.647Z,,,,1,-0.0286056110007553,-0.036125199756515,,0.04,false,lh,3372.076000047731,response,-0.6847356212299776,1.104767829752152,-0.7247186157825963,0.8347403229058601,0.989695946649163,-0.7433701528071941,low,high,,ISIC_6535558.JPG,9,ISIC_0064517.JPG,25,false,0.16000000000000003,hl,keypress(j),0,false,804444.3000000715,804444.2000000477,801055.33,801148.9000000954,801072.124,804371.632,4,500,9,
break,html.Screen,10_8_1,2023-11-17T22:29:12.647Z,,,,,,,,,,,NaN,,,,,,,,low,high,,,,,,false,,,,,false,804444.5,804444.4000000954,,804444.3000000715,,804371.632,4,500,,
break_continue,html.Screen,10_8_2,2023-11-17T22:29:12.647Z,,,,,,,,,,,NaN,,,,,,,,low,high,,,,,,false,,,,,false,804444.8000000715,804444.6000000238,,804444.5,,804371.632,4,500,,
sequence,flow.Sequence,10_8,2023-11-17T22:29:12.648Z,,,,,,,,,,,3372.4760000238894,completion,,,,,,,low,high,,,,,,false,,,,,false,804444.8000000715,804444.6000000238,801055.33,801148.9000000954,801072.124,804371.632,4,500,,
trial,html.Screen,10_9_0,2023-11-17T22:29:15.975Z,,,,1,-0.0257631352671967,-0.0202837002774028,,0.04,false,hh,3400.1680000715423,response,1.0394767720056428,1.104767829752152,-0.7247186157825963,0.9642448420571276,0.989695946649163,-0.7433701528071941,high,high,,ISIC_0032797.JPG,9,ISIC_0032823.JPG,29,false,0.1,lh,keypress(e),0,false,807771.9000000954,807771.8000000715,804355.073,804444.8000000715,804371.632,807688.305,4,500,10,
break,html.Screen,10_9_1,2023-11-17T22:29:15.975Z,,,,,,,,,,,NaN,,,,,,,,high,high,,,,,,false,,,,,false,807772.2000000477,807772.1000000238,,807771.9000000954,,807688.305,4,500,,
break_continue,html.Screen,10_9_2,2023-11-17T22:29:15.975Z,,,,,,,,,,,NaN,,,,,,,,high,high,,,,,,false,,,,,false,807772.4000000954,807772.4000000954,,807772.3000000715,,807688.305,4,500,,
sequence,flow.Sequence,10_9,2023-11-17T22:29:15.975Z,,,,,,,,,,,3400.768000095384,completion,,,,,,,high,high,,,,,,false,,,,,false,807772.5,807772.4000000954,804355.073,804444.8000000715,804371.632,807688.305,4,500,,
trial,html.Screen,10_10_0,2023-11-17T22:29:19.687Z,,,,1,0.0198696495649504,-0.0387952353063878,,0.04,false,lh,3795.8950000476325,response,-0.8472024037189965,1.104767829752152,-0.7247186157825963,0.986370061404882,0.989695946649163,-0.7433701528071941,low,high,,ISIC_6735970.JPG,8,ISIC_0054355.JPG,25,false,0.16000000000000003,hl,keypress(j),0,false,811484.3000000715,811484.2000000477,807671.909,807772.5,807688.305,811405.104,4,500,11,
break,html.Screen,10_10_1,2023-11-17T22:29:19.687Z,,,,,,,,,,,NaN,,,,,,,,low,high,,,,,,false,,,,,false,811484.6000000238,811484.5,,811484.3000000715,,811405.104,4,500,,
break_continue,html.Screen,10_10_2,2023-11-17T22:29:19.688Z,,,,,,,,,,,NaN,,,,,,,,low,high,,,,,,false,,,,,false,811484.8000000715,811484.7000000477,,811484.6000000238,,811405.104,4,500,,
sequence,flow.Sequence,10_10,2023-11-17T22:29:19.688Z,,,,,,,,,,,3796.3950000476325,completion,,,,,,,low,high,,,,,,false,,,,,false,811484.8000000715,811484.7000000477,807671.909,807772.5,807688.305,811405.104,4,500,,
trial,html.Screen,10_11_0,2023-11-17T22:29:26.567Z,,,,1,-0.0367706518941078,0.0161069838272154,,0.04,true,lh,6958.296000095317,response,-0.7883321712536753,1.104767829752152,-0.7247186157825963,1.0011430756825364,0.989695946649163,-0.7433701528071941,low,high,,ISIC_0033419.JPG,10,ISIC_9828853.JPG,25,false,0.16000000000000003,lh,keypress(e),0,false,818363.6000000238,818363.4000000954,811388.461,811484.9000000954,811405.104,818288.77,4,500,12,
break,html.Screen,10_11_1,2023-11-17T22:29:26.567Z,,,,,,,,,,,NaN,,,,,,,,low,high,,,,,,false,,,,,false,818363.9000000954,818363.8000000715,,818363.7000000477,,818288.77,4,500,,
break_continue,html.Screen,10_11_2,2023-11-17T22:29:26.567Z,,,,,,,,,,,NaN,,,,,,,,low,high,,,,,,false,,,,,false,818364.1000000238,818364.1000000238,,818363.9000000954,,818288.77,4,500,,
sequence,flow.Sequence,10_11,2023-11-17T22:29:26.567Z,,,,,,,,,,,6958.996000023792,completion,,,,,,,low,high,,,,,,false,,,,,false,818364.3000000715,818364.1000000238,811388.461,811484.9000000954,811405.104,818288.77,4,500,,
trial,html.Screen,10_12_0,2023-11-17T22:29:30.198Z,,,,1,0.001445457736793,0.0165307427449982,,0.04,false,hh,3706.3300000238232,response,1.0887084502656488,1.104767829752152,-0.7247186157825963,1.0539327766106836,0.989695946649163,-0.7433701528071941,high,high,,ISIC_0027350.JPG,8,ISIC_0030417.JPG,29,false,0.1,hl,keypress(j),0,false,821995.3000000715,821995.1000000238,818272.037,818364.3000000715,818288.77,821921.746,4,500,13,
break,html.Screen,10_12_1,2023-11-17T22:29:30.198Z,,,,,,,,,,,NaN,,,,,,,,high,high,,,,,,false,,,,,false,821995.5,821995.5,,821995.3000000715,,821921.746,4,500,,
break_continue,html.Screen,10_12_2,2023-11-17T22:29:30.199Z,,,,,,,,,,,NaN,,,,,,,,high,high,,,,,,false,,,,,false,821995.8000000715,821995.7000000477,,821995.6000000238,,821921.746,4,500,,
sequence,flow.Sequence,10_12,2023-11-17T22:29:30.199Z,,,,,,,,,,,3706.930000047665,completion,,,,,,,high,high,,,,,,false,,,,,false,821995.9000000954,821995.7000000477,818272.037,818364.3000000715,818288.77,821921.746,4,500,,
trial,html.Screen,10_13_0,2023-11-17T22:29:37.750Z,,,,1,-0.0119001144851157,0.0063430114540141,,0.04,false,ll,7625.554000071483,response,-0.7158231669914548,1.104767829752152,-0.7247186157825963,-0.6568022108209184,0.989695946649163,-0.7433701528071941,low,low,,ISIC_0003822.JPG,9,ISIC_4853597.JPG,80,false,0.1,lh,keypress(e),0,false,829547.4000000954,829547.3000000715,821904.899,821995.9000000954,821921.746,829471.695,4,500,14,
break,html.Screen,10_13_1,2023-11-17T22:29:37.751Z,,,,,,,,,,,NaN,,,,,,,,low,low,,,,,,false,,,,,false,829547.7000000477,829547.6000000238,,829547.4000000954,,829471.695,4,500,,
break_continue,html.Screen,10_13_2,2023-11-17T22:29:37.751Z,,,,,,,,,,,NaN,,,,,,,,low,low,,,,,,false,,,,,false,829547.9000000954,829547.9000000954,,829547.7000000477,,829471.695,4,500,,
sequence,flow.Sequence,10_13,2023-11-17T22:29:37.751Z,,,,,,,,,,,7626.154000095325,completion,,,,,,,low,low,,,,,,false,,,,,false,829547.9000000954,829547.9000000954,821904.899,821995.9000000954,821921.746,829471.695,4,500,,
trial,html.Screen,10_14_0,2023-11-17T22:29:45.031Z,,,,1,0.0074667911845194,-0.018500200317654,,0.04,false,ll,7356.405000023893,response,-0.6736134942588017,1.104767829752152,-0.7247186157825963,-0.7618617469818229,0.989695946649163,-0.7433701528071941,low,low,,ISIC_0058723.JPG,8,ISIC_5360921.JPG,80,false,0.1,lh,keypress(e),0,false,836828.1000000238,836828.1000000238,829454.907,829548,829471.695,836754.953,4,500,15,
break,html.Screen,10_14_1,2023-11-17T22:29:45.031Z,,,,,,,,,,,NaN,,,,,,,,low,low,,,,,,false,,,,,false,836828.5,836828.3000000715,,836828.2000000477,,836754.953,4,500,,
break_continue,html.Screen,10_14_2,2023-11-17T22:29:45.032Z,,,,,,,,,,,NaN,,,,,,,,low,low,,,,,,false,,,,,false,836828.7000000477,836828.6000000238,,836828.5,,836754.953,4,500,,
sequence,flow.Sequence,10_14,2023-11-17T22:29:45.032Z,,,,,,,,,,,7356.905000023893,completion,,,,,,,low,low,,,,,,false,,,,,false,836828.8000000715,836828.6000000238,829454.907,829548,829471.695,836754.953,4,500,,
trial,html.Screen,10_15_0,2023-11-17T22:29:47.959Z,,,,1,0.039520186367207,0.0377961575607372,,0.04,true,ll,3001.1470000238623,response,-0.7268043404851218,1.104767829752152,-0.7247186157825963,-0.8184581417483975,0.989695946649163,-0.7433701528071941,low,low,,ISIC_6356149.JPG,9,ISIC_0002118.JPG,80,false,0.1,ll,keypress(f),0,false,839756.2000000477,839756.1000000238,836738.553,836828.8000000715,836754.953,839671.591,4,500,16,
break,html.Screen,10_15_1,2023-11-17T22:29:47.959Z,,,,,,,,,,,NaN,,,,,,,,low,low,,,,,,false,,,,,false,839756.5,839756.4000000954,,839756.3000000715,,839671.591,4,500,,
break_continue,html.Screen,10_15_2,2023-11-17T22:29:47.960Z,,,,,,,,,,,NaN,,,,,,,,low,low,,,,,,false,,,,,false,839756.8000000715,839756.7000000477,,839756.6000000238,,839671.591,4,500,,
sequence,flow.Sequence,10_15,2023-11-17T22:29:47.960Z,,,,,,,,,,,3001.747000047704,completion,,,,,,,low,low,,,,,,false,,,,,false,839756.8000000715,839756.7000000477,836738.553,836828.8000000715,836754.953,839671.591,4,500,,
trial,html.Screen,10_16_0,2023-11-17T22:29:51.959Z,,,,1,-0.0308384937406319,0.0038396364323947,,0.04,false,lh,4084.509000023827,response,-0.8513427412482127,1.104767829752152,-0.7247186157825963,0.9295303568095064,0.989695946649163,-0.7433701528071941,low,high,,ISIC_0029825.JPG,9,ISIC_0034164.JPG,25,false,0.16000000000000003,ll,keypress(f),0,false,843756.1000000238,843756.1000000238,839655.416,839756.9000000954,839671.591,843671.682,4,500,17,
break,html.Screen,10_16_1,2023-11-17T22:29:51.959Z,,,,,,,,,,,NaN,,,,,,,,low,high,,,,,,false,,,,,false,843756.5,843756.5,,843756.3000000715,,843671.682,4,500,,
break_continue,html.Screen,10_16_2,2023-11-17T22:29:51.960Z,,,,,,,,,,,NaN,,,,,,,,low,high,,,,,,false,,,,,false,843756.7000000477,843756.6000000238,,843756.5,,843671.682,4,500,,
sequence,flow.Sequence,10_16,2023-11-17T22:29:51.960Z,,,,,,,,,,,4085.009000023827,completion,,,,,,,low,high,,,,,,false,,,,,false,843756.7000000477,843756.6000000238,839655.416,839756.8000000715,839671.591,843671.682,4,500,,
trial,html.Screen,10_17_0,2023-11-17T22:29:55.143Z,,,,1,,0.0102871556606504,,0.04,true,hh,3268.518000047654,response,1.0679712388489528,1.104767829752152,-0.7247186157825963,1.0509600192807842,0.989695946649163,-0.7433701528071941,high,high,,ISIC_1805163.JPG,9,ISIC_0015180.JPG,29,false,0.1,hh,keypress(i),0,false,846940.3000000715,846940.2000000477,843654.878,843756.8000000715,843671.682,846854.956,4,500,18,
break,html.Screen,10_17_1,2023-11-17T22:29:55.143Z,,,,,,,,,,,NaN,,,,,,,,high,high,,,,,,false,,,,,false,846940.5,846940.5,,846940.4000000954,,846854.956,4,500,,
break_continue,html.Screen,10_17_2,2023-11-17T22:29:55.144Z,,,,,,,,,,,NaN,,,,,,,,high,high,,,,,,false,,,,,false,846940.8000000715,846940.8000000715,,846940.6000000238,,846854.956,4,500,,
sequence,flow.Sequence,10_17,2023-11-17T22:29:55.144Z,,,,,,,,,,,3269.1180000714958,completion,,,,,,,high,high,,,,,,false,,,,,false,846940.8000000715,846940.8000000715,843654.878,843756.8000000715,843671.682,846854.956,4,500,,
trial,html.Screen,10_18_0,2023-11-17T22:30:03.495Z,,,,1,-0.0044063257337227,-0.0172548282859886,,0.04,false,hl,8437.043999999994,response,1.2020012168275056,1.104767829752152,-0.7247186157825963,-0.923753102263735,0.989695946649163,-0.7433701528071941,high,low,,ISIC_7413786.JPG,8,ISIC_0000022.JPG,27,false,0.20000000000000007,hh,keypress(i),0,false,855292.2000000477,855292,846838.697,846940.8000000715,846854.956,855204.906,4,500,19,
break,html.Screen,10_18_1,2023-11-17T22:30:03.495Z,,,,,,,,,,,NaN,,,,,,,,high,low,,,,,,false,,,,,false,855292.5,855292.3000000715,,855292.3000000715,,855204.906,4,500,,
break_continue,html.Screen,10_18_2,2023-11-17T22:30:03.496Z,,,,,,,,,,,NaN,,,,,,,,high,low,,,,,,false,,,,,false,855292.7000000477,855292.7000000477,,855292.5,,855204.906,4,500,,
sequence,flow.Sequence,10_18,2023-11-17T22:30:03.496Z,,,,,,,,,,,8437.744000047678,completion,,,,,,,high,low,,,,,,false,,,,,false,855292.8000000715,855292.7000000477,846838.697,846940.8000000715,846854.956,855204.906,4,500,,
trial,html.Screen,10_19_0,2023-11-17T22:30:06.327Z,,,,1,-0.0257631352671967,-0.0202837002774028,,0.04,true,ll,2919.194000023883,response,-0.628234392414947,1.104767829752152,-0.7247186157825963,-0.6546535880694141,0.989695946649163,-0.7433701528071941,low,low,,ISIC_0032797.JPG,8,ISIC_5116614.JPG,80,false,0.1,ll,keypress(f),0,false,858124.2000000477,858124.1000000238,855188.255,855292.8000000715,855204.906,858038.304,4,500,20,
break,html.Screen,10_19_1,2023-11-17T22:30:06.327Z,,,,,,,,,,,NaN,,,,,,,,low,low,,,,,,false,,,,,false,858124.6000000238,858124.5,,858124.3000000715,,858038.304,4,500,,
break_continue,html.Screen,10_19_2,2023-11-17T22:30:06.328Z,,,,,,,,,,,NaN,,,,,,,,low,low,,,,,,false,,,,,false,858124.7000000477,858124.7000000477,,858124.6000000238,,858038.304,4,500,,
sequence,flow.Sequence,10_19,2023-11-17T22:30:06.328Z,,,,,,,,,,,2919.7940000477247,completion,,,,,,,low,low,,,,,,false,,,,,false,858124.8000000715,858124.7000000477,855188.255,855292.8000000715,855204.906,858038.304,4,500,,
trial,html.Screen,10_20_0,2023-11-17T22:30:09.527Z,,,,1,-0.0044063257337227,-0.0172548282859886,,0.04,false,lh,3285.1959999999963,response,-0.5871963906675944,1.104767829752152,-0.7247186157825963,0.9874585599447032,0.989695946649163,-0.7433701528071941,low,high,,ISIC_7413786.JPG,8,ISIC_0066338.JPG,25,false,0.16000000000000003,hl,keypress(j),0,false,861323.6000000238,861323.5,858021.857,858124.8000000715,858038.304,861238.276,4,500,21,
break,html.Screen,10_20_1,2023-11-17T22:30:09.527Z,,,,,,,,,,,NaN,,,,,,,,low,high,,,,,,false,,,,,false,861324,861323.9000000954,,861323.8000000715,,861238.276,4,500,,
break_continue,html.Screen,10_20_2,2023-11-17T22:30:09.527Z,,,,,,,,,,,NaN,,,,,,,,low,high,,,,,,false,,,,,false,861324.2000000477,861324.1000000238,,861324.1000000238,,861238.276,4,500,,
sequence,flow.Sequence,10_20,2023-11-17T22:30:09.527Z,,,,,,,,,,,3285.796000023838,completion,,,,,,,low,high,,,,,,false,,,,,false,861324.3000000715,861324.1000000238,858021.857,858124.8000000715,858038.304,861238.276,4,500,,
trial,html.Screen,10_21_0,2023-11-17T22:30:14.855Z,,,,1,0.0088741920055285,0.0058246074740588,,0.04,false,ll,5413.8240000238875,response,-0.6990723246540984,1.104767829752152,-0.7247186157825963,-0.6480252642445372,0.989695946649163,-0.7433701528071941,low,low,,ISIC_4136663.JPG,9,ISIC_0014190.JPG,80,false,0.1,hh,keypress(i),0,false,866652.1000000238,866652.1000000238,861221.601,861324.4000000954,861238.276,866571.812,4,500,22,
break,html.Screen,10_21_1,2023-11-17T22:30:14.855Z,,,,,,,,,,,NaN,,,,,,,,low,low,,,,,,false,,,,,false,866652.5,866652.4000000954,,866652.2000000477,,866571.812,4,500,,
break_continue,html.Screen,10_21_2,2023-11-17T22:30:14.856Z,,,,,,,,,,,NaN,,,,,,,,low,low,,,,,,false,,,,,false,866652.7000000477,866652.6000000238,,866652.5,,866571.812,4,500,,
sequence,flow.Sequence,10_21,2023-11-17T22:30:14.856Z,,,,,,,,,,,5414.3240000238875,completion,,,,,,,low,low,,,,,,false,,,,,false,866652.8000000715,866652.6000000238,861221.601,861324.3000000715,861238.276,866571.812,4,500,,
trial,html.Screen,10_22_0,2023-11-17T22:30:17.879Z,,,,1,-0.0257631352671967,-0.0202837002774028,,0.04,true,hh,3103.7880000238074,response,1.0593040390975434,1.104767829752152,-0.7247186157825963,1.0413442695273454,0.989695946649163,-0.7433701528071941,high,high,,ISIC_0032797.JPG,9,ISIC_0061293.JPG,29,false,0.1,hh,keypress(i),0,false,869675.7000000477,869675.6000000238,866554.901,866652.8000000715,866571.812,869605.806,4,500,23,
break,html.Screen,10_22_1,2023-11-17T22:30:17.879Z,,,,,,,,,,,NaN,,,,,,,,high,high,,,,,,false,,,,,false,869676.1000000238,869676,,869675.8000000715,,869605.806,4,500,,
break_continue,html.Screen,10_22_2,2023-11-17T22:30:17.879Z,,,,,,,,,,,NaN,,,,,,,,high,high,,,,,,false,,,,,false,869676.3000000715,869676.1000000238,,869676.1000000238,,869605.806,4,500,,
sequence,flow.Sequence,10_22,2023-11-17T22:30:17.879Z,,,,,,,,,,,3104.2880000238074,completion,,,,,,,high,high,,,,,,false,,,,,false,869676.3000000715,869676.1000000238,866554.901,866652.8000000715,866571.812,869605.806,4,500,,
trial,html.Screen,10_23_0,2023-11-17T22:30:22.135Z,,,,1,0.0388181790775959,-0.0049623405709465,,0.04,true,hl,4325.994000071543,response,1.064186606907764,1.104767829752152,-0.7247186157825963,-0.5593816085032521,0.989695946649163,-0.7433701528071941,high,low,,ISIC_0061880.JPG,9,ISIC_0014975.JPG,27,false,0.20000000000000007,hl,keypress(j),0,false,873931.8000000715,873931.8000000715,869571.745,869676.3000000715,869605.806,873855.032,4,500,24,
break,html.Screen,10_23_1,2023-11-17T22:30:22.135Z,,,,,,,,,,,NaN,,,,,,,,high,low,,,,,,false,,,,,false,873932.1000000238,873932,,873931.9000000954,,873855.032,4,500,,
break_continue,html.Screen,10_23_2,2023-11-17T22:30:22.135Z,,,,,,,,,,,NaN,,,,,,,,high,low,,,,,,false,,,,,false,873932.3000000715,873932.3000000715,,873932.1000000238,,873855.032,4,500,,
sequence,flow.Sequence,10_23,2023-11-17T22:30:22.135Z,,,,,,,,,,,4326.494000071543,completion,,,,,,,high,low,,,,,,false,,,,,false,873932.4000000954,873932.3000000715,869571.745,869676.3000000715,869605.806,873855.032,4,500,,
trial,html.Screen,10_24_0,2023-11-17T22:30:24.791Z,,,,1,0.0065172941585523,-0.0118857043117315,,0.04,false,lh,2733.0680000238353,response,-0.7308116448711435,1.104767829752152,-0.7247186157825963,0.908713834988551,0.989695946649163,-0.7433701528071941,low,high,,ISIC_6119202.JPG,9,ISIC_7811951.JPG,25,false,0.16000000000000003,hh,keypress(i),0,false,876588.1000000238,876588.1000000238,873838.167,873932.4000000954,873855.032,876521.837,4,500,25,
break,html.Screen,10_24_1,2023-11-17T22:30:24.791Z,,,,,,,,,,,NaN,,,,,,,,low,high,,,,,,false,,,,,false,876588.4000000954,876588.4000000954,,876588.3000000715,,876521.837,4,500,,
break_continue,html.Screen,10_24_2,2023-11-17T22:30:24.792Z,,,,,,,,,,,NaN,,,,,,,,low,high,,,,,,false,,,,,false,876588.6000000238,876588.5,,876588.5,,876521.837,4,500,,
sequence,flow.Sequence,10_24,2023-11-17T22:30:24.792Z,,,,,,,,,,,2733.4679999999935,completion,,,,,,,low,high,,,,,,false,,,,,false,876588.7000000477,876588.5,873838.167,873932.4000000954,873855.032,876521.837,4,500,,
trial,html.Screen,10_25_0,2023-11-17T22:30:29.223Z,,,,1,0.001445457736793,0.0165307427449982,,0.04,true,hh,4498.463000071468,response,1.0653732408486678,1.104767829752152,-0.7247186157825963,1.089675540151582,0.989695946649163,-0.7433701528071941,high,high,,ISIC_0027350.JPG,8,ISIC_0058315.JPG,29,false,0.1,hh,keypress(i),0,false,881020.3000000715,881020.3000000715,876505.056,876588.7000000477,876521.837,880938.237,4,500,26,
break,html.Screen,10_25_1,2023-11-17T22:30:29.224Z,,,,,,,,,,,NaN,,,,,,,,high,high,,,,,,false,,,,,false,881020.6000000238,881020.6000000238,,881020.4000000954,,880938.237,4,500,,
break_continue,html.Screen,10_25_2,2023-11-17T22:30:29.224Z,,,,,,,,,,,NaN,,,,,,,,high,high,,,,,,false,,,,,false,881020.8000000715,881020.7000000477,,881020.7000000477,,880938.237,4,500,,
sequence,flow.Sequence,10_25,2023-11-17T22:30:29.224Z,,,,,,,,,,,4498.863000047626,completion,,,,,,,high,high,,,,,,false,,,,,false,881020.9000000954,881020.7000000477,876505.056,876588.7000000477,876521.837,880938.237,4,500,,
trial,html.Screen,10_26_0,2023-11-17T22:30:31.783Z,,,,1,0.0388334549081915,-0.0303399972963369,,0.04,true,lh,2641.7630000000354,response,-0.8830264383952469,1.104767829752152,-0.7247186157825963,0.8635562538060516,0.989695946649163,-0.7433701528071941,low,high,,ISIC_4961708.JPG,8,ISIC_0032258.JPG,25,false,0.16000000000000003,lh,keypress(e),0,false,883580.2000000477,883580,880922,881020.9000000954,880938.237,883504.93,4,500,27,
break,html.Screen,10_26_1,2023-11-17T22:30:31.783Z,,,,,,,,,,,NaN,,,,,,,,low,high,,,,,,false,,,,,false,883580.4000000954,883580.4000000954,,883580.2000000477,,883504.93,4,500,,
break_continue,html.Screen,10_26_2,2023-11-17T22:30:31.784Z,,,,,,,,,,,NaN,,,,,,,,low,high,,,,,,false,,,,,false,883580.7000000477,883580.6000000238,,883580.5,,883504.93,4,500,,
sequence,flow.Sequence,10_26,2023-11-17T22:30:31.784Z,,,,,,,,,,,2642.3630000238772,completion,,,,,,,low,high,,,,,,false,,,,,false,883580.7000000477,883580.6000000238,880922,881020.9000000954,880938.237,883504.93,4,500,,
trial,html.Screen,10_27_0,2023-11-17T22:30:38.791Z,,,,1,0.0241900387072296,-0.0339955304424736,,0.04,true,hl,7083.470000095316,response,1.064186606907764,1.104767829752152,-0.7247186157825963,-0.5593816085032521,0.989695946649163,-0.7433701528071941,high,low,,ISIC_0010789.JPG,10,ISIC_0014975.JPG,27,false,0.20000000000000007,hl,keypress(j),0,false,890588.4000000954,890588.4000000954,883488.723,883580.7000000477,883504.93,890504.958,4,500,28,
break,html.Screen,10_27_1,2023-11-17T22:30:38.792Z,,,,,,,,,,,NaN,,,,,,,,high,low,,,,,,false,,,,,false,890588.8000000715,890588.7000000477,,890588.5,,890504.958,4,500,,
break_continue,html.Screen,10_27_2,2023-11-17T22:30:38.792Z,,,,,,,,,,,NaN,,,,,,,,high,low,,,,,,false,,,,,false,890589.1000000238,890589,,890588.8000000715,,890504.958,4,500,,
sequence,flow.Sequence,10_27,2023-11-17T22:30:38.792Z,,,,,,,,,,,7084.069999999949,completion,,,,,,,high,low,,,,,,false,,,,,false,890589.1000000238,890589,883488.723,883580.7000000477,883504.93,890504.958,4,500,,
trial,html.Screen,10_28_0,2023-11-17T22:30:44.583Z,,,,1,-0.0200295718112167,-0.0155559071275806,,0.04,true,hl,5875.2420000477,response,1.0493056984693587,1.104767829752152,-0.7247186157825963,-0.6543707247604539,0.989695946649163,-0.7433701528071941,high,low,,ISIC_0061343.JPG,8,ISIC_8160596.JPG,27,false,0.20000000000000007,hl,keypress(j),0,false,896380.2000000477,896380.2000000477,890488.317,890589.1000000238,890504.958,896304.989,4,500,29,
break,html.Screen,10_28_1,2023-11-17T22:30:44.584Z,,,,,,,,,,,NaN,,,,,,,,high,low,,,,,,false,,,,,false,896380.6000000238,896380.4000000954,,896380.4000000954,,896304.989,4,500,,
break_continue,html.Screen,10_28_2,2023-11-17T22:30:44.584Z,,,,,,,,,,,NaN,,,,,,,,high,low,,,,,,false,,,,,false,896380.8000000715,896380.7000000477,,896380.6000000238,,896304.989,4,500,,
sequence,flow.Sequence,10_28,2023-11-17T22:30:44.584Z,,,,,,,,,,,5875.7420000477,completion,,,,,,,high,low,,,,,,false,,,,,false,896380.8000000715,896380.7000000477,890488.317,890589.1000000238,890504.958,896304.989,4,500,,
trial,html.Screen,10_29_0,2023-11-17T22:30:51.431Z,,,,1,-0.0220026381002083,0.0170756452911772,,0.04,false,lh,6923.111000023899,response,-0.6742481921837281,1.104767829752152,-0.7247186157825963,0.9118635731669033,0.989695946649163,-0.7433701528071941,low,high,,ISIC_5347806.JPG,9,ISIC_7961365.JPG,25,false,0.16000000000000003,ll,keypress(f),0,false,903228.2000000477,903228.1000000238,896288.175,896380.8000000715,896304.989,903155.074,4,500,30,
break,html.Screen,10_29_1,2023-11-17T22:30:51.431Z,,,,,,,,,,,NaN,,,,,,,,low,high,,,,,,false,,,,,false,903228.4000000954,903228.4000000954,,903228.2000000477,,903155.074,4,500,,
break_continue,html.Screen,10_29_2,2023-11-17T22:30:51.432Z,,,,,,,,,,,NaN,,,,,,,,low,high,,,,,,false,,,,,false,903228.7000000477,903228.6000000238,,903228.5,,903155.074,4,500,,
sequence,flow.Sequence,10_29,2023-11-17T22:30:51.432Z,,,,,,,,,,,6923.611000023899,completion,,,,,,,low,high,,,,,,false,,,,,false,903228.8000000715,903228.6000000238,896288.175,896380.8000000715,896304.989,903155.074,4,500,,
trial,html.Screen,10_30_0,2023-11-17T22:30:54.487Z,,,,1,-0.0308384937406319,0.0038396364323947,,0.04,true,hh,3128.6260000476614,response,1.0063353542987443,1.104767829752152,-0.7247186157825963,0.9468739614220908,0.989695946649163,-0.7433701528071941,high,high,,ISIC_0029825.JPG,9,ISIC_0072382.JPG,29,false,0.1,hh,keypress(i),0,false,906283.8000000715,906283.7000000477,903138.602,903228.8000000715,903155.074,906221.59,4,500,31,
break,html.Screen,10_30_1,2023-11-17T22:30:54.487Z,,,,,,,,,,,NaN,,,,,,,,high,high,,,,,,false,,,,,false,906284,906284,,906283.9000000954,,906221.59,4,500,,
break_continue,html.Screen,10_30_2,2023-11-17T22:30:54.487Z,,,,,,,,,,,NaN,,,,,,,,high,high,,,,,,false,,,,,false,906284.2000000477,906284.1000000238,,906284.1000000238,,906221.59,4,500,,
sequence,flow.Sequence,10_30,2023-11-17T22:30:54.487Z,,,,,,,,,,,3129.0260000238195,completion,,,,,,,high,high,,,,,,false,,,,,false,906284.2000000477,906284.1000000238,903138.602,903228.8000000715,903155.074,906221.59,4,500,,
trial,html.Screen,10_31_0,2023-11-17T22:31:01.287Z,,,,1,0.0388181790775959,-0.0049623405709465,,0.04,false,lh,6862.510000023874,response,-0.7883321712536753,1.104767829752152,-0.7247186157825963,1.0011430756825364,0.989695946649163,-0.7433701528071941,low,high,,ISIC_0061880.JPG,8,ISIC_9828853.JPG,25,false,0.16000000000000003,ll,keypress(f),0,false,913084.2000000477,913084.1000000238,906205.181,906284.3000000715,906221.59,913004.958,4,500,32,
break,html.Screen,10_31_1,2023-11-17T22:31:01.288Z,,,,,,,,,,,NaN,,,,,,,,low,high,,,,,,false,,,,,false,913084.5,913084.4000000954,,913084.3000000715,,913004.958,4,500,,
break_continue,html.Screen,10_31_2,2023-11-17T22:31:01.288Z,,,,,,,,,,,NaN,,,,,,,,low,high,,,,,,false,,,,,false,913084.7000000477,913084.6000000238,,913084.5,,913004.958,4,500,,
sequence,flow.Sequence,10_31,2023-11-17T22:31:01.288Z,,,,,,,,,,,6863.010000023874,completion,,,,,,,low,high,,,,,,false,,,,,false,913084.7000000477,913084.6000000238,906205.181,906284.3000000715,906221.59,913004.958,4,500,,
trial,html.Screen,10_32_0,2023-11-17T22:31:06.423Z,,,,1,-0.0119001144851157,0.0063430114540141,,0.04,true,hh,5215.042000000016,response,1.061329542878903,1.104767829752152,-0.7247186157825963,1.0605755702127622,0.989695946649163,-0.7433701528071941,high,high,,ISIC_0003822.JPG,9,ISIC_0065622.JPG,29,false,0.1,hh,keypress(i),0,false,918220,918220,912988.466,913084.8000000715,913004.958,918138.31,4,500,33,
break,html.Screen,10_32_1,2023-11-17T22:31:06.423Z,,,,,,,,,,,NaN,,,,,,,,high,high,,,,,,false,,,,,false,918220.4000000954,918220.2000000477,,918220.1000000238,,918138.31,4,500,,
break_continue,html.Screen,10_32_2,2023-11-17T22:31:06.424Z,,,,,,,,,,,NaN,,,,,,,,high,high,,,,,,false,,,,,false,918220.5,918220.5,,918220.4000000954,,918138.31,4,500,,
sequence,flow.Sequence,10_32,2023-11-17T22:31:06.424Z,,,,,,,,,,,5215.542000000016,completion,,,,,,,high,high,,,,,,false,,,,,false,918220.6000000238,918220.5,912988.466,913084.8000000715,913004.958,918138.31,4,500,,
trial,html.Screen,10_33_0,2023-11-17T22:31:12.408Z,,,,1,-0.0257631352671967,-0.0202837002774028,,0.04,false,hh,6066.189999999944,response,1.0349570401423522,1.104767829752152,-0.7247186157825963,1.0363323665817852,0.989695946649163,-0.7433701528071941,high,high,,ISIC_0032797.JPG,9,ISIC_0030107.JPG,29,false,0.1,ll,keypress(f),0,false,924204.6000000238,924204.5,918121.951,918220.7000000477,918138.31,924121.567,4,500,34,
break,html.Screen,10_33_1,2023-11-17T22:31:12.408Z,,,,,,,,,,,NaN,,,,,,,,high,high,,,,,,false,,,,,false,924204.9000000954,924204.9000000954,,924204.7000000477,,924121.567,4,500,,
break_continue,html.Screen,10_33_2,2023-11-17T22:31:12.408Z,,,,,,,,,,,NaN,,,,,,,,high,high,,,,,,false,,,,,false,924205.1000000238,924205,,924204.9000000954,,924121.567,4,500,,
sequence,flow.Sequence,10_33,2023-11-17T22:31:12.408Z,,,,,,,,,,,6066.689999999944,completion,,,,,,,high,high,,,,,,false,,,,,false,924205.2000000477,924205,918121.951,918220.7000000477,918138.31,924121.567,4,500,,
trial,html.Screen,10_34_0,2023-11-17T22:31:21.255Z,,,,1,-0.0308384937406319,0.0038396364323947,,0.04,false,hl,8930.333000095328,response,1.004142980655507,1.104767829752152,-0.7247186157825963,-0.7749773174967559,0.989695946649163,-0.7433701528071941,high,low,,ISIC_0029825.JPG,9,ISIC_3936223.JPG,27,false,0.20000000000000007,ll,keypress(f),0,false,933052,933051.9000000954,924105.319,924205.2000000477,924121.567,932971.6,4,500,35,
break,html.Screen,10_34_1,2023-11-17T22:31:21.255Z,,,,,,,,,,,NaN,,,,,,,,high,low,,,,,,false,,,,,false,933052.3000000715,933052.2000000477,,933052.1000000238,,932971.6,4,500,,
break_continue,html.Screen,10_34_2,2023-11-17T22:31:21.256Z,,,,,,,,,,,NaN,,,,,,,,high,low,,,,,,false,,,,,false,933052.6000000238,933052.4000000954,,933052.3000000715,,932971.6,4,500,,
sequence,flow.Sequence,10_34,2023-11-17T22:31:21.256Z,,,,,,,,,,,8930.833000095328,completion,,,,,,,high,low,,,,,,false,,,,,false,933052.6000000238,933052.4000000954,924105.319,924205.2000000477,924121.567,932971.6,4,500,,
trial,html.Screen,10_35_0,2023-11-17T22:31:24.215Z,,,,1,0.0109416414475118,0.005246498750811,,0.04,true,hl,3040.4000000000233,response,0.9145057080927842,1.104767829752152,-0.7247186157825963,-0.657848806080734,0.989695946649163,-0.7433701528071941,high,low,,ISIC_0064279.JPG,10,ISIC_0014308.JPG,27,false,0.20000000000000007,hl,keypress(j),0,false,936012.1000000238,936012,932955.158,933052.7000000477,932971.6,935938.707,4,500,36,
break,html.Screen,10_35_1,2023-11-17T22:31:24.215Z,,,,,,,,,,,NaN,,,,,,,,high,low,,,,,,false,,,,,false,936012.4000000954,936012.3000000715,,936012.2000000477,,935938.707,4,500,,
break_continue,html.Screen,10_35_2,2023-11-17T22:31:24.216Z,,,,,,,,,,,NaN,,,,,,,,high,low,,,,,,false,,,,,false,936012.6000000238,936012.5,,936012.4000000954,,935938.707,4,500,,
sequence,flow.Sequence,10_35,2023-11-17T22:31:24.216Z,,,,,,,,,,,3040.9000000000233,completion,,,,,,,high,low,,,,,,false,,,,,false,936012.7000000477,936012.5,932955.158,933052.7000000477,932971.6,935938.707,4,500,,
trial,html.Screen,10_36_0,2023-11-17T22:31:26.824Z,,,,1,-0.0308384937406319,0.0038396364323947,,0.04,false,ll,2681.4930000476306,response,-0.6296044282449401,1.104767829752152,-0.7247186157825963,-0.7751984808376284,0.989695946649163,-0.7433701528071941,low,low,,ISIC_0029825.JPG,8,ISIC_8960223.JPG,80,false,0.1,hl,keypress(j),0,false,938620.4000000954,938620.2000000477,935921.953,936012.7000000477,935938.707,938538.284,4,500,37,
break,html.Screen,10_36_1,2023-11-17T22:31:26.824Z,,,,,,,,,,,NaN,,,,,,,,low,low,,,,,,false,,,,,false,938620.7000000477,938620.6000000238,,938620.5,,938538.284,4,500,,
break_continue,html.Screen,10_36_2,2023-11-17T22:31:26.824Z,,,,,,,,,,,NaN,,,,,,,,low,low,,,,,,false,,,,,false,938620.9000000954,938620.9000000954,,938620.8000000715,,938538.284,4,500,,
sequence,flow.Sequence,10_36,2023-11-17T22:31:26.824Z,,,,,,,,,,,2682.1930000953143,completion,,,,,,,low,low,,,,,,false,,,,,false,938621,938620.9000000954,935921.953,936012.7000000477,935938.707,938538.284,4,500,,
trial,html.Screen,10_37_0,2023-11-17T22:31:29.799Z,,,,1,-0.0118382036798625,-0.0300588245877227,,0.04,true,ll,3057.4160000476986,response,-0.6441137519739508,1.104767829752152,-0.7247186157825963,-0.7480651395388467,0.989695946649163,-0.7433701528071941,low,low,,ISIC_4748605.JPG,8,ISIC_7183212.JPG,80,false,0.1,ll,keypress(f),0,false,941595.7000000477,941595.7000000477,938521.744,938621,938538.284,941522.035,4,500,38,
break,html.Screen,10_37_1,2023-11-17T22:31:29.799Z,,,,,,,,,,,NaN,,,,,,,,low,low,,,,,,false,,,,,false,941596,941595.9000000954,,941595.8000000715,,941522.035,4,500,,
break_continue,html.Screen,10_37_2,2023-11-17T22:31:29.799Z,,,,,,,,,,,NaN,,,,,,,,low,low,,,,,,false,,,,,false,941596.2000000477,941596.1000000238,,941596.1000000238,,941522.035,4,500,,
sequence,flow.Sequence,10_37,2023-11-17T22:31:29.799Z,,,,,,,,,,,3057.8160000238568,completion,,,,,,,low,low,,,,,,false,,,,,false,941596.3000000715,941596.1000000238,938521.744,938621,938538.284,941522.035,4,500,,
trial,html.Screen,10_38_0,2023-11-17T22:31:32.839Z,,,,1,-0.0009714874637896,0.0174815595031679,,0.04,false,hh,3113.765000071493,response,1.0333845898785206,1.104767829752152,-0.7247186157825963,0.998838774713298,0.989695946649163,-0.7433701528071941,high,high,,ISIC_9848743.JPG,9,ISIC_0010486.JPG,29,false,0.1,hl,keypress(j),0,false,944635.9000000954,944635.8000000715,941505.284,941596.3000000715,941522.035,944554.924,4,500,39,
break,html.Screen,10_38_1,2023-11-17T22:31:32.839Z,,,,,,,,,,,NaN,,,,,,,,high,high,,,,,,false,,,,,false,944636.2000000477,944636.1000000238,,944636,,944554.924,4,500,,
break_continue,html.Screen,10_38_2,2023-11-17T22:31:32.840Z,,,,,,,,,,,NaN,,,,,,,,high,high,,,,,,false,,,,,false,944636.4000000954,944636.3000000715,,944636.2000000477,,944554.924,4,500,,
sequence,flow.Sequence,10_38,2023-11-17T22:31:32.840Z,,,,,,,,,,,3114.265000071493,completion,,,,,,,high,high,,,,,,false,,,,,false,944636.5,944636.3000000715,941505.284,941596.3000000715,941522.035,944554.924,4,500,,
