sender,sender_type,sender_id,timestamp,meta,,age,blockNo,c1,c2,condition,control_tolerance,correct,correctResponse,duration,ended_on,f1,f1_high,f1_low,f2,f2_high,f2_low,feature_level1,feature_level2,gender,img_left,img_reveal,img_right,n_target_images,practice,range_tolerance,response,response_action,selection_duration,staircase,time_commit,time_end,time_render,time_run,time_show,time_switch,total_blocks,total_trials,trialNo,url
informed_consent,html.Screen,0,2023-11-17T21:23:20.247Z,"{""labjs_version"":""20.2.4"",""labjs_build"":{""flavor"":""development"",""commit"":""f5b4a49f956347addd546a832a3327688c2c0fef""},""location"":""https://labjs.felixhenninger.com/api/labjs_preview/index.html"",""userAgent"":""Mozilla/5.0 (Windows NT 10.0; Win64; x64) AppleWebKit/537.36 (KHTML, like Gecko) Chrome/119.0.0.0 Safari/537.36"",""platform"":""Win32"",""language"":""en-US"",""locale"":""en-US"",""timeZone"":""America/Chicago"",""timezoneOffset"":360,""screen_width"":1680,""screen_height"":1050,""scroll_width"":825,""scroll_height"":888,""window_innerWidth"":825,""window_innerHeight"":936,""devicePixelRatio"":1}",,,,,,,,,,39614.56599996424,response,,,,,,,,,,,,,,,,consent,click button,,,40313.5,40304.59999996424,673.267,667.8999999761581,690.034,40317.073,,,,{}
Demography form,html.Form,1,2023-11-17T21:23:26.526Z,,,20,,,,,,,,6275.927000000003,form submission,,,,,,,,,female,,,,,,,,,,,46593.09999996424,46593,40300.646,40313.799999952316,40317.073,46612.684,,,,
Welcome,html.Screen,2,2023-11-17T21:23:55.782Z,,,,,,,"[""bor"",""col""]",,,,29236.015999988078,response,,,,,,,,,,,,,,,,continue,click button,,,75849.29999995232,75848.69999998808,46596.018,46593.19999998808,46612.684,75852.933,,,,
demo_instructions,html.Screen,3,2023-11-17T21:24:51.934Z,,,,,,,,,,,56147.86699995231,response,,,,,,,,,,,,,,,,continue,click button,,,132001.29999995232,132000.79999995232,75836.483,75849.39999997616,75852.933,132062.34,,,,
trial,html.Screen,4_0_0,2023-11-17T21:24:57.813Z,,,,0,0.9244148283103414,-0.9712966348713286,,,true,lh,5816.759999964241,response,-0.8110121381849364,1.2,-1.2,0.7563142141851558,1.2,-1.2,low,high,,ISIC_7927525.JPG,,ISIC_0033605.JPG,26,true,0.4500000000000003,lh,keypress(e),100,false,137879.59999996424,137879.09999996424,131995.734,132001.5,132062.34,137907.07,1,16,1,
sequence,flow.Sequence,4_0,2023-11-17T21:24:57.823Z,,,,,,,,,,,5816.759999964241,completion,,,,,,,low,high,,,,,,true,,,,,false,137890,137879.09999996424,131995.734,132001.5,132062.34,137907.07,1,16,,
trial,html.Screen,4_1_0,2023-11-17T21:25:01.792Z,,,,0,0.9544693251394116,-1.0727539917203766,,,false,lh,3950.7299999523093,response,-1.0369885917487718,1.2,-1.2,0.8486937878412699,1.2,-1.2,low,high,,ISIC_0055147.JPG,,ISIC_6917681.JPG,26,true,0.4500000000000003,hl,keypress(j),100,false,141858.29999995232,141857.79999995232,137890.335,137890,137907.07,141898.143,1,16,2,
sequence,flow.Sequence,4_1,2023-11-17T21:25:01.792Z,,,,,,,,,,,3950.7299999523093,completion,,,,,,,low,high,,,,,,true,,,,,false,141858.89999997616,141857.79999995232,137890.335,137890,137907.07,141898.143,1,16,,
trial,html.Screen,4_2_0,2023-11-17T21:25:05.777Z,,,,0,0.9244148283103414,-0.9712966348713286,,,false,lh,3945.556999988068,response,-1.2054195059663604,1.2,-1.2,0.7760611240296147,1.2,-1.2,low,high,,ISIC_7927525.JPG,,ISIC_8712559.JPG,26,true,0.4500000000000003,hh,keypress(i),100,false,145844,145843.69999998808,141864.871,141859.29999995232,141898.143,145872.581,1,16,3,
sequence,flow.Sequence,4_2,2023-11-17T21:25:05.778Z,,,,,,,,,,,3945.556999988068,completion,,,,,,,low,high,,,,,,true,,,,,false,145844.29999995232,145843.69999998808,141864.871,141859.19999998808,141898.143,145872.581,1,16,,
trial,html.Screen,4_3_0,2023-11-17T21:25:08.556Z,,,,0,1.0153439398566937,-0.93001438372942,,,false,lh,2749.5189999642316,response,-1.2362557973341337,1.2,-1.2,1.2548266183352603,1.2,-1.2,low,high,,ISIC_8211214.JPG,,ISIC_0033886.JPG,26,true,0.4500000000000003,hh,keypress(i),100,false,148622.19999998808,148622.09999996424,145855.871,145844.5,145872.581,148644.834,1,16,4,
sequence,flow.Sequence,4_3,2023-11-17T21:25:08.556Z,,,,,,,,,,,2749.5189999642316,completion,,,,,,,low,high,,,,,,true,,,,,false,148622.5,148622.09999996424,145855.871,145844.5,145872.581,148644.834,1,16,,
trial,html.Screen,4_4_0,2023-11-17T21:25:12.677Z,,,,0,1.2194553326562725,1.2381726989215684,,,false,ll,4097.8659999880765,response,-0.940974390526586,1.2,-1.2,-0.8027264864579817,1.2,-1.2,low,low,,ISIC_0068975.JPG,,ISIC_0032341.JPG,203,true,0.40000000000000024,hl,keypress(j),100,false,152743.19999998808,152742.69999998808,148627.962,148622.69999998808,148644.834,152769.558,1,16,5,
sequence,flow.Sequence,4_4,2023-11-17T21:25:12.677Z,,,,,,,,,,,4097.8659999880765,completion,,,,,,,low,low,,,,,,true,,,,,false,152743.69999998808,152742.69999998808,148627.962,148622.59999996424,148644.834,152769.558,1,16,,
trial,html.Screen,4_5_0,2023-11-17T21:25:15.579Z,,,,0,1.1668613502915044,1.327068780840367,,,false,ll,2875.041999964247,response,-1.160746324899676,1.2,-1.2,-1.1927876559115576,1.2,-1.2,low,low,,ISIC_0054459.JPG,,ISIC_8651053.JPG,25,true,0.14,hl,keypress(j),100,false,155645.39999997616,155644.59999996424,152752.734,152744,152769.558,155675.052,1,16,6,
sequence,flow.Sequence,4_5,2023-11-17T21:25:15.580Z,,,,,,,,,,,2875.041999964247,completion,,,,,,,low,low,,,,,,true,,,,,false,155646.19999998808,155644.59999996424,152752.734,152744,152769.558,155675.052,1,16,,
trial,html.Screen,4_6_0,2023-11-17T21:25:17.777Z,,,,0,1.2194553326562725,1.2381726989215684,,,false,ll,2168.347999976162,response,-1.2600330864275875,1.2,-1.2,-1.0958628838888655,1.2,-1.2,low,low,,ISIC_0068975.JPG,,ISIC_0026996.JPG,25,true,0.14,hl,keypress(j),100,false,157843.79999995232,157843.39999997616,155658.351,155646.5,155675.052,157862.589,1,16,7,
sequence,flow.Sequence,4_6,2023-11-17T21:25:17.778Z,,,,,,,,,,,2168.347999976162,completion,,,,,,,low,low,,,,,,true,,,,,false,157844.29999995232,157843.39999997616,155658.351,155646.39999997616,155675.052,157862.589,1,16,,
trial,html.Screen,4_7_0,2023-11-17T21:25:25.141Z,,,,0,1.2033647433750492,1.0718012192341555,,,true,ll,7344.710999952309,response,-1.274752206258116,1.2,-1.2,-1.2988509166163749,1.2,-1.2,low,low,,ISIC_0061606.JPG,,ISIC_6704623.JPG,25,true,0.14,ll,keypress(f),100,false,165207.69999998808,165207.29999995232,157845.98,157844.59999996424,157862.589,165276.984,1,16,8,
sequence,flow.Sequence,4_7,2023-11-17T21:25:25.142Z,,,,,,,,,,,7344.710999952309,completion,,,,,,,low,low,,,,,,true,,,,,false,165208.29999995232,165207.29999995232,157845.98,157844.39999997616,157862.589,165276.984,1,16,,
trial,html.Screen,4_8_0,2023-11-17T21:25:32.960Z,,,,0,-1.2578167348825195,0.8371819698254004,,,true,hl,7749.1159999642405,response,0.9244148283103414,1.2,-1.2,-0.9712966348713286,1.2,-1.2,high,low,,ISIC_9613570.JPG,,ISIC_7927525.JPG,27,true,0.40000000000000024,hl,keypress(j),100,false,173026.59999996424,173026.09999996424,165210.27,165208.5,165276.984,173058.768,1,16,9,
sequence,flow.Sequence,4_8,2023-11-17T21:25:32.961Z,,,,,,,,,,,7749.1159999642405,completion,,,,,,,high,low,,,,,,true,,,,,false,173027.09999996424,173026.09999996424,165210.27,165208.5,165276.984,173058.768,1,16,,
trial,html.Screen,4_9_0,2023-11-17T21:25:38.582Z,,,,0,-1.058275612142778,0.7824898568540655,,,true,hl,5589.431999988068,response,0.8307508446051526,1.2,-1.2,-1.1707575338936729,1.2,-1.2,high,low,,ISIC_4906385.JPG,,ISIC_0028606.JPG,40,true,0.4500000000000003,hl,keypress(j),100,false,178648.59999996424,178648.19999998808,173025.475,173027.39999997616,173058.768,178703.123,1,16,10,
sequence,flow.Sequence,4_9,2023-11-17T21:25:38.583Z,,,,,,,,,,,5589.431999988068,completion,,,,,,,high,low,,,,,,true,,,,,false,178649.09999996424,178648.19999998808,173025.475,173027.39999997616,173058.768,178703.123,1,16,,
trial,html.Screen,4_10_0,2023-11-17T21:25:47.789Z,,,,0,-0.7883321712536753,1.0011430756825364,,,true,hl,9152.176999952324,response,0.8307508446051526,1.2,-1.2,-1.1707575338936729,1.2,-1.2,high,low,,ISIC_9828853.JPG,,ISIC_0028606.JPG,40,true,0.4500000000000003,hl,keypress(j),100,false,187855.69999998808,187855.29999995232,178653.15,178649.29999995232,178703.123,187904.364,1,16,11,
sequence,flow.Sequence,4_10,2023-11-17T21:25:47.790Z,,,,,,,,,,,9152.176999952324,completion,,,,,,,high,low,,,,,,true,,,,,false,187856.29999995232,187855.29999995232,178653.15,178649.19999998808,178703.123,187904.364,1,16,,
trial,html.Screen,4_11_0,2023-11-17T21:25:53.808Z,,,,0,-1.3046390428588206,0.7942099232219556,,,true,hl,5969.235999964236,response,0.8165346395107898,1.2,-1.2,-0.7657798385266591,1.2,-1.2,high,low,,ISIC_0013096.JPG,,ISIC_2283628.JPG,40,true,0.4500000000000003,hl,keypress(j),100,false,193873.89999997616,193873.59999996424,187854.518,187856.69999998808,187904.364,193899.641,1,16,12,
sequence,flow.Sequence,4_11,2023-11-17T21:25:53.808Z,,,,,,,,,,,5969.235999964236,completion,,,,,,,high,low,,,,,,true,,,,,false,193874.59999996424,193873.59999996424,187854.518,187856.59999996424,187904.364,193899.641,1,16,,
trial,html.Screen,4_12_0,2023-11-17T21:26:00.961Z,,,,0,-1.2100527057059796,-1.2159112471537263,,,true,hh,7127.458999964234,response,0.7946824925549466,1.2,-1.2,1.1131375205418623,1.2,-1.2,high,high,,ISIC_0008055.JPG,,ISIC_0060096.JPG,359,true,0.4500000000000003,hh,keypress(i),100,false,201027.5,201027.09999996424,193882.751,193874.89999997616,193899.641,201046.646,1,16,13,
sequence,flow.Sequence,4_12,2023-11-17T21:26:00.962Z,,,,,,,,,,,7127.458999964234,completion,,,,,,,high,high,,,,,,true,,,,,false,201028.19999998808,201027.09999996424,193882.751,193874.79999995232,193899.641,201046.646,1,16,,
trial,html.Screen,4_13_0,2023-11-17T21:26:10.779Z,,,,0,-1.2724293858920366,-1.149360738769835,,,true,hh,9797.75399997615,response,1.060922596470156,1.2,-1.2,1.152385059054538,1.2,-1.2,high,high,,ISIC_1264725.JPG,,ISIC_0067719.JPG,40,true,0.14,hh,keypress(i),100,false,210845,210844.39999997616,201029.996,201028.5,201046.646,210865.78,1,16,14,
sequence,flow.Sequence,4_13,2023-11-17T21:26:10.779Z,,,,,,,,,,,9797.75399997615,completion,,,,,,,high,high,,,,,,true,,,,,false,210845.59999996424,210844.39999997616,201029.996,201028.29999995232,201046.646,210865.78,1,16,,
trial,html.Screen,4_14_0,2023-11-17T21:26:14.916Z,,,,0,-1.077278111180185,-1.1530533996184025,,,true,hh,4116.619999976159,response,1.1243896694621007,1.2,-1.2,1.1772340944704969,1.2,-1.2,high,high,,ISIC_9525136.JPG,,ISIC_0062765.JPG,40,true,0.14,hh,keypress(i),100,false,214982.59999996424,214982.39999997616,210849.145,210845.89999997616,210865.78,215007.317,1,16,15,
sequence,flow.Sequence,4_14,2023-11-17T21:26:14.917Z,,,,,,,,,,,4116.619999976159,completion,,,,,,,high,high,,,,,,true,,,,,false,214982.79999995232,214982.39999997616,210849.145,210845.79999995232,210865.78,215007.317,1,16,,
trial,html.Screen,4_15_0,2023-11-17T21:26:18.193Z,,,,0,-1.1989130276493527,-1.2666195460149832,,,true,hh,3251.18299999999,response,1.266079261381142,1.2,-1.2,1.312161506160336,1.2,-1.2,high,high,,ISIC_0031705.JPG,,ISIC_0065449.JPG,40,true,0.14,hh,keypress(i),100,false,218258.89999997616,218258.5,214990.475,214983,215007.317,218280.202,1,16,16,
sequence,flow.Sequence,4_15,2023-11-17T21:26:18.193Z,,,,,,,,,,,3251.18299999999,completion,,,,,,,high,high,,,,,,true,,,,,false,218259.5,218258.5,214990.475,214982.89999997616,215007.317,218280.202,1,16,,
demonstration_loop,flow.Loop,4,2023-11-17T21:26:18.193Z,,,,,,,,,,,86196.16,completion,,,,,,,,,,,,,,true,,,,,false,218259.79999995232,218258.5,131995.734,132001.5,132062.34,218280.202,1,16,,
practice_instructions,html.Screen,5,2023-11-17T21:26:39.247Z,,,,,,,,,,,21024.597999952326,response,,,,,,,,,,,,,,,,continue,click button,,,239313.29999995232,239304.79999995232,218263.528,218260,218280.202,239321.131,,,,
trial,html.Screen,6_0_0,2023-11-17T21:26:46.048Z,,,,1,-1.109799097093339,-1.091507924157762,,,true,hh,6786.369000000006,response,1.1668613502915044,1.2,-1.2,1.327068780840367,1.2,-1.2,high,high,,ISIC_0765584.JPG,,ISIC_0054459.JPG,30,true,0.13,hh,keypress(i),0,false,246114.29999995232,246107.5,239304.641,239313.39999997616,239321.131,246167.793,1,40,1,
sequence,flow.Sequence,6_0,2023-11-17T21:26:46.048Z,,,,,,,,,,,6786.369000000006,completion,,,,,,,high,high,,,,,,true,,,,,false,246114.5,246107.5,239304.641,239313.39999997616,239321.131,246167.793,1,40,,
trial,html.Screen,6_1_0,2023-11-17T21:26:50.159Z,,,,1,-0.8830264383952469,0.8635562538060516,,,true,hl,4057.606999976153,response,0.90812608370647,1.2,-1.2,-1.2720026872926935,1.2,-1.2,high,low,,ISIC_0032258.JPG,,ISIC_0450295.JPG,27,true,0.40000000000000024,hl,keypress(j),0,false,250225.39999997616,250225.39999997616,246117.666,246114.5,246167.793,250242.647,1,40,2,
sequence,flow.Sequence,6_1,2023-11-17T21:26:50.159Z,,,,,,,,,,,4057.606999976153,completion,,,,,,,high,low,,,,,,true,,,,,false,250225.59999996424,250225.39999997616,246117.666,246114.5,246167.793,250242.647,1,40,,
trial,html.Screen,6_2_0,2023-11-17T21:26:55.841Z,,,,1,1.236306205926646,1.116612676102794,,,true,ll,5663.652999952319,response,-0.8186357808635779,1.2,-1.2,-0.8496269540027764,1.2,-1.2,low,low,,ISIC_0054341.JPG,,ISIC_4535099.JPG,265,true,0.4500000000000003,ll,keypress(f),0,false,255906.59999996424,255906.29999995232,250225.915,250225.69999998808,250242.647,255953.5,1,40,3,
sequence,flow.Sequence,6_2,2023-11-17T21:26:55.841Z,,,,,,,,,,,5663.652999952319,completion,,,,,,,low,low,,,,,,true,,,,,false,255907.09999996424,255906.29999995232,250225.915,250225.69999998808,250242.647,255953.5,1,40,,
trial,html.Screen,6_3_0,2023-11-17T21:27:00.705Z,,,,1,0.9617893983965208,-0.9453006131304652,,,true,lh,4817.299999952316,response,-1.058275612142778,1.2,-1.2,0.7824898568540655,1.2,-1.2,low,high,,ISIC_4229473.JPG,,ISIC_4906385.JPG,26,true,0.4500000000000003,lh,keypress(e),0,false,260771.19999998808,260770.79999995232,255903.583,255907.39999997616,255953.5,260779.561,1,40,4,
sequence,flow.Sequence,6_3,2023-11-17T21:27:00.706Z,,,,,,,,,,,4817.299999952316,completion,,,,,,,low,high,,,,,,true,,,,,false,260771.69999998808,260770.79999995232,255903.583,255907.29999995232,255953.5,260779.561,1,40,,
trial,html.Screen,6_4_0,2023-11-17T21:27:05.945Z,,,,1,1.2118207001489876,1.3164676315545727,,,true,ll,5230.939000000013,response,-1.2804054832904397,1.2,-1.2,-1.171271535505083,1.2,-1.2,low,low,,ISIC_0066476.JPG,,ISIC_7889838.JPG,203,true,0.40000000000000024,ll,keypress(f),0,false,266011,266010.5,260763.068,260771.89999997616,260779.561,266056.459,1,40,5,
sequence,flow.Sequence,6_4,2023-11-17T21:27:05.946Z,,,,,,,,,,,5230.939000000013,completion,,,,,,,low,low,,,,,,true,,,,,false,266011.7999999523,266010.5,260763.068,260771.89999997616,260779.561,266056.459,1,40,,
trial,html.Screen,6_5_0,2023-11-17T21:27:09.864Z,,,,1,-1.2054195059663604,0.7760611240296147,,,true,hl,3873.5410000000265,response,0.8544507134472948,1.2,-1.2,-0.9244388608707323,1.2,-1.2,high,low,,ISIC_8712559.JPG,,ISIC_3565564.JPG,27,true,0.40000000000000024,hl,keypress(j),0,false,269930.39999997616,269930,266006.57,266012.2999999523,266056.459,269964.071,1,40,6,
sequence,flow.Sequence,6_5,2023-11-17T21:27:09.865Z,,,,,,,,,,,3873.5410000000265,completion,,,,,,,high,low,,,,,,true,,,,,false,269930.89999997616,269930,266006.57,266012.09999996424,266056.459,269964.071,1,40,,
trial,html.Screen,6_6_0,2023-11-17T21:27:13.960Z,,,,1,0.8987343013179191,-0.8149073454566363,,,true,lh,4061.628999988083,response,-0.8926515927689261,1.2,-1.2,0.7935960767768927,1.2,-1.2,low,high,,ISIC_0472513.JPG,,ISIC_8901371.JPG,26,true,0.4500000000000003,lh,keypress(e),0,false,274025.89999997616,274025.6999999881,269930.822,269931.09999996424,269964.071,274055.393,1,40,7,
sequence,flow.Sequence,6_6,2023-11-17T21:27:13.960Z,,,,,,,,,,,4061.628999988083,completion,,,,,,,low,high,,,,,,true,,,,,false,274026.1999999881,274025.6999999881,269930.822,269931,269964.071,274055.393,1,40,,
trial,html.Screen,6_7_0,2023-11-17T21:27:19.113Z,,,,1,-1.0369885917487718,0.8486937878412699,,,true,hl,5122.906999952334,response,0.8544507134472948,1.2,-1.2,-0.9244388608707323,1.2,-1.2,high,low,,ISIC_6917681.JPG,,ISIC_3565564.JPG,27,true,0.40000000000000024,hl,keypress(j),0,false,279178.59999996424,279178.2999999523,274022.066,274026.2999999523,274055.393,279182.127,1,40,8,
sequence,flow.Sequence,6_7,2023-11-17T21:27:19.113Z,,,,,,,,,,,5122.906999952334,completion,,,,,,,high,low,,,,,,true,,,,,false,279179.09999996424,279178.2999999523,274022.066,274026.2999999523,274055.393,279182.127,1,40,,
trial,html.Screen,6_8_0,2023-11-17T21:27:24.737Z,,,,1,-1.2804054832904397,-1.171271535505083,,,true,hh,5620.5729999881005,response,1.1325407648058876,1.2,-1.2,0.930000842576531,1.2,-1.2,high,high,,ISIC_7889838.JPG,,ISIC_0062364.JPG,359,true,0.4500000000000003,hh,keypress(i),0,false,284803.09999996424,284802.6999999881,279165.483,279179.39999997616,279182.127,284843.055,1,40,9,
sequence,flow.Sequence,6_8,2023-11-17T21:27:24.738Z,,,,,,,,,,,5620.5729999881005,completion,,,,,,,high,high,,,,,,true,,,,,false,284803.6999999881,284802.6999999881,279165.483,279179.2999999523,279182.127,284843.055,1,40,,
trial,html.Screen,6_9_0,2023-11-17T21:27:28.865Z,,,,1,0.8307508446051526,-1.1707575338936729,,,true,lh,4087.445000000007,response,-0.989300717252516,1.2,-1.2,0.7908280206937478,1.2,-1.2,low,high,,ISIC_0028606.JPG,,ISIC_6416533.JPG,26,true,0.4500000000000003,lh,keypress(e),0,false,288930.7999999523,288930.5,284793.037,284803.89999997616,284843.055,288934.442,1,40,10,
sequence,flow.Sequence,6_9,2023-11-17T21:27:28.865Z,,,,,,,,,,,4087.445000000007,completion,,,,,,,low,high,,,,,,true,,,,,false,288931.1999999881,288930.5,284793.037,284803.7999999523,284843.055,288934.442,1,40,,
trial,html.Screen,6_10_0,2023-11-17T21:27:34.753Z,,,,1,1.1668613502915044,1.327068780840367,,,true,ll,5884.457999976177,response,-0.9249180304825352,1.2,-1.2,-0.9557254346276748,1.2,-1.2,low,low,,ISIC_0054459.JPG,,ISIC_6778515.JPG,203,true,0.40000000000000024,ll,keypress(f),0,false,294819.1999999881,294818.89999997616,288917.789,288931.59999996424,288934.442,294829.164,1,40,11,
sequence,flow.Sequence,6_10,2023-11-17T21:27:34.754Z,,,,,,,,,,,5884.457999976177,completion,,,,,,,low,low,,,,,,true,,,,,false,294819.6999999881,294818.89999997616,288917.789,288931.5,288934.442,294829.164,1,40,,
trial,html.Screen,6_11_0,2023-11-17T21:27:41.721Z,,,,1,1.0769708994456726,1.2196503533725178,,,true,ll,6957.4359999642475,response,-1.274417010249866,1.2,-1.2,-1.0725495669014795,1.2,-1.2,low,low,,ISIC_0063824.JPG,,ISIC_8849004.JPG,25,true,0.14,ll,keypress(f),0,false,301786.89999997616,301786.59999996424,294812.575,294820,294829.164,301842.81,1,40,12,
sequence,flow.Sequence,6_11,2023-11-17T21:27:41.722Z,,,,,,,,,,,6957.4359999642475,completion,,,,,,,low,low,,,,,,true,,,,,false,301787.59999996424,301786.59999996424,294812.575,294819.89999997616,294829.164,301842.81,1,40,,
trial,html.Screen,6_12_0,2023-11-17T21:27:45.873Z,,,,1,-0.8830264383952469,0.8635562538060516,,,true,hl,4095.5899999761605,response,0.9633172970727744,1.2,-1.2,-0.8472659344792351,1.2,-1.2,high,low,,ISIC_0032258.JPG,,ISIC_0067172.JPG,27,true,0.40000000000000024,hl,keypress(j),0,false,305938.7999999523,305938.39999997616,301776.203,301787.89999997616,301842.81,305967.5,1,40,13,
sequence,flow.Sequence,6_12,2023-11-17T21:27:45.873Z,,,,,,,,,,,4095.5899999761605,completion,,,,,,,high,low,,,,,,true,,,,,false,305939.1999999881,305938.39999997616,301776.203,301787.7999999523,301842.81,305967.5,1,40,,
trial,html.Screen,6_13_0,2023-11-17T21:27:48.553Z,,,,1,-0.8926515927689261,0.7935960767768927,,,true,hl,2650.7999999523163,response,0.90812608370647,1.2,-1.2,-1.2720026872926935,1.2,-1.2,high,low,,ISIC_8901371.JPG,,ISIC_0450295.JPG,40,true,0.4500000000000003,hl,keypress(j),0,false,308618.6999999881,308618.2999999523,305934.241,305939.5,305967.5,308639.382,1,40,14,
sequence,flow.Sequence,6_13,2023-11-17T21:27:48.554Z,,,,,,,,,,,2650.7999999523163,completion,,,,,,,high,low,,,,,,true,,,,,false,308619.39999997616,308618.2999999523,305934.241,305939.39999997616,305967.5,308639.382,1,40,,
trial,html.Screen,6_14_0,2023-11-17T21:27:51.857Z,,,,1,0.8443403196524287,-0.8858525429102605,,,true,lh,3283.017999976175,response,-0.8472024037189965,1.2,-1.2,0.986370061404882,1.2,-1.2,low,high,,ISIC_8777813.JPG,,ISIC_0054355.JPG,26,true,0.4500000000000003,lh,keypress(e),0,false,311922.7999999523,311922.39999997616,308606.19,308619.89999997616,308639.382,311929.124,1,40,15,
sequence,flow.Sequence,6_14,2023-11-17T21:27:51.857Z,,,,,,,,,,,3283.017999976175,completion,,,,,,,low,high,,,,,,true,,,,,false,311923.2999999523,311922.39999997616,308606.19,308619.7999999523,308639.382,311929.124,1,40,,
trial,html.Screen,6_15_0,2023-11-17T21:27:54.841Z,,,,1,-1.3246728710248594,-1.1527736000922424,,,true,hh,2977.0759999880684,response,1.210457198775374,1.2,-1.2,1.4704753321872233,1.2,-1.2,high,high,,ISIC_6876281.JPG,,ISIC_9141817.JPG,288,true,0.40000000000000024,hh,keypress(i),0,false,314906.5,314906.1999999881,311912.637,311923.5,311929.124,314951.658,1,40,16,
sequence,flow.Sequence,6_15,2023-11-17T21:27:54.841Z,,,,,,,,,,,2977.0759999880684,completion,,,,,,,high,high,,,,,,true,,,,,false,314906.89999997616,314906.1999999881,311912.637,311923.5,311929.124,314951.658,1,40,,
trial,html.Screen,6_16_0,2023-11-17T21:27:57.936Z,,,,1,1.0788024398087033,-0.9911875460374616,,,true,lh,3049.9419999642414,response,-1.075512775389519,1.2,-1.2,1.0454702683049502,1.2,-1.2,low,high,,ISIC_5951430.JPG,,ISIC_0033603.JPG,26,true,0.4500000000000003,lh,keypress(e),0,false,318001.7999999523,318001.59999996424,314901.775,314907.1999999881,314951.658,318007.592,1,40,17,
sequence,flow.Sequence,6_16,2023-11-17T21:27:57.936Z,,,,,,,,,,,3049.9419999642414,completion,,,,,,,low,high,,,,,,true,,,,,false,318002.09999996424,318001.59999996424,314901.775,314907.09999996424,314951.658,318007.592,1,40,,
trial,html.Screen,6_17_0,2023-11-17T21:28:02.817Z,,,,1,1.14454137020797,1.1082302786512033,,,true,ll,4874.807999976154,response,-0.8372379817368715,1.2,-1.2,-0.8148867547702584,1.2,-1.2,low,low,,ISIC_0065128.JPG,,ISIC_0024277.JPG,203,true,0.40000000000000024,ll,keypress(f),0,false,322882.6999999881,322882.39999997616,317991.166,318002.1999999881,318007.592,322900.57,1,40,18,
sequence,flow.Sequence,6_17,2023-11-17T21:28:02.817Z,,,,,,,,,,,4874.807999976154,completion,,,,,,,low,low,,,,,,true,,,,,false,322883.1999999881,322882.39999997616,317991.166,318002.1999999881,318007.592,322900.57,1,40,,
trial,html.Screen,6_18_0,2023-11-17T21:28:06.761Z,,,,1,1.236306205926646,1.116612676102794,,,true,ll,3925.7299999523093,response,-1.0943527860463682,1.2,-1.2,-1.124481746658104,1.2,-1.2,low,low,,ISIC_0054341.JPG,,ISIC_0438136.JPG,25,true,0.14,ll,keypress(f),0,false,326826.6999999881,326826.2999999523,322883.889,322883.39999997616,322900.57,326874.876,1,40,19,
sequence,flow.Sequence,6_18,2023-11-17T21:28:06.761Z,,,,,,,,,,,3925.7299999523093,completion,,,,,,,low,low,,,,,,true,,,,,false,326827.1999999881,326826.2999999523,322883.889,322883.39999997616,322900.57,326874.876,1,40,,
trial,html.Screen,6_19_0,2023-11-17T21:28:10.985Z,,,,1,-1.2362557973341337,1.2548266183352603,,,true,hl,4175.82399998809,response,0.8443403196524287,1.2,-1.2,-0.8858525429102605,1.2,-1.2,high,low,,ISIC_0033886.JPG,,ISIC_8777813.JPG,27,true,0.40000000000000024,hl,keypress(j),0,false,331051.09999996424,331050.6999999881,326824.909,326827.39999997616,326874.876,331066.459,1,40,20,
sequence,flow.Sequence,6_19,2023-11-17T21:28:10.986Z,,,,,,,,,,,4175.82399998809,completion,,,,,,,high,low,,,,,,true,,,,,false,331051.5,331050.6999999881,326824.909,326827.2999999523,326874.876,331066.459,1,40,,
trial,html.Screen,6_20_0,2023-11-17T21:28:14.777Z,,,,1,-1.0943527860463682,-1.124481746658104,,,true,hh,3776.0410000000265,response,1.3848068839768504,1.2,-1.2,1.368720581514355,1.2,-1.2,high,high,,ISIC_0438136.JPG,,ISIC_0024702.JPG,359,true,0.4500000000000003,hh,keypress(i),0,false,334842.7999999523,334842.5,331049.65,331051.7999999523,331066.459,334890.471,1,40,21,
sequence,flow.Sequence,6_20,2023-11-17T21:28:14.778Z,,,,,,,,,,,3776.0410000000265,completion,,,,,,,high,high,,,,,,true,,,,,false,334843.2999999523,334842.5,331049.65,331051.7999999523,331066.459,334890.471,1,40,,
trial,html.Screen,6_21_0,2023-11-17T21:28:18.185Z,,,,1,0.8350129142228142,-0.8172547818270586,,,true,lh,3360.0289999999804,response,-0.7518277461369444,1.2,-1.2,1.3860759020802074,1.2,-1.2,low,high,,ISIC_0301568.JPG,,ISIC_7967397.JPG,26,true,0.4500000000000003,lh,keypress(e),0,false,338250.6999999881,338250.5,334840.47,334843.5,334890.471,338297.076,1,40,22,
sequence,flow.Sequence,6_21,2023-11-17T21:28:18.186Z,,,,,,,,,,,3360.0289999999804,completion,,,,,,,low,high,,,,,,true,,,,,false,338251.2999999523,338250.5,334840.47,334843.39999997616,334890.471,338297.076,1,40,,
trial,html.Screen,6_22_0,2023-11-17T21:28:21.993Z,,,,1,0.8307508446051526,-1.1707575338936729,,,true,lh,3761.423999999999,response,-0.8828738626295417,1.2,-1.2,0.8288177599439582,1.2,-1.2,low,high,,ISIC_0028606.JPG,,ISIC_0056041.JPG,26,true,0.4500000000000003,lh,keypress(e),0,false,342058.7999999523,342058.5,338247.222,338251.5,338297.076,342087.815,1,40,23,
sequence,flow.Sequence,6_22,2023-11-17T21:28:21.994Z,,,,,,,,,,,3761.423999999999,completion,,,,,,,low,high,,,,,,true,,,,,false,342059.2999999523,342058.5,338247.222,338251.5,338297.076,342087.815,1,40,,
trial,html.Screen,6_23_0,2023-11-17T21:28:25.761Z,,,,1,0.9089402323867112,-0.8034544077281132,,,true,lh,3738.484999952314,response,-0.7518277461369444,1.2,-1.2,1.3860759020802074,1.2,-1.2,low,high,,ISIC_3585381.JPG,,ISIC_7967397.JPG,26,true,0.4500000000000003,lh,keypress(e),0,false,345826.59999996424,345826.2999999523,342054.537,342059.5,342087.815,345846.58,1,40,24,
sequence,flow.Sequence,6_23,2023-11-17T21:28:25.761Z,,,,,,,,,,,3738.484999952314,completion,,,,,,,low,high,,,,,,true,,,,,false,345827.09999996424,345826.2999999523,342054.537,342059.39999997616,342087.815,345846.58,1,40,,
trial,html.Screen,6_24_0,2023-11-17T21:28:29.377Z,,,,1,-1.077278111180185,-1.1530533996184025,,,true,hh,3595.819999976142,response,1.353333658925377,1.2,-1.2,1.2011271301542,1.2,-1.2,high,high,,ISIC_9525136.JPG,,ISIC_0065313.JPG,288,true,0.40000000000000024,hh,keypress(i),0,false,349442.59999996424,349442.39999997616,345811.83,345827.2999999523,345846.58,349502.224,1,40,25,
sequence,flow.Sequence,6_24,2023-11-17T21:28:29.378Z,,,,,,,,,,,3595.819999976142,completion,,,,,,,high,high,,,,,,true,,,,,false,349443.39999997616,349442.39999997616,345811.83,345827.2999999523,345846.58,349502.224,1,40,,
trial,html.Screen,6_25_0,2023-11-17T21:28:32.889Z,,,,1,0.9244148283103414,-0.9712966348713286,,,true,lh,3452.2760000000126,response,-0.8110121381849364,1.2,-1.2,0.7563142141851558,1.2,-1.2,low,high,,ISIC_7927525.JPG,,ISIC_0033605.JPG,26,true,0.4500000000000003,lh,keypress(e),0,false,352954.7999999523,352954.5,349435.638,349443.59999996424,349502.224,352975.681,1,40,26,
sequence,flow.Sequence,6_25,2023-11-17T21:28:32.890Z,,,,,,,,,,,3452.2760000000126,completion,,,,,,,low,high,,,,,,true,,,,,false,352955.2999999523,352954.5,349435.638,349443.5,349502.224,352975.681,1,40,,
trial,html.Screen,6_26_0,2023-11-17T21:28:35.961Z,,,,1,-1.3046390428588206,0.7942099232219556,,,true,hl,3050.918999964255,response,0.8500530224490773,1.2,-1.2,-1.0893360711742854,1.2,-1.2,high,low,,ISIC_0013096.JPG,,ISIC_2998367.JPG,27,true,0.40000000000000024,hl,keypress(j),0,false,356026.7999999523,356026.59999996424,352942.248,352955.5,352975.681,356031.63,1,40,27,
sequence,flow.Sequence,6_26,2023-11-17T21:28:35.962Z,,,,,,,,,,,3050.918999964255,completion,,,,,,,high,low,,,,,,true,,,,,false,356027.39999997616,356026.59999996424,352942.248,352955.5,352975.681,356031.63,1,40,,
trial,html.Screen,6_27_0,2023-11-17T21:28:39.241Z,,,,1,-1.077278111180185,-1.1530533996184025,,,true,hh,3274.7699999761535,response,1.3618804701210718,1.2,-1.2,0.795879970717208,1.2,-1.2,high,high,,ISIC_9525136.JPG,,ISIC_0026559.JPG,359,true,0.4500000000000003,hh,keypress(i),0,false,359306.6999999881,359306.39999997616,356015.15,356027.59999996424,356031.63,359321.429,1,40,28,
sequence,flow.Sequence,6_27,2023-11-17T21:28:39.241Z,,,,,,,,,,,3274.7699999761535,completion,,,,,,,high,high,,,,,,true,,,,,false,359307.1999999881,359306.39999997616,356015.15,356027.5,356031.63,359321.429,1,40,,
trial,html.Screen,6_28_0,2023-11-17T21:28:42.009Z,,,,1,-1.0659165756604234,-1.0867497316848906,,,true,hh,2753.1709999642335,response,1.268445326285509,1.2,-1.2,1.173734476257662,1.2,-1.2,high,high,,ISIC_5807608.JPG,,ISIC_5216586.JPG,40,true,0.14,hh,keypress(i),0,false,362075,362074.59999996424,359304.753,359307.39999997616,359321.429,362126.815,1,40,29,
sequence,flow.Sequence,6_28,2023-11-17T21:28:42.010Z,,,,,,,,,,,2753.1709999642335,completion,,,,,,,high,high,,,,,,true,,,,,false,362075.5,362074.59999996424,359304.753,359307.2999999523,359321.429,362126.815,1,40,,
trial,html.Screen,6_29_0,2023-11-17T21:28:44.537Z,,,,1,-1.058275612142778,0.7824898568540655,,,true,hl,2475.784999964235,response,0.8987343013179191,1.2,-1.2,-0.8149073454566363,1.2,-1.2,high,low,,ISIC_4906385.JPG,,ISIC_0472513.JPG,27,true,0.40000000000000024,hl,keypress(j),0,false,364602.89999997616,364602.59999996424,362060.169,362075.6999999881,362126.815,364615.017,1,40,30,
sequence,flow.Sequence,6_29,2023-11-17T21:28:44.538Z,,,,,,,,,,,2475.784999964235,completion,,,,,,,high,low,,,,,,true,,,,,false,364603.39999997616,364602.59999996424,362060.169,362075.59999996424,362126.815,364615.017,1,40,,
trial,html.Screen,6_30_0,2023-11-17T21:28:47.553Z,,,,1,-1.3379750533585932,-1.1671342614509763,,,true,hh,3003.2829999523237,response,1.34311625795084,1.2,-1.2,1.2071506593281005,1.2,-1.2,high,high,,ISIC_0063556.JPG,,ISIC_0011007.JPG,359,true,0.4500000000000003,hh,keypress(i),0,false,367618.59999996424,367618.2999999523,364598.528,364603.6999999881,364615.017,367670.938,1,40,31,
sequence,flow.Sequence,6_30,2023-11-17T21:28:47.553Z,,,,,,,,,,,3003.2829999523237,completion,,,,,,,high,high,,,,,,true,,,,,false,367619.09999996424,367618.2999999523,364598.528,364603.59999996424,364615.017,367670.938,1,40,,
trial,html.Screen,6_31_0,2023-11-17T21:28:50.209Z,,,,1,-1.2362557973341337,1.2548266183352603,,,true,hl,2603.3619999522925,response,1.0116417541846066,1.2,-1.2,-1.033442916947398,1.2,-1.2,high,low,,ISIC_0033886.JPG,,ISIC_0031389.JPG,27,true,0.40000000000000024,hl,keypress(j),0,false,370274.6999999881,370274.2999999523,367604.381,367619.2999999523,367670.938,370309.668,1,40,32,
sequence,flow.Sequence,6_31,2023-11-17T21:28:50.209Z,,,,,,,,,,,2603.3619999522925,completion,,,,,,,high,low,,,,,,true,,,,,false,370275.1999999881,370274.2999999523,367604.381,367619.1999999881,367670.938,370309.668,1,40,,
trial,html.Screen,6_32_0,2023-11-17T21:28:53.593Z,,,,1,1.1243896694621007,1.1772340944704969,,,true,ll,3348.731999976153,response,-0.9242629064104082,1.2,-1.2,-1.0085499824556403,1.2,-1.2,low,low,,ISIC_0062765.JPG,,ISIC_7795549.JPG,265,true,0.4500000000000003,ll,keypress(f),0,false,373658.7999999523,373658.39999997616,370292.971,370275.39999997616,370309.668,373699.318,1,40,33,
sequence,flow.Sequence,6_32,2023-11-17T21:28:53.594Z,,,,,,,,,,,3348.731999976153,completion,,,,,,,low,low,,,,,,true,,,,,false,373659.1999999881,373658.39999997616,370292.971,370275.39999997616,370309.668,373699.318,1,40,,
trial,html.Screen,6_33_0,2023-11-17T21:28:56.521Z,,,,1,-0.8830264383952469,0.8635562538060516,,,true,hl,2887.3819999880507,response,1.0685314915436992,1.2,-1.2,-0.8203833713472237,1.2,-1.2,high,low,,ISIC_0032258.JPG,,ISIC_0029374.JPG,27,true,0.40000000000000024,hl,keypress(j),0,false,376587.09999996424,376586.6999999881,373649.455,373659.5,373699.318,376621.969,1,40,34,
sequence,flow.Sequence,6_33,2023-11-17T21:28:56.522Z,,,,,,,,,,,2887.3819999880507,completion,,,,,,,high,low,,,,,,true,,,,,false,376587.59999996424,376586.6999999881,373649.455,373659.5,373699.318,376621.969,1,40,,
trial,html.Screen,6_34_0,2023-11-17T21:28:58.889Z,,,,1,-1.2724293858920366,-1.149360738769835,,,true,hh,2332.7309999880963,response,1.367502812408302,1.2,-1.2,1.0886888960437866,1.2,-1.2,high,high,,ISIC_1264725.JPG,,ISIC_0056677.JPG,359,true,0.4500000000000003,hh,keypress(i),0,false,378955.09999996424,378954.6999999881,376605.138,376587.89999997616,376621.969,378959.59,1,40,35,
sequence,flow.Sequence,6_34,2023-11-17T21:28:58.890Z,,,,,,,,,,,2332.7309999880963,completion,,,,,,,high,high,,,,,,true,,,,,false,378955.59999996424,378954.6999999881,376605.138,376587.6999999881,376621.969,378959.59,1,40,,
trial,html.Screen,6_35_0,2023-11-17T21:29:01.055Z,,,,1,-1.1843968275545205,-1.2828739728067764,,,true,hh,2161.4099999999744,response,1.1668613502915044,1.2,-1.2,1.327068780840367,1.2,-1.2,high,high,,ISIC_0002901.JPG,,ISIC_0054459.JPG,40,true,0.14,hh,keypress(i),0,false,381121,381121,378942.986,378955.89999997616,378959.59,381130.642,1,40,36,
sequence,flow.Sequence,6_35,2023-11-17T21:29:01.055Z,,,,,,,,,,,2161.4099999999744,completion,,,,,,,high,high,,,,,,true,,,,,false,381121.1999999881,381121,378942.986,378955.7999999523,378959.59,381130.642,1,40,,
trial,html.Screen,6_36_0,2023-11-17T21:29:03.985Z,,,,1,1.186629690487006,1.3269945600040771,,,true,ll,2919.9579999642447,response,-1.2253191093367526,1.2,-1.2,-1.241905252673026,1.2,-1.2,low,low,,ISIC_0015390.JPG,,ISIC_1195689.JPG,25,true,0.14,ll,keypress(f),0,false,384051,384050.59999996424,381113.876,381121.2999999523,381130.642,384070.129,1,40,37,
sequence,flow.Sequence,6_36,2023-11-17T21:29:03.986Z,,,,,,,,,,,2919.9579999642447,completion,,,,,,,low,low,,,,,,true,,,,,false,384051.5,384050.59999996424,381113.876,381121.1999999881,381130.642,384070.129,1,40,,
trial,html.Screen,6_37_0,2023-11-17T21:29:06.889Z,,,,1,1.2014901828022857,1.1484096197304636,,,true,ll,2884.5709999880637,response,-1.1843968275545205,1.2,-1.2,-1.2828739728067764,1.2,-1.2,low,low,,ISIC_0067808.JPG,,ISIC_0002901.JPG,25,true,0.14,ll,keypress(f),0,false,386955,386954.6999999881,384036.265,384051.7999999523,384070.129,386958.569,1,40,38,
sequence,flow.Sequence,6_37,2023-11-17T21:29:06.890Z,,,,,,,,,,,2884.5709999880637,completion,,,,,,,low,low,,,,,,true,,,,,false,386955.59999996424,386954.6999999881,384036.265,384051.6999999881,384070.129,386958.569,1,40,,
trial,html.Screen,6_38_0,2023-11-17T21:29:09.575Z,,,,1,1.0849202097813322,1.0851127310415287,,,true,ll,2682.3309999761404,response,-1.1870093485714288,1.2,-1.2,-1.3339880978442629,1.2,-1.2,low,low,,ISIC_0010289.JPG,,ISIC_8592235.JPG,25,true,0.14,ll,keypress(f),0,false,389641,389640.89999997616,386942.007,386955.7999999523,386958.569,389680.449,1,40,39,
sequence,flow.Sequence,6_38,2023-11-17T21:29:09.575Z,,,,,,,,,,,2682.3309999761404,completion,,,,,,,low,low,,,,,,true,,,,,false,389641.09999996424,389640.89999997616,386942.007,386955.7999999523,386958.569,389680.449,1,40,,
trial,html.Screen,6_39_0,2023-11-17T21:29:13.145Z,,,,1,1.2646773654288392,-0.952963803634235,,,true,lh,3530.150999964215,response,-0.8110121381849364,1.2,-1.2,0.7563142141851558,1.2,-1.2,low,high,,ISIC_1996356.JPG,,ISIC_0033605.JPG,26,true,0.4500000000000003,lh,keypress(e),0,false,393210.89999997616,393210.59999996424,389630.498,389641.1999999881,389680.449,393220.661,1,40,40,
sequence,flow.Sequence,6_39,2023-11-17T21:29:13.146Z,,,,,,,,,,,3530.150999964215,completion,,,,,,,low,high,,,,,,true,,,,,false,393211.39999997616,393210.59999996424,389630.498,389641.1999999881,389680.449,393220.661,1,40,,
practice_loop,flow.Loop,6,2023-11-17T21:29:13.146Z,,,,,,,,,,,153889.46899996424,completion,,,,,,,,,,,,,,true,,,,,false,393211.7999999523,393210.59999996424,239304.641,239313.39999997616,239321.131,393220.661,1,40,,
stair_instructions,html.Screen,7,2023-11-17T21:29:27.824Z,,,,,,,,,,,14668.238999976136,response,,,,,,,,,,,,,,,,continue,click button,,,407889.2999999523,407888.89999997616,393204.084,393211.89999997616,393220.661,407899.267,,,,
trial,html.Screen,8_0_0,2023-11-17T21:29:31.248Z,,,,2,0.0088741920055285,0.0058246074740588,,0.04,false,ll,3414.5329999523237,response,-1.5773717029872882,1.2,-1.2,-1.2252147363060195,1.2,-1.2,low,low,,ISIC_4136663.JPG,,ISIC_0031417.JPG,203,false,0.40000000000000024,lh,keypress(e),0,true,411313.89999997616,411313.7999999523,407882.805,407889.59999996424,407899.267,411339.252,1,40,1,
sequence,flow.Sequence,8_0,2023-11-17T21:29:31.248Z,,,,,,,,,,,3414.5329999523237,completion,,,,,,,low,low,,,,,,false,,,,,true,411314.09999996424,411313.7999999523,407882.805,407889.59999996424,407899.267,411339.252,1,40,,
trial,html.Screen,8_1_0,2023-11-17T21:29:36.095Z,,,,2,0.0388334549081915,-0.0303399972963369,,0.04,true,ll,4821.047999952338,response,-1.2541318165695772,1.15,-1.15,-1.085289936617366,1.15,-1.2,low,low,,ISIC_4961708.JPG,,ISIC_4277207.JPG,25,false,0.14,ll,keypress(f),0,true,416160.39999997616,416160.2999999523,411322.6,411314.09999996424,411339.252,416182.038,1,40,2,
sequence,flow.Sequence,8_1,2023-11-17T21:29:36.095Z,,,,,,,,,,,4821.047999952338,completion,,,,,,,low,low,,,,,,false,,,,,true,416160.5,416160.2999999523,411322.6,411314.09999996424,411339.252,416182.038,1,40,,
trial,html.Screen,8_2_0,2023-11-17T21:29:40.305Z,,,,2,-0.0076984477620101,-0.0069458408496562,,0.04,true,hl,4188.661999988079,response,1.0685314915436992,1.15,-1.1197108765934716,-0.8203833713472237,1.15,-1.15,high,low,,ISIC_0000434.JPG,,ISIC_0029374.JPG,26,false,0.3500000000000002,hl,keypress(j),0,true,420371,420370.6999999881,416148.854,416160.59999996424,416182.038,420373.629,1,40,3,
sequence,flow.Sequence,8_2,2023-11-17T21:29:40.306Z,,,,,,,,,,,4188.661999988079,completion,,,,,,,high,low,,,,,,false,,,,,true,420371.5,420370.6999999881,416148.854,416160.5,416182.038,420373.629,1,40,,
trial,html.Screen,8_3_0,2023-11-17T21:29:42.849Z,,,,2,-0.0076984477620101,-0.0069458408496562,,0.04,true,hh,2540.970999964222,response,1.1746004947382946,1.15,-1.1197108765934716,1.2207657619249948,1.15,-1.0999999999999999,high,high,,ISIC_0000434.JPG,,ISIC_0012069.JPG,27,false,0.1,hh,keypress(i),0,true,422915,422914.59999996424,420357.03,420371.6999999881,420373.629,422945.204,1,40,4,
sequence,flow.Sequence,8_3,2023-11-17T21:29:42.850Z,,,,,,,,,,,2540.970999964222,completion,,,,,,,high,high,,,,,,false,,,,,true,422915.5,422914.59999996424,420357.03,420371.6999999881,420373.629,422945.204,1,40,,
trial,html.Screen,8_4_0,2023-11-17T21:29:46.096Z,,,,2,-0.0258224118104549,0.0029364553353019,,0.04,true,lh,3215.995999988052,response,-0.8830264383952469,1.1476831283316447,-1.1197108765934716,0.8635562538060516,1.15,-1.0999999999999999,low,high,,ISIC_8325226.JPG,,ISIC_0032258.JPG,25,false,0.3800000000000002,lh,keypress(e),0,true,426161.39999997616,426161.1999999881,422911.931,422915.7999999523,422945.204,426184.831,1,40,5,
sequence,flow.Sequence,8_4,2023-11-17T21:29:46.096Z,,,,,,,,,,,3215.995999988052,completion,,,,,,,low,high,,,,,,false,,,,,true,426161.5,426161.1999999881,422911.931,422915.6999999881,422945.204,426184.831,1,40,,
trial,html.Screen,8_5_0,2023-11-17T21:29:49.538Z,,,,2,-0.0258224118104549,0.0029364553353019,,0.04,false,lh,3418.0689999761526,response,-0.8828738626295417,1.1476831283316447,-1.1197108765934716,0.8288177599439582,1.0999999999999999,-1.0999999999999999,low,high,,ISIC_8325226.JPG,,ISIC_0056041.JPG,25,false,0.3600000000000002,hh,keypress(i),0,true,429603.1999999881,429602.89999997616,426151.647,426161.6999999881,426184.831,429624.877,1,40,6,
sequence,flow.Sequence,8_5,2023-11-17T21:29:49.538Z,,,,,,,,,,,3418.0689999761526,completion,,,,,,,low,high,,,,,,false,,,,,true,429603.7999999523,429602.89999997616,426151.647,426161.59999996424,426184.831,429624.877,1,40,,
trial,html.Screen,8_6_0,2023-11-17T21:29:53.105Z,,,,2,0.0164027439304477,-0.0082910758715273,,0.04,true,hl,3545.7229999642586,response,0.8350129142228142,1.1476831283316447,-1.1697108765934716,-0.8172547818270586,1.0999999999999999,-1.0999999999999999,high,low,,ISIC_7381224.JPG,,ISIC_0301568.JPG,26,false,0.3200000000000002,hl,keypress(j),0,true,433170.7999999523,433170.59999996424,429591.676,429604,429624.877,433198.498,1,40,7,
sequence,flow.Sequence,8_6,2023-11-17T21:29:53.106Z,,,,,,,,,,,3545.7229999642586,completion,,,,,,,high,low,,,,,,false,,,,,true,433171.2999999523,433170.59999996424,429591.676,429603.89999997616,429624.877,433198.498,1,40,,
trial,html.Screen,8_7_0,2023-11-17T21:29:55.281Z,,,,2,-0.0283578106329894,0.0088840758711548,,0.04,true,lh,2148.2019999880577,response,-1.058275612142778,1.1476831283316447,-1.1697108765934716,0.7824898568540655,1.0999999999999999,-1.0999999999999999,low,high,,ISIC_0060707.JPG,,ISIC_4906385.JPG,26,false,0.3800000000000002,lh,keypress(e),0,true,435347,435346.6999999881,433165.111,433171.6999999881,433198.498,435352.695,1,40,8,
sequence,flow.Sequence,8_7,2023-11-17T21:29:55.282Z,,,,,,,,,,,2148.2019999880577,completion,,,,,,,low,high,,,,,,false,,,,,true,435347.5,435346.6999999881,433165.111,433171.59999996424,433198.498,435352.695,1,40,,
trial,html.Screen,8_8_0,2023-11-17T21:30:00.088Z,,,,2,0.0109416414475118,0.005246498750811,,0.04,false,hh,4800.90499996423,response,1.0665699221890637,1.1476831283316447,-1.1697108765934716,1.0106762707163983,1.0499999999999998,-1.0999999999999999,high,high,,ISIC_0064279.JPG,,ISIC_1630301.JPG,26,false,0.1,ll,keypress(f),0,true,440153.6999999881,440153.59999996424,435336.209,435347.7999999523,435352.695,440178.729,1,40,9,
sequence,flow.Sequence,8_8,2023-11-17T21:30:00.088Z,,,,,,,,,,,4800.90499996423,completion,,,,,,,high,high,,,,,,false,,,,,true,440153.7999999523,440153.59999996424,435336.209,435347.6999999881,435352.695,440178.729,1,40,,
trial,html.Screen,8_9_0,2023-11-17T21:30:03.098Z,,,,2,-0.0009714874637896,0.0174815595031679,,0.04,true,hl,2984.070999952324,response,0.9617893983965208,1.1976831283316447,-1.1697108765934716,-0.9453006131304652,1.0999999999999999,-1.0999999999999999,high,low,,ISIC_9848743.JPG,,ISIC_4229473.JPG,27,false,0.3500000000000002,hl,keypress(j),0,true,443163,443162.7999999523,440145.602,440153.89999997616,440178.729,443167.88,1,40,10,
sequence,flow.Sequence,8_9,2023-11-17T21:30:03.098Z,,,,,,,,,,,2984.070999952324,completion,,,,,,,high,low,,,,,,false,,,,,true,443163.59999996424,443162.7999999523,440145.602,440153.89999997616,440178.729,443167.88,1,40,,
trial,html.Screen,8_10_0,2023-11-17T21:30:06.288Z,,,,2,0.0164027439304477,-0.0082910758715273,,0.04,false,ll,3185.4199999523116,response,-1.1072126870290426,1.1976831283316447,-1.1697108765934716,-0.9917482735105084,1.0999999999999999,-1.0499999999999998,low,low,,ISIC_7381224.JPG,,ISIC_0071754.JPG,25,false,0.13,hh,keypress(i),0,true,446353.39999997616,446353.2999999523,443151.45,443163.7999999523,443167.88,446374.112,1,40,11,
sequence,flow.Sequence,8_10,2023-11-17T21:30:06.288Z,,,,,,,,,,,3185.4199999523116,completion,,,,,,,low,low,,,,,,false,,,,,true,446353.5,446353.2999999523,443151.45,443163.7999999523,443167.88,446374.112,1,40,,
trial,html.Screen,8_11_0,2023-11-17T21:30:11.066Z,,,,2,0.0164027439304477,-0.0082910758715273,,0.04,true,hl,4756.987999964214,response,0.8500530224490773,1.1976831283316447,-1.1697108765934716,-1.0893360711742854,1.0999999999999999,-1.0999999999999999,high,low,,ISIC_7381224.JPG,,ISIC_2998367.JPG,27,false,0.3500000000000002,hl,keypress(j),0,true,451131.39999997616,451131.09999996424,446340.831,446353.59999996424,446374.112,451150.681,1,40,12,
sequence,flow.Sequence,8_11,2023-11-17T21:30:11.066Z,,,,,,,,,,,4756.987999964214,completion,,,,,,,high,low,,,,,,false,,,,,true,451131.89999997616,451131.09999996424,446340.831,446353.59999996424,446374.112,451150.681,1,40,,
trial,html.Screen,8_12_0,2023-11-17T21:30:13.393Z,,,,2,-0.0367744112927588,-0.0324865661712824,,0.04,false,hh,2307.8190000000177,response,1.061329542878903,1.1476831283316447,-1.1697108765934716,1.0605755702127622,1.0999999999999999,-1.0999999999999999,high,high,,ISIC_4523565.JPG,,ISIC_0065622.JPG,28,false,0.1,lh,keypress(e),0,true,453458.7999999523,453458.5,451116.905,451132.09999996424,451150.681,453471.296,1,40,13,
sequence,flow.Sequence,8_12,2023-11-17T21:30:13.394Z,,,,,,,,,,,2307.8190000000177,completion,,,,,,,high,high,,,,,,false,,,,,true,453459.2999999523,453458.5,451116.905,451132.09999996424,451150.681,453471.296,1,40,,
trial,html.Screen,8_13_0,2023-11-17T21:30:15.761Z,,,,2,0.0088741920055285,0.0058246074740588,,0.04,false,hl,2355.303999964264,response,0.9633172970727744,1.1976831283316447,-1.1697108765934716,-0.8472659344792351,1.0999999999999999,-1.0999999999999999,high,low,,ISIC_4136663.JPG,,ISIC_0067172.JPG,27,false,0.3500000000000002,lh,keypress(e),0,true,455827,455826.59999996424,453454.742,453459.59999996424,453471.296,455859.247,1,40,14,
sequence,flow.Sequence,8_13,2023-11-17T21:30:15.762Z,,,,,,,,,,,2355.303999964264,completion,,,,,,,high,low,,,,,,false,,,,,true,455827.39999997616,455826.59999996424,453454.742,453459.5,453471.296,455859.247,1,40,,
trial,html.Screen,8_14_0,2023-11-17T21:30:20.570Z,,,,2,0.001445457736793,0.0165307427449982,,0.04,false,hl,4775.652999976184,response,1.2020012168275056,1.1976831283316447,-1.1697108765934716,-0.923753102263735,1.0999999999999999,-1.15,high,low,,ISIC_0027350.JPG,,ISIC_0000022.JPG,26,false,0.3700000000000002,ll,keypress(f),0,true,460635.1999999881,460634.89999997616,455826.125,455827.6999999881,455859.247,460651.945,1,40,15,
sequence,flow.Sequence,8_14,2023-11-17T21:30:20.570Z,,,,,,,,,,,4775.652999976184,completion,,,,,,,high,low,,,,,,false,,,,,true,460635.59999996424,460634.89999997616,455826.125,455827.6999999881,455859.247,460651.945,1,40,,
trial,html.Screen,8_15_0,2023-11-17T21:30:24.314Z,,,,2,-0.0367706518941078,0.0161069838272154,,0.04,true,hl,3726.8549999523093,response,0.9089402323867112,1.1976831283316447,-1.1697108765934716,-0.8034544077281132,1.0999999999999999,-1.15,high,low,,ISIC_0033419.JPG,,ISIC_3585381.JPG,26,false,0.3700000000000002,hl,keypress(j),0,true,464379.1999999881,464378.7999999523,460635.306,460635.89999997616,460651.945,464409.255,1,40,16,
sequence,flow.Sequence,8_15,2023-11-17T21:30:24.314Z,,,,,,,,,,,3726.8549999523093,completion,,,,,,,high,low,,,,,,false,,,,,true,464379.59999996424,464378.7999999523,460635.306,460635.89999997616,460651.945,464409.255,1,40,,
trial,html.Screen,8_16_0,2023-11-17T21:30:28.321Z,,,,2,0.0388181790775959,-0.0049623405709465,,0.04,false,lh,3977.4449999880744,response,-0.84290786638064,1.1976831283316447,-1.1697108765934716,0.7332521189371746,1.0999999999999999,-1.0999999999999999,low,high,,ISIC_0061880.JPG,,ISIC_4708642.JPG,26,false,0.3800000000000002,hl,keypress(j),0,true,468387,468386.6999999881,464376.047,464379.7999999523,464409.255,468400.365,1,40,17,
sequence,flow.Sequence,8_16,2023-11-17T21:30:28.322Z,,,,,,,,,,,3977.4449999880744,completion,,,,,,,low,high,,,,,,false,,,,,true,468387.5,468386.6999999881,464376.047,464379.7999999523,464409.255,468400.365,1,40,,
trial,html.Screen,8_17_0,2023-11-17T21:30:32.833Z,,,,2,-0.0258224118104549,0.0029364553353019,,0.04,false,hh,4498.0349999761675,response,1.1441767540243375,1.1976831283316447,-1.1697108765934716,1.0949087392471728,1.15,-1.0999999999999999,high,high,,ISIC_8325226.JPG,,ISIC_0054146.JPG,29,false,0.13,lh,keypress(e),0,true,472898.59999996424,472898.39999997616,468383.892,468387.6999999881,468400.365,472909.133,1,40,18,
sequence,flow.Sequence,8_17,2023-11-17T21:30:32.834Z,,,,,,,,,,,4498.0349999761675,completion,,,,,,,high,high,,,,,,false,,,,,true,472899.09999996424,472898.39999997616,468383.892,468387.6999999881,468400.365,472909.133,1,40,,
trial,html.Screen,8_18_0,2023-11-17T21:30:38.290Z,,,,2,-0.0076984477620101,-0.0069458408496562,,0.04,false,ll,5445.666999952344,response,-1.2804054832904397,1.1976831283316447,-1.1697108765934716,-1.171271535505083,1.15,-1.0999999999999999,low,low,,ISIC_0000434.JPG,,ISIC_7889838.JPG,25,false,0.13,hl,keypress(j),0,true,478355.1999999881,478354.7999999523,472892.522,472899.2999999523,472909.133,478369.839,1,40,19,
sequence,flow.Sequence,8_18,2023-11-17T21:30:38.290Z,,,,,,,,,,,5445.666999952344,completion,,,,,,,low,low,,,,,,false,,,,,true,478355.6999999881,478354.7999999523,472892.522,472899.2999999523,472909.133,478369.839,1,40,,
trial,html.Screen,8_19_0,2023-11-17T21:30:40.578Z,,,,2,0.039520186367207,0.0377961575607372,,0.04,false,hh,2272.960999952338,response,1.1441767540243375,1.1976831283316447,-1.1697108765934716,1.0949087392471728,1.15,-1.0999999999999999,high,high,,ISIC_6356149.JPG,,ISIC_0054146.JPG,29,false,0.13,lh,keypress(e),0,true,480643.09999996424,480642.7999999523,478353.16,478356,478369.839,480690.939,1,40,20,
sequence,flow.Sequence,8_19,2023-11-17T21:30:40.578Z,,,,,,,,,,,2272.960999952338,completion,,,,,,,high,high,,,,,,false,,,,,true,480643.59999996424,480642.7999999523,478353.16,478355.7999999523,478369.839,480690.939,1,40,,
trial,html.Screen,8_20_0,2023-11-17T21:30:44.713Z,,,,2,0.039520186367207,0.0377961575607372,,0.04,true,lh,4087.660999964224,response,-1.2054195059663604,1.1976831283316447,-1.1697108765934716,0.7760611240296147,1.0999999999999999,-1.0999999999999999,low,high,,ISIC_6356149.JPG,,ISIC_8712559.JPG,26,false,0.3800000000000002,lh,keypress(e),0,true,484779,484778.59999996424,480641.069,480643.89999997616,480690.939,484782.323,1,40,21,
sequence,flow.Sequence,8_20,2023-11-17T21:30:44.714Z,,,,,,,,,,,4087.660999964224,completion,,,,,,,low,high,,,,,,false,,,,,true,484779.5,484778.59999996424,480641.069,480643.7999999523,480690.939,484782.323,1,40,,
trial,html.Screen,8_21_0,2023-11-17T21:30:46.889Z,,,,2,-0.0076984477620101,-0.0069458408496562,,0.04,false,hh,2172.376999988104,response,1.2635548590325487,1.1976831283316447,-1.1697108765934716,0.9985976786538492,1.0999999999999999,-1.0999999999999999,high,high,,ISIC_0000434.JPG,,ISIC_0011703.JPG,25,false,0.12,lh,keypress(e),0,true,486955.09999996424,486954.6999999881,484765.523,484779.6999999881,484782.323,486969.836,1,40,22,
sequence,flow.Sequence,8_21,2023-11-17T21:30:46.890Z,,,,,,,,,,,2172.376999988104,completion,,,,,,,high,high,,,,,,false,,,,,true,486955.5,486954.6999999881,484765.523,484779.6999999881,484782.323,486969.836,1,40,,
trial,html.Screen,8_22_0,2023-11-17T21:30:50.568Z,,,,2,-0.0009714874637896,0.0174815595031679,,0.04,true,hl,3663.363999988069,response,1.0685314915436992,1.1976831283316447,-1.1697108765934716,-0.8203833713472237,0.8373294013417318,-1.0999999999999999,high,low,,ISIC_9848743.JPG,,ISIC_0029374.JPG,27,false,0.3500000000000002,hl,keypress(j),0,true,490633.2999999523,490633.1999999881,486953.377,486955.7999999523,486969.836,490643.64,1,40,23,
sequence,flow.Sequence,8_22,2023-11-17T21:30:50.568Z,,,,,,,,,,,3663.363999988069,completion,,,,,,,high,low,,,,,,false,,,,,true,490633.39999997616,490633.1999999881,486953.377,486955.6999999881,486969.836,490643.64,1,40,,
trial,html.Screen,8_23_0,2023-11-17T21:30:55.700Z,,,,2,-0.0258224118104549,0.0029364553353019,,0.04,false,hh,5118.759999976144,response,1.1325407648058876,1.1976831283316447,-1.1697108765934716,0.930000842576531,0.8373294013417318,-1.0499999999999998,high,high,,ISIC_8325226.JPG,,ISIC_0062364.JPG,30,false,0.1,lh,keypress(e),0,true,495762.59999996424,495762.39999997616,490627.165,490633.5,490643.64,495770.305,1,40,24,
sequence,flow.Sequence,8_23,2023-11-17T21:30:55.701Z,,,,,,,,,,,5118.759999976144,completion,,,,,,,high,high,,,,,,false,,,,,true,495763,495762.39999997616,490627.165,490633.5,490643.64,495770.305,1,40,,
trial,html.Screen,8_24_0,2023-11-17T21:31:00.709Z,,,,2,-0.0044063257337227,-0.0172548282859886,,0.04,true,hh,5000.394999988086,response,1.2637655821850098,1.1976831283316447,-1.1697108765934716,0.8883896910883083,0.8373294013417318,-1.0499999999999998,high,high,,ISIC_7413786.JPG,,ISIC_0032005.JPG,30,false,0.1,hh,keypress(i),0,true,500771.09999996424,500770.6999999881,495753.543,495763.1999999881,495770.305,500796.746,1,40,25,
sequence,flow.Sequence,8_24,2023-11-17T21:31:00.709Z,,,,,,,,,,,5000.394999988086,completion,,,,,,,high,high,,,,,,false,,,,,true,500771.59999996424,500770.6999999881,495753.543,495763.1999999881,495770.305,500796.746,1,40,,
trial,html.Screen,8_25_0,2023-11-17T21:31:03.269Z,,,,2,-0.0286056110007553,-0.036125199756515,,0.04,false,hl,2533.8539999642526,response,1.2594580992890123,1.1976831283316447,-1.1697108765934716,-0.8833175387485132,1.026077636636659,-1.0499999999999998,high,low,,ISIC_6535558.JPG,,ISIC_0011933.JPG,25,false,0.3200000000000002,lh,keypress(e),0,true,503331,503330.59999996424,500763.454,500771.6999999881,500796.746,503335.022,1,40,26,
sequence,flow.Sequence,8_25,2023-11-17T21:31:03.269Z,,,,,,,,,,,2533.8539999642526,completion,,,,,,,high,low,,,,,,false,,,,,true,503331.5,503330.59999996424,500763.454,500771.6999999881,500796.746,503335.022,1,40,,
trial,html.Screen,8_26_0,2023-11-17T21:31:06.973Z,,,,2,0.0065172941585523,-0.0118857043117315,,0.04,false,ll,3699.777999952319,response,-1.1441960791049337,1.1976831283316447,-1.1697108765934716,-1.0156321899655198,1.026077636636659,-1.0999999999999999,low,low,,ISIC_6119202.JPG,,ISIC_4023381.JPG,25,false,0.13,hh,keypress(i),0,true,507035.09999996424,507034.7999999523,503318.57,503331.7999999523,503335.022,507058.936,1,40,27,
sequence,flow.Sequence,8_26,2023-11-17T21:31:06.973Z,,,,,,,,,,,3699.777999952319,completion,,,,,,,low,low,,,,,,false,,,,,true,507035.59999996424,507034.7999999523,503318.57,503331.6999999881,503335.022,507058.936,1,40,,
trial,html.Screen,8_27_0,2023-11-17T21:31:11.085Z,,,,2,0.0388334549081915,-0.0303399972963369,,0.04,true,lh,4087.963999976171,response,-1.0369885917487718,1.1976831283316447,-1.1697108765934716,0.8486937878412699,1.026077636636659,-1.15,low,high,,ISIC_4961708.JPG,,ISIC_6917681.JPG,27,false,0.3300000000000002,lh,keypress(e),0,true,511147.39999997616,511146.89999997616,507025.734,507035.7999999523,507058.936,511150.287,1,40,28,
sequence,flow.Sequence,8_27,2023-11-17T21:31:11.085Z,,,,,,,,,,,4087.963999976171,completion,,,,,,,low,high,,,,,,false,,,,,true,511147.89999997616,511146.89999997616,507025.734,507035.6999999881,507058.936,511150.287,1,40,,
trial,html.Screen,8_28_0,2023-11-17T21:31:13.731Z,,,,2,0.0065172941585523,-0.0118857043117315,,0.04,false,ll,2642.912999988068,response,-1.033832433609739,1.1976831283316447,-1.1697108765934716,-1.139863018685685,1.026077636636659,-1.15,low,low,,ISIC_6119202.JPG,,ISIC_0008510.JPG,25,false,0.14,hl,keypress(j),0,true,513793.1999999881,513793.1999999881,511133.757,511148.1999999881,511150.287,513822.085,1,40,29,
sequence,flow.Sequence,8_28,2023-11-17T21:31:13.731Z,,,,,,,,,,,2642.912999988068,completion,,,,,,,low,low,,,,,,false,,,,,true,513793.39999997616,513793.1999999881,511133.757,511148.1999999881,511150.287,513822.085,1,40,,
trial,html.Screen,8_29_0,2023-11-17T21:31:16.716Z,,,,2,-0.0283578106329894,0.0088840758711548,,0.04,true,lh,2956.2149999522953,response,-1.0369885917487718,1.1976831283316447,-1.1697108765934716,0.8486937878412699,1.026077636636659,-1.15,low,high,,ISIC_0060707.JPG,,ISIC_6917681.JPG,27,false,0.3300000000000002,lh,keypress(e),0,true,516778.6999999881,516778.2999999523,513788.678,513793.5,513822.085,516794.532,1,40,30,
sequence,flow.Sequence,8_29,2023-11-17T21:31:16.717Z,,,,,,,,,,,2956.2149999522953,completion,,,,,,,low,high,,,,,,false,,,,,true,516779.09999996424,516778.2999999523,513788.678,513793.39999997616,513822.085,516794.532,1,40,,
trial,html.Screen,8_30_0,2023-11-17T21:31:22.181Z,,,,2,-0.0044063257337227,-0.0172548282859886,,0.04,true,ll,5448.867999976152,response,-1.2600330864275875,1.1976831283316447,-1.1697108765934716,-1.0958628838888655,0.976077636636659,-1.15,low,low,,ISIC_7413786.JPG,,ISIC_0026996.JPG,25,false,0.14,ll,keypress(f),0,true,522243.6999999881,522243.39999997616,516777.826,516779.2999999523,516794.532,522255.191,1,40,31,
sequence,flow.Sequence,8_30,2023-11-17T21:31:22.182Z,,,,,,,,,,,5448.867999976152,completion,,,,,,,low,low,,,,,,false,,,,,true,522244.1999999881,522243.39999997616,516777.826,516779.1999999881,516794.532,522255.191,1,40,,
trial,html.Screen,8_31_0,2023-11-17T21:31:27.901Z,,,,2,-0.0119001144851157,0.0063430114540141,,0.04,false,lh,5707.608999952325,response,-0.989300717252516,1.1976831283316447,-1.0164257378188186,0.7908280206937478,0.976077636636659,-1.0164257378188186,low,high,,ISIC_0003822.JPG,,ISIC_6416533.JPG,26,false,0.2500000000000001,hh,keypress(i),0,true,527963.0999999642,527962.7999999523,522238.562,522244.5,522255.191,527966.402,1,40,32,
sequence,flow.Sequence,8_31,2023-11-17T21:31:27.901Z,,,,,,,,,,,5707.608999952325,completion,,,,,,,low,high,,,,,,false,,,,,true,527963.6999999881,527962.7999999523,522238.562,522244.39999997616,522255.191,527966.402,1,40,,
trial,html.Screen,8_32_0,2023-11-17T21:31:31.413Z,,,,2,-0.0044063257337227,-0.0172548282859886,,0.04,false,hh,3508.297999988077,response,1.2635548590325487,1.1976831283316447,-1.0664257378188187,0.9985976786538492,0.976077636636659,-1.0164257378188186,high,high,,ISIC_7413786.JPG,,ISIC_0011703.JPG,25,false,0.11,lh,keypress(e),0,true,531475.0999999642,531474.6999999881,527949.67,527963.8999999762,527966.402,531490.075,1,40,33,
sequence,flow.Sequence,8_32,2023-11-17T21:31:31.413Z,,,,,,,,,,,3508.297999988077,completion,,,,,,,high,high,,,,,,false,,,,,true,531475.6999999881,531474.6999999881,527949.67,527963.7999999523,527966.402,531490.075,1,40,,
trial,html.Screen,8_33_0,2023-11-17T21:31:34.557Z,,,,2,0.039520186367207,0.0377961575607372,,0.04,false,hh,3129.224999952363,response,1.288413316661119,1.1976831283316447,-1.0664257378188187,0.7843395519845624,0.8447128496737984,-1.0164257378188186,high,high,,ISIC_6356149.JPG,,ISIC_0065346.JPG,29,false,0.1,lh,keypress(e),0,true,534619.6999999881,534619.2999999523,531473.323,531475.8999999762,531490.075,534629.25,1,40,34,
sequence,flow.Sequence,8_33,2023-11-17T21:31:34.558Z,,,,,,,,,,,3129.224999952363,completion,,,,,,,high,high,,,,,,false,,,,,true,534620.0999999642,534619.2999999523,531473.323,531475.7999999523,531490.075,534629.25,1,40,,
trial,html.Screen,8_34_0,2023-11-17T21:31:39.125Z,,,,2,-0.0258224118104549,0.0029364553353019,,0.04,false,ll,4557.949999988079,response,-1.1055382068806878,1.1976831283316447,-1.0664257378188187,-1.0166010471189206,0.8447128496737984,-1.0164257378188186,low,low,,ISIC_8325226.JPG,,ISIC_5420979.JPG,26,false,0.1,hh,keypress(i),0,true,539187.5999999642,539187.1999999881,534612.7,534620.3999999762,534629.25,539204.852,1,40,35,
sequence,flow.Sequence,8_34,2023-11-17T21:31:39.126Z,,,,,,,,,,,4557.949999988079,completion,,,,,,,low,low,,,,,,false,,,,,true,539188.1999999881,539187.1999999881,534612.7,534620.3999999762,534629.25,539204.852,1,40,,
trial,html.Screen,8_35_0,2023-11-17T21:31:42.260Z,,,,2,0.001445457736793,0.0165307427449982,,0.04,false,hl,3117.847999988124,response,1.004142980655507,1.1976831283316447,-1.1164257378188187,-0.7749773174967559,0.8447128496737984,-1.0664257378188187,high,low,,ISIC_0027350.JPG,,ISIC_3936223.JPG,25,false,0.3200000000000002,lh,keypress(e),0,true,542323,542322.6999999881,539188.341,539188.5999999642,539204.852,542327.585,1,40,36,
sequence,flow.Sequence,8_35,2023-11-17T21:31:42.261Z,,,,,,,,,,,3117.847999988124,completion,,,,,,,high,low,,,,,,false,,,,,true,542323.5,542322.6999999881,539188.341,539188.5,539204.852,542327.585,1,40,,
trial,html.Screen,8_36_0,2023-11-17T21:31:45.189Z,,,,2,0.0241900387072296,-0.0339955304424736,,0.04,false,ll,2923.5149999642745,response,-1.1441960791049337,1.1976831283316447,-1.1164257378188187,-1.0156321899655198,0.8447128496737984,-1.1164257378188187,low,low,,ISIC_0010789.JPG,,ISIC_4023381.JPG,32,false,0.14,hl,keypress(j),0,true,545251.3999999762,545251.0999999642,542311.085,542323.6999999881,542327.585,545266.709,1,40,37,
sequence,flow.Sequence,8_36,2023-11-17T21:31:45.189Z,,,,,,,,,,,2923.5149999642745,completion,,,,,,,low,low,,,,,,false,,,,,true,545251.8999999762,545251.0999999642,542311.085,542323.6999999881,542327.585,545266.709,1,40,,
trial,html.Screen,8_37_0,2023-11-17T21:31:48.348Z,,,,2,0.0065172941585523,-0.0118857043117315,,0.04,false,ll,3143.8909999642055,response,-1.274417010249866,1.1976831283316447,-1.1664257378188188,-1.0725495669014795,0.8447128496737984,-1.1164257378188187,low,low,,ISIC_6119202.JPG,,ISIC_8849004.JPG,27,false,0.14,hh,keypress(i),0,true,548410.8999999762,548410.5999999642,545250.173,545252.1999999881,545266.709,548422.786,1,40,38,
sequence,flow.Sequence,8_37,2023-11-17T21:31:48.349Z,,,,,,,,,,,3143.8909999642055,completion,,,,,,,low,low,,,,,,false,,,,,true,548411.3999999762,548410.5999999642,545250.173,545252.0999999642,545266.709,548422.786,1,40,,
trial,html.Screen,8_38_0,2023-11-17T21:31:50.789Z,,,,2,0.0388181790775959,-0.0049623405709465,,0.04,true,lh,2428.0139999523526,response,-1.075512775389519,1.1976831283316447,-1.1664257378188188,1.0454702683049502,0.8447128496737984,-1.1664257378188188,low,high,,ISIC_0061880.JPG,,ISIC_0033603.JPG,28,false,0.28000000000000014,lh,keypress(e),0,true,550851.0999999642,550850.7999999523,548406.319,548411.6999999881,548422.786,550860.867,1,40,39,
sequence,flow.Sequence,8_38,2023-11-17T21:31:50.789Z,,,,,,,,,,,2428.0139999523526,completion,,,,,,,low,high,,,,,,false,,,,,true,550851.5,550850.7999999523,548406.319,548411.5999999642,548422.786,550860.867,1,40,,
trial,html.Screen,8_39_0,2023-11-17T21:31:54.351Z,,,,2,-0.0044063257337227,-0.0172548282859886,,0.04,false,lh,3549.6330000000307,response,-0.930804711032185,1.1976831283316447,-1.1664257378188188,0.7294067991476295,0.7947128496737984,-1.1664257378188188,low,high,,ISIC_7413786.JPG,,ISIC_5067317.JPG,25,false,0.2400000000000001,hl,keypress(j),0,true,554410.6999999881,554410.5,550844.335,550851.7999999523,550860.867,554417.776,1,40,40,
sequence,flow.Sequence,8_39,2023-11-17T21:31:54.352Z,,,,,,,,,,,3549.6330000000307,completion,,,,,,,low,high,,,,,,false,,,,,true,554411.2999999523,554410.5,550844.335,550851.6999999881,550860.867,554417.776,1,40,,
stair_loop,flow.Loop,8,2023-11-17T21:31:54.352Z,,,,,,,,,,,146511.233,completion,,,,,,,,,,,,,,false,,,,,true,554411.5999999642,554410.5,407882.805,407889.39999997616,407899.267,554417.776,1,40,,
exp_instructions,html.Screen,9,2023-11-17T21:32:14.087Z,,,,,,,,,,,19728.023999952362,response,,,,,,,,,,,,,,,,continue,keypress(Space),,,574146.6999999881,574145.7999999523,554401.26,554411.7999999523,554417.776,574172.914,,,,
trial,html.Screen,10_0_0,2023-11-17T21:32:16.918Z,,,,1,-0.0118382036798625,-0.0300588245877227,,0.04,true,lh,2804.6859999642475,response,-1.199471562817528,1.1976831283316445,-1.140732564144878,0.8631260534979347,0.9316799622417529,-1.0923915820184686,low,high,,ISIC_4748605.JPG,9,ISIC_0030754.JPG,25,false,0.28000000000000014,lh,keypress(e),0,false,576977.6999999881,576977.5999999642,574139.736,574147,574172.914,576995.914,4,500,1,
break,html.Screen,10_0_1,2023-11-17T21:32:16.919Z,,,,,,,,,,,NaN,,,,,,,,low,high,,,,,,false,,,,,false,576978.1999999881,576978.0999999642,,576977.7999999523,,576995.914,4,500,,
break_continue,html.Screen,10_0_2,2023-11-17T21:32:16.919Z,,,,,,,,,,,NaN,,,,,,,,low,high,,,,,,false,,,,,false,576978.5,576978.2999999523,,576978.1999999881,,576995.914,4,500,,
sequence,flow.Sequence,10_0,2023-11-17T21:32:16.919Z,,,,,,,,,,,2805.3859999523265,completion,,,,,,,low,high,,,,,,false,,,,,false,576978.5999999642,576978.2999999523,574139.736,574147,574172.914,576995.914,4,500,,
trial,html.Screen,10_1_0,2023-11-17T21:32:19.863Z,,,,1,0.0065172941585523,-0.0118857043117315,,0.04,true,lh,2926.7859999880893,response,-1.1711869602302662,1.1976831283316445,-1.140732564144878,0.7434626355969514,0.9316799622417529,-1.0923915820184686,low,high,,ISIC_6119202.JPG,8,ISIC_0059052.JPG,25,false,0.28000000000000014,lh,keypress(e),0,false,579923,579922.6999999881,576961.65,576978.5999999642,576995.914,579950.821,4,500,2,
break,html.Screen,10_1_1,2023-11-17T21:32:19.865Z,,,,,,,,,,,NaN,,,,,,,,low,high,,,,,,false,,,,,false,579924.1999999881,579924,,579923.3999999762,,579950.821,4,500,,
break_continue,html.Screen,10_1_2,2023-11-17T21:32:19.866Z,,,,,,,,,,,NaN,,,,,,,,low,high,,,,,,false,,,,,false,579925.1999999881,579924.7999999523,,579924.5,,579950.821,4,500,,
sequence,flow.Sequence,10_1,2023-11-17T21:32:19.866Z,,,,,,,,,,,2928.8859999523265,completion,,,,,,,low,high,,,,,,false,,,,,false,579925.5,579924.7999999523,576961.65,576978.5999999642,576995.914,579950.821,4,500,,
trial,html.Screen,10_2_0,2023-11-17T21:32:25.006Z,,,,1,0.001445457736793,0.0165307427449982,,0.04,false,hl,5114.778999964241,response,1.004142980655507,1.1976831283316445,-1.140732564144878,-0.7749773174967559,0.9316799622417529,-1.0923915820184686,high,low,,ISIC_0027350.JPG,9,ISIC_3936223.JPG,27,false,0.3500000000000002,hh,keypress(i),0,false,585065.7999999523,585065.5999999642,579917.608,579925.8999999762,579950.821,585077.449,4,500,3,
break,html.Screen,10_2_1,2023-11-17T21:32:25.007Z,,,,,,,,,,,NaN,,,,,,,,high,low,,,,,,false,,,,,false,585066.1999999881,585066.0999999642,,585065.8999999762,,585077.449,4,500,,
break_continue,html.Screen,10_2_2,2023-11-17T21:32:25.007Z,,,,,,,,,,,NaN,,,,,,,,high,low,,,,,,false,,,,,false,585066.5,585066.2999999523,,585066.1999999881,,585077.449,4,500,,
sequence,flow.Sequence,10_2,2023-11-17T21:32:25.007Z,,,,,,,,,,,5115.47899995232,completion,,,,,,,high,low,,,,,,false,,,,,false,585066.5,585066.2999999523,579917.608,579925.7999999523,579950.821,585077.449,4,500,,
trial,html.Screen,10_3_0,2023-11-17T21:32:27.551Z,,,,1,-0.0308384937406319,0.0038396364323947,,0.04,false,ll,2533.150999964215,response,-1.0659165756604234,1.1976831283316445,-1.140732564144878,-1.0867497316848906,0.9316799622417529,-1.0923915820184686,low,low,,ISIC_0029825.JPG,9,ISIC_5807608.JPG,28,false,0.13,hl,keypress(j),0,false,587611,587610.5999999642,585060.881,585066.5999999642,585077.449,587615.742,4,500,4,
break,html.Screen,10_3_1,2023-11-17T21:32:27.553Z,,,,,,,,,,,NaN,,,,,,,,low,low,,,,,,false,,,,,false,587613.0999999642,587612.5999999642,,587611.5999999642,,587615.742,4,500,,
break_continue,html.Screen,10_3_2,2023-11-17T21:32:27.555Z,,,,,,,,,,,NaN,,,,,,,,low,low,,,,,,false,,,,,false,587614.6999999881,587613.8999999762,,587613.5,,587615.742,4,500,,
sequence,flow.Sequence,10_3,2023-11-17T21:32:27.555Z,,,,,,,,,,,2536.450999976136,completion,,,,,,,low,low,,,,,,false,,,,,false,587614.7999999523,587613.8999999762,585060.881,585066.5999999642,585077.449,587615.742,4,500,,
trial,html.Screen,10_4_0,2023-11-17T21:32:31.887Z,,,,1,0.0388334549081915,-0.0303399972963369,,0.04,true,hh,4330.557999952347,response,1.2729767120857618,1.1976831283316445,-1.140732564144878,0.9117273752480448,0.9316799622417529,-1.0923915820184686,high,high,,ISIC_4961708.JPG,9,ISIC_0010775.JPG,29,false,0.11,hh,keypress(i),0,false,591946.6999999881,591946.2999999523,587599.048,587614.8999999762,587615.742,591974.218,4,500,5,
break,html.Screen,10_4_1,2023-11-17T21:32:31.888Z,,,,,,,,,,,NaN,,,,,,,,high,high,,,,,,false,,,,,false,591947.8999999762,591947.6999999881,,591947,,591974.218,4,500,,
break_continue,html.Screen,10_4_2,2023-11-17T21:32:31.889Z,,,,,,,,,,,NaN,,,,,,,,high,high,,,,,,false,,,,,false,591948.8999999762,591948.5,,591948.1999999881,,591974.218,4,500,,
sequence,flow.Sequence,10_4,2023-11-17T21:32:31.890Z,,,,,,,,,,,4332.758000000031,completion,,,,,,,high,high,,,,,,false,,,,,false,591949.1999999881,591948.5,587599.048,587614.8999999762,587615.742,591974.218,4,500,,
trial,html.Screen,10_5_0,2023-11-17T21:32:35.272Z,,,,1,0.0065172941585523,-0.0118857043117315,,0.04,false,hl,3356.6819999761647,response,1.045301444872812,1.1976831283316445,-1.140732564144878,-1.0872560254441277,0.9316799622417529,-1.0923915820184686,high,low,,ISIC_6119202.JPG,9,ISIC_4507700.JPG,27,false,0.3500000000000002,ll,keypress(f),0,false,595331.2999999523,595330.8999999762,591941.083,591949.5,591974.218,595347.468,4,500,6,
break,html.Screen,10_5_1,2023-11-17T21:32:35.273Z,,,,,,,,,,,NaN,,,,,,,,high,low,,,,,,false,,,,,false,595332.3999999762,595332.0999999642,,595331.5999999642,,595347.468,4,500,,
break_continue,html.Screen,10_5_2,2023-11-17T21:32:35.274Z,,,,,,,,,,,NaN,,,,,,,,high,low,,,,,,false,,,,,false,595333.2999999523,595332.8999999762,,595332.6999999881,,595347.468,4,500,,
sequence,flow.Sequence,10_5,2023-11-17T21:32:35.274Z,,,,,,,,,,,3358.6819999761647,completion,,,,,,,high,low,,,,,,false,,,,,false,595333.6999999881,595332.8999999762,591941.083,591949.2999999523,591974.218,595347.468,4,500,,
trial,html.Screen,10_6_0,2023-11-17T21:32:39.647Z,,,,1,-0.0258224118104549,0.0029364553353019,,0.04,false,lh,4359.231999988086,response,-0.8828738626295417,1.1976831283316445,-1.140732564144878,0.8288177599439582,0.9316799622417529,-1.0923915820184686,low,high,,ISIC_8325226.JPG,9,ISIC_0056041.JPG,25,false,0.28000000000000014,hh,keypress(i),0,false,599707.0999999642,599706.6999999881,595330.945,595333.8999999762,595347.468,599722.626,4,500,7,
break,html.Screen,10_6_1,2023-11-17T21:32:39.649Z,,,,,,,,,,,NaN,,,,,,,,low,high,,,,,,false,,,,,false,599708.2999999523,599708,,599707.5,,599722.626,4,500,,
break_continue,html.Screen,10_6_2,2023-11-17T21:32:39.649Z,,,,,,,,,,,NaN,,,,,,,,low,high,,,,,,false,,,,,false,599709.1999999881,599708.7999999523,,599708.5,,599722.626,4,500,,
sequence,flow.Sequence,10_6,2023-11-17T21:32:39.650Z,,,,,,,,,,,4361.331999952323,completion,,,,,,,low,high,,,,,,false,,,,,false,599709.5,599708.7999999523,595330.945,595333.7999999523,595347.468,599722.626,4,500,,
trial,html.Screen,10_7_0,2023-11-17T21:32:43.343Z,,,,1,0.0388181790775959,-0.0049623405709465,,0.04,false,hl,3679.673999952269,response,0.8867328775712738,1.1976831283316445,-1.140732564144878,-1.0063426986460375,0.9316799622417529,-1.0923915820184686,high,low,,ISIC_0061880.JPG,9,ISIC_0055759.JPG,27,false,0.3500000000000002,lh,keypress(e),0,false,603402.5999999642,603402.2999999523,599706.227,599709.6999999881,599722.626,603413.159,4,500,8,
break,html.Screen,10_7_1,2023-11-17T21:32:43.344Z,,,,,,,,,,,NaN,,,,,,,,high,low,,,,,,false,,,,,false,603403.7999999523,603403.5999999642,,603403.0999999642,,603413.159,4,500,,
break_continue,html.Screen,10_7_2,2023-11-17T21:32:43.345Z,,,,,,,,,,,NaN,,,,,,,,high,low,,,,,,false,,,,,false,603404.5999999642,603404.2999999523,,603404,,603413.159,4,500,,
sequence,flow.Sequence,10_7,2023-11-17T21:32:43.345Z,,,,,,,,,,,3681.673999952269,completion,,,,,,,high,low,,,,,,false,,,,,false,603404.8999999762,603404.2999999523,599706.227,599709.6999999881,599722.626,603413.159,4,500,,
trial,html.Screen,10_8_0,2023-11-17T21:32:48.775Z,,,,1,-0.0118382036798625,-0.0300588245877227,,0.04,false,lh,5421.440999964252,response,-1.1898494014853933,1.1976831283316445,-1.140732564144878,0.7016654052924971,0.9316799622417529,-1.0923915820184686,low,high,,ISIC_4748605.JPG,9,ISIC_6324832.JPG,25,false,0.28000000000000014,hl,keypress(j),0,false,608835,608834.5999999642,603396.704,603405.0999999642,603413.159,608857.083,4,500,9,
break,html.Screen,10_8_1,2023-11-17T21:32:48.776Z,,,,,,,,,,,NaN,,,,,,,,low,high,,,,,,false,,,,,false,608836.1999999881,608835.7999999523,,608835.2999999523,,608857.083,4,500,,
break_continue,html.Screen,10_8_2,2023-11-17T21:32:48.777Z,,,,,,,,,,,NaN,,,,,,,,low,high,,,,,,false,,,,,false,608837.0999999642,608836.6999999881,,608836.3999999762,,608857.083,4,500,,
sequence,flow.Sequence,10_8,2023-11-17T21:32:48.778Z,,,,,,,,,,,5423.540999988094,completion,,,,,,,low,high,,,,,,false,,,,,false,608837.2999999523,608836.6999999881,603396.704,603405,603413.159,608857.083,4,500,,
trial,html.Screen,10_9_0,2023-11-17T21:32:52.695Z,,,,1,0.0241900387072296,-0.0339955304424736,,0.04,false,lh,3897.716999952332,response,-0.989300717252516,1.1976831283316445,-1.140732564144878,0.7908280206937478,0.9316799622417529,-1.0923915820184686,low,high,,ISIC_0010789.JPG,9,ISIC_6416533.JPG,25,false,0.28000000000000014,hh,keypress(i),0,false,612755.0999999642,612754.7999999523,608823.834,608837.5,608857.083,612764.692,4,500,10,
break,html.Screen,10_9_1,2023-11-17T21:32:52.697Z,,,,,,,,,,,NaN,,,,,,,,low,high,,,,,,false,,,,,false,612756.2999999523,612756,,612755.5,,612764.692,4,500,,
break_continue,html.Screen,10_9_2,2023-11-17T21:32:52.698Z,,,,,,,,,,,NaN,,,,,,,,low,high,,,,,,false,,,,,false,612757.2999999523,612756.7999999523,,612756.5,,612764.692,4,500,,
sequence,flow.Sequence,10_9,2023-11-17T21:32:52.698Z,,,,,,,,,,,3899.716999952332,completion,,,,,,,low,high,,,,,,false,,,,,false,612757.5,612756.7999999523,608823.834,608837.5,608857.083,612764.692,4,500,,
trial,html.Screen,10_10_0,2023-11-17T21:32:57.506Z,,,,1,0.0109416414475118,0.005246498750811,,0.04,false,lh,4797.807999999961,response,-0.9653573371180936,1.1976831283316445,-1.140732564144878,0.854766800381037,0.9316799622417529,-1.0923915820184686,low,high,,ISIC_0064279.JPG,12,ISIC_9640145.JPG,25,false,0.28000000000000014,ll,keypress(f),0,false,617562.7999999523,617562.5,612748.186,612757.7999999523,612764.692,617574.06,4,500,11,
break,html.Screen,10_10_1,2023-11-17T21:32:57.507Z,,,,,,,,,,,NaN,,,,,,,,low,high,,,,,,false,,,,,false,617564.0999999642,617563.7999999523,,617563.1999999881,,617574.06,4,500,,
break_continue,html.Screen,10_10_2,2023-11-17T21:32:57.508Z,,,,,,,,,,,NaN,,,,,,,,low,high,,,,,,false,,,,,false,617565,617564.5999999642,,617564.2999999523,,617574.06,4,500,,
sequence,flow.Sequence,10_10,2023-11-17T21:32:57.509Z,,,,,,,,,,,4799.907999964198,completion,,,,,,,low,high,,,,,,false,,,,,false,617565.2999999523,617564.5999999642,612748.186,612757.6999999881,612764.692,617574.06,4,500,,
trial,html.Screen,10_11_0,2023-11-17T21:33:00.827Z,,,,1,0.0241900387072296,-0.0339955304424736,,0.04,false,hl,3309.3399999761023,response,1.423867498658875,1.1976831283316445,-1.140732564144878,-0.7901771595160324,0.9316799622417529,-1.0923915820184686,high,low,,ISIC_0010789.JPG,8,ISIC_3136228.JPG,27,false,0.3500000000000002,lh,keypress(e),0,false,620883.6999999881,620883.3999999762,617557.52,617565.5,617574.06,620897.193,4,500,12,
break,html.Screen,10_11_1,2023-11-17T21:33:00.828Z,,,,,,,,,,,NaN,,,,,,,,high,low,,,,,,false,,,,,false,620884.8999999762,620884.6999999881,,620884.0999999642,,620897.193,4,500,,
break_continue,html.Screen,10_11_2,2023-11-17T21:33:00.829Z,,,,,,,,,,,NaN,,,,,,,,high,low,,,,,,false,,,,,false,620885.6999999881,620885.3999999762,,620885.0999999642,,620897.193,4,500,,
sequence,flow.Sequence,10_11,2023-11-17T21:33:00.829Z,,,,,,,,,,,3311.3399999761023,completion,,,,,,,high,low,,,,,,false,,,,,false,620886.0999999642,620885.3999999762,617557.52,617565.5,617574.06,620897.193,4,500,,
trial,html.Screen,10_12_0,2023-11-17T21:33:04.434Z,,,,1,-0.0220026381002083,0.0170756452911772,,0.04,false,lh,3593.506999988109,response,-1.058275612142778,1.1976831283316445,-1.140732564144878,0.7824898568540655,0.9316799622417529,-1.0923915820184686,low,high,,ISIC_5347806.JPG,9,ISIC_4906385.JPG,25,false,0.28000000000000014,hh,keypress(i),0,false,624491,624490.6999999881,620880.711,620886.2999999523,620897.193,624504.288,4,500,13,
break,html.Screen,10_12_1,2023-11-17T21:33:04.436Z,,,,,,,,,,,NaN,,,,,,,,low,high,,,,,,false,,,,,false,624492.1999999881,624492,,624491.3999999762,,624504.288,4,500,,
break_continue,html.Screen,10_12_2,2023-11-17T21:33:04.436Z,,,,,,,,,,,NaN,,,,,,,,low,high,,,,,,false,,,,,false,624493.1999999881,624492.7999999523,,624492.5,,624504.288,4,500,,
sequence,flow.Sequence,10_12,2023-11-17T21:33:04.437Z,,,,,,,,,,,3595.606999952346,completion,,,,,,,low,high,,,,,,false,,,,,false,624493.3999999762,624492.7999999523,620880.711,620886.2999999523,620897.193,624504.288,4,500,,
trial,html.Screen,10_13_0,2023-11-17T21:33:07.578Z,,,,1,-0.0009714874637896,0.0174815595031679,,0.04,true,hh,3129.811999964295,response,1.2635548590325487,1.1976831283316445,-1.140732564144878,0.9985976786538492,0.9316799622417529,-1.0923915820184686,high,high,,ISIC_9848743.JPG,8,ISIC_0011703.JPG,29,false,0.11,hh,keypress(i),0,false,627634.3999999762,627634.0999999642,624487.765,624493.6999999881,624504.288,627643.663,4,500,14,
break,html.Screen,10_13_1,2023-11-17T21:33:07.579Z,,,,,,,,,,,NaN,,,,,,,,high,high,,,,,,false,,,,,false,627635.2999999523,627635,,627634.6999999881,,627643.663,4,500,,
break_continue,html.Screen,10_13_2,2023-11-17T21:33:07.579Z,,,,,,,,,,,NaN,,,,,,,,high,high,,,,,,false,,,,,false,627635.8999999762,627635.5999999642,,627635.3999999762,,627643.663,4,500,,
sequence,flow.Sequence,10_13,2023-11-17T21:33:07.579Z,,,,,,,,,,,3131.311999964295,completion,,,,,,,high,high,,,,,,false,,,,,false,627636.0999999642,627635.5999999642,624487.765,624493.6999999881,624504.288,627643.663,4,500,,
trial,html.Screen,10_14_0,2023-11-17T21:33:11.377Z,,,,1,-0.0367706518941078,0.0161069838272154,,0.04,true,hh,3789.536999988137,response,1.1615479475206127,1.1976831283316445,-1.140732564144878,0.958261725041355,0.9316799622417529,-1.0923915820184686,high,high,,ISIC_0033419.JPG,9,ISIC_0064427.JPG,29,false,0.11,hh,keypress(i),0,false,631433.2999999523,631433.1999999881,627627.187,627636.2999999523,627643.663,631452.504,4,500,15,
break,html.Screen,10_14_1,2023-11-17T21:33:11.377Z,,,,,,,,,,,NaN,,,,,,,,high,high,,,,,,false,,,,,false,631433.5999999642,631433.5,,631433.3999999762,,631452.504,4,500,,
break_continue,html.Screen,10_14_2,2023-11-17T21:33:11.377Z,,,,,,,,,,,NaN,,,,,,,,high,high,,,,,,false,,,,,false,631433.7999999523,631433.6999999881,,631433.6999999881,,631452.504,4,500,,
sequence,flow.Sequence,10_14,2023-11-17T21:33:11.377Z,,,,,,,,,,,3790.036999988137,completion,,,,,,,high,high,,,,,,false,,,,,false,631433.8999999762,631433.6999999881,627627.187,627636.1999999881,627643.663,631452.504,4,500,,
trial,html.Screen,10_15_0,2023-11-17T21:33:16.722Z,,,,1,0.0374659946425444,0.0086043094957617,,0.04,false,hh,5326.295999952359,response,1.276455551965589,1.1976831283316445,-1.140732564144878,0.89794677837575,0.9316799622417529,-1.0923915820184686,high,high,,ISIC_0033051.JPG,9,ISIC_0061685.JPG,29,false,0.11,ll,keypress(f),0,false,636779.0999999642,636778.7999999523,631417.868,631433.8999999762,631452.504,636794.805,4,500,16,
break,html.Screen,10_15_1,2023-11-17T21:33:16.724Z,,,,,,,,,,,NaN,,,,,,,,high,high,,,,,,false,,,,,false,636780.3999999762,636780.0999999642,,636779.5999999642,,636794.805,4,500,,
break_continue,html.Screen,10_15_2,2023-11-17T21:33:16.725Z,,,,,,,,,,,NaN,,,,,,,,high,high,,,,,,false,,,,,false,636781.2999999523,636780.8999999762,,636780.6999999881,,636794.805,4,500,,
sequence,flow.Sequence,10_15,2023-11-17T21:33:16.725Z,,,,,,,,,,,5328.395999976201,completion,,,,,,,high,high,,,,,,false,,,,,false,636781.6999999881,636780.8999999762,631417.868,631433.8999999762,631452.504,636794.805,4,500,,
trial,html.Screen,10_16_0,2023-11-17T21:33:20.986Z,,,,1,-0.0308384937406319,0.0038396364323947,,0.04,true,hh,4247.894999988028,response,1.0918237468930412,1.1976831283316445,-1.140732564144878,1.0199940959248062,0.9316799622417529,-1.0923915820184686,high,high,,ISIC_0029825.JPG,8,ISIC_0064120.JPG,29,false,0.11,hh,keypress(i),0,false,641043.0999999642,641042.6999999881,636778.202,636782,636794.805,641069.801,4,500,17,
break,html.Screen,10_16_1,2023-11-17T21:33:20.988Z,,,,,,,,,,,NaN,,,,,,,,high,high,,,,,,false,,,,,false,641044.2999999523,641044,,641043.5,,641069.801,4,500,,
break_continue,html.Screen,10_16_2,2023-11-17T21:33:20.988Z,,,,,,,,,,,NaN,,,,,,,,high,high,,,,,,false,,,,,false,641045.0999999642,641044.6999999881,,641044.5,,641069.801,4,500,,
sequence,flow.Sequence,10_16,2023-11-17T21:33:20.989Z,,,,,,,,,,,4249.894999988028,completion,,,,,,,high,high,,,,,,false,,,,,false,641045.3999999762,641044.6999999881,636778.202,636781.8999999762,636794.805,641069.801,4,500,,
trial,html.Screen,10_17_0,2023-11-17T21:33:25.122Z,,,,1,0.0088741920055285,0.0058246074740588,,0.04,false,lh,4108.998999952339,response,-1.1898494014853933,1.1976831283316445,-1.140732564144878,0.7016654052924971,0.9316799622417529,-1.0923915820184686,low,high,,ISIC_4136663.JPG,9,ISIC_6324832.JPG,25,false,0.28000000000000014,hl,keypress(j),0,false,645179.0999999642,645178.7999999523,641036.516,641045.7999999523,641069.801,645194.575,4,500,18,
break,html.Screen,10_17_1,2023-11-17T21:33:25.124Z,,,,,,,,,,,NaN,,,,,,,,low,high,,,,,,false,,,,,false,645180.1999999881,645179.8999999762,,645179.5,,645194.575,4,500,,
break_continue,html.Screen,10_17_2,2023-11-17T21:33:25.124Z,,,,,,,,,,,NaN,,,,,,,,low,high,,,,,,false,,,,,false,645181.0999999642,645180.6999999881,,645180.3999999762,,645194.575,4,500,,
sequence,flow.Sequence,10_17,2023-11-17T21:33:25.125Z,,,,,,,,,,,4110.898999988101,completion,,,,,,,low,high,,,,,,false,,,,,false,645181.2999999523,645180.6999999881,641036.516,641045.6999999881,641069.801,645194.575,4,500,,
trial,html.Screen,10_18_0,2023-11-17T21:33:28.562Z,,,,1,0.0388334549081915,-0.0303399972963369,,0.04,true,hh,3423.9250000000466,response,1.2021403809644975,1.1976831283316445,-1.140732564144878,0.9240154278810436,0.9316799622417529,-1.0923915820184686,high,high,,ISIC_4961708.JPG,9,ISIC_0011757.JPG,29,false,0.11,hh,keypress(i),0,false,648619,648618.5,645177.855,645181.5999999642,645194.575,648634.508,4,500,19,
break,html.Screen,10_18_1,2023-11-17T21:33:28.563Z,,,,,,,,,,,NaN,,,,,,,,high,high,,,,,,false,,,,,false,648620.0999999642,648619.7999999523,,648619.2999999523,,648634.508,4,500,,
break_continue,html.Screen,10_18_2,2023-11-17T21:33:28.564Z,,,,,,,,,,,NaN,,,,,,,,high,high,,,,,,false,,,,,false,648621.0999999642,648620.6999999881,,648620.3999999762,,648634.508,4,500,,
sequence,flow.Sequence,10_18,2023-11-17T21:33:28.565Z,,,,,,,,,,,3426.1249999881256,completion,,,,,,,high,high,,,,,,false,,,,,false,648621.3999999762,648620.6999999881,645177.855,645181.5,645194.575,648634.508,4,500,,
trial,html.Screen,10_19_0,2023-11-17T21:33:32.730Z,,,,1,0.0388334549081915,-0.0303399972963369,,0.04,false,hl,4151.991999999969,response,0.9544693251394116,1.1976831283316445,-1.140732564144878,-1.0727539917203766,0.9316799622417529,-1.0923915820184686,high,low,,ISIC_4961708.JPG,8,ISIC_0055147.JPG,27,false,0.3500000000000002,hh,keypress(i),0,false,652786.8999999762,652786.5,648617.983,648621.5,648634.508,652792.586,4,500,20,
break,html.Screen,10_19_1,2023-11-17T21:33:32.731Z,,,,,,,,,,,NaN,,,,,,,,high,low,,,,,,false,,,,,false,652788,652787.7999999523,,652787.2999999523,,652792.586,4,500,,
break_continue,html.Screen,10_19_2,2023-11-17T21:33:32.732Z,,,,,,,,,,,NaN,,,,,,,,high,low,,,,,,false,,,,,false,652789,652788.5,,652788.2999999523,,652792.586,4,500,,
sequence,flow.Sequence,10_19,2023-11-17T21:33:32.733Z,,,,,,,,,,,4153.991999999969,completion,,,,,,,high,low,,,,,,false,,,,,false,652789.2999999523,652788.5,648617.983,648621.5,648634.508,652792.586,4,500,,
trial,html.Screen,10_20_0,2023-11-17T21:33:39.323Z,,,,1,-0.0044063257337227,-0.0172548282859886,,0.04,false,ll,6586.41399999999,response,-1.1072126870290426,1.1976831283316445,-1.140732564144878,-0.9917482735105084,0.9316799622417529,-1.0923915820184686,low,low,,ISIC_7413786.JPG,10,ISIC_0071754.JPG,28,false,0.13,lh,keypress(e),0,false,659379.2999999523,659379,652776.136,652789.5,652792.586,659405.48,4,500,21,
break,html.Screen,10_20_1,2023-11-17T21:33:39.324Z,,,,,,,,,,,NaN,,,,,,,,low,low,,,,,,false,,,,,false,659380.5999999642,659380.1999999881,,659379.6999999881,,659405.48,4,500,,
break_continue,html.Screen,10_20_2,2023-11-17T21:33:39.325Z,,,,,,,,,,,NaN,,,,,,,,low,low,,,,,,false,,,,,false,659381.5,659381,,659380.7999999523,,659405.48,4,500,,
sequence,flow.Sequence,10_20,2023-11-17T21:33:39.325Z,,,,,,,,,,,6588.41399999999,completion,,,,,,,low,low,,,,,,false,,,,,false,659381.6999999881,659381,652776.136,652789.5,652792.586,659405.48,4,500,,
trial,html.Screen,10_21_0,2023-11-17T21:33:43.777Z,,,,1,0.0374659946425444,0.0086043094957617,,0.04,true,hl,4428.219999988098,response,0.8500530224490773,1.1976831283316445,-1.140732564144878,-1.0893360711742854,0.9316799622417529,-1.0923915820184686,high,low,,ISIC_0033051.JPG,8,ISIC_2998367.JPG,27,false,0.3500000000000002,hl,keypress(j),0,false,663833.7999999523,663833.6999999881,659372.227,659381.8999999762,659405.48,663864.169,4,500,22,
break,html.Screen,10_21_1,2023-11-17T21:33:43.778Z,,,,,,,,,,,NaN,,,,,,,,high,low,,,,,,false,,,,,false,663834.1999999881,663834.0999999642,,663833.8999999762,,663864.169,4,500,,
break_continue,html.Screen,10_21_2,2023-11-17T21:33:43.778Z,,,,,,,,,,,NaN,,,,,,,,high,low,,,,,,false,,,,,false,663834.5,663834.3999999762,,663834.2999999523,,663864.169,4,500,,
sequence,flow.Sequence,10_21,2023-11-17T21:33:43.778Z,,,,,,,,,,,4428.919999976177,completion,,,,,,,high,low,,,,,,false,,,,,false,663834.6999999881,663834.3999999762,659372.227,659381.8999999762,659405.48,663864.169,4,500,,
trial,html.Screen,10_22_0,2023-11-17T21:33:49.226Z,,,,1,0.001445457736793,0.0165307427449982,,0.04,true,lh,5418.530999988085,response,-1.0329549150636406,1.1976831283316445,-1.140732564144878,1.01584100839286,0.9316799622417529,-1.0923915820184686,low,high,,ISIC_0027350.JPG,8,ISIC_0054670.JPG,25,false,0.28000000000000014,lh,keypress(e),0,false,669283,669282.6999999881,663830.855,663834.6999999881,663864.169,669308.323,4,500,23,
break,html.Screen,10_22_1,2023-11-17T21:33:49.228Z,,,,,,,,,,,NaN,,,,,,,,low,high,,,,,,false,,,,,false,669284.1999999881,669284,,669283.5,,669308.323,4,500,,
break_continue,html.Screen,10_22_2,2023-11-17T21:33:49.228Z,,,,,,,,,,,NaN,,,,,,,,low,high,,,,,,false,,,,,false,669285,669284.6999999881,,669284.3999999762,,669308.323,4,500,,
sequence,flow.Sequence,10_22,2023-11-17T21:33:49.229Z,,,,,,,,,,,5420.530999988085,completion,,,,,,,low,high,,,,,,false,,,,,false,669285.3999999762,669284.6999999881,663830.855,663834.6999999881,663864.169,669308.323,4,500,,
trial,html.Screen,10_23_0,2023-11-17T21:33:53.950Z,,,,1,0.0374659946425444,0.0086043094957617,,0.04,false,ll,4694.776999964262,response,-1.0777929856705222,1.1976831283316445,-1.140732564144878,-1.0139833925057518,0.9316799622417529,-1.0923915820184686,low,low,,ISIC_0033051.JPG,8,ISIC_6171084.JPG,28,false,0.13,hl,keypress(j),0,false,674003.5,674003.0999999642,669291.4,669285.6999999881,669308.323,674017.355,4,500,24,
break,html.Screen,10_23_1,2023-11-17T21:33:53.951Z,,,,,,,,,,,NaN,,,,,,,,low,low,,,,,,false,,,,,false,674004.6999999881,674004.3999999762,,674003.8999999762,,674017.355,4,500,,
break_continue,html.Screen,10_23_2,2023-11-17T21:33:53.952Z,,,,,,,,,,,NaN,,,,,,,,low,low,,,,,,false,,,,,false,674005.5,674005.0999999642,,674004.8999999762,,674017.355,4,500,,
sequence,flow.Sequence,10_23,2023-11-17T21:33:53.952Z,,,,,,,,,,,4696.776999964262,completion,,,,,,,low,low,,,,,,false,,,,,false,674005.8999999762,674005.0999999642,669291.4,669285.5,669308.323,674017.355,4,500,,
trial,html.Screen,10_24_0,2023-11-17T21:33:58.509Z,,,,1,-0.0367706518941078,0.0161069838272154,,0.04,true,hh,4545.444999952335,response,1.2738303482882416,1.1976831283316445,-1.140732564144878,0.8473133676251181,0.9316799622417529,-1.0923915820184686,high,high,,ISIC_0033419.JPG,9,ISIC_0054220.JPG,29,false,0.11,hh,keypress(i),0,false,678563.1999999881,678562.7999999523,674000.588,674006.0999999642,674017.355,678576.131,4,500,25,
break,html.Screen,10_24_1,2023-11-17T21:33:58.511Z,,,,,,,,,,,NaN,,,,,,,,high,high,,,,,,false,,,,,false,678564.3999999762,678564.0999999642,,678563.5999999642,,678576.131,4,500,,
break_continue,html.Screen,10_24_2,2023-11-17T21:33:58.512Z,,,,,,,,,,,NaN,,,,,,,,high,high,,,,,,false,,,,,false,678565.3999999762,678565,,678564.6999999881,,678576.131,4,500,,
sequence,flow.Sequence,10_24,2023-11-17T21:33:58.512Z,,,,,,,,,,,4547.645000000019,completion,,,,,,,high,high,,,,,,false,,,,,false,678565.7999999523,678565,674000.588,674006.0999999642,674017.355,678576.131,4,500,,
trial,html.Screen,10_25_0,2023-11-17T21:34:02.966Z,,,,1,-0.0118382036798625,-0.0300588245877227,,0.04,false,lh,4442.868999999948,response,-1.203269031614007,1.1976831283316445,-1.140732564144878,0.6961047103031557,0.9316799622417529,-1.0923915820184686,low,high,,ISIC_4748605.JPG,8,ISIC_0002639.JPG,25,false,0.28000000000000014,hl,keypress(j),0,false,683019.1999999881,683019,678559.416,678566,678576.131,683034.871,4,500,26,
break,html.Screen,10_25_1,2023-11-17T21:34:02.967Z,,,,,,,,,,,NaN,,,,,,,,low,high,,,,,,false,,,,,false,683020.5,683020.1999999881,,683019.5999999642,,683034.871,4,500,,
break_continue,html.Screen,10_25_2,2023-11-17T21:34:02.968Z,,,,,,,,,,,NaN,,,,,,,,low,high,,,,,,false,,,,,false,683021.2999999523,683020.8999999762,,683020.5999999642,,683034.871,4,500,,
sequence,flow.Sequence,10_25,2023-11-17T21:34:02.968Z,,,,,,,,,,,4444.768999976106,completion,,,,,,,low,high,,,,,,false,,,,,false,683021.5999999642,683020.8999999762,678559.416,678565.8999999762,678576.131,683034.871,4,500,,
trial,html.Screen,10_26_0,2023-11-17T21:34:07.198Z,,,,1,-0.0283578106329894,0.0088840758711548,,0.04,false,ll,4216.328999988036,response,-1.0777929856705222,1.1976831283316445,-1.140732564144878,-1.0139833925057518,0.9316799622417529,-1.0923915820184686,low,low,,ISIC_0060707.JPG,9,ISIC_6171084.JPG,28,false,0.13,hl,keypress(j),0,false,687251.5999999642,687251.1999999881,683018.224,683021.7999999523,683034.871,687276.407,4,500,27,
break,html.Screen,10_26_1,2023-11-17T21:34:07.199Z,,,,,,,,,,,NaN,,,,,,,,low,low,,,,,,false,,,,,false,687252.7999999523,687252.3999999762,,687251.8999999762,,687276.407,4,500,,
break_continue,html.Screen,10_26_2,2023-11-17T21:34:07.200Z,,,,,,,,,,,NaN,,,,,,,,low,low,,,,,,false,,,,,false,687253.6999999881,687253.2999999523,,687253,,687276.407,4,500,,
sequence,flow.Sequence,10_26,2023-11-17T21:34:07.200Z,,,,,,,,,,,4218.428999952273,completion,,,,,,,low,low,,,,,,false,,,,,false,687254,687253.2999999523,683018.224,683021.6999999881,683034.871,687276.407,4,500,,
trial,html.Screen,10_27_0,2023-11-17T21:34:10.477Z,,,,1,0.039520186367207,0.0377961575607372,,0.04,false,lh,3254.4929999761516,response,-1.199471562817528,1.1976831283316445,-1.140732564144878,0.8631260534979347,0.9316799622417529,-1.0923915820184686,low,high,,ISIC_6356149.JPG,9,ISIC_0030754.JPG,25,false,0.28000000000000014,hh,keypress(i),0,false,690531.0999999642,690530.8999999762,687243.013,687254.2999999523,687276.407,690550.708,4,500,28,
break,html.Screen,10_27_1,2023-11-17T21:34:10.479Z,,,,,,,,,,,NaN,,,,,,,,low,high,,,,,,false,,,,,false,690532.5,690532.0999999642,,690531.5999999642,,690550.708,4,500,,
break_continue,html.Screen,10_27_2,2023-11-17T21:34:10.480Z,,,,,,,,,,,NaN,,,,,,,,low,high,,,,,,false,,,,,false,690533.2999999523,690532.8999999762,,690532.5999999642,,690550.708,4,500,,
sequence,flow.Sequence,10_27,2023-11-17T21:34:10.480Z,,,,,,,,,,,3256.4929999761516,completion,,,,,,,low,high,,,,,,false,,,,,false,690533.5999999642,690532.8999999762,687243.013,687254.1999999881,687276.407,690550.708,4,500,,
trial,html.Screen,10_28_0,2023-11-17T21:34:15.445Z,,,,1,0.0065172941585523,-0.0118857043117315,,0.04,true,lh,4948.191999976174,response,-1.2499674737468107,1.1976831283316445,-1.140732564144878,0.7169661572441197,0.9316799622417529,-1.0923915820184686,low,high,,ISIC_6119202.JPG,9,ISIC_0013617.JPG,25,false,0.28000000000000014,lh,keypress(e),0,false,695499.1999999881,695498.8999999762,690516.244,690533.7999999523,690550.708,695509.054,4,500,29,
break,html.Screen,10_28_1,2023-11-17T21:34:15.447Z,,,,,,,,,,,NaN,,,,,,,,low,high,,,,,,false,,,,,false,695500.3999999762,695500.0999999642,,695499.5999999642,,695509.054,4,500,,
break_continue,html.Screen,10_28_2,2023-11-17T21:34:15.448Z,,,,,,,,,,,NaN,,,,,,,,low,high,,,,,,false,,,,,false,695501.2999999523,695500.7999999523,,695500.5999999642,,695509.054,4,500,,
sequence,flow.Sequence,10_28,2023-11-17T21:34:15.448Z,,,,,,,,,,,4950.091999952332,completion,,,,,,,low,high,,,,,,false,,,,,false,695501.5999999642,695500.7999999523,690516.244,690533.7999999523,690550.708,695509.054,4,500,,
trial,html.Screen,10_29_0,2023-11-17T21:34:19.966Z,,,,1,-0.0044063257337227,-0.0172548282859886,,0.04,false,hh,4510.145999988075,response,1.1433456871226346,1.1976831283316445,-1.140732564144878,0.8304418640175829,0.9316799622417529,-1.0923915820184686,high,high,,ISIC_7413786.JPG,9,ISIC_0030798.JPG,29,false,0.11,ll,keypress(f),0,false,700019.5,700019.1999999881,695492.608,695501.8999999762,695509.054,700034.572,4,500,30,
break,html.Screen,10_29_1,2023-11-17T21:34:19.967Z,,,,,,,,,,,NaN,,,,,,,,high,high,,,,,,false,,,,,false,700020.7999999523,700020.5,,700019.8999999762,,700034.572,4,500,,
break_continue,html.Screen,10_29_2,2023-11-17T21:34:19.968Z,,,,,,,,,,,NaN,,,,,,,,high,high,,,,,,false,,,,,false,700021.6999999881,700021.1999999881,,700021,,700034.572,4,500,,
sequence,flow.Sequence,10_29,2023-11-17T21:34:19.968Z,,,,,,,,,,,4512.145999988075,completion,,,,,,,high,high,,,,,,false,,,,,false,700022,700021.1999999881,695492.608,695501.8999999762,695509.054,700034.572,4,500,,
trial,html.Screen,10_30_0,2023-11-17T21:34:22.597Z,,,,1,-0.0220026381002083,0.0170756452911772,,0.04,true,hl,2616.2279999522725,response,0.9111352818043872,1.1976831283316445,-1.140732564144878,-0.7517932332411794,0.9316799622417529,-1.0923915820184686,high,low,,ISIC_5347806.JPG,9,ISIC_3346045.JPG,27,false,0.3500000000000002,hl,keypress(j),0,false,702651.1999999881,702650.7999999523,700017.985,700022.2999999523,700034.572,702673.037,4,500,31,
break,html.Screen,10_30_1,2023-11-17T21:34:22.599Z,,,,,,,,,,,NaN,,,,,,,,high,low,,,,,,false,,,,,false,702652.2999999523,702652.0999999642,,702651.5,,702673.037,4,500,,
break_continue,html.Screen,10_30_2,2023-11-17T21:34:22.599Z,,,,,,,,,,,NaN,,,,,,,,high,low,,,,,,false,,,,,false,702653.0999999642,702652.6999999881,,702652.5,,702673.037,4,500,,
sequence,flow.Sequence,10_30,2023-11-17T21:34:22.600Z,,,,,,,,,,,2618.1279999880353,completion,,,,,,,high,low,,,,,,false,,,,,false,702653.5,702652.6999999881,700017.985,700022.1999999881,700034.572,702673.037,4,500,,
trial,html.Screen,10_31_0,2023-11-17T21:34:29.533Z,,,,1,0.0088741920055285,0.0058246074740588,,0.04,false,lh,6913.762999952305,response,-0.9237241143561707,1.1976831283316445,-1.140732564144878,0.7102087839245512,0.9316799622417529,-1.0923915820184686,low,high,,ISIC_4136663.JPG,9,ISIC_0058661.JPG,25,false,0.28000000000000014,ll,keypress(f),0,false,709587.0999999642,709586.7999999523,702639.756,702653.6999999881,702673.037,709603.286,4,500,32,
break,html.Screen,10_31_1,2023-11-17T21:34:29.535Z,,,,,,,,,,,NaN,,,,,,,,low,high,,,,,,false,,,,,false,709588.3999999762,709588.0999999642,,709587.5,,709603.286,4,500,,
break_continue,html.Screen,10_31_2,2023-11-17T21:34:29.535Z,,,,,,,,,,,NaN,,,,,,,,low,high,,,,,,false,,,,,false,709589.1999999881,709588.7999999523,,709588.5999999642,,709603.286,4,500,,
sequence,flow.Sequence,10_31,2023-11-17T21:34:29.536Z,,,,,,,,,,,6915.762999952305,completion,,,,,,,low,high,,,,,,false,,,,,false,709589.5,709588.7999999523,702639.756,702653.6999999881,702673.037,709603.286,4,500,,
trial,html.Screen,10_32_0,2023-11-17T21:34:33.108Z,,,,1,-0.0119001144851157,0.0063430114540141,,0.04,false,hh,3558.4139999881154,response,1.1265364076882312,1.1976831283316445,-1.140732564144878,0.9147575031014517,0.9316799622417529,-1.0923915820184686,high,high,,ISIC_0003822.JPG,8,ISIC_0029513.JPG,29,false,0.11,lh,keypress(e),0,false,713161.7999999523,713161.6999999881,709586.683,709589.7999999523,709603.286,713177,4,500,33,
break,html.Screen,10_32_1,2023-11-17T21:34:33.108Z,,,,,,,,,,,NaN,,,,,,,,high,high,,,,,,false,,,,,false,713162.0999999642,713162.0999999642,,713162,,713177,4,500,,
break_continue,html.Screen,10_32_2,2023-11-17T21:34:33.109Z,,,,,,,,,,,NaN,,,,,,,,high,high,,,,,,false,,,,,false,713162.3999999762,713162.2999999523,,713162.1999999881,,713177,4,500,,
sequence,flow.Sequence,10_32,2023-11-17T21:34:33.109Z,,,,,,,,,,,3559.0139999523526,completion,,,,,,,high,high,,,,,,false,,,,,false,713162.3999999762,713162.2999999523,709586.683,709589.6999999881,709603.286,713177,4,500,,
trial,html.Screen,10_33_0,2023-11-17T21:34:37.004Z,,,,1,0.0198696495649504,-0.0387952353063878,,0.04,false,ll,3880.7999999523163,response,-1.1290536173202614,1.1976831283316445,-1.140732564144878,-0.9768663240505168,0.9316799622417529,-1.0923915820184686,low,low,,ISIC_6735970.JPG,9,ISIC_2196127.JPG,28,false,0.13,hh,keypress(i),0,false,717057.8999999762,717057.7999999523,713160.345,713162.5,713177,717067.705,4,500,34,
break,html.Screen,10_33_1,2023-11-17T21:34:37.005Z,,,,,,,,,,,NaN,,,,,,,,low,low,,,,,,false,,,,,false,717058.3999999762,717058.2999999523,,717058,,717067.705,4,500,,
break_continue,html.Screen,10_33_2,2023-11-17T21:34:37.005Z,,,,,,,,,,,NaN,,,,,,,,low,low,,,,,,false,,,,,false,717058.5999999642,717058.3999999762,,717058.3999999762,,717067.705,4,500,,
sequence,flow.Sequence,10_33,2023-11-17T21:34:37.005Z,,,,,,,,,,,3881.399999976158,completion,,,,,,,low,low,,,,,,false,,,,,false,717058.6999999881,717058.3999999762,713160.345,713162.5,713177,717067.705,4,500,,
trial,html.Screen,10_34_0,2023-11-17T21:34:41.270Z,,,,1,-0.0257631352671967,-0.0202837002774028,,0.04,false,ll,4255.394999964279,response,-1.2101243893950622,1.1976831283316445,-1.140732564144878,-0.9721089662087676,0.9316799622417529,-1.0923915820184686,low,low,,ISIC_0032797.JPG,9,ISIC_0760740.JPG,28,false,0.13,hl,keypress(j),0,false,721323.2999999523,721323.0999999642,717051.078,717058.7999999523,717067.705,721326.076,4,500,35,
break,html.Screen,10_34_1,2023-11-17T21:34:41.271Z,,,,,,,,,,,NaN,,,,,,,,low,low,,,,,,false,,,,,false,721324.5,721324.1999999881,,721323.7999999523,,721326.076,4,500,,
break_continue,html.Screen,10_34_2,2023-11-17T21:34:41.272Z,,,,,,,,,,,NaN,,,,,,,,low,low,,,,,,false,,,,,false,721325.3999999762,721325,,721324.7999999523,,721326.076,4,500,,
sequence,flow.Sequence,10_34,2023-11-17T21:34:41.272Z,,,,,,,,,,,4257.295000000042,completion,,,,,,,low,low,,,,,,false,,,,,false,721325.5999999642,721325,717051.078,717058.7999999523,717067.705,721326.076,4,500,,
trial,html.Screen,10_35_0,2023-11-17T21:34:44.292Z,,,,1,-0.0367706518941078,0.0161069838272154,,0.04,false,ll,3019.623999988078,response,-1.2600330864275875,1.1976831283316445,-1.140732564144878,-1.0958628838888655,0.9316799622417529,-1.0923915820184686,low,low,,ISIC_0033419.JPG,8,ISIC_0026996.JPG,28,false,0.13,hh,keypress(i),0,false,724345.8999999762,724345.6999999881,721309.559,721325.8999999762,721326.076,724365.253,4,500,36,
break,html.Screen,10_35_1,2023-11-17T21:34:44.292Z,,,,,,,,,,,NaN,,,,,,,,low,low,,,,,,false,,,,,false,724346.2999999523,724346.1999999881,,724345.8999999762,,724365.253,4,500,,
break_continue,html.Screen,10_35_2,2023-11-17T21:34:44.293Z,,,,,,,,,,,NaN,,,,,,,,low,low,,,,,,false,,,,,false,724346.5,724346.3999999762,,724346.2999999523,,724365.253,4,500,,
sequence,flow.Sequence,10_35,2023-11-17T21:34:44.293Z,,,,,,,,,,,3020.323999976157,completion,,,,,,,low,low,,,,,,false,,,,,false,724346.6999999881,724346.3999999762,721309.559,721325.8999999762,721326.076,724365.253,4,500,,
trial,html.Screen,10_36_0,2023-11-17T21:34:47.277Z,,,,1,-0.0076984477620101,-0.0069458408496562,,0.04,true,lh,2965.54699995229,response,-1.0329549150636406,1.1976831283316445,-1.140732564144878,1.01584100839286,0.9316799622417529,-1.0923915820184686,low,high,,ISIC_0000434.JPG,9,ISIC_0054670.JPG,25,false,0.28000000000000014,lh,keypress(e),0,false,727331.1999999881,727330.7999999523,724332.001,724346.7999999523,724365.253,727337.766,4,500,37,
break,html.Screen,10_36_1,2023-11-17T21:34:47.279Z,,,,,,,,,,,NaN,,,,,,,,low,high,,,,,,false,,,,,false,727332.3999999762,727332.0999999642,,727331.5999999642,,727337.766,4,500,,
break_continue,html.Screen,10_36_2,2023-11-17T21:34:47.280Z,,,,,,,,,,,NaN,,,,,,,,low,high,,,,,,false,,,,,false,727333.2999999523,727332.8999999762,,727332.5999999642,,727337.766,4,500,,
sequence,flow.Sequence,10_36,2023-11-17T21:34:47.280Z,,,,,,,,,,,2967.646999976132,completion,,,,,,,low,high,,,,,,false,,,,,false,727333.5,727332.8999999762,724332.001,724346.6999999881,724365.253,727337.766,4,500,,
trial,html.Screen,10_37_0,2023-11-17T21:34:49.573Z,,,,1,0.0164027439304477,-0.0082910758715273,,0.04,false,ll,2288.933999988134,response,-1.0122348575830964,1.1976831283316445,-1.140732564144878,-1.007833368115011,0.9316799622417529,-1.0923915820184686,low,low,,ISIC_7381224.JPG,9,ISIC_8145260.JPG,28,false,0.13,hl,keypress(j),0,false,729627,729626.6999999881,727321.22,727333.7999999523,727337.766,729642.284,4,500,38,
break,html.Screen,10_37_1,2023-11-17T21:34:49.574Z,,,,,,,,,,,NaN,,,,,,,,low,low,,,,,,false,,,,,false,729628,729627.7999999523,,729627.2999999523,,729642.284,4,500,,
break_continue,html.Screen,10_37_2,2023-11-17T21:34:49.575Z,,,,,,,,,,,NaN,,,,,,,,low,low,,,,,,false,,,,,false,729628.6999999881,729628.3999999762,,729628.1999999881,,729642.284,4,500,,
sequence,flow.Sequence,10_37,2023-11-17T21:34:49.575Z,,,,,,,,,,,2290.633999976213,completion,,,,,,,low,low,,,,,,false,,,,,false,729629,729628.3999999762,727321.22,727333.6999999881,727337.766,729642.284,4,500,,
