sender,sender_type,sender_id,timestamp,meta,,age,blockNo,c1,c2,condition,control_tolerance,correct,correctResponse,duration,ended_on,f1,f1_high,f1_low,f2,f2_high,f2_low,feature_level1,feature_level2,gender,img_left,img_reveal,img_right,n_target_images,practice,range_tolerance,response,response_action,selection_duration,staircase,time_commit,time_end,time_render,time_run,time_show,time_switch,total_blocks,total_trials,trialNo,url
informed_consent,html.Screen,0,2023-11-17T21:40:16.147Z,"{""labjs_version"":""20.2.4"",""labjs_build"":{""flavor"":""development"",""commit"":""f5b4a49f956347addd546a832a3327688c2c0fef""},""location"":""https://labjs.felixhenninger.com/api/labjs_preview/index.html"",""userAgent"":""Mozilla/5.0 (Windows NT 10.0; Win64; x64) AppleWebKit/537.36 (KHTML, like Gecko) Chrome/119.0.0.0 Safari/537.36"",""platform"":""Win32"",""language"":""en-US"",""locale"":""en-US"",""timeZone"":""America/Chicago"",""timezoneOffset"":360,""screen_width"":1920,""screen_height"":1080,""scroll_width"":945,""scroll_height"":918,""window_innerWidth"":945,""window_innerHeight"":966,""devicePixelRatio"":1}",,,,,,,,,,28098.40400001192,response,,,,,,,,,,,,,,,,consent,click button,,,28765,28756.30000001192,641.214,639.3000000119209,657.896,28774.678,,,,{}
Demography form,html.Form,1,2023-11-17T21:40:22.099Z,,,21,,,,,,,,5942.122000011921,form submission,,,,,,,,,female,,,,,,,,,,,34716.89999997616,34716.80000001192,28757.805,28765.30000001192,28774.678,34741.145,,,,
Welcome,html.Screen,2,2023-11-17T21:40:52.005Z,,,,,,,"[""asym"",""col""]",,,,29879.25499997616,response,,,,,,,,,,,,,,,,continue,click button,,,64621,64620.39999997616,34724.701,34717,34741.145,64624.373,,,,
demo_instructions,html.Screen,3,2023-11-17T21:41:45.813Z,,,,,,,,,,,53803.72700002384,response,,,,,,,,,,,,,,,,continue,click button,,,118428.5,118428.10000002384,64607.827,64621.10000002384,64624.373,118457.549,,,,
trial,html.Screen,4_0_0,2023-11-17T21:41:56.302Z,,,,0,1.055319394932912,-1.409116680310466,,,true,lh,10457.65099998808,response,-1.225025174430573,1.2,-1.2,0.8422679054456499,1.2,-1.2,low,high,,ISIC_6398669.JPG,,ISIC_7503950.JPG,29,true,0.3600000000000002,lh,keypress(e),100,false,128915.60000002384,128915.19999998808,118440.923,118428.69999998808,118457.549,128940.866,1,16,1,
sequence,flow.Sequence,4_0,2023-11-17T21:41:56.322Z,,,,,,,,,,,10457.65099998808,completion,,,,,,,low,high,,,,,,true,,,,,false,128935.60000002384,128915.19999998808,118440.923,118428.60000002384,118457.549,128940.866,1,16,,
trial,html.Screen,4_1_0,2023-11-17T21:42:05.238Z,,,,0,1.052305774554686,-1.3940181224717798,,,true,lh,8910.734000023847,response,-0.8494721812820843,1.2,-1.2,1.3435429139974266,1.2,-1.2,low,high,,ISIC_4175400.JPG,,ISIC_0033585.JPG,29,true,0.3600000000000002,lh,keypress(e),100,false,137852,137851.60000002384,128924.273,128935.80000001192,128940.866,137874.247,1,16,2,
sequence,flow.Sequence,4_1,2023-11-17T21:42:05.239Z,,,,,,,,,,,8910.734000023847,completion,,,,,,,low,high,,,,,,true,,,,,false,137852.60000002384,137851.60000002384,128924.273,128935.80000001192,128940.866,137874.247,1,16,,
trial,html.Screen,4_2_0,2023-11-17T21:42:09.962Z,,,,0,1.0345332538240786,-1.4719115945084815,,,true,lh,4700.452999988076,response,-0.9039158082670506,1.2,-1.2,1.0517562064343149,1.2,-1.2,low,high,,ISIC_0192490.JPG,,ISIC_0015411.JPG,29,true,0.3600000000000002,lh,keypress(e),100,false,142575.19999998808,142574.69999998808,137857.531,137852.89999997616,137874.247,142590.911,1,16,3,
sequence,flow.Sequence,4_2,2023-11-17T21:42:09.962Z,,,,,,,,,,,4700.452999988076,completion,,,,,,,low,high,,,,,,true,,,,,false,142575.89999997616,142574.69999998808,137857.531,137852.80000001192,137874.247,142590.911,1,16,,
trial,html.Screen,4_3_0,2023-11-17T21:42:12.809Z,,,,0,1.2609895831255231,-1.0687377724194886,,,true,lh,2831.4889999761654,response,-1.4748095371445096,1.2,-1.2,0.9579010801034902,1.2,-1.2,low,high,,ISIC_1367610.JPG,,ISIC_0033216.JPG,29,true,0.3600000000000002,lh,keypress(e),100,false,145422.89999997616,145422.39999997616,142574.366,142576.10000002384,142590.911,145440.974,1,16,4,
sequence,flow.Sequence,4_3,2023-11-17T21:42:12.810Z,,,,,,,,,,,2831.4889999761654,completion,,,,,,,low,high,,,,,,true,,,,,false,145423.60000002384,145422.39999997616,142574.366,142576.10000002384,142590.911,145440.974,1,16,,
trial,html.Screen,4_4_0,2023-11-17T21:42:22.293Z,,,,0,1.2055236989581275,1.1960893075698802,,,true,ll,9465.126000023854,response,-1.299827929103008,1.2,-1.2,-0.912855253526266,1.2,-1.2,low,low,,ISIC_0072393.JPG,,ISIC_9760652.JPG,127,true,0.3300000000000002,ll,keypress(f),100,false,154906.30000001192,154906.10000002384,145424.256,145423.80000001192,145440.974,154924.379,1,16,5,
sequence,flow.Sequence,4_4,2023-11-17T21:42:22.293Z,,,,,,,,,,,9465.126000023854,completion,,,,,,,low,low,,,,,,true,,,,,false,154906.5,154906.10000002384,145424.256,145423.80000001192,145440.974,154924.379,1,16,,
trial,html.Screen,4_5_0,2023-11-17T21:42:30.093Z,,,,0,1.3132505134129506,1.0949928516457437,,,true,ll,7782.020999976172,response,-1.0959058628476686,1.2,-1.2,-1.2921331918483707,1.2,-1.2,low,low,,ISIC_0066935.JPG,,ISIC_5920470.JPG,25,true,0.15000000000000002,ll,keypress(f),100,false,162706.89999997616,162706.39999997616,154907.456,154906.60000002384,154924.379,162724.141,1,16,6,
sequence,flow.Sequence,4_5,2023-11-17T21:42:30.094Z,,,,,,,,,,,7782.020999976172,completion,,,,,,,low,low,,,,,,true,,,,,false,162707.39999997616,162706.39999997616,154907.456,154906.5,154924.379,162724.141,1,16,,
trial,html.Screen,4_6_0,2023-11-17T21:42:35.169Z,,,,0,1.1407514641016443,1.280017651202714,,,true,ll,5058.659000011918,response,-1.294521945180264,1.2,-1.2,-1.3078626540563885,1.2,-1.2,low,low,,ISIC_0072507.JPG,,ISIC_3601224.JPG,25,true,0.15000000000000002,ll,keypress(f),100,false,167783.19999998808,167782.80000001192,162707.538,162707.69999998808,162724.141,167807.608,1,16,7,
sequence,flow.Sequence,4_6,2023-11-17T21:42:35.170Z,,,,,,,,,,,5058.659000011918,completion,,,,,,,low,low,,,,,,true,,,,,false,167783.69999998808,167782.80000001192,162707.538,162707.60000002384,162724.141,167807.608,1,16,,
trial,html.Screen,4_7_0,2023-11-17T21:42:39.204Z,,,,0,1.3034518282811869,1.0897657776277234,,,true,ll,4009.7919999761507,response,-1.3045229691102764,1.2,-1.2,-1.1781544075681951,1.2,-1.2,low,low,,ISIC_0071988.JPG,,ISIC_6148533.JPG,25,true,0.15000000000000002,ll,keypress(f),100,false,171817.80000001192,171817.39999997616,167790.824,167783.89999997616,167807.608,171857.415,1,16,8,
sequence,flow.Sequence,4_7,2023-11-17T21:42:39.205Z,,,,,,,,,,,4009.7919999761507,completion,,,,,,,low,low,,,,,,true,,,,,false,171818.39999997616,171817.39999997616,167790.824,167783.89999997616,167807.608,171857.415,1,16,,
trial,html.Screen,4_8_0,2023-11-17T21:42:48.210Z,,,,0,-0.8494721812820843,1.3435429139974266,,,true,hl,8965.784999988071,response,1.296989496412063,1.2,-1.2,-1.1425074323097002,1.2,-1.2,high,low,,ISIC_0033585.JPG,,ISIC_6356803.JPG,26,true,0.3300000000000002,hl,keypress(j),100,false,180823.5,180823.19999998808,171824.153,171818.60000002384,171857.415,180857.385,1,16,9,
sequence,flow.Sequence,4_8,2023-11-17T21:42:48.210Z,,,,,,,,,,,8965.784999988071,completion,,,,,,,high,low,,,,,,true,,,,,false,180824.10000002384,180823.19999998808,171824.153,171818.60000002384,171857.415,180857.385,1,16,,
trial,html.Screen,4_9_0,2023-11-17T21:42:55.177Z,,,,0,-1.0143509683988825,1.0281980567462463,,,true,hl,6931.415000011912,response,0.9046170303418553,1.2,-1.2,-1.0063426986460375,1.2,-1.2,high,low,,ISIC_0062031.JPG,,ISIC_0055759.JPG,33,true,0.3600000000000002,hl,keypress(j),100,false,187789,187788.80000001192,180824.145,180824.30000001192,180857.385,187807.397,1,16,10,
sequence,flow.Sequence,4_9,2023-11-17T21:42:55.178Z,,,,,,,,,,,6931.415000011912,completion,,,,,,,high,low,,,,,,true,,,,,false,187789.5,187788.80000001192,180824.145,180824.30000001192,180857.385,187807.397,1,16,,
trial,html.Screen,4_10_0,2023-11-17T21:42:58.957Z,,,,0,-1.3559315773956395,0.924768326187701,,,true,hl,3761.002999976161,response,0.9670240379618178,1.2,-1.2,-1.1806404773220665,1.2,-1.2,high,low,,ISIC_5101111.JPG,,ISIC_0002288.JPG,33,true,0.3600000000000002,hl,keypress(j),100,false,191568.60000002384,191568.39999997616,187790.76,187789.69999998808,187807.397,191590.702,1,16,11,
sequence,flow.Sequence,4_10,2023-11-17T21:42:58.957Z,,,,,,,,,,,3761.002999976161,completion,,,,,,,high,low,,,,,,true,,,,,false,191569.19999998808,191568.39999997616,187790.76,187789.69999998808,187807.397,191590.702,1,16,,
trial,html.Screen,4_11_0,2023-11-17T21:43:02.076Z,,,,0,-1.3515962101204746,0.8414583575292955,,,true,hl,3097.197999976168,response,0.8688859182707874,1.2,-1.2,-0.9566733172438716,1.2,-1.2,high,low,,ISIC_0274382.JPG,,ISIC_0640770.JPG,33,true,0.3600000000000002,hl,keypress(j),100,false,194688.30000001192,194687.89999997616,191574.089,191569.5,191590.702,194707.395,1,16,12,
sequence,flow.Sequence,4_11,2023-11-17T21:43:02.077Z,,,,,,,,,,,3097.197999976168,completion,,,,,,,high,low,,,,,,true,,,,,false,194688.80000001192,194687.89999997616,191574.089,191569.30000001192,191590.702,194707.395,1,16,,
trial,html.Screen,4_12_0,2023-11-17T21:43:09.198Z,,,,0,-1.1990772227054871,-1.1224329926844498,,,true,hh,7102.504999976169,response,1.086780249085418,1.2,-1.2,0.8982771817382743,1.2,-1.2,high,high,,ISIC_3425388.JPG,,ISIC_0057821.JPG,249,true,0.3600000000000002,hh,keypress(i),100,false,201810.19999998808,201809.89999997616,194690.745,194689,194707.395,201840.828,1,16,13,
sequence,flow.Sequence,4_12,2023-11-17T21:43:09.199Z,,,,,,,,,,,7102.504999976169,completion,,,,,,,high,high,,,,,,true,,,,,false,201810.69999998808,201809.89999997616,194690.745,194689,194707.395,201840.828,1,16,,
trial,html.Screen,4_13_0,2023-11-17T21:43:11.968Z,,,,0,-1.2200968917423711,-1.3183466064109373,,,true,hh,2738.8719999880705,response,1.0570280672376675,1.2,-1.2,1.0932046580095067,1.2,-1.2,high,high,,ISIC_3624318.JPG,,ISIC_0061320.JPG,41,true,0.15000000000000002,hh,keypress(i),100,false,204580.10000002384,204579.69999998808,201823.99,201811,201840.828,204607.58,1,16,14,
sequence,flow.Sequence,4_13,2023-11-17T21:43:11.969Z,,,,,,,,,,,2738.8719999880705,completion,,,,,,,high,high,,,,,,true,,,,,false,204580.60000002384,204579.69999998808,201823.99,201810.89999997616,201840.828,204607.58,1,16,,
trial,html.Screen,4_14_0,2023-11-17T21:43:13.938Z,,,,0,-1.2714351764931109,-1.0785174776187512,,,true,hh,1941.5200000238547,response,1.250220052739973,1.2,-1.2,1.2967258992731714,1.2,-1.2,high,high,,ISIC_2454898.JPG,,ISIC_0031368.JPG,41,true,0.15000000000000002,hh,keypress(i),100,false,206549.39999997616,206549.10000002384,204590.726,204580.80000001192,204607.58,206574.224,1,16,15,
sequence,flow.Sequence,4_14,2023-11-17T21:43:13.938Z,,,,,,,,,,,1941.5200000238547,completion,,,,,,,high,high,,,,,,true,,,,,false,206549.89999997616,206549.10000002384,204590.726,204580.80000001192,204607.58,206574.224,1,16,,
trial,html.Screen,4_15_0,2023-11-17T21:43:15.539Z,,,,0,-1.301795918505203,-1.0518606632781424,,,true,hh,1576.2760000000126,response,1.0621199008816968,1.2,-1.2,1.3373040630511746,1.2,-1.2,high,high,,ISIC_0027666.JPG,,ISIC_0046361.JPG,41,true,0.15000000000000002,hh,keypress(i),100,false,208150.80000001192,208150.5,206557.369,206550.10000002384,206574.224,208173.97,1,16,16,
sequence,flow.Sequence,4_15,2023-11-17T21:43:15.539Z,,,,,,,,,,,1576.2760000000126,completion,,,,,,,high,high,,,,,,true,,,,,false,208151.30000001192,208150.5,206557.369,206550,206574.224,208173.97,1,16,,
demonstration_loop,flow.Loop,4,2023-11-17T21:43:15.540Z,,,,,,,,,,,89692.951,completion,,,,,,,,,,,,,,true,,,,,false,208151.5,208150.5,118440.923,118428.60000002384,118457.549,208173.97,1,16,,
practice_instructions,html.Screen,5,2023-11-17T21:43:33.568Z,,,,,,,,,,,17997.83000001192,response,,,,,,,,,,,,,,,,continue,click button,,,226179.80000001192,226171.80000001192,208157.419,208151.60000002384,208173.97,226190.6,,,,
trial,html.Screen,6_0_0,2023-11-17T21:43:39.592Z,,,,1,-1.204229955025689,-1.0874249761617445,,,true,hh,6006.099999988073,response,1.2055236989581275,1.2,-1.2,1.1960893075698802,1.2,-1.2,high,high,,ISIC_0056930.JPG,,ISIC_0072393.JPG,27,true,0.12,hh,keypress(i),0,false,232203.5,232196.69999998808,226173.935,226179.80000001192,226190.6,232223.97,1,40,1,
sequence,flow.Sequence,6_0,2023-11-17T21:43:39.592Z,,,,,,,,,,,6006.099999988073,completion,,,,,,,high,high,,,,,,true,,,,,false,232203.60000002384,232196.69999998808,226173.935,226179.80000001192,226190.6,232223.97,1,40,,
trial,html.Screen,6_1_0,2023-11-17T21:43:43.331Z,,,,1,1.1894733304494307,1.1169761866204877,,,false,ll,3718.1300000238407,response,-1.0581281450494728,1.2,-1.2,-1.133169116569424,1.2,-1.2,low,low,,ISIC_0033813.JPG,,ISIC_5490352.JPG,25,true,0.15000000000000002,lh,keypress(e),0,false,235942.39999997616,235942.10000002384,232207.245,232203.69999998808,232223.97,235957.296,1,40,2,
sequence,flow.Sequence,6_1,2023-11-17T21:43:43.331Z,,,,,,,,,,,3718.1300000238407,completion,,,,,,,low,low,,,,,,true,,,,,false,235942.69999998808,235942.10000002384,232207.245,232203.69999998808,232223.97,235957.296,1,40,,
trial,html.Screen,6_2_0,2023-11-17T21:43:48.083Z,,,,1,-1.3471772753257971,-1.055978100098093,,,true,hh,4737.603999976156,response,1.189469386514313,1.2,-1.2,1.3008582067137853,1.2,-1.2,high,high,,ISIC_2077116.JPG,,ISIC_0010644.JPG,27,true,0.12,hh,keypress(i),0,false,240695.19999998808,240694.89999997616,235940.49,235943,235957.296,240707.222,1,40,3,
sequence,flow.Sequence,6_2,2023-11-17T21:43:48.084Z,,,,,,,,,,,4737.603999976156,completion,,,,,,,high,high,,,,,,true,,,,,false,240695.69999998808,240694.89999997616,235940.49,235943,235957.296,240707.222,1,40,,
trial,html.Screen,6_3_0,2023-11-17T21:43:53.282Z,,,,1,-1.3559315773956395,0.924768326187701,,,true,hl,5185.078000011912,response,0.9046170303418553,1.2,-1.2,-1.0063426986460375,1.2,-1.2,high,low,,ISIC_5101111.JPG,,ISIC_0055759.JPG,26,true,0.3300000000000002,hl,keypress(j),0,false,245892.39999997616,245892.30000001192,240690.543,240695.89999997616,240707.222,245907.203,1,40,4,
sequence,flow.Sequence,6_3,2023-11-17T21:43:53.282Z,,,,,,,,,,,5185.078000011912,completion,,,,,,,high,low,,,,,,true,,,,,false,245892.5,245892.30000001192,240690.543,240695.89999997616,240707.222,245907.203,1,40,,
trial,html.Screen,6_4_0,2023-11-17T21:43:58.828Z,,,,1,1.1547137855907486,-1.0185275168641534,,,false,lh,5530.4969999880705,response,-1.0143509683988825,1.2,-1.2,1.0281980567462463,1.2,-1.2,low,high,,ISIC_7604870.JPG,,ISIC_0062031.JPG,29,true,0.3600000000000002,hh,keypress(i),0,false,251437.89999997616,251437.69999998808,245890.601,245892.5,245907.203,251440.52,1,40,5,
sequence,flow.Sequence,6_4,2023-11-17T21:43:58.828Z,,,,,,,,,,,5530.4969999880705,completion,,,,,,,low,high,,,,,,true,,,,,false,251438,251437.69999998808,245890.601,245892.5,245907.203,251440.52,1,40,,
trial,html.Screen,6_5_0,2023-11-17T21:44:02.172Z,,,,1,-1.1727618800748076,-1.0636787813411093,,,true,hh,3341.7800000119314,response,0.9588812385345452,1.2,-1.2,0.9060043635318688,1.2,-1.2,high,high,,ISIC_9690371.JPG,,ISIC_0069986.JPG,211,true,0.3300000000000002,hh,keypress(i),0,false,254782.60000002384,254782.30000001192,251423.88,251438,251440.52,254790.53,1,40,6,
sequence,flow.Sequence,6_5,2023-11-17T21:44:02.173Z,,,,,,,,,,,3341.7800000119314,completion,,,,,,,high,high,,,,,,true,,,,,false,254783.10000002384,254782.30000001192,251423.88,251438,251440.52,254790.53,1,40,,
trial,html.Screen,6_6_0,2023-11-17T21:44:08.477Z,,,,1,1.1126049058422398,1.2305421124063929,,,true,ll,6296.369999976159,response,-1.1642596483638106,1.2,-1.2,-1.091507924157762,1.2,-1.2,low,low,,ISIC_0071536.JPG,,ISIC_0765584.JPG,25,true,0.15000000000000002,ll,keypress(f),0,false,261087.19999998808,261086.89999997616,254773.865,254783.30000001192,254790.53,261107.153,1,40,7,
sequence,flow.Sequence,6_6,2023-11-17T21:44:08.477Z,,,,,,,,,,,6296.369999976159,completion,,,,,,,low,low,,,,,,true,,,,,false,261087.60000002384,261086.89999997616,254773.865,254783.30000001192,254790.53,261107.153,1,40,,
trial,html.Screen,6_7_0,2023-11-17T21:44:11.899Z,,,,1,-0.8591294258188253,0.870797302150167,,,true,hl,3401.847000000009,response,1.0748728054622358,1.2,-1.2,-1.2840853987892311,1.2,-1.2,high,low,,ISIC_0055841.JPG,,ISIC_0059219.JPG,26,true,0.3300000000000002,hl,keypress(j),0,false,264509.10000002384,264509,261073.748,261087.80000001192,261107.153,264524.092,1,40,8,
sequence,flow.Sequence,6_7,2023-11-17T21:44:11.899Z,,,,,,,,,,,3401.847000000009,completion,,,,,,,high,low,,,,,,true,,,,,false,264509.1999999881,264509,261073.748,261087.69999998808,261107.153,264524.092,1,40,,
trial,html.Screen,6_8_0,2023-11-17T21:44:17.589Z,,,,1,1.152619213055059,1.2957497771092716,,,true,ll,5674.708000011917,response,-1.0831477774866454,1.2,-1.2,-1.0347343776726454,1.2,-1.2,low,low,,ISIC_0061915.JPG,,ISIC_9475559.JPG,157,true,0.3600000000000002,ll,keypress(f),0,false,270199.10000002384,270198.8000000119,264507.303,264509.1999999881,264524.092,270207.139,1,40,9,
sequence,flow.Sequence,6_8,2023-11-17T21:44:17.589Z,,,,,,,,,,,5674.708000011917,completion,,,,,,,low,low,,,,,,true,,,,,false,270199.60000002384,270198.8000000119,264507.303,264509.1999999881,264524.092,270207.139,1,40,,
trial,html.Screen,6_9_0,2023-11-17T21:44:22.116Z,,,,1,1.2232482867978696,1.2451219760556858,,,true,ll,4518.7609999761335,response,-1.073296525451802,1.2,-1.2,-1.3454282740421717,1.2,-1.2,low,low,,ISIC_0030889.JPG,,ISIC_5787312.JPG,25,true,0.15000000000000002,ll,keypress(f),0,false,274726.1999999881,274725.89999997616,270190.47,270199.6999999881,270207.139,274740.504,1,40,10,
sequence,flow.Sequence,6_9,2023-11-17T21:44:22.116Z,,,,,,,,,,,4518.7609999761335,completion,,,,,,,low,low,,,,,,true,,,,,false,274726.60000002384,274725.89999997616,270190.47,270199.6999999881,270207.139,274740.504,1,40,,
trial,html.Screen,6_10_0,2023-11-17T21:44:26.925Z,,,,1,1.2232482867978696,1.2451219760556858,,,false,ll,4794.195999988064,response,-1.301795918505203,1.2,-1.2,-1.0518606632781424,1.2,-1.2,low,low,,ISIC_0030889.JPG,,ISIC_0027666.JPG,25,true,0.15000000000000002,lh,keypress(e),0,false,279535,279534.6999999881,274723.867,274726.8000000119,274740.504,279557.12,1,40,11,
sequence,flow.Sequence,6_10,2023-11-17T21:44:26.925Z,,,,,,,,,,,4794.195999988064,completion,,,,,,,low,low,,,,,,true,,,,,false,279535.39999997616,279534.6999999881,274723.867,274726.6999999881,274740.504,279557.12,1,40,,
trial,html.Screen,6_11_0,2023-11-17T21:44:30.732Z,,,,1,1.0345332538240786,-1.4719115945084815,,,true,lh,3784.5799999880837,response,-0.849847885203758,1.2,-1.2,0.973447384095442,1.2,-1.2,low,high,,ISIC_0192490.JPG,,ISIC_9612228.JPG,29,true,0.3600000000000002,lh,keypress(e),0,false,283341.89999997616,283341.6999999881,279523.677,279535.5,279557.12,283357.077,1,40,12,
sequence,flow.Sequence,6_11,2023-11-17T21:44:30.732Z,,,,,,,,,,,3784.5799999880837,completion,,,,,,,low,high,,,,,,true,,,,,false,283342.10000002384,283341.6999999881,279523.677,279535.5,279557.12,283357.077,1,40,,
trial,html.Screen,6_12_0,2023-11-17T21:44:34.764Z,,,,1,-0.8779374983479176,0.9745548032823428,,,false,hl,4016.92300000001,response,0.9873794329144926,1.2,-1.2,-0.9500689037516484,1.2,-1.2,high,low,,ISIC_2991354.JPG,,ISIC_0013498.JPG,26,true,0.3300000000000002,hh,keypress(i),0,false,287374.3000000119,287374,283340.595,283342.3000000119,283357.077,287390.404,1,40,13,
sequence,flow.Sequence,6_12,2023-11-17T21:44:34.764Z,,,,,,,,,,,4016.92300000001,completion,,,,,,,high,low,,,,,,true,,,,,false,287374.60000002384,287374,283340.595,283342.1999999881,283357.077,287390.404,1,40,,
trial,html.Screen,6_13_0,2023-11-17T21:44:38.612Z,,,,1,-1.0143509683988825,1.0281980567462463,,,true,hl,3831.2959999880986,response,1.2704198237183777,1.2,-1.2,-1.138121072015301,1.2,-1.2,high,low,,ISIC_0062031.JPG,,ISIC_0501843.JPG,33,true,0.3600000000000002,hl,keypress(j),0,false,291221.89999997616,291221.6999999881,287373.928,287374.8000000119,287390.404,291241.338,1,40,14,
sequence,flow.Sequence,6_13,2023-11-17T21:44:38.612Z,,,,,,,,,,,3831.2959999880986,completion,,,,,,,high,low,,,,,,true,,,,,false,291222.3000000119,291221.6999999881,287373.928,287374.8000000119,287390.404,291241.338,1,40,,
trial,html.Screen,6_14_0,2023-11-17T21:44:41.259Z,,,,1,-1.1235224875125256,0.8641223012137988,,,true,hl,2627.5619999761693,response,0.9873794329144926,1.2,-1.2,-0.9500689037516484,1.2,-1.2,high,low,,ISIC_0033901.JPG,,ISIC_0013498.JPG,33,true,0.3600000000000002,hl,keypress(j),0,false,293869,293868.89999997616,291207.054,291222.5,291241.338,293873.736,1,40,15,
sequence,flow.Sequence,6_14,2023-11-17T21:44:41.259Z,,,,,,,,,,,2627.5619999761693,completion,,,,,,,high,low,,,,,,true,,,,,false,293869,293868.89999997616,291207.054,291222.39999997616,291241.338,293873.736,1,40,,
trial,html.Screen,6_15_0,2023-11-17T21:44:44.524Z,,,,1,1.296989496412063,-1.1425074323097002,,,true,lh,3260.3640000238665,response,-0.8591294258188253,1.2,-1.2,0.870797302150167,1.2,-1.2,low,high,,ISIC_6356803.JPG,,ISIC_0055841.JPG,29,true,0.3600000000000002,lh,keypress(e),0,false,297134.3000000119,297134.10000002384,293857.279,293869.1999999881,293873.736,297140.398,1,40,16,
sequence,flow.Sequence,6_15,2023-11-17T21:44:44.524Z,,,,,,,,,,,3260.3640000238665,completion,,,,,,,low,high,,,,,,true,,,,,false,297134.60000002384,297134.10000002384,293857.279,293869.10000002384,293873.736,297140.398,1,40,,
trial,html.Screen,6_16_0,2023-11-17T21:44:51.982Z,,,,1,1.0264463986917702,-1.171271535505083,,,true,lh,7449.801999988093,response,-0.8494721812820843,1.2,-1.2,1.3435429139974266,1.2,-1.2,low,high,,ISIC_7889838.JPG,,ISIC_0033585.JPG,29,true,0.3600000000000002,lh,keypress(e),0,false,304590.5,304590.1999999881,297123.766,297134.89999997616,297140.398,304607.046,1,40,17,
sequence,flow.Sequence,6_16,2023-11-17T21:44:51.982Z,,,,,,,,,,,7449.801999988093,completion,,,,,,,low,high,,,,,,true,,,,,false,304590.8000000119,304590.1999999881,297123.766,297134.8000000119,297140.398,304607.046,1,40,,
trial,html.Screen,6_17_0,2023-11-17T21:44:56.685Z,,,,1,-1.0143509683988825,1.0281980567462463,,,true,hl,4686.754000011948,response,1.155796217969438,1.2,-1.2,-1.1646564121743912,1.2,-1.2,high,low,,ISIC_0062031.JPG,,ISIC_2685523.JPG,26,true,0.3300000000000002,hl,keypress(j),0,false,309294,309293.8000000119,304590.352,304591,304607.046,309307.029,1,40,18,
sequence,flow.Sequence,6_17,2023-11-17T21:44:56.686Z,,,,,,,,,,,4686.754000011948,completion,,,,,,,high,low,,,,,,true,,,,,false,309294.3000000119,309293.8000000119,304590.352,304591,304607.046,309307.029,1,40,,
trial,html.Screen,6_18_0,2023-11-17T21:44:58.253Z,,,,1,1.2609895831255231,-1.0687377724194886,,,false,lh,1554.5710000238614,response,-0.8779374983479176,1.2,-1.2,0.9745548032823428,1.2,-1.2,low,high,,ISIC_1367610.JPG,,ISIC_2991354.JPG,29,true,0.3600000000000002,ll,keypress(f),0,false,310861.89999997616,310861.60000002384,309290.285,309294.60000002384,309307.029,310873.77,1,40,19,
sequence,flow.Sequence,6_18,2023-11-17T21:44:58.253Z,,,,,,,,,,,1554.5710000238614,completion,,,,,,,low,high,,,,,,true,,,,,false,310862.3000000119,310861.60000002384,309290.285,309294.39999997616,309307.029,310873.77,1,40,,
trial,html.Screen,6_19_0,2023-11-17T21:45:05.078Z,,,,1,-1.0581281450494728,-1.133169116569424,,,true,hh,6812.530000011902,response,1.250220052739973,1.2,-1.2,1.2967258992731714,1.2,-1.2,high,high,,ISIC_5490352.JPG,,ISIC_0031368.JPG,211,true,0.3300000000000002,hh,keypress(i),0,false,317686.60000002384,317686.3000000119,310857.222,310862.5,310873.77,317706.982,1,40,20,
sequence,flow.Sequence,6_19,2023-11-17T21:45:05.078Z,,,,,,,,,,,6812.530000011902,completion,,,,,,,high,high,,,,,,true,,,,,false,317686.89999997616,317686.3000000119,310857.222,310862.39999997616,310873.77,317706.982,1,40,,
trial,html.Screen,6_20_0,2023-11-17T21:45:09.150Z,,,,1,1.0822170028935367,-1.1654796154432183,,,true,lh,4051.1180000238237,response,-1.2838089642212804,1.2,-1.2,0.8550527900640753,1.2,-1.2,low,high,,ISIC_7288818.JPG,,ISIC_0034187.JPG,29,true,0.3600000000000002,lh,keypress(e),0,false,321758.39999997616,321758.10000002384,317673.637,317687.10000002384,317706.982,321773.668,1,40,21,
sequence,flow.Sequence,6_20,2023-11-17T21:45:09.150Z,,,,,,,,,,,4051.1180000238237,completion,,,,,,,low,high,,,,,,true,,,,,false,321758.8000000119,321758.10000002384,317673.637,317687.10000002384,317706.982,321773.668,1,40,,
trial,html.Screen,6_21_0,2023-11-17T21:45:12.838Z,,,,1,-1.3559315773956395,0.924768326187701,,,true,hl,3672.831999999995,response,0.9670240379618178,1.2,-1.2,-1.1806404773220665,1.2,-1.2,high,low,,ISIC_5101111.JPG,,ISIC_0002288.JPG,26,true,0.3300000000000002,hl,keypress(j),0,false,325446.8000000119,325446.5,321757.098,321759,321773.668,325456.986,1,40,22,
sequence,flow.Sequence,6_21,2023-11-17T21:45:12.838Z,,,,,,,,,,,3672.831999999995,completion,,,,,,,high,low,,,,,,true,,,,,false,325447.10000002384,325446.5,321757.098,321759,321773.668,325456.986,1,40,,
trial,html.Screen,6_22_0,2023-11-17T21:45:15.438Z,,,,1,1.055319394932912,-1.409116680310466,,,true,lh,2589.913999976183,response,-0.9039158082670506,1.2,-1.2,1.0517562064343149,1.2,-1.2,low,high,,ISIC_6398669.JPG,,ISIC_0015411.JPG,29,true,0.3600000000000002,lh,keypress(e),0,false,328047.1999999881,328046.89999997616,325440.45,325447.3000000119,325456.986,328056.986,1,40,23,
sequence,flow.Sequence,6_22,2023-11-17T21:45:15.439Z,,,,,,,,,,,2589.913999976183,completion,,,,,,,low,high,,,,,,true,,,,,false,328047.6999999881,328046.89999997616,325440.45,325447.3000000119,325456.986,328056.986,1,40,,
trial,html.Screen,6_23_0,2023-11-17T21:45:18.789Z,,,,1,-1.0143509683988825,1.0281980567462463,,,true,hl,3340.6140000238665,response,0.9225524349657857,1.2,-1.2,-0.929746784178986,1.2,-1.2,high,low,,ISIC_0062031.JPG,,ISIC_0011077.JPG,26,true,0.3300000000000002,hl,keypress(j),0,false,331397.89999997616,331397.60000002384,328040.49,328047.89999997616,328056.986,331406.971,1,40,24,
sequence,flow.Sequence,6_23,2023-11-17T21:45:18.789Z,,,,,,,,,,,3340.6140000238665,completion,,,,,,,high,low,,,,,,true,,,,,false,331398.1999999881,331397.60000002384,328040.49,328047.8000000119,328056.986,331406.971,1,40,,
trial,html.Screen,6_24_0,2023-11-17T21:45:23.278Z,,,,1,-1.0581281450494728,-1.133169116569424,,,true,hh,4479.02899999998,response,0.9926496793263212,1.2,-1.2,1.0520809837712837,1.2,-1.2,high,high,,ISIC_5490352.JPG,,ISIC_0062686.JPG,249,true,0.3600000000000002,hh,keypress(i),0,false,335886.3000000119,335886,331390.456,331398.39999997616,331406.971,335890.334,1,40,25,
sequence,flow.Sequence,6_24,2023-11-17T21:45:23.278Z,,,,,,,,,,,4479.02899999998,completion,,,,,,,high,high,,,,,,true,,,,,false,335886.60000002384,335886,331390.456,331398.3000000119,331406.971,335890.334,1,40,,
trial,html.Screen,6_25_0,2023-11-17T21:45:27.348Z,,,,1,-1.073296525451802,-1.3454282740421717,,,true,hh,4066.7660000238684,response,1.2289750544294995,1.2,-1.2,1.3003764624334877,1.2,-1.2,high,high,,ISIC_5787312.JPG,,ISIC_0054167.JPG,41,true,0.15000000000000002,hh,keypress(i),0,false,339957.1999999881,339957.10000002384,335873.602,335887,335890.334,339973.881,1,40,26,
sequence,flow.Sequence,6_25,2023-11-17T21:45:27.349Z,,,,,,,,,,,4066.7660000238684,completion,,,,,,,high,high,,,,,,true,,,,,false,339957.3000000119,339957.10000002384,335873.602,335886.89999997616,335890.334,339973.881,1,40,,
trial,html.Screen,6_26_0,2023-11-17T21:45:32.878Z,,,,1,1.3034518282811869,1.0897657776277234,,,true,ll,5512.719000023848,response,-1.053007132776416,1.2,-1.2,-1.341217082060068,1.2,-1.2,low,low,,ISIC_0071988.JPG,,ISIC_0024208.JPG,25,true,0.15000000000000002,ll,keypress(f),0,false,345486.8000000119,345486.60000002384,339956.973,339957.39999997616,339973.881,345523.6,1,40,27,
sequence,flow.Sequence,6_26,2023-11-17T21:45:32.878Z,,,,,,,,,,,5512.719000023848,completion,,,,,,,low,low,,,,,,true,,,,,false,345487.1999999881,345486.60000002384,339956.973,339957.39999997616,339973.881,345523.6,1,40,,
trial,html.Screen,6_27_0,2023-11-17T21:45:36.077Z,,,,1,-1.00615481805876,0.8428903771195875,,,true,hl,3162.200000011944,response,1.155796217969438,1.2,-1.2,-1.1646564121743912,1.2,-1.2,high,low,,ISIC_0069970.JPG,,ISIC_2685523.JPG,26,true,0.3300000000000002,hl,keypress(j),0,false,348686.10000002384,348685.8000000119,345473.618,345487.3000000119,345523.6,348690.315,1,40,28,
sequence,flow.Sequence,6_27,2023-11-17T21:45:36.078Z,,,,,,,,,,,3162.200000011944,completion,,,,,,,high,low,,,,,,true,,,,,false,348686.3000000119,348685.8000000119,345473.618,345487.3000000119,345523.6,348690.315,1,40,,
trial,html.Screen,6_28_0,2023-11-17T21:45:38.662Z,,,,1,0.9225524349657857,-0.929746784178986,,,true,lh,2579.9850000119186,response,-1.0003671514840182,1.2,-1.2,0.8992716557663581,1.2,-1.2,low,high,,ISIC_0011077.JPG,,ISIC_0061749.JPG,29,true,0.3600000000000002,lh,keypress(e),0,false,351270.5,351270.3000000119,348673.617,348686.5,348690.315,351273.653,1,40,29,
sequence,flow.Sequence,6_28,2023-11-17T21:45:38.662Z,,,,,,,,,,,2579.9850000119186,completion,,,,,,,low,high,,,,,,true,,,,,false,351271.10000002384,351270.3000000119,348673.617,348686.5,348690.315,351273.653,1,40,,
trial,html.Screen,6_29_0,2023-11-17T21:45:42.819Z,,,,1,1.194799101954455,1.2071632388858642,,,true,ll,4153.947000023851,response,-1.1916474034036555,1.2,-1.2,-0.9241960109301964,1.2,-1.2,low,low,,ISIC_4347535.JPG,,ISIC_0000297.JPG,127,true,0.3300000000000002,ll,keypress(f),0,false,355427.6999999881,355427.60000002384,351256.995,351271.1999999881,351273.653,355440.183,1,40,30,
sequence,flow.Sequence,6_29,2023-11-17T21:45:42.819Z,,,,,,,,,,,4153.947000023851,completion,,,,,,,low,low,,,,,,true,,,,,false,355427.89999997616,355427.60000002384,351256.995,351271.1999999881,351273.653,355440.183,1,40,,
trial,html.Screen,6_30_0,2023-11-17T21:45:44.499Z,,,,1,1.2055236989581275,1.1960893075698802,,,true,ll,1667.816999999981,response,-1.3471772753257971,1.2,-1.2,-1.055978100098093,1.2,-1.2,low,low,,ISIC_0072393.JPG,,ISIC_2077116.JPG,25,true,0.15000000000000002,ll,keypress(f),0,false,357108.10000002384,357108,355423.674,355428,355440.183,357123.572,1,40,31,
sequence,flow.Sequence,6_30,2023-11-17T21:45:44.499Z,,,,,,,,,,,1667.816999999981,completion,,,,,,,low,low,,,,,,true,,,,,false,357108.1999999881,357108,355423.674,355427.89999997616,355440.183,357123.572,1,40,,
trial,html.Screen,6_31_0,2023-11-17T21:45:45.806Z,,,,1,-1.1168199061753437,-1.212287319329914,,,true,hh,1290.7280000119354,response,1.194799101954455,1.2,-1.2,1.2071632388858642,1.2,-1.2,high,high,,ISIC_5919355.JPG,,ISIC_4347535.JPG,27,true,0.12,hh,keypress(i),0,false,358414.5,358414.3000000119,357106.841,357108.3000000119,357123.572,358423.55,1,40,32,
sequence,flow.Sequence,6_31,2023-11-17T21:45:45.806Z,,,,,,,,,,,1290.7280000119354,completion,,,,,,,high,high,,,,,,true,,,,,false,358414.89999997616,358414.3000000119,357106.841,357108.1999999881,357123.572,358423.55,1,40,,
trial,html.Screen,6_32_0,2023-11-17T21:45:47.173Z,,,,1,-1.1642596483638106,-1.091507924157762,,,true,hh,1357.9500000000116,response,1.2315945866020412,1.2,-1.2,1.13226141421557,1.2,-1.2,high,high,,ISIC_0765584.JPG,,ISIC_0033595.JPG,41,true,0.15000000000000002,hh,keypress(i),0,false,359781.8000000119,359781.5,358407.091,358415.10000002384,358423.55,359790.224,1,40,33,
sequence,flow.Sequence,6_32,2023-11-17T21:45:47.173Z,,,,,,,,,,,1357.9500000000116,completion,,,,,,,high,high,,,,,,true,,,,,false,359782.10000002384,359781.5,358407.091,358415,358423.55,359790.224,1,40,,
trial,html.Screen,6_33_0,2023-11-17T21:45:48.700Z,,,,1,-1.1217390688497193,-1.2276600934505035,,,true,hh,1518.9759999880916,response,1.152619213055059,1.2,-1.2,1.2957497771092716,1.2,-1.2,high,high,,ISIC_0026344.JPG,,ISIC_0061915.JPG,41,true,0.15000000000000002,hh,keypress(i),0,false,361309.3000000119,361309.1999999881,359773.794,359782.3000000119,359790.224,361323.56,1,40,34,
sequence,flow.Sequence,6_33,2023-11-17T21:45:48.701Z,,,,,,,,,,,1518.9759999880916,completion,,,,,,,high,high,,,,,,true,,,,,false,361309.39999997616,361309.1999999881,359773.794,359782.1999999881,359790.224,361323.56,1,40,,
trial,html.Screen,6_34_0,2023-11-17T21:45:49.844Z,,,,1,-1.1235224875125256,0.8641223012137988,,,true,hl,1128.9400000000023,response,1.155796217969438,1.2,-1.2,-1.1646564121743912,1.2,-1.2,high,low,,ISIC_0033901.JPG,,ISIC_2685523.JPG,26,true,0.3300000000000002,hl,keypress(j),0,false,362452.60000002384,362452.5,361307.09,361309.5,361323.56,362456.883,1,40,35,
sequence,flow.Sequence,6_34,2023-11-17T21:45:49.844Z,,,,,,,,,,,1128.9400000000023,completion,,,,,,,high,low,,,,,,true,,,,,false,362452.8000000119,362452.5,361307.09,361309.39999997616,361323.56,362456.883,1,40,,
trial,html.Screen,6_35_0,2023-11-17T21:45:57.565Z,,,,1,-1.212030980680325,-1.139863018685685,,,true,hh,7715.516999976186,response,0.9735583105865782,1.2,-1.2,0.8683758859171238,1.2,-1.2,high,high,,ISIC_0008510.JPG,,ISIC_0065204.JPG,249,true,0.3600000000000002,hh,keypress(i),0,false,370172.39999997616,370172.39999997616,362440.228,362452.8000000119,362456.883,370191.239,1,40,36,
sequence,flow.Sequence,6_35,2023-11-17T21:45:57.565Z,,,,,,,,,,,7715.516999976186,completion,,,,,,,high,high,,,,,,true,,,,,false,370172.60000002384,370172.39999997616,362440.228,362452.8000000119,362456.883,370191.239,1,40,,
trial,html.Screen,6_36_0,2023-11-17T21:46:01.591Z,,,,1,1.082730232773217,-0.8833175387485132,,,true,lh,4006.7609999999986,response,-0.9087169856594104,1.2,-1.2,0.8835647084207277,1.2,-1.2,low,high,,ISIC_0011933.JPG,,ISIC_0000349.JPG,29,true,0.3600000000000002,lh,keypress(e),0,false,374198.1999999881,374198,370156.711,370172.60000002384,370191.239,374206.92,1,40,37,
sequence,flow.Sequence,6_36,2023-11-17T21:46:01.591Z,,,,,,,,,,,4006.7609999999986,completion,,,,,,,low,high,,,,,,true,,,,,false,374198.60000002384,374198,370156.711,370172.60000002384,370191.239,374206.92,1,40,,
trial,html.Screen,6_37_0,2023-11-17T21:46:05.965Z,,,,1,1.2055236989581275,1.1960893075698802,,,true,ll,4365.880000011937,response,-1.2980928913807466,1.2,-1.2,-0.9264411131860116,1.2,-1.2,low,low,,ISIC_0072393.JPG,,ISIC_5646706.JPG,127,true,0.3300000000000002,ll,keypress(f),0,false,378572.89999997616,378572.8000000119,374190.204,374198.8000000119,374206.92,378590.563,1,40,38,
sequence,flow.Sequence,6_37,2023-11-17T21:46:05.965Z,,,,,,,,,,,4365.880000011937,completion,,,,,,,low,low,,,,,,true,,,,,false,378573,378572.8000000119,374190.204,374198.8000000119,374206.92,378590.563,1,40,,
trial,html.Screen,6_38_0,2023-11-17T21:46:09.149Z,,,,1,1.1592423187534993,-1.067128884093211,,,true,lh,3165.8369999761344,response,-1.225025174430573,1.2,-1.2,0.8422679054456499,1.2,-1.2,low,high,,ISIC_6854940.JPG,,ISIC_7503950.JPG,29,true,0.3600000000000002,lh,keypress(e),0,false,381756.39999997616,381756.39999997616,378556.723,378573,378590.563,381773.537,1,40,39,
sequence,flow.Sequence,6_38,2023-11-17T21:46:09.149Z,,,,,,,,,,,3165.8369999761344,completion,,,,,,,low,high,,,,,,true,,,,,false,381756.5,381756.39999997616,378556.723,378573,378590.563,381773.537,1,40,,
trial,html.Screen,6_39_0,2023-11-17T21:46:15.709Z,,,,1,1.1715181192107684,1.2251845559044463,,,true,ll,6543.162999988068,response,-0.9116506478817816,1.2,-1.2,-1.0416072379908032,1.2,-1.2,low,low,,ISIC_0011957.JPG,,ISIC_3273370.JPG,127,true,0.3300000000000002,ll,keypress(f),0,false,388316.8000000119,388316.6999999881,381756.797,381756.5,381773.537,388323.458,1,40,40,
sequence,flow.Sequence,6_39,2023-11-17T21:46:15.709Z,,,,,,,,,,,6543.162999988068,completion,,,,,,,low,low,,,,,,true,,,,,false,388316.8000000119,388316.6999999881,381756.797,381756.5,381773.537,388323.458,1,40,,
practice_loop,flow.Loop,6,2023-11-17T21:46:15.709Z,,,,,,,,,,,162126.09999998807,completion,,,,,,,,,,,,,,true,,,,,false,388316.89999997616,388316.6999999881,226173.935,226179.80000001192,226190.6,388323.458,1,40,,
stair_instructions,html.Screen,7,2023-11-17T21:46:36.892Z,,,,,,,,,,,21176.042000000016,response,,,,,,,,,,,,,,,,continue,click button,,,409500,409499.5,388306.845,388317,388323.458,409506.765,,,,
trial,html.Screen,8_0_0,2023-11-17T21:46:46.824Z,,,,2,0.0166849894750452,-0.0371614812368835,,0.04,false,ll,9924.835000023828,response,-1.1655508270784471,1.2,-1.2,-1.1162776063248168,1.2,-1.2,low,low,,ISIC_6231450.JPG,,ISIC_5509946.JPG,25,false,0.15000000000000002,hl,keypress(j),0,true,419431.60000002384,419431.60000002384,409490.373,409500.10000002384,409506.765,419456.758,1,40,1,
sequence,flow.Sequence,8_0,2023-11-17T21:46:46.824Z,,,,,,,,,,,9924.835000023828,completion,,,,,,,low,low,,,,,,false,,,,,true,419431.6999999881,419431.60000002384,409490.373,409500.10000002384,409506.765,419456.758,1,40,,
trial,html.Screen,8_1_0,2023-11-17T21:46:50.424Z,,,,2,-0.010035581303589,0.0100711721396864,,0.04,false,ll,3574.2420000000275,response,-1.1642596483638106,1.15,-1.2,-1.091507924157762,1.15,-1.15,low,low,,ISIC_0030592.JPG,,ISIC_0765584.JPG,25,false,0.14,hl,keypress(j),0,true,423031.3000000119,423031,419440.14,419431.8000000119,419456.758,423040.031,1,40,2,
sequence,flow.Sequence,8_1,2023-11-17T21:46:50.424Z,,,,,,,,,,,3574.2420000000275,completion,,,,,,,low,low,,,,,,false,,,,,true,423031.6999999881,423031,419440.14,419431.8000000119,419456.758,423040.031,1,40,,
trial,html.Screen,8_2_0,2023-11-17T21:46:55.238Z,,,,2,0.0399381815506136,0.0177751789152893,,0.04,true,hh,4804.069000023825,response,1.1227373144244253,1.15,-1.2,1.1886610799377713,1.15,-1.0538927652412895,high,high,,ISIC_3981425.JPG,,ISIC_0059506.JPG,25,false,0.11,hh,keypress(i),0,true,427844.3000000119,427844.10000002384,423023.536,423031.89999997616,423040.031,427856.704,1,40,3,
sequence,flow.Sequence,8_2,2023-11-17T21:46:55.238Z,,,,,,,,,,,4804.069000023825,completion,,,,,,,high,high,,,,,,false,,,,,true,427844.39999997616,427844.10000002384,423023.536,423031.8000000119,423040.031,427856.704,1,40,,
trial,html.Screen,8_3_0,2023-11-17T21:46:58.783Z,,,,2,0.0377791839943904,-0.0227626648172468,,0.04,true,lh,3532.495999988052,response,-1.225025174430573,1.15,-1.15,0.8422679054456499,1.15,-1.0538927652412895,low,high,,ISIC_7167479.JPG,,ISIC_7503950.JPG,27,false,0.31000000000000016,lh,keypress(e),0,true,431389.1999999881,431389.1999999881,427839.953,427844.39999997616,427856.704,431407.218,1,40,4,
sequence,flow.Sequence,8_3,2023-11-17T21:46:58.783Z,,,,,,,,,,,3532.495999988052,completion,,,,,,,low,high,,,,,,false,,,,,true,431389.39999997616,431389.1999999881,427839.953,427844.39999997616,427856.704,431407.218,1,40,,
trial,html.Screen,8_4_0,2023-11-17T21:47:02.585Z,,,,2,0.0377791839943904,-0.0227626648172468,,0.04,true,lh,3783.4819999880856,response,-1.2018448523268856,1.15,-1.15,0.8157731190790072,1.0999999999999999,-1.0538927652412895,low,high,,ISIC_7167479.JPG,,ISIC_7662993.JPG,26,false,0.29000000000000015,lh,keypress(e),0,true,435190.89999997616,435190.6999999881,431373.539,431389.39999997616,431407.218,435206.924,1,40,5,
sequence,flow.Sequence,8_4,2023-11-17T21:47:02.585Z,,,,,,,,,,,3783.4819999880856,completion,,,,,,,low,high,,,,,,false,,,,,true,435191.3000000119,435190.6999999881,431373.539,431389.39999997616,431407.218,435206.924,1,40,,
trial,html.Screen,8_5_0,2023-11-17T21:47:07.976Z,,,,2,-0.0189295602385628,-0.0128812415435153,,0.04,true,hh,5374.876000011922,response,1.1320017221158485,1.15,-1.0999999999999999,1.065213496692536,1.0999999999999999,-1.0538927652412895,high,high,,ISIC_0010372.JPG,,ISIC_0030597.JPG,27,false,0.11,hh,keypress(i),0,true,440582,440581.8000000119,435190.038,435191.5,435206.924,440590.024,1,40,6,
sequence,flow.Sequence,8_5,2023-11-17T21:47:07.976Z,,,,,,,,,,,5374.876000011922,completion,,,,,,,high,high,,,,,,false,,,,,true,440582.39999997616,440581.8000000119,435190.038,435191.5,435206.924,440590.024,1,40,,
trial,html.Screen,8_6_0,2023-11-17T21:47:12.831Z,,,,2,-0.0127320821962457,0.0315308940184827,,0.04,false,ll,4846.875999976182,response,-1.1569583426015195,0.8904933078857715,-1.0999999999999999,-1.02258614327008,0.8904933078857715,-1.0538927652412895,low,low,,ISIC_8156101.JPG,,ISIC_5705973.JPG,26,false,0.11,lh,keypress(e),0,true,445437,445436.89999997616,440573.241,440582.60000002384,440590.024,445439.961,1,40,7,
sequence,flow.Sequence,8_6,2023-11-17T21:47:12.831Z,,,,,,,,,,,4846.875999976182,completion,,,,,,,low,low,,,,,,false,,,,,true,445437.1999999881,445436.89999997616,440573.241,440582.5,440590.024,445439.961,1,40,,
trial,html.Screen,8_7_0,2023-11-17T21:47:15.775Z,,,,2,-0.0063515208248796,-0.0194177605767913,,0.04,false,hl,2941.438999976148,response,0.8709576717420565,0.8904933078857715,-1.0999999999999999,-1.2795156779072283,0.8904933078857715,-1.1038927652412895,high,low,,ISIC_5281908.JPG,,ISIC_1925632.JPG,28,false,0.19000000000000006,lh,keypress(e),0,true,448381.60000002384,448381.39999997616,445423.363,445437.1999999881,445439.961,448389.959,1,40,8,
sequence,flow.Sequence,8_7,2023-11-17T21:47:15.776Z,,,,,,,,,,,2941.438999976148,completion,,,,,,,high,low,,,,,,false,,,,,true,448382,448381.39999997616,445423.363,445437.1999999881,445439.961,448389.959,1,40,,
trial,html.Screen,8_8_0,2023-11-17T21:47:18.632Z,,,,2,-0.0051046740562181,0.0178832721027728,,0.04,true,hl,2847.6410000238684,response,0.7705174182595537,0.9404933078857716,-1.0999999999999999,-1.085710894474977,0.8904933078857715,-1.1538927652412896,high,low,,ISIC_9545819.JPG,,ISIC_0013644.JPG,25,false,0.20000000000000007,hl,keypress(j),0,true,451237.8000000119,451237.60000002384,448373.332,448382.1999999881,448389.959,451240.041,1,40,9,
sequence,flow.Sequence,8_8,2023-11-17T21:47:18.632Z,,,,,,,,,,,2847.6410000238684,completion,,,,,,,high,low,,,,,,false,,,,,true,451238.1999999881,451237.60000002384,448373.332,448382.10000002384,448389.959,451240.041,1,40,,
trial,html.Screen,8_9_0,2023-11-17T21:47:23.072Z,,,,2,0.012810673904807,-0.00400964452501,,0.04,true,hh,4437.858999976132,response,0.8752617287758995,0.9404933078857716,-1.0999999999999999,0.8023740329006754,0.8904933078857715,-1.1538927652412896,high,high,,ISIC_0064656.JPG,,ISIC_0033968.JPG,57,false,0.1,hh,keypress(i),0,true,455678.10000002384,455677.89999997616,451223.239,451238.39999997616,451240.041,455690.022,1,40,10,
sequence,flow.Sequence,8_9,2023-11-17T21:47:23.072Z,,,,,,,,,,,4437.858999976132,completion,,,,,,,high,high,,,,,,false,,,,,true,455678.5,455677.89999997616,451223.239,451238.3000000119,451240.041,455690.022,1,40,,
trial,html.Screen,8_10_0,2023-11-17T21:47:26.816Z,,,,2,0.0060934073440827,0.0279108145883031,,0.04,true,hl,3732.2780000119237,response,0.7468996036626098,0.7888178808382874,-1.0999999999999999,-1.0079605779898853,0.8904933078857715,-1.1538927652412896,high,low,,ISIC_0032604.JPG,,ISIC_5335139.JPG,29,false,0.17000000000000004,hl,keypress(j),0,true,459422.5,459422.3000000119,455673.244,455678.60000002384,455690.022,459440.001,1,40,11,
sequence,flow.Sequence,8_10,2023-11-17T21:47:26.817Z,,,,,,,,,,,3732.2780000119237,completion,,,,,,,high,low,,,,,,false,,,,,true,459422.8000000119,459422.3000000119,455673.244,455678.60000002384,455690.022,459440.001,1,40,,
trial,html.Screen,8_11_0,2023-11-17T21:47:30.248Z,,,,2,0.0050679133050021,0.0174815595031679,,0.04,false,ll,3413.5990000238526,response,-1.1569583426015195,0.7888178808382874,-1.0999999999999999,-1.02258614327008,0.8904933078857715,-1.1038927652412895,low,low,,ISIC_9848743.JPG,,ISIC_5705973.JPG,26,false,0.12,hl,keypress(j),0,true,462853.89999997616,462853.60000002384,459423.419,459423.10000002384,459440.001,462856.7,1,40,12,
sequence,flow.Sequence,8_11,2023-11-17T21:47:30.248Z,,,,,,,,,,,3413.5990000238526,completion,,,,,,,low,low,,,,,,false,,,,,true,462854.3000000119,462853.60000002384,459423.419,459423,459440.001,462856.7,1,40,,
trial,html.Screen,8_12_0,2023-11-17T21:47:34.776Z,,,,2,0.012810673904807,-0.00400964452501,,0.04,true,hh,4525.299999999988,response,0.7738532220362052,0.7888178808382874,-1.15,0.9428791562371496,0.8904933078857715,-1.1038927652412895,high,high,,ISIC_0064656.JPG,,ISIC_0053854.JPG,58,false,0.1,hh,keypress(i),0,true,467382.3000000119,467382,462839.997,462854.5,462856.7,467389.927,1,40,13,
sequence,flow.Sequence,8_12,2023-11-17T21:47:34.776Z,,,,,,,,,,,4525.299999999988,completion,,,,,,,high,high,,,,,,false,,,,,true,467382.6999999881,467382,462839.997,462854.39999997616,462856.7,467389.927,1,40,,
trial,html.Screen,8_13_0,2023-11-17T21:47:39.584Z,,,,2,-0.010035581303589,0.0100711721396864,,0.04,false,lh,4800.472999976133,response,-1.1598623261077452,0.7388178808382874,-1.15,0.6961047103031557,0.8404933078857715,-1.1038927652412895,low,high,,ISIC_0030592.JPG,,ISIC_0002639.JPG,26,false,0.20000000000000007,hl,keypress(j),0,true,472190.60000002384,472190.39999997616,467373.375,467382.89999997616,467389.927,472206.664,1,40,14,
sequence,flow.Sequence,8_13,2023-11-17T21:47:39.585Z,,,,,,,,,,,4800.472999976133,completion,,,,,,,low,high,,,,,,false,,,,,true,472191,472190.39999997616,467373.375,467382.89999997616,467389.927,472206.664,1,40,,
trial,html.Screen,8_14_0,2023-11-17T21:47:41.712Z,,,,2,0.0158987717472563,0.0292472192292015,,0.04,true,hl,2111.7359999761684,response,0.7753299102004093,0.7388178808382874,-1.15,-1.053851019509641,0.8904933078857715,-1.1038927652412895,high,low,,ISIC_1366765.JPG,,ISIC_9511832.JPG,27,false,0.15000000000000002,hl,keypress(j),0,true,474318.60000002384,474318.39999997616,472189.919,472191.1999999881,472206.664,474323.226,1,40,15,
sequence,flow.Sequence,8_14,2023-11-17T21:47:41.713Z,,,,,,,,,,,2111.7359999761684,completion,,,,,,,high,low,,,,,,false,,,,,true,474319,474318.39999997616,472189.919,472191.10000002384,472206.664,474323.226,1,40,,
trial,html.Screen,8_15_0,2023-11-17T21:47:44.896Z,,,,2,-0.0367218428225813,0.0026956749740767,,0.04,false,hh,3178.5740000118967,response,0.7291462397404709,0.7388178808382874,-1.15,0.9195149254716736,0.8904933078857715,-1.0538927652412895,high,high,,ISIC_7212271.JPG,,ISIC_3445468.JPG,60,false,0.1,hl,keypress(j),0,true,477502,477501.8000000119,474306.609,474319.1999999881,474323.226,477506.652,1,40,16,
sequence,flow.Sequence,8_15,2023-11-17T21:47:44.896Z,,,,,,,,,,,3178.5740000118967,completion,,,,,,,high,high,,,,,,false,,,,,true,477502.5,477501.8000000119,474306.609,474319.1999999881,474323.226,477506.652,1,40,,
trial,html.Screen,8_16_0,2023-11-17T21:47:49.512Z,,,,2,-0.0086413421586899,-0.0360184993500958,,0.04,false,hl,4610.94800002384,response,0.5756952374956676,0.70223807497044,-1.15,-1.0569569458690249,0.9404933078857716,-1.0538927652412895,high,low,,ISIC_0010767.JPG,,ISIC_5832901.JPG,27,false,0.13,hh,keypress(i),0,true,482117.89999997616,482117.60000002384,477489.789,477502.6999999881,477506.652,482123.221,1,40,17,
sequence,flow.Sequence,8_16,2023-11-17T21:47:49.512Z,,,,,,,,,,,4610.94800002384,completion,,,,,,,high,low,,,,,,false,,,,,true,482118.3000000119,482117.60000002384,477489.789,477502.60000002384,477506.652,482123.221,1,40,,
trial,html.Screen,8_17_0,2023-11-17T21:47:59.922Z,,,,2,-0.0321039635696159,-0.020496766286318,,0.04,false,lh,10403.379000023822,response,-1.00615481805876,0.70223807497044,-1.15,0.8428903771195875,0.9404933078857716,-1.1038927652412895,low,high,,ISIC_0058063.JPG,,ISIC_0069970.JPG,26,false,0.2300000000000001,hl,keypress(j),0,true,492526.89999997616,492526.60000002384,482106.685,482118.5,482123.221,492540.012,1,40,18,
sequence,flow.Sequence,8_17,2023-11-17T21:47:59.922Z,,,,,,,,,,,10403.379000023822,completion,,,,,,,low,high,,,,,,false,,,,,true,492527.3000000119,492526.60000002384,482106.685,482118.39999997616,482123.221,492540.012,1,40,,
trial,html.Screen,8_18_0,2023-11-17T21:48:04.408Z,,,,2,0.0377791839943904,-0.0227626648172468,,0.04,true,hh,4472.488000000012,response,0.7123344251569738,0.70223807497044,-1.15,1.0605755702127622,0.9904933078857716,-1.1038927652412895,high,high,,ISIC_7167479.JPG,,ISIC_0065622.JPG,49,false,0.1,hh,keypress(i),0,true,497012.60000002384,497012.5,492523.111,492527.5,492540.012,497023.182,1,40,19,
sequence,flow.Sequence,8_18,2023-11-17T21:48:04.408Z,,,,,,,,,,,4472.488000000012,completion,,,,,,,high,high,,,,,,false,,,,,true,497012.6999999881,497012.5,492523.111,492527.39999997616,492540.012,497023.182,1,40,,
trial,html.Screen,8_19_0,2023-11-17T21:48:08.745Z,,,,2,-0.0051046740562181,0.0178832721027728,,0.04,true,lh,4326.217999976187,response,-1.2018448523268856,0.8364549976848679,-1.15,0.8157731190790072,0.9904933078857716,-1.1038927652412895,low,high,,ISIC_9545819.JPG,,ISIC_7662993.JPG,27,false,0.2500000000000001,lh,keypress(e),0,true,501349.6999999881,501349.39999997616,497006.535,497012.6999999881,497023.182,501356.507,1,40,20,
sequence,flow.Sequence,8_19,2023-11-17T21:48:08.745Z,,,,,,,,,,,4326.217999976187,completion,,,,,,,low,high,,,,,,false,,,,,true,501350,501349.39999997616,497006.535,497012.6999999881,497023.182,501356.507,1,40,,
trial,html.Screen,8_20_0,2023-11-17T21:48:12.209Z,,,,2,-0.0365981355399771,-0.0162670920008846,,0.04,false,hl,3457.192999988096,response,0.8407642478899736,0.8364549976848679,-1.15,-0.9542322753334054,0.9404933078857716,-1.1038927652412895,high,low,,ISIC_0982855.JPG,,ISIC_9090822.JPG,27,false,0.17000000000000004,hh,keypress(i),0,true,504813.89999997616,504813.6999999881,501339.834,501350.10000002384,501356.507,504823.208,1,40,21,
sequence,flow.Sequence,8_20,2023-11-17T21:48:12.209Z,,,,,,,,,,,3457.192999988096,completion,,,,,,,high,low,,,,,,false,,,,,true,504814.1999999881,504813.6999999881,501339.834,501350.10000002384,501356.507,504823.208,1,40,,
trial,html.Screen,8_21_0,2023-11-17T21:48:15.352Z,,,,2,0.0118555311043871,0.0087774532070196,,0.04,false,hh,3133.491999988095,response,0.838609817323933,0.8364549976848679,-1.15,0.8422150101593281,0.9404933078857716,-1.1538927652412896,high,high,,ISIC_6488658.JPG,,ISIC_0009913.JPG,51,false,0.1,hl,keypress(j),0,true,507956.8000000119,507956.6999999881,504806.588,504814.5,504823.208,507973.304,1,40,22,
sequence,flow.Sequence,8_21,2023-11-17T21:48:15.352Z,,,,,,,,,,,3133.491999988095,completion,,,,,,,high,high,,,,,,false,,,,,true,507957,507956.6999999881,504806.588,504814.39999997616,504823.208,507973.304,1,40,,
trial,html.Screen,8_22_0,2023-11-17T21:48:20.440Z,,,,2,-0.0063515208248796,-0.0194177605767913,,0.04,false,hl,5071.796000023838,response,0.7871162143493278,0.7896870326069533,-1.15,-1.2153707004941214,0.9904933078857716,-1.1538927652412896,high,low,,ISIC_5281908.JPG,,ISIC_3439215.JPG,29,false,0.17000000000000004,lh,keypress(e),0,true,513045.39999997616,513045.10000002384,507956.58,507957,507973.304,513056.62,1,40,23,
sequence,flow.Sequence,8_22,2023-11-17T21:48:20.441Z,,,,,,,,,,,5071.796000023838,completion,,,,,,,high,low,,,,,,false,,,,,true,513045.6999999881,513045.10000002384,507956.58,507957,507973.304,513056.62,1,40,,
trial,html.Screen,8_23_0,2023-11-17T21:48:24.649Z,,,,2,0.0060918352854008,-0.029032683404407,,0.04,true,hh,4197.680000011926,response,0.9106525024234248,0.8396870326069533,-1.15,1.0361692964751965,0.9904933078857716,-1.1538927652412896,high,high,,ISIC_8436194.JPG,,ISIC_0058676.JPG,44,false,0.1,hh,keypress(i),0,true,517254.5,517254.3000000119,513039.79,513045.89999997616,513056.62,517273.692,1,40,24,
sequence,flow.Sequence,8_23,2023-11-17T21:48:24.650Z,,,,,,,,,,,4197.680000011926,completion,,,,,,,high,high,,,,,,false,,,,,true,517254.89999997616,517254.3000000119,513039.79,513045.89999997616,513056.62,517273.692,1,40,,
trial,html.Screen,8_24_0,2023-11-17T21:48:31.305Z,,,,2,-0.0189295602385628,-0.0128812415435153,,0.04,true,ll,6635.707999976177,response,-1.1305948371148624,0.8396870326069533,-1.15,-1.2802709447034604,0.9904933078857716,-1.1538927652412896,low,low,,ISIC_0010372.JPG,,ISIC_5648111.JPG,27,false,0.14,ll,keypress(f),0,true,523909.60000002384,523909.39999997616,517239.928,517255.10000002384,517273.692,523923.084,1,40,25,
sequence,flow.Sequence,8_24,2023-11-17T21:48:31.305Z,,,,,,,,,,,6635.707999976177,completion,,,,,,,low,low,,,,,,false,,,,,true,523910,523909.39999997616,517239.928,517255,517273.692,523923.084,1,40,,
trial,html.Screen,8_25_0,2023-11-17T21:48:34.322Z,,,,2,0.0023664502831079,0.0252784582169994,,0.04,false,ll,3003.2160000119475,response,-1.2555541172897566,0.8396870326069533,-1.1554328909091613,-1.0235056423601527,0.9904933078857716,-1.1538927652412896,low,low,,ISIC_4156010.JPG,,ISIC_1578399.JPG,26,false,0.14,lh,keypress(e),0,true,526926.6000000238,526926.3000000119,523906.428,523910.1999999881,523923.084,526939.797,1,40,26,
sequence,flow.Sequence,8_25,2023-11-17T21:48:34.322Z,,,,,,,,,,,3003.2160000119475,completion,,,,,,,low,low,,,,,,false,,,,,true,526927.1000000238,526926.3000000119,523906.428,523910.10000002384,523923.084,526939.797,1,40,,
trial,html.Screen,8_26_0,2023-11-17T21:48:40.586Z,,,,2,-0.0199897690678184,-0.0312486875504497,,0.04,false,ll,6250.7029999999795,response,-1.1510001454240106,0.8396870326069533,-1.1554328909091613,-1.132540312667795,0.9904933078857716,-1.1538927652412896,low,low,,ISIC_5482426.JPG,,ISIC_0009959.JPG,26,false,0.14,hh,keypress(i),0,true,533190.8000000119,533190.5,526923.162,526927.1999999881,526939.797,533206.429,1,40,27,
sequence,flow.Sequence,8_26,2023-11-17T21:48:40.586Z,,,,,,,,,,,6250.7029999999795,completion,,,,,,,low,low,,,,,,false,,,,,true,533191.1999999881,533190.5,526923.162,526927.1999999881,526939.797,533206.429,1,40,,
trial,html.Screen,8_27_0,2023-11-17T21:48:45.314Z,,,,2,0.0060934073440827,0.0279108145883031,,0.04,false,lh,4712.070999999996,response,-1.0143509683988825,0.8396870326069533,-1.1554328909091613,1.0281980567462463,0.9904933078857716,-1.1538927652412896,low,high,,ISIC_0032604.JPG,,ISIC_0062031.JPG,25,false,0.2500000000000001,hh,keypress(i),0,true,537918.6999999881,537918.5,533189.773,533191.3999999762,533206.429,537923.075,1,40,28,
sequence,flow.Sequence,8_27,2023-11-17T21:48:45.314Z,,,,,,,,,,,4712.070999999996,completion,,,,,,,low,high,,,,,,false,,,,,true,537919.1000000238,537918.5,533189.773,533191.3000000119,533206.429,537923.075,1,40,,
trial,html.Screen,8_28_0,2023-11-17T21:48:47.983Z,,,,2,0.0399381815506136,0.0177751789152893,,0.04,true,lh,2664.8249999762047,response,-1.225025174430573,0.8396870326069533,-1.1554328909091613,0.8422679054456499,0.9404933078857716,-1.1538927652412896,low,high,,ISIC_3981425.JPG,,ISIC_7503950.JPG,26,false,0.2300000000000001,lh,keypress(e),0,true,540588.1000000238,540587.8999999762,537906.524,537919.1000000238,537923.075,540589.741,1,40,29,
sequence,flow.Sequence,8_28,2023-11-17T21:48:47.983Z,,,,,,,,,,,2664.8249999762047,completion,,,,,,,low,high,,,,,,false,,,,,true,540588.1999999881,540587.8999999762,537906.524,537919.1000000238,537923.075,540589.741,1,40,,
trial,html.Screen,8_29_0,2023-11-17T21:48:50.553Z,,,,2,-0.0365981355399771,-0.0162670920008846,,0.04,true,lh,2567.758999999962,response,-1.064425982109969,0.8396870326069533,-1.1554328909091613,0.958564243697126,0.9404933078857716,-1.1538927652412896,low,high,,ISIC_0982855.JPG,,ISIC_3203344.JPG,26,false,0.2300000000000001,lh,keypress(e),0,true,543157.6999999881,543157.5,540573.212,540588.1999999881,540589.741,543173.136,1,40,30,
sequence,flow.Sequence,8_29,2023-11-17T21:48:50.554Z,,,,,,,,,,,2567.758999999962,completion,,,,,,,low,high,,,,,,false,,,,,true,543158.1000000238,543157.5,540573.212,540588.1999999881,540589.741,543173.136,1,40,,
trial,html.Screen,8_30_0,2023-11-17T21:48:54.456Z,,,,2,0.0399381815506136,0.0177751789152893,,0.04,false,ll,3887.0639999880223,response,-1.0831477774866454,0.8396870326069533,-1.1054328909091613,-1.0347343776726454,0.8504160745713879,-1.1538927652412896,low,low,,ISIC_3981425.JPG,,ISIC_9475559.JPG,27,false,0.13,lh,keypress(e),0,true,547060.3000000119,547060.1999999881,543156.411,543158.3000000119,543173.136,547073.054,1,40,31,
sequence,flow.Sequence,8_30,2023-11-17T21:48:54.456Z,,,,,,,,,,,3887.0639999880223,completion,,,,,,,low,low,,,,,,false,,,,,true,547060.3999999762,547060.1999999881,543156.411,543158.3000000119,543173.136,547073.054,1,40,,
trial,html.Screen,8_31_0,2023-11-17T21:48:58.754Z,,,,2,-0.0327772618698018,0.0056908372048728,,0.04,true,hh,4285.046000023838,response,0.7933149635889316,0.8396870326069533,-1.1054328909091613,0.7905025647917798,0.8504160745713879,-1.1538927652412896,high,high,,ISIC_7897925.JPG,,ISIC_0062463.JPG,54,false,0.1,hh,keypress(i),0,true,551358.3999999762,551358.1000000238,547056.447,547060.5,547073.054,551373.115,1,40,32,
sequence,flow.Sequence,8_31,2023-11-17T21:48:58.755Z,,,,,,,,,,,4285.046000023838,completion,,,,,,,high,high,,,,,,false,,,,,true,551358.8000000119,551358.1000000238,547056.447,547060.5,547073.054,551373.115,1,40,,
trial,html.Screen,8_32_0,2023-11-17T21:49:01.394Z,,,,2,0.012020985739544,-0.0126097407389903,,0.04,false,ll,2625.1850000119302,response,-1.204229955025689,0.7419087641903557,-1.1054328909091613,-1.0874249761617445,0.8504160745713879,-1.1538927652412896,low,low,,ISIC_0069379.JPG,,ISIC_0056930.JPG,27,false,0.13,lh,keypress(e),0,true,553998.5,553998.3000000119,551356.291,551359,551373.115,554006.347,1,40,33,
sequence,flow.Sequence,8_32,2023-11-17T21:49:01.395Z,,,,,,,,,,,2625.1850000119302,completion,,,,,,,low,low,,,,,,false,,,,,true,553999,553998.3000000119,551356.291,551358.8999999762,551373.115,554006.347,1,40,,
trial,html.Screen,8_33_0,2023-11-17T21:49:04.273Z,,,,2,0.0118555311043871,0.0087774532070196,,0.04,false,ll,2871.1530000000494,response,-0.9520649807922285,0.7419087641903557,-1.0554328909091613,-1.2060773672502134,0.8504160745713879,-1.1538927652412896,low,low,,ISIC_6488658.JPG,,ISIC_9439742.JPG,29,false,0.13,hl,keypress(j),0,true,556877.6999999881,556877.5,553989.632,553999.1999999881,554006.347,556889.718,1,40,34,
sequence,flow.Sequence,8_33,2023-11-17T21:49:04.274Z,,,,,,,,,,,2871.1530000000494,completion,,,,,,,low,low,,,,,,false,,,,,true,556878.1000000238,556877.5,553989.632,553999.1999999881,554006.347,556889.718,1,40,,
trial,html.Screen,8_34_0,2023-11-17T21:49:06.328Z,,,,2,0.0071892445601978,-0.0246015408628738,,0.04,true,hl,2042.3820000238484,response,0.8015753713975186,0.7419087641903557,-1.1054328909091613,-1.0067065355978264,0.8504160745713879,-1.1538927652412896,high,low,,ISIC_0014133.JPG,,ISIC_0002119.JPG,26,false,0.15000000000000002,hl,keypress(j),0,true,558932.1000000238,558932.1000000238,556873.18,556878.3000000119,556889.718,558939.698,1,40,35,
sequence,flow.Sequence,8_34,2023-11-17T21:49:06.328Z,,,,,,,,,,,2042.3820000238484,completion,,,,,,,high,low,,,,,,false,,,,,true,558932.1999999881,558932.1000000238,556873.18,556878.1999999881,556889.718,558939.698,1,40,,
trial,html.Screen,8_35_0,2023-11-17T21:49:09.170Z,,,,2,0.00126575685933,0.0325046559638838,,0.04,true,hl,2834.602000011946,response,0.7277664800679337,0.7419087641903557,-1.1054328909091613,-1.2162806898850131,0.8504160745713879,-1.1038927652412895,high,low,,ISIC_5682259.JPG,,ISIC_0013777.JPG,27,false,0.15000000000000002,hl,keypress(j),0,true,561774.5,561774.3000000119,558923.24,558932.1999999881,558939.698,561789.7,1,40,36,
sequence,flow.Sequence,8_35,2023-11-17T21:49:09.171Z,,,,,,,,,,,2834.602000011946,completion,,,,,,,high,low,,,,,,false,,,,,true,561774.8999999762,561774.3000000119,558923.24,558932.1999999881,558939.698,561789.7,1,40,,
trial,html.Screen,8_36_0,2023-11-17T21:49:16.456Z,,,,2,0.0023664502831079,0.0252784582169994,,0.04,false,lh,7270.6000000119675,response,-1.1598623261077452,0.6919087641903556,-1.1054328909091613,0.6961047103031557,0.8504160745713879,-1.1038927652412895,low,high,,ISIC_4156010.JPG,,ISIC_0002639.JPG,25,false,0.18000000000000005,hl,keypress(j),0,true,569060.3000000119,569060.3000000119,561773.01,561775,561789.7,569072.994,1,40,37,
sequence,flow.Sequence,8_36,2023-11-17T21:49:16.456Z,,,,,,,,,,,7270.6000000119675,completion,,,,,,,low,high,,,,,,false,,,,,true,569060.3999999762,569060.3000000119,561773.01,561774.8999999762,561789.7,569072.994,1,40,,
trial,html.Screen,8_37_0,2023-11-17T21:49:23.938Z,,,,2,0.0060918352854008,-0.029032683404407,,0.04,false,lh,7469.006000000052,response,-1.1890109863264902,0.6919087641903556,-1.1554328909091613,0.8867825318561365,0.900416074571388,-1.1038927652412895,low,high,,ISIC_8436194.JPG,,ISIC_0072576.JPG,25,false,0.21000000000000008,ll,keypress(f),0,true,576542.3000000119,576542,569056.314,569060.5,569072.994,576556.357,1,40,38,
sequence,flow.Sequence,8_37,2023-11-17T21:49:23.938Z,,,,,,,,,,,7469.006000000052,completion,,,,,,,low,high,,,,,,false,,,,,true,576542.6000000238,576542,569056.314,569060.5,569072.994,576556.357,1,40,,
trial,html.Screen,8_38_0,2023-11-17T21:49:28.218Z,,,,2,-0.0367218428225813,0.0026956749740767,,0.04,false,hl,4265.842999988119,response,0.6669021150735244,0.6919087641903556,-1.1554328909091613,-1.0443315451754065,0.950416074571388,-1.1038927652412895,high,low,,ISIC_7212271.JPG,,ISIC_9163466.JPG,25,false,0.13,ll,keypress(f),0,true,580822.6000000238,580822.1999999881,576539.416,576542.8000000119,576556.357,580839.717,1,40,39,
sequence,flow.Sequence,8_38,2023-11-17T21:49:28.219Z,,,,,,,,,,,4265.842999988119,completion,,,,,,,high,low,,,,,,false,,,,,true,580823,580822.1999999881,576539.416,576542.8000000119,576556.357,580839.717,1,40,,
trial,html.Screen,8_39_0,2023-11-17T21:49:32.033Z,,,,2,0.0166849894750452,-0.0371614812368835,,0.04,true,hh,3797.783000000054,response,0.758207007584394,0.7419087641903557,-1.1554328909091613,1.0467954238943018,0.950416074571388,-1.0666712657509483,high,high,,ISIC_6231450.JPG,,ISIC_0011626.JPG,49,false,0.1,hh,keypress(i),0,true,584637.8000000119,584637.5,580822.954,580823.1999999881,580839.717,584656.886,1,40,40,
sequence,flow.Sequence,8_39,2023-11-17T21:49:32.034Z,,,,,,,,,,,3797.783000000054,completion,,,,,,,high,high,,,,,,false,,,,,true,584638.1000000238,584637.5,580822.954,580823,580839.717,584656.886,1,40,,
stair_loop,flow.Loop,8,2023-11-17T21:49:32.034Z,,,,,,,,,,,175130.735,completion,,,,,,,,,,,,,,false,,,,,true,584638.3999999762,584637.5,409490.373,409500.10000002384,409506.765,584656.886,1,40,,
exp_instructions,html.Screen,9,2023-11-17T21:49:52.074Z,,,,,,,,,,,20019.5139999761,response,,,,,,,,,,,,,,,,continue,keypress(Space),,,604677.1999999881,604676.3999999762,584623.083,584638.5,584656.886,604706.218,,,,
trial,html.Screen,10_0_0,2023-11-17T21:49:58.104Z,,,,1,-0.010035581303589,0.0100711721396864,,0.04,false,ll,6001.2820000000065,response,-1.1655508270784471,0.7902525217481057,-1.1340746681818707,-1.1162776063248168,0.9229546912285802,-1.1370316902667728,low,low,,ISIC_0030592.JPG,10,ISIC_5509946.JPG,26,false,0.13,hl,keypress(j),0,false,610707.6000000238,610707.5,604672.604,604677.6000000238,604706.218,610723.017,4,500,1,
break,html.Screen,10_0_1,2023-11-17T21:49:58.105Z,,,,,,,,,,,NaN,,,,,,,,low,low,,,,,,false,,,,,false,610708,610707.8000000119,,610707.6999999881,,610723.017,4,500,,
break_continue,html.Screen,10_0_2,2023-11-17T21:49:58.105Z,,,,,,,,,,,NaN,,,,,,,,low,low,,,,,,false,,,,,false,610708.1999999881,610708.1000000238,,610708,,610723.017,4,500,,
sequence,flow.Sequence,10_0,2023-11-17T21:49:58.105Z,,,,,,,,,,,6001.882000023848,completion,,,,,,,low,low,,,,,,false,,,,,false,610708.3000000119,610708.1000000238,604672.604,604677.5,604706.218,610723.017,4,500,,
trial,html.Screen,10_1_0,2023-11-17T21:50:03.587Z,,,,1,-0.0361875505619981,0.0291457404567876,,0.04,true,hh,5467.283000011928,response,0.8299064093289698,0.7902525217481057,-1.1340746681818707,0.8788083232111502,0.9229546912285802,-1.1370316902667728,high,high,,ISIC_0027480.JPG,8,ISIC_0000398.JPG,54,false,0.1,hh,keypress(i),0,false,616190.6000000238,616190.3000000119,610706.27,610708.3000000119,610723.017,616206.362,4,500,2,
break,html.Screen,10_1_1,2023-11-17T21:50:03.588Z,,,,,,,,,,,NaN,,,,,,,,high,high,,,,,,false,,,,,false,616191.5,616191.3000000119,,616190.8999999762,,616206.362,4,500,,
break_continue,html.Screen,10_1_2,2023-11-17T21:50:03.589Z,,,,,,,,,,,NaN,,,,,,,,high,high,,,,,,false,,,,,false,616192.1999999881,616192,,616191.8000000119,,616206.362,4,500,,
sequence,flow.Sequence,10_1,2023-11-17T21:50:03.589Z,,,,,,,,,,,5468.983000000007,completion,,,,,,,high,high,,,,,,false,,,,,false,616192.5,616192,610706.27,610708.3000000119,610723.017,616206.362,4,500,,
trial,html.Screen,10_2_0,2023-11-17T21:50:07.163Z,,,,1,0.0057914759495055,-0.018500200317654,,0.04,false,ll,3560.0379999761935,response,-1.0581281450494728,0.7902525217481057,-1.1340746681818707,-1.133169116569424,0.9229546912285802,-1.1370316902667728,low,low,,ISIC_0058723.JPG,8,ISIC_5490352.JPG,26,false,0.13,lh,keypress(e),0,false,619766.6000000238,619766.3999999762,616189.497,616192.6999999881,616206.362,619772.846,4,500,3,
break,html.Screen,10_2_1,2023-11-17T21:50:07.164Z,,,,,,,,,,,NaN,,,,,,,,low,low,,,,,,false,,,,,false,619767.5,619767.3000000119,,619766.8999999762,,619772.846,4,500,,
break_continue,html.Screen,10_2_2,2023-11-17T21:50:07.165Z,,,,,,,,,,,NaN,,,,,,,,low,low,,,,,,false,,,,,false,619768.1000000238,619767.8999999762,,619767.6999999881,,619772.846,4,500,,
sequence,flow.Sequence,10_2,2023-11-17T21:50:07.165Z,,,,,,,,,,,3561.5379999761935,completion,,,,,,,low,low,,,,,,false,,,,,false,619768.3000000119,619767.8999999762,616189.497,616192.6999999881,616206.362,619772.846,4,500,,
trial,html.Screen,10_3_0,2023-11-17T21:50:09.801Z,,,,1,0.0350697500805515,0.0166617848231997,,0.04,true,hl,2631.4540000119014,response,0.7753299102004093,0.7902525217481057,-1.1340746681818707,-1.053851019509641,0.9229546912285802,-1.1370316902667728,high,low,,ISIC_0024423.JPG,9,ISIC_9511832.JPG,25,false,0.15000000000000002,hl,keypress(j),0,false,622404.5,622404.3000000119,619756.159,619768.5,619772.846,622406.175,4,500,4,
break,html.Screen,10_3_1,2023-11-17T21:50:09.801Z,,,,,,,,,,,NaN,,,,,,,,high,low,,,,,,false,,,,,false,622404.6999999881,622404.6999999881,,622404.6000000238,,622406.175,4,500,,
break_continue,html.Screen,10_3_2,2023-11-17T21:50:09.801Z,,,,,,,,,,,NaN,,,,,,,,high,low,,,,,,false,,,,,false,622404.8999999762,622404.8999999762,,622404.6999999881,,622406.175,4,500,,
sequence,flow.Sequence,10_3,2023-11-17T21:50:09.802Z,,,,,,,,,,,2632.0539999761386,completion,,,,,,,high,low,,,,,,false,,,,,false,622405,622404.8999999762,619756.159,619768.3999999762,619772.846,622406.175,4,500,,
trial,html.Screen,10_4_0,2023-11-17T21:50:15.290Z,,,,1,-0.0063515208248796,-0.0194177605767913,,0.04,false,hh,5487.0249999880325,response,0.8800173162815772,0.7902525217481057,-1.1340746681818707,0.912069987718464,0.9229546912285802,-1.1370316902667728,high,high,,ISIC_5281908.JPG,10,ISIC_0030852.JPG,54,false,0.1,lh,keypress(e),0,false,627893.3999999762,627893.1999999881,622389.679,622405,622406.175,627906.218,4,500,5,
break,html.Screen,10_4_1,2023-11-17T21:50:15.291Z,,,,,,,,,,,NaN,,,,,,,,high,high,,,,,,false,,,,,false,627894.3000000119,627894.1999999881,,627893.6999999881,,627906.218,4,500,,
break_continue,html.Screen,10_4_2,2023-11-17T21:50:15.291Z,,,,,,,,,,,NaN,,,,,,,,high,high,,,,,,false,,,,,false,627894.8999999762,627894.6999999881,,627894.5,,627906.218,4,500,,
sequence,flow.Sequence,10_4,2023-11-17T21:50:15.292Z,,,,,,,,,,,5488.5249999880325,completion,,,,,,,high,high,,,,,,false,,,,,false,627895.1999999881,627894.6999999881,622389.679,622405,622406.175,627906.218,4,500,,
trial,html.Screen,10_5_0,2023-11-17T21:50:22.920Z,,,,1,-0.0189295602385628,-0.0128812415435153,,0.04,true,hh,7617.382000023848,response,0.8628696237203484,0.7902525217481057,-1.1340746681818707,0.9684635118197058,0.9229546912285802,-1.1370316902667728,high,high,,ISIC_0010372.JPG,9,ISIC_0015132.JPG,54,false,0.1,hh,keypress(i),0,false,635523.6000000238,635523.6000000238,627889.581,627895.3999999762,627906.218,635539.565,4,500,6,
break,html.Screen,10_5_1,2023-11-17T21:50:22.921Z,,,,,,,,,,,NaN,,,,,,,,high,high,,,,,,false,,,,,false,635524,635523.8999999762,,635523.8000000119,,635539.565,4,500,,
break_continue,html.Screen,10_5_2,2023-11-17T21:50:22.921Z,,,,,,,,,,,NaN,,,,,,,,high,high,,,,,,false,,,,,false,635524.3000000119,635524.3000000119,,635524,,635539.565,4,500,,
sequence,flow.Sequence,10_5,2023-11-17T21:50:22.921Z,,,,,,,,,,,7618.082000011927,completion,,,,,,,high,high,,,,,,false,,,,,false,635524.3999999762,635524.3000000119,627889.581,627895.3000000119,627906.218,635539.565,4,500,,
trial,html.Screen,10_6_0,2023-11-17T21:50:26.570Z,,,,1,0.0060934073440827,0.0279108145883031,,0.04,false,hl,3633.5350000238977,response,0.6960100190659906,0.7902525217481057,-1.1340746681818707,-1.12267859423828,0.9229546912285802,-1.1370316902667728,high,low,,ISIC_0032604.JPG,9,ISIC_0062702.JPG,25,false,0.15000000000000002,lh,keypress(e),0,false,639173.1999999881,639173.1000000238,635522.946,635524.3999999762,635539.565,639189.442,4,500,7,
break,html.Screen,10_6_1,2023-11-17T21:50:26.570Z,,,,,,,,,,,NaN,,,,,,,,high,low,,,,,,false,,,,,false,639173.6999999881,639173.6000000238,,639173.3000000119,,639189.442,4,500,,
break_continue,html.Screen,10_6_2,2023-11-17T21:50:26.571Z,,,,,,,,,,,NaN,,,,,,,,high,low,,,,,,false,,,,,false,639174,639173.8999999762,,639173.6999999881,,639189.442,4,500,,
sequence,flow.Sequence,10_6,2023-11-17T21:50:26.571Z,,,,,,,,,,,3634.334999976214,completion,,,,,,,high,low,,,,,,false,,,,,false,639174.1999999881,639173.8999999762,635522.946,635524.3999999762,635539.565,639189.442,4,500,,
trial,html.Screen,10_7_0,2023-11-17T21:50:28.803Z,,,,1,-0.0367218428225813,0.0026956749740767,,0.04,false,ll,2216.457999976119,response,-1.204229955025689,0.7902525217481057,-1.1340746681818707,-1.0874249761617445,0.9229546912285802,-1.1370316902667728,low,low,,ISIC_7212271.JPG,10,ISIC_0056930.JPG,26,false,0.13,lh,keypress(e),0,false,641406.1999999881,641405.8999999762,639172.947,639174.3000000119,639189.442,641423.047,4,500,8,
break,html.Screen,10_7_1,2023-11-17T21:50:28.804Z,,,,,,,,,,,NaN,,,,,,,,low,low,,,,,,false,,,,,false,641407.1000000238,641406.8000000119,,641406.5,,641423.047,4,500,,
break_continue,html.Screen,10_7_2,2023-11-17T21:50:28.804Z,,,,,,,,,,,NaN,,,,,,,,low,low,,,,,,false,,,,,false,641407.6000000238,641407.5,,641407.3000000119,,641423.047,4,500,,
sequence,flow.Sequence,10_7,2023-11-17T21:50:28.804Z,,,,,,,,,,,2218.057999999961,completion,,,,,,,low,low,,,,,,false,,,,,false,641407.8999999762,641407.5,639172.947,639174.3000000119,639189.442,641423.047,4,500,,
trial,html.Screen,10_8_0,2023-11-17T21:50:32.635Z,,,,1,0.0377791839943904,-0.0227626648172468,,0.04,false,ll,3814.9529999999795,response,-1.1569583426015195,0.7902525217481057,-1.1340746681818707,-1.02258614327008,0.9229546912285802,-1.1370316902667728,low,low,,ISIC_7167479.JPG,9,ISIC_5705973.JPG,26,false,0.13,lh,keypress(e),0,false,645238.1999999881,645238,641406.317,641408.1000000238,641423.047,645256.801,4,500,9,
break,html.Screen,10_8_1,2023-11-17T21:50:32.636Z,,,,,,,,,,,NaN,,,,,,,,low,low,,,,,,false,,,,,false,645239.3999999762,645239,,645238.5,,645256.801,4,500,,
break_continue,html.Screen,10_8_2,2023-11-17T21:50:32.637Z,,,,,,,,,,,NaN,,,,,,,,low,low,,,,,,false,,,,,false,645240,645239.6999999881,,645239.5,,645256.801,4,500,,
sequence,flow.Sequence,10_8,2023-11-17T21:50:32.637Z,,,,,,,,,,,3816.6529999880586,completion,,,,,,,low,low,,,,,,false,,,,,false,645240.3000000119,645239.6999999881,641406.317,641408,641423.047,645256.801,4,500,,
trial,html.Screen,10_9_0,2023-11-17T21:50:36.603Z,,,,1,0.0060918352854008,-0.029032683404407,,0.04,true,hh,3949.4990000119433,response,0.731232527745512,0.7902525217481057,-1.1340746681818707,0.9697140990856988,0.9229546912285802,-1.1370316902667728,high,high,,ISIC_8436194.JPG,9,ISIC_6882582.JPG,54,false,0.1,hh,keypress(i),0,false,649206.5,649206.3000000119,645222.868,645240.3000000119,645256.801,649239.523,4,500,10,
break,html.Screen,10_9_1,2023-11-17T21:50:36.604Z,,,,,,,,,,,NaN,,,,,,,,high,high,,,,,,false,,,,,false,649207.3999999762,649207.3000000119,,649206.8000000119,,649239.523,4,500,,
break_continue,html.Screen,10_9_2,2023-11-17T21:50:36.605Z,,,,,,,,,,,NaN,,,,,,,,high,high,,,,,,false,,,,,false,649208,649207.8000000119,,649207.5,,649239.523,4,500,,
sequence,flow.Sequence,10_9,2023-11-17T21:50:36.605Z,,,,,,,,,,,3950.9990000119433,completion,,,,,,,high,high,,,,,,false,,,,,false,649208.1999999881,649207.8000000119,645222.868,645240.3000000119,645256.801,649239.523,4,500,,
trial,html.Screen,10_10_0,2023-11-17T21:50:39.155Z,,,,1,0.012020985739544,-0.0126097407389903,,0.04,true,hh,2518.3769999761134,response,0.7463930356053693,0.7902525217481057,-1.1340746681818707,0.9897762612081872,0.9229546912285802,-1.1370316902667728,high,high,,ISIC_0069379.JPG,9,ISIC_0062048.JPG,54,false,0.1,hh,keypress(i),0,false,651758.1000000238,651757.8999999762,649223.013,649208.3000000119,649239.523,651772.818,4,500,11,
break,html.Screen,10_10_1,2023-11-17T21:50:39.156Z,,,,,,,,,,,NaN,,,,,,,,high,high,,,,,,false,,,,,false,651759.1000000238,651758.8999999762,,651758.3999999762,,651772.818,4,500,,
break_continue,html.Screen,10_10_2,2023-11-17T21:50:39.156Z,,,,,,,,,,,NaN,,,,,,,,high,high,,,,,,false,,,,,false,651759.6000000238,651759.3999999762,,651759.1999999881,,651772.818,4,500,,
sequence,flow.Sequence,10_10,2023-11-17T21:50:39.156Z,,,,,,,,,,,2519.8769999761134,completion,,,,,,,high,high,,,,,,false,,,,,false,651759.8000000119,651759.3999999762,649223.013,649208.1999999881,649239.523,651772.818,4,500,,
trial,html.Screen,10_11_0,2023-11-17T21:50:41.379Z,,,,1,0.0057914759495055,-0.018500200317654,,0.04,true,hl,2208.9820000119507,response,0.7753299102004093,0.7902525217481057,-1.1340746681818707,-1.053851019509641,0.9229546912285802,-1.1370316902667728,high,low,,ISIC_0058723.JPG,9,ISIC_9511832.JPG,25,false,0.15000000000000002,hl,keypress(j),0,false,653982,653981.8000000119,651756.31,651760,651772.818,653989.406,4,500,12,
break,html.Screen,10_11_1,2023-11-17T21:50:41.379Z,,,,,,,,,,,NaN,,,,,,,,high,low,,,,,,false,,,,,false,653982.8999999762,653982.8000000119,,653982.3000000119,,653989.406,4,500,,
break_continue,html.Screen,10_11_2,2023-11-17T21:50:41.380Z,,,,,,,,,,,NaN,,,,,,,,high,low,,,,,,false,,,,,false,653983.5,653983.3000000119,,653983.1000000238,,653989.406,4,500,,
sequence,flow.Sequence,10_11,2023-11-17T21:50:41.380Z,,,,,,,,,,,2210.4820000119507,completion,,,,,,,high,low,,,,,,false,,,,,false,653983.6999999881,653983.3000000119,651756.31,651759.8999999762,651772.818,653989.406,4,500,,
trial,html.Screen,10_12_0,2023-11-17T21:50:43.466Z,,,,1,-0.0199897690678184,-0.0312486875504497,,0.04,false,ll,2079.894000011962,response,-1.204229955025689,0.7902525217481057,-1.1340746681818707,-1.0874249761617445,0.9229546912285802,-1.1370316902667728,low,low,,ISIC_5482426.JPG,9,ISIC_0056930.JPG,26,false,0.13,lh,keypress(e),0,false,656069.5,656069.3000000119,653972.968,653983.8999999762,653989.406,656072.725,4,500,13,
break,html.Screen,10_12_1,2023-11-17T21:50:43.467Z,,,,,,,,,,,NaN,,,,,,,,low,low,,,,,,false,,,,,false,656070.3999999762,656070.1000000238,,656069.8000000119,,656072.725,4,500,,
break_continue,html.Screen,10_12_2,2023-11-17T21:50:43.468Z,,,,,,,,,,,NaN,,,,,,,,low,low,,,,,,false,,,,,false,656071,656070.8000000119,,656070.6000000238,,656072.725,4,500,,
sequence,flow.Sequence,10_12,2023-11-17T21:50:43.468Z,,,,,,,,,,,2081.394000011962,completion,,,,,,,low,low,,,,,,false,,,,,false,656071.1999999881,656070.8000000119,653972.968,653983.8000000119,653989.406,656072.725,4,500,,
trial,html.Screen,10_13_0,2023-11-17T21:50:45.835Z,,,,1,-0.0365981355399771,-0.0162670920008846,,0.04,true,hl,2365.2750000000233,response,0.7705174182595537,0.7902525217481057,-1.1340746681818707,-1.085710894474977,0.9229546912285802,-1.1370316902667728,high,low,,ISIC_0982855.JPG,8,ISIC_0013644.JPG,25,false,0.15000000000000002,hl,keypress(j),0,false,658438.3000000119,658438,656056.204,656071.3999999762,656072.725,658457.221,4,500,14,
break,html.Screen,10_13_1,2023-11-17T21:50:45.836Z,,,,,,,,,,,NaN,,,,,,,,high,low,,,,,,false,,,,,false,658439.1999999881,658439,,658438.5,,658457.221,4,500,,
break_continue,html.Screen,10_13_2,2023-11-17T21:50:45.836Z,,,,,,,,,,,NaN,,,,,,,,high,low,,,,,,false,,,,,false,658439.8000000119,658439.6000000238,,658439.3999999762,,658457.221,4,500,,
sequence,flow.Sequence,10_13,2023-11-17T21:50:45.837Z,,,,,,,,,,,2366.875000023865,completion,,,,,,,high,low,,,,,,false,,,,,false,658440.1000000238,658439.6000000238,656056.204,656071.3999999762,656072.725,658457.221,4,500,,
trial,html.Screen,10_14_0,2023-11-17T21:50:52.389Z,,,,1,0.0377791839943904,-0.0227626648172468,,0.04,false,hl,6532.9789999880595,response,0.6629163102028129,0.7902525217481057,-1.1340746681818707,-1.000470054909676,0.9229546912285802,-1.1370316902667728,high,low,,ISIC_7167479.JPG,8,ISIC_9562157.JPG,25,false,0.15000000000000002,lh,keypress(e),0,false,664990.5,664990.1999999881,658422.916,658440.3000000119,658457.221,665006.091,4,500,15,
break,html.Screen,10_14_1,2023-11-17T21:50:52.390Z,,,,,,,,,,,NaN,,,,,,,,high,low,,,,,,false,,,,,false,664991.3999999762,664991.3000000119,,664990.8999999762,,665006.091,4,500,,
break_continue,html.Screen,10_14_2,2023-11-17T21:50:52.390Z,,,,,,,,,,,NaN,,,,,,,,high,low,,,,,,false,,,,,false,664992,664991.8000000119,,664991.6000000238,,665006.091,4,500,,
sequence,flow.Sequence,10_14,2023-11-17T21:50:52.390Z,,,,,,,,,,,6534.579000011901,completion,,,,,,,high,low,,,,,,false,,,,,false,664992.1999999881,664991.8000000119,658422.916,658440.1999999881,658457.221,665006.091,4,500,,
trial,html.Screen,10_15_0,2023-11-17T21:50:57.268Z,,,,1,-0.010035581303589,0.0100711721396864,,0.04,false,hh,4863.709000011906,response,0.8121377641994781,0.7902525217481057,-1.1340746681818707,0.9325200951609898,0.9229546912285802,-1.1370316902667728,high,high,,ISIC_0030592.JPG,9,ISIC_9363106.JPG,54,false,0.1,hl,keypress(j),0,false,669870.1000000238,669869.8000000119,664989.594,664992.3999999762,665006.091,669872.741,4,500,16,
break,html.Screen,10_15_1,2023-11-17T21:50:57.269Z,,,,,,,,,,,NaN,,,,,,,,high,high,,,,,,false,,,,,false,669870.8999999762,669870.6999999881,,669870.3999999762,,669872.741,4,500,,
break_continue,html.Screen,10_15_2,2023-11-17T21:50:57.270Z,,,,,,,,,,,NaN,,,,,,,,high,high,,,,,,false,,,,,false,669871.3999999762,669871.3000000119,,669871,,669872.741,4,500,,
sequence,flow.Sequence,10_15,2023-11-17T21:50:57.270Z,,,,,,,,,,,4865.209000011906,completion,,,,,,,high,high,,,,,,false,,,,,false,669871.6000000238,669871.3000000119,664989.594,664992.3000000119,665006.091,669872.741,4,500,,
trial,html.Screen,10_16_0,2023-11-17T21:51:03.412Z,,,,1,-0.0051046740562181,0.0178832721027728,,0.04,false,lh,6140.859000023804,response,-1.1890109863264902,0.7902525217481057,-1.1340746681818707,0.8867825318561365,0.9229546912285802,-1.1370316902667728,low,high,,ISIC_9545819.JPG,10,ISIC_0072576.JPG,25,false,0.22000000000000008,ll,keypress(f),0,false,676013.8000000119,676013.6000000238,669856.246,669871.8000000119,669872.741,676022.695,4,500,17,
break,html.Screen,10_16_1,2023-11-17T21:51:03.413Z,,,,,,,,,,,NaN,,,,,,,,low,high,,,,,,false,,,,,false,676014.8000000119,676014.5,,676014.1000000238,,676022.695,4,500,,
break_continue,html.Screen,10_16_2,2023-11-17T21:51:03.413Z,,,,,,,,,,,NaN,,,,,,,,low,high,,,,,,false,,,,,false,676015.3000000119,676015.1000000238,,676014.8999999762,,676022.695,4,500,,
sequence,flow.Sequence,10_16,2023-11-17T21:51:03.414Z,,,,,,,,,,,6142.359000023804,completion,,,,,,,low,high,,,,,,false,,,,,false,676015.5,676015.1000000238,669856.246,669871.8000000119,669872.741,676022.695,4,500,,
trial,html.Screen,10_17_0,2023-11-17T21:51:11.620Z,,,,1,0.0166849894750452,-0.0371614812368835,,0.04,true,ll,8199.105000011972,response,-1.1513073368404492,0.7902525217481057,-1.1340746681818707,-1.0485268550965705,0.9229546912285802,-1.1370316902667728,low,low,,ISIC_6231450.JPG,8,ISIC_0030666.JPG,26,false,0.13,ll,keypress(f),0,false,684222.1000000238,684221.8000000119,676006.23,676015.6999999881,676022.695,684239.296,4,500,18,
break,html.Screen,10_17_1,2023-11-17T21:51:11.621Z,,,,,,,,,,,NaN,,,,,,,,low,low,,,,,,false,,,,,false,684223.1999999881,684222.8999999762,,684222.5,,684239.296,4,500,,
break_continue,html.Screen,10_17_2,2023-11-17T21:51:11.622Z,,,,,,,,,,,NaN,,,,,,,,low,low,,,,,,false,,,,,false,684223.8000000119,684223.6999999881,,684223.3999999762,,684239.296,4,500,,
sequence,flow.Sequence,10_17,2023-11-17T21:51:11.622Z,,,,,,,,,,,8201.00499998813,completion,,,,,,,low,low,,,,,,false,,,,,false,684224.1000000238,684223.6999999881,676006.23,676015.6999999881,676022.695,684239.296,4,500,,
trial,html.Screen,10_18_0,2023-11-17T21:51:17.284Z,,,,1,0.0399381815506136,0.0177751789152893,,0.04,true,lh,5646.804000023869,response,-1.064425982109969,0.7902525217481057,-1.1340746681818707,0.958564243697126,0.9229546912285802,-1.1370316902667728,low,high,,ISIC_3981425.JPG,9,ISIC_3203344.JPG,25,false,0.22000000000000008,lh,keypress(e),0,false,689886.3000000119,689886.1000000238,684222.791,684224.3000000119,684239.296,689889.381,4,500,19,
break,html.Screen,10_18_1,2023-11-17T21:51:17.285Z,,,,,,,,,,,NaN,,,,,,,,low,high,,,,,,false,,,,,false,689887.1999999881,689887,,689886.6000000238,,689889.381,4,500,,
break_continue,html.Screen,10_18_2,2023-11-17T21:51:17.286Z,,,,,,,,,,,NaN,,,,,,,,low,high,,,,,,false,,,,,false,689887.8000000119,689887.6000000238,,689887.3999999762,,689889.381,4,500,,
sequence,flow.Sequence,10_18,2023-11-17T21:51:17.286Z,,,,,,,,,,,5648.304000023869,completion,,,,,,,low,high,,,,,,false,,,,,false,689888.1000000238,689887.6000000238,684222.791,684224.1999999881,684239.296,689889.381,4,500,,
trial,html.Screen,10_19_0,2023-11-17T21:51:22.412Z,,,,1,0.0071892445601978,-0.0246015408628738,,0.04,false,lh,5124.118999999948,response,-1.1162273456306029,0.7902525217481057,-1.1340746681818707,0.7890271955816722,0.9229546912285802,-1.1370316902667728,low,high,,ISIC_0014133.JPG,9,ISIC_0011564.JPG,25,false,0.22000000000000008,ll,keypress(f),0,false,695013.6999999881,695013.5,689872.735,689888.1999999881,689889.381,695022.649,4,500,20,
break,html.Screen,10_19_1,2023-11-17T21:51:22.413Z,,,,,,,,,,,NaN,,,,,,,,low,high,,,,,,false,,,,,false,695014.5,695014.3999999762,,695013.8999999762,,695022.649,4,500,,
break_continue,html.Screen,10_19_2,2023-11-17T21:51:22.413Z,,,,,,,,,,,NaN,,,,,,,,low,high,,,,,,false,,,,,false,695015.1000000238,695014.8999999762,,695014.8000000119,,695022.649,4,500,,
sequence,flow.Sequence,10_19,2023-11-17T21:51:22.413Z,,,,,,,,,,,5125.518999976106,completion,,,,,,,low,high,,,,,,false,,,,,false,695015.3000000119,695014.8999999762,689872.735,689888.1000000238,689889.381,695022.649,4,500,,
trial,html.Screen,10_20_0,2023-11-17T21:51:27.379Z,,,,1,-0.0063515208248796,-0.0194177605767913,,0.04,false,ll,4958.151000011945,response,-1.0885984639975343,0.7902525217481057,-1.1340746681818707,-1.2042618719491294,0.9229546912285802,-1.1370316902667728,low,low,,ISIC_5281908.JPG,9,ISIC_0012740.JPG,26,false,0.13,lh,keypress(e),0,false,699981.1000000238,699980.8000000119,695006.162,695015.3999999762,695022.649,699989.361,4,500,21,
break,html.Screen,10_20_1,2023-11-17T21:51:27.380Z,,,,,,,,,,,NaN,,,,,,,,low,low,,,,,,false,,,,,false,699981.8999999762,699981.6999999881,,699981.3999999762,,699989.361,4,500,,
break_continue,html.Screen,10_20_2,2023-11-17T21:51:27.381Z,,,,,,,,,,,NaN,,,,,,,,low,low,,,,,,false,,,,,false,699982.5,699982.3999999762,,699982.1000000238,,699989.361,4,500,,
sequence,flow.Sequence,10_20,2023-11-17T21:51:27.381Z,,,,,,,,,,,4959.750999976182,completion,,,,,,,low,low,,,,,,false,,,,,false,699982.8000000119,699982.3999999762,695006.162,695015.3999999762,695022.649,699989.361,4,500,,
trial,html.Screen,10_21_0,2023-11-17T21:51:34.626Z,,,,1,-0.0199897690678184,-0.0312486875504497,,0.04,false,hl,7238.538999976125,response,0.8620516892494489,0.7902525217481057,-1.1340746681818707,-1.1108509340502866,0.9229546912285802,-1.1370316902667728,high,low,,ISIC_5482426.JPG,9,ISIC_5557806.JPG,25,false,0.15000000000000002,hh,keypress(i),0,false,707228.1000000238,707227.8999999762,699972.862,699982.8999999762,699989.361,707239.405,4,500,22,
break,html.Screen,10_21_1,2023-11-17T21:51:34.626Z,,,,,,,,,,,NaN,,,,,,,,high,low,,,,,,false,,,,,false,707228.3000000119,707228.3000000119,,707228.1000000238,,707239.405,4,500,,
break_continue,html.Screen,10_21_2,2023-11-17T21:51:34.627Z,,,,,,,,,,,NaN,,,,,,,,high,low,,,,,,false,,,,,false,707228.5,707228.3999999762,,707228.3999999762,,707239.405,4,500,,
sequence,flow.Sequence,10_21,2023-11-17T21:51:34.627Z,,,,,,,,,,,7239.038999976125,completion,,,,,,,high,low,,,,,,false,,,,,false,707228.5,707228.3999999762,699972.862,699982.8999999762,699989.361,707239.405,4,500,,
trial,html.Screen,10_22_0,2023-11-17T21:51:38.253Z,,,,1,-0.0365981355399771,-0.0162670920008846,,0.04,true,hh,3614.695000023814,response,0.8797187572470211,0.7902525217481057,-1.1340746681818707,0.9573640085332544,0.9229546912285802,-1.1370316902667728,high,high,,ISIC_0982855.JPG,9,ISIC_0010235.JPG,54,false,0.1,hh,keypress(i),0,false,710854.3999999762,710854.1000000238,707222.769,707228.5,707239.405,710873.215,4,500,23,
break,html.Screen,10_22_1,2023-11-17T21:51:38.253Z,,,,,,,,,,,NaN,,,,,,,,high,high,,,,,,false,,,,,false,710855.1999999881,710855.1000000238,,710854.6999999881,,710873.215,4,500,,
break_continue,html.Screen,10_22_2,2023-11-17T21:51:38.254Z,,,,,,,,,,,NaN,,,,,,,,high,high,,,,,,false,,,,,false,710855.8000000119,710855.6000000238,,710855.3999999762,,710873.215,4,500,,
sequence,flow.Sequence,10_22,2023-11-17T21:51:38.254Z,,,,,,,,,,,3616.195000023814,completion,,,,,,,high,high,,,,,,false,,,,,false,710856,710855.6000000238,707222.769,707228.5,707239.405,710873.215,4,500,,
trial,html.Screen,10_23_0,2023-11-17T21:51:44.666Z,,,,1,0.0060918352854008,-0.029032683404407,,0.04,false,ll,6394.684999976191,response,-1.1802887330422154,0.7902525217481057,-1.1340746681818707,-1.0224375154810723,0.9229546912285802,-1.1370316902667728,low,low,,ISIC_8436194.JPG,10,ISIC_9225640.JPG,26,false,0.13,hl,keypress(j),0,false,717268,717267.8999999762,710839.349,710856.1999999881,710873.215,717289.285,4,500,24,
break,html.Screen,10_23_1,2023-11-17T21:51:44.667Z,,,,,,,,,,,NaN,,,,,,,,low,low,,,,,,false,,,,,false,717268.3000000119,717268.1999999881,,717268.1000000238,,717289.285,4,500,,
break_continue,html.Screen,10_23_2,2023-11-17T21:51:44.667Z,,,,,,,,,,,NaN,,,,,,,,low,low,,,,,,false,,,,,false,717268.3999999762,717268.3999999762,,717268.3999999762,,717289.285,4,500,,
sequence,flow.Sequence,10_23,2023-11-17T21:51:44.667Z,,,,,,,,,,,6395.184999976191,completion,,,,,,,low,low,,,,,,false,,,,,false,717268.6000000238,717268.3999999762,710839.349,710856.1999999881,710873.215,717289.285,4,500,,
trial,html.Screen,10_24_0,2023-11-17T21:51:47.307Z,,,,1,0.012810673904807,-0.00400964452501,,0.04,false,hh,2619.4149999880465,response,0.838053327796249,0.7902525217481057,-1.1340746681818707,0.9376491160549733,0.9229546912285802,-1.1370316902667728,high,high,,ISIC_0064656.JPG,9,ISIC_4834687.JPG,54,false,0.1,hl,keypress(j),0,false,719909,719908.6999999881,717272.584,717268.6000000238,717289.285,719922.584,4,500,25,
break,html.Screen,10_24_1,2023-11-17T21:51:47.308Z,,,,,,,,,,,NaN,,,,,,,,high,high,,,,,,false,,,,,false,719909.8999999762,719909.6999999881,,719909.3000000119,,719922.584,4,500,,
break_continue,html.Screen,10_24_2,2023-11-17T21:51:47.309Z,,,,,,,,,,,NaN,,,,,,,,high,high,,,,,,false,,,,,false,719910.5,719910.1999999881,,719910,,719922.584,4,500,,
sequence,flow.Sequence,10_24,2023-11-17T21:51:47.309Z,,,,,,,,,,,2620.9149999880465,completion,,,,,,,high,high,,,,,,false,,,,,false,719910.6999999881,719910.1999999881,717272.584,717268.6000000238,717289.285,719922.584,4,500,,
trial,html.Screen,10_25_0,2023-11-17T21:51:50.580Z,,,,1,0.0118555311043871,0.0087774532070196,,0.04,false,hl,3258.8159999761265,response,0.8709576717420565,0.7902525217481057,-1.1340746681818707,-1.2795156779072283,0.9229546912285802,-1.1370316902667728,high,low,,ISIC_6488658.JPG,8,ISIC_1925632.JPG,25,false,0.15000000000000002,lh,keypress(e),0,false,723181.6000000238,723181.3999999762,719906.109,719910.8999999762,719922.584,723189.236,4,500,26,
break,html.Screen,10_25_1,2023-11-17T21:51:50.581Z,,,,,,,,,,,NaN,,,,,,,,high,low,,,,,,false,,,,,false,723182.6000000238,723182.3999999762,,723182,,723189.236,4,500,,
break_continue,html.Screen,10_25_2,2023-11-17T21:51:50.581Z,,,,,,,,,,,NaN,,,,,,,,high,low,,,,,,false,,,,,false,723183.1999999881,723183,,723182.6999999881,,723189.236,4,500,,
sequence,flow.Sequence,10_25,2023-11-17T21:51:50.582Z,,,,,,,,,,,3260.4159999999683,completion,,,,,,,high,low,,,,,,false,,,,,false,723183.3999999762,723183,719906.109,719910.8000000119,719922.584,723189.236,4,500,,
trial,html.Screen,10_26_0,2023-11-17T21:51:52.884Z,,,,1,0.0023664502831079,0.0252784582169994,,0.04,false,ll,2295.5640000118874,response,-1.0730492496332733,0.7902525217481057,-1.1340746681818707,-1.0252626598876022,0.9229546912285802,-1.1370316902667728,low,low,,ISIC_4156010.JPG,9,ISIC_0007029.JPG,26,false,0.13,hl,keypress(j),0,false,725485,725484.8000000119,723172.749,723183.6000000238,723189.236,725489.22,4,500,27,
break,html.Screen,10_26_1,2023-11-17T21:51:52.885Z,,,,,,,,,,,NaN,,,,,,,,low,low,,,,,,false,,,,,false,725485.8999999762,725485.6000000238,,725485.3000000119,,725489.22,4,500,,
break_continue,html.Screen,10_26_2,2023-11-17T21:51:52.885Z,,,,,,,,,,,NaN,,,,,,,,low,low,,,,,,false,,,,,false,725486.3999999762,725486.1999999881,,725486,,725489.22,4,500,,
sequence,flow.Sequence,10_26,2023-11-17T21:51:52.886Z,,,,,,,,,,,2296.9639999880455,completion,,,,,,,low,low,,,,,,false,,,,,false,725486.6000000238,725486.1999999881,723172.749,723183.5,723189.236,725489.22,4,500,,
trial,html.Screen,10_27_0,2023-11-17T21:51:55.499Z,,,,1,-0.010035581303589,0.0100711721396864,,0.04,false,ll,2610.38000002387,response,-1.1510001454240106,0.7902525217481057,-1.1340746681818707,-1.132540312667795,0.9229546912285802,-1.1370316902667728,low,low,,ISIC_0030592.JPG,9,ISIC_0009959.JPG,26,false,0.13,hl,keypress(j),0,false,728099.6999999881,728099.6000000238,725472.759,725486.8000000119,725489.22,728105.894,4,500,28,
break,html.Screen,10_27_1,2023-11-17T21:51:55.499Z,,,,,,,,,,,NaN,,,,,,,,low,low,,,,,,false,,,,,false,728100.1000000238,728100,,728099.8000000119,,728105.894,4,500,,
break_continue,html.Screen,10_27_2,2023-11-17T21:51:55.499Z,,,,,,,,,,,NaN,,,,,,,,low,low,,,,,,false,,,,,false,728100.3000000119,728100.1999999881,,728100.1000000238,,728105.894,4,500,,
sequence,flow.Sequence,10_27,2023-11-17T21:51:55.499Z,,,,,,,,,,,2610.979999988107,completion,,,,,,,low,low,,,,,,false,,,,,false,728100.3000000119,728100.1999999881,725472.759,725486.6999999881,725489.22,728105.894,4,500,,
trial,html.Screen,10_28_0,2023-11-17T21:51:58.268Z,,,,1,0.012020985739544,-0.0126097407389903,,0.04,false,ll,2763.005999976187,response,-1.1604734171556077,0.7902525217481057,-1.1340746681818707,-1.0789312625280616,0.9229546912285802,-1.1370316902667728,low,low,,ISIC_0069379.JPG,9,ISIC_3950753.JPG,26,false,0.13,hl,keypress(j),0,false,730869.1000000238,730868.8999999762,728089.45,728100.3999999762,728105.894,730872.534,4,500,29,
break,html.Screen,10_28_1,2023-11-17T21:51:58.269Z,,,,,,,,,,,NaN,,,,,,,,low,low,,,,,,false,,,,,false,730870.1000000238,730869.8000000119,,730869.3999999762,,730872.534,4,500,,
break_continue,html.Screen,10_28_2,2023-11-17T21:51:58.270Z,,,,,,,,,,,NaN,,,,,,,,low,low,,,,,,false,,,,,false,730870.6999999881,730870.5,,730870.3000000119,,730872.534,4,500,,
sequence,flow.Sequence,10_28,2023-11-17T21:51:58.270Z,,,,,,,,,,,2764.606000000029,completion,,,,,,,low,low,,,,,,false,,,,,false,730870.8999999762,730870.5,728089.45,728100.3000000119,728105.894,730872.534,4,500,,
trial,html.Screen,10_29_0,2023-11-17T21:52:00.579Z,,,,1,0.0350697500805515,0.0166617848231997,,0.04,false,ll,2307.365999976173,response,-1.1168199061753437,0.7902525217481057,-1.1340746681818707,-1.212287319329914,0.9229546912285802,-1.1370316902667728,low,low,,ISIC_0024423.JPG,9,ISIC_5919355.JPG,26,false,0.13,hl,keypress(j),0,false,733180,733179.8999999762,730856.08,730871.1000000238,730872.534,733205.948,4,500,30,
break,html.Screen,10_29_1,2023-11-17T21:52:00.579Z,,,,,,,,,,,NaN,,,,,,,,low,low,,,,,,false,,,,,false,733180.3999999762,733180.3000000119,,733180.1999999881,,733205.948,4,500,,
break_continue,html.Screen,10_29_2,2023-11-17T21:52:00.580Z,,,,,,,,,,,NaN,,,,,,,,low,low,,,,,,false,,,,,false,733180.5,733180.3999999762,,733180.3999999762,,733205.948,4,500,,
sequence,flow.Sequence,10_29,2023-11-17T21:52:00.580Z,,,,,,,,,,,2307.865999976173,completion,,,,,,,low,low,,,,,,false,,,,,false,733180.5,733180.3999999762,730856.08,730871,730872.534,733205.948,4,500,,
trial,html.Screen,10_30_0,2023-11-17T21:52:02.683Z,,,,1,-0.0063515208248796,-0.0194177605767913,,0.04,true,hl,2077.4519999761833,response,0.7761549898346118,0.7902525217481057,-1.1340746681818707,-1.0995228188562456,0.9229546912285802,-1.1370316902667728,high,low,,ISIC_5281908.JPG,8,ISIC_1835041.JPG,25,false,0.15000000000000002,hl,keypress(j),0,false,735283.5,735283.3999999762,733189.421,733180.6000000238,733205.948,735289.204,4,500,31,
break,html.Screen,10_30_1,2023-11-17T21:52:02.683Z,,,,,,,,,,,NaN,,,,,,,,high,low,,,,,,false,,,,,false,735283.8000000119,735283.6999999881,,735283.6000000238,,735289.204,4,500,,
break_continue,html.Screen,10_30_2,2023-11-17T21:52:02.683Z,,,,,,,,,,,NaN,,,,,,,,high,low,,,,,,false,,,,,false,735283.8999999762,735283.8000000119,,735283.8000000119,,735289.204,4,500,,
sequence,flow.Sequence,10_30,2023-11-17T21:52:02.683Z,,,,,,,,,,,2077.852000011946,completion,,,,,,,high,low,,,,,,false,,,,,false,735284,735283.8000000119,733189.421,733180.5,733205.948,735289.204,4,500,,
trial,html.Screen,10_31_0,2023-11-17T21:52:04.709Z,,,,1,-0.0199897690678184,-0.0312486875504497,,0.04,false,ll,2020.6959999761311,response,-1.2555541172897566,0.7902525217481057,-1.1340746681818707,-1.0235056423601527,0.9229546912285802,-1.1370316902667728,low,low,,ISIC_5482426.JPG,9,ISIC_1578399.JPG,26,false,0.13,lh,keypress(e),0,false,737310.1000000238,737309.8999999762,735272.725,735284.1000000238,735289.204,737322.79,4,500,32,
break,html.Screen,10_31_1,2023-11-17T21:52:04.710Z,,,,,,,,,,,NaN,,,,,,,,low,low,,,,,,false,,,,,false,737311,737310.8000000119,,737310.3999999762,,737322.79,4,500,,
break_continue,html.Screen,10_31_2,2023-11-17T21:52:04.711Z,,,,,,,,,,,NaN,,,,,,,,low,low,,,,,,false,,,,,false,737311.6000000238,737311.3999999762,,737311.3000000119,,737322.79,4,500,,
sequence,flow.Sequence,10_31,2023-11-17T21:52:04.711Z,,,,,,,,,,,2022.1959999761311,completion,,,,,,,low,low,,,,,,false,,,,,false,737311.8999999762,737311.3999999762,735272.725,735284.1000000238,735289.204,737322.79,4,500,,
trial,html.Screen,10_32_0,2023-11-17T21:52:08.317Z,,,,1,0.0060934073440827,0.0279108145883031,,0.04,true,hh,3594.909999988042,response,0.8847502213514871,0.7902525217481057,-1.1340746681818707,0.9725947392713435,0.9229546912285802,-1.1370316902667728,high,high,,ISIC_0032604.JPG,9,ISIC_0073044.JPG,54,false,0.1,hh,keypress(i),0,false,740917.8999999762,740917.6999999881,737306.057,737312,737322.79,740922.495,4,500,33,
break,html.Screen,10_32_1,2023-11-17T21:52:08.318Z,,,,,,,,,,,NaN,,,,,,,,high,high,,,,,,false,,,,,false,740919,740918.6999999881,,740918.3000000119,,740922.495,4,500,,
break_continue,html.Screen,10_32_2,2023-11-17T21:52:08.319Z,,,,,,,,,,,NaN,,,,,,,,high,high,,,,,,false,,,,,false,740919.5,740919.3000000119,,740919.1000000238,,740922.495,4,500,,
sequence,flow.Sequence,10_32,2023-11-17T21:52:08.319Z,,,,,,,,,,,3596.5100000118837,completion,,,,,,,high,high,,,,,,false,,,,,false,740919.6999999881,740919.3000000119,737306.057,737311.8999999762,737322.79,740922.495,4,500,,
trial,html.Screen,10_33_0,2023-11-17T21:52:11.500Z,,,,1,-0.0189295602385628,-0.0128812415435153,,0.04,false,ll,3178.5050000000047,response,-1.2254777618346506,0.7902525217481057,-1.1340746681818707,-1.0356416330964822,0.9229546912285802,-1.1370316902667728,low,low,,ISIC_0010372.JPG,8,ISIC_1054090.JPG,26,false,0.13,lh,keypress(e),0,false,744101.1999999881,744101,740906.053,740919.8000000119,740922.495,744105.816,4,500,34,
break,html.Screen,10_33_1,2023-11-17T21:52:11.501Z,,,,,,,,,,,NaN,,,,,,,,low,low,,,,,,false,,,,,false,744102.1999999881,744102,,744101.5,,744105.816,4,500,,
break_continue,html.Screen,10_33_2,2023-11-17T21:52:11.502Z,,,,,,,,,,,NaN,,,,,,,,low,low,,,,,,false,,,,,false,744102.6999999881,744102.5,,744102.3999999762,,744105.816,4,500,,
sequence,flow.Sequence,10_33,2023-11-17T21:52:11.502Z,,,,,,,,,,,3180.0050000000047,completion,,,,,,,low,low,,,,,,false,,,,,false,744103,744102.5,740906.053,740919.8000000119,740922.495,744105.816,4,500,,
trial,html.Screen,10_34_0,2023-11-17T21:52:17.811Z,,,,1,0.0077673378094614,0.0021810768579373,,0.04,true,hl,6306.383999988087,response,0.8035152873995188,0.7902525217481057,-1.1340746681818707,-1.2407642249743125,0.9229546912285802,-1.1370316902667728,high,low,,ISIC_0067621.JPG,9,ISIC_0010671.JPG,25,false,0.15000000000000002,hl,keypress(j),0,false,750412.3000000119,750412.1999999881,744089.382,744103.1000000238,744105.816,750422.5,4,500,35,
break,html.Screen,10_34_1,2023-11-17T21:52:17.812Z,,,,,,,,,,,NaN,,,,,,,,high,low,,,,,,false,,,,,false,750412.6000000238,750412.6000000238,,750412.3999999762,,750422.5,4,500,,
break_continue,html.Screen,10_34_2,2023-11-17T21:52:17.812Z,,,,,,,,,,,NaN,,,,,,,,high,low,,,,,,false,,,,,false,750412.8000000119,750412.6999999881,,750412.6999999881,,750422.5,4,500,,
sequence,flow.Sequence,10_34,2023-11-17T21:52:17.812Z,,,,,,,,,,,6306.883999988087,completion,,,,,,,high,low,,,,,,false,,,,,false,750412.8000000119,750412.6999999881,744089.382,744103.1000000238,744105.816,750422.5,4,500,,
trial,html.Screen,10_35_0,2023-11-17T21:52:24.316Z,,,,1,0.0118555311043871,0.0087774532070196,,0.04,false,lh,6494.5,response,-1.2838089642212804,0.7902525217481057,-1.1340746681818707,0.8550527900640753,0.9229546912285802,-1.1370316902667728,low,high,,ISIC_6488658.JPG,8,ISIC_0034187.JPG,25,false,0.22000000000000008,hh,keypress(i),0,false,756917.3000000119,756917,750405.99,750412.8000000119,750422.5,756922.47,4,500,36,
break,html.Screen,10_35_1,2023-11-17T21:52:24.317Z,,,,,,,,,,,NaN,,,,,,,,low,high,,,,,,false,,,,,false,756918.1999999881,756918,,756917.5,,756922.47,4,500,,
break_continue,html.Screen,10_35_2,2023-11-17T21:52:24.318Z,,,,,,,,,,,NaN,,,,,,,,low,high,,,,,,false,,,,,false,756918.8000000119,756918.6000000238,,756918.3999999762,,756922.47,4,500,,
sequence,flow.Sequence,10_35,2023-11-17T21:52:24.318Z,,,,,,,,,,,6496.100000023842,completion,,,,,,,low,high,,,,,,false,,,,,false,756919,756918.6000000238,750405.99,750412.8000000119,750422.5,756922.47,4,500,,
trial,html.Screen,10_36_0,2023-11-17T21:52:29.300Z,,,,1,-0.0063515208248796,-0.0194177605767913,,0.04,true,lh,4978.63000002387,response,-1.1235224875125256,0.7902525217481057,-1.1340746681818707,0.8641223012137988,0.9229546912285802,-1.1370316902667728,low,high,,ISIC_5281908.JPG,8,ISIC_0033901.JPG,25,false,0.22000000000000008,lh,keypress(e),0,false,761901.3000000119,761901.1000000238,756905.873,756919.3000000119,756922.47,761905.814,4,500,37,
break,html.Screen,10_36_1,2023-11-17T21:52:29.301Z,,,,,,,,,,,NaN,,,,,,,,low,high,,,,,,false,,,,,false,761902.3000000119,761902.1000000238,,761901.6000000238,,761905.814,4,500,,
break_continue,html.Screen,10_36_2,2023-11-17T21:52:29.302Z,,,,,,,,,,,NaN,,,,,,,,low,high,,,,,,false,,,,,false,761902.8000000119,761902.5,,761902.3999999762,,761905.814,4,500,,
sequence,flow.Sequence,10_36,2023-11-17T21:52:29.302Z,,,,,,,,,,,4980.030000000028,completion,,,,,,,low,high,,,,,,false,,,,,false,761903,761902.5,756905.873,756919.1999999881,756922.47,761905.814,4,500,,
trial,html.Screen,10_37_0,2023-11-17T21:52:33.099Z,,,,1,0.00126575685933,0.0325046559638838,,0.04,true,hh,3794.486000011908,response,0.781123788799864,0.7902525217481057,-1.1340746681818707,0.985661787434149,0.9229546912285802,-1.1370316902667728,high,high,,ISIC_5682259.JPG,10,ISIC_0027694.JPG,54,false,0.1,hh,keypress(i),0,false,765700.3999999762,765700.3000000119,761889.328,761903.1000000238,761905.814,765705.846,4,500,38,
break,html.Screen,10_37_1,2023-11-17T21:52:33.100Z,,,,,,,,,,,NaN,,,,,,,,high,high,,,,,,false,,,,,false,765701,765700.8000000119,,765700.6000000238,,765705.846,4,500,,
break_continue,html.Screen,10_37_2,2023-11-17T21:52:33.101Z,,,,,,,,,,,NaN,,,,,,,,high,high,,,,,,false,,,,,false,765701.5,765701.3000000119,,765701.1999999881,,765705.846,4,500,,
sequence,flow.Sequence,10_37,2023-11-17T21:52:33.101Z,,,,,,,,,,,3795.486000011908,completion,,,,,,,high,high,,,,,,false,,,,,false,765701.6999999881,765701.3000000119,761889.328,761903.1000000238,761905.814,765705.846,4,500,,
trial,html.Screen,10_38_0,2023-11-17T21:52:36.653Z,,,,1,-0.0063515208248796,-0.0194177605767913,,0.04,false,hl,3548.0539999761386,response,0.6416699984222508,0.7902525217481057,-1.1340746681818707,-1.1702231398575993,0.9229546912285802,-1.1370316902667728,high,low,,ISIC_5281908.JPG,9,ISIC_0064784.JPG,25,false,0.15000000000000002,lh,keypress(e),0,false,769254.1000000238,769253.8999999762,765689.006,765701.8999999762,765705.846,769273.006,4,500,39,
