sender,sender_type,sender_id,timestamp,meta,,age,blockNo,c1,c2,condition,control_tolerance,correct,correctResponse,duration,ended_on,f1,f1_high,f1_low,f2,f2_high,f2_low,feature_level1,feature_level2,gender,img_left,img_reveal,img_right,n_target_images,practice,range_tolerance,response,response_action,selection_duration,staircase,time_commit,time_end,time_render,time_run,time_show,time_switch,total_blocks,total_trials,trialNo,url
informed_consent,html.Screen,0,2023-11-17T19:38:24.497Z,"{""labjs_version"":""20.2.4"",""labjs_build"":{""flavor"":""development"",""commit"":""f5b4a49f956347addd546a832a3327688c2c0fef""},""location"":""https://labjs.felixhenninger.com/api/labjs_preview/index.html"",""userAgent"":""Mozilla/5.0 (Windows NT 10.0; Win64; x64) AppleWebKit/537.36 (KHTML, like Gecko) Chrome/119.0.0.0 Safari/537.36"",""platform"":""Win32"",""language"":""en-US"",""locale"":""en-US"",""timeZone"":""America/Chicago"",""timezoneOffset"":360,""screen_width"":1920,""screen_height"":1080,""scroll_width"":945,""scroll_height"":918,""window_innerWidth"":945,""window_innerHeight"":966,""devicePixelRatio"":1}",,,,,,,,,,37438.71499995232,response,,,,,,,,,,,,,,,,consent,click button,,,37940.699999928474,37934.299999952316,478.943,641.5,495.585,37812.665,,,,{}
Demography form,html.Form,1,2023-11-17T19:38:32.442Z,,,19,,,,,,,,8072.134999952315,form submission,,,,,,,,,female,,,,,,,,,,,45885,45884.799999952316,37795.752,37940.799999952316,37812.665,45728.888,,,,
Welcome,html.Screen,2,2023-11-17T19:38:37.804Z,,,,,,,"[""bor"",""col""]",,,,5517.511999976159,response,,,,,,,,,,,,,,,,continue,click button,,,51247.199999928474,51246.39999997616,45712.466,45885.10000002384,45728.888,51095.542,,,,
demo_instructions,html.Screen,3,2023-11-17T19:40:27.636Z,,,,,,,,,,,109982.55800002384,response,,,,,,,,,,,,,,,,continue,click button,,,161078.89999997616,161078.10000002384,51078.88,51247.299999952316,51095.542,160945.42,,,,
trial,html.Screen,4_0_0,2023-11-17T19:40:53.571Z,,,,0,0.8544507134472948,-0.9244388608707323,,,true,lh,26068.77999992846,response,-1.0329549150636406,1.2,-1.2,1.01584100839286,1.2,-1.2,low,high,,ISIC_3565564.JPG,,ISIC_0054670.JPG,26,true,0.4500000000000003,lh,keypress(e),100,false,187014.5,187014.19999992847,160912.24,161079,160945.42,186878.836,1,16,1,
sequence,flow.Sequence,4_0,2023-11-17T19:40:53.572Z,,,,,,,,,,,26068.77999992846,completion,,,,,,,low,high,,,,,,true,,,,,false,187014.79999995232,187014.19999992847,160912.24,161079,160945.42,186878.836,1,16,,
trial,html.Screen,4_1_0,2023-11-17T19:41:10.369Z,,,,0,0.9662688541319592,-0.929746784178986,,,true,lh,16933.063999976148,response,-1.2054195059663604,1.2,-1.2,0.7760611240296147,1.2,-1.2,low,high,,ISIC_0011077.JPG,,ISIC_8712559.JPG,26,true,0.4500000000000003,lh,keypress(e),100,false,203812.10000002384,203811.89999997616,186862.088,187014.89999997616,186878.836,203678.89,1,16,2,
sequence,flow.Sequence,4_1,2023-11-17T19:41:10.370Z,,,,,,,,,,,16933.063999976148,completion,,,,,,,low,high,,,,,,true,,,,,false,203812.19999992847,203811.89999997616,186862.088,187014.89999997616,186878.836,203678.89,1,16,,
trial,html.Screen,4_2_0,2023-11-17T19:41:18.191Z,,,,0,1.045301444872812,-1.0872560254441277,,,true,lh,7954.3099999284605,response,-0.8828738626295417,1.2,-1.2,0.8288177599439582,1.2,-1.2,low,high,,ISIC_4507700.JPG,,ISIC_0056041.JPG,26,true,0.4500000000000003,lh,keypress(e),100,false,211633.39999997616,211633.19999992847,203662.047,203812.29999995232,203678.89,211512.063,1,16,3,
sequence,flow.Sequence,4_2,2023-11-17T19:41:18.191Z,,,,,,,,,,,7954.3099999284605,completion,,,,,,,low,high,,,,,,true,,,,,false,211633.60000002384,211633.19999992847,203662.047,203812.19999992847,203678.89,211512.063,1,16,,
trial,html.Screen,4_3_0,2023-11-17T19:41:31.037Z,,,,0,0.8987343013179191,-0.8149073454566363,,,true,lh,12967.13699992848,response,-0.8926515927689261,1.2,-1.2,0.7935960767768927,1.2,-1.2,low,high,,ISIC_0472513.JPG,,ISIC_8901371.JPG,26,true,0.4500000000000003,lh,keypress(e),100,false,224479.5,224479.19999992847,211495.581,211633.69999992847,211512.063,224345.518,1,16,4,
sequence,flow.Sequence,4_3,2023-11-17T19:41:31.037Z,,,,,,,,,,,12967.13699992848,completion,,,,,,,low,high,,,,,,true,,,,,false,224479.69999992847,224479.19999992847,211495.581,211633.60000002384,211512.063,224345.518,1,16,,
trial,html.Screen,4_4_0,2023-11-17T19:41:42.627Z,,,,0,1.0915173513546716,1.266840220031473,,,true,ll,11723.681999928463,response,-1.149077673153018,1.2,-1.2,-0.8142209573918602,1.2,-1.2,low,low,,ISIC_8241457.JPG,,ISIC_3566243.JPG,203,true,0.40000000000000024,ll,keypress(f),100,false,236069.5,236069.19999992847,224328.69,224479.79999995232,224345.518,235945.39,1,16,5,
sequence,flow.Sequence,4_4,2023-11-17T19:41:42.627Z,,,,,,,,,,,11723.681999928463,completion,,,,,,,low,low,,,,,,true,,,,,false,236069.69999992847,236069.19999992847,224328.69,224479.69999992847,224345.518,235945.39,1,16,,
trial,html.Screen,4_5_0,2023-11-17T19:41:54.856Z,,,,0,1.1441767540243375,1.0949087392471728,,,true,ll,12353.409999952302,response,-1.151139267005652,1.2,-1.2,-1.0838749490501327,1.2,-1.2,low,low,,ISIC_0054146.JPG,,ISIC_0002566.JPG,25,true,0.14,ll,keypress(f),100,false,248299.10000002384,248298.79999995232,235928.688,236069.79999995232,235945.39,248162.248,1,16,6,
sequence,flow.Sequence,4_5,2023-11-17T19:41:54.857Z,,,,,,,,,,,12353.409999952302,completion,,,,,,,low,low,,,,,,true,,,,,false,248299.19999992847,248298.79999995232,235928.688,236069.79999995232,235945.39,248162.248,1,16,,
trial,html.Screen,4_6_0,2023-11-17T19:42:04.494Z,,,,0,1.0865209011322887,1.1401461171952545,,,true,ll,9773.951999928482,response,-1.2724293858920366,1.2,-1.2,-1.149360738769835,1.2,-1.2,low,low,,ISIC_0016145.JPG,,ISIC_1264725.JPG,25,true,0.14,ll,keypress(f),100,false,257936.29999995232,257936.19999992847,248145.537,248299.39999997616,248162.248,257812.237,1,16,7,
sequence,flow.Sequence,4_6,2023-11-17T19:42:04.494Z,,,,,,,,,,,9773.951999928482,completion,,,,,,,low,low,,,,,,true,,,,,false,257936.5,257936.19999992847,248145.537,248299.29999995232,248162.248,257812.237,1,16,,
trial,html.Screen,4_7_0,2023-11-17T19:42:14.322Z,,,,0,1.1302628852630028,1.288906469447243,,,true,ll,9952.363000023848,response,-1.2804054832904397,1.2,-1.2,-1.171271535505083,1.2,-1.2,low,low,,ISIC_0071050.JPG,,ISIC_7889838.JPG,25,true,0.14,ll,keypress(f),100,false,267764.6999999285,267764.60000002384,257795.454,257936.5,257812.237,267628.619,1,16,8,
sequence,flow.Sequence,4_7,2023-11-17T19:42:14.322Z,,,,,,,,,,,9952.363000023848,completion,,,,,,,low,low,,,,,,true,,,,,false,267764.89999997616,267764.60000002384,257795.454,257936.5,257812.237,267628.619,1,16,,
trial,html.Screen,4_8_0,2023-11-17T19:42:27.416Z,,,,0,-0.9653573371180936,0.854766800381037,,,true,hl,13230.080999928468,response,0.8307508446051526,1.2,-1.2,-1.1707575338936729,1.2,-1.2,high,low,,ISIC_9640145.JPG,,ISIC_0028606.JPG,27,true,0.40000000000000024,hl,keypress(j),100,false,280858.89999997616,280858.6999999285,267611.981,267765,267628.619,280728.885,1,16,9,
sequence,flow.Sequence,4_8,2023-11-17T19:42:27.416Z,,,,,,,,,,,13230.080999928468,completion,,,,,,,high,low,,,,,,true,,,,,false,280859,280858.6999999285,267611.981,267765,267628.619,280728.885,1,16,,
trial,html.Screen,4_9_0,2023-11-17T19:42:51.846Z,,,,0,-0.8472024037189965,0.986370061404882,,,true,hl,24560.414999952307,response,0.8067116931297591,1.2,-1.2,-1.215898074058027,1.2,-1.2,high,low,,ISIC_0054355.JPG,,ISIC_1457687.JPG,40,true,0.4500000000000003,hl,keypress(j),100,false,305289.39999997616,305289.2999999523,280711.983,280859.10000002384,280728.885,305162.179,1,16,10,
sequence,flow.Sequence,4_9,2023-11-17T19:42:51.847Z,,,,,,,,,,,24560.414999952307,completion,,,,,,,high,low,,,,,,true,,,,,false,305289.60000002384,305289.2999999523,280711.983,280859.10000002384,280728.885,305162.179,1,16,,
trial,html.Screen,4_10_0,2023-11-17T19:43:01.735Z,,,,0,-1.2362557973341337,1.2548266183352603,,,true,hl,10015.320999999996,response,1.2020012168275056,1.2,-1.2,-0.923753102263735,1.2,-1.2,high,low,,ISIC_0033886.JPG,,ISIC_0000022.JPG,40,true,0.4500000000000003,hl,keypress(j),100,false,315177.6999999285,315177.5,305145.27,305289.6999999285,305162.179,315045.257,1,16,11,
sequence,flow.Sequence,4_10,2023-11-17T19:43:01.735Z,,,,,,,,,,,10015.320999999996,completion,,,,,,,high,low,,,,,,true,,,,,false,315177.89999997616,315177.5,305145.27,305289.6999999285,305162.179,315045.257,1,16,,
trial,html.Screen,4_11_0,2023-11-17T19:43:12.327Z,,,,0,-0.8034318937720549,1.0024917298189338,,,true,hl,10723.942999928491,response,0.8165346395107898,1.2,-1.2,-0.7657798385266591,1.2,-1.2,high,low,,ISIC_0032766.JPG,,ISIC_2283628.JPG,40,true,0.4500000000000003,hl,keypress(j),100,false,325769.2999999523,325769.1999999285,315028.61,315177.89999997616,315045.257,325645.349,1,16,12,
sequence,flow.Sequence,4_11,2023-11-17T19:43:12.327Z,,,,,,,,,,,10723.942999928491,completion,,,,,,,high,low,,,,,,true,,,,,false,325769.5,325769.1999999285,315028.61,315177.89999997616,315045.257,325645.349,1,16,,
trial,html.Screen,4_12_0,2023-11-17T19:43:22.108Z,,,,0,-1.2246024683501224,-1.2904526351590244,,,true,hh,9904.55099997617,response,1.1103777034815996,1.2,-1.2,1.018282939602391,1.2,-1.2,high,high,,ISIC_4730066.JPG,,ISIC_3094758.JPG,359,true,0.4500000000000003,hh,keypress(i),100,false,335550.1999999285,335549.89999997616,325628.83,325769.5,325645.349,335428.784,1,16,13,
sequence,flow.Sequence,4_12,2023-11-17T19:43:22.108Z,,,,,,,,,,,9904.55099997617,completion,,,,,,,high,high,,,,,,true,,,,,false,335550.2999999523,335549.89999997616,325628.83,325769.5,325645.349,335428.784,1,16,,
trial,html.Screen,4_13_0,2023-11-17T19:43:28.274Z,,,,0,-1.2724293858920366,-1.149360738769835,,,true,hh,6287.816000023857,response,1.1048559518249943,1.2,-1.2,1.2252457981338687,1.2,-1.2,high,high,,ISIC_1264725.JPG,,ISIC_0060817.JPG,40,true,0.14,hh,keypress(i),100,false,341716.7999999523,341716.60000002384,335412.15,335550.39999997616,335428.784,341595.331,1,16,14,
sequence,flow.Sequence,4_13,2023-11-17T19:43:28.275Z,,,,,,,,,,,6287.816000023857,completion,,,,,,,high,high,,,,,,true,,,,,false,341717,341716.60000002384,335412.15,335550.39999997616,335428.784,341595.331,1,16,,
trial,html.Screen,4_14_0,2023-11-17T19:43:31.752Z,,,,0,-1.1870093485714288,-1.3339880978442629,,,true,hh,3599.0689999761526,response,1.0653732408486678,1.2,-1.2,1.089675540151582,1.2,-1.2,high,high,,ISIC_8592235.JPG,,ISIC_0058315.JPG,40,true,0.14,hh,keypress(i),100,false,345194.5,345194.39999997616,341578.807,341717,341595.331,345062.342,1,16,15,
sequence,flow.Sequence,4_14,2023-11-17T19:43:31.752Z,,,,,,,,,,,3599.0689999761526,completion,,,,,,,high,high,,,,,,true,,,,,false,345194.6999999285,345194.39999997616,341578.807,341717,341595.331,345062.342,1,16,,
trial,html.Screen,4_15_0,2023-11-17T19:43:37.053Z,,,,0,-1.1989130276493527,-1.2666195460149832,,,true,hh,5433.057999976154,response,1.2749714218614645,1.2,-1.2,1.1578619398362149,1.2,-1.2,high,high,,ISIC_0031705.JPG,,ISIC_0024999.JPG,40,true,0.14,hh,keypress(i),100,false,350495.60000002384,350495.39999997616,345045.215,345194.7999999523,345062.342,350361.97,1,16,16,
sequence,flow.Sequence,4_15,2023-11-17T19:43:37.053Z,,,,,,,,,,,5433.057999976154,completion,,,,,,,high,high,,,,,,true,,,,,false,350495.6999999285,350495.39999997616,345045.215,345194.7999999523,345062.342,350361.97,1,16,,
demonstration_loop,flow.Loop,4,2023-11-17T19:43:37.054Z,,,,,,,,,,,189549.97999997615,completion,,,,,,,,,,,,,,true,,,,,false,350495.6999999285,350495.39999997616,160912.24,161079,160945.42,350361.97,1,16,,
practice_instructions,html.Screen,5,2023-11-17T19:43:41.386Z,,,,,,,,,,,4460.13000002387,response,,,,,,,,,,,,,,,,continue,click button,,,354827.7999999523,354822.10000002384,350345.211,350495.89999997616,350361.97,354695.213,,,,
trial,html.Screen,6_0_0,2023-11-17T19:43:51.126Z,,,,1,0.9617893983965208,-0.9453006131304652,,,true,lh,9867.086999952327,response,-1.0329549150636406,1.2,-1.2,1.01584100839286,1.2,-1.2,low,high,,ISIC_4229473.JPG,,ISIC_0054670.JPG,26,true,0.4500000000000003,lh,keypress(e),0,false,364567.89999997616,364562.2999999523,354661.867,354827.89999997616,354695.213,364428.611,1,40,1,
sequence,flow.Sequence,6_0,2023-11-17T19:43:51.126Z,,,,,,,,,,,9867.086999952327,completion,,,,,,,low,high,,,,,,true,,,,,false,364568.10000002384,364562.2999999523,354661.867,354827.89999997616,354695.213,364428.611,1,40,,
trial,html.Screen,6_1_0,2023-11-17T19:44:05.725Z,,,,1,1.1746004947382946,1.2207657619249948,,,true,ll,14738.489000023867,response,-1.1072126870290426,1.2,-1.2,-0.9917482735105084,1.2,-1.2,low,low,,ISIC_0012069.JPG,,ISIC_0071754.JPG,203,true,0.40000000000000024,ll,keypress(f),0,false,379167.1999999285,379167.10000002384,364411.807,364568.10000002384,364428.611,379028.486,1,40,2,
sequence,flow.Sequence,6_1,2023-11-17T19:44:05.725Z,,,,,,,,,,,14738.489000023867,completion,,,,,,,low,low,,,,,,true,,,,,false,379167.39999997616,379167.10000002384,364411.807,364568.10000002384,364428.611,379028.486,1,40,,
trial,html.Screen,6_2_0,2023-11-17T19:44:12.430Z,,,,1,-1.058275612142778,0.7824898568540655,,,true,hl,6843.1140000238665,response,1.2594580992890123,1.2,-1.2,-0.8833175387485132,1.2,-1.2,high,low,,ISIC_4906385.JPG,,ISIC_0011933.JPG,27,true,0.40000000000000024,hl,keypress(j),0,false,385871.6999999285,385871.60000002384,379011.747,379167.39999997616,379028.486,385728.608,1,40,3,
sequence,flow.Sequence,6_2,2023-11-17T19:44:12.430Z,,,,,,,,,,,6843.1140000238665,completion,,,,,,,high,low,,,,,,true,,,,,false,385871.7999999523,385871.60000002384,379011.747,379167.39999997616,379028.486,385728.608,1,40,,
trial,html.Screen,6_3_0,2023-11-17T19:44:17.310Z,,,,1,-1.109799097093339,-1.091507924157762,,,true,hh,5022.992000023834,response,1.3827079577591244,1.2,-1.2,1.251855207858803,1.2,-1.2,high,high,,ISIC_0765584.JPG,,ISIC_0028655.JPG,359,true,0.4500000000000003,hh,keypress(i),0,false,390751.7999999523,390751.60000002384,385711.874,385871.7999999523,385728.608,390611.802,1,40,4,
sequence,flow.Sequence,6_3,2023-11-17T19:44:17.310Z,,,,,,,,,,,5022.992000023834,completion,,,,,,,high,high,,,,,,true,,,,,false,390751.7999999523,390751.60000002384,385711.874,385871.7999999523,385728.608,390611.802,1,40,,
trial,html.Screen,6_4_0,2023-11-17T19:44:27.101Z,,,,1,-0.7518277461369444,1.3860759020802074,,,true,hl,9931.697999999975,response,0.8867328775712738,1.2,-1.2,-1.0063426986460375,1.2,-1.2,high,low,,ISIC_7967397.JPG,,ISIC_0055759.JPG,27,true,0.40000000000000024,hl,keypress(j),0,false,400543.60000002384,400543.5,390595.02,390751.89999997616,390611.802,400395.129,1,40,5,
sequence,flow.Sequence,6_4,2023-11-17T19:44:27.102Z,,,,,,,,,,,9931.697999999975,completion,,,,,,,high,low,,,,,,true,,,,,false,400543.6999999285,400543.5,390595.02,390751.7999999523,390611.802,400395.129,1,40,,
trial,html.Screen,6_5_0,2023-11-17T19:44:31.518Z,,,,1,-1.3046390428588206,0.7942099232219556,,,true,hl,4564.670999952301,response,1.2646773654288392,1.2,-1.2,-0.952963803634235,1.2,-1.2,high,low,,ISIC_0013096.JPG,,ISIC_1996356.JPG,40,true,0.4500000000000003,hl,keypress(j),0,false,404959.89999997616,404959.7999999523,400378.366,400543.7999999523,400395.129,404811.778,1,40,6,
sequence,flow.Sequence,6_5,2023-11-17T19:44:31.518Z,,,,,,,,,,,4564.670999952301,completion,,,,,,,high,low,,,,,,true,,,,,false,404960.10000002384,404959.7999999523,400378.366,400543.6999999285,400395.129,404811.778,1,40,,
trial,html.Screen,6_6_0,2023-11-17T19:44:38.141Z,,,,1,0.8987343013179191,-0.8149073454566363,,,true,lh,6771.322000023851,response,-1.0453124399868816,1.2,-1.2,0.8986747280184286,1.2,-1.2,low,high,,ISIC_0472513.JPG,,ISIC_0013967.JPG,26,true,0.4500000000000003,lh,keypress(e),0,false,411583.1999999285,411583.10000002384,404795.477,404960.1999999285,404811.778,411445.232,1,40,7,
sequence,flow.Sequence,6_6,2023-11-17T19:44:38.141Z,,,,,,,,,,,6771.322000023851,completion,,,,,,,low,high,,,,,,true,,,,,false,411583.2999999523,411583.10000002384,404795.477,404960.1999999285,404811.778,411445.232,1,40,,
trial,html.Screen,6_7_0,2023-11-17T19:44:42.829Z,,,,1,1.0915173513546716,1.266840220031473,,,true,ll,4826.16799997614,response,-1.0040510013663018,1.2,-1.2,-0.9707475308236284,1.2,-1.2,low,low,,ISIC_8241457.JPG,,ISIC_0026911.JPG,203,true,0.40000000000000024,ll,keypress(f),0,false,416271.5,416271.39999997616,411428.257,411583.39999997616,411445.232,416128.451,1,40,8,
sequence,flow.Sequence,6_7,2023-11-17T19:44:42.829Z,,,,,,,,,,,4826.16799997614,completion,,,,,,,low,low,,,,,,true,,,,,false,416271.60000002384,416271.39999997616,411428.257,411583.2999999523,411445.232,416128.451,1,40,,
trial,html.Screen,6_8_0,2023-11-17T19:44:46.925Z,,,,1,-1.2362557973341337,1.2548266183352603,,,true,hl,4238.848999952315,response,0.8544507134472948,1.2,-1.2,-0.9244388608707323,1.2,-1.2,high,low,,ISIC_0033886.JPG,,ISIC_3565564.JPG,27,true,0.40000000000000024,hl,keypress(j),0,false,420367.39999997616,420367.2999999523,416111.916,416271.6999999285,416128.451,420228.65,1,40,9,
sequence,flow.Sequence,6_8,2023-11-17T19:44:46.925Z,,,,,,,,,,,4238.848999952315,completion,,,,,,,high,low,,,,,,true,,,,,false,420367.5,420367.2999999523,416111.916,416271.60000002384,416128.451,420228.65,1,40,,
trial,html.Screen,6_9_0,2023-11-17T19:44:53.661Z,,,,1,1.2014901828022857,1.1484096197304636,,,true,ll,6874.749999976135,response,-1.085906502329253,1.2,-1.2,-0.8769314895018409,1.2,-1.2,low,low,,ISIC_0067808.JPG,,ISIC_2693412.JPG,265,true,0.4500000000000003,ll,keypress(f),0,false,427103.5,427103.39999997616,420211.912,420367.60000002384,420228.65,426961.764,1,40,10,
sequence,flow.Sequence,6_9,2023-11-17T19:44:53.661Z,,,,,,,,,,,6874.749999976135,completion,,,,,,,low,low,,,,,,true,,,,,false,427103.60000002384,427103.39999997616,420211.912,420367.60000002384,420228.65,426961.764,1,40,,
trial,html.Screen,6_10_0,2023-11-17T19:45:03.453Z,,,,1,0.9662688541319592,-0.929746784178986,,,true,lh,9933.035999952292,response,-0.8110121381849364,1.2,-1.2,0.7563142141851558,1.2,-1.2,low,high,,ISIC_0011077.JPG,,ISIC_0033605.JPG,26,true,0.4500000000000003,lh,keypress(e),0,false,436894.89999997616,436894.7999999523,426945.153,427103.6999999285,426961.764,436745.065,1,40,11,
sequence,flow.Sequence,6_10,2023-11-17T19:45:03.453Z,,,,,,,,,,,9933.035999952292,completion,,,,,,,low,high,,,,,,true,,,,,false,436895,436894.7999999523,426945.153,427103.6999999285,426961.764,436745.065,1,40,,
trial,html.Screen,6_11_0,2023-11-17T19:45:07.421Z,,,,1,1.2646773654288392,-0.952963803634235,,,true,lh,4118.234999952314,response,-0.8719231363109603,1.2,-1.2,0.7704280220140033,1.2,-1.2,low,high,,ISIC_1996356.JPG,,ISIC_0029453.JPG,26,true,0.4500000000000003,lh,keypress(e),0,false,440863.39999997616,440863.2999999523,436728.268,436895,436745.065,440728.92,1,40,12,
sequence,flow.Sequence,6_11,2023-11-17T19:45:07.421Z,,,,,,,,,,,4118.234999952314,completion,,,,,,,low,high,,,,,,true,,,,,false,440863.5,440863.2999999523,436728.268,436895,436745.065,440728.92,1,40,,
trial,html.Screen,6_12_0,2023-11-17T19:45:12.125Z,,,,1,1.186629690487006,1.3269945600040771,,,false,ll,4838.479999976174,response,-1.2600330864275875,1.2,-1.2,-1.0958628838888655,1.2,-1.2,low,low,,ISIC_0015390.JPG,,ISIC_0026996.JPG,203,true,0.40000000000000024,lh,keypress(e),0,false,445567.60000002384,445567.39999997616,440695.15,440863.60000002384,440728.92,445428.409,1,40,13,
sequence,flow.Sequence,6_12,2023-11-17T19:45:12.126Z,,,,,,,,,,,4838.479999976174,completion,,,,,,,low,low,,,,,,true,,,,,false,445567.6999999285,445567.39999997616,440695.15,440863.60000002384,440728.92,445428.409,1,40,,
trial,html.Screen,6_13_0,2023-11-17T19:45:20.638Z,,,,1,-0.7883321712536753,1.0011430756825364,,,true,hl,8651.191000023857,response,0.8443403196524287,1.2,-1.2,-0.8858525429102605,1.2,-1.2,high,low,,ISIC_9828853.JPG,,ISIC_8777813.JPG,27,true,0.40000000000000024,hl,keypress(j),0,false,454079.7999999523,454079.60000002384,445412.066,445567.6999999285,445428.409,453928.395,1,40,14,
sequence,flow.Sequence,6_13,2023-11-17T19:45:20.638Z,,,,,,,,,,,8651.191000023857,completion,,,,,,,high,low,,,,,,true,,,,,false,454079.89999997616,454079.60000002384,445412.066,445567.6999999285,445428.409,453928.395,1,40,,
trial,html.Screen,6_14_0,2023-11-17T19:45:26.445Z,,,,1,0.9244148283103414,-0.9712966348713286,,,true,lh,5958.904999952298,response,-1.0887164761389951,1.2,-1.2,1.5357518752548716,1.2,-1.2,low,high,,ISIC_7927525.JPG,,ISIC_0028127.JPG,26,true,0.4500000000000003,lh,keypress(e),0,false,459887.39999997616,459887.2999999523,453911.695,454079.89999997616,453928.395,459745.097,1,40,15,
sequence,flow.Sequence,6_14,2023-11-17T19:45:26.445Z,,,,,,,,,,,5958.904999952298,completion,,,,,,,low,high,,,,,,true,,,,,false,459887.5,459887.2999999523,453911.695,454079.89999997616,453928.395,459745.097,1,40,,
trial,html.Screen,6_15_0,2023-11-17T19:45:41.565Z,,,,1,1.1936751736668425,1.2584308630745344,,,true,ll,15262.102999928466,response,-1.008831959223626,1.2,-1.2,-0.9823409524664072,1.2,-1.2,low,low,,ISIC_0061265.JPG,,ISIC_1579745.JPG,203,true,0.40000000000000024,ll,keypress(f),0,false,475007.2999999523,475007.1999999285,459728.231,459887.5,459745.097,474861.728,1,40,16,
sequence,flow.Sequence,6_15,2023-11-17T19:45:41.565Z,,,,,,,,,,,15262.102999928466,completion,,,,,,,low,low,,,,,,true,,,,,false,475007.39999997616,475007.1999999285,459728.231,459887.5,459745.097,474861.728,1,40,,
trial,html.Screen,6_16_0,2023-11-17T19:45:50.301Z,,,,1,-1.151139267005652,-1.0838749490501327,,,true,hh,8881.671999976155,response,1.082709423673037,1.2,-1.2,1.1184338818466155,1.2,-1.2,high,high,,ISIC_0002566.JPG,,ISIC_0058666.JPG,30,true,0.13,hh,keypress(i),0,false,483743.5,483743.39999997616,474844.765,475007.60000002384,474861.728,483595.068,1,40,17,
sequence,flow.Sequence,6_16,2023-11-17T19:45:50.302Z,,,,,,,,,,,8881.671999976155,completion,,,,,,,high,high,,,,,,true,,,,,false,483743.6999999285,483743.39999997616,474844.765,475007.60000002384,474861.728,483595.068,1,40,,
trial,html.Screen,6_17_0,2023-11-17T19:45:58.461Z,,,,1,-1.077278111180185,-1.1530533996184025,,,true,hh,8308.33199997613,response,1.1017564906891342,1.2,-1.2,1.293633394635193,1.2,-1.2,high,high,,ISIC_9525136.JPG,,ISIC_0029026.JPG,40,true,0.14,hh,keypress(i),0,false,491903.60000002384,491903.39999997616,483578.128,483743.6999999285,483595.068,491761.659,1,40,18,
sequence,flow.Sequence,6_17,2023-11-17T19:45:58.462Z,,,,,,,,,,,8308.33199997613,completion,,,,,,,high,high,,,,,,true,,,,,false,491903.60000002384,491903.39999997616,483578.128,483743.6999999285,483595.068,491761.659,1,40,,
trial,html.Screen,6_18_0,2023-11-17T19:46:10.222Z,,,,1,-1.2946277435220357,-1.255157480204324,,,true,hh,11901.640999952331,response,1.2118207001489876,1.2,-1.2,1.3164676315545727,1.2,-1.2,high,high,,ISIC_1870309.JPG,,ISIC_0066476.JPG,40,true,0.14,hh,keypress(i),0,false,503663.5,503663.2999999523,491744.99,491903.6999999285,491761.659,503529.218,1,40,19,
sequence,flow.Sequence,6_18,2023-11-17T19:46:10.222Z,,,,,,,,,,,11901.640999952331,completion,,,,,,,high,high,,,,,,true,,,,,false,503663.5,503663.2999999523,491744.99,491903.60000002384,491761.659,503529.218,1,40,,
trial,html.Screen,6_19_0,2023-11-17T19:46:15.949Z,,,,1,1.082709423673037,1.1184338818466155,,,true,ll,5861.681999976165,response,-1.109799097093339,1.2,-1.2,-1.091507924157762,1.2,-1.2,low,low,,ISIC_0058666.JPG,,ISIC_0765584.JPG,25,true,0.14,ll,keypress(f),0,false,509391,509390.89999997616,503494.843,503663.60000002384,503529.218,509244.978,1,40,20,
sequence,flow.Sequence,6_19,2023-11-17T19:46:15.949Z,,,,,,,,,,,5861.681999976165,completion,,,,,,,low,low,,,,,,true,,,,,false,509391.10000002384,509390.89999997616,503494.843,503663.60000002384,503529.218,509244.978,1,40,,
trial,html.Screen,6_20_0,2023-11-17T19:46:19.949Z,,,,1,0.8987343013179191,-0.8149073454566363,,,true,lh,4145.8219999523135,response,-0.7883321712536753,1.2,-1.2,1.0011430756825364,1.2,-1.2,low,high,,ISIC_0472513.JPG,,ISIC_9828853.JPG,26,true,0.4500000000000003,lh,keypress(e),0,false,513390.89999997616,513390.7999999523,509228.305,509391.10000002384,509244.978,513245.017,1,40,21,
sequence,flow.Sequence,6_20,2023-11-17T19:46:19.949Z,,,,,,,,,,,4145.8219999523135,completion,,,,,,,low,high,,,,,,true,,,,,false,513391,513390.7999999523,509228.305,509391.10000002384,509244.978,513245.017,1,40,,
trial,html.Screen,6_21_0,2023-11-17T19:46:25.630Z,,,,1,-0.7883321712536753,1.0011430756825364,,,true,hl,5826.282999952324,response,0.9633172970727744,1.2,-1.2,-0.8472659344792351,1.2,-1.2,high,low,,ISIC_9828853.JPG,,ISIC_0067172.JPG,27,true,0.40000000000000024,hl,keypress(j),0,false,519071.39999997616,519071.2999999523,513228.351,513391.10000002384,513245.017,518928.319,1,40,22,
sequence,flow.Sequence,6_21,2023-11-17T19:46:25.630Z,,,,,,,,,,,5826.282999952324,completion,,,,,,,high,low,,,,,,true,,,,,false,519071.6999999285,519071.2999999523,513228.351,513391.10000002384,513245.017,518928.319,1,40,,
trial,html.Screen,6_22_0,2023-11-17T19:46:34.797Z,,,,1,-1.0887164761389951,1.5357518752548716,,,true,hl,9310.781000023824,response,0.8987343013179191,1.2,-1.2,-0.8149073454566363,1.2,-1.2,high,low,,ISIC_0028127.JPG,,ISIC_0472513.JPG,40,true,0.4500000000000003,hl,keypress(j),0,false,528239.1999999285,528239.1000000238,518911.695,519071.6999999285,518928.319,528094.995,1,40,23,
sequence,flow.Sequence,6_22,2023-11-17T19:46:34.797Z,,,,,,,,,,,9310.781000023824,completion,,,,,,,high,low,,,,,,true,,,,,false,528239.2999999523,528239.1000000238,518911.695,519071.6999999285,518928.319,528094.995,1,40,,
trial,html.Screen,6_23_0,2023-11-17T19:46:47.421Z,,,,1,0.8047295996345292,-1.551750455622795,,,true,lh,12768.005000000005,response,-1.2578167348825195,1.2,-1.2,0.8371819698254004,1.2,-1.2,low,high,,ISIC_7717907.JPG,,ISIC_9613570.JPG,26,true,0.4500000000000003,lh,keypress(e),0,false,540863.1000000238,540863,528078.262,528239.2999999523,528094.995,540711.608,1,40,24,
sequence,flow.Sequence,6_23,2023-11-17T19:46:47.421Z,,,,,,,,,,,12768.005000000005,completion,,,,,,,low,high,,,,,,true,,,,,false,540863.1999999285,540863,528078.262,528239.2999999523,528094.995,540711.608,1,40,,
trial,html.Screen,6_24_0,2023-11-17T19:46:53.629Z,,,,1,1.2749714218614645,1.1578619398362149,,,true,ll,6359.591999928467,response,-0.8674472391512381,1.2,-1.2,-1.3423814609370837,1.2,-1.2,low,low,,ISIC_0024999.JPG,,ISIC_0014431.JPG,203,true,0.40000000000000024,ll,keypress(f),0,false,547071.2999999523,547071.1999999285,540694.704,540863.1999999285,540711.608,546928.463,1,40,25,
sequence,flow.Sequence,6_24,2023-11-17T19:46:53.630Z,,,,,,,,,,,6359.591999928467,completion,,,,,,,low,low,,,,,,true,,,,,false,547071.5,547071.1999999285,540694.704,540863.1999999285,540711.608,546928.463,1,40,,
trial,html.Screen,6_25_0,2023-11-17T19:47:05.934Z,,,,1,-1.1684835186766898,-1.2921331918483707,,,true,hh,12446.93699997617,response,1.0773466327271526,1.2,-1.2,1.1601445610079184,1.2,-1.2,high,high,,ISIC_5920470.JPG,,ISIC_0055169.JPG,30,true,0.13,hh,keypress(i),0,false,559375.5,559375.3999999762,546911.645,547071.5,546928.463,559228.293,1,40,26,
sequence,flow.Sequence,6_25,2023-11-17T19:47:05.934Z,,,,,,,,,,,12446.93699997617,completion,,,,,,,high,high,,,,,,true,,,,,false,559375.6000000238,559375.3999999762,546911.645,547071.5,546928.463,559228.293,1,40,,
trial,html.Screen,6_26_0,2023-11-17T19:47:13.149Z,,,,1,1.2033647433750492,1.0718012192341555,,,true,ll,7362.606999976211,response,-1.2246024683501224,1.2,-1.2,-1.2904526351590244,1.2,-1.2,low,low,,ISIC_0061606.JPG,,ISIC_4730066.JPG,25,true,0.14,ll,keypress(f),0,false,566591,566590.8999999762,559211.453,559375.6000000238,559228.293,566444.933,1,40,27,
sequence,flow.Sequence,6_26,2023-11-17T19:47:13.149Z,,,,,,,,,,,7362.606999976211,completion,,,,,,,low,low,,,,,,true,,,,,false,566591.1999999285,566590.8999999762,559211.453,559375.6000000238,559228.293,566444.933,1,40,,
trial,html.Screen,6_27_0,2023-11-17T19:47:29.142Z,,,,1,1.045301444872812,-1.0872560254441277,,,,,16016.678000000073,timeout,-0.989300717252516,1.2,-1.2,0.7908280206937478,1.2,-1.2,low,high,,ISIC_4507700.JPG,,ISIC_6416533.JPG,26,true,0.4500000000000003,,,0,false,582583.6000000238,582583.5,566428.275,566591.1999999285,566444.933,582461.611,1,40,28,
sequence,flow.Sequence,6_27,2023-11-17T19:47:29.142Z,,,,,,,,,,,16138.56700000004,completion,,,,,,,low,high,,,,,,true,,,,,false,582583.6999999285,582583.5,566428.275,566591.1999999285,566444.933,582461.611,1,40,,
trial,html.Screen,6_28_0,2023-11-17T19:47:33.790Z,,,,1,0.8500530224490773,-1.0893360711742854,,,true,lh,4769.688999952283,response,-1.2054195059663604,1.2,-1.2,0.7760611240296147,1.2,-1.2,low,high,,ISIC_2998367.JPG,,ISIC_8712559.JPG,26,true,0.4500000000000003,lh,keypress(e),0,false,587231.3999999762,587231.2999999523,582444.925,582583.7999999523,582461.611,587095.078,1,40,29,
sequence,flow.Sequence,6_28,2023-11-17T19:47:33.790Z,,,,,,,,,,,4769.688999952283,completion,,,,,,,low,high,,,,,,true,,,,,false,587231.5,587231.2999999523,582444.925,582583.6999999285,582461.611,587095.078,1,40,,
trial,html.Screen,6_29_0,2023-11-17T19:47:43.293Z,,,,1,-0.989300717252516,0.7908280206937478,,,true,hl,9640.121999928495,response,1.2594580992890123,1.2,-1.2,-0.8833175387485132,1.2,-1.2,high,low,,ISIC_6416533.JPG,,ISIC_0011933.JPG,27,true,0.40000000000000024,hl,keypress(j),0,false,596735.3999999762,596735.1999999285,587078.326,587231.5,587095.078,596594.974,1,40,30,
sequence,flow.Sequence,6_29,2023-11-17T19:47:43.294Z,,,,,,,,,,,9640.121999928495,completion,,,,,,,high,low,,,,,,true,,,,,false,596735.5,596735.1999999285,587078.326,587231.5,587095.078,596594.974,1,40,,
trial,html.Screen,6_30_0,2023-11-17T19:47:51.005Z,,,,1,-1.274417010249866,-1.0725495669014795,,,true,hh,7852.126000023796,response,0.9159664042920548,1.2,-1.2,0.96519839238634,1.2,-1.2,high,high,,ISIC_8849004.JPG,,ISIC_0053617.JPG,359,true,0.4500000000000003,hh,keypress(i),0,false,604447.2999999523,604447.1000000238,596578.031,596735.5,596594.974,604328.42,1,40,31,
sequence,flow.Sequence,6_30,2023-11-17T19:47:51.005Z,,,,,,,,,,,7852.126000023796,completion,,,,,,,high,high,,,,,,true,,,,,false,604447.2999999523,604447.1000000238,596578.031,596735.5,596594.974,604328.42,1,40,,
trial,html.Screen,6_31_0,2023-11-17T19:47:58.445Z,,,,1,1.1668613502915044,1.327068780840367,,,true,ll,7558.7799999284325,response,-1.2600330864275875,1.2,-1.2,-1.0958628838888655,1.2,-1.2,low,low,,ISIC_0054459.JPG,,ISIC_0026996.JPG,25,true,0.14,ll,keypress(f),0,false,611887.2999999523,611887.1999999285,604312.141,604447.2999999523,604328.42,611744.877,1,40,32,
sequence,flow.Sequence,6_31,2023-11-17T19:47:58.446Z,,,,,,,,,,,7558.7799999284325,completion,,,,,,,low,low,,,,,,true,,,,,false,611887.3999999762,611887.1999999285,604312.141,604447.2999999523,604328.42,611744.877,1,40,,
trial,html.Screen,6_32_0,2023-11-17T19:48:05.101Z,,,,1,-1.0887164761389951,1.5357518752548716,,,true,hl,6798.02299997618,response,1.045301444872812,1.2,-1.2,-1.0872560254441277,1.2,-1.2,high,low,,ISIC_0028127.JPG,,ISIC_4507700.JPG,27,true,0.40000000000000024,hl,keypress(j),0,false,618543,618542.8999999762,611728.255,611887.3999999762,611744.877,618411.55,1,40,33,
sequence,flow.Sequence,6_32,2023-11-17T19:48:05.101Z,,,,,,,,,,,6798.02299997618,completion,,,,,,,high,low,,,,,,true,,,,,false,618543.1000000238,618542.8999999762,611728.255,611887.3999999762,611744.877,618411.55,1,40,,
trial,html.Screen,6_33_0,2023-11-17T19:48:11.069Z,,,,1,-1.1843968275545205,-1.2828739728067764,,,true,hh,6099.449999999953,response,0.9430679164922772,1.2,-1.2,1.124157865127501,1.2,-1.2,high,high,,ISIC_0002901.JPG,,ISIC_0062111.JPG,359,true,0.4500000000000003,hh,keypress(i),0,false,624511.1000000238,624511,618378.254,618543.1000000238,618411.55,624361.573,1,40,34,
sequence,flow.Sequence,6_33,2023-11-17T19:48:11.069Z,,,,,,,,,,,6099.449999999953,completion,,,,,,,high,high,,,,,,true,,,,,false,624511.1999999285,624511,618378.254,618543.1000000238,618411.55,624361.573,1,40,,
trial,html.Screen,6_34_0,2023-11-17T19:48:15.598Z,,,,1,-1.2253191093367526,-1.241905252673026,,,true,hh,4677.826999976183,response,1.3307612087763094,1.2,-1.2,1.075775252699004,1.2,-1.2,high,high,,ISIC_1195689.JPG,,ISIC_0063601.JPG,40,true,0.14,hh,keypress(i),0,false,629039.5,629039.3999999762,624344.924,624511.2999999523,624361.573,628895.088,1,40,35,
sequence,flow.Sequence,6_34,2023-11-17T19:48:15.598Z,,,,,,,,,,,4677.826999976183,completion,,,,,,,high,high,,,,,,true,,,,,false,629039.6000000238,629039.3999999762,624344.924,624511.1999999285,624361.573,628895.088,1,40,,
trial,html.Screen,6_35_0,2023-11-17T19:48:19.277Z,,,,1,-1.151139267005652,-1.0838749490501327,,,true,hh,3823.912000000011,response,1.14454137020797,1.2,-1.2,1.1082302786512033,1.2,-1.2,high,high,,ISIC_0002566.JPG,,ISIC_0065128.JPG,40,true,0.14,hh,keypress(i),0,false,632719.1999999285,632719,628878.087,629039.6000000238,628895.088,632578.187,1,40,36,
sequence,flow.Sequence,6_35,2023-11-17T19:48:19.277Z,,,,,,,,,,,3823.912000000011,completion,,,,,,,high,high,,,,,,true,,,,,false,632719.1999999285,632719,628878.087,629039.6000000238,628895.088,632578.187,1,40,,
trial,html.Screen,6_36_0,2023-11-17T19:48:24.158Z,,,,1,0.9244148283103414,-0.9712966348713286,,,true,lh,5021.112999952282,response,-0.7882758084023446,1.2,-1.2,0.8296405881378283,1.2,-1.2,low,high,,ISIC_7927525.JPG,,ISIC_0065882.JPG,26,true,0.4500000000000003,lh,keypress(e),0,false,637599.5,637599.2999999523,632561.522,632719.2999999523,632578.187,637461.609,1,40,37,
sequence,flow.Sequence,6_36,2023-11-17T19:48:24.158Z,,,,,,,,,,,5021.112999952282,completion,,,,,,,low,high,,,,,,true,,,,,false,637599.5,637599.2999999523,632561.522,632719.2999999523,632578.187,637461.609,1,40,,
trial,html.Screen,6_37_0,2023-11-17T19:48:31.134Z,,,,1,-1.199471562817528,0.8631260534979347,,,false,hl,7113.690999952261,response,0.8544507134472948,1.2,-1.2,-0.9244388608707323,1.2,-1.2,high,low,,ISIC_0030754.JPG,,ISIC_3565564.JPG,27,true,0.40000000000000024,hh,keypress(i),0,false,644575.3999999762,644575.2999999523,637444.978,637599.6999999285,637461.609,644428.196,1,40,38,
sequence,flow.Sequence,6_37,2023-11-17T19:48:31.134Z,,,,,,,,,,,7113.690999952261,completion,,,,,,,high,low,,,,,,true,,,,,false,644575.5,644575.2999999523,637444.978,637599.6000000238,637461.609,644428.196,1,40,,
trial,html.Screen,6_38_0,2023-11-17T19:48:34.141Z,,,,1,-1.3379750533585932,-1.1671342614509763,,,true,hh,3154.503999928478,response,1.0445201832895987,1.2,-1.2,1.3787348439043303,1.2,-1.2,high,high,,ISIC_0063556.JPG,,ISIC_0066354.JPG,359,true,0.4500000000000003,hh,keypress(i),0,false,647582.7999999523,647582.6999999285,644411.458,644575.5,644428.196,647444.931,1,40,39,
sequence,flow.Sequence,6_38,2023-11-17T19:48:34.141Z,,,,,,,,,,,3154.503999928478,completion,,,,,,,high,high,,,,,,true,,,,,false,647582.8999999762,647582.6999999285,644411.458,644575.5,644428.196,647444.931,1,40,,
trial,html.Screen,6_39_0,2023-11-17T19:48:39.469Z,,,,1,1.1195710731537871,1.1961732733209125,,,true,ll,5465.968999976176,response,-1.2246024683501224,1.2,-1.2,-1.2904526351590244,1.2,-1.2,low,low,,ISIC_0067170.JPG,,ISIC_4730066.JPG,25,true,0.14,ll,keypress(f),0,false,652911.1000000238,652910.8999999762,647428.395,647583,647444.931,652761.499,1,40,40,
sequence,flow.Sequence,6_39,2023-11-17T19:48:39.469Z,,,,,,,,,,,5465.968999976176,completion,,,,,,,low,low,,,,,,true,,,,,false,652911.1000000238,652910.8999999762,647428.395,647583,647444.931,652761.499,1,40,,
practice_loop,flow.Loop,6,2023-11-17T19:48:39.469Z,,,,,,,,,,,298215.68699997617,completion,,,,,,,,,,,,,,true,,,,,false,652911.1999999285,652910.8999999762,354661.867,354827.89999997616,354695.213,652761.499,1,40,,
stair_instructions,html.Screen,7,2023-11-17T19:49:09.317Z,,,,,,,,,,,29996.001000000047,response,,,,,,,,,,,,,,,,continue,click button,,,682758.2999999523,682757.5,652744.875,652911.1999999285,652761.499,682628.184,,,,
trial,html.Screen,8_0_0,2023-11-17T19:49:18.177Z,,,,2,-0.0200295718112167,-0.0155559071275806,,0.04,true,lh,8990.015999928466,response,-0.8719231363109603,1.2,-1.2,0.7704280220140033,1.2,-1.2,low,high,,ISIC_0061343.JPG,,ISIC_0029453.JPG,26,false,0.4500000000000003,lh,keypress(e),0,true,691618.3999999762,691618.1999999285,682611.47,682758.3999999762,682628.184,691494.996,1,40,1,
sequence,flow.Sequence,8_0,2023-11-17T19:49:18.177Z,,,,,,,,,,,8990.015999928466,completion,,,,,,,low,high,,,,,,false,,,,,true,691618.3999999762,691618.1999999285,682611.47,682758.3999999762,682628.184,691494.996,1,40,,
trial,html.Screen,8_1_0,2023-11-17T19:49:25.373Z,,,,2,0.0241900387072296,-0.0339955304424736,,0.04,false,ll,7319.903999976115,response,-1.0325421457475312,1.15,-1.15,-1.0219157566370058,1.15,-1.15,low,low,,ISIC_0010789.JPG,,ISIC_5336548.JPG,27,false,0.14,hl,keypress(j),0,true,698814.8999999762,698814.8999999762,691478.281,691618.3999999762,691494.996,698678.122,1,40,2,
sequence,flow.Sequence,8_1,2023-11-17T19:49:25.373Z,,,,,,,,,,,7319.903999976115,completion,,,,,,,low,low,,,,,,false,,,,,true,698815,698814.8999999762,691478.281,691618.3999999762,691494.996,698678.122,1,40,,
trial,html.Screen,8_2_0,2023-11-17T19:49:31.184Z,,,,2,0.0065172941585523,-0.0118857043117315,,0.04,true,lh,5947.0779999285005,response,-0.989300717252516,1.15,-1.15,0.7908280206937478,1.15,-1.15,low,high,,ISIC_6119202.JPG,,ISIC_6416533.JPG,26,false,0.40000000000000024,lh,keypress(e),0,true,704625.2999999523,704625.1999999285,698661.361,698815,698678.122,704478.145,1,40,3,
sequence,flow.Sequence,8_2,2023-11-17T19:49:31.184Z,,,,,,,,,,,5947.0779999285005,completion,,,,,,,low,high,,,,,,false,,,,,true,704625.3999999762,704625.1999999285,698661.361,698815,698678.122,704478.145,1,40,,
trial,html.Screen,8_3_0,2023-11-17T19:49:40.974Z,,,,2,0.0388181790775959,-0.0049623405709465,,0.04,false,hh,9937.154999952298,response,1.219634566983089,1.15,-1.15,1.0648460966097275,1.0999999999999999,-1.15,high,high,,ISIC_0061880.JPG,,ISIC_0030552.JPG,27,false,0.1,hl,keypress(j),0,true,714415.3999999762,714415.2999999523,704461.516,704625.3999999762,704478.145,714278.119,1,40,4,
sequence,flow.Sequence,8_3,2023-11-17T19:49:40.974Z,,,,,,,,,,,9937.154999952298,completion,,,,,,,high,high,,,,,,false,,,,,true,714415.5,714415.2999999523,704461.516,704625.3999999762,704478.145,714278.119,1,40,,
trial,html.Screen,8_4_0,2023-11-17T19:49:44.669Z,,,,2,-0.0258224118104549,0.0029364553353019,,0.04,true,lh,3832.7809999762103,response,-0.7883321712536753,1.15,-1.15,1.0011430756825364,1.15,-1.15,low,high,,ISIC_8325226.JPG,,ISIC_9828853.JPG,26,false,0.40000000000000024,lh,keypress(e),0,true,718111.1000000238,718110.8999999762,714261.54,714415.5,714278.119,717961.443,1,40,5,
sequence,flow.Sequence,8_4,2023-11-17T19:49:44.669Z,,,,,,,,,,,3832.7809999762103,completion,,,,,,,low,high,,,,,,false,,,,,true,718111.1999999285,718110.8999999762,714261.54,714415.5,714278.119,717961.443,1,40,,
trial,html.Screen,8_5_0,2023-11-17T19:49:54.942Z,,,,2,0.0241900387072296,-0.0339955304424736,,0.04,false,ll,10421.856999952346,response,-0.9786113496628154,1.15,-1.0999999999999999,-1.040122402473425,1.15,-1.15,low,low,,ISIC_0010789.JPG,,ISIC_8195528.JPG,27,false,0.14,hl,keypress(j),0,true,728383.3999999762,728383.2999999523,717945.1,718111.1999999285,717961.443,728244.877,1,40,6,
sequence,flow.Sequence,8_5,2023-11-17T19:49:54.942Z,,,,,,,,,,,10421.856999952346,completion,,,,,,,low,low,,,,,,false,,,,,true,728383.5,728383.2999999523,717945.1,718111.1999999285,717961.443,728244.877,1,40,,
trial,html.Screen,8_6_0,2023-11-17T19:50:03.102Z,,,,2,,0.0102871556606504,,0.04,false,hh,8298.322999928496,response,1.071312313440387,1.15,-1.15,1.0935391476164529,1.15,-1.0999999999999999,high,high,,ISIC_1805163.JPG,,ISIC_0063680.JPG,27,false,0.1,hl,keypress(j),0,true,736543.2999999523,736543.1999999285,728227.932,728383.6000000238,728244.877,736394.745,1,40,7,
sequence,flow.Sequence,8_6,2023-11-17T19:50:03.102Z,,,,,,,,,,,8298.322999928496,completion,,,,,,,high,high,,,,,,false,,,,,true,736543.3999999762,736543.1999999285,728227.932,728383.6000000238,728244.877,736394.745,1,40,,
trial,html.Screen,8_7_0,2023-11-17T19:50:08.430Z,,,,2,-0.0220026381002083,0.0170756452911772,,0.04,true,hl,5476.454999928479,response,0.9662688541319592,0.9862276945614616,-1.15,-0.929746784178986,1.15,-1.0999999999999999,high,low,,ISIC_5347806.JPG,,ISIC_0011077.JPG,26,false,0.2600000000000001,hl,keypress(j),0,true,741871.3999999762,741871.1999999285,736378.016,736543.5,736394.745,741728.199,1,40,8,
sequence,flow.Sequence,8_7,2023-11-17T19:50:08.430Z,,,,,,,,,,,5476.454999928479,completion,,,,,,,high,low,,,,,,false,,,,,true,741871.5,741871.1999999285,736378.016,736543.5,736394.745,741728.199,1,40,,
trial,html.Screen,8_8_0,2023-11-17T19:50:23.502Z,,,,2,0.0388334549081915,-0.0303399972963369,,0.04,false,ll,15215.100999952294,response,-1.077278111180185,0.9862276945614616,-1.15,-1.1530533996184025,1.15,-1.0999999999999999,low,low,,ISIC_4961708.JPG,,ISIC_9525136.JPG,27,false,0.13,hl,keypress(j),0,true,756943.5,756943.2999999523,741711.438,741871.5,741728.199,756794.768,1,40,9,
sequence,flow.Sequence,8_8,2023-11-17T19:50:23.502Z,,,,,,,,,,,15215.100999952294,completion,,,,,,,low,low,,,,,,false,,,,,true,756943.6000000238,756943.2999999523,741711.438,741871.5,741728.199,756794.768,1,40,,
trial,html.Screen,8_9_0,2023-11-17T19:50:27.038Z,,,,2,-0.0200295718112167,-0.0155559071275806,,0.04,true,hh,3684.332000023802,response,1.082709423673037,0.9862276945614616,-1.15,1.1184338818466155,1.15,-0.9914000918986943,high,high,,ISIC_0061343.JPG,,ISIC_0058666.JPG,40,false,0.1,hh,keypress(i),0,true,760479.1999999285,760479.1000000238,756777.988,756943.6999999285,756794.768,760328.044,1,40,10,
sequence,flow.Sequence,8_9,2023-11-17T19:50:27.038Z,,,,,,,,,,,3684.332000023802,completion,,,,,,,high,high,,,,,,false,,,,,true,760479.3999999762,760479.1000000238,756777.988,756943.6999999285,756794.768,760328.044,1,40,,
trial,html.Screen,8_10_0,2023-11-17T19:50:39.310Z,,,,2,-0.0257631352671967,-0.0202837002774028,,0.04,true,hl,12423.056000023847,response,0.8500530224490773,1.0505716527598261,-1.15,-1.0893360711742854,1.15,-0.9914000918986943,high,low,,ISIC_0032797.JPG,,ISIC_2998367.JPG,26,false,0.22000000000000008,hl,keypress(j),0,true,772751.1999999285,772751.1000000238,760311.553,760479.3999999762,760328.044,772611.531,1,40,11,
sequence,flow.Sequence,8_10,2023-11-17T19:50:39.310Z,,,,,,,,,,,12423.056000023847,completion,,,,,,,high,low,,,,,,false,,,,,true,772751.3999999762,772751.1000000238,760311.553,760479.3999999762,760328.044,772611.531,1,40,,
trial,html.Screen,8_11_0,2023-11-17T19:50:46.877Z,,,,2,0.0374659946425444,0.0086043094957617,,0.04,false,hl,7707.268999952357,response,1.004142980655507,1.0505716527598261,-1.15,-0.7749773174967559,1.15,-0.9914000918986943,high,low,,ISIC_0033051.JPG,,ISIC_3936223.JPG,26,false,0.22000000000000008,hh,keypress(i),0,true,780319,780318.7999999523,772594.444,772751.3999999762,772611.531,780178.006,1,40,12,
sequence,flow.Sequence,8_11,2023-11-17T19:50:46.877Z,,,,,,,,,,,7707.268999952357,completion,,,,,,,high,low,,,,,,false,,,,,true,780319,780318.7999999523,772594.444,772751.3999999762,772611.531,780178.006,1,40,,
trial,html.Screen,8_12_0,2023-11-17T19:50:52.510Z,,,,2,-0.0367706518941078,0.0161069838272154,,0.04,true,hl,5772.993999999948,response,0.9617893983965208,1.000571652759826,-1.15,-0.9453006131304652,1.15,-1.0414000918986943,high,low,,ISIC_0033419.JPG,,ISIC_4229473.JPG,25,false,0.2300000000000001,hl,keypress(j),0,true,785951.1999999285,785951,780161.173,780319.1000000238,780178.006,785811.374,1,40,13,
sequence,flow.Sequence,8_12,2023-11-17T19:50:52.510Z,,,,,,,,,,,5772.993999999948,completion,,,,,,,high,low,,,,,,false,,,,,true,785951.2999999523,785951,780161.173,780319,780178.006,785811.374,1,40,,
trial,html.Screen,8_13_0,2023-11-17T19:50:56.830Z,,,,2,-0.0367744112927588,-0.0324865661712824,,0.04,false,lh,4459.6260000000475,response,-0.9653573371180936,1.000571652759826,-1.15,0.854766800381037,1.15,-1.0414000918986943,low,high,,ISIC_4523565.JPG,,ISIC_9640145.JPG,26,false,0.40000000000000024,hh,keypress(i),0,true,790271.1000000238,790271,785794.489,785951.2999999523,785811.374,790128.197,1,40,14,
sequence,flow.Sequence,8_13,2023-11-17T19:50:56.830Z,,,,,,,,,,,4459.6260000000475,completion,,,,,,,low,high,,,,,,false,,,,,true,790271.1999999285,790271,785794.489,785951.2999999523,785811.374,790128.197,1,40,,
trial,html.Screen,8_14_0,2023-11-17T19:51:03.709Z,,,,2,-0.0118382036798625,-0.0300588245877227,,0.04,false,hl,7022.802999999956,response,0.8307508446051526,1.000571652759826,-1.15,-1.1707575338936729,1.0999999999999999,-1.0414000918986943,high,low,,ISIC_4748605.JPG,,ISIC_0028606.JPG,25,false,0.2300000000000001,lh,keypress(e),0,true,797151.1000000238,797151,790111.217,790271.2999999523,790128.197,797011.333,1,40,15,
sequence,flow.Sequence,8_14,2023-11-17T19:51:03.710Z,,,,,,,,,,,7022.802999999956,completion,,,,,,,high,low,,,,,,false,,,,,true,797151.1999999285,797151,790111.217,790271.1999999285,790128.197,797011.333,1,40,,
trial,html.Screen,8_15_0,2023-11-17T19:51:16.014Z,,,,2,0.0388334549081915,-0.0303399972963369,,0.04,false,ll,12443.966999952332,response,-1.2253309214495711,1.0505716527598261,-1.15,-1.00408952972084,1.0999999999999999,-1.0914000918986944,low,low,,ISIC_4961708.JPG,,ISIC_5850699.JPG,27,false,0.13,hl,keypress(j),0,true,809455.3999999762,809455.2999999523,796994.706,797151.2999999523,797011.333,809311.335,1,40,16,
sequence,flow.Sequence,8_15,2023-11-17T19:51:16.014Z,,,,,,,,,,,12443.966999952332,completion,,,,,,,low,low,,,,,,false,,,,,true,809455.3999999762,809455.2999999523,796994.706,797151.2999999523,797011.333,809311.335,1,40,,
trial,html.Screen,8_16_0,2023-11-17T19:51:22.286Z,,,,2,0.0198696495649504,-0.0387952353063878,,0.04,true,ll,6415.665000000037,response,-1.0777929856705222,1.0505716527598261,-1.15,-1.0139833925057518,1.0999999999999999,-1.0914000918986944,low,low,,ISIC_6735970.JPG,,ISIC_6171084.JPG,27,false,0.13,ll,keypress(f),0,true,815727.1000000238,815727,809294.306,809455.5,809311.335,815577.989,1,40,17,
sequence,flow.Sequence,8_16,2023-11-17T19:51:22.286Z,,,,,,,,,,,6415.665000000037,completion,,,,,,,low,low,,,,,,false,,,,,true,815727.1999999285,815727,809294.306,809455.5,809311.335,815577.989,1,40,,
trial,html.Screen,8_17_0,2023-11-17T19:51:25.005Z,,,,2,0.039520186367207,0.0377961575607372,,0.04,true,hh,2868.910999976215,response,1.082709423673037,1.0505716527598261,-1.15,1.1184338818466155,1.0999999999999999,-0.9958881890881368,high,high,,ISIC_6356149.JPG,,ISIC_0058666.JPG,42,false,0.1,hh,keypress(i),0,true,818447,818446.8999999762,815561.284,815727.2999999523,815577.989,818311.851,1,40,18,
sequence,flow.Sequence,8_17,2023-11-17T19:51:25.006Z,,,,,,,,,,,2868.910999976215,completion,,,,,,,high,high,,,,,,false,,,,,true,818447.1000000238,818446.8999999762,815561.284,815727.2999999523,815577.989,818311.851,1,40,,
trial,html.Screen,8_18_0,2023-11-17T19:51:33.725Z,,,,2,0.0164027439304477,-0.0082910758715273,,0.04,false,lh,8854.749000023818,response,-1.3046390428588206,1.0505716527598261,-1.15,0.7942099232219556,1.0999999999999999,-0.9958881890881368,low,high,,ISIC_7381224.JPG,,ISIC_0013096.JPG,27,false,0.3700000000000002,hh,keypress(i),0,true,827166.6999999285,827166.6000000238,818278.174,818447.1999999285,818311.851,827027.96,1,40,19,
sequence,flow.Sequence,8_18,2023-11-17T19:51:33.725Z,,,,,,,,,,,8854.749000023818,completion,,,,,,,low,high,,,,,,false,,,,,true,827166.6999999285,827166.6000000238,818278.174,818447.1999999285,818311.851,827027.96,1,40,,
trial,html.Screen,8_19_0,2023-11-17T19:51:46.334Z,,,,2,,0.0102871556606504,,0.04,false,ll,12747.040000000037,response,-1.086808687078377,1.0505716527598261,-1.15,-0.8881204850517516,0.9063219025342855,-0.9958881890881368,low,low,,ISIC_1805163.JPG,,ISIC_4014307.JPG,27,false,0.12,hh,keypress(i),0,true,839775.1000000238,839775,827011.169,827166.7999999523,827027.96,839627.942,1,40,20,
sequence,flow.Sequence,8_19,2023-11-17T19:51:46.334Z,,,,,,,,,,,12747.040000000037,completion,,,,,,,low,low,,,,,,false,,,,,true,839775.1999999285,839775,827011.169,827166.7999999523,827027.96,839627.942,1,40,,
trial,html.Screen,8_20_0,2023-11-17T19:51:49.934Z,,,,2,0.0065172941585523,-0.0118857043117315,,0.04,true,lh,3747.1580000238027,response,-0.8830264383952469,1.0505716527598261,-1.15,0.8635562538060516,0.9063219025342855,-1.0458881890881369,low,high,,ISIC_6119202.JPG,,ISIC_0032258.JPG,25,false,0.27000000000000013,lh,keypress(e),0,true,843375.1999999285,843375.1000000238,839611.277,839775.1999999285,839627.942,843227.934,1,40,21,
sequence,flow.Sequence,8_20,2023-11-17T19:51:49.934Z,,,,,,,,,,,3747.1580000238027,completion,,,,,,,low,high,,,,,,false,,,,,true,843375.2999999523,843375.1000000238,839611.277,839775.1999999285,839627.942,843227.934,1,40,,
trial,html.Screen,8_21_0,2023-11-17T19:51:56.077Z,,,,2,-0.0367744112927588,-0.0324865661712824,,0.04,true,hl,6290.865999952308,response,1.168911077628813,1.0505716527598261,-1.15,-1.2181838235193114,0.9063219025342855,-1.0458881890881369,high,low,,ISIC_4523565.JPG,,ISIC_7358691.JPG,26,false,0.2500000000000001,hl,keypress(j),0,true,849518.7999999523,849518.7999999523,843211.246,843375.2999999523,843227.934,849378.2,1,40,22,
sequence,flow.Sequence,8_21,2023-11-17T19:51:56.077Z,,,,,,,,,,,6290.865999952308,completion,,,,,,,high,low,,,,,,false,,,,,true,849518.8999999762,849518.7999999523,843211.246,843375.2999999523,843227.934,849378.2,1,40,,
trial,html.Screen,8_22_0,2023-11-17T19:51:59.086Z,,,,2,-0.0283578106329894,0.0088840758711548,,0.04,true,hh,3148.8000000000466,response,0.9069076630783806,1.000571652759826,-1.15,0.849461654555185,0.9063219025342855,-1.0458881890881369,high,high,,ISIC_0060707.JPG,,ISIC_0054527.JPG,36,false,0.1,hh,keypress(i),0,true,852527.1999999285,852527,849361.276,849519,849378.2,852377.898,1,40,23,
sequence,flow.Sequence,8_22,2023-11-17T19:51:59.086Z,,,,,,,,,,,3148.8000000000466,completion,,,,,,,high,high,,,,,,false,,,,,true,852527.1999999285,852527,849361.276,849518.8999999762,849378.2,852377.898,1,40,,
trial,html.Screen,8_23_0,2023-11-17T19:52:09.965Z,,,,2,0.0164027439304477,-0.0082910758715273,,0.04,false,hl,11028.80199992843,response,0.8067116931297591,1.000571652759826,-1.15,-1.215898074058027,0.8281846588167827,-1.0458881890881369,high,low,,ISIC_7381224.JPG,,ISIC_1457687.JPG,25,false,0.2300000000000001,lh,keypress(e),0,true,863406.7999999523,863406.6999999285,852361.218,852527.1999999285,852377.898,863261.253,1,40,24,
sequence,flow.Sequence,8_23,2023-11-17T19:52:09.965Z,,,,,,,,,,,11028.80199992843,completion,,,,,,,high,low,,,,,,false,,,,,true,863406.7999999523,863406.6999999285,852361.218,852527.1999999285,852377.898,863261.253,1,40,,
trial,html.Screen,8_24_0,2023-11-17T19:52:17.165Z,,,,2,0.0388334549081915,-0.0303399972963369,,0.04,false,ll,7345.246999999974,response,-1.1290536173202614,1.0505716527598261,-1.15,-0.9768663240505168,0.8281846588167827,-1.095888189088137,low,low,,ISIC_4961708.JPG,,ISIC_2196127.JPG,27,false,0.13,lh,keypress(e),0,true,870606.5,870606.5,863244.475,863406.8999999762,863261.253,870461.237,1,40,25,
sequence,flow.Sequence,8_24,2023-11-17T19:52:17.165Z,,,,,,,,,,,7345.246999999974,completion,,,,,,,low,low,,,,,,false,,,,,true,870606.6000000238,870606.5,863244.475,863406.8999999762,863261.253,870461.237,1,40,,
trial,html.Screen,8_25_0,2023-11-17T19:52:22.093Z,,,,2,0.0074667911845194,-0.018500200317654,,0.04,true,hl,5073.562999952352,response,1.2594580992890123,1.0505716527598261,-1.0999999999999999,-0.8833175387485132,0.8281846588167827,-1.145888189088137,high,low,,ISIC_0058723.JPG,,ISIC_0011933.JPG,26,false,0.31000000000000016,hl,keypress(j),0,true,875534.8999999762,875534.7999999523,870444.377,870606.6000000238,870461.237,875394.646,1,40,26,
sequence,flow.Sequence,8_25,2023-11-17T19:52:22.093Z,,,,,,,,,,,5073.562999952352,completion,,,,,,,high,low,,,,,,false,,,,,true,875535,875534.7999999523,870444.377,870606.6000000238,870461.237,875394.646,1,40,,
trial,html.Screen,8_26_0,2023-11-17T19:52:30.318Z,,,,2,0.0164027439304477,-0.0082910758715273,,0.04,true,hl,8364.35400000005,response,0.8867328775712738,1.0505716527598261,-1.0999999999999999,-1.0063426986460375,0.8281846588167827,-1.145888189088137,high,low,,ISIC_7381224.JPG,,ISIC_0055759.JPG,26,false,0.31000000000000016,hl,keypress(j),0,true,883759.1999999285,883759,875377.791,875535,875394.646,883611.246,1,40,27,
sequence,flow.Sequence,8_26,2023-11-17T19:52:30.318Z,,,,,,,,,,,8364.35400000005,completion,,,,,,,high,low,,,,,,false,,,,,true,883759.1999999285,883759,875377.791,875535,875394.646,883611.246,1,40,,
trial,html.Screen,8_27_0,2023-11-17T19:52:41.374Z,,,,2,-0.0367706518941078,0.0161069838272154,,0.04,true,ll,11203.753999999957,response,-1.0757050222000146,1.000571652759826,-1.0999999999999999,-0.9214423600454036,0.8281846588167827,-0.8948301186972754,low,low,,ISIC_0033419.JPG,,ISIC_5152859.JPG,26,false,0.1,ll,keypress(f),0,true,894815.1000000238,894815,883594.51,883759.1999999285,883611.246,894678.048,1,40,28,
sequence,flow.Sequence,8_27,2023-11-17T19:52:41.374Z,,,,,,,,,,,11203.753999999957,completion,,,,,,,low,low,,,,,,false,,,,,true,894815.1000000238,894815,883594.51,883759.1999999285,883611.246,894678.048,1,40,,
trial,html.Screen,8_28_0,2023-11-17T19:52:44.861Z,,,,2,0.0388181790775959,-0.0049623405709465,,0.04,false,ll,3624.8519999762066,response,-1.1072126870290426,1.000571652759826,-1.0999999999999999,-0.9917482735105084,0.8281846588167827,-0.8948301186972754,low,low,,ISIC_0061880.JPG,,ISIC_0071754.JPG,26,false,0.1,lh,keypress(e),0,true,898303,898302.8999999762,894661.134,894815.1999999285,894678.048,898161.477,1,40,29,
sequence,flow.Sequence,8_28,2023-11-17T19:52:44.862Z,,,,,,,,,,,3624.8519999762066,completion,,,,,,,low,low,,,,,,false,,,,,true,898303.1000000238,898302.8999999762,894661.134,894815.1999999285,894678.048,898161.477,1,40,,
trial,html.Screen,8_29_0,2023-11-17T19:52:51.518Z,,,,2,0.001445457736793,0.0165307427449982,,0.04,false,ll,6797.722999928519,response,-0.979674241817633,1.000571652759826,-0.9643275235372231,-0.8567251746816678,0.8281846588167827,-0.9448301186972754,low,low,,ISIC_0027350.JPG,,ISIC_0006757.JPG,29,false,0.1,hl,keypress(j),0,true,904959.2999999523,904959.1999999285,898144.649,898303.1000000238,898161.477,904811.276,1,40,30,
sequence,flow.Sequence,8_29,2023-11-17T19:52:51.518Z,,,,,,,,,,,6797.722999928519,completion,,,,,,,low,low,,,,,,false,,,,,true,904959.5,904959.1999999285,898144.649,898303.1000000238,898161.477,904811.276,1,40,,
trial,html.Screen,8_30_0,2023-11-17T19:52:58.749Z,,,,2,0.039520186367207,0.0377961575607372,,0.04,false,hh,7379.023999952362,response,0.9141489890697224,1.000571652759826,-1.014327523537223,0.8021439579962121,0.8281846588167827,-0.9448301186972754,high,high,,ISIC_6356149.JPG,,ISIC_0025491.JPG,39,false,0.1,hl,keypress(j),0,true,912190.3999999762,912190.2999999523,904794.34,904959.5,904811.276,912044.514,1,40,31,
sequence,flow.Sequence,8_30,2023-11-17T19:52:58.749Z,,,,,,,,,,,7379.023999952362,completion,,,,,,,high,high,,,,,,false,,,,,true,912190.5,912190.2999999523,904794.34,904959.5,904811.276,912044.514,1,40,,
trial,html.Screen,8_31_0,2023-11-17T19:53:03.774Z,,,,2,-0.0220026381002083,0.0170756452911772,,0.04,false,lh,5170.4860000000335,response,-0.930804711032185,1.000571652759826,-1.014327523537223,0.7294067991476295,0.8781846588167828,-0.9448301186972754,low,high,,ISIC_5347806.JPG,,ISIC_5067317.JPG,26,false,0.21000000000000008,hl,keypress(j),0,true,917215.1999999285,917215,912027.883,912190.5,912044.514,917078.054,1,40,32,
sequence,flow.Sequence,8_31,2023-11-17T19:53:03.774Z,,,,,,,,,,,5170.4860000000335,completion,,,,,,,low,high,,,,,,false,,,,,true,917215.1999999285,917215,912027.883,912190.5,912044.514,917078.054,1,40,,
trial,html.Screen,8_32_0,2023-11-17T19:53:07.437Z,,,,2,0.0388181790775959,-0.0049623405709465,,0.04,true,hl,3800.4459999999963,response,0.9138670886161264,1.000571652759826,-1.0643275235372232,-0.8414121478342018,0.9281846588167828,-0.9448301186972754,high,low,,ISIC_0061880.JPG,,ISIC_6709052.JPG,27,false,0.22000000000000008,hl,keypress(j),0,true,920878.6999999285,920878.5,917061.315,917215.2999999523,917078.054,920727.818,1,40,33,
sequence,flow.Sequence,8_32,2023-11-17T19:53:07.437Z,,,,,,,,,,,3800.4459999999963,completion,,,,,,,high,low,,,,,,false,,,,,true,920878.7999999523,920878.5,917061.315,917215.2999999523,917078.054,920727.818,1,40,,
trial,html.Screen,8_33_0,2023-11-17T19:53:10.381Z,,,,2,-0.0200295718112167,-0.0155559071275806,,0.04,true,hh,3094.8819999285042,response,0.9657289110900686,0.950571652759826,-1.0643275235372232,0.9643331448263084,0.9281846588167828,-0.8948301186972754,high,high,,ISIC_0061343.JPG,,ISIC_0063447.JPG,39,false,0.1,hh,keypress(i),0,true,923822.8999999762,923822.6999999285,920711.186,920878.7999999523,920727.818,923677.864,1,40,34,
sequence,flow.Sequence,8_33,2023-11-17T19:53:10.382Z,,,,,,,,,,,3094.8819999285042,completion,,,,,,,high,high,,,,,,false,,,,,true,923823,923822.6999999285,920711.186,920878.7999999523,920727.818,923677.864,1,40,,
trial,html.Screen,8_34_0,2023-11-17T19:53:16.845Z,,,,2,-0.0308384937406319,0.0038396364323947,,0.04,true,lh,6608.835999928531,response,-0.8719231363109603,0.950571652759826,-1.0643275235372232,0.7704280220140033,0.9281846588167828,-0.8948301186972754,low,high,,ISIC_0029825.JPG,,ISIC_0029453.JPG,25,false,0.2500000000000001,lh,keypress(e),0,true,930286.7999999523,930286.6999999285,923661.275,923823,923677.864,930144.532,1,40,35,
sequence,flow.Sequence,8_34,2023-11-17T19:53:16.845Z,,,,,,,,,,,6608.835999928531,completion,,,,,,,low,high,,,,,,false,,,,,true,930286.8999999762,930286.6999999285,923661.275,923823,923677.864,930144.532,1,40,,
trial,html.Screen,8_35_0,2023-11-17T19:53:24.430Z,,,,2,0.0199950873045219,0.0172506388509166,,0.04,true,hh,7726.4679999999935,response,0.985308473785524,0.950571652759826,-1.0643275235372232,0.958447814554682,0.8781846588167828,-0.8948301186972754,high,high,,ISIC_0029906.JPG,,ISIC_0054914.JPG,46,false,0.1,hh,keypress(i),0,true,937871.1999999285,937871,930127.894,930286.8999999762,930144.532,937727.877,1,40,36,
sequence,flow.Sequence,8_35,2023-11-17T19:53:24.430Z,,,,,,,,,,,7726.4679999999935,completion,,,,,,,high,high,,,,,,false,,,,,true,937871.1999999285,937871,930127.894,930286.8999999762,930144.532,937727.877,1,40,,
trial,html.Screen,8_36_0,2023-11-17T19:53:30.205Z,,,,2,0.0374659946425444,0.0086043094957617,,0.04,false,lh,5918.52299997618,response,-0.8472024037189965,0.9218781441701029,-1.0643275235372232,0.986370061404882,0.8781846588167828,-0.8948301186972754,low,high,,ISIC_0033051.JPG,,ISIC_0054355.JPG,25,false,0.22000000000000008,hl,keypress(j),0,true,943646.5,943646.3999999762,937711.1,937871.2999999523,937727.877,943512.184,1,40,37,
sequence,flow.Sequence,8_36,2023-11-17T19:53:30.205Z,,,,,,,,,,,5918.52299997618,completion,,,,,,,low,high,,,,,,false,,,,,true,943646.6999999285,943646.3999999762,937711.1,937871.1999999285,937727.877,943512.184,1,40,,
trial,html.Screen,8_37_0,2023-11-17T19:53:34.782Z,,,,2,-0.0119001144851157,0.0063430114540141,,0.04,true,hh,4710.71599997615,response,0.871661188387271,0.9218781441701029,-1.1143275235372232,0.9067170027344016,0.9281846588167828,-0.8948301186972754,high,high,,ISIC_0003822.JPG,,ISIC_0026586.JPG,42,false,0.1,hh,keypress(i),0,true,948223,948222.8999999762,943477.851,943646.6999999285,943512.184,948077.813,1,40,38,
sequence,flow.Sequence,8_37,2023-11-17T19:53:34.782Z,,,,,,,,,,,4710.71599997615,completion,,,,,,,high,high,,,,,,false,,,,,true,948223.1000000238,948222.8999999762,943477.851,943646.6999999285,943512.184,948077.813,1,40,,
trial,html.Screen,8_38_0,2023-11-17T19:53:42.910Z,,,,2,-0.0258224118104549,0.0029364553353019,,0.04,false,lh,8273.187000000034,response,-0.8926515927689261,0.9218781441701029,-1.1143275235372232,0.7935960767768927,0.9281846588167828,-0.8948301186972754,low,high,,ISIC_8325226.JPG,,ISIC_8901371.JPG,25,false,0.2600000000000001,ll,keypress(f),0,true,956351.1000000238,956351,948061.282,948223.1000000238,948077.813,956211.584,1,40,39,
sequence,flow.Sequence,8_38,2023-11-17T19:53:42.910Z,,,,,,,,,,,8273.187000000034,completion,,,,,,,low,high,,,,,,false,,,,,true,956351.1999999285,956351,948061.282,948223.1000000238,948077.813,956211.584,1,40,,
trial,html.Screen,8_39_0,2023-11-17T19:53:49.517Z,,,,2,0.0164027439304477,-0.0082910758715273,,0.04,false,hh,6746.715999952285,response,0.9737567085091248,0.9218781441701029,-1.1143275235372232,0.9013996680304692,0.9781846588167828,-0.8948301186972754,high,high,,ISIC_7381224.JPG,,ISIC_2483825.JPG,38,false,0.1,lh,keypress(e),0,true,962958.3999999762,962958.2999999523,956194.654,956351.2999999523,956211.584,962811.129,1,40,40,
sequence,flow.Sequence,8_39,2023-11-17T19:53:49.517Z,,,,,,,,,,,6746.715999952285,completion,,,,,,,high,high,,,,,,false,,,,,true,962958.6000000238,962958.2999999523,956194.654,956351.1999999285,956211.584,962811.129,1,40,,
stair_loop,flow.Loop,8,2023-11-17T19:53:49.517Z,,,,,,,,,,,280330.1159999523,completion,,,,,,,,,,,,,,false,,,,,true,962958.6999999285,962958.2999999523,682611.47,682758.3999999762,682628.184,962811.129,1,40,,
exp_instructions,html.Screen,9,2023-11-17T19:54:16.621Z,,,,,,,,,,,27250.7709999762,response,,,,,,,,,,,,,,,,continue,keypress(Space),,,990062.1999999285,990061.8999999762,962794.715,962958.6999999285,962811.129,989911.093,,,,
trial,html.Screen,10_0_0,2023-11-17T19:54:19.917Z,,,,1,0.0109416414475118,0.005246498750811,,0.04,true,hh,3447.606999928481,response,0.8949188450526304,0.9898329510418812,-1.0903801379454727,0.9064772839637844,0.8799052453744082,-0.9702004433340768,high,high,,ISIC_0064279.JPG,9,ISIC_0057067.JPG,38,false,0.1,hh,keypress(i),0,false,993358.7999999523,993358.6999999285,989893.398,990062.3999999762,989911.093,993211.094,4,500,1,
break,html.Screen,10_0_1,2023-11-17T19:54:19.918Z,,,,,,,,,,,NaN,,,,,,,,high,high,,,,,,false,,,,,false,993359.1999999285,993359.1000000238,,993358.8999999762,,993211.094,4,500,,
break_continue,html.Screen,10_0_2,2023-11-17T19:54:19.918Z,,,,,,,,,,,NaN,,,,,,,,high,high,,,,,,false,,,,,false,993359.6000000238,993359.3999999762,,993359.3999999762,,993211.094,4,500,,
sequence,flow.Sequence,10_0,2023-11-17T19:54:19.918Z,,,,,,,,,,,3448.3069999761647,completion,,,,,,,high,high,,,,,,false,,,,,false,993359.6000000238,993359.3999999762,989893.398,990062.2999999523,989911.093,993211.094,4,500,,
trial,html.Screen,10_1_0,2023-11-17T19:54:24.813Z,,,,1,-0.0308384937406319,0.0038396364323947,,0.04,true,hl,5043.805999976117,response,0.9617893983965208,0.9898329510418812,-1.0903801379454727,-0.9453006131304652,0.8799052453744082,-0.9702004433340768,high,low,,ISIC_0029825.JPG,9,ISIC_4229473.JPG,25,false,0.21000000000000008,hl,keypress(j),0,false,998255,998254.8999999762,993194.523,993359.6000000238,993211.094,998111.201,4,500,2,
break,html.Screen,10_1_1,2023-11-17T19:54:24.814Z,,,,,,,,,,,NaN,,,,,,,,high,low,,,,,,false,,,,,false,998255.2999999523,998255.2999999523,,998255,,998111.201,4,500,,
break_continue,html.Screen,10_1_2,2023-11-17T19:54:24.814Z,,,,,,,,,,,NaN,,,,,,,,high,low,,,,,,false,,,,,false,998255.5,998255.3999999762,,998255.2999999523,,998111.201,4,500,,
sequence,flow.Sequence,10_1,2023-11-17T19:54:24.814Z,,,,,,,,,,,5044.305999976117,completion,,,,,,,high,low,,,,,,false,,,,,false,998255.5,998255.3999999762,993194.523,993359.6000000238,993211.094,998111.201,4,500,,
trial,html.Screen,10_2_0,2023-11-17T19:54:28.301Z,,,,1,0.0198696495649504,-0.0387952353063878,,0.04,false,hh,3631.5989999523154,response,0.9405746940315332,0.9898329510418812,-1.0903801379454727,0.7847785203585506,0.8799052453744082,-0.9702004433340768,high,high,,ISIC_6735970.JPG,8,ISIC_0034237.JPG,38,false,0.1,lh,keypress(e),0,false,1001743,1001742.7999999523,998094.576,998255.6000000238,998111.201,1001594.464,4,500,3,
break,html.Screen,10_2_1,2023-11-17T19:54:28.302Z,,,,,,,,,,,NaN,,,,,,,,high,high,,,,,,false,,,,,false,1001743.2999999523,1001743.1999999285,,1001743.1000000238,,1001594.464,4,500,,
break_continue,html.Screen,10_2_2,2023-11-17T19:54:28.302Z,,,,,,,,,,,NaN,,,,,,,,high,high,,,,,,false,,,,,false,1001743.5,1001743.3999999762,,1001743.2999999523,,1001594.464,4,500,,
sequence,flow.Sequence,10_2,2023-11-17T19:54:28.302Z,,,,,,,,,,,3632.198999976157,completion,,,,,,,high,high,,,,,,false,,,,,false,1001743.6000000238,1001743.3999999762,998094.576,998255.6000000238,998111.201,1001594.464,4,500,,
trial,html.Screen,10_3_0,2023-11-17T19:54:36.541Z,,,,1,-0.0119001144851157,0.0063430114540141,,0.04,false,hh,8388.235999928438,response,0.9141489890697224,0.9898329510418812,-1.0903801379454727,0.8021439579962121,0.8799052453744082,-0.9702004433340768,high,high,,ISIC_0003822.JPG,9,ISIC_0025491.JPG,38,false,0.1,hl,keypress(j),0,false,1009982.8999999762,1009982.6999999285,1001577.774,1001743.6000000238,1001594.464,1009844.555,4,500,4,
break,html.Screen,10_3_1,2023-11-17T19:54:36.542Z,,,,,,,,,,,NaN,,,,,,,,high,high,,,,,,false,,,,,false,1009983.1000000238,1009983.1000000238,,1009983,,1009844.555,4,500,,
break_continue,html.Screen,10_3_2,2023-11-17T19:54:36.542Z,,,,,,,,,,,NaN,,,,,,,,high,high,,,,,,false,,,,,false,1009983.3999999762,1009983.2999999523,,1009983.1999999285,,1009844.555,4,500,,
sequence,flow.Sequence,10_3,2023-11-17T19:54:36.542Z,,,,,,,,,,,8388.83599995228,completion,,,,,,,high,high,,,,,,false,,,,,false,1009983.5,1009983.2999999523,1001577.774,1001743.6000000238,1001594.464,1009844.555,4,500,,
trial,html.Screen,10_4_0,2023-11-17T19:54:39.532Z,,,,1,-0.0367706518941078,0.0161069838272154,,0.04,true,lh,3129.144999928423,response,-0.989300717252516,0.9898329510418812,-1.0903801379454727,0.7908280206937478,0.8799052453744082,-0.9702004433340768,low,high,,ISIC_0033419.JPG,9,ISIC_6416533.JPG,29,false,0.2400000000000001,lh,keypress(e),0,false,1012973.7999999523,1012973.6999999285,1009827.895,1009983.6000000238,1009844.555,1012827.796,4,500,5,
break,html.Screen,10_4_1,2023-11-17T19:54:39.533Z,,,,,,,,,,,NaN,,,,,,,,low,high,,,,,,false,,,,,false,1012974.1000000238,1012974.1000000238,,1012973.8999999762,,1012827.796,4,500,,
break_continue,html.Screen,10_4_2,2023-11-17T19:54:39.533Z,,,,,,,,,,,NaN,,,,,,,,low,high,,,,,,false,,,,,false,1012974.2999999523,1012974.1999999285,,1012974.1000000238,,1012827.796,4,500,,
sequence,flow.Sequence,10_4,2023-11-17T19:54:39.533Z,,,,,,,,,,,3129.644999928423,completion,,,,,,,low,high,,,,,,false,,,,,false,1012974.3999999762,1012974.1999999285,1009827.895,1009983.6000000238,1009844.555,1012827.796,4,500,,
trial,html.Screen,10_5_0,2023-11-17T19:54:45.693Z,,,,1,0.039520186367207,0.0377961575607372,,0.04,false,hh,6306.804000023869,response,0.900981242677363,0.9898329510418812,-1.0903801379454727,0.8834104283484265,0.8799052453744082,-0.9702004433340768,high,high,,ISIC_6356149.JPG,9,ISIC_7236365.JPG,38,false,0.1,ll,keypress(f),0,false,1019134.7999999523,1019134.6000000238,1012811.286,1012974.3999999762,1012827.796,1018994.558,4,500,6,
break,html.Screen,10_5_1,2023-11-17T19:54:45.694Z,,,,,,,,,,,NaN,,,,,,,,high,high,,,,,,false,,,,,false,1019135,1019135,,1019134.7999999523,,1018994.558,4,500,,
break_continue,html.Screen,10_5_2,2023-11-17T19:54:45.694Z,,,,,,,,,,,NaN,,,,,,,,high,high,,,,,,false,,,,,false,1019135.2999999523,1019135.1999999285,,1019135.1000000238,,1018994.558,4,500,,
sequence,flow.Sequence,10_5,2023-11-17T19:54:45.694Z,,,,,,,,,,,6307.403999928501,completion,,,,,,,high,high,,,,,,false,,,,,false,1019135.2999999523,1019135.1999999285,1012811.286,1012974.3999999762,1012827.796,1018994.558,4,500,,
trial,html.Screen,10_6_0,2023-11-17T19:54:51.677Z,,,,1,-0.0308384937406319,0.0038396364323947,,0.04,false,hl,6123.542000023881,response,0.8987343013179191,0.9898329510418812,-1.0903801379454727,-0.8149073454566363,0.8799052453744082,-0.9702004433340768,high,low,,ISIC_0029825.JPG,8,ISIC_0472513.JPG,25,false,0.21000000000000008,ll,keypress(f),0,false,1025118.2999999523,1025118.1000000238,1018977.547,1019135.3999999762,1018994.558,1024977.678,4,500,7,
break,html.Screen,10_6_1,2023-11-17T19:54:51.677Z,,,,,,,,,,,NaN,,,,,,,,high,low,,,,,,false,,,,,false,1025118.6999999285,1025118.5,,1025118.3999999762,,1024977.678,4,500,,
break_continue,html.Screen,10_6_2,2023-11-17T19:54:51.677Z,,,,,,,,,,,NaN,,,,,,,,high,low,,,,,,false,,,,,false,1025118.7999999523,1025118.6999999285,,1025118.6999999285,,1024977.678,4,500,,
sequence,flow.Sequence,10_6,2023-11-17T19:54:51.677Z,,,,,,,,,,,6124.1419999285135,completion,,,,,,,high,low,,,,,,false,,,,,false,1025118.8999999762,1025118.6999999285,1018977.547,1019135.3999999762,1018994.558,1024977.678,4,500,,
trial,html.Screen,10_7_0,2023-11-17T19:55:01.517Z,,,,1,-0.0076984477620101,-0.0069458408496562,,0.04,false,ll,9981.221999976202,response,-1.085906502329253,0.9898329510418812,-1.0903801379454727,-0.8769314895018409,0.8799052453744082,-0.9702004433340768,low,low,,ISIC_0000434.JPG,8,ISIC_2693412.JPG,25,false,0.1,hl,keypress(j),0,false,1034958.8999999762,1034958.8999999762,1024961.235,1025118.8999999762,1024977.678,1034811.067,4,500,8,
break,html.Screen,10_7_1,2023-11-17T19:55:01.518Z,,,,,,,,,,,NaN,,,,,,,,low,low,,,,,,false,,,,,false,1034959.1999999285,1034959.1999999285,,1034959,,1034811.067,4,500,,
break_continue,html.Screen,10_7_2,2023-11-17T19:55:01.518Z,,,,,,,,,,,NaN,,,,,,,,low,low,,,,,,false,,,,,false,1034959.2999999523,1034959.2999999523,,1034959.1999999285,,1034811.067,4,500,,
sequence,flow.Sequence,10_7,2023-11-17T19:55:01.518Z,,,,,,,,,,,9981.62199995236,completion,,,,,,,low,low,,,,,,false,,,,,false,1034959.3999999762,1034959.2999999523,1024961.235,1025118.8999999762,1024977.678,1034811.067,4,500,,
trial,html.Screen,10_8_0,2023-11-17T19:55:08.588Z,,,,1,-0.0009714874637896,0.0174815595031679,,0.04,false,hl,7218.832999976119,response,0.9244148283103414,0.9898329510418812,-1.0903801379454727,-0.9712966348713286,0.8799052453744082,-0.9702004433340768,high,low,,ISIC_9848743.JPG,9,ISIC_7927525.JPG,25,false,0.21000000000000008,lh,keypress(e),0,false,1042030,1042029.8999999762,1034795.2,1034959.5,1034811.067,1041894.81,4,500,9,
break,html.Screen,10_8_1,2023-11-17T19:55:08.589Z,,,,,,,,,,,NaN,,,,,,,,high,low,,,,,,false,,,,,false,1042030.3999999762,1042030.2999999523,,1042030.1000000238,,1041894.81,4,500,,
break_continue,html.Screen,10_8_2,2023-11-17T19:55:08.589Z,,,,,,,,,,,NaN,,,,,,,,high,low,,,,,,false,,,,,false,1042030.6999999285,1042030.6000000238,,1042030.5,,1041894.81,4,500,,
sequence,flow.Sequence,10_8,2023-11-17T19:55:08.589Z,,,,,,,,,,,7219.533000023803,completion,,,,,,,high,low,,,,,,false,,,,,false,1042030.6999999285,1042030.6000000238,1034795.2,1034959.5,1034811.067,1041894.81,4,500,,
trial,html.Screen,10_9_0,2023-11-17T19:55:14.109Z,,,,1,-0.0119001144851157,0.0063430114540141,,0.04,false,hh,5655.790000023786,response,0.9866910776752168,0.9898329510418812,-1.0903801379454727,0.9730788960408626,0.8799052453744082,-0.9702004433340768,high,high,,ISIC_0003822.JPG,8,ISIC_0070003.JPG,38,false,0.1,hl,keypress(j),0,false,1047550.6999999285,1047550.6000000238,1041861.045,1042030.7999999523,1041894.81,1047411.085,4,500,10,
break,html.Screen,10_9_1,2023-11-17T19:55:14.110Z,,,,,,,,,,,NaN,,,,,,,,high,high,,,,,,false,,,,,false,1047551,1047551,,1047550.8999999762,,1047411.085,4,500,,
break_continue,html.Screen,10_9_2,2023-11-17T19:55:14.110Z,,,,,,,,,,,NaN,,,,,,,,high,high,,,,,,false,,,,,false,1047551.2999999523,1047551.1000000238,,1047551.1000000238,,1047411.085,4,500,,
sequence,flow.Sequence,10_9,2023-11-17T19:55:14.110Z,,,,,,,,,,,5656.290000023786,completion,,,,,,,high,high,,,,,,false,,,,,false,1047551.2999999523,1047551.1000000238,1041861.045,1042030.6999999285,1041894.81,1047411.085,4,500,,
trial,html.Screen,10_10_0,2023-11-17T19:55:16.605Z,,,,1,0.0199950873045219,0.0172506388509166,,0.04,true,lh,2635.7149999523535,response,-0.8644472795202904,0.9898329510418812,-1.0903801379454727,0.6717597063424736,0.8799052453744082,-0.9702004433340768,low,high,,ISIC_0029906.JPG,9,ISIC_0057892.JPG,29,false,0.2400000000000001,lh,keypress(e),0,false,1050046.8999999762,1050046.7999999523,1047394.47,1047551.3999999762,1047411.085,1049911.278,4,500,11,
break,html.Screen,10_10_1,2023-11-17T19:55:16.606Z,,,,,,,,,,,NaN,,,,,,,,low,high,,,,,,false,,,,,false,1050047.1999999285,1050047.1000000238,,1050047,,1049911.278,4,500,,
break_continue,html.Screen,10_10_2,2023-11-17T19:55:16.606Z,,,,,,,,,,,NaN,,,,,,,,low,high,,,,,,false,,,,,false,1050047.3999999762,1050047.3999999762,,1050047.2999999523,,1049911.278,4,500,,
sequence,flow.Sequence,10_10,2023-11-17T19:55:16.606Z,,,,,,,,,,,2636.3149999761954,completion,,,,,,,low,high,,,,,,false,,,,,false,1050047.5,1050047.3999999762,1047394.47,1047551.3999999762,1047411.085,1049911.278,4,500,,
trial,html.Screen,10_11_0,2023-11-17T19:55:23.885Z,,,,1,0.039520186367207,0.0377961575607372,,0.04,false,lh,7415.4219999285415,response,-0.989300717252516,0.9898329510418812,-1.0903801379454727,0.7908280206937478,0.8799052453744082,-0.9702004433340768,low,high,,ISIC_6356149.JPG,9,ISIC_6416533.JPG,29,false,0.2400000000000001,ll,keypress(f),0,false,1057326.7999999523,1057326.6999999285,1049877.717,1050047.5,1049911.278,1057177.675,4,500,12,
break,html.Screen,10_11_1,2023-11-17T19:55:23.886Z,,,,,,,,,,,NaN,,,,,,,,low,high,,,,,,false,,,,,false,1057327.1999999285,1057327.1000000238,,1057327,,1057177.675,4,500,,
break_continue,html.Screen,10_11_2,2023-11-17T19:55:23.886Z,,,,,,,,,,,NaN,,,,,,,,low,high,,,,,,false,,,,,false,1057327.2999999523,1057327.1999999285,,1057327.1999999285,,1057177.675,4,500,,
sequence,flow.Sequence,10_11,2023-11-17T19:55:23.886Z,,,,,,,,,,,7415.9219999285415,completion,,,,,,,low,high,,,,,,false,,,,,false,1057327.5,1057327.1999999285,1049877.717,1050047.5,1049911.278,1057177.675,4,500,,
trial,html.Screen,10_12_0,2023-11-17T19:55:28.909Z,,,,1,-0.0286056110007553,-0.036125199756515,,0.04,true,hl,5173.12499995227,response,0.9662688541319592,0.9898329510418812,-1.0903801379454727,-0.929746784178986,0.8799052453744082,-0.9702004433340768,high,low,,ISIC_6535558.JPG,9,ISIC_0011077.JPG,25,false,0.21000000000000008,hl,keypress(j),0,false,1062350.8999999762,1062350.7999999523,1057161.278,1057327.5,1057177.675,1062211.458,4,500,13,
break,html.Screen,10_12_1,2023-11-17T19:55:28.910Z,,,,,,,,,,,NaN,,,,,,,,high,low,,,,,,false,,,,,false,1062351.1999999285,1062351.1999999285,,1062351.1000000238,,1062211.458,4,500,,
break_continue,html.Screen,10_12_2,2023-11-17T19:55:28.910Z,,,,,,,,,,,NaN,,,,,,,,high,low,,,,,,false,,,,,false,1062351.5,1062351.3999999762,,1062351.2999999523,,1062211.458,4,500,,
sequence,flow.Sequence,10_12,2023-11-17T19:55:28.910Z,,,,,,,,,,,5173.724999976112,completion,,,,,,,high,low,,,,,,false,,,,,false,1062351.5,1062351.3999999762,1057161.278,1057327.5,1057177.675,1062211.458,4,500,,
trial,html.Screen,10_13_0,2023-11-17T19:55:38.749Z,,,,1,-0.0367744112927588,-0.0324865661712824,,0.04,false,hh,9978.841999952216,response,0.900981242677363,0.9898329510418812,-1.0903801379454727,0.8834104283484265,0.8799052453744082,-0.9702004433340768,high,high,,ISIC_4523565.JPG,8,ISIC_7236365.JPG,38,false,0.1,lh,keypress(e),0,false,1072190.3999999762,1072190.2999999523,1062194.447,1062351.6000000238,1062211.458,1072061.056,4,500,14,
break,html.Screen,10_13_1,2023-11-17T19:55:38.749Z,,,,,,,,,,,NaN,,,,,,,,high,high,,,,,,false,,,,,false,1072190.7999999523,1072190.6999999285,,1072190.5,,1072061.056,4,500,,
break_continue,html.Screen,10_13_2,2023-11-17T19:55:38.749Z,,,,,,,,,,,NaN,,,,,,,,high,high,,,,,,false,,,,,false,1072191,1072190.7999999523,,1072190.7999999523,,1072061.056,4,500,,
sequence,flow.Sequence,10_13,2023-11-17T19:55:38.749Z,,,,,,,,,,,9979.341999952216,completion,,,,,,,high,high,,,,,,false,,,,,false,1072191,1072190.7999999523,1062194.447,1062351.6000000238,1062211.458,1072061.056,4,500,,
trial,html.Screen,10_14_0,2023-11-17T19:55:43.469Z,,,,1,-0.0119001144851157,0.0063430114540141,,0.04,false,ll,4849.443999999901,response,-1.085906502329253,0.9898329510418812,-1.0903801379454727,-0.8769314895018409,0.8799052453744082,-0.9702004433340768,low,low,,ISIC_0003822.JPG,9,ISIC_2693412.JPG,25,false,0.1,hl,keypress(j),0,false,1076910.6000000238,1076910.5,1072044.463,1072191,1072061.056,1076760.992,4,500,15,
break,html.Screen,10_14_1,2023-11-17T19:55:43.469Z,,,,,,,,,,,NaN,,,,,,,,low,low,,,,,,false,,,,,false,1076910.7999999523,1076910.7999999523,,1076910.6999999285,,1076760.992,4,500,,
break_continue,html.Screen,10_14_2,2023-11-17T19:55:43.470Z,,,,,,,,,,,NaN,,,,,,,,low,low,,,,,,false,,,,,false,1076911.1000000238,1076911,,1076910.8999999762,,1076760.992,4,500,,
sequence,flow.Sequence,10_14,2023-11-17T19:55:43.470Z,,,,,,,,,,,4849.943999999901,completion,,,,,,,low,low,,,,,,false,,,,,false,1076911.1000000238,1076911,1072044.463,1072191,1072061.056,1076760.992,4,500,,
trial,html.Screen,10_15_0,2023-11-17T19:55:49.646Z,,,,1,0.0374659946425444,0.0086043094957617,,0.04,false,ll,6326.007999999914,response,-1.0257168197307909,0.9898329510418812,-1.0903801379454727,-1.0403166496930305,0.8799052453744082,-0.9702004433340768,low,low,,ISIC_0033051.JPG,9,ISIC_1690909.JPG,25,false,0.1,hl,keypress(j),0,false,1083087.1999999285,1083087,1076744.38,1076911.1999999285,1076760.992,1082944.312,4,500,16,
break,html.Screen,10_15_1,2023-11-17T19:55:49.646Z,,,,,,,,,,,NaN,,,,,,,,low,low,,,,,,false,,,,,false,1083087.3999999762,1083087.3999999762,,1083087.1999999285,,1082944.312,4,500,,
break_continue,html.Screen,10_15_2,2023-11-17T19:55:49.646Z,,,,,,,,,,,NaN,,,,,,,,low,low,,,,,,false,,,,,false,1083087.6999999285,1083087.6000000238,,1083087.5,,1082944.312,4,500,,
sequence,flow.Sequence,10_15,2023-11-17T19:55:49.646Z,,,,,,,,,,,6326.608000023756,completion,,,,,,,low,low,,,,,,false,,,,,false,1083087.7999999523,1083087.6000000238,1076744.38,1076911.1999999285,1076760.992,1082944.312,4,500,,
trial,html.Screen,10_16_0,2023-11-17T19:55:53.325Z,,,,1,0.0164027439304477,-0.0082910758715273,,0.04,false,ll,3821.9879999523982,response,-1.0122348575830964,0.9898329510418812,-1.0903801379454727,-1.007833368115011,0.8799052453744082,-0.9702004433340768,low,low,,ISIC_7381224.JPG,8,ISIC_8145260.JPG,25,false,0.1,hl,keypress(j),0,false,1086766.3999999762,1086766.2999999523,1082927.699,1083087.7999999523,1082944.312,1086644.403,4,500,17,
break,html.Screen,10_16_1,2023-11-17T19:55:53.325Z,,,,,,,,,,,NaN,,,,,,,,low,low,,,,,,false,,,,,false,1086766.6999999285,1086766.6000000238,,1086766.5,,1086644.403,4,500,,
break_continue,html.Screen,10_16_2,2023-11-17T19:55:53.325Z,,,,,,,,,,,NaN,,,,,,,,low,low,,,,,,false,,,,,false,1086766.8999999762,1086766.7999999523,,1086766.7999999523,,1086644.403,4,500,,
sequence,flow.Sequence,10_16,2023-11-17T19:55:53.325Z,,,,,,,,,,,3822.4879999523982,completion,,,,,,,low,low,,,,,,false,,,,,false,1086766.8999999762,1086766.7999999523,1082927.699,1083087.7999999523,1082944.312,1086644.403,4,500,,
trial,html.Screen,10_17_0,2023-11-17T19:55:58.205Z,,,,1,-0.0009714874637896,0.0174815595031679,,0.04,false,hh,5002.097000000067,response,0.9500911450995304,0.9898329510418812,-1.0903801379454727,0.8685004638027202,0.8799052453744082,-0.9702004433340768,high,high,,ISIC_9848743.JPG,9,ISIC_0011094.JPG,38,false,0.1,hl,keypress(j),0,false,1091646.5,1091646.5,1086627.696,1086766.8999999762,1086644.403,1091511.441,4,500,18,
break,html.Screen,10_17_1,2023-11-17T19:55:58.205Z,,,,,,,,,,,NaN,,,,,,,,high,high,,,,,,false,,,,,false,1091646.8999999762,1091646.7999999523,,1091646.6999999285,,1091511.441,4,500,,
break_continue,html.Screen,10_17_2,2023-11-17T19:55:58.206Z,,,,,,,,,,,NaN,,,,,,,,high,high,,,,,,false,,,,,false,1091647.1000000238,1091647,,1091647,,1091511.441,4,500,,
sequence,flow.Sequence,10_17,2023-11-17T19:55:58.206Z,,,,,,,,,,,5002.597000000067,completion,,,,,,,high,high,,,,,,false,,,,,false,1091647.1999999285,1091647,1086627.696,1086766.8999999762,1086644.403,1091511.441,4,500,,
trial,html.Screen,10_18_0,2023-11-17T19:56:02.365Z,,,,1,0.0088741920055285,0.0058246074740588,,0.04,true,hh,4295.058999999892,response,0.9506660770270554,0.9898329510418812,-1.0903801379454727,0.8543483016673109,0.8799052453744082,-0.9702004433340768,high,high,,ISIC_4136663.JPG,9,ISIC_0053469.JPG,38,false,0.1,hh,keypress(i),0,false,1095806.6999999285,1095806.5,1091477.77,1091647.1999999285,1091511.441,1095661.019,4,500,19,
break,html.Screen,10_18_1,2023-11-17T19:56:02.365Z,,,,,,,,,,,NaN,,,,,,,,high,high,,,,,,false,,,,,false,1095806.8999999762,1095806.8999999762,,1095806.7999999523,,1095661.019,4,500,,
break_continue,html.Screen,10_18_2,2023-11-17T19:56:02.366Z,,,,,,,,,,,NaN,,,,,,,,high,high,,,,,,false,,,,,false,1095807.2999999523,1095807.1000000238,,1095807,,1095661.019,4,500,,
sequence,flow.Sequence,10_18,2023-11-17T19:56:02.366Z,,,,,,,,,,,4295.659000023734,completion,,,,,,,high,high,,,,,,false,,,,,false,1095807.2999999523,1095807.1000000238,1091477.77,1091647.1999999285,1091511.441,1095661.019,4,500,,
trial,html.Screen,10_19_0,2023-11-17T19:56:11.805Z,,,,1,0.0109416414475118,0.005246498750811,,0.04,false,ll,9585.680999928387,response,-1.1756375305897409,0.9898329510418812,-1.0903801379454727,-0.910735965353392,0.8799052453744082,-0.9702004433340768,low,low,,ISIC_0064279.JPG,8,ISIC_0005769.JPG,25,false,0.1,hl,keypress(j),0,false,1105246.7999999523,1105246.6999999285,1095644.231,1095807.2999999523,1095661.019,1105110.956,4,500,20,
break,html.Screen,10_19_1,2023-11-17T19:56:11.806Z,,,,,,,,,,,NaN,,,,,,,,low,low,,,,,,false,,,,,false,1105247.1000000238,1105247.1000000238,,1105246.8999999762,,1105110.956,4,500,,
break_continue,html.Screen,10_19_2,2023-11-17T19:56:11.806Z,,,,,,,,,,,NaN,,,,,,,,low,low,,,,,,false,,,,,false,1105247.2999999523,1105247.1999999285,,1105247.1999999285,,1105110.956,4,500,,
sequence,flow.Sequence,10_19,2023-11-17T19:56:11.806Z,,,,,,,,,,,9586.180999928387,completion,,,,,,,low,low,,,,,,false,,,,,false,1105247.3999999762,1105247.1999999285,1095644.231,1095807.2999999523,1095661.019,1105110.956,4,500,,
trial,html.Screen,10_20_0,2023-11-17T19:56:19.710Z,,,,1,0.0074667911845194,-0.018500200317654,,0.04,false,lh,8039.843999952311,response,-0.9653573371180936,0.9898329510418812,-1.0903801379454727,0.854766800381037,0.8799052453744082,-0.9702004433340768,low,high,,ISIC_0058723.JPG,10,ISIC_9640145.JPG,29,false,0.2400000000000001,hl,keypress(j),0,false,1113150.7999999523,1113150.7999999523,1105077.937,1105247.5,1105110.956,1113011.221,4,500,21,
break,html.Screen,10_20_1,2023-11-17T19:56:19.710Z,,,,,,,,,,,NaN,,,,,,,,low,high,,,,,,false,,,,,false,1113151.1000000238,1113151.1000000238,,1113150.8999999762,,1113011.221,4,500,,
break_continue,html.Screen,10_20_2,2023-11-17T19:56:19.710Z,,,,,,,,,,,NaN,,,,,,,,low,high,,,,,,false,,,,,false,1113151.2999999523,1113151.1999999285,,1113151.1999999285,,1113011.221,4,500,,
sequence,flow.Sequence,10_20,2023-11-17T19:56:19.710Z,,,,,,,,,,,8040.243999928469,completion,,,,,,,low,high,,,,,,false,,,,,false,1113151.3999999762,1113151.1999999285,1105077.937,1105247.5,1105110.956,1113011.221,4,500,,
trial,html.Screen,10_21_0,2023-11-17T19:56:24.029Z,,,,1,0.0388334549081915,-0.0303399972963369,,0.04,false,ll,4459.078999952413,response,-1.1290536173202614,0.9898329510418812,-1.0903801379454727,-0.9768663240505168,0.8799052453744082,-0.9702004433340768,low,low,,ISIC_4961708.JPG,10,ISIC_2196127.JPG,25,false,0.1,lh,keypress(e),0,false,1117470.3999999762,1117470.2999999523,1112994.25,1113151.5,1113011.221,1117327.637,4,500,22,
break,html.Screen,10_21_1,2023-11-17T19:56:24.029Z,,,,,,,,,,,NaN,,,,,,,,low,low,,,,,,false,,,,,false,1117470.6999999285,1117470.6999999285,,1117470.5,,1117327.637,4,500,,
break_continue,html.Screen,10_21_2,2023-11-17T19:56:24.030Z,,,,,,,,,,,NaN,,,,,,,,low,low,,,,,,false,,,,,false,1117471,1117471,,1117470.7999999523,,1117327.637,4,500,,
sequence,flow.Sequence,10_21,2023-11-17T19:56:24.030Z,,,,,,,,,,,4459.779000000097,completion,,,,,,,low,low,,,,,,false,,,,,false,1117471.1000000238,1117471,1112994.25,1113151.5,1113011.221,1117327.637,4,500,,
trial,html.Screen,10_22_0,2023-11-17T19:56:27.869Z,,,,1,-0.0044063257337227,-0.0172548282859886,,0.04,false,lh,3982.9630000237375,response,-0.9653573371180936,0.9898329510418812,-1.0903801379454727,0.854766800381037,0.8799052453744082,-0.9702004433340768,low,high,,ISIC_7413786.JPG,9,ISIC_9640145.JPG,29,false,0.2400000000000001,hl,keypress(j),0,false,1121310.6999999285,1121310.6000000238,1117311.122,1117471.1000000238,1117327.637,1121160.97,4,500,23,
break,html.Screen,10_22_1,2023-11-17T19:56:27.870Z,,,,,,,,,,,NaN,,,,,,,,low,high,,,,,,false,,,,,false,1121310.8999999762,1121310.8999999762,,1121310.6999999285,,1121160.97,4,500,,
break_continue,html.Screen,10_22_2,2023-11-17T19:56:27.870Z,,,,,,,,,,,NaN,,,,,,,,low,high,,,,,,false,,,,,false,1121311.1999999285,1121311.1000000238,,1121311.1000000238,,1121160.97,4,500,,
sequence,flow.Sequence,10_22,2023-11-17T19:56:27.870Z,,,,,,,,,,,3983.4630000237375,completion,,,,,,,low,high,,,,,,false,,,,,false,1121311.1999999285,1121311.1000000238,1117311.122,1117471.1000000238,1117327.637,1121160.97,4,500,,
trial,html.Screen,10_23_0,2023-11-17T19:56:32.045Z,,,,1,0.0074667911845194,-0.018500200317654,,0.04,false,hh,4325.329999952344,response,1.0712988318327483,0.9898329510418812,-1.0903801379454727,0.813758249035235,0.8799052453744082,-0.9702004433340768,high,high,,ISIC_0058723.JPG,9,ISIC_5762714.JPG,38,false,0.1,hl,keypress(j),0,false,1125486.3999999762,1125486.2999999523,1121144.452,1121311.2999999523,1121160.97,1125344.403,4,500,24,
break,html.Screen,10_23_1,2023-11-17T19:56:32.045Z,,,,,,,,,,,NaN,,,,,,,,high,high,,,,,,false,,,,,false,1125486.6000000238,1125486.5,,1125486.3999999762,,1125344.403,4,500,,
break_continue,html.Screen,10_23_2,2023-11-17T19:56:32.046Z,,,,,,,,,,,NaN,,,,,,,,high,high,,,,,,false,,,,,false,1125486.8999999762,1125486.6999999285,,1125486.6000000238,,1125344.403,4,500,,
sequence,flow.Sequence,10_23,2023-11-17T19:56:32.046Z,,,,,,,,,,,4325.729999928502,completion,,,,,,,high,high,,,,,,false,,,,,false,1125487,1125486.6999999285,1121144.452,1121311.2999999523,1121160.97,1125344.403,4,500,,
trial,html.Screen,10_24_0,2023-11-17T19:56:38.973Z,,,,1,-0.0044063257337227,-0.0172548282859886,,0.04,true,hh,7069.697000023909,response,1.0028306951898116,0.9898329510418812,-1.0903801379454727,0.8421248340065566,0.8799052453744082,-0.9702004433340768,high,high,,ISIC_7413786.JPG,9,ISIC_0026531.JPG,38,false,0.1,hh,keypress(i),0,false,1132414.2999999523,1132414.1000000238,1125327.778,1125487,1125344.403,1132277.627,4,500,25,
break,html.Screen,10_24_1,2023-11-17T19:56:38.973Z,,,,,,,,,,,NaN,,,,,,,,high,high,,,,,,false,,,,,false,1132414.5,1132414.5,,1132414.3999999762,,1132277.627,4,500,,
break_continue,html.Screen,10_24_2,2023-11-17T19:56:38.974Z,,,,,,,,,,,NaN,,,,,,,,high,high,,,,,,false,,,,,false,1132414.7999999523,1132414.6999999285,,1132414.6000000238,,1132277.627,4,500,,
sequence,flow.Sequence,10_24,2023-11-17T19:56:38.974Z,,,,,,,,,,,7070.2969999285415,completion,,,,,,,high,high,,,,,,false,,,,,false,1132414.7999999523,1132414.6999999285,1125327.778,1125487,1125344.403,1132277.627,4,500,,
trial,html.Screen,10_25_0,2023-11-17T19:56:43.486Z,,,,1,0.001445457736793,0.0165307427449982,,0.04,true,ll,4649.172999952221,response,-1.0058354021163274,0.9898329510418812,-1.0903801379454727,-0.8916720716393026,0.8799052453744082,-0.9702004433340768,low,low,,ISIC_0027350.JPG,8,ISIC_5581936.JPG,25,false,0.1,ll,keypress(f),0,false,1136926.8999999762,1136926.7999999523,1132261.057,1132414.8999999762,1132277.627,1136777.595,4,500,26,
break,html.Screen,10_25_1,2023-11-17T19:56:43.486Z,,,,,,,,,,,NaN,,,,,,,,low,low,,,,,,false,,,,,false,1136927.1999999285,1136927.1000000238,,1136927,,1136777.595,4,500,,
break_continue,html.Screen,10_25_2,2023-11-17T19:56:43.486Z,,,,,,,,,,,NaN,,,,,,,,low,low,,,,,,false,,,,,false,1136927.3999999762,1136927.2999999523,,1136927.1999999285,,1136777.595,4,500,,
sequence,flow.Sequence,10_25,2023-11-17T19:56:43.486Z,,,,,,,,,,,4649.672999952221,completion,,,,,,,low,low,,,,,,false,,,,,false,1136927.3999999762,1136927.2999999523,1132261.057,1132414.7999999523,1132277.627,1136777.595,4,500,,
trial,html.Screen,10_26_0,2023-11-17T19:56:46.046Z,,,,1,0.0109416414475118,0.005246498750811,,0.04,true,ll,2709.304999976186,response,-1.0757050222000146,0.9898329510418812,-1.0903801379454727,-0.9214423600454036,0.8799052453744082,-0.9702004433340768,low,low,,ISIC_0064279.JPG,8,ISIC_5152859.JPG,25,false,0.1,ll,keypress(f),0,false,1139487,1139486.8999999762,1136761.198,1136927.5,1136777.595,1139344.293,4,500,27,
break,html.Screen,10_26_1,2023-11-17T19:56:46.046Z,,,,,,,,,,,NaN,,,,,,,,low,low,,,,,,false,,,,,false,1139487.3999999762,1139487.1999999285,,1139487.1999999285,,1139344.293,4,500,,
break_continue,html.Screen,10_26_2,2023-11-17T19:56:46.046Z,,,,,,,,,,,NaN,,,,,,,,low,low,,,,,,false,,,,,false,1139487.6000000238,1139487.3999999762,,1139487.3999999762,,1139344.293,4,500,,
sequence,flow.Sequence,10_26,2023-11-17T19:56:46.046Z,,,,,,,,,,,2709.804999976186,completion,,,,,,,low,low,,,,,,false,,,,,false,1139487.6000000238,1139487.3999999762,1136761.198,1136927.3999999762,1136777.595,1139344.293,4,500,,
trial,html.Screen,10_27_0,2023-11-17T19:56:53.038Z,,,,1,0.0109416414475118,0.005246498750811,,0.04,false,lh,7134.3070000237785,response,-1.0770264364718942,0.9898329510418812,-1.0903801379454727,0.6713089190292955,0.8799052453744082,-0.9702004433340768,low,high,,ISIC_0064279.JPG,8,ISIC_6093728.JPG,29,false,0.2400000000000001,ll,keypress(f),0,false,1146478.7999999523,1146478.6000000238,1139327.808,1139487.6000000238,1139344.293,1146327.577,4,500,28,
break,html.Screen,10_27_1,2023-11-17T19:56:53.038Z,,,,,,,,,,,NaN,,,,,,,,low,high,,,,,,false,,,,,false,1146479.1000000238,1146479,,1146478.8999999762,,1146327.577,4,500,,
break_continue,html.Screen,10_27_2,2023-11-17T19:56:53.038Z,,,,,,,,,,,NaN,,,,,,,,low,high,,,,,,false,,,,,false,1146479.2999999523,1146479.1999999285,,1146479.1000000238,,1146327.577,4,500,,
sequence,flow.Sequence,10_27,2023-11-17T19:56:53.038Z,,,,,,,,,,,7134.906999928411,completion,,,,,,,low,high,,,,,,false,,,,,false,1146479.2999999523,1146479.1999999285,1139327.808,1139487.6000000238,1139344.293,1146327.577,4,500,,
trial,html.Screen,10_28_0,2023-11-17T19:56:58.046Z,,,,1,-0.0009714874637896,0.0174815595031679,,0.04,true,hh,5159.023000023793,response,0.9179483069507334,0.9898329510418812,-1.0903801379454727,0.8157414137646586,0.8799052453744082,-0.9702004433340768,high,high,,ISIC_9848743.JPG,9,ISIC_0032892.JPG,38,false,0.1,hh,keypress(i),0,false,1151486.7999999523,1151486.6000000238,1146310.842,1146479.2999999523,1146327.577,1151344.339,4,500,29,
break,html.Screen,10_28_1,2023-11-17T19:56:58.046Z,,,,,,,,,,,NaN,,,,,,,,high,high,,,,,,false,,,,,false,1151487.1000000238,1151487,,1151486.8999999762,,1151344.339,4,500,,
break_continue,html.Screen,10_28_2,2023-11-17T19:56:58.046Z,,,,,,,,,,,NaN,,,,,,,,high,high,,,,,,false,,,,,false,1151487.2999999523,1151487.2999999523,,1151487.1000000238,,1151344.339,4,500,,
sequence,flow.Sequence,10_28,2023-11-17T19:56:58.046Z,,,,,,,,,,,5159.722999952268,completion,,,,,,,high,high,,,,,,false,,,,,false,1151487.3999999762,1151487.2999999523,1146310.842,1146479.2999999523,1146327.577,1151344.339,4,500,,
trial,html.Screen,10_29_0,2023-11-17T19:57:01.822Z,,,,1,-0.0220026381002083,0.0170756452911772,,0.04,true,ll,3918.4609999523964,response,-1.0325421457475312,0.9898329510418812,-1.0903801379454727,-1.0219157566370058,0.8799052453744082,-0.9702004433340768,low,low,,ISIC_5347806.JPG,8,ISIC_5336548.JPG,25,false,0.1,ll,keypress(f),0,false,1155262.7999999523,1155262.7999999523,1151327.76,1151487.3999999762,1151344.339,1155128.84,4,500,30,
break,html.Screen,10_29_1,2023-11-17T19:57:01.822Z,,,,,,,,,,,NaN,,,,,,,,low,low,,,,,,false,,,,,false,1155263.1000000238,1155263.1000000238,,1155262.8999999762,,1155128.84,4,500,,
break_continue,html.Screen,10_29_2,2023-11-17T19:57:01.822Z,,,,,,,,,,,NaN,,,,,,,,low,low,,,,,,false,,,,,false,1155263.2999999523,1155263.2999999523,,1155263.1999999285,,1155128.84,4,500,,
sequence,flow.Sequence,10_29,2023-11-17T19:57:01.822Z,,,,,,,,,,,3918.9609999523964,completion,,,,,,,low,low,,,,,,false,,,,,false,1155263.3999999762,1155263.2999999523,1151327.76,1151487.3999999762,1151344.339,1155128.84,4,500,,
trial,html.Screen,10_30_0,2023-11-17T19:57:07.438Z,,,,1,0.0388181790775959,-0.0049623405709465,,0.04,true,hh,5749.9599999522325,response,0.9914647862586572,0.9898329510418812,-1.0903801379454727,0.8837963869804757,0.8799052453744082,-0.9702004433340768,high,high,,ISIC_0061880.JPG,9,ISIC_0068895.JPG,38,false,0.1,hh,keypress(i),0,false,1160879,1160878.7999999523,1155094.212,1155263.3999999762,1155128.84,1160727.562,4,500,31,
break,html.Screen,10_30_1,2023-11-17T19:57:07.438Z,,,,,,,,,,,NaN,,,,,,,,high,high,,,,,,false,,,,,false,1160879.2999999523,1160879.1000000238,,1160879,,1160727.562,4,500,,
break_continue,html.Screen,10_30_2,2023-11-17T19:57:07.438Z,,,,,,,,,,,NaN,,,,,,,,high,high,,,,,,false,,,,,false,1160879.3999999762,1160879.3999999762,,1160879.2999999523,,1160727.562,4,500,,
sequence,flow.Sequence,10_30,2023-11-17T19:57:07.438Z,,,,,,,,,,,5750.559999976074,completion,,,,,,,high,high,,,,,,false,,,,,false,1160879.6000000238,1160879.3999999762,1155094.212,1155263.3999999762,1155128.84,1160727.562,4,500,,
trial,html.Screen,10_31_0,2023-11-17T19:57:23.198Z,,,,1,0.0388181790775959,-0.0049623405709465,,0.04,false,lh,15911.33799997624,response,-0.8926515927689261,0.9898329510418812,-1.0903801379454727,0.7935960767768927,0.8799052453744082,-0.9702004433340768,low,high,,ISIC_0061880.JPG,9,ISIC_8901371.JPG,29,false,0.2400000000000001,hh,keypress(i),0,false,1176639,1176638.8999999762,1160710.934,1160879.6000000238,1160727.562,1176494.246,4,500,32,
break,html.Screen,10_31_1,2023-11-17T19:57:23.198Z,,,,,,,,,,,NaN,,,,,,,,low,high,,,,,,false,,,,,false,1176639.3999999762,1176639.1999999285,,1176639,,1176494.246,4,500,,
break_continue,html.Screen,10_31_2,2023-11-17T19:57:23.198Z,,,,,,,,,,,NaN,,,,,,,,low,high,,,,,,false,,,,,false,1176639.6000000238,1176639.3999999762,,1176639.3999999762,,1176494.246,4,500,,
sequence,flow.Sequence,10_31,2023-11-17T19:57:23.198Z,,,,,,,,,,,15911.83799997624,completion,,,,,,,low,high,,,,,,false,,,,,false,1176639.6000000238,1176639.3999999762,1160710.934,1160879.6000000238,1160727.562,1176494.246,4,500,,
trial,html.Screen,10_32_0,2023-11-17T19:57:27.965Z,,,,1,-0.0118382036798625,-0.0300588245877227,,0.04,true,hl,4912.354000023799,response,1.0153439398566937,0.9898329510418812,-1.0903801379454727,-0.93001438372942,0.8799052453744082,-0.9702004433340768,high,low,,ISIC_4748605.JPG,8,ISIC_8211214.JPG,25,false,0.21000000000000008,hl,keypress(j),0,false,1181406.6999999285,1181406.6000000238,1176477.811,1176639.6000000238,1176494.246,1181260.873,4,500,33,
break,html.Screen,10_32_1,2023-11-17T19:57:27.966Z,,,,,,,,,,,NaN,,,,,,,,high,low,,,,,,false,,,,,false,1181407,1181406.8999999762,,1181406.6999999285,,1181260.873,4,500,,
break_continue,html.Screen,10_32_2,2023-11-17T19:57:27.966Z,,,,,,,,,,,NaN,,,,,,,,high,low,,,,,,false,,,,,false,1181407.1999999285,1181407.1000000238,,1181407.1000000238,,1181260.873,4,500,,
sequence,flow.Sequence,10_32,2023-11-17T19:57:27.966Z,,,,,,,,,,,4912.854000023799,completion,,,,,,,high,low,,,,,,false,,,,,false,1181407.2999999523,1181407.1000000238,1176477.811,1176639.6000000238,1176494.246,1181260.873,4,500,,
trial,html.Screen,10_33_0,2023-11-17T19:57:31.853Z,,,,1,0.0065172941585523,-0.0118857043117315,,0.04,true,lh,4033.3269999285694,response,-0.8719231363109603,0.9898329510418812,-1.0903801379454727,0.7704280220140033,0.8799052453744082,-0.9702004433340768,low,high,,ISIC_6119202.JPG,10,ISIC_0029453.JPG,29,false,0.2400000000000001,lh,keypress(e),0,false,1185294.1999999285,1185294.1999999285,1181244.335,1181407.2999999523,1181260.873,1185144.195,4,500,34,
break,html.Screen,10_33_1,2023-11-17T19:57:31.853Z,,,,,,,,,,,NaN,,,,,,,,low,high,,,,,,false,,,,,false,1185294.6000000238,1185294.5,,1185294.2999999523,,1185144.195,4,500,,
break_continue,html.Screen,10_33_2,2023-11-17T19:57:31.854Z,,,,,,,,,,,NaN,,,,,,,,low,high,,,,,,false,,,,,false,1185294.7999999523,1185294.6999999285,,1185294.6000000238,,1185144.195,4,500,,
sequence,flow.Sequence,10_33,2023-11-17T19:57:31.854Z,,,,,,,,,,,4033.8269999285694,completion,,,,,,,low,high,,,,,,false,,,,,false,1185294.7999999523,1185294.6999999285,1181244.335,1181407.2999999523,1181260.873,1185144.195,4,500,,
trial,html.Screen,10_34_0,2023-11-17T19:57:38.013Z,,,,1,-0.0286056110007553,-0.036125199756515,,0.04,true,hl,6310.104999952251,response,1.0788024398087033,0.9898329510418812,-1.0903801379454727,-0.9911875460374616,0.8799052453744082,-0.9702004433340768,high,low,,ISIC_6535558.JPG,9,ISIC_5951430.JPG,25,false,0.21000000000000008,hl,keypress(j),0,false,1191454.3999999762,1191454.2999999523,1185127.532,1185294.8999999762,1185144.195,1191310.998,4,500,35,
break,html.Screen,10_34_1,2023-11-17T19:57:38.014Z,,,,,,,,,,,NaN,,,,,,,,high,low,,,,,,false,,,,,false,1191454.7999999523,1191454.6999999285,,1191454.6000000238,,1191310.998,4,500,,
break_continue,html.Screen,10_34_2,2023-11-17T19:57:38.014Z,,,,,,,,,,,NaN,,,,,,,,high,low,,,,,,false,,,,,false,1191455,1191454.8999999762,,1191454.8999999762,,1191310.998,4,500,,
sequence,flow.Sequence,10_34,2023-11-17T19:57:38.014Z,,,,,,,,,,,6310.704999976093,completion,,,,,,,high,low,,,,,,false,,,,,false,1191455.1000000238,1191454.8999999762,1185127.532,1185294.8999999762,1185144.195,1191310.998,4,500,,
trial,html.Screen,10_35_0,2023-11-17T19:57:40.846Z,,,,1,-0.0044063257337227,-0.0172548282859886,,0.04,true,ll,2975.7019999285694,response,-1.0325421457475312,0.9898329510418812,-1.0903801379454727,-1.0219157566370058,0.8799052453744082,-0.9702004433340768,low,low,,ISIC_7413786.JPG,10,ISIC_5336548.JPG,25,false,0.1,ll,keypress(f),0,false,1194286.7999999523,1194286.6999999285,1191294.183,1191455.1000000238,1191310.998,1194144.233,4,500,36,
break,html.Screen,10_35_1,2023-11-17T19:57:40.846Z,,,,,,,,,,,NaN,,,,,,,,low,low,,,,,,false,,,,,false,1194287.1000000238,1194287,,1194286.8999999762,,1194144.233,4,500,,
break_continue,html.Screen,10_35_2,2023-11-17T19:57:40.846Z,,,,,,,,,,,NaN,,,,,,,,low,low,,,,,,false,,,,,false,1194287.2999999523,1194287.1999999285,,1194287.1999999285,,1194144.233,4,500,,
sequence,flow.Sequence,10_35,2023-11-17T19:57:40.846Z,,,,,,,,,,,2976.2019999285694,completion,,,,,,,low,low,,,,,,false,,,,,false,1194287.3999999762,1194287.1999999285,1191294.183,1191455.1000000238,1191310.998,1194144.233,4,500,,
trial,html.Screen,10_36_0,2023-11-17T19:57:43.102Z,,,,1,-0.0076984477620101,-0.0069458408496562,,0.04,false,lh,2398.566999952309,response,-1.0329549150636406,0.9898329510418812,-1.0903801379454727,1.01584100839286,0.8799052453744082,-0.9702004433340768,low,high,,ISIC_0000434.JPG,9,ISIC_0054670.JPG,29,false,0.2400000000000001,hh,keypress(i),0,false,1196542.8999999762,1196542.7999999523,1194127.458,1194287.3999999762,1194144.233,1196394.227,4,500,37,
break,html.Screen,10_36_1,2023-11-17T19:57:43.102Z,,,,,,,,,,,NaN,,,,,,,,low,high,,,,,,false,,,,,false,1196543.2999999523,1196543.1999999285,,1196543,,1196394.227,4,500,,
break_continue,html.Screen,10_36_2,2023-11-17T19:57:43.102Z,,,,,,,,,,,NaN,,,,,,,,low,high,,,,,,false,,,,,false,1196543.5,1196543.3999999762,,1196543.2999999523,,1196394.227,4,500,,
sequence,flow.Sequence,10_36,2023-11-17T19:57:43.102Z,,,,,,,,,,,2399.1669999761507,completion,,,,,,,low,high,,,,,,false,,,,,false,1196543.6000000238,1196543.3999999762,1194127.458,1194287.3999999762,1194144.233,1196394.227,4,500,,
trial,html.Screen,10_37_0,2023-11-17T19:57:50.606Z,,,,1,0.001445457736793,0.0165307427449982,,0.04,true,ll,7652.572999952361,response,-1.1018283884093611,0.9898329510418812,-1.0903801379454727,-1.053767307212406,0.8799052453744082,-0.9702004433340768,low,low,,ISIC_0027350.JPG,9,ISIC_6785249.JPG,25,false,0.1,ll,keypress(f),0,false,1204046.8999999762,1204046.7999999523,1196377.719,1196543.6000000238,1196394.227,1203911.285,4,500,38,
break,html.Screen,10_37_1,2023-11-17T19:57:50.606Z,,,,,,,,,,,NaN,,,,,,,,low,low,,,,,,false,,,,,false,1204047.2999999523,1204047.1999999285,,1204047,,1203911.285,4,500,,
break_continue,html.Screen,10_37_2,2023-11-17T19:57:50.606Z,,,,,,,,,,,NaN,,,,,,,,low,low,,,,,,false,,,,,false,1204047.5,1204047.5,,1204047.2999999523,,1203911.285,4,500,,
sequence,flow.Sequence,10_37,2023-11-17T19:57:50.606Z,,,,,,,,,,,7653.273000000045,completion,,,,,,,low,low,,,,,,false,,,,,false,1204047.6000000238,1204047.5,1196377.719,1196543.6000000238,1196394.227,1203911.285,4,500,,
