sender,sender_type,sender_id,timestamp,meta,,age,blockNo,c1,c2,condition,control_tolerance,correct,correctResponse,duration,ended_on,f1,f1_high,f1_low,f2,f2_high,f2_low,feature_level1,feature_level2,gender,img_left,img_reveal,img_right,n_target_images,practice,range_tolerance,response,response_action,selection_duration,staircase,time_commit,time_end,time_render,time_run,time_show,time_switch,total_blocks,total_trials,trialNo,url
informed_consent,html.Screen,0,2023-11-17T19:31:04.927Z,"{""labjs_version"":""20.2.4"",""labjs_build"":{""flavor"":""development"",""commit"":""f5b4a49f956347addd546a832a3327688c2c0fef""},""location"":""https://labjs.felixhenninger.com/api/labjs_preview/index.html"",""userAgent"":""Mozilla/5.0 (Windows NT 10.0; Win64; x64) AppleWebKit/537.36 (KHTML, like Gecko) Chrome/119.0.0.0 Safari/537.36"",""platform"":""Win32"",""language"":""en-US"",""locale"":""en-US"",""timeZone"":""America/Chicago"",""timezoneOffset"":360,""screen_width"":1680,""screen_height"":1050,""scroll_width"":825,""scroll_height"":888,""window_innerWidth"":825,""window_innerHeight"":936,""devicePixelRatio"":1}",,,,,,,,,,38561.98600001192,response,,,,,,,,,,,,,,,,consent,click button,,,39341.69999998808,39333.80000001192,755.035,939,771.814,39146.467,,,,{}
Demography form,html.Form,1,2023-11-17T19:31:15.663Z,,,18,,,,,,,,10931.033000000003,form submission,,,,,,,,,female,,,,,,,,,,,50077.60000002384,50077.5,39129.878,39341.89999997616,39146.467,49884.024,,,,
Welcome,html.Screen,2,2023-11-17T19:32:06.520Z,,,,,,,"[""bor"",""col""]",,,,51048.976,response,,,,,,,,,,,,,,,,continue,click button,,,100933.69999998808,100933,49867.494,50077.60000002384,49884.024,100749.702,,,,
demo_instructions,html.Screen,3,2023-11-17T19:32:55.153Z,,,,,,,,,,,48815.19799997615,response,,,,,,,,,,,,,,,,continue,click button,,,149565.5,149564.89999997616,100733.089,100933.89999997616,100749.702,149427.782,,,,
trial,html.Screen,4_0_0,2023-11-17T19:33:21.757Z,,,,0,0.9544693251394116,-1.0727539917203766,,,true,lh,26741.717999999993,response,-1.0453124399868816,1.2,-1.2,0.8986747280184286,1.2,-1.2,low,high,,ISIC_0055147.JPG,,ISIC_0013967.JPG,26,true,0.4500000000000003,lh,keypress(e),100,false,176170.10000002384,176169.5,149361.086,149565.69999998808,149427.782,176012.873,1,16,1,
sequence,flow.Sequence,4_0,2023-11-17T19:33:21.758Z,,,,,,,,,,,26741.717999999993,completion,,,,,,,low,high,,,,,,true,,,,,false,176170.89999997616,176169.5,149361.086,149565.60000002384,149427.782,176012.873,1,16,,
trial,html.Screen,4_1_0,2023-11-17T19:33:57.934Z,,,,0,0.9633172970727744,-0.8472659344792351,,,true,lh,36332.526999976166,response,-0.8034318937720549,1.2,-1.2,1.0024917298189338,1.2,-1.2,low,high,,ISIC_0067172.JPG,,ISIC_0032766.JPG,26,true,0.4500000000000003,lh,keypress(e),100,false,212345.80000001192,212345.39999997616,175979.584,176171.39999997616,176012.873,212199.935,1,16,2,
sequence,flow.Sequence,4_1,2023-11-17T19:33:57.935Z,,,,,,,,,,,36332.526999976166,completion,,,,,,,low,high,,,,,,true,,,,,false,212346.5,212345.39999997616,175979.584,176171.19999998808,176012.873,212199.935,1,16,,
trial,html.Screen,4_2_0,2023-11-17T19:34:21.288Z,,,,0,1.0116417541846066,-1.033442916947398,,,true,lh,23499.865000011923,response,-1.0453124399868816,1.2,-1.2,0.8986747280184286,1.2,-1.2,low,high,,ISIC_0031389.JPG,,ISIC_0013967.JPG,26,true,0.4500000000000003,lh,keypress(e),100,false,235700.19999998808,235699.80000001192,212166.628,212346.89999997616,212199.935,235545.402,1,16,3,
sequence,flow.Sequence,4_2,2023-11-17T19:34:21.289Z,,,,,,,,,,,23499.865000011923,completion,,,,,,,low,high,,,,,,true,,,,,false,235700.89999997616,235699.80000001192,212166.628,212346.69999998808,212199.935,235545.402,1,16,,
trial,html.Screen,4_3_0,2023-11-17T19:34:46.356Z,,,,0,1.045301444872812,-1.0872560254441277,,,true,lh,25221.797999988077,response,-0.9653573371180936,1.2,-1.2,0.854766800381037,1.2,-1.2,low,high,,ISIC_4507700.JPG,,ISIC_9640145.JPG,26,true,0.4500000000000003,lh,keypress(e),100,false,260767.69999998808,260767.19999998808,235512.081,235701.19999998808,235545.402,260594.218,1,16,4,
sequence,flow.Sequence,4_3,2023-11-17T19:34:46.357Z,,,,,,,,,,,25221.797999988077,completion,,,,,,,low,high,,,,,,true,,,,,false,260768.30000001192,260767.19999998808,235512.081,235701.10000002384,235545.402,260594.218,1,16,,
trial,html.Screen,4_4_0,2023-11-17T19:35:10.570Z,,,,0,1.268445326285509,1.173734476257662,,,true,ll,24387.582000011927,response,-0.8491741495423579,1.2,-1.2,-1.3331004828959772,1.2,-1.2,low,low,,ISIC_5216586.JPG,,ISIC_8821700.JPG,203,true,0.40000000000000024,ll,keypress(f),100,false,284981.89999997616,284981.8000000119,260577.595,260768.60000002384,260594.218,284807.945,1,16,5,
sequence,flow.Sequence,4_4,2023-11-17T19:35:10.571Z,,,,,,,,,,,24387.582000011927,completion,,,,,,,low,low,,,,,,true,,,,,false,284982.1999999881,284981.8000000119,260577.595,260768.5,260594.218,284807.945,1,16,,
trial,html.Screen,4_5_0,2023-11-17T19:35:39.031Z,,,,0,1.1668613502915044,1.327068780840367,,,true,ll,28634.054999999993,response,-1.077278111180185,1.2,-1.2,-1.1530533996184025,1.2,-1.2,low,low,,ISIC_0054459.JPG,,ISIC_9525136.JPG,25,true,0.14,ll,keypress(f),100,false,313442.39999997616,313442,284791.274,284982.39999997616,284807.945,313280.098,1,16,6,
sequence,flow.Sequence,4_5,2023-11-17T19:35:39.031Z,,,,,,,,,,,28634.054999999993,completion,,,,,,,low,low,,,,,,true,,,,,false,313443.10000002384,313442,284791.274,284982.3000000119,284807.945,313280.098,1,16,,
trial,html.Screen,4_6_0,2023-11-17T19:35:49.487Z,,,,0,1.266079261381142,1.312161506160336,,,true,ll,10618.30199997616,response,-1.252716660627398,1.2,-1.2,-1.183977080937476,1.2,-1.2,low,low,,ISIC_0065449.JPG,,ISIC_0034194.JPG,25,true,0.14,ll,keypress(f),100,false,323898.8000000119,323898.39999997616,313263.391,313443.3000000119,313280.098,323733.77,1,16,7,
sequence,flow.Sequence,4_6,2023-11-17T19:35:49.488Z,,,,,,,,,,,10618.30199997616,completion,,,,,,,low,low,,,,,,true,,,,,false,323899.39999997616,323898.39999997616,313263.391,313443.3000000119,313280.098,323733.77,1,16,,
trial,html.Screen,4_7_0,2023-11-17T19:35:55.221Z,,,,0,1.0915173513546716,1.266840220031473,,,true,ll,5897.830000023823,response,-1.3379750533585932,1.2,-1.2,-1.1671342614509763,1.2,-1.2,low,low,,ISIC_8241457.JPG,,ISIC_0063556.JPG,25,true,0.14,ll,keypress(f),100,false,329632.10000002384,329631.60000002384,323717.074,323899.60000002384,323733.77,329511.641,1,16,8,
sequence,flow.Sequence,4_7,2023-11-17T19:35:55.222Z,,,,,,,,,,,5897.830000023823,completion,,,,,,,low,low,,,,,,true,,,,,false,329632.6999999881,329631.60000002384,323717.074,323899.60000002384,323733.77,329511.641,1,16,,
trial,html.Screen,4_8_0,2023-11-17T19:36:09.906Z,,,,0,-1.0453124399868816,0.8986747280184286,,,true,hl,14805.058999988076,response,1.2081146885025262,1.2,-1.2,-1.195668832085049,1.2,-1.2,high,low,,ISIC_0013967.JPG,,ISIC_7369690.JPG,27,true,0.40000000000000024,hl,keypress(j),100,false,344316.89999997616,344316.6999999881,329444.969,329633,329511.641,344173.519,1,16,9,
sequence,flow.Sequence,4_8,2023-11-17T19:36:09.906Z,,,,,,,,,,,14805.058999988076,completion,,,,,,,high,low,,,,,,true,,,,,false,344317.1999999881,344316.6999999881,329444.969,329632.89999997616,329511.641,344173.519,1,16,,
trial,html.Screen,4_9_0,2023-11-17T19:36:19.819Z,,,,0,-1.0369885917487718,0.8486937878412699,,,true,hl,10055.78100001195,response,0.8165346395107898,1.2,-1.2,-0.7657798385266591,1.2,-1.2,high,low,,ISIC_6917681.JPG,,ISIC_2283628.JPG,40,true,0.4500000000000003,hl,keypress(j),100,false,354229.60000002384,354229.3000000119,344140.181,344317.39999997616,344173.519,354092.828,1,16,10,
sequence,flow.Sequence,4_9,2023-11-17T19:36:19.819Z,,,,,,,,,,,10055.78100001195,completion,,,,,,,high,low,,,,,,true,,,,,false,354230.39999997616,354229.3000000119,344140.181,344317.39999997616,344173.519,354092.828,1,16,,
trial,html.Screen,4_10_0,2023-11-17T19:36:34.737Z,,,,0,-1.199471562817528,0.8631260534979347,,,true,hl,15055.571999976179,response,0.9617893983965208,1.2,-1.2,-0.9453006131304652,1.2,-1.2,high,low,,ISIC_0030754.JPG,,ISIC_4229473.JPG,40,true,0.4500000000000003,hl,keypress(j),100,false,369148.60000002384,369148.39999997616,354042.844,354230.60000002384,354092.828,369005.189,1,16,11,
sequence,flow.Sequence,4_10,2023-11-17T19:36:34.738Z,,,,,,,,,,,15055.571999976179,completion,,,,,,,high,low,,,,,,true,,,,,false,369148.89999997616,369148.39999997616,354042.844,354230.5,354092.828,369005.189,1,16,,
trial,html.Screen,4_11_0,2023-11-17T19:36:42.262Z,,,,0,-0.8828738626295417,0.8288177599439582,,,true,hl,7667.911000023829,response,0.8350129142228142,1.2,-1.2,-0.8172547818270586,1.2,-1.2,high,low,,ISIC_0056041.JPG,,ISIC_0301568.JPG,40,true,0.4500000000000003,hl,keypress(j),100,false,376673.3000000119,376673.10000002384,368971.864,369149.10000002384,369005.189,376503.183,1,16,12,
sequence,flow.Sequence,4_11,2023-11-17T19:36:42.262Z,,,,,,,,,,,7667.911000023829,completion,,,,,,,high,low,,,,,,true,,,,,false,376673.5,376673.10000002384,368971.864,369149.10000002384,369005.189,376503.183,1,16,,
trial,html.Screen,4_12_0,2023-11-17T19:36:52.833Z,,,,0,-1.1989130276493527,-1.2666195460149832,,,true,hh,10739.617000011902,response,0.8214996989009526,1.2,-1.2,0.9889466964422248,1.2,-1.2,high,high,,ISIC_0031705.JPG,,ISIC_0000305.JPG,359,true,0.4500000000000003,hh,keypress(i),100,false,387243.3000000119,387242.8000000119,376486.471,376673.5,376503.183,387073.735,1,16,13,
sequence,flow.Sequence,4_12,2023-11-17T19:36:52.833Z,,,,,,,,,,,10739.617000011902,completion,,,,,,,high,high,,,,,,true,,,,,false,387244,387242.8000000119,376486.471,376673.5,376503.183,387073.735,1,16,,
trial,html.Screen,4_13_0,2023-11-17T19:37:09.453Z,,,,0,-1.274417010249866,-1.0725495669014795,,,true,hh,16789.265000000014,response,1.2033647433750492,1.2,-1.2,1.0718012192341555,1.2,-1.2,high,high,,ISIC_8849004.JPG,,ISIC_0061606.JPG,40,true,0.14,hh,keypress(i),100,false,403863.3000000119,403863,387057.114,387244.3000000119,387073.735,403689.353,1,16,14,
sequence,flow.Sequence,4_13,2023-11-17T19:37:09.453Z,,,,,,,,,,,16789.265000000014,completion,,,,,,,high,high,,,,,,true,,,,,false,403864,403863,387057.114,387244.1999999881,387073.735,403689.353,1,16,,
trial,html.Screen,4_14_0,2023-11-17T19:37:17.923Z,,,,0,-1.252716660627398,-1.183977080937476,,,true,hh,8644.247000023839,response,1.1048559518249943,1.2,-1.2,1.2252457981338687,1.2,-1.2,high,high,,ISIC_0034194.JPG,,ISIC_0060817.JPG,40,true,0.14,hh,keypress(i),100,false,412334,412333.60000002384,403672.789,403864.3000000119,403689.353,412172.624,1,16,15,
sequence,flow.Sequence,4_14,2023-11-17T19:37:17.924Z,,,,,,,,,,,8644.247000023839,completion,,,,,,,high,high,,,,,,true,,,,,false,412334.6999999881,412333.60000002384,403672.789,403864.1999999881,403689.353,412172.624,1,16,,
trial,html.Screen,4_15_0,2023-11-17T19:37:23.403Z,,,,0,-1.077278111180185,-1.1530533996184025,,,true,hh,5641.17600001191,response,1.2691569063625474,1.2,-1.2,1.1264228993232308,1.2,-1.2,high,high,,ISIC_9525136.JPG,,ISIC_4980656.JPG,40,true,0.14,hh,keypress(i),100,false,417814,417813.8000000119,412155.932,412335,412172.624,417650.148,1,16,16,
sequence,flow.Sequence,4_15,2023-11-17T19:37:23.404Z,,,,,,,,,,,5641.17600001191,completion,,,,,,,high,high,,,,,,true,,,,,false,417814.1999999881,417813.8000000119,412155.932,412334.89999997616,412172.624,417650.148,1,16,,
demonstration_loop,flow.Loop,4,2023-11-17T19:37:23.404Z,,,,,,,,,,,268386.0180000119,completion,,,,,,,,,,,,,,true,,,,,false,417814.3000000119,417813.8000000119,149361.086,149565.60000002384,149427.782,417650.148,1,16,,
practice_instructions,html.Screen,5,2023-11-17T19:38:11.571Z,,,,,,,,,,,48323.25199997617,response,,,,,,,,,,,,,,,,continue,click button,,,465981.60000002384,465973.39999997616,417633.214,417814.3000000119,417650.148,465843.684,,,,
trial,html.Screen,6_0_0,2023-11-17T19:38:26.334Z,,,,1,0.8067116931297591,-1.215898074058027,,,true,lh,14899.916000023833,response,-0.8719231363109603,1.2,-1.2,0.7704280220140033,1.2,-1.2,low,high,,ISIC_1457687.JPG,,ISIC_0029453.JPG,26,true,0.4500000000000003,lh,keypress(e),0,false,480744,480743.60000002384,465777.069,465981.6999999881,465843.684,480589.046,1,40,1,
sequence,flow.Sequence,6_0,2023-11-17T19:38:26.334Z,,,,,,,,,,,14899.916000023833,completion,,,,,,,low,high,,,,,,true,,,,,false,480744.60000002384,480743.60000002384,465777.069,465981.60000002384,465843.684,480589.046,1,40,,
trial,html.Screen,6_1_0,2023-11-17T19:38:37.725Z,,,,1,-0.9754077946987664,1.1821868813141057,,,true,hl,11546.153999988106,response,1.2020012168275056,1.2,-1.2,-0.923753102263735,1.2,-1.2,high,low,,ISIC_0024317.JPG,,ISIC_0000022.JPG,27,true,0.40000000000000024,hl,keypress(j),0,false,492135.5,492135.1999999881,480539.045,480744.8000000119,480589.046,491961.217,1,40,2,
sequence,flow.Sequence,6_1,2023-11-17T19:38:37.726Z,,,,,,,,,,,11546.153999988106,completion,,,,,,,high,low,,,,,,true,,,,,false,492136.10000002384,492135.1999999881,480539.045,480744.8000000119,480589.046,491961.217,1,40,,
trial,html.Screen,6_2_0,2023-11-17T19:38:50.133Z,,,,1,1.1441767540243375,1.0949087392471728,,,true,ll,12581.682999976154,response,-1.2724293858920366,1.2,-1.2,-1.149360738769835,1.2,-1.2,low,low,,ISIC_0054146.JPG,,ISIC_1264725.JPG,265,true,0.4500000000000003,ll,keypress(f),0,false,504543.1999999881,504542.89999997616,491944.551,492136.39999997616,491961.217,504368.763,1,40,3,
sequence,flow.Sequence,6_2,2023-11-17T19:38:50.134Z,,,,,,,,,,,12581.682999976154,completion,,,,,,,low,low,,,,,,true,,,,,false,504543.6999999881,504542.89999997616,491944.551,492136.3000000119,491961.217,504368.763,1,40,,
trial,html.Screen,6_3_0,2023-11-17T19:38:58.253Z,,,,1,-1.3246728710248594,-1.1527736000922424,,,true,hh,8294.436999988102,response,1.266079261381142,1.2,-1.2,1.312161506160336,1.2,-1.2,high,high,,ISIC_6876281.JPG,,ISIC_0065449.JPG,30,true,0.13,hh,keypress(i),0,false,512663.5,512663.1999999881,504352.107,504544.10000002384,504368.763,512484.477,1,40,4,
sequence,flow.Sequence,6_3,2023-11-17T19:38:58.254Z,,,,,,,,,,,8294.436999988102,completion,,,,,,,high,high,,,,,,true,,,,,false,512664.1999999881,512663.1999999881,504352.107,504544,504368.763,512484.477,1,40,,
trial,html.Screen,6_4_0,2023-11-17T19:39:05.837Z,,,,1,1.1243896694621007,1.1772340944704969,,,true,ll,7762.323000011907,response,-1.2600330864275875,1.2,-1.2,-1.0958628838888655,1.2,-1.2,low,low,,ISIC_0062765.JPG,,ISIC_0026996.JPG,25,true,0.14,ll,keypress(f),0,false,520247.10000002384,520246.8000000119,512467.931,512664.5,512484.477,520099.285,1,40,5,
sequence,flow.Sequence,6_4,2023-11-17T19:39:05.838Z,,,,,,,,,,,7762.323000011907,completion,,,,,,,low,low,,,,,,true,,,,,false,520247.6999999881,520246.8000000119,512467.931,512664.39999997616,512484.477,520099.285,1,40,,
trial,html.Screen,6_5_0,2023-11-17T19:39:18.159Z,,,,1,1.168911077628813,-1.2181838235193114,,,true,lh,12468.315000023867,response,-1.2578167348825195,1.2,-1.2,0.8371819698254004,1.2,-1.2,low,high,,ISIC_7358691.JPG,,ISIC_9613570.JPG,26,true,0.4500000000000003,lh,keypress(e),0,false,532568,532567.6000000238,520049.38,520247.89999997616,520099.285,532406.579,1,40,6,
sequence,flow.Sequence,6_5,2023-11-17T19:39:18.159Z,,,,,,,,,,,12468.315000023867,completion,,,,,,,low,high,,,,,,true,,,,,false,532568.8999999762,532567.6000000238,520049.38,520247.89999997616,520099.285,532406.579,1,40,,
trial,html.Screen,6_6_0,2023-11-17T19:39:29.782Z,,,,1,-0.9653573371180936,0.854766800381037,,,true,hl,11784.820999976131,response,0.90812608370647,1.2,-1.2,-1.2720026872926935,1.2,-1.2,high,low,,ISIC_9640145.JPG,,ISIC_0450295.JPG,27,true,0.40000000000000024,hl,keypress(j),0,false,544191.8000000119,544191.3999999762,532373.307,532569.3000000119,532406.579,544012.511,1,40,7,
sequence,flow.Sequence,6_6,2023-11-17T19:39:29.783Z,,,,,,,,,,,11784.820999976131,completion,,,,,,,high,low,,,,,,true,,,,,false,544192.3000000119,544191.3999999762,532373.307,532569.1999999881,532406.579,544012.511,1,40,,
trial,html.Screen,6_7_0,2023-11-17T19:39:38.886Z,,,,1,-1.0943527860463682,-1.124481746658104,,,true,hh,9282.388999976101,response,0.8932499910364976,1.2,-1.2,1.0367498890350624,1.2,-1.2,high,high,,ISIC_0438136.JPG,,ISIC_0030106.JPG,359,true,0.4500000000000003,hh,keypress(i),0,false,553295.3000000119,553294.8999999762,543995.914,544192.5,544012.511,553180.348,1,40,8,
sequence,flow.Sequence,6_7,2023-11-17T19:39:38.886Z,,,,,,,,,,,9282.388999976101,completion,,,,,,,high,high,,,,,,true,,,,,false,553295.8000000119,553294.8999999762,543995.914,544192.3999999762,544012.511,553180.348,1,40,,
trial,html.Screen,6_8_0,2023-11-17T19:39:48.804Z,,,,1,-0.8830264383952469,0.8635562538060516,,,true,hl,10033.152000000002,response,1.2020012168275056,1.2,-1.2,-0.923753102263735,1.2,-1.2,high,low,,ISIC_0032258.JPG,,ISIC_0000022.JPG,27,true,0.40000000000000024,hl,keypress(j),0,false,563213.6000000238,563213.5,553097.006,553296.1000000238,553180.348,563032.854,1,40,9,
sequence,flow.Sequence,6_8,2023-11-17T19:39:48.804Z,,,,,,,,,,,10033.152000000002,completion,,,,,,,high,low,,,,,,true,,,,,false,563213.8000000119,563213.5,553097.006,553296,553180.348,563032.854,1,40,,
trial,html.Screen,6_9_0,2023-11-17T19:39:54.677Z,,,,1,-1.1870093485714288,-1.3339880978442629,,,true,hh,6053.246000023792,response,1.1392972253022884,1.2,-1.2,1.208510423375335,1.2,-1.2,high,high,,ISIC_8592235.JPG,,ISIC_0046526.JPG,359,true,0.4500000000000003,hh,keypress(i),0,false,569086.3999999762,569086.1000000238,563016.311,563213.8000000119,563032.854,568944.331,1,40,10,
sequence,flow.Sequence,6_9,2023-11-17T19:39:54.677Z,,,,,,,,,,,6053.246000023792,completion,,,,,,,high,high,,,,,,true,,,,,false,569086.6999999881,569086.1000000238,563016.311,563213.8000000119,563032.854,568944.331,1,40,,
trial,html.Screen,6_10_0,2023-11-17T19:40:06.844Z,,,,1,0.9662688541319592,-0.929746784178986,,,true,lh,12309.368999988073,response,-0.9653573371180936,1.2,-1.2,0.854766800381037,1.2,-1.2,low,high,,ISIC_0011077.JPG,,ISIC_9640145.JPG,26,true,0.4500000000000003,lh,keypress(e),0,false,581253.8000000119,581253.6999999881,568894.243,569086.8999999762,568944.331,581084.676,1,40,11,
sequence,flow.Sequence,6_10,2023-11-17T19:40:06.844Z,,,,,,,,,,,12309.368999988073,completion,,,,,,,low,high,,,,,,true,,,,,false,581253.8999999762,581253.6999999881,568894.243,569086.8999999762,568944.331,581084.676,1,40,,
trial,html.Screen,6_11_0,2023-11-17T19:40:15.142Z,,,,1,-1.0329549150636406,1.01584100839286,,,true,hl,8466.22399997618,response,1.168911077628813,1.2,-1.2,-1.2181838235193114,1.2,-1.2,high,low,,ISIC_0054670.JPG,,ISIC_7358691.JPG,27,true,0.40000000000000024,hl,keypress(j),0,false,589551.1999999881,589550.8999999762,581051.371,581253.8999999762,581084.676,589367.464,1,40,12,
sequence,flow.Sequence,6_11,2023-11-17T19:40:15.142Z,,,,,,,,,,,8466.22399997618,completion,,,,,,,high,low,,,,,,true,,,,,false,589551.6000000238,589550.8999999762,581051.371,581253.8999999762,581084.676,589367.464,1,40,,
trial,html.Screen,6_12_0,2023-11-17T19:40:23.438Z,,,,1,1.0915173513546716,1.266840220031473,,,true,ll,8479.636000023806,response,-0.9000661178885296,1.2,-1.2,-1.086658647698992,1.2,-1.2,low,low,,ISIC_8241457.JPG,,ISIC_7407847.JPG,265,true,0.4500000000000003,ll,keypress(f),0,false,597847.3999999762,597847.1000000238,589350.692,589552,589367.464,597666.93,1,40,13,
sequence,flow.Sequence,6_12,2023-11-17T19:40:23.439Z,,,,,,,,,,,8479.636000023806,completion,,,,,,,low,low,,,,,,true,,,,,false,597847.8999999762,597847.1000000238,589350.692,589551.8999999762,589367.464,597666.93,1,40,,
trial,html.Screen,6_13_0,2023-11-17T19:40:33.110Z,,,,1,1.2033647433750492,1.0718012192341555,,,true,ll,9852.069999999949,response,-1.1843968275545205,1.2,-1.2,-1.2828739728067764,1.2,-1.2,low,low,,ISIC_0061606.JPG,,ISIC_0002901.JPG,25,true,0.14,ll,keypress(f),0,false,607519.3999999762,607519,597650.342,597848.1999999881,597666.93,607335.769,1,40,14,
sequence,flow.Sequence,6_13,2023-11-17T19:40:33.111Z,,,,,,,,,,,9852.069999999949,completion,,,,,,,low,low,,,,,,true,,,,,false,607519.8999999762,607519,597650.342,597848.1000000238,597666.93,607335.769,1,40,,
trial,html.Screen,6_14_0,2023-11-17T19:40:38.543Z,,,,1,-1.2946277435220357,-1.255157480204324,,,true,hh,5615.53100001195,response,1.2691569063625474,1.2,-1.2,1.1264228993232308,1.2,-1.2,high,high,,ISIC_1870309.JPG,,ISIC_4980656.JPG,30,true,0.13,hh,keypress(i),0,false,612951.6000000238,612951.3000000119,607319.2,607520.1000000238,607335.769,612813.083,1,40,15,
sequence,flow.Sequence,6_14,2023-11-17T19:40:38.543Z,,,,,,,,,,,5615.53100001195,completion,,,,,,,high,high,,,,,,true,,,,,false,612952.1999999881,612951.3000000119,607319.2,607520.1000000238,607335.769,612813.083,1,40,,
trial,html.Screen,6_15_0,2023-11-17T19:40:48.230Z,,,,1,-0.8719231363109603,0.7704280220140033,,,true,hl,9826.017000023858,response,0.8307508446051526,1.2,-1.2,-1.1707575338936729,1.2,-1.2,high,low,,ISIC_0029453.JPG,,ISIC_0028606.JPG,27,true,0.40000000000000024,hl,keypress(j),0,false,622639.3999999762,622639.1000000238,612746.516,612952.5,612813.083,622465.218,1,40,16,
sequence,flow.Sequence,6_15,2023-11-17T19:40:48.231Z,,,,,,,,,,,9826.017000023858,completion,,,,,,,high,low,,,,,,true,,,,,false,622640,622639.1000000238,612746.516,612952.3999999762,612813.083,622465.218,1,40,,
trial,html.Screen,6_16_0,2023-11-17T19:41:01.317Z,,,,1,1.168911077628813,-1.2181838235193114,,,true,lh,13260.882000023848,response,-0.8472024037189965,1.2,-1.2,0.986370061404882,1.2,-1.2,low,high,,ISIC_7358691.JPG,,ISIC_0054355.JPG,26,true,0.4500000000000003,lh,keypress(e),0,false,635726.3000000119,635726.1000000238,622448.667,622640.1999999881,622465.218,635574.037,1,40,17,
sequence,flow.Sequence,6_16,2023-11-17T19:41:01.317Z,,,,,,,,,,,13260.882000023848,completion,,,,,,,low,high,,,,,,true,,,,,false,635726.5,635726.1000000238,622448.667,622640.1000000238,622465.218,635574.037,1,40,,
trial,html.Screen,6_17_0,2023-11-17T19:41:10.302Z,,,,1,0.9138670886161264,-0.8414121478342018,,,true,lh,9136.962999999989,response,-1.2578167348825195,1.2,-1.2,0.8371819698254004,1.2,-1.2,low,high,,ISIC_6709052.JPG,,ISIC_9613570.JPG,26,true,0.4500000000000003,lh,keypress(e),0,false,644711.3000000119,644711,635524.108,635726.5,635574.037,644524.822,1,40,18,
sequence,flow.Sequence,6_17,2023-11-17T19:41:10.303Z,,,,,,,,,,,9136.962999999989,completion,,,,,,,low,high,,,,,,true,,,,,false,644711.8000000119,644711,635524.108,635726.5,635574.037,644524.822,1,40,,
trial,html.Screen,6_18_0,2023-11-17T19:41:19.335Z,,,,1,-1.151139267005652,-1.0838749490501327,,,true,hh,9218.478000011877,response,1.1392972253022884,1.2,-1.2,1.208510423375335,1.2,-1.2,high,high,,ISIC_0002566.JPG,,ISIC_0046526.JPG,288,true,0.40000000000000024,hh,keypress(i),0,false,653743.6000000238,653743.3000000119,644508.275,644712,644524.822,653592.463,1,40,19,
sequence,flow.Sequence,6_18,2023-11-17T19:41:19.335Z,,,,,,,,,,,9218.478000011877,completion,,,,,,,high,high,,,,,,true,,,,,false,653744.1999999881,653743.3000000119,644508.275,644712,644524.822,653592.463,1,40,,
trial,html.Screen,6_19_0,2023-11-17T19:41:32.143Z,,,,1,-0.7518277461369444,1.3860759020802074,,,true,hl,12958.93699997617,response,1.0116417541846066,1.2,-1.2,-1.033442916947398,1.2,-1.2,high,low,,ISIC_7967397.JPG,,ISIC_0031389.JPG,27,true,0.40000000000000024,hl,keypress(j),0,false,666551.6000000238,666551.3999999762,653542.531,653744.5,653592.463,666384.045,1,40,20,
sequence,flow.Sequence,6_19,2023-11-17T19:41:32.143Z,,,,,,,,,,,12958.93699997617,completion,,,,,,,high,low,,,,,,true,,,,,false,666552.1999999881,666551.3999999762,653542.531,653744.3999999762,653592.463,666384.045,1,40,,
trial,html.Screen,6_20_0,2023-11-17T19:41:47.455Z,,,,1,0.8047295996345292,-1.551750455622795,,,true,lh,15479.154999988037,response,-1.0369885917487718,1.2,-1.2,0.8486937878412699,1.2,-1.2,low,high,,ISIC_7717907.JPG,,ISIC_6917681.JPG,26,true,0.4500000000000003,lh,keypress(e),0,false,681863.6000000238,681863.1999999881,666350.759,666552.3999999762,666384.045,681680.495,1,40,21,
sequence,flow.Sequence,6_20,2023-11-17T19:41:47.455Z,,,,,,,,,,,15479.154999988037,completion,,,,,,,low,high,,,,,,true,,,,,false,681864.1000000238,681863.1999999881,666350.759,666552.3999999762,666384.045,681680.495,1,40,,
trial,html.Screen,6_21_0,2023-11-17T19:41:56.327Z,,,,1,1.2691569063625474,1.1264228993232308,,,true,ll,9054.805000011926,response,-0.9003340164453637,1.2,-1.2,-1.1325150153239834,1.2,-1.2,low,low,,ISIC_4980656.JPG,,ISIC_5287679.JPG,203,true,0.40000000000000024,ll,keypress(f),0,false,690735.6000000238,690735.3000000119,681663.868,681864.3999999762,681680.495,690547.736,1,40,22,
sequence,flow.Sequence,6_21,2023-11-17T19:41:56.327Z,,,,,,,,,,,9054.805000011926,completion,,,,,,,low,low,,,,,,true,,,,,false,690736.1000000238,690735.3000000119,681663.868,681864.3000000119,681680.495,690547.736,1,40,,
trial,html.Screen,6_22_0,2023-11-17T19:42:07.623Z,,,,1,1.2691569063625474,1.1264228993232308,,,true,ll,11483.463999988046,response,-1.2100527057059796,1.2,-1.2,-1.2159112471537263,1.2,-1.2,low,low,,ISIC_4980656.JPG,,ISIC_0008055.JPG,25,true,0.14,ll,keypress(f),0,false,702031.5,702031.1999999881,690531.209,690736.3999999762,690547.736,701853.046,1,40,23,
sequence,flow.Sequence,6_22,2023-11-17T19:42:07.623Z,,,,,,,,,,,11483.463999988046,completion,,,,,,,low,low,,,,,,true,,,,,false,702032,702031.1999999881,690531.209,690736.3000000119,690547.736,701853.046,1,40,,
trial,html.Screen,6_23_0,2023-11-17T19:42:15.783Z,,,,1,-1.2804054832904397,-1.171271535505083,,,true,hh,8337.853999976185,response,1.0865209011322887,1.2,-1.2,1.1401461171952545,1.2,-1.2,high,high,,ISIC_7889838.JPG,,ISIC_0016145.JPG,30,true,0.13,hh,keypress(i),0,false,710191.1999999881,710190.8999999762,701836.501,702032.1000000238,701853.046,710002.355,1,40,24,
sequence,flow.Sequence,6_23,2023-11-17T19:42:15.783Z,,,,,,,,,,,8337.853999976185,completion,,,,,,,high,high,,,,,,true,,,,,false,710191.6999999881,710190.8999999762,701836.501,702032.1000000238,701853.046,710002.355,1,40,,
trial,html.Screen,6_24_0,2023-11-17T19:42:22.927Z,,,,1,1.2749714218614645,1.1578619398362149,,,true,ll,7332.94500001194,response,-1.3379750533585932,1.2,-1.2,-1.1671342614509763,1.2,-1.2,low,low,,ISIC_0024999.JPG,,ISIC_0063556.JPG,25,true,0.14,ll,keypress(f),0,false,717335.6000000238,717335.3000000119,709985.762,710191.8999999762,710002.355,717199.61,1,40,25,
sequence,flow.Sequence,6_24,2023-11-17T19:42:22.928Z,,,,,,,,,,,7332.94500001194,completion,,,,,,,low,low,,,,,,true,,,,,false,717336.1999999881,717335.3000000119,709985.762,710191.8999999762,710002.355,717199.61,1,40,,
trial,html.Screen,6_25_0,2023-11-17T19:42:36.799Z,,,,1,1.2020012168275056,-0.923753102263735,,,true,lh,14007.789999976172,response,-1.199471562817528,1.2,-1.2,0.8631260534979347,1.2,-1.2,low,high,,ISIC_0000022.JPG,,ISIC_0030754.JPG,26,true,0.4500000000000003,lh,keypress(e),0,false,731207.6999999881,731207.3999999762,717132.967,717336.3999999762,717199.61,731026.537,1,40,26,
sequence,flow.Sequence,6_25,2023-11-17T19:42:36.800Z,,,,,,,,,,,14007.789999976172,completion,,,,,,,low,high,,,,,,true,,,,,false,731208.3000000119,731207.3999999762,717132.967,717336.3999999762,717199.61,731026.537,1,40,,
trial,html.Screen,6_26_0,2023-11-17T19:42:45.351Z,,,,1,-1.2804054832904397,-1.171271535505083,,,true,hh,8732.362999976147,response,1.3343792466249569,1.2,-1.2,0.9998679601141596,1.2,-1.2,high,high,,ISIC_7889838.JPG,,ISIC_0069411.JPG,288,true,0.40000000000000024,hh,keypress(i),0,false,739759.1999999881,739758.8999999762,731009.921,731208.6000000238,731026.537,739576.512,1,40,27,
sequence,flow.Sequence,6_26,2023-11-17T19:42:45.351Z,,,,,,,,,,,8732.362999976147,completion,,,,,,,high,high,,,,,,true,,,,,false,739759.8000000119,739758.8999999762,731009.921,731208.5,731026.537,739576.512,1,40,,
trial,html.Screen,6_27_0,2023-11-17T19:42:50.351Z,,,,1,-1.160746324899676,-1.1927876559115576,,,true,hh,5182.788000011933,response,1.2194553326562725,1.2,-1.2,1.2381726989215684,1.2,-1.2,high,high,,ISIC_8651053.JPG,,ISIC_0068975.JPG,40,true,0.14,hh,keypress(i),0,false,744759.6999999881,744759.3000000119,739559.726,739760,739576.512,744603.019,1,40,28,
sequence,flow.Sequence,6_27,2023-11-17T19:42:50.352Z,,,,,,,,,,,5182.788000011933,completion,,,,,,,high,high,,,,,,true,,,,,false,744760.3000000119,744759.3000000119,739559.726,739760,739576.512,744603.019,1,40,,
trial,html.Screen,6_28_0,2023-11-17T19:42:54.711Z,,,,1,-1.274417010249866,-1.0725495669014795,,,true,hh,4515.880999976187,response,1.2033647433750492,1.2,-1.2,1.0718012192341555,1.2,-1.2,high,high,,ISIC_8849004.JPG,,ISIC_0061606.JPG,40,true,0.14,hh,keypress(i),0,false,749119.3000000119,749118.8999999762,744586.246,744760.5,744603.019,748944.977,1,40,29,
sequence,flow.Sequence,6_28,2023-11-17T19:42:54.711Z,,,,,,,,,,,4515.880999976187,completion,,,,,,,high,high,,,,,,true,,,,,false,749119.8000000119,749118.8999999762,744586.246,744760.5,744603.019,748944.977,1,40,,
trial,html.Screen,6_29_0,2023-11-17T19:43:03.446Z,,,,1,1.1243896694621007,1.1772340944704969,,,true,ll,8909.023000000045,response,-1.2724293858920366,1.2,-1.2,-1.149360738769835,1.2,-1.2,low,low,,ISIC_0062765.JPG,,ISIC_1264725.JPG,25,true,0.14,ll,keypress(f),0,false,757854.1000000238,757854,748928.214,749120,748944.977,757711.78,1,40,30,
sequence,flow.Sequence,6_29,2023-11-17T19:43:03.446Z,,,,,,,,,,,8909.023000000045,completion,,,,,,,low,low,,,,,,true,,,,,false,757854.3000000119,757854,748928.214,749120,748944.977,757711.78,1,40,,
trial,html.Screen,6_30_0,2023-11-17T19:43:19.293Z,,,,1,-0.8926515927689261,0.7935960767768927,,,,,15814.224999999977,timeout,1.0116417541846066,1.2,-1.2,-1.033442916947398,1.2,-1.2,high,low,,ISIC_8901371.JPG,,ISIC_0031389.JPG,27,true,0.40000000000000024,,,0,false,773701.1999999881,773700.8999999762,757661.781,757854.3000000119,757711.78,773526.005,1,40,31,
sequence,flow.Sequence,6_30,2023-11-17T19:43:19.294Z,,,,,,,,,,,15989.11999997613,completion,,,,,,,high,low,,,,,,true,,,,,false,773701.8000000119,773700.8999999762,757661.781,757854.3000000119,757711.78,773526.005,1,40,,
trial,html.Screen,6_31_0,2023-11-17T19:43:29.167Z,,,,1,-1.077278111180185,-1.1530533996184025,,,true,hh,10049.095000023837,response,0.9506660770270554,1.2,-1.2,0.8543483016673109,1.2,-1.2,high,high,,ISIC_9525136.JPG,,ISIC_0053469.JPG,359,true,0.4500000000000003,hh,keypress(i),0,false,783575.3999999762,783575.1000000238,773509.458,773702,773526.005,783395.221,1,40,32,
sequence,flow.Sequence,6_31,2023-11-17T19:43:29.168Z,,,,,,,,,,,10049.095000023837,completion,,,,,,,high,high,,,,,,true,,,,,false,783576,783575.1000000238,773509.458,773702,773526.005,783395.221,1,40,,
trial,html.Screen,6_32_0,2023-11-17T19:43:36.119Z,,,,1,1.1302628852630028,1.288906469447243,,,true,ll,7131.879000023822,response,-1.2724293858920366,1.2,-1.2,-1.149360738769835,1.2,-1.2,low,low,,ISIC_0071050.JPG,,ISIC_1264725.JPG,25,true,0.14,ll,keypress(f),0,false,790527.3999999762,790527.1000000238,783378.521,783576.1999999881,783395.221,790392.079,1,40,33,
sequence,flow.Sequence,6_32,2023-11-17T19:43:36.120Z,,,,,,,,,,,7131.879000023822,completion,,,,,,,low,low,,,,,,true,,,,,false,790528,790527.1000000238,783378.521,783576.1999999881,783395.221,790392.079,1,40,,
trial,html.Screen,6_33_0,2023-11-17T19:43:42.863Z,,,,1,-0.7991459998473059,1.0280788723474688,,,true,hl,6879.021000023815,response,0.90812608370647,1.2,-1.2,-1.2720026872926935,1.2,-1.2,high,low,,ISIC_7951202.JPG,,ISIC_0450295.JPG,27,true,0.40000000000000024,hl,keypress(j),0,false,797271.5,797271.1000000238,790325.403,790528.1999999881,790392.079,797105.153,1,40,34,
sequence,flow.Sequence,6_33,2023-11-17T19:43:42.864Z,,,,,,,,,,,6879.021000023815,completion,,,,,,,high,low,,,,,,true,,,,,false,797272,797271.1000000238,790325.403,790528.1999999881,790392.079,797105.153,1,40,,
trial,html.Screen,6_34_0,2023-11-17T19:43:52.544Z,,,,1,0.8987343013179191,-0.8149073454566363,,,true,lh,9846.34699999995,response,-1.0453124399868816,1.2,-1.2,0.8986747280184286,1.2,-1.2,low,high,,ISIC_0472513.JPG,,ISIC_0013967.JPG,26,true,0.4500000000000003,lh,keypress(e),0,false,806951.8000000119,806951.5,797071.923,797272.1999999881,797105.153,806790.66,1,40,35,
sequence,flow.Sequence,6_34,2023-11-17T19:43:52.544Z,,,,,,,,,,,9846.34699999995,completion,,,,,,,low,high,,,,,,true,,,,,false,806952.3000000119,806951.5,797071.923,797272.1000000238,797105.153,806790.66,1,40,,
trial,html.Screen,6_35_0,2023-11-17T19:44:05.056Z,,,,1,0.9544693251394116,-1.0727539917203766,,,true,lh,12672.640000011888,response,-0.8828738626295417,1.2,-1.2,0.8288177599439582,1.2,-1.2,low,high,,ISIC_0055147.JPG,,ISIC_0056041.JPG,26,true,0.4500000000000003,lh,keypress(e),0,false,819463.6000000238,819463.3000000119,806757.429,806952.5,806790.66,819298.348,1,40,36,
sequence,flow.Sequence,6_35,2023-11-17T19:44:05.056Z,,,,,,,,,,,12672.640000011888,completion,,,,,,,low,high,,,,,,true,,,,,false,819464.1000000238,819463.3000000119,806757.429,806952.5,806790.66,819298.348,1,40,,
trial,html.Screen,6_36_0,2023-11-17T19:44:15.312Z,,,,1,0.9244148283103414,-0.9712966348713286,,,true,lh,10421.05199997616,response,-0.7882758084023446,1.2,-1.2,0.8296405881378283,1.2,-1.2,low,high,,ISIC_7927525.JPG,,ISIC_0065882.JPG,26,true,0.4500000000000003,lh,keypress(e),0,false,829719.8000000119,829719.3999999762,819264.835,819464.3000000119,819298.348,829585.029,1,40,37,
sequence,flow.Sequence,6_36,2023-11-17T19:44:15.312Z,,,,,,,,,,,10421.05199997616,completion,,,,,,,low,high,,,,,,true,,,,,false,829720.1999999881,829719.3999999762,819264.835,819464.3000000119,819298.348,829585.029,1,40,,
trial,html.Screen,6_37_0,2023-11-17T19:44:26.600Z,,,,1,-0.8513427412482127,0.9295303568095064,,,true,hl,11422.27100001194,response,1.0116417541846066,1.2,-1.2,-1.033442916947398,1.2,-1.2,high,low,,ISIC_0034164.JPG,,ISIC_0031389.JPG,27,true,0.40000000000000024,hl,keypress(j),0,false,841007.6000000238,841007.3000000119,829518.359,829720.5,829585.029,840823.676,1,40,38,
sequence,flow.Sequence,6_37,2023-11-17T19:44:26.600Z,,,,,,,,,,,11422.27100001194,completion,,,,,,,high,low,,,,,,true,,,,,false,841008,841007.3000000119,829518.359,829720.3999999762,829585.029,840823.676,1,40,,
trial,html.Screen,6_38_0,2023-11-17T19:44:33.032Z,,,,1,1.236306205926646,1.116612676102794,,,true,ll,6615.523999988101,response,-0.9672217489045032,1.2,-1.2,-0.8148676897881278,1.2,-1.2,low,low,,ISIC_0054341.JPG,,ISIC_0010358.JPG,265,true,0.4500000000000003,ll,keypress(f),0,false,847439.5,847439.1999999881,840807.006,841008.3000000119,840823.676,847302.85,1,40,39,
sequence,flow.Sequence,6_38,2023-11-17T19:44:33.032Z,,,,,,,,,,,6615.523999988101,completion,,,,,,,low,low,,,,,,true,,,,,false,847440.1000000238,847439.1999999881,840807.006,841008.1999999881,840823.676,847302.85,1,40,,
trial,html.Screen,6_39_0,2023-11-17T19:44:40.000Z,,,,1,-0.7518277461369444,1.3860759020802074,,,true,hl,7104.549999976181,response,0.9662688541319592,1.2,-1.2,-0.929746784178986,1.2,-1.2,high,low,,ISIC_7967397.JPG,,ISIC_0011077.JPG,27,true,0.40000000000000024,hl,keypress(j),0,false,854407.6999999881,854407.3999999762,847236.238,847440.3000000119,847302.85,854233.083,1,40,40,
sequence,flow.Sequence,6_39,2023-11-17T19:44:40.000Z,,,,,,,,,,,7104.549999976181,completion,,,,,,,high,low,,,,,,true,,,,,false,854408.1999999881,854407.3999999762,847236.238,847440.1999999881,847302.85,854233.083,1,40,,
practice_loop,flow.Loop,6,2023-11-17T19:44:40.001Z,,,,,,,,,,,388563.71599997615,completion,,,,,,,,,,,,,,true,,,,,false,854408.5,854407.3999999762,465777.069,465981.60000002384,465843.684,854233.083,1,40,,
stair_instructions,html.Screen,7,2023-11-17T19:45:25.287Z,,,,,,,,,,,45460.71700001194,response,,,,,,,,,,,,,,,,continue,click button,,,899694.3000000119,899693.8000000119,854216.46,854408.6999999881,854233.083,899504.484,,,,
trial,html.Screen,8_0_0,2023-11-17T19:45:36.266Z,,,,2,-0.0367706518941078,0.0161069838272154,,0.04,false,ll,11168.116000023787,response,-0.8379442136072591,1.2,-1.2,-0.8260692529258827,1.2,-1.2,low,low,,ISIC_0033419.JPG,,ISIC_0013213.JPG,265,false,0.4500000000000003,hl,keypress(j),0,true,910673,910672.6000000238,899487.975,899694.5,899504.484,910509.222,1,40,1,
sequence,flow.Sequence,8_0,2023-11-17T19:45:36.266Z,,,,,,,,,,,11168.116000023787,completion,,,,,,,low,low,,,,,,false,,,,,true,910673.6000000238,910672.6000000238,899487.975,899694.5,899504.484,910509.222,1,40,,
trial,html.Screen,8_1_0,2023-11-17T19:45:41.384Z,,,,2,-0.0044063257337227,-0.0172548282859886,,0.04,false,lh,5282.278000000049,response,-1.2362557973341337,1.15,-1.2,1.2548266183352603,1.15,-1.15,low,high,,ISIC_7413786.JPG,,ISIC_0033886.JPG,28,false,0.42000000000000026,ll,keypress(f),0,true,915791.8000000119,915791.5,910492.534,910673.8999999762,910509.222,915619.746,1,40,2,
sequence,flow.Sequence,8_1,2023-11-17T19:45:41.385Z,,,,,,,,,,,5282.278000000049,completion,,,,,,,low,high,,,,,,false,,,,,true,915792.3000000119,915791.5,910492.534,910673.8000000119,910509.222,915619.746,1,40,,
trial,html.Screen,8_2_0,2023-11-17T19:45:50.345Z,,,,2,-0.0200295718112167,-0.0155559071275806,,0.04,false,hl,9131.953999988036,response,0.8987343013179191,1.15,-1.15,-0.8149073454566363,1.15,-1.15,high,low,,ISIC_0061343.JPG,,ISIC_0472513.JPG,26,false,0.3500000000000002,ll,keypress(f),0,true,924752.1000000238,924751.6999999881,915585.991,915792.6000000238,915619.746,924586.625,1,40,3,
sequence,flow.Sequence,8_2,2023-11-17T19:45:50.345Z,,,,,,,,,,,9131.953999988036,completion,,,,,,,high,low,,,,,,false,,,,,true,924752.5,924751.6999999881,915585.991,915792.5,915619.746,924586.625,1,40,,
trial,html.Screen,8_3_0,2023-11-17T19:45:58.488Z,,,,2,-0.0308384937406319,0.0038396364323947,,0.04,true,lh,8308.875,response,-1.075512775389519,1.15,-1.15,1.0454702683049502,1.15,-0.975581571395385,low,high,,ISIC_0029825.JPG,,ISIC_0033603.JPG,26,false,0.40000000000000024,lh,keypress(e),0,true,932895.8000000119,932895.5,924553.4,924752.8000000119,924586.625,932735.822,1,40,4,
sequence,flow.Sequence,8_3,2023-11-17T19:45:58.489Z,,,,,,,,,,,8308.875,completion,,,,,,,low,high,,,,,,false,,,,,true,932896.3999999762,932895.5,924553.4,924752.8000000119,924586.625,932735.822,1,40,,
trial,html.Screen,8_4_0,2023-11-17T19:46:06.640Z,,,,2,-0.0076984477620101,-0.0069458408496562,,0.04,false,lh,8311.577999976114,response,-0.8830264383952469,1.15,-1.0999999999999999,0.8635562538060516,1.15,-0.975581571395385,low,high,,ISIC_0000434.JPG,,ISIC_0032258.JPG,27,false,0.3800000000000002,ll,keypress(f),0,true,941047.6000000238,941047.3999999762,932702.57,932896.6000000238,932735.822,940868.354,1,40,5,
sequence,flow.Sequence,8_4,2023-11-17T19:46:06.641Z,,,,,,,,,,,8311.577999976114,completion,,,,,,,low,high,,,,,,false,,,,,true,941048.1000000238,941047.3999999762,932702.57,932896.5,932735.822,940868.354,1,40,,
trial,html.Screen,8_5_0,2023-11-17T19:46:13.312Z,,,,2,0.0241900387072296,-0.0339955304424736,,0.04,true,hh,6851.14599999995,response,1.0605529903237636,1.15,-1.0999999999999999,1.1183115777058938,1.15,-0.975581571395385,high,high,,ISIC_0010789.JPG,,ISIC_0011365.JPG,27,false,0.1,hh,keypress(i),0,true,947719.6999999881,947719.5,940851.832,941048.3000000119,940868.354,947531.385,1,40,6,
sequence,flow.Sequence,8_5,2023-11-17T19:46:13.313Z,,,,,,,,,,,6851.14599999995,completion,,,,,,,high,high,,,,,,false,,,,,true,947720.3000000119,947719.5,940851.832,941048.3000000119,940868.354,947531.385,1,40,,
trial,html.Screen,8_6_0,2023-11-17T19:46:22.072Z,,,,2,-0.0283578106329894,0.0088840758711548,,0.04,false,ll,8948.11499999999,response,-1.0122348575830964,1.15,-1.0999999999999999,-1.007833368115011,1.15,-0.975581571395385,low,low,,ISIC_0060707.JPG,,ISIC_8145260.JPG,25,false,0.1,hl,keypress(j),0,true,956479.8000000119,956479.5,947514.706,947720.6000000238,947531.385,956315.028,1,40,7,
sequence,flow.Sequence,8_6,2023-11-17T19:46:22.073Z,,,,,,,,,,,8948.11499999999,completion,,,,,,,low,low,,,,,,false,,,,,true,956480.3000000119,956479.5,947514.706,947720.5,947531.385,956315.028,1,40,,
trial,html.Screen,8_7_0,2023-11-17T19:46:33.873Z,,,,2,-0.0308384937406319,0.0038396364323947,,0.04,false,lh,11964.572000023792,response,-1.199471562817528,1.15,-1.15,0.8631260534979347,1.15,-0.975581571395385,low,high,,ISIC_0029825.JPG,,ISIC_0030754.JPG,26,false,0.40000000000000024,hh,keypress(i),0,true,968280,968279.6000000238,956281.738,956480.6000000238,956315.028,968104.681,1,40,8,
sequence,flow.Sequence,8_7,2023-11-17T19:46:33.873Z,,,,,,,,,,,11964.572000023792,completion,,,,,,,low,high,,,,,,false,,,,,true,968280.6000000238,968279.6000000238,956281.738,956480.5,956315.028,968104.681,1,40,,
trial,html.Screen,8_8_0,2023-11-17T19:46:40.624Z,,,,2,-0.0009714874637896,0.0174815595031679,,0.04,false,hl,6926.619000011939,response,1.2594580992890123,1.15,-1.15,-0.8833175387485132,1.0999999999999999,-0.975581571395385,high,low,,ISIC_9848743.JPG,,ISIC_0011933.JPG,25,false,0.28000000000000014,hh,keypress(i),0,true,975031.6000000238,975031.3000000119,968088.121,968280.8000000119,968104.681,974867.844,1,40,9,
sequence,flow.Sequence,8_8,2023-11-17T19:46:40.625Z,,,,,,,,,,,6926.619000011939,completion,,,,,,,high,low,,,,,,false,,,,,true,975032.1999999881,975031.3000000119,968088.121,968280.8000000119,968104.681,974867.844,1,40,,
trial,html.Screen,8_9_0,2023-11-17T19:46:48.009Z,,,,2,-0.0286056110007553,-0.036125199756515,,0.04,false,lh,7547.756000023801,response,-0.8472024037189965,1.0999999999999999,-1.15,0.986370061404882,1.0999999999999999,-1.025581571395385,low,high,,ISIC_6535558.JPG,,ISIC_0054355.JPG,27,false,0.3700000000000002,hl,keypress(j),0,true,982415.8999999762,982415.6000000238,974834.497,975032.3999999762,974867.844,982265.57,1,40,10,
sequence,flow.Sequence,8_9,2023-11-17T19:46:48.009Z,,,,,,,,,,,7547.756000023801,completion,,,,,,,low,high,,,,,,false,,,,,true,982416.5,982415.6000000238,974834.497,975032.3000000119,974867.844,982265.57,1,40,,
trial,html.Screen,8_10_0,2023-11-17T19:47:00.505Z,,,,2,0.0164027439304477,-0.0082910758715273,,0.04,false,hl,12646.230000011972,response,1.2081146885025262,1.0999999999999999,-1.15,-1.195668832085049,1.15,-1.025581571395385,high,low,,ISIC_7381224.JPG,,ISIC_7369690.JPG,26,false,0.2600000000000001,hh,keypress(i),0,true,994912.1000000238,994911.8000000119,982215.642,982416.6999999881,982265.57,994739.864,1,40,11,
sequence,flow.Sequence,8_10,2023-11-17T19:47:00.505Z,,,,,,,,,,,12646.230000011972,completion,,,,,,,high,low,,,,,,false,,,,,true,994912.6000000238,994911.8000000119,982215.642,982416.6000000238,982265.57,994739.864,1,40,,
trial,html.Screen,8_11_0,2023-11-17T19:47:07.785Z,,,,2,-0.0119001144851157,0.0063430114540141,,0.04,false,hl,7451.535999976215,response,1.2594580992890123,1.0999999999999999,-1.15,-0.8833175387485132,1.15,-1.0755815713953851,high,low,,ISIC_0003822.JPG,,ISIC_0011933.JPG,25,false,0.28000000000000014,hh,keypress(i),0,true,1002191.8000000119,1002191.3999999762,994706.565,994912.8000000119,994739.864,1002004.061,1,40,12,
sequence,flow.Sequence,8_11,2023-11-17T19:47:07.785Z,,,,,,,,,,,7451.535999976215,completion,,,,,,,high,low,,,,,,false,,,,,true,1002192.1999999881,1002191.3999999762,994706.565,994912.6999999881,994739.864,1002004.061,1,40,,
trial,html.Screen,8_12_0,2023-11-17T19:47:14.913Z,,,,2,0.0198696495649504,-0.0387952353063878,,0.04,true,hh,7315.838999976171,response,1.1746004947382946,1.1837863938957691,-1.15,1.2207657619249948,1.15,-1.1255815713953852,high,high,,ISIC_6735970.JPG,,ISIC_0012069.JPG,28,false,0.12,hh,keypress(i),0,true,1009320.1999999881,1009319.8999999762,1001987.496,1002192.5,1002004.061,1009151.208,1,40,13,
sequence,flow.Sequence,8_12,2023-11-17T19:47:14.914Z,,,,,,,,,,,7315.838999976171,completion,,,,,,,high,high,,,,,,false,,,,,true,1009320.6999999881,1009319.8999999762,1001987.496,1002192.3999999762,1002004.061,1009151.208,1,40,,
trial,html.Screen,8_13_0,2023-11-17T19:47:25.353Z,,,,2,0.0065172941585523,-0.0118857043117315,,0.04,false,lh,10608.491999988095,response,-0.8034318937720549,1.1837863938957691,-1.15,1.0024917298189338,1.15,-1.1255815713953852,low,high,,ISIC_6119202.JPG,,ISIC_0032766.JPG,26,false,0.40000000000000024,hh,keypress(i),0,true,1019760,1019759.6999999881,1009117.99,1009321,1009151.208,1019571.518,1,40,14,
sequence,flow.Sequence,8_13,2023-11-17T19:47:25.354Z,,,,,,,,,,,10608.491999988095,completion,,,,,,,low,high,,,,,,false,,,,,true,1019760.5,1019759.6999999881,1009117.99,1009321,1009151.208,1019571.518,1,40,,
trial,html.Screen,8_14_0,2023-11-17T19:47:32.120Z,,,,2,-0.0200295718112167,-0.0155559071275806,,0.04,true,hh,6955.381999976118,response,1.2033647433750492,1.1837863938957691,-1.15,1.0718012192341555,1.0616287458719642,-1.1255815713953852,high,high,,ISIC_0061343.JPG,,ISIC_0061606.JPG,31,false,0.12,hh,keypress(i),0,true,1026527.1000000238,1026526.8999999762,1019554.735,1019760.6999999881,1019571.518,1026351.388,1,40,15,
sequence,flow.Sequence,8_14,2023-11-17T19:47:32.121Z,,,,,,,,,,,6955.381999976118,completion,,,,,,,high,high,,,,,,false,,,,,true,1026527.5,1026526.8999999762,1019554.735,1019760.6000000238,1019571.518,1026351.388,1,40,,
trial,html.Screen,8_15_0,2023-11-17T19:47:43.585Z,,,,2,0.0109416414475118,0.005246498750811,,0.04,true,hl,11640.511999976123,response,0.9138670886161264,1.0875829813046023,-1.15,-0.8414121478342018,1.0616287458719642,-1.1255815713953852,high,low,,ISIC_0064279.JPG,,ISIC_6709052.JPG,26,false,0.31000000000000016,hl,keypress(j),0,true,1037992.1999999881,1037991.8999999762,1026334.769,1026527.6999999881,1026351.388,1037807.04,1,40,16,
sequence,flow.Sequence,8_15,2023-11-17T19:47:43.586Z,,,,,,,,,,,11640.511999976123,completion,,,,,,,high,low,,,,,,false,,,,,true,1037992.8000000119,1037991.8999999762,1026334.769,1026527.6999999881,1026351.388,1037807.04,1,40,,
trial,html.Screen,8_16_0,2023-11-17T19:47:52.073Z,,,,2,0.0199950873045219,0.0172506388509166,,0.04,true,ll,8672.35999997612,response,-1.0943527860463682,1.0875829813046023,-1.15,-1.124481746658104,1.0616287458719642,-1.1255815713953852,low,low,,ISIC_0029906.JPG,,ISIC_0438136.JPG,28,false,0.14,ll,keypress(f),0,true,1046479.8000000119,1046479.3999999762,1037790.423,1037992.8999999762,1037807.04,1046307.759,1,40,17,
sequence,flow.Sequence,8_16,2023-11-17T19:47:52.073Z,,,,,,,,,,,8672.35999997612,completion,,,,,,,low,low,,,,,,false,,,,,true,1046480.3000000119,1046479.3999999762,1037790.423,1037992.8999999762,1037807.04,1046307.759,1,40,,
trial,html.Screen,8_17_0,2023-11-17T19:48:00.425Z,,,,2,0.0241900387072296,-0.0339955304424736,,0.04,false,lh,8524.04100001196,response,-1.2578167348825195,1.0875829813046023,-1.15,0.8371819698254004,1.0616287458719642,-1.059417266352236,low,high,,ISIC_0010789.JPG,,ISIC_9613570.JPG,26,false,0.3500000000000002,ll,keypress(f),0,true,1054832.1000000238,1054831.800000012,1046273.578,1046480.6000000238,1046307.759,1054656.48,1,40,18,
sequence,flow.Sequence,8_17,2023-11-17T19:48:00.426Z,,,,,,,,,,,8524.04100001196,completion,,,,,,,low,high,,,,,,false,,,,,true,1054832.6000000238,1054831.800000012,1046273.578,1046480.5,1046307.759,1054656.48,1,40,,
trial,html.Screen,8_18_0,2023-11-17T19:48:09.817Z,,,,2,-0.0118382036798625,-0.0300588245877227,,0.04,false,hl,9567.020000000019,response,0.9544693251394116,1.0875829813046023,-1.1260847604644437,-1.0727539917203766,1.1116287458719643,-1.059417266352236,high,low,,ISIC_4748605.JPG,,ISIC_0055147.JPG,25,false,0.2600000000000001,lh,keypress(e),0,true,1064223.800000012,1064223.5,1054639.944,1054832.8999999762,1054656.48,1064041.416,1,40,19,
sequence,flow.Sequence,8_18,2023-11-17T19:48:09.818Z,,,,,,,,,,,9567.020000000019,completion,,,,,,,high,low,,,,,,false,,,,,true,1064224.3999999762,1064223.5,1054639.944,1054832.800000012,1054656.48,1064041.416,1,40,,
trial,html.Screen,8_19_0,2023-11-17T19:48:18.425Z,,,,2,0.0164027439304477,-0.0082910758715273,,0.04,false,ll,8790.184000023874,response,-1.0067659067144603,1.1375829813046023,-1.1260847604644437,-1.1702231398575993,1.1116287458719643,-1.1094172663522361,low,low,,ISIC_7381224.JPG,,ISIC_0064784.JPG,26,false,0.13,lh,keypress(e),0,true,1072831.8999999762,1072831.6000000238,1064024.862,1064224.6000000238,1064041.416,1072658.243,1,40,20,
sequence,flow.Sequence,8_19,2023-11-17T19:48:18.426Z,,,,,,,,,,,8790.184000023874,completion,,,,,,,low,low,,,,,,false,,,,,true,1072832.3999999762,1072831.6000000238,1064024.862,1064224.6000000238,1064041.416,1072658.243,1,40,,
trial,html.Screen,8_20_0,2023-11-17T19:48:25.681Z,,,,2,0.0374659946425444,0.0086043094957617,,0.04,true,ll,7429.256999999983,response,-1.160746324899676,1.1375829813046023,-1.1260847604644437,-1.1927876559115576,1.1116287458719643,-1.1594172663522362,low,low,,ISIC_0033051.JPG,,ISIC_8651053.JPG,25,false,0.14,ll,keypress(f),0,true,1080087.8999999762,1080087.5,1072641.538,1072832.6000000238,1072658.243,1079905.635,1,40,21,
sequence,flow.Sequence,8_20,2023-11-17T19:48:25.682Z,,,,,,,,,,,7429.256999999983,completion,,,,,,,low,low,,,,,,false,,,,,true,1080088.3999999762,1080087.5,1072641.538,1072832.6000000238,1072658.243,1079905.635,1,40,,
trial,html.Screen,8_21_0,2023-11-17T19:48:32.577Z,,,,2,-0.0286056110007553,-0.036125199756515,,0.04,true,hh,7078.165000011912,response,1.060922596470156,1.1375829813046023,-1.1267669904056168,1.152385059054538,1.1116287458719643,-1.1594172663522362,high,high,,ISIC_6535558.JPG,,ISIC_0067719.JPG,31,false,0.1,hh,keypress(i),0,true,1086984.1000000238,1086983.800000012,1079888.863,1080088.6000000238,1079905.635,1086819.083,1,40,22,
sequence,flow.Sequence,8_21,2023-11-17T19:48:32.578Z,,,,,,,,,,,7078.165000011912,completion,,,,,,,high,high,,,,,,false,,,,,true,1086984.699999988,1086983.800000012,1079888.863,1080088.6000000238,1079905.635,1086819.083,1,40,,
trial,html.Screen,8_22_0,2023-11-17T19:48:41.071Z,,,,2,-0.0119001144851157,0.0063430114540141,,0.04,true,lh,8658.816999976058,response,-0.8034318937720549,1.1375829813046023,-1.1267669904056168,1.0024917298189338,1.1116287458719643,-1.1594172663522362,low,high,,ISIC_0003822.JPG,,ISIC_0032766.JPG,25,false,0.3700000000000002,lh,keypress(e),0,true,1095478,1095477.8999999762,1086785.867,1086985,1086819.083,1095302.267,1,40,23,
sequence,flow.Sequence,8_22,2023-11-17T19:48:41.071Z,,,,,,,,,,,8658.816999976058,completion,,,,,,,low,high,,,,,,false,,,,,true,1095478.1000000238,1095477.8999999762,1086785.867,1086984.8999999762,1086819.083,1095302.267,1,40,,
trial,html.Screen,8_23_0,2023-11-17T19:48:49.225Z,,,,2,0.0088741920055285,0.0058246074740588,,0.04,true,hh,8329.233000000007,response,1.0470212693307346,1.1375829813046023,-1.1267669904056168,1.097091139433204,1.0616287458719642,-1.1594172663522362,high,high,,ISIC_4136663.JPG,,ISIC_0068234.JPG,32,false,0.1,hh,keypress(i),0,true,1103631.8999999762,1103631.5,1095285.652,1095478.199999988,1095302.267,1103468.162,1,40,24,
sequence,flow.Sequence,8_23,2023-11-17T19:48:49.226Z,,,,,,,,,,,8329.233000000007,completion,,,,,,,high,high,,,,,,false,,,,,true,1103632.300000012,1103631.5,1095285.652,1095478.199999988,1095302.267,1103468.162,1,40,,
trial,html.Screen,8_24_0,2023-11-17T19:48:55.353Z,,,,2,0.0088741920055285,0.0058246074740588,,0.04,false,hl,6291.237999976147,response,1.0116417541846066,1.0220562043819692,-1.1267669904056168,-1.033442916947398,1.0616287458719642,-1.1594172663522362,high,low,,ISIC_4136663.JPG,,ISIC_0031389.JPG,25,false,0.31000000000000016,hh,keypress(i),0,true,1109759.699999988,1109759.3999999762,1103434.85,1103632.699999988,1103468.162,1109580.138,1,40,25,
sequence,flow.Sequence,8_24,2023-11-17T19:48:55.353Z,,,,,,,,,,,6291.237999976147,completion,,,,,,,high,low,,,,,,false,,,,,true,1109760.1000000238,1109759.3999999762,1103434.85,1103632.6000000238,1103468.162,1109580.138,1,40,,
trial,html.Screen,8_25_0,2023-11-17T19:49:04.527Z,,,,2,0.0388181790775959,-0.0049623405709465,,0.04,true,hh,9353.861999999965,response,1.0581711446393522,1.0220562043819692,-1.1267669904056168,1.1376053597134304,1.0616287458719642,-1.1594172663522362,high,high,,ISIC_0061880.JPG,,ISIC_0014987.JPG,48,false,0.1,hh,keypress(i),0,true,1118934.1000000238,1118934,1109563.449,1109760.3999999762,1109580.138,1118764.579,1,40,26,
sequence,flow.Sequence,8_25,2023-11-17T19:49:04.528Z,,,,,,,,,,,9353.861999999965,completion,,,,,,,high,high,,,,,,false,,,,,true,1118934.300000012,1118934,1109563.449,1109760.300000012,1109580.138,1118764.579,1,40,,
trial,html.Screen,8_26_0,2023-11-17T19:49:10.970Z,,,,2,-0.0286056110007553,-0.036125199756515,,0.04,false,hl,6611.021000023931,response,0.7714570894008278,1.0246235569490183,-1.1267669904056168,-0.9113656554657036,1.0246235569490183,-1.1594172663522362,high,low,,ISIC_6535558.JPG,,ISIC_4529092.JPG,25,false,0.31000000000000016,ll,keypress(f),0,true,1125376.5,1125375.6000000238,1118731.304,1118934.300000012,1118764.579,1125193.783,1,40,27,
sequence,flow.Sequence,8_26,2023-11-17T19:49:10.970Z,,,,,,,,,,,6611.021000023931,completion,,,,,,,high,low,,,,,,false,,,,,true,1125377.199999988,1125375.6000000238,1118731.304,1118934.300000012,1118764.579,1125193.783,1,40,,
trial,html.Screen,8_27_0,2023-11-17T19:49:16.818Z,,,,2,0.0388181790775959,-0.0049623405709465,,0.04,true,ll,6030.116999976104,response,-1.160746324899676,1.0746235569490183,-1.1267669904056168,-1.1927876559115576,1.0246235569490183,-1.1594172663522362,low,low,,ISIC_0061880.JPG,,ISIC_8651053.JPG,25,false,0.14,ll,keypress(f),0,true,1131224.199999988,1131223.8999999762,1125177.013,1125377.3999999762,1125193.783,1131038.489,1,40,28,
sequence,flow.Sequence,8_27,2023-11-17T19:49:16.818Z,,,,,,,,,,,6030.116999976104,completion,,,,,,,low,low,,,,,,false,,,,,true,1131224.800000012,1131223.8999999762,1125177.013,1125377.300000012,1125193.783,1131038.489,1,40,,
trial,html.Screen,8_28_0,2023-11-17T19:49:24.048Z,,,,2,0.0388181790775959,-0.0049623405709465,,0.04,false,ll,7415.811000011861,response,-0.9786113496628154,1.0746235569490183,-1.0020766556886305,-1.040122402473425,1.0246235569490183,-1.0020766556886305,low,low,,ISIC_0061880.JPG,,ISIC_8195528.JPG,30,false,0.11,hl,keypress(j),0,true,1138454.5,1138454.300000012,1131021.965,1131225.1000000238,1131038.489,1138269.217,1,40,29,
sequence,flow.Sequence,8_28,2023-11-17T19:49:24.048Z,,,,,,,,,,,7415.811000011861,completion,,,,,,,low,low,,,,,,false,,,,,true,1138454.699999988,1138454.300000012,1131021.965,1131225,1131038.489,1138269.217,1,40,,
trial,html.Screen,8_29_0,2023-11-17T19:49:31.504Z,,,,2,-0.0257631352671967,-0.0202837002774028,,0.04,false,hh,7641.182999976212,response,1.071312313440387,1.0746235569490183,-1.0520766556886305,1.0935391476164529,1.0246235569490183,-1.0020766556886305,high,high,,ISIC_0032797.JPG,,ISIC_0063680.JPG,35,false,0.1,hl,keypress(j),0,true,1145910.5,1145910.3999999762,1138252.706,1138454.699999988,1138269.217,1145733.947,1,40,30,
sequence,flow.Sequence,8_29,2023-11-17T19:49:31.504Z,,,,,,,,,,,7641.182999976212,completion,,,,,,,high,high,,,,,,false,,,,,true,1145910.6000000238,1145910.3999999762,1138252.706,1138454.699999988,1138269.217,1145733.947,1,40,,
trial,html.Screen,8_30_0,2023-11-17T19:49:38.609Z,,,,2,0.0241900387072296,-0.0339955304424736,,0.04,false,hh,7281.6530000239145,response,1.1441767540243375,1.0746235569490183,-1.0520766556886305,1.0949087392471728,1.0746235569490183,-1.0020766556886305,high,high,,ISIC_0010789.JPG,,ISIC_0054146.JPG,35,false,0.1,lh,keypress(e),0,true,1153016,1153015.6000000238,1145717.219,1145910.699999988,1145733.947,1152847.611,1,40,31,
sequence,flow.Sequence,8_30,2023-11-17T19:49:38.610Z,,,,,,,,,,,7281.6530000239145,completion,,,,,,,high,high,,,,,,false,,,,,true,1153016.3999999762,1153015.6000000238,1145717.219,1145910.699999988,1145733.947,1152847.611,1,40,,
trial,html.Screen,8_31_0,2023-11-17T19:49:45.241Z,,,,2,-0.0367706518941078,0.0161069838272154,,0.04,false,lh,6799.989000023808,response,-0.7883321712536753,1.1246235569490184,-1.0520766556886305,1.0011430756825364,1.0746235569490183,-1.0020766556886305,low,high,,ISIC_0033419.JPG,,ISIC_9828853.JPG,26,false,0.3200000000000002,ll,keypress(f),0,true,1159647.8999999762,1159647.6000000238,1152814.366,1153016.699999988,1152847.611,1159460.481,1,40,32,
sequence,flow.Sequence,8_31,2023-11-17T19:49:45.242Z,,,,,,,,,,,6799.989000023808,completion,,,,,,,low,high,,,,,,false,,,,,true,1159648.3999999762,1159647.6000000238,1152814.366,1153016.699999988,1152847.611,1159460.481,1,40,,
trial,html.Screen,8_32_0,2023-11-17T19:49:55.730Z,,,,2,-0.0076984477620101,-0.0069458408496562,,0.04,false,ll,10675.319000012008,response,-0.9786113496628154,1.1246235569490184,-1.0520766556886305,-1.040122402473425,1.1246235569490184,-1.0020766556886305,low,low,,ISIC_0000434.JPG,,ISIC_8195528.JPG,27,false,0.1,hl,keypress(j),0,true,1170136.199999988,1170135.800000012,1159443.969,1159648.6000000238,1159460.481,1169947.599,1,40,33,
sequence,flow.Sequence,8_32,2023-11-17T19:49:55.730Z,,,,,,,,,,,10675.319000012008,completion,,,,,,,low,low,,,,,,false,,,,,true,1170136.699999988,1170135.800000012,1159443.969,1159648.5,1159460.481,1169947.599,1,40,,
trial,html.Screen,8_33_0,2023-11-17T19:50:00.978Z,,,,2,0.0088741920055285,0.0058246074740588,,0.04,true,hh,5436.201000011992,response,1.0679712388489528,1.1246235569490184,-1.1020766556886306,1.0509600192807842,1.1246235569490184,-0.8642272868635501,high,high,,ISIC_4136663.JPG,,ISIC_0015180.JPG,31,false,0.1,hh,keypress(i),0,true,1175384.199999988,1175383.800000012,1169931.015,1170137,1169947.599,1175207.8,1,40,34,
sequence,flow.Sequence,8_33,2023-11-17T19:50:00.978Z,,,,,,,,,,,5436.201000011992,completion,,,,,,,high,high,,,,,,false,,,,,true,1175384.699999988,1175383.800000012,1169931.015,1170137,1169947.599,1175207.8,1,40,,
trial,html.Screen,8_34_0,2023-11-17T19:50:09.506Z,,,,2,0.0388334549081915,-0.0303399972963369,,0.04,true,hl,8704.199999999953,response,1.0099417584598938,1.1246235569490184,-1.1020766556886306,-0.6898515052486707,1.1246235569490184,-0.8642272868635501,high,low,,ISIC_4961708.JPG,,ISIC_8929288.JPG,26,false,0.22000000000000008,hl,keypress(j),0,true,1183912.300000012,1183912,1175191.282,1175385,1175207.8,1183741.093,1,40,35,
sequence,flow.Sequence,8_34,2023-11-17T19:50:09.506Z,,,,,,,,,,,8704.199999999953,completion,,,,,,,high,low,,,,,,false,,,,,true,1183912.800000012,1183912,1175191.282,1175385,1175207.8,1183741.093,1,40,,
trial,html.Screen,8_35_0,2023-11-17T19:50:18.986Z,,,,2,0.0088741920055285,0.0058246074740588,,0.04,true,ll,9650.707000011811,response,-1.021981961304436,1.0746235569490183,-1.1020766556886306,-0.7957634739543782,1.1246235569490184,-0.8642272868635501,low,low,,ISIC_4136663.JPG,,ISIC_0006327.JPG,30,false,0.11,ll,keypress(f),0,true,1193392.199999988,1193391.800000012,1183707.856,1183913,1183741.093,1193209.509,1,40,36,
sequence,flow.Sequence,8_35,2023-11-17T19:50:18.986Z,,,,,,,,,,,9650.707000011811,completion,,,,,,,low,low,,,,,,false,,,,,true,1193392.699999988,1193391.800000012,1183707.856,1183913,1183741.093,1193209.509,1,40,,
trial,html.Screen,8_36_0,2023-11-17T19:50:27.584Z,,,,2,-0.0258224118104549,0.0029364553353019,,0.04,false,hl,8780.490999999922,response,1.0926414044454305,1.0746235569490183,-1.1020766556886306,-0.7741624649032207,1.1246235569490184,-0.8588727176294071,high,low,,ISIC_8325226.JPG,,ISIC_2355513.JPG,26,false,0.21000000000000008,hh,keypress(i),0,true,1201990.1000000238,1201990,1193192.9,1193393,1193209.509,1201809.647,1,40,37,
sequence,flow.Sequence,8_36,2023-11-17T19:50:27.584Z,,,,,,,,,,,8780.490999999922,completion,,,,,,,high,low,,,,,,false,,,,,true,1201990.300000012,1201990,1193192.9,1193392.8999999762,1193209.509,1201809.647,1,40,,
trial,html.Screen,8_37_0,2023-11-17T19:50:36.010Z,,,,2,-0.0367744112927588,-0.0324865661712824,,0.04,true,hh,8606.052999987965,response,1.071312313440387,1.0746235569490183,-1.1020766556886306,1.0935391476164529,1.1246235569490184,-0.9088727176294071,high,high,,ISIC_4523565.JPG,,ISIC_0063680.JPG,34,false,0.1,hh,keypress(i),0,true,1210416,1210415.699999988,1201792.943,1201990.300000012,1201809.647,1210259.626,1,40,38,
sequence,flow.Sequence,8_37,2023-11-17T19:50:36.010Z,,,,,,,,,,,8606.052999987965,completion,,,,,,,high,high,,,,,,false,,,,,true,1210416.6000000238,1210415.699999988,1201792.943,1201990.300000012,1201809.647,1210259.626,1,40,,
trial,html.Screen,8_38_0,2023-11-17T19:50:42.362Z,,,,2,-0.0283578106329894,0.0088840758711548,,0.04,false,ll,6508.273999976227,response,-1.2093800080874595,1.0430902760309417,-1.1020766556886306,-0.8810330940141073,1.0430902760309417,-0.9088727176294071,low,low,,ISIC_0060707.JPG,,ISIC_7830756.JPG,31,false,0.11,hl,keypress(j),0,true,1216768.199999988,1216767.8999999762,1210242.915,1210416.800000012,1210259.626,1216605.04,1,40,39,
sequence,flow.Sequence,8_38,2023-11-17T19:50:42.362Z,,,,,,,,,,,6508.273999976227,completion,,,,,,,low,low,,,,,,false,,,,,true,1216768.699999988,1216767.8999999762,1210242.915,1210416.800000012,1210259.626,1216605.04,1,40,,
trial,html.Screen,8_39_0,2023-11-17T19:50:50.890Z,,,,2,0.0199950873045219,0.0172506388509166,,0.04,true,lh,8690.659999988042,response,-1.199471562817528,1.0430902760309417,-1.1520766556886306,0.8631260534979347,1.0430902760309417,-0.9088727176294071,low,high,,ISIC_0029906.JPG,,ISIC_0030754.JPG,25,false,0.3400000000000002,lh,keypress(e),0,true,1225295.8999999762,1225295.699999988,1216571.809,1216769,1216605.04,1225121.882,1,40,40,
sequence,flow.Sequence,8_39,2023-11-17T19:50:50.890Z,,,,,,,,,,,8690.659999988042,completion,,,,,,,low,high,,,,,,false,,,,,true,1225296.6000000238,1225295.699999988,1216571.809,1216768.8999999762,1216605.04,1225121.882,1,40,,
stair_loop,flow.Loop,8,2023-11-17T19:50:50.891Z,,,,,,,,,,,325791.215999988,completion,,,,,,,,,,,,,,false,,,,,true,1225296.8999999762,1225295.699999988,899487.975,899694.5,899504.484,1225121.882,1,40,,
exp_instructions,html.Screen,9,2023-11-17T19:51:29.687Z,,,,,,,,,,,38971.817999988096,response,,,,,,,,,,,,,,,,continue,keypress(Space),,,1264094,1264093.699999988,1225105.067,1225297.1000000238,1225121.882,1263913.803,,,,
trial,html.Screen,10_0_0,2023-11-17T19:51:35.409Z,,,,1,-0.0258224118104549,0.0029364553353019,,0.04,false,hl,5901.797000023769,response,0.9662688541319592,1.0863053784716223,-1.0994186780783664,-0.929746784178986,1.0800717855340944,-1.023194707018466,high,low,,ISIC_8325226.JPG,9,ISIC_0011077.JPG,26,false,0.2500000000000001,hh,keypress(i),0,false,1269816,1269815.6000000238,1263896.928,1264094.199999988,1263913.803,1269641.625,4,500,1,
break,html.Screen,10_0_1,2023-11-17T19:51:35.411Z,,,,,,,,,,,NaN,,,,,,,,high,low,,,,,,false,,,,,false,1269817.3999999762,1269816.8999999762,,1269816.3999999762,,1269641.625,4,500,,
break_continue,html.Screen,10_0_2,2023-11-17T19:51:35.412Z,,,,,,,,,,,NaN,,,,,,,,high,low,,,,,,false,,,,,false,1269818.5,1269817.8999999762,,1269817.6000000238,,1269641.625,4,500,,
sequence,flow.Sequence,10_0,2023-11-17T19:51:35.412Z,,,,,,,,,,,5904.0969999760855,completion,,,,,,,high,low,,,,,,false,,,,,false,1269818.8999999762,1269817.8999999762,1263896.928,1264094.199999988,1263913.803,1269641.625,4,500,,
trial,html.Screen,10_1_0,2023-11-17T19:51:42.586Z,,,,1,-0.0286056110007553,-0.036125199756515,,0.04,false,hl,7350.175000011921,response,1.0116417541846066,1.0863053784716223,-1.0994186780783664,-1.033442916947398,1.0800717855340944,-1.023194707018466,high,low,,ISIC_6535558.JPG,9,ISIC_0031389.JPG,26,false,0.2500000000000001,hh,keypress(i),0,false,1276992.199999988,1276991.800000012,1269625.055,1269819.1000000238,1269641.625,1276822.257,4,500,2,
break,html.Screen,10_1_1,2023-11-17T19:51:42.587Z,,,,,,,,,,,NaN,,,,,,,,high,low,,,,,,false,,,,,false,1276993.3999999762,1276993.1000000238,,1276992.5,,1276822.257,4,500,,
break_continue,html.Screen,10_1_2,2023-11-17T19:51:42.588Z,,,,,,,,,,,NaN,,,,,,,,high,low,,,,,,false,,,,,false,1276994.300000012,1276993.8999999762,,1276993.6000000238,,1276822.257,4,500,,
sequence,flow.Sequence,10_1,2023-11-17T19:51:42.588Z,,,,,,,,,,,7352.274999976158,completion,,,,,,,high,low,,,,,,false,,,,,false,1276994.6000000238,1276993.8999999762,1269625.055,1269819,1269641.625,1276822.257,4,500,,
trial,html.Screen,10_2_0,2023-11-17T19:51:50.769Z,,,,1,-0.0283578106329894,0.0088840758711548,,0.04,false,lh,8353.442999988096,response,-1.0369885917487718,1.0863053784716223,-1.0994186780783664,0.8486937878412699,1.0800717855340944,-1.023194707018466,low,high,,ISIC_0060707.JPG,8,ISIC_6917681.JPG,25,false,0.3400000000000002,hl,keypress(j),0,false,1285176,1285175.699999988,1276788.919,1276994.800000012,1276822.257,1284988.249,4,500,3,
break,html.Screen,10_2_1,2023-11-17T19:51:50.771Z,,,,,,,,,,,NaN,,,,,,,,low,high,,,,,,false,,,,,false,1285177.300000012,1285176.8999999762,,1285176.3999999762,,1284988.249,4,500,,
break_continue,html.Screen,10_2_2,2023-11-17T19:51:50.772Z,,,,,,,,,,,NaN,,,,,,,,low,high,,,,,,false,,,,,false,1285178.199999988,1285177.800000012,,1285177.3999999762,,1284988.249,4,500,,
sequence,flow.Sequence,10_2,2023-11-17T19:51:50.772Z,,,,,,,,,,,8355.543000011938,completion,,,,,,,low,high,,,,,,false,,,,,false,1285178.5,1285177.800000012,1276788.919,1276994.699999988,1276822.257,1284988.249,4,500,,
trial,html.Screen,10_3_0,2023-11-17T19:52:00.346Z,,,,1,-0.0257631352671967,-0.0202837002774028,,0.04,false,ll,9763.65099997609,response,-1.0325421457475312,1.0863053784716223,-1.0994186780783664,-1.0219157566370058,1.0800717855340944,-1.023194707018466,low,low,,ISIC_0032797.JPG,8,ISIC_5336548.JPG,26,false,0.11,hl,keypress(j),0,false,1294752.199999988,1294751.8999999762,1284971.608,1285178.800000012,1284988.249,1294573.452,4,500,4,
break,html.Screen,10_3_1,2023-11-17T19:52:00.347Z,,,,,,,,,,,NaN,,,,,,,,low,low,,,,,,false,,,,,false,1294753.5,1294753.1000000238,,1294752.6000000238,,1294573.452,4,500,,
break_continue,html.Screen,10_3_2,2023-11-17T19:52:00.348Z,,,,,,,,,,,NaN,,,,,,,,low,low,,,,,,false,,,,,false,1294754.3999999762,1294754.1000000238,,1294753.699999988,,1294573.452,4,500,,
sequence,flow.Sequence,10_3,2023-11-17T19:52:00.348Z,,,,,,,,,,,9765.851000023773,completion,,,,,,,low,low,,,,,,false,,,,,false,1294754.699999988,1294754.1000000238,1284971.608,1285178.6000000238,1284988.249,1294573.452,4,500,,
trial,html.Screen,10_4_0,2023-11-17T19:52:07.089Z,,,,1,-0.0283578106329894,0.0088840758711548,,0.04,true,hh,6922.148000023793,response,1.068995482830036,1.0863053784716223,-1.0994186780783664,1.02189095692261,1.0800717855340944,-1.023194707018466,high,high,,ISIC_0060707.JPG,9,ISIC_0046405.JPG,33,false,0.1,hh,keypress(i),0,false,1301496,1301495.6000000238,1294556.868,1294755,1294573.452,1301320.009,4,500,5,
break,html.Screen,10_4_1,2023-11-17T19:52:07.091Z,,,,,,,,,,,NaN,,,,,,,,high,high,,,,,,false,,,,,false,1301497.199999988,1301496.8999999762,,1301496.3999999762,,1301320.009,4,500,,
break_continue,html.Screen,10_4_2,2023-11-17T19:52:07.091Z,,,,,,,,,,,NaN,,,,,,,,high,high,,,,,,false,,,,,false,1301498.199999988,1301497.699999988,,1301497.5,,1301320.009,4,500,,
sequence,flow.Sequence,10_4,2023-11-17T19:52:07.092Z,,,,,,,,,,,6924.247999988031,completion,,,,,,,high,high,,,,,,false,,,,,false,1301498.5,1301497.699999988,1294556.868,1294755,1294573.452,1301320.009,4,500,,
trial,html.Screen,10_5_0,2023-11-17T19:52:13.034Z,,,,1,0.0065172941585523,-0.0118857043117315,,0.04,true,hh,6119.791000011843,response,1.14454137020797,1.0863053784716223,-1.0994186780783664,1.1082302786512033,1.0800717855340944,-1.023194707018466,high,high,,ISIC_6119202.JPG,9,ISIC_0065128.JPG,33,false,0.1,hh,keypress(i),0,false,1307440.199999988,1307439.800000012,1301303.431,1301498.699999988,1301320.009,1307264.854,4,500,6,
break,html.Screen,10_5_1,2023-11-17T19:52:13.035Z,,,,,,,,,,,NaN,,,,,,,,high,high,,,,,,false,,,,,false,1307441.3999999762,1307441.1000000238,,1307440.6000000238,,1307264.854,4,500,,
break_continue,html.Screen,10_5_2,2023-11-17T19:52:13.036Z,,,,,,,,,,,NaN,,,,,,,,high,high,,,,,,false,,,,,false,1307442.300000012,1307441.8999999762,,1307441.699999988,,1307264.854,4,500,,
sequence,flow.Sequence,10_5,2023-11-17T19:52:13.036Z,,,,,,,,,,,6121.89099997608,completion,,,,,,,high,high,,,,,,false,,,,,false,1307442.699999988,1307441.8999999762,1301303.431,1301498.699999988,1301320.009,1307264.854,4,500,,
trial,html.Screen,10_6_0,2023-11-17T19:52:21.057Z,,,,1,0.0109416414475118,0.005246498750811,,0.04,false,hl,8198.246000023792,response,0.90812608370647,1.0863053784716223,-1.0994186780783664,-1.2720026872926935,1.0800717855340944,-1.023194707018466,high,low,,ISIC_0064279.JPG,9,ISIC_0450295.JPG,26,false,0.2500000000000001,ll,keypress(f),0,false,1315463.300000012,1315463.1000000238,1307248.396,1307443,1307264.854,1315280.43,4,500,7,
break,html.Screen,10_6_1,2023-11-17T19:52:21.058Z,,,,,,,,,,,NaN,,,,,,,,high,low,,,,,,false,,,,,false,1315464.199999988,1315464,,1315463.6000000238,,1315280.43,4,500,,
break_continue,html.Screen,10_6_2,2023-11-17T19:52:21.058Z,,,,,,,,,,,NaN,,,,,,,,high,low,,,,,,false,,,,,false,1315464.8999999762,1315464.6000000238,,1315464.3999999762,,1315280.43,4,500,,
sequence,flow.Sequence,10_6,2023-11-17T19:52:21.058Z,,,,,,,,,,,8199.746000023792,completion,,,,,,,high,low,,,,,,false,,,,,false,1315465.1000000238,1315464.6000000238,1307248.396,1307442.8999999762,1307264.854,1315280.43,4,500,,
trial,html.Screen,10_7_0,2023-11-17T19:52:27.048Z,,,,1,0.001445457736793,0.0165307427449982,,0.04,true,ll,6173.769999988144,response,-1.0040510013663018,1.0863053784716223,-1.0994186780783664,-0.9707475308236284,1.0800717855340944,-1.023194707018466,low,low,,ISIC_0027350.JPG,9,ISIC_0026911.JPG,26,false,0.11,ll,keypress(f),0,false,1321454.300000012,1321454.199999988,1315263.815,1315465.300000012,1315280.43,1321275.448,4,500,8,
break,html.Screen,10_7_1,2023-11-17T19:52:27.048Z,,,,,,,,,,,NaN,,,,,,,,low,low,,,,,,false,,,,,false,1321454.6000000238,1321454.6000000238,,1321454.3999999762,,1321275.448,4,500,,
break_continue,html.Screen,10_7_2,2023-11-17T19:52:27.048Z,,,,,,,,,,,NaN,,,,,,,,low,low,,,,,,false,,,,,false,1321454.8999999762,1321454.800000012,,1321454.699999988,,1321275.448,4,500,,
sequence,flow.Sequence,10_7,2023-11-17T19:52:27.048Z,,,,,,,,,,,6174.370000011986,completion,,,,,,,low,low,,,,,,false,,,,,false,1321454.8999999762,1321454.800000012,1315263.815,1315465.199999988,1315280.43,1321275.448,4,500,,
trial,html.Screen,10_8_0,2023-11-17T19:52:37.138Z,,,,1,-0.0119001144851157,0.0063430114540141,,0.04,true,lh,10268.251999987988,response,-0.8110121381849364,1.0863053784716223,-1.0994186780783664,0.7563142141851558,1.0800717855340944,-1.023194707018466,low,high,,ISIC_0003822.JPG,9,ISIC_0033605.JPG,25,false,0.3400000000000002,lh,keypress(e),0,false,1331544,1331543.699999988,1321258.919,1321455,1321275.448,1331361.832,4,500,9,
break,html.Screen,10_8_1,2023-11-17T19:52:37.139Z,,,,,,,,,,,NaN,,,,,,,,low,high,,,,,,false,,,,,false,1331545.199999988,1331544.8999999762,,1331544.3999999762,,1331361.832,4,500,,
break_continue,html.Screen,10_8_2,2023-11-17T19:52:37.140Z,,,,,,,,,,,NaN,,,,,,,,low,high,,,,,,false,,,,,false,1331546,1331545.6000000238,,1331545.3999999762,,1331361.832,4,500,,
sequence,flow.Sequence,10_8,2023-11-17T19:52:37.141Z,,,,,,,,,,,10270.15200002375,completion,,,,,,,low,high,,,,,,false,,,,,false,1331546.300000012,1331545.6000000238,1321258.919,1321455,1321275.448,1331361.832,4,500,,
trial,html.Screen,10_9_0,2023-11-17T19:52:44.217Z,,,,1,,0.0102871556606504,,0.04,true,hh,7260.367999988142,response,1.0349570401423522,1.0863053784716223,-1.0994186780783664,1.0363323665817852,1.0800717855340944,-1.023194707018466,high,high,,ISIC_1805163.JPG,8,ISIC_0030107.JPG,33,false,0.1,hh,keypress(i),0,false,1338622.3999999762,1338622.199999988,1331345.016,1331546.3999999762,1331361.832,1338442.197,4,500,10,
break,html.Screen,10_9_1,2023-11-17T19:52:44.217Z,,,,,,,,,,,NaN,,,,,,,,high,high,,,,,,false,,,,,false,1338622.699999988,1338622.6000000238,,1338622.5,,1338442.197,4,500,,
break_continue,html.Screen,10_9_2,2023-11-17T19:52:44.217Z,,,,,,,,,,,NaN,,,,,,,,high,high,,,,,,false,,,,,false,1338623.1000000238,1338622.8999999762,,1338622.800000012,,1338442.197,4,500,,
sequence,flow.Sequence,10_9,2023-11-17T19:52:44.217Z,,,,,,,,,,,7261.0679999762215,completion,,,,,,,high,high,,,,,,false,,,,,false,1338623.1000000238,1338622.8999999762,1331345.016,1331546.3999999762,1331361.832,1338442.197,4,500,,
trial,html.Screen,10_10_0,2023-11-17T19:52:54.426Z,,,,1,0.039520186367207,0.0377961575607372,,0.04,false,ll,10389.403000023915,response,-1.1290536173202614,1.0863053784716223,-1.0994186780783664,-0.9768663240505168,1.0800717855340944,-1.023194707018466,low,low,,ISIC_6356149.JPG,8,ISIC_2196127.JPG,26,false,0.11,hh,keypress(i),0,false,1348832,1348831.6000000238,1338425.637,1338623.199999988,1338442.197,1348662.109,4,500,11,
break,html.Screen,10_10_1,2023-11-17T19:52:54.427Z,,,,,,,,,,,NaN,,,,,,,,low,low,,,,,,false,,,,,false,1348833.1000000238,1348832.800000012,,1348832.300000012,,1348662.109,4,500,,
break_continue,html.Screen,10_10_2,2023-11-17T19:52:54.428Z,,,,,,,,,,,NaN,,,,,,,,low,low,,,,,,false,,,,,false,1348833.8999999762,1348833.5,,1348833.199999988,,1348662.109,4,500,,
sequence,flow.Sequence,10_10,2023-11-17T19:52:54.429Z,,,,,,,,,,,10391.303000000073,completion,,,,,,,low,low,,,,,,false,,,,,false,1348834.199999988,1348833.5,1338425.637,1338623.199999988,1338442.197,1348662.109,4,500,,
trial,html.Screen,10_11_0,2023-11-17T19:53:02.819Z,,,,1,-0.0257631352671967,-0.0202837002774028,,0.04,true,ll,8561.991000023903,response,-1.151139267005652,1.0863053784716223,-1.0994186780783664,-1.0838749490501327,1.0800717855340944,-1.023194707018466,low,low,,ISIC_0032797.JPG,9,ISIC_0002566.JPG,26,false,0.11,ll,keypress(f),0,false,1357224.6000000238,1357224.1000000238,1348628.761,1348834.3999999762,1348662.109,1357045.084,4,500,12,
break,html.Screen,10_11_1,2023-11-17T19:53:02.820Z,,,,,,,,,,,NaN,,,,,,,,low,low,,,,,,false,,,,,false,1357225.800000012,1357225.5,,1357225,,1357045.084,4,500,,
break_continue,html.Screen,10_11_2,2023-11-17T19:53:02.821Z,,,,,,,,,,,NaN,,,,,,,,low,low,,,,,,false,,,,,false,1357226.6000000238,1357226.300000012,,1357226.1000000238,,1357045.084,4,500,,
sequence,flow.Sequence,10_11,2023-11-17T19:53:02.821Z,,,,,,,,,,,8564.191000011982,completion,,,,,,,low,low,,,,,,false,,,,,false,1357227,1357226.300000012,1348628.761,1348834.3999999762,1348662.109,1357045.084,4,500,,
trial,html.Screen,10_12_0,2023-11-17T19:53:09.843Z,,,,1,,0.0102871556606504,,0.04,false,ll,7202.915999999968,response,-1.0161855018674797,1.0863053784716223,-1.0994186780783664,-1.1331366334676347,1.0800717855340944,-1.023194707018466,low,low,,ISIC_1805163.JPG,10,ISIC_3521671.JPG,26,false,0.11,hl,keypress(j),0,false,1364248.3999999762,1364248,1357028.452,1357227.1000000238,1357045.084,1364076.031,4,500,13,
break,html.Screen,10_12_1,2023-11-17T19:53:09.844Z,,,,,,,,,,,NaN,,,,,,,,low,low,,,,,,false,,,,,false,1364249.5,1364249.300000012,,1364248.800000012,,1364076.031,4,500,,
break_continue,html.Screen,10_12_2,2023-11-17T19:53:09.845Z,,,,,,,,,,,NaN,,,,,,,,low,low,,,,,,false,,,,,false,1364250.3999999762,1364250.1000000238,,1364249.800000012,,1364076.031,4,500,,
sequence,flow.Sequence,10_12,2023-11-17T19:53:09.845Z,,,,,,,,,,,7205.01600002381,completion,,,,,,,low,low,,,,,,false,,,,,false,1364250.800000012,1364250.1000000238,1357028.452,1357227.1000000238,1357045.084,1364076.031,4,500,,
trial,html.Screen,10_13_0,2023-11-17T19:53:22.203Z,,,,1,0.0388334549081915,-0.0303399972963369,,0.04,false,ll,12531.8689999762,response,-1.0211808747755002,1.0863053784716223,-1.0994186780783664,-0.9580728810269548,1.0800717855340944,-1.023194707018466,low,low,,ISIC_4961708.JPG,9,ISIC_1211506.JPG,26,false,0.11,hh,keypress(i),0,false,1376608.199999988,1376607.8999999762,1364042.173,1364251.1000000238,1364076.031,1376432.819,4,500,14,
break,html.Screen,10_13_1,2023-11-17T19:53:22.204Z,,,,,,,,,,,NaN,,,,,,,,low,low,,,,,,false,,,,,false,1376609.3999999762,1376609.199999988,,1376608.6000000238,,1376432.819,4,500,,
break_continue,html.Screen,10_13_2,2023-11-17T19:53:22.205Z,,,,,,,,,,,NaN,,,,,,,,low,low,,,,,,false,,,,,false,1376610.3999999762,1376609.8999999762,,1376609.699999988,,1376432.819,4,500,,
sequence,flow.Sequence,10_13,2023-11-17T19:53:22.205Z,,,,,,,,,,,12533.8689999762,completion,,,,,,,low,low,,,,,,false,,,,,false,1376610.699999988,1376609.8999999762,1364042.173,1364251,1364076.031,1376432.819,4,500,,
trial,html.Screen,10_14_0,2023-11-17T19:53:35.059Z,,,,1,0.0198696495649504,-0.0387952353063878,,0.04,true,lh,13031.181000000099,response,-1.075512775389519,1.0863053784716223,-1.0994186780783664,1.0454702683049502,1.0800717855340944,-1.023194707018466,low,high,,ISIC_6735970.JPG,9,ISIC_0033603.JPG,25,false,0.3400000000000002,lh,keypress(e),0,false,1389464.300000012,1389464,1376416.1,1376611,1376432.819,1389292.072,4,500,15,
break,html.Screen,10_14_1,2023-11-17T19:53:35.060Z,,,,,,,,,,,NaN,,,,,,,,low,high,,,,,,false,,,,,false,1389465.5,1389465.300000012,,1389464.800000012,,1389292.072,4,500,,
break_continue,html.Screen,10_14_2,2023-11-17T19:53:35.061Z,,,,,,,,,,,NaN,,,,,,,,low,high,,,,,,false,,,,,false,1389466.3999999762,1389466,,1389465.699999988,,1389292.072,4,500,,
sequence,flow.Sequence,10_14,2023-11-17T19:53:35.061Z,,,,,,,,,,,13033.181000000099,completion,,,,,,,low,high,,,,,,false,,,,,false,1389466.699999988,1389466,1376416.1,1376610.8999999762,1376432.819,1389292.072,4,500,,
trial,html.Screen,10_15_0,2023-11-17T19:53:41.323Z,,,,1,0.0388334549081915,-0.0303399972963369,,0.04,false,hl,6435.728000011994,response,1.0926414044454305,1.0863053784716223,-1.0994186780783664,-0.7741624649032207,1.0800717855340944,-1.023194707018466,high,low,,ISIC_4961708.JPG,9,ISIC_2355513.JPG,26,false,0.2500000000000001,hh,keypress(i),0,false,1395728.1000000238,1395727.800000012,1389258.005,1389466.8999999762,1389292.072,1395553.328,4,500,16,
break,html.Screen,10_15_1,2023-11-17T19:53:41.324Z,,,,,,,,,,,NaN,,,,,,,,high,low,,,,,,false,,,,,false,1395729.3999999762,1395729.1000000238,,1395728.5,,1395553.328,4,500,,
break_continue,html.Screen,10_15_2,2023-11-17T19:53:41.325Z,,,,,,,,,,,NaN,,,,,,,,high,low,,,,,,false,,,,,false,1395730.300000012,1395729.8999999762,,1395729.699999988,,1395553.328,4,500,,
sequence,flow.Sequence,10_15,2023-11-17T19:53:41.325Z,,,,,,,,,,,6437.827999976231,completion,,,,,,,high,low,,,,,,false,,,,,false,1395730.6000000238,1395729.8999999762,1389258.005,1389466.8999999762,1389292.072,1395553.328,4,500,,
trial,html.Screen,10_16_0,2023-11-17T19:53:47.393Z,,,,1,0.0109416414475118,0.005246498750811,,0.04,false,ll,6244.972000011941,response,-1.0733807306669467,1.0863053784716223,-1.0994186780783664,-0.9781766331161578,1.0800717855340944,-1.023194707018466,low,low,,ISIC_0064279.JPG,9,ISIC_0032383.JPG,26,false,0.11,lh,keypress(e),0,false,1401798.5,1401798.300000012,1395536.757,1395730.800000012,1395553.328,1401615.178,4,500,17,
break,html.Screen,10_16_1,2023-11-17T19:53:47.393Z,,,,,,,,,,,NaN,,,,,,,,low,low,,,,,,false,,,,,false,1401798.8999999762,1401798.800000012,,1401798.6000000238,,1401615.178,4,500,,
break_continue,html.Screen,10_16_2,2023-11-17T19:53:47.393Z,,,,,,,,,,,NaN,,,,,,,,low,low,,,,,,false,,,,,false,1401799,1401799,,1401798.8999999762,,1401615.178,4,500,,
sequence,flow.Sequence,10_16,2023-11-17T19:53:47.394Z,,,,,,,,,,,6245.6720000000205,completion,,,,,,,low,low,,,,,,false,,,,,false,1401799.1000000238,1401799,1395536.757,1395730.800000012,1395553.328,1401615.178,4,500,,
trial,html.Screen,10_17_0,2023-11-17T19:53:56.443Z,,,,1,0.0199950873045219,0.0172506388509166,,0.04,true,hh,9232.521999988006,response,1.1209497725708388,1.0863053784716223,-1.0994186780783664,0.9895687497294692,1.0800717855340944,-1.023194707018466,high,high,,ISIC_0029906.JPG,9,ISIC_0027751.JPG,33,false,0.1,hh,keypress(i),0,false,1410848.300000012,1410847.699999988,1401598.672,1401799.199999988,1401615.178,1410666.131,4,500,18,
break,html.Screen,10_17_1,2023-11-17T19:53:56.444Z,,,,,,,,,,,NaN,,,,,,,,high,high,,,,,,false,,,,,false,1410849.699999988,1410849.199999988,,1410848.699999988,,1410666.131,4,500,,
break_continue,html.Screen,10_17_2,2023-11-17T19:53:56.444Z,,,,,,,,,,,NaN,,,,,,,,high,high,,,,,,false,,,,,false,1410849.8999999762,1410849.800000012,,1410849.699999988,,1410666.131,4,500,,
sequence,flow.Sequence,10_17,2023-11-17T19:53:56.444Z,,,,,,,,,,,9234.622000011848,completion,,,,,,,high,high,,,,,,false,,,,,false,1410850,1410849.800000012,1401598.672,1401799.199999988,1401615.178,1410666.131,4,500,,
trial,html.Screen,10_18_0,2023-11-17T19:54:01.531Z,,,,1,-0.0257631352671967,-0.0202837002774028,,0.04,true,hh,5269.96900002379,response,1.060922596470156,1.0863053784716223,-1.0994186780783664,1.152385059054538,1.0800717855340944,-1.023194707018466,high,high,,ISIC_0032797.JPG,9,ISIC_0067719.JPG,33,false,0.1,hh,keypress(i),0,false,1415936.5,1415936.1000000238,1410649.639,1410850,1410666.131,1415759.447,4,500,19,
break,html.Screen,10_18_1,2023-11-17T19:54:01.532Z,,,,,,,,,,,NaN,,,,,,,,high,high,,,,,,false,,,,,false,1415937.6000000238,1415937.300000012,,1415936.800000012,,1415759.447,4,500,,
break_continue,html.Screen,10_18_2,2023-11-17T19:54:01.533Z,,,,,,,,,,,NaN,,,,,,,,high,high,,,,,,false,,,,,false,1415938.5,1415938.199999988,,1415937.8999999762,,1415759.447,4,500,,
sequence,flow.Sequence,10_18,2023-11-17T19:54:01.533Z,,,,,,,,,,,5272.068999988027,completion,,,,,,,high,high,,,,,,false,,,,,false,1415938.8999999762,1415938.199999988,1410649.639,1410850,1410666.131,1415759.447,4,500,,
trial,html.Screen,10_19_0,2023-11-17T19:54:08.585Z,,,,1,-0.0076984477620101,-0.0069458408496562,,0.04,true,ll,7230.853000011994,response,-1.0040510013663018,1.0863053784716223,-1.0994186780783664,-0.9707475308236284,1.0800717855340944,-1.023194707018466,low,low,,ISIC_0000434.JPG,10,ISIC_0026911.JPG,26,false,0.11,ll,keypress(f),0,false,1422990.5,1422990.300000012,1415742.847,1415939.1000000238,1415759.447,1422839.776,4,500,20,
break,html.Screen,10_19_1,2023-11-17T19:54:08.585Z,,,,,,,,,,,NaN,,,,,,,,low,low,,,,,,false,,,,,false,1422991,1422990.8999999762,,1422990.6000000238,,1422839.776,4,500,,
break_continue,html.Screen,10_19_2,2023-11-17T19:54:08.586Z,,,,,,,,,,,NaN,,,,,,,,low,low,,,,,,false,,,,,false,1422991.199999988,1422991.199999988,,1422991,,1422839.776,4,500,,
sequence,flow.Sequence,10_19,2023-11-17T19:54:08.586Z,,,,,,,,,,,7231.752999988152,completion,,,,,,,low,low,,,,,,false,,,,,false,1422991.300000012,1422991.199999988,1415742.847,1415939.1000000238,1415759.447,1422839.776,4,500,,
trial,html.Screen,10_20_0,2023-11-17T19:54:15.754Z,,,,1,-0.0009714874637896,0.0174815595031679,,0.04,false,lh,7319.824000023771,response,-0.8828738626295417,1.0863053784716223,-1.0994186780783664,0.8288177599439582,1.0800717855340944,-1.023194707018466,low,high,,ISIC_9848743.JPG,8,ISIC_0056041.JPG,25,false,0.3400000000000002,hh,keypress(i),0,false,1430159.8999999762,1430159.6000000238,1422789.793,1422991.3999999762,1422839.776,1430003.759,4,500,21,
break,html.Screen,10_20_1,2023-11-17T19:54:15.755Z,,,,,,,,,,,NaN,,,,,,,,low,high,,,,,,false,,,,,false,1430161,1430160.699999988,,1430160.199999988,,1430003.759,4,500,,
break_continue,html.Screen,10_20_2,2023-11-17T19:54:15.756Z,,,,,,,,,,,NaN,,,,,,,,low,high,,,,,,false,,,,,false,1430161.699999988,1430161.3999999762,,1430161.1000000238,,1430003.759,4,500,,
sequence,flow.Sequence,10_20,2023-11-17T19:54:15.756Z,,,,,,,,,,,7321.623999976087,completion,,,,,,,low,high,,,,,,false,,,,,false,1430162,1430161.3999999762,1422789.793,1422991.3999999762,1422839.776,1430003.759,4,500,,
trial,html.Screen,10_21_0,2023-11-17T19:54:25.851Z,,,,1,,0.0102871556606504,,0.04,true,lh,10252.440999988,response,-0.8513427412482127,1.0863053784716223,-1.0994186780783664,0.9295303568095064,1.0800717855340944,-1.023194707018466,low,high,,ISIC_1805163.JPG,9,ISIC_0034164.JPG,25,false,0.3400000000000002,lh,keypress(e),0,false,1440256.6000000238,1440256.199999988,1429953.619,1430162.199999988,1430003.759,1440090.066,4,500,22,
break,html.Screen,10_21_1,2023-11-17T19:54:25.852Z,,,,,,,,,,,NaN,,,,,,,,low,high,,,,,,false,,,,,false,1440257.699999988,1440257.3999999762,,1440256.8999999762,,1440090.066,4,500,,
break_continue,html.Screen,10_21_2,2023-11-17T19:54:25.853Z,,,,,,,,,,,NaN,,,,,,,,low,high,,,,,,false,,,,,false,1440258.6000000238,1440258.199999988,,1440258,,1440090.066,4,500,,
sequence,flow.Sequence,10_21,2023-11-17T19:54:25.853Z,,,,,,,,,,,10254.440999988,completion,,,,,,,low,high,,,,,,false,,,,,false,1440259,1440258.199999988,1429953.619,1430162.1000000238,1430003.759,1440090.066,4,500,,
trial,html.Screen,10_22_0,2023-11-17T19:54:37.347Z,,,,1,0.001445457736793,0.0165307427449982,,0.04,false,lh,11662.133999987971,response,-1.2054195059663604,1.0863053784716223,-1.0994186780783664,0.7760611240296147,1.0800717855340944,-1.023194707018466,low,high,,ISIC_0027350.JPG,9,ISIC_8712559.JPG,25,false,0.3400000000000002,ll,keypress(f),0,false,1451752.5,1451752.199999988,1440056.905,1440259.199999988,1440090.066,1451579.666,4,500,23,
break,html.Screen,10_22_1,2023-11-17T19:54:37.348Z,,,,,,,,,,,NaN,,,,,,,,low,high,,,,,,false,,,,,false,1451753.699999988,1451753.5,,1451752.8999999762,,1451579.666,4,500,,
break_continue,html.Screen,10_22_2,2023-11-17T19:54:37.349Z,,,,,,,,,,,NaN,,,,,,,,low,high,,,,,,false,,,,,false,1451754.6000000238,1451754.199999988,,1451753.8999999762,,1451579.666,4,500,,
sequence,flow.Sequence,10_22,2023-11-17T19:54:37.350Z,,,,,,,,,,,11664.133999987971,completion,,,,,,,low,high,,,,,,false,,,,,false,1451755,1451754.199999988,1440056.905,1440259.1000000238,1440090.066,1451579.666,4,500,,
trial,html.Screen,10_23_0,2023-11-17T19:54:46.147Z,,,,1,-0.0308384937406319,0.0038396364323947,,0.04,true,hh,8972.23399997619,response,1.0653732408486678,1.0863053784716223,-1.0994186780783664,1.089675540151582,1.0800717855340944,-1.023194707018466,high,high,,ISIC_0029825.JPG,9,ISIC_0058315.JPG,33,false,0.1,hh,keypress(i),0,false,1460552.199999988,1460551.8999999762,1451545.87,1451755.300000012,1451579.666,1460380.136,4,500,24,
break,html.Screen,10_23_1,2023-11-17T19:54:46.148Z,,,,,,,,,,,NaN,,,,,,,,high,high,,,,,,false,,,,,false,1460553.6000000238,1460553.199999988,,1460552.800000012,,1460380.136,4,500,,
break_continue,html.Screen,10_23_2,2023-11-17T19:54:46.149Z,,,,,,,,,,,NaN,,,,,,,,high,high,,,,,,false,,,,,false,1460554.6000000238,1460554.199999988,,1460553.8999999762,,1460380.136,4,500,,
sequence,flow.Sequence,10_23,2023-11-17T19:54:46.150Z,,,,,,,,,,,8974.53399998811,completion,,,,,,,high,high,,,,,,false,,,,,false,1460555,1460554.199999988,1451545.87,1451755.1000000238,1451579.666,1460380.136,4,500,,
trial,html.Screen,10_24_0,2023-11-17T19:54:53.420Z,,,,1,-0.0009714874637896,0.0174815595031679,,0.04,false,ll,7444.86400000006,response,-1.0257168197307909,1.0863053784716223,-1.0994186780783664,-1.0403166496930305,1.0800717855340944,-1.023194707018466,low,low,,ISIC_9848743.JPG,9,ISIC_1690909.JPG,26,false,0.11,hl,keypress(j),0,false,1467825.300000012,1467825,1460346.305,1460555.199999988,1460380.136,1467643.658,4,500,25,
break,html.Screen,10_24_1,2023-11-17T19:54:53.421Z,,,,,,,,,,,NaN,,,,,,,,low,low,,,,,,false,,,,,false,1467826.5,1467826.300000012,,1467825.800000012,,1467643.658,4,500,,
break_continue,html.Screen,10_24_2,2023-11-17T19:54:53.422Z,,,,,,,,,,,NaN,,,,,,,,low,low,,,,,,false,,,,,false,1467827.3999999762,1467827.1000000238,,1467826.800000012,,1467643.658,4,500,,
sequence,flow.Sequence,10_24,2023-11-17T19:54:53.422Z,,,,,,,,,,,7446.9640000239015,completion,,,,,,,low,low,,,,,,false,,,,,false,1467827.699999988,1467827.1000000238,1460346.305,1460555.199999988,1460380.136,1467643.658,4,500,,
trial,html.Screen,10_25_0,2023-11-17T19:55:00.755Z,,,,1,0.0388334549081915,-0.0303399972963369,,0.04,true,hh,7516.142000011867,response,1.0349570401423522,1.0863053784716223,-1.0994186780783664,1.0363323665817852,1.0800717855340944,-1.023194707018466,high,high,,ISIC_4961708.JPG,9,ISIC_0030107.JPG,33,false,0.1,hh,keypress(i),0,false,1475160.1000000238,1475159.800000012,1467627.109,1467828,1467643.658,1474991.324,4,500,26,
break,html.Screen,10_25_1,2023-11-17T19:55:00.756Z,,,,,,,,,,,NaN,,,,,,,,high,high,,,,,,false,,,,,false,1475161.300000012,1475161.1000000238,,1475160.5,,1474991.324,4,500,,
break_continue,html.Screen,10_25_2,2023-11-17T19:55:00.757Z,,,,,,,,,,,NaN,,,,,,,,high,high,,,,,,false,,,,,false,1475162.199999988,1475161.800000012,,1475161.5,,1474991.324,4,500,,
sequence,flow.Sequence,10_25,2023-11-17T19:55:00.757Z,,,,,,,,,,,7518.142000011867,completion,,,,,,,high,high,,,,,,false,,,,,false,1475162.5,1475161.800000012,1467627.109,1467827.8999999762,1467643.658,1474991.324,4,500,,
trial,html.Screen,10_26_0,2023-11-17T19:55:06.483Z,,,,1,0.0109416414475118,0.005246498750811,,0.04,true,hl,5896.675999999978,response,1.0788024398087033,1.0863053784716223,-1.0994186780783664,-0.9911875460374616,1.0800717855340944,-1.023194707018466,high,low,,ISIC_0064279.JPG,9,ISIC_5951430.JPG,26,false,0.2500000000000001,hl,keypress(j),0,false,1480888.3999999762,1480888,1474957.982,1475162.800000012,1474991.324,1480719.145,4,500,27,
break,html.Screen,10_26_1,2023-11-17T19:55:06.484Z,,,,,,,,,,,NaN,,,,,,,,high,low,,,,,,false,,,,,false,1480889.6000000238,1480889.199999988,,1480888.800000012,,1480719.145,4,500,,
break_continue,html.Screen,10_26_2,2023-11-17T19:55:06.485Z,,,,,,,,,,,NaN,,,,,,,,high,low,,,,,,false,,,,,false,1480890.5,1480890.199999988,,1480889.800000012,,1480719.145,4,500,,
sequence,flow.Sequence,10_26,2023-11-17T19:55:06.485Z,,,,,,,,,,,5898.875999988057,completion,,,,,,,high,low,,,,,,false,,,,,false,1480890.8999999762,1480890.199999988,1474957.982,1475162.800000012,1474991.324,1480719.145,4,500,,
trial,html.Screen,10_27_0,2023-11-17T19:55:12.675Z,,,,1,0.0241900387072296,-0.0339955304424736,,0.04,true,lh,6360.7549999761395,response,-0.7883321712536753,1.0863053784716223,-1.0994186780783664,1.0011430756825364,1.0800717855340944,-1.023194707018466,low,high,,ISIC_0010789.JPG,9,ISIC_9828853.JPG,25,false,0.3400000000000002,lh,keypress(e),0,false,1487080.199999988,1487079.8999999762,1480685.946,1480891,1480719.145,1486897.844,4,500,28,
break,html.Screen,10_27_1,2023-11-17T19:55:12.676Z,,,,,,,,,,,NaN,,,,,,,,low,high,,,,,,false,,,,,false,1487081.3999999762,1487081.1000000238,,1487080.6000000238,,1486897.844,4,500,,
break_continue,html.Screen,10_27_2,2023-11-17T19:55:12.677Z,,,,,,,,,,,NaN,,,,,,,,low,high,,,,,,false,,,,,false,1487082.300000012,1487081.8999999762,,1487081.699999988,,1486897.844,4,500,,
sequence,flow.Sequence,10_27,2023-11-17T19:55:12.677Z,,,,,,,,,,,6362.7549999761395,completion,,,,,,,low,high,,,,,,false,,,,,false,1487082.6000000238,1487081.8999999762,1480685.946,1480891,1480719.145,1486897.844,4,500,,
trial,html.Screen,10_28_0,2023-11-17T19:55:16.539Z,,,,1,0.0088741920055285,0.0058246074740588,,0.04,false,hh,4046.355999988038,response,1.068995482830036,1.0863053784716223,-1.0994186780783664,1.02189095692261,1.0800717855340944,-1.023194707018466,high,high,,ISIC_4136663.JPG,9,ISIC_0046405.JPG,33,false,0.1,lh,keypress(e),0,false,1490944.5,1490944.199999988,1486881.285,1487082.8999999762,1486897.844,1490772.043,4,500,29,
break,html.Screen,10_28_1,2023-11-17T19:55:16.540Z,,,,,,,,,,,NaN,,,,,,,,high,high,,,,,,false,,,,,false,1490945.800000012,1490945.3999999762,,1490945,,1490772.043,4,500,,
break_continue,html.Screen,10_28_2,2023-11-17T19:55:16.541Z,,,,,,,,,,,NaN,,,,,,,,high,high,,,,,,false,,,,,false,1490946.699999988,1490946.300000012,,1490946,,1490772.043,4,500,,
sequence,flow.Sequence,10_28,2023-11-17T19:55:16.542Z,,,,,,,,,,,4048.45600001188,completion,,,,,,,high,high,,,,,,false,,,,,false,1490947,1490946.300000012,1486881.285,1487082.800000012,1486897.844,1490772.043,4,500,,
trial,html.Screen,10_29_0,2023-11-17T19:55:20.491Z,,,,1,-0.0367744112927588,-0.0324865661712824,,0.04,true,hl,4123.956999999937,response,0.8544507134472948,1.0863053784716223,-1.0994186780783664,-0.9244388608707323,1.0800717855340944,-1.023194707018466,high,low,,ISIC_4523565.JPG,9,ISIC_3565564.JPG,26,false,0.2500000000000001,hl,keypress(j),0,false,1494896.3999999762,1494896,1490738.9,1490947.300000012,1490772.043,1494729.722,4,500,30,
break,html.Screen,10_29_1,2023-11-17T19:55:20.492Z,,,,,,,,,,,NaN,,,,,,,,high,low,,,,,,false,,,,,false,1494897.699999988,1494897.300000012,,1494896.800000012,,1494729.722,4,500,,
break_continue,html.Screen,10_29_2,2023-11-17T19:55:20.493Z,,,,,,,,,,,NaN,,,,,,,,high,low,,,,,,false,,,,,false,1494898.699999988,1494898.199999988,,1494898,,1494729.722,4,500,,
sequence,flow.Sequence,10_29,2023-11-17T19:55:20.494Z,,,,,,,,,,,4126.156999988016,completion,,,,,,,high,low,,,,,,false,,,,,false,1494899,1494898.199999988,1490738.9,1490947.199999988,1490772.043,1494729.722,4,500,,
trial,html.Screen,10_30_0,2023-11-17T19:55:25.787Z,,,,1,0.0088741920055285,0.0058246074740588,,0.04,true,lh,5461.977999988012,response,-1.075512775389519,1.0863053784716223,-1.0994186780783664,1.0454702683049502,1.0800717855340944,-1.023194707018466,low,high,,ISIC_4136663.JPG,9,ISIC_0033603.JPG,25,false,0.3400000000000002,lh,keypress(e),0,false,1500192.1000000238,1500191.699999988,1494696.472,1494899.199999988,1494729.722,1500006.689,4,500,31,
break,html.Screen,10_30_1,2023-11-17T19:55:25.788Z,,,,,,,,,,,NaN,,,,,,,,low,high,,,,,,false,,,,,false,1500193.300000012,1500193,,1500192.5,,1500006.689,4,500,,
break_continue,html.Screen,10_30_2,2023-11-17T19:55:25.789Z,,,,,,,,,,,NaN,,,,,,,,low,high,,,,,,false,,,,,false,1500194.199999988,1500193.800000012,,1500193.6000000238,,1500006.689,4,500,,
sequence,flow.Sequence,10_30,2023-11-17T19:55:25.789Z,,,,,,,,,,,5464.078000011854,completion,,,,,,,low,high,,,,,,false,,,,,false,1500194.5,1500193.800000012,1494696.472,1494899.199999988,1494729.722,1500006.689,4,500,,
trial,html.Screen,10_31_0,2023-11-17T19:55:30.891Z,,,,1,0.0065172941585523,-0.0118857043117315,,0.04,false,ll,5289.411000023829,response,-1.1055382068806878,1.0863053784716223,-1.0994186780783664,-1.0166010471189206,1.0800717855340944,-1.023194707018466,low,low,,ISIC_6119202.JPG,9,ISIC_5420979.JPG,26,false,0.11,lh,keypress(e),0,false,1505296.5,1505296.1000000238,1499990.189,1500194.800000012,1500006.689,1505116.636,4,500,32,
break,html.Screen,10_31_1,2023-11-17T19:55:30.893Z,,,,,,,,,,,NaN,,,,,,,,low,low,,,,,,false,,,,,false,1505297.800000012,1505297.5,,1505297,,1505116.636,4,500,,
break_continue,html.Screen,10_31_2,2023-11-17T19:55:30.894Z,,,,,,,,,,,NaN,,,,,,,,low,low,,,,,,false,,,,,false,1505298.699999988,1505298.300000012,,1505298,,1505116.636,4,500,,
sequence,flow.Sequence,10_31,2023-11-17T19:55:30.894Z,,,,,,,,,,,5291.611000011908,completion,,,,,,,low,low,,,,,,false,,,,,false,1505299.1000000238,1505298.300000012,1499990.189,1500194.699999988,1500006.689,1505116.636,4,500,,
trial,html.Screen,10_32_0,2023-11-17T19:55:38.043Z,,,,1,0.0374659946425444,0.0086043094957617,,0.04,true,hl,7331.263999976218,response,0.9617893983965208,1.0863053784716223,-1.0994186780783664,-0.9453006131304652,1.0800717855340944,-1.023194707018466,high,low,,ISIC_0033051.JPG,10,ISIC_4229473.JPG,26,false,0.2500000000000001,hl,keypress(j),0,false,1512448.199999988,1512447.8999999762,1505100.157,1505299.300000012,1505116.636,1512263.881,4,500,33,
break,html.Screen,10_32_1,2023-11-17T19:55:38.044Z,,,,,,,,,,,NaN,,,,,,,,high,low,,,,,,false,,,,,false,1512449.5,1512449.199999988,,1512448.699999988,,1512263.881,4,500,,
break_continue,html.Screen,10_32_2,2023-11-17T19:55:38.045Z,,,,,,,,,,,NaN,,,,,,,,high,low,,,,,,false,,,,,false,1512450.3999999762,1512450,,1512449.699999988,,1512263.881,4,500,,
sequence,flow.Sequence,10_32,2023-11-17T19:55:38.045Z,,,,,,,,,,,7333.36400000006,completion,,,,,,,high,low,,,,,,false,,,,,false,1512450.699999988,1512450,1505100.157,1505299.300000012,1505116.636,1512263.881,4,500,,
trial,html.Screen,10_33_0,2023-11-17T19:55:42.531Z,,,,1,-0.0367706518941078,0.0161069838272154,,0.04,false,ll,4672.518999976106,response,-1.0325421457475312,1.0863053784716223,-1.0994186780783664,-1.0219157566370058,1.0800717855340944,-1.023194707018466,low,low,,ISIC_0033419.JPG,8,ISIC_5336548.JPG,26,false,0.11,hl,keypress(j),0,false,1516936.699999988,1516936.3999999762,1512247.442,1512451,1512263.881,1516755.996,4,500,34,
break,html.Screen,10_33_1,2023-11-17T19:55:42.533Z,,,,,,,,,,,NaN,,,,,,,,low,low,,,,,,false,,,,,false,1516937.8999999762,1516937.6000000238,,1516937.199999988,,1516755.996,4,500,,
break_continue,html.Screen,10_33_2,2023-11-17T19:55:42.534Z,,,,,,,,,,,NaN,,,,,,,,low,low,,,,,,false,,,,,false,1516938.8999999762,1516938.5,,1516938.199999988,,1516755.996,4,500,,
sequence,flow.Sequence,10_33,2023-11-17T19:55:42.534Z,,,,,,,,,,,4674.618999999948,completion,,,,,,,low,low,,,,,,false,,,,,false,1516939.300000012,1516938.5,1512247.442,1512450.8999999762,1512263.881,1516755.996,4,500,,
trial,html.Screen,10_34_0,2023-11-17T19:55:48.714Z,,,,1,0.039520186367207,0.0377961575607372,,0.04,false,hh,6362.604000023799,response,1.068995482830036,1.0863053784716223,-1.0994186780783664,1.02189095692261,1.0800717855340944,-1.023194707018466,high,high,,ISIC_6356149.JPG,10,ISIC_0046405.JPG,33,false,0.1,lh,keypress(e),0,false,1523118.800000012,1523118.6000000238,1516739.445,1516939.5,1516755.996,1522951.321,4,500,35,
break,html.Screen,10_34_1,2023-11-17T19:55:48.714Z,,,,,,,,,,,NaN,,,,,,,,high,high,,,,,,false,,,,,false,1523119.199999988,1523119.1000000238,,1523118.8999999762,,1522951.321,4,500,,
break_continue,html.Screen,10_34_2,2023-11-17T19:55:48.714Z,,,,,,,,,,,NaN,,,,,,,,high,high,,,,,,false,,,,,false,1523119.3999999762,1523119.300000012,,1523119.300000012,,1522951.321,4,500,,
sequence,flow.Sequence,10_34,2023-11-17T19:55:48.714Z,,,,,,,,,,,6363.304000011878,completion,,,,,,,high,high,,,,,,false,,,,,false,1523119.5,1523119.300000012,1516739.445,1516939.5,1516755.996,1522951.321,4,500,,
trial,html.Screen,10_35_0,2023-11-17T19:55:54.731Z,,,,1,-0.0118382036798625,-0.0300588245877227,,0.04,true,lh,6184.878999988083,response,-0.9754077946987664,1.0863053784716223,-1.0994186780783664,1.1821868813141057,1.0800717855340944,-1.023194707018466,low,high,,ISIC_4748605.JPG,9,ISIC_0024317.JPG,25,false,0.3400000000000002,lh,keypress(e),0,false,1529136.5,1529136.199999988,1522918.185,1523119.6000000238,1522951.321,1528964.421,4,500,36,
break,html.Screen,10_35_1,2023-11-17T19:55:54.732Z,,,,,,,,,,,NaN,,,,,,,,low,high,,,,,,false,,,,,false,1529137.699999988,1529137.5,,1529136.8999999762,,1528964.421,4,500,,
break_continue,html.Screen,10_35_2,2023-11-17T19:55:54.733Z,,,,,,,,,,,NaN,,,,,,,,low,high,,,,,,false,,,,,false,1529138.6000000238,1529138.199999988,,1529138,,1528964.421,4,500,,
sequence,flow.Sequence,10_35,2023-11-17T19:55:54.734Z,,,,,,,,,,,6186.878999988083,completion,,,,,,,low,high,,,,,,false,,,,,false,1529139,1529138.199999988,1522918.185,1523119.6000000238,1522951.321,1528964.421,4,500,,
trial,html.Screen,10_36_0,2023-11-17T19:56:04.027Z,,,,1,-0.0308384937406319,0.0038396364323947,,0.04,true,hl,9467.57899999991,response,1.045301444872812,1.0863053784716223,-1.0994186780783664,-1.0872560254441277,1.0800717855340944,-1.023194707018466,high,low,,ISIC_0029825.JPG,10,ISIC_4507700.JPG,26,false,0.2500000000000001,hl,keypress(j),0,false,1538432.199999988,1538432,1528929.67,1529139.199999988,1528964.421,1538247.799,4,500,37,
break,html.Screen,10_36_1,2023-11-17T19:56:04.028Z,,,,,,,,,,,NaN,,,,,,,,high,low,,,,,,false,,,,,false,1538433.3999999762,1538433.199999988,,1538432.6000000238,,1538247.799,4,500,,
break_continue,html.Screen,10_36_2,2023-11-17T19:56:04.029Z,,,,,,,,,,,NaN,,,,,,,,high,low,,,,,,false,,,,,false,1538434.300000012,1538434,,1538433.699999988,,1538247.799,4,500,,
sequence,flow.Sequence,10_36,2023-11-17T19:56:04.029Z,,,,,,,,,,,9469.57899999991,completion,,,,,,,high,low,,,,,,false,,,,,false,1538434.699999988,1538434,1528929.67,1529139.1000000238,1528964.421,1538247.799,4,500,,
trial,html.Screen,10_37_0,2023-11-17T19:56:07.795Z,,,,1,-0.0220026381002083,0.0170756452911772,,0.04,false,ll,3952.5010000118054,response,-1.1409143352872226,1.0863053784716223,-1.0994186780783664,-1.1323007949069106,1.0800717855340944,-1.023194707018466,low,low,,ISIC_5347806.JPG,8,ISIC_0030291.JPG,26,false,0.11,hl,keypress(j),0,false,1542200.699999988,1542200.300000012,1538231.16,1538434.8999999762,1538247.799,1542021.807,4,500,38,
break,html.Screen,10_37_1,2023-11-17T19:56:07.797Z,,,,,,,,,,,NaN,,,,,,,,low,low,,,,,,false,,,,,false,1542202,1542201.6000000238,,1542201.1000000238,,1542021.807,4,500,,
break_continue,html.Screen,10_37_2,2023-11-17T19:56:07.798Z,,,,,,,,,,,NaN,,,,,,,,low,low,,,,,,false,,,,,false,1542202.800000012,1542202.3999999762,,1542202.199999988,,1542021.807,4,500,,
sequence,flow.Sequence,10_37,2023-11-17T19:56:07.798Z,,,,,,,,,,,3954.6009999760427,completion,,,,,,,low,low,,,,,,false,,,,,false,1542203.199999988,1542202.3999999762,1538231.16,1538434.800000012,1538247.799,1542021.807,4,500,,
