sender,sender_type,sender_id,timestamp,meta,,age,blockNo,c1,c2,condition,control_tolerance,correct,correctResponse,duration,ended_on,f1,f1_high,f1_low,f2,f2_high,f2_low,feature_level1,feature_level2,gender,img_left,img_reveal,img_right,n_target_images,practice,range_tolerance,response,response_action,selection_duration,staircase,time_commit,time_end,time_render,time_run,time_show,time_switch,total_blocks,total_trials,trialNo,url
informed_consent,html.Screen,0,2023-11-17T17:24:05.063Z,"{""labjs_version"":""20.2.4"",""labjs_build"":{""flavor"":""development"",""commit"":""f5b4a49f956347addd546a832a3327688c2c0fef""},""location"":""https://labjs.felixhenninger.com/api/labjs_preview/index.html"",""userAgent"":""Mozilla/5.0 (Windows NT 10.0; Win64; x64) AppleWebKit/537.36 (KHTML, like Gecko) Chrome/119.0.0.0 Safari/537.36"",""platform"":""Win32"",""language"":""en-US"",""locale"":""en-US"",""timeZone"":""America/Chicago"",""timezoneOffset"":360,""screen_width"":1680,""screen_height"":1050,""scroll_width"":825,""scroll_height"":888,""window_innerWidth"":825,""window_innerHeight"":936,""devicePixelRatio"":1}",,,,,,,,,,17458.136999964237,response,,,,,,,,,,,,,,,,consent,click button,,,18157.799999952316,18149.099999964237,674.315,861.6999999880791,690.963,17974.606,,,,{}
Demography form,html.Form,1,2023-11-17T17:24:12.615Z,,,18,,,,,,,,7734.894,form submission,,,,,,,,,male,,,,,,,,,,,25709.599999964237,25709.5,17957.897,18158,17974.606,25522.58,,,,
Welcome,html.Screen,2,2023-11-17T17:24:26.255Z,,,,,,,"[""bor"",""col""]",,,,13826.619999988077,response,,,,,,,,,,,,,,,,continue,click button,,,39349.799999952316,39349.19999998808,25505.941,25709.799999952316,25522.58,39165.847,,,,
demo_instructions,html.Screen,3,2023-11-17T17:25:13.879Z,,,,,,,,,,,47807.35299998808,response,,,,,,,,,,,,,,,,continue,click button,,,86973.69999998808,86973.19999998808,39149.348,39349.89999997616,39165.847,86841.954,,,,
trial,html.Screen,4_0_0,2023-11-17T17:25:18.621Z,,,,0,0.8987343013179191,-0.8149073454566363,,,true,lh,4873.245999988081,response,-1.2578167348825195,1.2,-1.2,0.8371819698254004,1.2,-1.2,low,high,,ISIC_0472513.JPG,,ISIC_9613570.JPG,26,true,0.4500000000000003,lh,keypress(e),100,false,91715.29999995232,91715.19999998808,86775.43,86974,86841.954,91551.219,1,16,1,
sequence,flow.Sequence,4_0,2023-11-17T17:25:18.621Z,,,,,,,,,,,4873.245999988081,completion,,,,,,,low,high,,,,,,true,,,,,false,91715.59999996424,91715.19999998808,86775.43,86973.89999997616,86841.954,91551.219,1,16,,
trial,html.Screen,4_1_0,2023-11-17T17:25:23.594Z,,,,0,0.8867328775712738,-1.0063426986460375,,,true,lh,5137.180999976161,response,-0.8926515927689261,1.2,-1.2,0.7935960767768927,1.2,-1.2,low,high,,ISIC_0055759.JPG,,ISIC_8901371.JPG,26,true,0.4500000000000003,lh,keypress(e),100,false,96688.79999995232,96688.39999997616,91534.458,91715.69999998808,91551.219,96527.482,1,16,2,
sequence,flow.Sequence,4_1,2023-11-17T17:25:23.595Z,,,,,,,,,,,5137.180999976161,completion,,,,,,,low,high,,,,,,true,,,,,false,96689.39999997616,96688.39999997616,91534.458,91715.59999996424,91551.219,96527.482,1,16,,
trial,html.Screen,4_2_0,2023-11-17T17:25:35.375Z,,,,0,0.8067116931297591,-1.215898074058027,,,true,lh,11941.117999964234,response,-0.8034318937720549,1.2,-1.2,1.0024917298189338,1.2,-1.2,low,high,,ISIC_1457687.JPG,,ISIC_0032766.JPG,26,true,0.4500000000000003,lh,keypress(e),100,false,108469.29999995232,108468.59999996424,96494.205,96689.79999995232,96527.482,108317.095,1,16,3,
sequence,flow.Sequence,4_2,2023-11-17T17:25:35.375Z,,,,,,,,,,,11941.117999964234,completion,,,,,,,low,high,,,,,,true,,,,,false,108470.09999996424,108468.59999996424,96494.205,96689.69999998808,96527.482,108317.095,1,16,,
trial,html.Screen,4_3_0,2023-11-17T17:25:37.896Z,,,,0,0.90812608370647,-1.2720026872926935,,,true,lh,2672.504999964236,response,-0.8830264383952469,1.2,-1.2,0.8635562538060516,1.2,-1.2,low,high,,ISIC_0450295.JPG,,ISIC_0032258.JPG,26,true,0.4500000000000003,lh,keypress(e),100,false,110990.29999995232,110989.59999996424,108283.773,108470.5,108317.095,110822.14,1,16,4,
sequence,flow.Sequence,4_3,2023-11-17T17:25:37.896Z,,,,,,,,,,,2672.504999964236,completion,,,,,,,low,high,,,,,,true,,,,,false,110991,110989.59999996424,108283.773,108470.39999997616,108317.095,110822.14,1,16,,
trial,html.Screen,4_4_0,2023-11-17T17:25:53.277Z,,,,0,1.0865209011322887,1.1401461171952545,,,true,ll,15549.36,response,-1.2290925886582755,1.2,-1.2,-0.8900015904856239,1.2,-1.2,low,low,,ISIC_0016145.JPG,,ISIC_5102688.JPG,203,true,0.40000000000000024,ll,keypress(f),100,false,126372,126371.5,110805.335,110991.29999995232,110822.14,126201.961,1,16,5,
sequence,flow.Sequence,4_4,2023-11-17T17:25:53.278Z,,,,,,,,,,,15549.36,completion,,,,,,,low,low,,,,,,true,,,,,false,126372.69999998808,126371.5,110805.335,110991.19999998808,110822.14,126201.961,1,16,,
trial,html.Screen,4_5_0,2023-11-17T17:26:19.380Z,,,,0,1.2691569063625474,1.1264228993232308,,,true,ll,26271.738999988083,response,-1.1684835186766898,1.2,-1.2,-1.2921331918483707,1.2,-1.2,low,low,,ISIC_4980656.JPG,,ISIC_5920470.JPG,25,true,0.14,ll,keypress(f),100,false,152474.29999995232,152473.69999998808,126185.314,126373.09999996424,126201.961,152302.913,1,16,6,
sequence,flow.Sequence,4_5,2023-11-17T17:26:19.381Z,,,,,,,,,,,26271.738999988083,completion,,,,,,,low,low,,,,,,true,,,,,false,152475.19999998808,152473.69999998808,126185.314,126372.89999997616,126201.961,152302.913,1,16,,
trial,html.Screen,4_6_0,2023-11-17T17:26:31.238Z,,,,0,1.2194553326562725,1.2381726989215684,,,true,ll,12029.386999952316,response,-1.1843968275545205,1.2,-1.2,-1.2828739728067764,1.2,-1.2,low,low,,ISIC_0068975.JPG,,ISIC_0002901.JPG,25,true,0.14,ll,keypress(f),100,false,164332.5,164332.29999995232,152286.066,152475.5,152302.913,164159.379,1,16,7,
sequence,flow.Sequence,4_6,2023-11-17T17:26:31.238Z,,,,,,,,,,,12029.386999952316,completion,,,,,,,low,low,,,,,,true,,,,,false,164332.79999995232,164332.29999995232,152286.066,152475.39999997616,152302.913,164159.379,1,16,,
trial,html.Screen,4_7_0,2023-11-17T17:26:40.928Z,,,,0,1.1441767540243375,1.0949087392471728,,,true,ll,9862.720999964251,response,-1.160746324899676,1.2,-1.2,-1.1927876559115576,1.2,-1.2,low,low,,ISIC_0054146.JPG,,ISIC_8651053.JPG,25,true,0.14,ll,keypress(f),100,false,174022.59999996424,174022.09999996424,164142.47,164332.79999995232,164159.379,173878.042,1,16,8,
sequence,flow.Sequence,4_7,2023-11-17T17:26:40.929Z,,,,,,,,,,,9862.720999964251,completion,,,,,,,low,low,,,,,,true,,,,,false,174023.29999995232,174022.09999996424,164142.47,164332.79999995232,164159.379,173878.042,1,16,,
trial,html.Screen,4_8_0,2023-11-17T17:26:47.566Z,,,,0,-0.7518277461369444,1.3860759020802074,,,true,hl,6782.857999976171,response,1.2081146885025262,1.2,-1.2,-1.195668832085049,1.2,-1.2,high,low,,ISIC_7967397.JPG,,ISIC_7369690.JPG,27,true,0.40000000000000024,hl,keypress(j),100,false,180661,180660.89999997616,173828.074,174023.59999996424,173878.042,180490.918,1,16,9,
sequence,flow.Sequence,4_8,2023-11-17T17:26:47.567Z,,,,,,,,,,,6782.857999976171,completion,,,,,,,high,low,,,,,,true,,,,,false,180661.19999998808,180660.89999997616,173828.074,174023.5,173878.042,180490.918,1,16,,
trial,html.Screen,4_9_0,2023-11-17T17:26:51.125Z,,,,0,-0.8472024037189965,0.986370061404882,,,true,hl,3728.481999976153,response,1.2020012168275056,1.2,-1.2,-0.923753102263735,1.2,-1.2,high,low,,ISIC_0054355.JPG,,ISIC_0000022.JPG,40,true,0.4500000000000003,hl,keypress(j),100,false,184219.5,184219.39999997616,180474.25,180661.29999995232,180490.918,184047.854,1,16,10,
sequence,flow.Sequence,4_9,2023-11-17T17:26:51.125Z,,,,,,,,,,,3728.481999976153,completion,,,,,,,high,low,,,,,,true,,,,,false,184219.59999996424,184219.39999997616,180474.25,180661.29999995232,180490.918,184047.854,1,16,,
trial,html.Screen,4_10_0,2023-11-17T17:26:52.869Z,,,,0,-1.075512775389519,1.0454702683049502,,,true,hl,1915.845999988087,response,1.2081146885025262,1.2,-1.2,-1.195668832085049,1.2,-1.2,high,low,,ISIC_0033603.JPG,,ISIC_7369690.JPG,40,true,0.4500000000000003,hl,keypress(j),100,false,185964.09999996424,185963.69999998808,184031.164,184219.59999996424,184047.854,185801.282,1,16,11,
sequence,flow.Sequence,4_10,2023-11-17T17:26:52.870Z,,,,,,,,,,,1915.845999988087,completion,,,,,,,high,low,,,,,,true,,,,,false,185964.69999998808,185963.69999998808,184031.164,184219.59999996424,184047.854,185801.282,1,16,,
trial,html.Screen,4_11_0,2023-11-17T17:26:55.784Z,,,,0,-1.0453124399868816,0.8986747280184286,,,true,hl,3076.5179999523098,response,0.9244148283103414,1.2,-1.2,-0.9712966348713286,1.2,-1.2,high,low,,ISIC_0013967.JPG,,ISIC_7927525.JPG,40,true,0.4500000000000003,hl,keypress(j),100,false,188878.29999995232,188877.79999995232,185767.918,185965,185801.282,188706.907,1,16,12,
sequence,flow.Sequence,4_11,2023-11-17T17:26:55.784Z,,,,,,,,,,,3076.5179999523098,completion,,,,,,,high,low,,,,,,true,,,,,false,188879,188877.79999995232,185767.918,185964.89999997616,185801.282,188706.907,1,16,,
trial,html.Screen,4_12_0,2023-11-17T17:26:59.950Z,,,,0,-1.1870093485714288,-1.3339880978442629,,,true,hh,4337.5929999999935,response,1.063036912656269,1.2,-1.2,1.1534875859179432,1.2,-1.2,high,high,,ISIC_8592235.JPG,,ISIC_0010772.JPG,359,true,0.4500000000000003,hh,keypress(i),100,false,193045,193044.5,188690.294,188879.19999998808,188706.907,192865.023,1,16,13,
sequence,flow.Sequence,4_12,2023-11-17T17:26:59.951Z,,,,,,,,,,,4337.5929999999935,completion,,,,,,,high,high,,,,,,true,,,,,false,193045.5,193044.5,188690.294,188879.09999996424,188706.907,192865.023,1,16,,
trial,html.Screen,4_13_0,2023-11-17T17:27:02.454Z,,,,0,-1.0943527860463682,-1.124481746658104,,,true,hh,2683.3769999761716,response,1.071312313440387,1.2,-1.2,1.0935391476164529,1.2,-1.2,high,high,,ISIC_0438136.JPG,,ISIC_0063680.JPG,40,true,0.14,hh,keypress(i),100,false,195548.79999995232,195548.39999997616,192848.383,193045.69999998808,192865.023,195369.94,1,16,14,
sequence,flow.Sequence,4_13,2023-11-17T17:27:02.455Z,,,,,,,,,,,2683.3769999761716,completion,,,,,,,high,high,,,,,,true,,,,,false,195549.5,195548.39999997616,192848.383,193045.69999998808,192865.023,195369.94,1,16,,
trial,html.Screen,4_14_0,2023-11-17T17:27:04.221Z,,,,0,-1.2946277435220357,-1.255157480204324,,,true,hh,1945.7599999880767,response,1.2118207001489876,1.2,-1.2,1.3164676315545727,1.2,-1.2,high,high,,ISIC_1870309.JPG,,ISIC_0066476.JPG,40,true,0.14,hh,keypress(i),100,false,197316,197315.69999998808,195353.31,195549.79999995232,195369.94,197139.985,1,16,15,
sequence,flow.Sequence,4_14,2023-11-17T17:27:04.222Z,,,,,,,,,,,1945.7599999880767,completion,,,,,,,high,high,,,,,,true,,,,,false,197316.59999996424,197315.69999998808,195353.31,195549.79999995232,195369.94,197139.985,1,16,,
trial,html.Screen,4_15_0,2023-11-17T17:27:05.922Z,,,,0,-1.2541318165695772,-1.085289936617366,,,true,hh,1876.3149999523303,response,1.060922596470156,1.2,-1.2,1.152385059054538,1.2,-1.2,high,high,,ISIC_4277207.JPG,,ISIC_0067719.JPG,40,true,0.14,hh,keypress(i),100,false,199016.69999998808,199016.29999995232,197123.416,197316.79999995232,197139.985,198843.321,1,16,16,
sequence,flow.Sequence,4_15,2023-11-17T17:27:05.923Z,,,,,,,,,,,1876.3149999523303,completion,,,,,,,high,high,,,,,,true,,,,,false,199017.29999995232,199016.29999995232,197123.416,197316.79999995232,197139.985,198843.321,1,16,,
demonstration_loop,flow.Loop,4,2023-11-17T17:27:05.923Z,,,,,,,,,,,112174.34599995232,completion,,,,,,,,,,,,,,true,,,,,false,199017.5,199016.29999995232,86775.43,86973.89999997616,86841.954,198843.321,1,16,,
practice_instructions,html.Screen,5,2023-11-17T17:27:09.271Z,,,,,,,,,,,3521.6790000000037,response,,,,,,,,,,,,,,,,continue,click button,,,202365.5,202365,198826.731,199017.69999998808,198843.321,202200.109,,,,
trial,html.Screen,6_0_0,2023-11-17T17:27:25.117Z,,,,1,1.1441767540243375,1.0949087392471728,,,,,15830.635999999999,timeout,-1.2724293858920366,1.2,-1.2,-1.149360738769835,1.2,-1.2,low,low,,ISIC_0054146.JPG,,ISIC_1264725.JPG,25,true,0.14,,,0,false,218211.29999995232,218211.09999996424,202183.158,202365.59999996424,202200.109,218030.745,1,40,1,
sequence,flow.Sequence,6_0,2023-11-17T17:27:25.117Z,,,,,,,,,,,16010.99099996424,completion,,,,,,,low,low,,,,,,true,,,,,false,218211.39999997616,218211.09999996424,202183.158,202365.59999996424,202200.109,218030.745,1,40,,
trial,html.Screen,6_1_0,2023-11-17T17:27:33.026Z,,,,1,1.0865209011322887,1.1401461171952545,,,true,ll,8090.054999952321,response,-1.274752206258116,1.2,-1.2,-1.2988509166163749,1.2,-1.2,low,low,,ISIC_0016145.JPG,,ISIC_6704623.JPG,25,true,0.14,ll,keypress(f),0,false,226121,226120.79999995232,218014.096,218211.39999997616,218030.745,225979.443,1,40,2,
sequence,flow.Sequence,6_1,2023-11-17T17:27:33.027Z,,,,,,,,,,,8090.054999952321,completion,,,,,,,low,low,,,,,,true,,,,,false,226121,226120.79999995232,218014.096,218211.39999997616,218030.745,225979.443,1,40,,
trial,html.Screen,6_2_0,2023-11-17T17:27:39.785Z,,,,1,-0.9754077946987664,1.1821868813141057,,,true,hl,6899.25699998808,response,0.9089402323867112,1.2,-1.2,-0.8034544077281132,1.2,-1.2,high,low,,ISIC_0024317.JPG,,ISIC_3585381.JPG,27,true,0.40000000000000024,hl,keypress(j),0,false,232878.89999997616,232878.69999998808,225929.378,226121.09999996424,225979.443,232692.603,1,40,3,
sequence,flow.Sequence,6_2,2023-11-17T17:27:39.785Z,,,,,,,,,,,6899.25699998808,completion,,,,,,,high,low,,,,,,true,,,,,false,232879.39999997616,232878.69999998808,225929.378,226121.09999996424,225979.443,232692.603,1,40,,
trial,html.Screen,6_3_0,2023-11-17T17:27:51.833Z,,,,1,1.2033647433750492,1.0718012192341555,,,false,ll,12234.696999952313,response,-0.979674241817633,1.2,-1.2,-0.8567251746816678,1.2,-1.2,low,low,,ISIC_0061606.JPG,,ISIC_0006757.JPG,265,true,0.4500000000000003,hl,keypress(j),0,false,244927.69999998808,244927.29999995232,232675.83,232879.69999998808,232692.603,244782.714,1,40,4,
sequence,flow.Sequence,6_3,2023-11-17T17:27:51.834Z,,,,,,,,,,,12234.696999952313,completion,,,,,,,low,low,,,,,,true,,,,,false,244928.29999995232,244927.29999995232,232675.83,232879.59999996424,232692.603,244782.714,1,40,,
trial,html.Screen,6_4_0,2023-11-17T17:28:03.321Z,,,,1,0.8867328775712738,-1.0063426986460375,,,true,lh,11632.485999988072,response,-0.8926515927689261,1.2,-1.2,0.7935960767768927,1.2,-1.2,low,high,,ISIC_0055759.JPG,,ISIC_8901371.JPG,26,true,0.4500000000000003,lh,keypress(e),0,false,256415.59999996424,256415.19999998808,244732.686,244928.59999996424,244782.714,256238.978,1,40,5,
sequence,flow.Sequence,6_4,2023-11-17T17:28:03.322Z,,,,,,,,,,,11632.485999988072,completion,,,,,,,low,high,,,,,,true,,,,,false,256416.19999998808,256415.19999998808,244732.686,244928.5,244782.714,256238.978,1,40,,
trial,html.Screen,6_5_0,2023-11-17T17:28:19.153Z,,,,1,-1.077278111180185,-1.1530533996184025,,,true,hh,16008.321999952313,response,1.3242884828161026,1.2,-1.2,1.599657170839185,1.2,-1.2,high,high,,ISIC_9525136.JPG,,ISIC_0073136.JPG,288,true,0.40000000000000024,hh,keypress(i),0,false,272247.59999996424,272247.2999999523,256204.838,256416.29999995232,256238.978,272119.267,1,40,6,
sequence,flow.Sequence,6_5,2023-11-17T17:28:19.154Z,,,,,,,,,,,16008.321999952313,completion,,,,,,,high,high,,,,,,true,,,,,false,272248.09999996424,272247.2999999523,256204.838,256416.29999995232,256238.978,272119.267,1,40,,
trial,html.Screen,6_6_0,2023-11-17T17:28:29.209Z,,,,1,-0.7518277461369444,1.3860759020802074,,,true,hl,10183.733000000007,response,1.2081146885025262,1.2,-1.2,-1.195668832085049,1.2,-1.2,high,low,,ISIC_7967397.JPG,,ISIC_7369690.JPG,27,true,0.40000000000000024,hl,keypress(j),0,false,282303.2999999523,282303,272052.559,272248.39999997616,272119.267,282122.144,1,40,7,
sequence,flow.Sequence,6_6,2023-11-17T17:28:29.209Z,,,,,,,,,,,10183.733000000007,completion,,,,,,,high,low,,,,,,true,,,,,false,282303.7999999523,282303,272052.559,272248.39999997616,272119.267,282122.144,1,40,,
trial,html.Screen,6_7_0,2023-11-17T17:28:37.369Z,,,,1,1.266079261381142,1.312161506160336,,,true,ll,8340.755999976187,response,-1.2415939235112592,1.2,-1.2,-0.8158008958972826,1.2,-1.2,low,low,,ISIC_0065449.JPG,,ISIC_1356715.JPG,265,true,0.4500000000000003,ll,keypress(f),0,false,290463.2999999523,290462.89999997616,282105.522,282304,282122.144,290271.27,1,40,8,
sequence,flow.Sequence,6_7,2023-11-17T17:28:37.369Z,,,,,,,,,,,8340.755999976187,completion,,,,,,,low,low,,,,,,true,,,,,false,290463.7999999523,290462.89999997616,282105.522,282303.89999997616,282122.144,290271.27,1,40,,
trial,html.Screen,6_8_0,2023-11-17T17:28:52.312Z,,,,1,-1.2100527057059796,-1.2159112471537263,,,true,hh,15134.62999997614,response,1.082709423673037,1.2,-1.2,1.1184338818466155,1.2,-1.2,high,high,,ISIC_0008055.JPG,,ISIC_0058666.JPG,30,true,0.13,hh,keypress(i),0,false,305406.09999996424,305405.89999997616,290254.646,290464.09999996424,290271.27,305267.112,1,40,9,
sequence,flow.Sequence,6_8,2023-11-17T17:28:52.312Z,,,,,,,,,,,15134.62999997614,completion,,,,,,,high,high,,,,,,true,,,,,false,305406.1999999881,305405.89999997616,290254.646,290464,290271.27,305267.112,1,40,,
trial,html.Screen,6_9_0,2023-11-17T17:29:04.049Z,,,,1,0.8067116931297591,-1.215898074058027,,,true,lh,11876.187999952293,response,-0.8828738626295417,1.2,-1.2,0.8288177599439582,1.2,-1.2,low,high,,ISIC_1457687.JPG,,ISIC_0056041.JPG,26,true,0.4500000000000003,lh,keypress(e),0,false,317143.59999996424,317143.2999999523,305200.41,305406.2999999523,305267.112,316956.516,1,40,10,
sequence,flow.Sequence,6_9,2023-11-17T17:29:04.050Z,,,,,,,,,,,11876.187999952293,completion,,,,,,,low,high,,,,,,true,,,,,false,317144.09999996424,317143.2999999523,305200.41,305406.2999999523,305267.112,316956.516,1,40,,
trial,html.Screen,6_10_0,2023-11-17T17:29:11.753Z,,,,1,-1.3379750533585932,-1.1671342614509763,,,true,hh,7890.483999999997,response,0.9440014359399233,1.2,-1.2,1.1669331267934089,1.2,-1.2,high,high,,ISIC_0063556.JPG,,ISIC_0026115.JPG,288,true,0.40000000000000024,hh,keypress(i),0,false,324847.39999997616,324847,316939.724,317144.39999997616,316956.516,324654.901,1,40,11,
sequence,flow.Sequence,6_10,2023-11-17T17:29:11.754Z,,,,,,,,,,,7890.483999999997,completion,,,,,,,high,high,,,,,,true,,,,,false,324847.89999997616,324847,316939.724,317144.2999999523,316956.516,324654.901,1,40,,
trial,html.Screen,6_11_0,2023-11-17T17:29:20.953Z,,,,1,1.186629690487006,1.3269945600040771,,,true,ll,9392.498999976146,response,-1.3246728710248594,1.2,-1.2,-1.1527736000922424,1.2,-1.2,low,low,,ISIC_0015390.JPG,,ISIC_6876281.JPG,25,true,0.14,ll,keypress(f),0,false,334047.6999999881,334047.39999997616,324638.324,324848.1999999881,324654.901,333906.191,1,40,12,
sequence,flow.Sequence,6_11,2023-11-17T17:29:20.954Z,,,,,,,,,,,9392.498999976146,completion,,,,,,,low,low,,,,,,true,,,,,false,334048.2999999523,334047.39999997616,324638.324,324848.09999996424,324654.901,333906.191,1,40,,
trial,html.Screen,6_12_0,2023-11-17T17:29:27.369Z,,,,1,0.90812608370647,-1.2720026872926935,,,true,lh,6556.608999952325,response,-1.2054195059663604,1.2,-1.2,0.7760611240296147,1.2,-1.2,low,high,,ISIC_0450295.JPG,,ISIC_8712559.JPG,26,true,0.4500000000000003,lh,keypress(e),0,false,340463.1999999881,340462.7999999523,333839.617,334048.6999999881,333906.191,340286.679,1,40,13,
sequence,flow.Sequence,6_12,2023-11-17T17:29:27.369Z,,,,,,,,,,,6556.608999952325,completion,,,,,,,low,high,,,,,,true,,,,,false,340463.59999996424,340462.7999999523,333839.617,334048.59999996424,333906.191,340286.679,1,40,,
trial,html.Screen,6_13_0,2023-11-17T17:29:39.825Z,,,,1,1.1936751736668425,1.2584308630745344,,,true,ll,12632.620999952313,response,-0.8674472391512381,1.2,-1.2,-1.3423814609370837,1.2,-1.2,low,low,,ISIC_0061265.JPG,,ISIC_0014431.JPG,203,true,0.40000000000000024,ll,keypress(f),0,false,352919.59999996424,352919.2999999523,340252.08,340463.7999999523,340286.679,352726.233,1,40,14,
sequence,flow.Sequence,6_13,2023-11-17T17:29:39.826Z,,,,,,,,,,,12632.620999952313,completion,,,,,,,low,low,,,,,,true,,,,,false,352920.1999999881,352919.2999999523,340252.08,340463.7999999523,340286.679,352726.233,1,40,,
trial,html.Screen,6_14_0,2023-11-17T17:29:48.817Z,,,,1,-1.2219550761700546,-1.2809901875733454,,,true,hh,9184.36699996423,response,1.1441767540243375,1.2,-1.2,1.0949087392471728,1.2,-1.2,high,high,,ISIC_6463417.JPG,,ISIC_0054146.JPG,30,true,0.13,hh,keypress(i),0,false,361910.89999997616,361910.59999996424,352709.598,352920.39999997616,352726.233,361727.018,1,40,15,
sequence,flow.Sequence,6_14,2023-11-17T17:29:48.817Z,,,,,,,,,,,9184.36699996423,completion,,,,,,,high,high,,,,,,true,,,,,false,361911.5,361910.59999996424,352709.598,352920.39999997616,352726.233,361727.018,1,40,,
trial,html.Screen,6_15_0,2023-11-17T17:29:55.513Z,,,,1,-1.2600330864275875,-1.0958628838888655,,,true,hh,6880.181999988097,response,1.3307612087763094,1.2,-1.2,1.075775252699004,1.2,-1.2,high,high,,ISIC_0026996.JPG,,ISIC_0063601.JPG,40,true,0.14,hh,keypress(i),0,false,368607.59999996424,368607.1999999881,361710.437,361911.6999999881,361727.018,368423.358,1,40,16,
sequence,flow.Sequence,6_15,2023-11-17T17:29:55.514Z,,,,,,,,,,,6880.181999988097,completion,,,,,,,high,high,,,,,,true,,,,,false,368608.1999999881,368607.1999999881,361710.437,361911.6999999881,361727.018,368423.358,1,40,,
trial,html.Screen,6_16_0,2023-11-17T17:30:01.944Z,,,,1,1.2014901828022857,1.1484096197304636,,,false,ll,6614.74199996423,response,-1.0943527860463682,1.2,-1.2,-1.124481746658104,1.2,-1.2,low,low,,ISIC_0067808.JPG,,ISIC_0438136.JPG,25,true,0.14,lh,keypress(e),0,false,375038.1999999881,375038.09999996424,368406.908,368608.5,368423.358,374885.977,1,40,17,
sequence,flow.Sequence,6_16,2023-11-17T17:30:01.944Z,,,,,,,,,,,6614.74199996423,completion,,,,,,,low,low,,,,,,true,,,,,false,375038.5,375038.09999996424,368406.908,368608.39999997616,368423.358,374885.977,1,40,,
trial,html.Screen,6_17_0,2023-11-17T17:30:08.937Z,,,,1,-1.199471562817528,0.8631260534979347,,,true,hl,7145.322999952303,response,0.9244148283103414,1.2,-1.2,-0.9712966348713286,1.2,-1.2,high,low,,ISIC_0030754.JPG,,ISIC_7927525.JPG,27,true,0.40000000000000024,hl,keypress(j),0,false,382031.6999999881,382031.2999999523,374836.06,375038.5,374885.977,381849.532,1,40,18,
sequence,flow.Sequence,6_17,2023-11-17T17:30:08.938Z,,,,,,,,,,,7145.322999952303,completion,,,,,,,high,low,,,,,,true,,,,,false,382032.1999999881,382031.2999999523,374836.06,375038.5,374885.977,381849.532,1,40,,
trial,html.Screen,6_18_0,2023-11-17T17:30:17.680Z,,,,1,0.9633172970727744,-0.8472659344792351,,,true,lh,8925.367999976152,response,-1.0329549150636406,1.2,-1.2,1.01584100839286,1.2,-1.2,low,high,,ISIC_0067172.JPG,,ISIC_0054670.JPG,26,true,0.4500000000000003,lh,keypress(e),0,false,390775.1999999881,390774.89999997616,381832.936,382032.39999997616,381849.532,390616.553,1,40,19,
sequence,flow.Sequence,6_18,2023-11-17T17:30:17.681Z,,,,,,,,,,,8925.367999976152,completion,,,,,,,low,high,,,,,,true,,,,,false,390775.6999999881,390774.89999997616,381832.936,382032.2999999523,381849.532,390616.553,1,40,,
trial,html.Screen,6_19_0,2023-11-17T17:30:20.904Z,,,,1,-1.3046390428588206,0.7942099232219556,,,true,hl,3381.6469999880646,response,0.9633172970727744,1.2,-1.2,-0.8472659344792351,1.2,-1.2,high,low,,ISIC_0013096.JPG,,ISIC_0067172.JPG,27,true,0.40000000000000024,hl,keypress(j),0,false,393998.39999997616,393998.1999999881,390566.589,390776,390616.553,393806.174,1,40,20,
sequence,flow.Sequence,6_19,2023-11-17T17:30:20.904Z,,,,,,,,,,,3381.6469999880646,completion,,,,,,,high,low,,,,,,true,,,,,false,393998.6999999881,393998.1999999881,390566.589,390776,390616.553,393806.174,1,40,,
trial,html.Screen,6_20_0,2023-11-17T17:30:23.001Z,,,,1,1.2033647433750492,1.0718012192341555,,,true,ll,2288.826000000001,response,-0.8628391797088851,1.2,-1.2,-1.2689449231451748,1.2,-1.2,low,low,,ISIC_0061606.JPG,,ISIC_0001743.JPG,265,true,0.4500000000000003,ll,keypress(f),0,false,396095.39999997616,396095,393789.635,393998.7999999523,393806.174,395910.241,1,40,21,
sequence,flow.Sequence,6_20,2023-11-17T17:30:23.001Z,,,,,,,,,,,2288.826000000001,completion,,,,,,,low,low,,,,,,true,,,,,false,396095.89999997616,396095,393789.635,393998.6999999881,393806.174,395910.241,1,40,,
trial,html.Screen,6_21_0,2023-11-17T17:30:24.488Z,,,,1,1.14454137020797,1.1082302786512033,,,true,ll,1672.5589999523363,response,-1.0943527860463682,1.2,-1.2,-1.124481746658104,1.2,-1.2,low,low,,ISIC_0065128.JPG,,ISIC_0438136.JPG,25,true,0.14,ll,keypress(f),0,false,397583.09999996424,397582.7999999523,395893.72,396096.09999996424,395910.241,397429.845,1,40,22,
sequence,flow.Sequence,6_21,2023-11-17T17:30:24.489Z,,,,,,,,,,,1672.5589999523363,completion,,,,,,,low,low,,,,,,true,,,,,false,397583.6999999881,397582.7999999523,395893.72,396096.09999996424,395910.241,397429.845,1,40,,
trial,html.Screen,6_22_0,2023-11-17T17:30:26.464Z,,,,1,-1.2578167348825195,0.8371819698254004,,,true,hl,2128.954999952344,response,1.0116417541846066,1.2,-1.2,-1.033442916947398,1.2,-1.2,high,low,,ISIC_9613570.JPG,,ISIC_0031389.JPG,27,true,0.40000000000000024,hl,keypress(j),0,false,399559.09999996424,399558.7999999523,397379.884,397583.89999997616,397429.845,399383.658,1,40,23,
sequence,flow.Sequence,6_22,2023-11-17T17:30:26.465Z,,,,,,,,,,,2128.954999952344,completion,,,,,,,high,low,,,,,,true,,,,,false,399559.6999999881,399558.7999999523,397379.884,397583.7999999523,397429.845,399383.658,1,40,,
trial,html.Screen,6_23_0,2023-11-17T17:30:35.881Z,,,,1,1.0685314915436992,-0.8203833713472237,,,true,lh,9591.64199995232,response,-1.199471562817528,1.2,-1.2,0.8631260534979347,1.2,-1.2,low,high,,ISIC_0029374.JPG,,ISIC_0030754.JPG,26,true,0.4500000000000003,lh,keypress(e),0,false,408975.59999996424,408975.2999999523,399350.432,399559.89999997616,399383.658,408785.301,1,40,24,
sequence,flow.Sequence,6_23,2023-11-17T17:30:35.881Z,,,,,,,,,,,9591.64199995232,completion,,,,,,,low,high,,,,,,true,,,,,false,408976.09999996424,408975.2999999523,399350.432,399559.7999999523,399383.658,408785.301,1,40,,
trial,html.Screen,6_24_0,2023-11-17T17:30:42.473Z,,,,1,1.1017564906891342,1.293633394635193,,,true,ll,6781.699000000022,response,-0.8771268423449017,1.2,-1.2,-1.1920987821412627,1.2,-1.2,low,low,,ISIC_0029026.JPG,,ISIC_9957389.JPG,203,true,0.40000000000000024,ll,keypress(f),0,false,415567.39999997616,415567,408768.593,408976.2999999523,408785.301,415414.85,1,40,25,
sequence,flow.Sequence,6_24,2023-11-17T17:30:42.473Z,,,,,,,,,,,6781.699000000022,completion,,,,,,,low,low,,,,,,true,,,,,false,415568,415567,408768.593,408976.2999999523,408785.301,415414.85,1,40,,
trial,html.Screen,6_25_0,2023-11-17T17:30:49.143Z,,,,1,-0.989300717252516,0.7908280206937478,,,true,hl,6822.94999995234,response,0.8047295996345292,1.2,-1.2,-1.551750455622795,1.2,-1.2,high,low,,ISIC_6416533.JPG,,ISIC_7717907.JPG,27,true,0.40000000000000024,hl,keypress(j),0,false,422237.89999997616,422237.7999999523,415364.898,415568.2999999523,415414.85,422044.413,1,40,26,
sequence,flow.Sequence,6_25,2023-11-17T17:30:49.143Z,,,,,,,,,,,6822.94999995234,completion,,,,,,,high,low,,,,,,true,,,,,false,422238.09999996424,422237.7999999523,415364.898,415568.1999999881,415414.85,422044.413,1,40,,
trial,html.Screen,6_26_0,2023-11-17T17:30:53.879Z,,,,1,-1.2600330864275875,-1.0958628838888655,,,true,hh,4929.286999988079,response,1.2977265460592142,1.2,-1.2,0.7659165333957175,1.2,-1.2,high,high,,ISIC_0026996.JPG,,ISIC_3738751.JPG,359,true,0.4500000000000003,hh,keypress(i),0,false,426973.7999999523,426973.6999999881,422027.888,422238.09999996424,422044.413,426820.373,1,40,27,
sequence,flow.Sequence,6_26,2023-11-17T17:30:53.879Z,,,,,,,,,,,4929.286999988079,completion,,,,,,,high,high,,,,,,true,,,,,false,426973.89999997616,426973.6999999881,422027.888,422238.09999996424,422044.413,426820.373,1,40,,
trial,html.Screen,6_27_0,2023-11-17T17:30:59.272Z,,,,1,-0.7518277461369444,1.3860759020802074,,,true,hl,5545.926999952295,response,0.8067116931297591,1.2,-1.2,-1.215898074058027,1.2,-1.2,high,low,,ISIC_7967397.JPG,,ISIC_1457687.JPG,27,true,0.40000000000000024,hl,keypress(j),0,false,432366.39999997616,432366.2999999523,426770.373,426973.89999997616,426820.373,432180.836,1,40,28,
sequence,flow.Sequence,6_27,2023-11-17T17:30:59.272Z,,,,,,,,,,,5545.926999952295,completion,,,,,,,high,low,,,,,,true,,,,,false,432366.59999996424,432366.2999999523,426770.373,426973.89999997616,426820.373,432180.836,1,40,,
trial,html.Screen,6_28_0,2023-11-17T17:31:01.977Z,,,,1,-1.160746324899676,-1.1927876559115576,,,true,hh,2890.1639999999898,response,1.2691569063625474,1.2,-1.2,1.1264228993232308,1.2,-1.2,high,high,,ISIC_8651053.JPG,,ISIC_4980656.JPG,359,true,0.4500000000000003,hh,keypress(i),0,false,435071.39999997616,435071,432164.125,432366.6999999881,432180.836,434919.489,1,40,29,
sequence,flow.Sequence,6_28,2023-11-17T17:31:01.977Z,,,,,,,,,,,2890.1639999999898,completion,,,,,,,high,high,,,,,,true,,,,,false,435072,435071,432164.125,432366.6999999881,432180.836,434919.489,1,40,,
trial,html.Screen,6_29_0,2023-11-17T17:31:03.456Z,,,,1,-1.2362557973341337,1.2548266183352603,,,true,hl,1631.310999952315,response,0.9617893983965208,1.2,-1.2,-0.9453006131304652,1.2,-1.2,high,low,,ISIC_0033886.JPG,,ISIC_4229473.JPG,27,true,0.40000000000000024,hl,keypress(j),0,false,436551.09999996424,436550.7999999523,434869.59,435072.1999999881,434919.489,436372.326,1,40,30,
sequence,flow.Sequence,6_29,2023-11-17T17:31:03.457Z,,,,,,,,,,,1631.310999952315,completion,,,,,,,high,low,,,,,,true,,,,,false,436551.59999996424,436550.7999999523,434869.59,435072.09999996424,434919.489,436372.326,1,40,,
trial,html.Screen,6_30_0,2023-11-17T17:31:05.144Z,,,,1,1.0685314915436992,-0.8203833713472237,,,true,lh,1866.5739999761572,response,-0.7882758084023446,1.2,-1.2,0.8296405881378283,1.2,-1.2,low,high,,ISIC_0029374.JPG,,ISIC_0065882.JPG,26,true,0.4500000000000003,lh,keypress(e),0,false,438239.1999999881,438238.89999997616,436355.826,436551.89999997616,436372.326,438059.028,1,40,31,
sequence,flow.Sequence,6_30,2023-11-17T17:31:05.145Z,,,,,,,,,,,1866.5739999761572,completion,,,,,,,low,high,,,,,,true,,,,,false,438239.6999999881,438238.89999997616,436355.826,436551.7999999523,436372.326,438059.028,1,40,,
trial,html.Screen,6_31_0,2023-11-17T17:31:06.199Z,,,,1,-1.2804054832904397,-1.171271535505083,,,true,hh,1234.7719999523251,response,1.2531360283508035,1.2,-1.2,0.9293537837759512,1.2,-1.2,high,high,,ISIC_7889838.JPG,,ISIC_0060091.JPG,288,true,0.40000000000000024,hh,keypress(i),0,false,439294,439293.7999999523,438042.456,438239.89999997616,438059.028,439144.382,1,40,32,
sequence,flow.Sequence,6_31,2023-11-17T17:31:06.199Z,,,,,,,,,,,1234.7719999523251,completion,,,,,,,high,high,,,,,,true,,,,,false,439294.09999996424,439293.7999999523,438042.456,438239.89999997616,438059.028,439144.382,1,40,,
trial,html.Screen,6_32_0,2023-11-17T17:31:07.849Z,,,,1,0.8987343013179191,-0.8149073454566363,,,true,lh,1798.6180000000168,response,-0.7882758084023446,1.2,-1.2,0.8296405881378283,1.2,-1.2,low,high,,ISIC_0472513.JPG,,ISIC_0065882.JPG,26,true,0.4500000000000003,lh,keypress(e),0,false,440943.2999999523,440943,439094.549,439294.09999996424,439144.382,440780.899,1,40,33,
sequence,flow.Sequence,6_32,2023-11-17T17:31:07.849Z,,,,,,,,,,,1798.6180000000168,completion,,,,,,,low,high,,,,,,true,,,,,false,440943.89999997616,440943,439094.549,439294.09999996424,439144.382,440780.899,1,40,,
trial,html.Screen,6_33_0,2023-11-17T17:31:09.866Z,,,,1,-1.0453124399868816,0.8986747280184286,,,true,hl,2178.4009999523405,response,1.0685314915436992,1.2,-1.2,-0.8203833713472237,1.2,-1.2,high,low,,ISIC_0013967.JPG,,ISIC_0029374.JPG,27,true,0.40000000000000024,hl,keypress(j),0,false,442959.59999996424,442959.2999999523,440747.686,440944.1999999881,440780.899,442768.109,1,40,34,
sequence,flow.Sequence,6_33,2023-11-17T17:31:09.867Z,,,,,,,,,,,2178.4009999523405,completion,,,,,,,high,low,,,,,,true,,,,,false,442960.09999996424,442959.2999999523,440747.686,440944.09999996424,440780.899,442768.109,1,40,,
trial,html.Screen,6_34_0,2023-11-17T17:31:11.026Z,,,,1,-1.2804054832904397,-1.171271535505083,,,true,hh,1350.9909999642405,response,1.2712431846334218,1.2,-1.2,0.8014701937077862,1.2,-1.2,high,high,,ISIC_7889838.JPG,,ISIC_0011794.JPG,359,true,0.4500000000000003,hh,keypress(i),0,false,444119.5,444119.09999996424,442751.622,442960.39999997616,442768.109,443970.443,1,40,35,
sequence,flow.Sequence,6_34,2023-11-17T17:31:11.026Z,,,,,,,,,,,1350.9909999642405,completion,,,,,,,high,high,,,,,,true,,,,,false,444120,444119.09999996424,442751.622,442960.2999999523,442768.109,443970.443,1,40,,
trial,html.Screen,6_35_0,2023-11-17T17:31:12.562Z,,,,1,0.8544507134472948,-0.9244388608707323,,,true,lh,1684.4569999761297,response,-1.199471562817528,1.2,-1.2,0.8631260534979347,1.2,-1.2,low,high,,ISIC_3565564.JPG,,ISIC_0030754.JPG,26,true,0.4500000000000003,lh,keypress(e),0,false,445655.2999999523,445654.89999997616,443920.445,444120.1999999881,443970.443,445490.063,1,40,36,
sequence,flow.Sequence,6_35,2023-11-17T17:31:12.562Z,,,,,,,,,,,1684.4569999761297,completion,,,,,,,low,high,,,,,,true,,,,,false,445655.7999999523,445654.89999997616,443920.445,444120.1999999881,443970.443,445490.063,1,40,,
trial,html.Screen,6_36_0,2023-11-17T17:31:14.042Z,,,,1,-1.0453124399868816,0.8986747280184286,,,true,hl,1644.7369999522925,response,1.0788024398087033,1.2,-1.2,-0.9911875460374616,1.2,-1.2,high,low,,ISIC_0013967.JPG,,ISIC_5951430.JPG,27,true,0.40000000000000024,hl,keypress(j),0,false,447135.09999996424,447134.7999999523,445456.89,445656,445490.063,446959.585,1,40,37,
sequence,flow.Sequence,6_36,2023-11-17T17:31:14.042Z,,,,,,,,,,,1644.7369999522925,completion,,,,,,,high,low,,,,,,true,,,,,false,447135.5,447134.7999999523,445456.89,445656,445490.063,446959.585,1,40,,
trial,html.Screen,6_37_0,2023-11-17T17:31:15.754Z,,,,1,0.9244148283103414,-0.9712966348713286,,,true,lh,1887.414999999979,response,-1.058275612142778,1.2,-1.2,0.7824898568540655,1.2,-1.2,low,high,,ISIC_7927525.JPG,,ISIC_4906385.JPG,26,true,0.4500000000000003,lh,keypress(e),0,false,448847.2999999523,448847,446926.422,447135.7999999523,446959.585,448679.595,1,40,38,
sequence,flow.Sequence,6_37,2023-11-17T17:31:15.754Z,,,,,,,,,,,1887.414999999979,completion,,,,,,,low,high,,,,,,true,,,,,false,448847.7999999523,448847,446926.422,447135.6999999881,446959.585,448679.595,1,40,,
trial,html.Screen,6_38_0,2023-11-17T17:31:26.258Z,,,,1,0.9662688541319592,-0.929746784178986,,,true,lh,10671.704999952344,response,-0.989300717252516,1.2,-1.2,0.7908280206937478,1.2,-1.2,low,high,,ISIC_0011077.JPG,,ISIC_6416533.JPG,26,true,0.4500000000000003,lh,keypress(e),0,false,459351.59999996424,459351.2999999523,448646.317,448848.09999996424,448679.595,459166.701,1,40,39,
sequence,flow.Sequence,6_38,2023-11-17T17:31:26.259Z,,,,,,,,,,,10671.704999952344,completion,,,,,,,low,high,,,,,,true,,,,,false,459352.09999996424,459351.2999999523,448646.317,448848,448679.595,459166.701,1,40,,
trial,html.Screen,6_39_0,2023-11-17T17:31:33.258Z,,,,1,-1.1989130276493527,-1.2666195460149832,,,true,hh,7184.398999964236,response,1.1746004947382946,1.2,-1.2,1.2207657619249948,1.2,-1.2,high,high,,ISIC_0031705.JPG,,ISIC_0012069.JPG,288,true,0.40000000000000024,hh,keypress(i),0,false,466351.39999997616,466351.09999996424,459150.085,459352.5,459166.701,466163.632,1,40,40,
sequence,flow.Sequence,6_39,2023-11-17T17:31:33.258Z,,,,,,,,,,,7184.398999964236,completion,,,,,,,high,high,,,,,,true,,,,,false,466352,466351.09999996424,459150.085,459352.39999997616,459166.701,466163.632,1,40,,
practice_loop,flow.Loop,6,2023-11-17T17:31:33.259Z,,,,,,,,,,,264150.99099996424,completion,,,,,,,,,,,,,,true,,,,,false,466352.2999999523,466351.09999996424,202183.158,202365.59999996424,202200.109,466163.632,1,40,,
stair_instructions,html.Screen,7,2023-11-17T17:31:36.688Z,,,,,,,,,,,3617.8680000000168,response,,,,,,,,,,,,,,,,continue,click button,,,469781.89999997616,469781.5,466146.949,466352.5,466163.632,469586.994,,,,
trial,html.Screen,8_0_0,2023-11-17T17:31:40.400Z,,,,2,0.001445457736793,0.0165307427449982,,0.04,true,hh,3906.605999964231,response,1.0849202097813322,1.2,-1.2,1.0851127310415287,1.2,-1.2,high,high,,ISIC_0027350.JPG,,ISIC_0010289.JPG,40,false,0.14,hh,keypress(i),0,true,473493.6999999881,473493.59999996424,469570.376,469782.09999996424,469586.994,473311.155,1,40,1,
sequence,flow.Sequence,8_0,2023-11-17T17:31:40.400Z,,,,,,,,,,,3906.605999964231,completion,,,,,,,high,high,,,,,,false,,,,,true,473493.7999999523,473493.59999996424,469570.376,469782.09999996424,469586.994,473311.155,1,40,,
trial,html.Screen,8_1_0,2023-11-17T17:31:46.752Z,,,,2,0.0074667911845194,-0.018500200317654,,0.04,true,hh,6534.144999952288,response,1.1746004947382946,1.15,-1.15,1.2207657619249948,1.15,-1.15,high,high,,ISIC_0058723.JPG,,ISIC_0012069.JPG,27,false,0.1,hh,keypress(i),0,true,479845.39999997616,479845.2999999523,473294.275,473493.89999997616,473311.155,479656.584,1,40,2,
sequence,flow.Sequence,8_1,2023-11-17T17:31:46.752Z,,,,,,,,,,,6534.144999952288,completion,,,,,,,high,high,,,,,,false,,,,,true,479845.59999996424,479845.2999999523,473294.275,473493.7999999523,473311.155,479656.584,1,40,,
trial,html.Screen,8_2_0,2023-11-17T17:31:53.416Z,,,,2,0.0065172941585523,-0.0118857043117315,,0.04,false,hh,6853.215999952343,response,1.0581711446393522,1.1029392464832617,-1.15,1.1376053597134304,1.1029392464832617,-1.15,high,high,,ISIC_6119202.JPG,,ISIC_0014987.JPG,31,false,0.1,hl,keypress(j),0,true,486509.89999997616,486509.7999999523,479639.795,479845.59999996424,479656.584,486336.25,1,40,3,
sequence,flow.Sequence,8_2,2023-11-17T17:31:53.417Z,,,,,,,,,,,6853.215999952343,completion,,,,,,,high,high,,,,,,false,,,,,true,486510.09999996424,486509.7999999523,479639.795,479845.59999996424,479656.584,486336.25,1,40,,
trial,html.Screen,8_3_0,2023-11-17T17:32:01.537Z,,,,2,-0.0118382036798625,-0.0300588245877227,,0.04,false,lh,8293.949999988079,response,-0.8926515927689261,1.1029392464832617,-1.15,0.7935960767768927,1.1529392464832617,-1.15,low,high,,ISIC_4748605.JPG,,ISIC_8901371.JPG,26,false,0.40000000000000024,ll,keypress(f),0,true,494630.2999999523,494630.1999999881,486303.088,486510.09999996424,486336.25,494453.159,1,40,4,
sequence,flow.Sequence,8_3,2023-11-17T17:32:01.537Z,,,,,,,,,,,8293.949999988079,completion,,,,,,,low,high,,,,,,false,,,,,true,494630.39999997616,494630.1999999881,486303.088,486510.09999996424,486336.25,494453.159,1,40,,
trial,html.Screen,8_4_0,2023-11-17T17:32:07.410Z,,,,2,-0.0200295718112167,-0.0155559071275806,,0.04,false,hl,6050.040999988094,response,1.2594580992890123,1.1029392464832617,-1.15,-0.8833175387485132,1.1529392464832617,-1.15,high,low,,ISIC_0061343.JPG,,ISIC_0011933.JPG,25,false,0.3300000000000002,hh,keypress(i),0,true,500503.5,500503.1999999881,494418.581,494630.5,494453.159,500330.12,1,40,5,
sequence,flow.Sequence,8_4,2023-11-17T17:32:07.411Z,,,,,,,,,,,6050.040999988094,completion,,,,,,,high,low,,,,,,false,,,,,true,500504,500503.1999999881,494418.581,494630.39999997616,494453.159,500330.12,1,40,,
trial,html.Screen,8_5_0,2023-11-17T17:32:12.613Z,,,,2,0.0374659946425444,0.0086043094957617,,0.04,true,hl,5373.380000000005,response,0.9617893983965208,1.0529392464832616,-1.15,-0.9453006131304652,1.1529392464832617,-1.15,high,low,,ISIC_0033051.JPG,,ISIC_4229473.JPG,26,false,0.31000000000000016,hl,keypress(j),0,true,505703.7999999523,505703.5,500296.789,500504.2999999523,500330.12,505523.742,1,40,6,
sequence,flow.Sequence,8_5,2023-11-17T17:32:12.614Z,,,,,,,,,,,5373.380000000005,completion,,,,,,,high,low,,,,,,false,,,,,true,505704.39999997616,505703.5,500296.789,500504.1999999881,500330.12,505523.742,1,40,,
trial,html.Screen,8_6_0,2023-11-17T17:32:18.814Z,,,,2,0.0088741920055285,0.0058246074740588,,0.04,false,hh,6380.157999976131,response,1.1243896694621007,1.0529392464832616,-1.15,1.1772340944704969,1.1529392464832617,-1.15,high,high,,ISIC_4136663.JPG,,ISIC_0062765.JPG,37,false,0.1,lh,keypress(e),0,true,511904.39999997616,511903.89999997616,505507.108,505704.5,505523.742,511718.995,1,40,7,
sequence,flow.Sequence,8_6,2023-11-17T17:32:18.814Z,,,,,,,,,,,6380.157999976131,completion,,,,,,,high,high,,,,,,false,,,,,true,511905,511903.89999997616,505507.108,505704.5,505523.742,511718.995,1,40,,
trial,html.Screen,8_7_0,2023-11-17T17:32:25.493Z,,,,2,-0.0367706518941078,0.0161069838272154,,0.04,true,hh,6864.505000000005,response,1.1392972253022884,1.1029392464832617,-1.15,1.208510423375335,1.1529392464832617,-1.15,high,high,,ISIC_0033419.JPG,,ISIC_0046526.JPG,27,false,0.1,hh,keypress(i),0,true,518583.89999997616,518583.5,511702.483,511905.1999999881,511718.995,518415.347,1,40,8,
sequence,flow.Sequence,8_7,2023-11-17T17:32:25.494Z,,,,,,,,,,,6864.505000000005,completion,,,,,,,high,high,,,,,,false,,,,,true,518584.39999997616,518583.5,511702.483,511905.09999996424,511718.995,518415.347,1,40,,
trial,html.Screen,8_8_0,2023-11-17T17:32:36.003Z,,,,2,0.0164027439304477,-0.0082910758715273,,0.04,true,lh,10678.55299997615,response,-0.989300717252516,1.1029392464832617,-1.15,0.7908280206937478,1.1239038243388115,-1.15,low,high,,ISIC_7381224.JPG,,ISIC_6416533.JPG,25,false,0.39000000000000024,lh,keypress(e),0,true,529093.8999999762,529093.8999999762,518382.17,518584.6999999881,518415.347,528902.414,1,40,9,
sequence,flow.Sequence,8_8,2023-11-17T17:32:36.004Z,,,,,,,,,,,10678.55299997615,completion,,,,,,,low,high,,,,,,false,,,,,true,529094.0999999642,529093.8999999762,518382.17,518584.5,518415.347,528902.414,1,40,,
trial,html.Screen,8_9_0,2023-11-17T17:32:39.709Z,,,,2,0.0374659946425444,0.0086043094957617,,0.04,false,ll,3896.9859999761684,response,-1.1409143352872226,1.1029392464832617,-1.0999999999999999,-1.1323007949069106,1.1239038243388115,-1.15,low,low,,ISIC_0033051.JPG,,ISIC_0030291.JPG,27,false,0.14,hl,keypress(j),0,true,532799.7999999523,532799.3999999762,528885.854,529094.0999999642,528902.414,532626.342,1,40,10,
sequence,flow.Sequence,8_9,2023-11-17T17:32:39.710Z,,,,,,,,,,,3896.9859999761684,completion,,,,,,,low,low,,,,,,false,,,,,true,532800.3999999762,532799.3999999762,528885.854,529094.0999999642,528902.414,532626.342,1,40,,
trial,html.Screen,8_10_0,2023-11-17T17:32:46.341Z,,,,2,0.039520186367207,0.0377961575607372,,0.04,false,lh,6805.158000000054,response,-1.0329549150636406,1.1029392464832617,-1.15,1.01584100839286,1.1239038243388115,-1.0999999999999999,low,high,,ISIC_6356149.JPG,,ISIC_0054670.JPG,25,false,0.39000000000000024,hh,keypress(i),0,true,539431.8999999762,539431.5,532593.126,532800.5999999642,532626.342,539255.917,1,40,11,
sequence,flow.Sequence,8_10,2023-11-17T17:32:46.342Z,,,,,,,,,,,6805.158000000054,completion,,,,,,,low,high,,,,,,false,,,,,true,539432.3999999762,539431.5,532593.126,532800.5,532626.342,539255.917,1,40,,
trial,html.Screen,8_11_0,2023-11-17T17:33:02.157Z,,,,2,-0.0258224118104549,0.0029364553353019,,0.04,,,15814.694000000018,timeout,-0.9136649719060708,1.1029392464832617,-1.15,0.6197574551927956,0.8533345145433038,-1.0999999999999999,low,high,,ISIC_8325226.JPG,,ISIC_6297317.JPG,25,false,0.2600000000000001,,,0,true,555247.3999999762,555247,539222.718,539432.5999999642,539255.917,555070.611,1,40,12,
sequence,flow.Sequence,8_11,2023-11-17T17:33:02.157Z,,,,,,,,,,,15991.082999999984,completion,,,,,,,low,high,,,,,,false,,,,,true,555247.8999999762,555247,539222.718,539432.5999999642,539255.917,555070.611,1,40,,
trial,html.Screen,8_12_0,2023-11-17T17:33:13.304Z,,,,2,0.0374659946425444,0.0086043094957617,,0.04,false,hh,11320.988999964204,response,1.0789425085962503,1.1029392464832617,-1.15,0.7554447571704619,0.8533345145433038,-1.0999999999999999,high,high,,ISIC_0033051.JPG,,ISIC_9797578.JPG,26,false,0.1,lh,keypress(e),0,true,566391.8999999762,566391.5999999642,555036.782,555248.1999999881,555070.611,566208.389,1,40,13,
sequence,flow.Sequence,8_12,2023-11-17T17:33:13.305Z,,,,,,,,,,,11320.988999964204,completion,,,,,,,high,high,,,,,,false,,,,,true,566392.5,566391.5999999642,555036.782,555248.0999999642,555070.611,566208.389,1,40,,
trial,html.Screen,8_13_0,2023-11-17T17:33:20.384Z,,,,2,0.0388181790775959,-0.0049623405709465,,0.04,true,hh,7263.010999976192,response,1.0804044917288194,1.1529392464832617,-1.15,0.7737732725477637,0.8533345145433038,-1.0999999999999999,high,high,,ISIC_0061880.JPG,,ISIC_0011691.JPG,29,false,0.11,hh,keypress(i),0,true,573471.7999999523,573471.3999999762,566191.692,566392.7999999523,566208.389,573288.834,1,40,14,
sequence,flow.Sequence,8_13,2023-11-17T17:33:20.385Z,,,,,,,,,,,7263.010999976192,completion,,,,,,,high,high,,,,,,false,,,,,true,573472.2999999523,573471.3999999762,566191.692,566392.5999999642,566208.389,573288.834,1,40,,
trial,html.Screen,8_14_0,2023-11-17T17:33:25.488Z,,,,2,0.0074667911845194,-0.018500200317654,,0.04,false,hl,5286.765999964206,response,0.8350129142228142,1.1529392464832617,-1.15,-0.8172547818270586,0.8770888821382915,-1.0999999999999999,high,low,,ISIC_0058723.JPG,,ISIC_0301568.JPG,25,false,0.3200000000000002,lh,keypress(e),0,true,578575.8999999762,578575.5999999642,573272.382,573472.6999999881,573288.834,578415.486,1,40,15,
sequence,flow.Sequence,8_14,2023-11-17T17:33:25.489Z,,,,,,,,,,,5286.765999964206,completion,,,,,,,high,low,,,,,,false,,,,,true,578576.3999999762,578575.5999999642,573272.382,573472.5,573288.834,578415.486,1,40,,
trial,html.Screen,8_15_0,2023-11-17T17:33:31.534Z,,,,2,0.001445457736793,0.0165307427449982,,0.04,true,hl,6206.413999976125,response,0.8867328775712738,1.1529392464832617,-1.15,-1.0063426986460375,0.8770888821382915,-1.15,high,low,,ISIC_0027350.JPG,,ISIC_0055759.JPG,26,false,0.3500000000000002,hl,keypress(j),0,true,584621.8999999762,584621.8999999762,578365.407,578576.6999999881,578415.486,584444.877,1,40,16,
sequence,flow.Sequence,8_15,2023-11-17T17:33:31.535Z,,,,,,,,,,,6206.413999976125,completion,,,,,,,high,low,,,,,,false,,,,,true,584622.0999999642,584621.8999999762,578365.407,578576.5999999642,578415.486,584444.877,1,40,,
trial,html.Screen,8_16_0,2023-11-17T17:33:34.662Z,,,,2,0.0198696495649504,-0.0387952353063878,,0.04,false,lh,3304.8229999881005,response,-1.2054195059663604,1.1529392464832617,-1.15,0.7760611240296147,0.8770888821382915,-1.15,low,high,,ISIC_6735970.JPG,,ISIC_8712559.JPG,26,false,0.27000000000000013,hl,keypress(j),0,true,587749.8999999762,587749.6999999881,584410.585,584622.1999999881,584444.877,587566.596,1,40,17,
sequence,flow.Sequence,8_16,2023-11-17T17:33:34.662Z,,,,,,,,,,,3304.8229999881005,completion,,,,,,,low,high,,,,,,false,,,,,true,587750,587749.6999999881,584410.585,584622.0999999642,584444.877,587566.596,1,40,,
trial,html.Screen,8_17_0,2023-11-17T17:33:40.720Z,,,,2,-0.0367706518941078,0.0161069838272154,,0.04,true,ll,6240.90399999998,response,-1.1055382068806878,1.1529392464832617,-1.15,-1.0166010471189206,0.9270888821382915,-1.15,low,low,,ISIC_0033419.JPG,,ISIC_5420979.JPG,27,false,0.14,ll,keypress(f),0,true,593807.8999999762,593807.5,587550.047,587750,587566.596,593628.501,1,40,18,
sequence,flow.Sequence,8_17,2023-11-17T17:33:40.721Z,,,,,,,,,,,6240.90399999998,completion,,,,,,,low,low,,,,,,false,,,,,true,593808.3999999762,593807.5,587550.047,587750,587566.596,593628.501,1,40,,
trial,html.Screen,8_18_0,2023-11-17T17:33:46.392Z,,,,2,-0.0308384937406319,0.0038396364323947,,0.04,true,hh,5850.798999952269,response,1.12466521758037,1.1529392464832617,-1.15,0.8583167463787408,0.9270888821382915,-1.0110696269998043,high,high,,ISIC_0029825.JPG,,ISIC_0014189.JPG,26,false,0.11,hh,keypress(i),0,true,599479.5999999642,599479.2999999523,593611.823,593808.5999999642,593628.501,599289.445,1,40,19,
sequence,flow.Sequence,8_18,2023-11-17T17:33:46.393Z,,,,,,,,,,,5850.798999952269,completion,,,,,,,high,high,,,,,,false,,,,,true,599480.1999999881,599479.2999999523,593611.823,593808.5999999642,593628.501,599289.445,1,40,,
trial,html.Screen,8_19_0,2023-11-17T17:33:53.407Z,,,,2,0.0198696495649504,-0.0387952353063878,,0.04,false,hl,7204.954999976209,response,0.8307508446051526,0.9414909819795554,-1.15,-1.1707575338936729,0.9270888821382915,-1.0110696269998043,high,low,,ISIC_6735970.JPG,,ISIC_0028606.JPG,25,false,0.21000000000000008,ll,keypress(f),0,true,606494.5999999642,606494.3999999762,599272.948,599480.5,599289.445,606303.139,1,40,20,
sequence,flow.Sequence,8_19,2023-11-17T17:33:53.407Z,,,,,,,,,,,7204.954999976209,completion,,,,,,,high,low,,,,,,false,,,,,true,606494.8999999762,606494.3999999762,599272.948,599480.3999999762,599289.445,606303.139,1,40,,
trial,html.Screen,8_20_0,2023-11-17T17:34:02.800Z,,,,2,-0.0308384937406319,0.0038396364323947,,0.04,true,ll,9584.260999976192,response,-1.1290536173202614,0.9914909819795554,-1.15,-0.9768663240505168,0.9270888821382915,-1.0110696269998043,low,low,,ISIC_0029825.JPG,,ISIC_2196127.JPG,32,false,0.13,ll,keypress(f),0,true,615887.6999999881,615887.3999999762,606286.573,606495,606303.139,615704.74,1,40,21,
sequence,flow.Sequence,8_20,2023-11-17T17:34:02.801Z,,,,,,,,,,,9584.260999976192,completion,,,,,,,low,low,,,,,,false,,,,,true,615888.2999999523,615887.3999999762,606286.573,606495,606303.139,615704.74,1,40,,
trial,html.Screen,8_21_0,2023-11-17T17:34:08.896Z,,,,2,-0.0367744112927588,-0.0324865661712824,,0.04,false,hl,6278.6599999761675,response,0.9544693251394116,0.9914909819795554,-1.0238119289720948,-1.0727539917203766,0.9270888821382915,-1.0238119289720948,high,low,,ISIC_4523565.JPG,,ISIC_0055147.JPG,27,false,0.2300000000000001,lh,keypress(e),0,true,621983.7999999523,621983.3999999762,615688.202,615888.5,615704.74,621799.909,1,40,22,
sequence,flow.Sequence,8_21,2023-11-17T17:34:08.897Z,,,,,,,,,,,6278.6599999761675,completion,,,,,,,high,low,,,,,,false,,,,,true,621984.2999999523,621983.3999999762,615688.202,615888.5,615704.74,621799.909,1,40,,
trial,html.Screen,8_22_0,2023-11-17T17:34:16.723Z,,,,2,-0.0286056110007553,-0.036125199756515,,0.04,true,hl,8007.390999952331,response,1.2594580992890123,1.0414909819795555,-1.0238119289720948,-0.8833175387485132,0.9270888821382915,-1.0738119289720949,high,low,,ISIC_6535558.JPG,,ISIC_0011933.JPG,27,false,0.2600000000000001,hl,keypress(j),0,true,629807.5999999642,629807.2999999523,621783.309,621984.6999999881,621799.909,629631.835,1,40,23,
sequence,flow.Sequence,8_22,2023-11-17T17:34:16.724Z,,,,,,,,,,,8007.390999952331,completion,,,,,,,high,low,,,,,,false,,,,,true,629808.0999999642,629807.2999999523,621783.309,621984.5999999642,621799.909,629631.835,1,40,,
trial,html.Screen,8_23_0,2023-11-17T17:34:23.419Z,,,,2,,0.0102871556606504,,0.04,true,lh,6871.665000000037,response,-0.9237241143561707,1.0414909819795555,-1.0238119289720948,0.7102087839245512,0.9270888821382915,-1.0738119289720949,low,high,,ISIC_1805163.JPG,,ISIC_0058661.JPG,26,false,0.2300000000000001,lh,keypress(e),0,true,636503.8999999762,636503.5,629598.597,629808.3999999762,629631.835,636311.589,1,40,24,
sequence,flow.Sequence,8_23,2023-11-17T17:34:23.420Z,,,,,,,,,,,6871.665000000037,completion,,,,,,,low,high,,,,,,false,,,,,true,636504.3999999762,636503.5,629598.597,629808.2999999523,629631.835,636311.589,1,40,,
trial,html.Screen,8_24_0,2023-11-17T17:34:26.315Z,,,,2,-0.0258224118104549,0.0029364553353019,,0.04,true,lh,3087.810999976122,response,-1.1711869602302662,1.0414909819795555,-1.0238119289720948,0.7434626355969514,0.8770888821382915,-1.0738119289720949,low,high,,ISIC_8325226.JPG,,ISIC_0059052.JPG,26,false,0.22000000000000008,lh,keypress(e),0,true,639399.6999999881,639399.3999999762,636295.017,636504.5999999642,636311.589,639217.391,1,40,25,
sequence,flow.Sequence,8_24,2023-11-17T17:34:26.316Z,,,,,,,,,,,3087.810999976122,completion,,,,,,,low,high,,,,,,false,,,,,true,639400.1999999881,639399.3999999762,636295.017,636504.5999999642,636311.589,639217.391,1,40,,
trial,html.Screen,8_25_0,2023-11-17T17:34:29.906Z,,,,2,-0.0200295718112167,-0.0155559071275806,,0.04,false,ll,3772.508999976213,response,-0.9242629064104082,1.0414909819795555,-0.9738119289720948,-1.0085499824556403,0.8770888821382915,-1.0738119289720949,low,low,,ISIC_0061343.JPG,,ISIC_7795549.JPG,29,false,0.11,hl,keypress(j),0,true,642990,642989.8999999762,639200.663,639400.3999999762,639217.391,642807.483,1,40,26,
sequence,flow.Sequence,8_25,2023-11-17T17:34:29.906Z,,,,,,,,,,,3772.508999976213,completion,,,,,,,low,low,,,,,,false,,,,,true,642990.2999999523,642989.8999999762,639200.663,639400.2999999523,639217.391,642807.483,1,40,,
trial,html.Screen,8_26_0,2023-11-17T17:34:33.531Z,,,,2,0.0109416414475118,0.005246498750811,,0.04,false,ll,3807.9169999761507,response,-1.1055382068806878,1.0414909819795555,-1.0238119289720948,-1.0166010471189206,0.8770888821382915,-1.0238119289720948,low,low,,ISIC_0064279.JPG,,ISIC_5420979.JPG,30,false,0.11,hl,keypress(j),0,true,646615.6999999881,646615.3999999762,642790.921,642990.2999999523,642807.483,646431.357,1,40,27,
sequence,flow.Sequence,8_26,2023-11-17T17:34:33.532Z,,,,,,,,,,,3807.9169999761507,completion,,,,,,,low,low,,,,,,false,,,,,true,646616.0999999642,646615.3999999762,642790.921,642990.2999999523,642807.483,646431.357,1,40,,
trial,html.Screen,8_27_0,2023-11-17T17:34:39.779Z,,,,2,-0.0367706518941078,0.0161069838272154,,0.04,false,hh,6432.042999976198,response,1.063389737009574,1.0414909819795555,-1.0738119289720949,0.8248153645014629,0.8770888821382915,-1.0238119289720948,high,high,,ISIC_0033419.JPG,,ISIC_0027104.JPG,35,false,0.1,ll,keypress(f),0,true,652863.6999999881,652863.3999999762,646414.735,646616.3999999762,646431.357,652676.698,1,40,28,
sequence,flow.Sequence,8_27,2023-11-17T17:34:39.780Z,,,,,,,,,,,6432.042999976198,completion,,,,,,,high,high,,,,,,false,,,,,true,652864.2999999523,652863.3999999762,646414.735,646616.3999999762,646431.357,652676.698,1,40,,
trial,html.Screen,8_28_0,2023-11-17T17:34:49.820Z,,,,2,-0.0308384937406319,0.0038396364323947,,0.04,true,ll,10227.001999988104,response,-1.0943527860463682,1.0914909819795555,-1.0738119289720949,-1.124481746658104,0.9270888821382915,-1.0238119289720948,low,low,,ISIC_0029825.JPG,,ISIC_0438136.JPG,29,false,0.11,ll,keypress(f),0,true,662904,662903.6999999881,652660.108,652864.6999999881,652676.698,662729.593,1,40,29,
sequence,flow.Sequence,8_28,2023-11-17T17:34:49.820Z,,,,,,,,,,,10227.001999988104,completion,,,,,,,low,low,,,,,,false,,,,,true,662904.5999999642,662903.6999999881,652660.108,652864.5,652676.698,662729.593,1,40,,
trial,html.Screen,8_29_0,2023-11-17T17:34:54.043Z,,,,2,-0.0286056110007553,-0.036125199756515,,0.04,false,lh,4397.706999952323,response,-1.0369885917487718,1.0914909819795555,-1.0738119289720949,0.8486937878412699,0.9270888821382915,-1.059417266352236,low,high,,ISIC_6535558.JPG,,ISIC_6917681.JPG,25,false,0.2400000000000001,hl,keypress(j),0,true,667127.5999999642,667127.2999999523,662696.409,662904.7999999523,662729.593,666937.837,1,40,30,
sequence,flow.Sequence,8_29,2023-11-17T17:34:54.044Z,,,,,,,,,,,4397.706999952323,completion,,,,,,,low,high,,,,,,false,,,,,true,667128.0999999642,667127.2999999523,662696.409,662904.7999999523,662729.593,666937.837,1,40,,
trial,html.Screen,8_30_0,2023-11-17T17:35:04.666Z,,,,2,-0.0367706518941078,0.0161069838272154,,0.04,true,ll,10812.76299996418,response,-1.151139267005652,1.0914909819795555,-1.123811928972095,-1.0838749490501327,0.9770888821382916,-1.059417266352236,low,low,,ISIC_0033419.JPG,,ISIC_0002566.JPG,29,false,0.12,ll,keypress(f),0,true,677750.7999999523,677750.5999999642,666921.273,667128.3999999762,666937.837,677575.161,1,40,31,
sequence,flow.Sequence,8_30,2023-11-17T17:35:04.667Z,,,,,,,,,,,10812.76299996418,completion,,,,,,,low,low,,,,,,false,,,,,true,677751.0999999642,677750.5999999642,666921.273,667128.2999999523,666937.837,677575.161,1,40,,
trial,html.Screen,8_31_0,2023-11-17T17:35:12.822Z,,,,2,-0.0367706518941078,0.0161069838272154,,0.04,false,hl,8328.238999976194,response,1.2594580992890123,1.0914909819795555,-1.123811928972095,-0.8833175387485132,0.9770888821382916,-1.059417266352236,high,low,,ISIC_0033419.JPG,,ISIC_0011933.JPG,25,false,0.27000000000000013,hh,keypress(i),0,true,685903.6999999881,685903.3999999762,677541.78,677751.1999999881,677575.161,685724.422,1,40,32,
sequence,flow.Sequence,8_31,2023-11-17T17:35:12.823Z,,,,,,,,,,,8328.238999976194,completion,,,,,,,high,low,,,,,,false,,,,,true,685904.2999999523,685903.3999999762,677541.78,677751.1999999881,677575.161,685724.422,1,40,,
trial,html.Screen,8_32_0,2023-11-17T17:35:21.894Z,,,,2,-0.0367744112927588,-0.0324865661712824,,0.04,false,ll,9250.977999976138,response,-1.008831959223626,1.0914909819795555,-1.123811928972095,-0.9823409524664072,0.9770888821382916,-1.1094172663522361,low,low,,ISIC_4523565.JPG,,ISIC_1579745.JPG,25,false,0.13,hl,keypress(j),0,true,694975.7999999523,694975.3999999762,685707.777,685904.5999999642,685724.422,694792.018,1,40,33,
sequence,flow.Sequence,8_32,2023-11-17T17:35:21.895Z,,,,,,,,,,,9250.977999976138,completion,,,,,,,low,low,,,,,,false,,,,,true,694976.2999999523,694975.3999999762,685707.777,685904.5,685724.422,694792.018,1,40,,
trial,html.Screen,8_33_0,2023-11-17T17:35:24.470Z,,,,2,-0.0220026381002083,0.0170756452911772,,0.04,false,hh,2759.2819999522762,response,1.0887084502656488,1.0914909819795555,-1.173811928972095,1.0539327766106836,0.9770888821382916,-1.1094172663522361,high,high,,ISIC_5347806.JPG,,ISIC_0030417.JPG,25,false,0.1,hl,keypress(j),0,true,697551.6999999881,697551.2999999523,694775.326,694976.5999999642,694792.018,697380.374,1,40,34,
sequence,flow.Sequence,8_33,2023-11-17T17:35:24.471Z,,,,,,,,,,,2759.2819999522762,completion,,,,,,,high,high,,,,,,false,,,,,true,697552.1999999881,697551.2999999523,694775.326,694976.5,694792.018,697380.374,1,40,,
trial,html.Screen,8_34_0,2023-11-17T17:35:33.551Z,,,,2,0.0109416414475118,0.005246498750811,,0.04,false,lh,9251.225999964285,response,-1.2054195059663604,1.0414909819795555,-1.173811928972095,0.7760611240296147,1.0270888821382915,-1.1094172663522361,low,high,,ISIC_0064279.JPG,,ISIC_8712559.JPG,25,false,0.3300000000000002,ll,keypress(f),0,true,706632,706631.5999999642,697347.128,697552.5,697380.374,706448.032,1,40,35,
sequence,flow.Sequence,8_34,2023-11-17T17:35:33.551Z,,,,,,,,,,,9251.225999964285,completion,,,,,,,low,high,,,,,,false,,,,,true,706632.5,706631.5999999642,697347.128,697552.2999999523,697380.374,706448.032,1,40,,
trial,html.Screen,8_35_0,2023-11-17T17:35:39.998Z,,,,2,0.0388334549081915,-0.0303399972963369,,0.04,false,ll,6631.26799995231,response,-1.033832433609739,1.0414909819795555,-1.173811928972095,-1.139863018685685,1.0770888821382916,-1.1094172663522361,low,low,,ISIC_4961708.JPG,,ISIC_0008510.JPG,27,false,0.14,lh,keypress(e),0,true,713079.5999999642,713079.2999999523,706431.518,706632.6999999881,706448.032,712893.896,1,40,36,
sequence,flow.Sequence,8_35,2023-11-17T17:35:39.999Z,,,,,,,,,,,6631.26799995231,completion,,,,,,,low,low,,,,,,false,,,,,true,713080.1999999881,713079.2999999523,706431.518,706632.6999999881,706448.032,712893.896,1,40,,
trial,html.Screen,8_36_0,2023-11-17T17:35:44.374Z,,,,2,-0.0118382036798625,-0.0300588245877227,,0.04,false,hl,4561.7039999642875,response,0.7872534775441857,1.0414909819795555,-1.0696259697880497,-0.8441107693833454,1.0770888821382916,-1.1594172663522362,high,low,,ISIC_4748605.JPG,,ISIC_0028788.JPG,28,false,0.3200000000000002,lh,keypress(e),0,true,717455.8999999762,717455.5999999642,712877.413,713080.5,712893.896,717302.484,1,40,37,
sequence,flow.Sequence,8_36,2023-11-17T17:35:44.375Z,,,,,,,,,,,4561.7039999642875,completion,,,,,,,high,low,,,,,,false,,,,,true,717456.3999999762,717455.5999999642,712877.413,713080.3999999762,712893.896,717302.484,1,40,,
trial,html.Screen,8_37_0,2023-11-17T17:35:50.006Z,,,,2,-0.0119001144851157,0.0063430114540141,,0.04,false,hl,5784.915999976103,response,0.9138670886161264,1.0914909819795555,-1.0696259697880497,-0.8414121478342018,1.0770888821382916,-1.1594172663522362,high,low,,ISIC_0003822.JPG,,ISIC_6709052.JPG,26,false,0.3300000000000002,ll,keypress(f),0,true,723087.7999999523,723087.3999999762,717252.501,717456.6999999881,717302.484,722913.417,1,40,38,
sequence,flow.Sequence,8_37,2023-11-17T17:35:50.007Z,,,,,,,,,,,5784.915999976103,completion,,,,,,,high,low,,,,,,false,,,,,true,723088.2999999523,723087.3999999762,717252.501,717456.5999999642,717302.484,722913.417,1,40,,
trial,html.Screen,8_38_0,2023-11-17T17:35:55.414Z,,,,2,0.0198696495649504,-0.0387952353063878,,0.04,true,lh,5582.182999964221,response,-0.8034318937720549,1.1414909819795556,-1.0696259697880497,1.0024917298189338,1.0770888821382916,-1.1594172663522362,low,high,,ISIC_6735970.JPG,,ISIC_0032766.JPG,26,false,0.3300000000000002,lh,keypress(e),0,true,728495.8999999762,728495.5999999642,722880.162,723088.5999999642,722913.417,728307.247,1,40,39,
sequence,flow.Sequence,8_38,2023-11-17T17:35:55.415Z,,,,,,,,,,,5582.182999964221,completion,,,,,,,low,high,,,,,,false,,,,,true,728496.3999999762,728495.5999999642,722880.162,723088.3999999762,722913.417,728307.247,1,40,,
trial,html.Screen,8_39_0,2023-11-17T17:36:06.837Z,,,,2,0.0109416414475118,0.005246498750811,,0.04,true,ll,11611.253000000026,response,-1.033832433609739,1.1414909819795556,-1.0696259697880497,-1.139863018685685,1.0770888821382916,-1.1594172663522362,low,low,,ISIC_0064279.JPG,,ISIC_0008510.JPG,30,false,0.15000000000000002,ll,keypress(f),0,true,739918.6999999881,739918.5,728290.586,728496.6999999881,728307.247,739729.483,1,40,40,
sequence,flow.Sequence,8_39,2023-11-17T17:36:06.837Z,,,,,,,,,,,11611.253000000026,completion,,,,,,,low,low,,,,,,false,,,,,true,739918.8999999762,739918.5,728290.586,728496.5999999642,728307.247,739729.483,1,40,,
stair_loop,flow.Loop,8,2023-11-17T17:36:06.838Z,,,,,,,,,,,270331.506,completion,,,,,,,,,,,,,,false,,,,,true,739919.0999999642,739918.5,469570.376,469782.09999996424,469586.994,739729.483,1,40,,
exp_instructions,html.Screen,9,2023-11-17T17:36:08.798Z,,,,,,,,,,,2148.816999952309,response,,,,,,,,,,,,,,,,continue,keypress(Space),,,741879,741878.2999999523,739712.712,739919.0999999642,739729.483,741700.066,,,,
trial,html.Screen,10_0_0,2023-11-17T17:36:20.882Z,,,,1,-0.0286056110007553,-0.036125199756515,,0.04,true,hh,12260.434000000008,response,0.9657289110900686,1.0639909819795554,-1.0817841406866813,0.9643331448263084,0.9695888821382915,-1.082757749432558,high,high,,ISIC_6535558.JPG,11,ISIC_0063447.JPG,34,false,0.1,hh,keypress(i),0,false,753960.5999999642,753960.5,741683.492,741879.3999999762,741700.066,753773.5,4,500,1,
break,html.Screen,10_0_1,2023-11-17T17:36:20.882Z,,,,,,,,,,,NaN,,,,,,,,high,high,,,,,,false,,,,,false,753961.0999999642,753961,,753960.6999999881,,753773.5,4,500,,
break_continue,html.Screen,10_0_2,2023-11-17T17:36:20.882Z,,,,,,,,,,,NaN,,,,,,,,high,high,,,,,,false,,,,,false,753961.3999999762,753961.1999999881,,753961.1999999881,,753773.5,4,500,,
sequence,flow.Sequence,10_0,2023-11-17T17:36:20.883Z,,,,,,,,,,,12261.133999988087,completion,,,,,,,high,high,,,,,,false,,,,,false,753961.5,753961.1999999881,741683.492,741879.2999999523,741700.066,753773.5,4,500,,
trial,html.Screen,10_1_0,2023-11-17T17:36:28.185Z,,,,1,0.0088741920055285,0.0058246074740588,,0.04,false,hl,7489.799999952316,response,0.8443403196524287,1.0639909819795554,-1.0817841406866813,-0.8858525429102605,0.9695888821382915,-1.082757749432558,high,low,,ISIC_4136663.JPG,8,ISIC_8777813.JPG,25,false,0.27000000000000013,lh,keypress(e),0,false,761263.5,761263.2999999523,753756.68,753961.5999999642,753773.5,761087.718,4,500,2,
break,html.Screen,10_1_1,2023-11-17T17:36:28.186Z,,,,,,,,,,,NaN,,,,,,,,high,low,,,,,,false,,,,,false,761264.7999999523,761264.5,,761264,,761087.718,4,500,,
break_continue,html.Screen,10_1_2,2023-11-17T17:36:28.187Z,,,,,,,,,,,NaN,,,,,,,,high,low,,,,,,false,,,,,false,761265.8999999762,761265.3999999762,,761265.1999999881,,761087.718,4,500,,
sequence,flow.Sequence,10_1,2023-11-17T17:36:28.187Z,,,,,,,,,,,7491.899999976158,completion,,,,,,,high,low,,,,,,false,,,,,false,761266.1999999881,761265.3999999762,753756.68,753961.5999999642,753773.5,761087.718,4,500,,
trial,html.Screen,10_2_0,2023-11-17T17:36:34.569Z,,,,1,,0.0102871556606504,,0.04,false,lh,6559.581999952323,response,-1.2499674737468107,1.0639909819795554,-1.0817841406866813,0.7169661572441197,0.9695888821382915,-1.082757749432558,low,high,,ISIC_1805163.JPG,8,ISIC_0013617.JPG,25,false,0.27000000000000013,hh,keypress(i),0,false,767647.5999999642,767647.2999999523,761054.227,761266.5,761087.718,767466.909,4,500,3,
break,html.Screen,10_2_1,2023-11-17T17:36:34.570Z,,,,,,,,,,,NaN,,,,,,,,low,high,,,,,,false,,,,,false,767648.8999999762,767648.3999999762,,767648,,767466.909,4,500,,
break_continue,html.Screen,10_2_2,2023-11-17T17:36:34.571Z,,,,,,,,,,,NaN,,,,,,,,low,high,,,,,,false,,,,,false,767649.6999999881,767649.2999999523,,767649.0999999642,,767466.909,4,500,,
sequence,flow.Sequence,10_2,2023-11-17T17:36:34.571Z,,,,,,,,,,,6561.581999952323,completion,,,,,,,low,high,,,,,,false,,,,,false,767650,767649.2999999523,761054.227,761266.5,761087.718,767466.909,4,500,,
trial,html.Screen,10_3_0,2023-11-17T17:36:40.575Z,,,,1,-0.0308384937406319,0.0038396364323947,,0.04,false,hh,6187.390999952331,response,1.0665699221890637,1.0639909819795554,-1.0817841406866813,1.0106762707163983,0.9695888821382915,-1.082757749432558,high,high,,ISIC_0029825.JPG,9,ISIC_1630301.JPG,34,false,0.1,ll,keypress(f),0,false,773654.5,773654.2999999523,767450.327,767650.1999999881,767466.909,773461.8,4,500,4,
break,html.Screen,10_3_1,2023-11-17T17:36:40.576Z,,,,,,,,,,,NaN,,,,,,,,high,high,,,,,,false,,,,,false,773655,773654.8999999762,,773654.6999999881,,773461.8,4,500,,
break_continue,html.Screen,10_3_2,2023-11-17T17:36:40.576Z,,,,,,,,,,,NaN,,,,,,,,high,high,,,,,,false,,,,,false,773655.2999999523,773655.1999999881,,773655.0999999642,,773461.8,4,500,,
sequence,flow.Sequence,10_3,2023-11-17T17:36:40.576Z,,,,,,,,,,,6188.290999988094,completion,,,,,,,high,high,,,,,,false,,,,,false,773655.3999999762,773655.1999999881,767450.327,767650.0999999642,767466.909,773461.8,4,500,,
trial,html.Screen,10_4_0,2023-11-17T17:36:45.945Z,,,,1,-0.0367706518941078,0.0161069838272154,,0.04,true,hh,5561.8999999880325,response,1.0333845898785206,1.0639909819795554,-1.0817841406866813,0.998838774713298,0.9695888821382915,-1.082757749432558,high,high,,ISIC_0033419.JPG,9,ISIC_0010486.JPG,34,false,0.1,hh,keypress(i),0,false,779024,779023.6999999881,773445.193,773655.5,773461.8,778839.024,4,500,5,
break,html.Screen,10_4_1,2023-11-17T17:36:45.947Z,,,,,,,,,,,NaN,,,,,,,,high,high,,,,,,false,,,,,false,779025.7999999523,779025.3999999762,,779024.5999999642,,778839.024,4,500,,
break_continue,html.Screen,10_4_2,2023-11-17T17:36:45.948Z,,,,,,,,,,,NaN,,,,,,,,high,high,,,,,,false,,,,,false,779026.6999999881,779026.1999999881,,779026,,778839.024,4,500,,
sequence,flow.Sequence,10_4,2023-11-17T17:36:45.948Z,,,,,,,,,,,5564.3999999880325,completion,,,,,,,high,high,,,,,,false,,,,,false,779027,779026.1999999881,773445.193,773655.5,773461.8,778839.024,4,500,,
trial,html.Screen,10_5_0,2023-11-17T17:36:49.551Z,,,,1,0.0074667911845194,-0.018500200317654,,0.04,false,ll,3791.1759999881033,response,-1.0161855018674797,1.0639909819795554,-1.0817841406866813,-1.1331366334676347,0.9695888821382915,-1.082757749432558,low,low,,ISIC_0058723.JPG,10,ISIC_3521671.JPG,25,false,0.11,hl,keypress(j),0,false,782630.2999999523,782630.1999999881,778822.512,779027.2999999523,778839.024,782445.935,4,500,6,
break,html.Screen,10_5_1,2023-11-17T17:36:49.552Z,,,,,,,,,,,NaN,,,,,,,,low,low,,,,,,false,,,,,false,782630.6999999881,782630.5999999642,,782630.3999999762,,782445.935,4,500,,
break_continue,html.Screen,10_5_2,2023-11-17T17:36:49.552Z,,,,,,,,,,,NaN,,,,,,,,low,low,,,,,,false,,,,,false,782630.8999999762,782630.7999999523,,782630.6999999881,,782445.935,4,500,,
sequence,flow.Sequence,10_5,2023-11-17T17:36:49.552Z,,,,,,,,,,,3791.7759999523405,completion,,,,,,,low,low,,,,,,false,,,,,false,782631,782630.7999999523,778822.512,779027.1999999881,778839.024,782445.935,4,500,,
trial,html.Screen,10_6_0,2023-11-17T17:36:59.585Z,,,,1,0.0199950873045219,0.0172506388509166,,0.04,true,hl,10217.36499995226,response,0.8500530224490773,1.0639909819795554,-1.0817841406866813,-1.0893360711742854,0.9695888821382915,-1.082757749432558,high,low,,ISIC_0029906.JPG,9,ISIC_2998367.JPG,25,false,0.27000000000000013,hl,keypress(j),0,false,792663.5999999642,792663.2999999523,782429.473,782631,782445.935,792482.168,4,500,7,
break,html.Screen,10_6_1,2023-11-17T17:36:59.586Z,,,,,,,,,,,NaN,,,,,,,,high,low,,,,,,false,,,,,false,792664.5999999642,792664.3999999762,,792664,,792482.168,4,500,,
break_continue,html.Screen,10_6_2,2023-11-17T17:36:59.586Z,,,,,,,,,,,NaN,,,,,,,,high,low,,,,,,false,,,,,false,792665.3999999762,792665,,792664.8999999762,,792482.168,4,500,,
sequence,flow.Sequence,10_6,2023-11-17T17:36:59.587Z,,,,,,,,,,,10219.064999999944,completion,,,,,,,high,low,,,,,,false,,,,,false,792665.6999999881,792665,782429.473,782631,782445.935,792482.168,4,500,,
trial,html.Screen,10_7_0,2023-11-17T17:37:10.378Z,,,,1,-0.0220026381002083,0.0170756452911772,,0.04,false,hl,10973.531999988132,response,1.2081146885025262,1.0639909819795554,-1.0817841406866813,-1.195668832085049,0.9695888821382915,-1.082757749432558,high,low,,ISIC_5347806.JPG,9,ISIC_7369690.JPG,25,false,0.27000000000000013,ll,keypress(f),0,false,803456.0999999642,803455.6999999881,792465.477,792665.8999999762,792482.168,803269.844,4,500,8,
break,html.Screen,10_7_1,2023-11-17T17:37:10.379Z,,,,,,,,,,,NaN,,,,,,,,high,low,,,,,,false,,,,,false,803457.2999999523,803457,,803456.5,,803269.844,4,500,,
break_continue,html.Screen,10_7_2,2023-11-17T17:37:10.380Z,,,,,,,,,,,NaN,,,,,,,,high,low,,,,,,false,,,,,false,803458.3999999762,803457.8999999762,,803457.6999999881,,803269.844,4,500,,
sequence,flow.Sequence,10_7,2023-11-17T17:37:10.380Z,,,,,,,,,,,10975.731999976211,completion,,,,,,,high,low,,,,,,false,,,,,false,803458.5999999642,803457.8999999762,792465.477,792665.7999999523,792482.168,803269.844,4,500,,
trial,html.Screen,10_8_0,2023-11-17T17:37:17.994Z,,,,1,-0.0286056110007553,-0.036125199756515,,0.04,true,hh,7801.655999999959,response,1.0292526683018866,1.0639909819795554,-1.0817841406866813,0.9026684221154396,0.9695888821382915,-1.082757749432558,high,high,,ISIC_6535558.JPG,9,ISIC_0059314.JPG,34,false,0.1,hh,keypress(i),0,false,811071.8999999762,811071.5,803253.379,803458.7999999523,803269.844,810918.025,4,500,9,
break,html.Screen,10_8_1,2023-11-17T17:37:17.995Z,,,,,,,,,,,NaN,,,,,,,,high,high,,,,,,false,,,,,false,811073.2999999523,811072.8999999762,,811072.2999999523,,810918.025,4,500,,
break_continue,html.Screen,10_8_2,2023-11-17T17:37:17.996Z,,,,,,,,,,,NaN,,,,,,,,high,high,,,,,,false,,,,,false,811074.1999999881,811073.6999999881,,811073.5999999642,,810918.025,4,500,,
sequence,flow.Sequence,10_8,2023-11-17T17:37:17.996Z,,,,,,,,,,,7803.855999988038,completion,,,,,,,high,high,,,,,,false,,,,,false,811074.5999999642,811073.6999999881,803253.379,803458.7999999523,803269.844,810918.025,4,500,,
trial,html.Screen,10_9_0,2023-11-17T17:37:28.178Z,,,,1,-0.0258224118104549,0.0029364553353019,,0.04,false,lh,10337.674999988056,response,-1.199471562817528,1.0639909819795554,-1.0817841406866813,0.8631260534979347,0.9695888821382915,-1.082757749432558,low,high,,ISIC_8325226.JPG,9,ISIC_0030754.JPG,25,false,0.27000000000000013,hh,keypress(i),0,false,821256,821255.6999999881,810868.104,811074.8999999762,810918.025,821071.153,4,500,10,
break,html.Screen,10_9_1,2023-11-17T17:37:28.179Z,,,,,,,,,,,NaN,,,,,,,,low,high,,,,,,false,,,,,false,821257.1999999881,821256.8999999762,,821256.5,,821071.153,4,500,,
break_continue,html.Screen,10_9_2,2023-11-17T17:37:28.180Z,,,,,,,,,,,NaN,,,,,,,,low,high,,,,,,false,,,,,false,821258.0999999642,821257.6999999881,,821257.5,,821071.153,4,500,,
sequence,flow.Sequence,10_9,2023-11-17T17:37:28.180Z,,,,,,,,,,,10339.674999988056,completion,,,,,,,low,high,,,,,,false,,,,,false,821258.3999999762,821257.6999999881,810868.104,811074.7999999523,810918.025,821071.153,4,500,,
trial,html.Screen,10_10_0,2023-11-17T17:37:32.858Z,,,,1,0.0198696495649504,-0.0387952353063878,,0.04,false,lh,4864.446999964188,response,-0.9237241143561707,1.0639909819795554,-1.0817841406866813,0.7102087839245512,0.9695888821382915,-1.082757749432558,low,high,,ISIC_6735970.JPG,9,ISIC_0058661.JPG,25,false,0.27000000000000013,ll,keypress(f),0,false,825936,825935.5999999642,821054.63,821258.6999999881,821071.153,825746.913,4,500,11,
break,html.Screen,10_10_1,2023-11-17T17:37:32.859Z,,,,,,,,,,,NaN,,,,,,,,low,high,,,,,,false,,,,,false,825937.2999999523,825937,,825936.3999999762,,825746.913,4,500,,
break_continue,html.Screen,10_10_2,2023-11-17T17:37:32.860Z,,,,,,,,,,,NaN,,,,,,,,low,high,,,,,,false,,,,,false,825938.1999999881,825937.7999999523,,825937.5999999642,,825746.913,4,500,,
sequence,flow.Sequence,10_10,2023-11-17T17:37:32.860Z,,,,,,,,,,,4866.646999952267,completion,,,,,,,low,high,,,,,,false,,,,,false,825938.5,825937.7999999523,821054.63,821258.5999999642,821071.153,825746.913,4,500,,
trial,html.Screen,10_11_0,2023-11-17T17:37:36.618Z,,,,1,0.0109416414475118,0.005246498750811,,0.04,true,ll,3948.686999964295,response,-1.109799097093339,1.0639909819795554,-1.0817841406866813,-1.091507924157762,0.9695888821382915,-1.082757749432558,low,low,,ISIC_0064279.JPG,10,ISIC_0765584.JPG,25,false,0.11,ll,keypress(f),0,false,829696,829695.5999999642,825730.425,825938.6999999881,825746.913,829520.927,4,500,12,
break,html.Screen,10_11_1,2023-11-17T17:37:36.619Z,,,,,,,,,,,NaN,,,,,,,,low,low,,,,,,false,,,,,false,829697.3999999762,829697,,829696.5999999642,,829520.927,4,500,,
break_continue,html.Screen,10_11_2,2023-11-17T17:37:36.620Z,,,,,,,,,,,NaN,,,,,,,,low,low,,,,,,false,,,,,false,829698.5,829698,,829697.6999999881,,829520.927,4,500,,
sequence,flow.Sequence,10_11,2023-11-17T17:37:36.620Z,,,,,,,,,,,3951.0870000000577,completion,,,,,,,low,low,,,,,,false,,,,,false,829698.6999999881,829698,825730.425,825938.6999999881,825746.913,829520.927,4,500,,
trial,html.Screen,10_12_0,2023-11-17T17:37:42.440Z,,,,1,0.0388181790775959,-0.0049623405709465,,0.04,true,hl,5997.372999952291,response,0.90812608370647,1.0639909819795554,-1.0817841406866813,-1.2720026872926935,0.9695888821382915,-1.082757749432558,high,low,,ISIC_0061880.JPG,8,ISIC_0450295.JPG,25,false,0.27000000000000013,hl,keypress(j),0,false,835518.3999999762,835518.2999999523,829487.668,829698.8999999762,829520.927,835332.241,4,500,13,
break,html.Screen,10_12_1,2023-11-17T17:37:42.440Z,,,,,,,,,,,NaN,,,,,,,,high,low,,,,,,false,,,,,false,835518.6999999881,835518.5999999642,,835518.5,,835332.241,4,500,,
break_continue,html.Screen,10_12_2,2023-11-17T17:37:42.441Z,,,,,,,,,,,NaN,,,,,,,,high,low,,,,,,false,,,,,false,835518.8999999762,835518.7999999523,,835518.6999999881,,835332.241,4,500,,
sequence,flow.Sequence,10_12,2023-11-17T17:37:42.441Z,,,,,,,,,,,5997.872999952291,completion,,,,,,,high,low,,,,,,false,,,,,false,835519,835518.7999999523,829487.668,829698.8999999762,829520.927,835332.241,4,500,,
trial,html.Screen,10_13_0,2023-11-17T17:37:47.834Z,,,,1,,0.0102871556606504,,0.04,false,ll,5579.15899997612,response,-1.1100289789666156,1.0639909819795554,-1.0817841406866813,-0.9747349048723576,0.9695888821382915,-1.082757749432558,low,low,,ISIC_1805163.JPG,9,ISIC_0026552.JPG,25,false,0.11,lh,keypress(e),0,false,840911.8999999762,840911.3999999762,835315.659,835519.0999999642,835332.241,840726.072,4,500,14,
break,html.Screen,10_13_1,2023-11-17T17:37:47.835Z,,,,,,,,,,,NaN,,,,,,,,low,low,,,,,,false,,,,,false,840913.0999999642,840912.7999999523,,840912.1999999881,,840726.072,4,500,,
break_continue,html.Screen,10_13_2,2023-11-17T17:37:47.836Z,,,,,,,,,,,NaN,,,,,,,,low,low,,,,,,false,,,,,false,840914,840913.5,,840913.2999999523,,840726.072,4,500,,
sequence,flow.Sequence,10_13,2023-11-17T17:37:47.836Z,,,,,,,,,,,5581.258999999962,completion,,,,,,,low,low,,,,,,false,,,,,false,840914.2999999523,840913.5,835315.659,835519.0999999642,835332.241,840726.072,4,500,,
trial,html.Screen,10_14_0,2023-11-17T17:37:53.386Z,,,,1,0.0374659946425444,0.0086043094957617,,0.04,true,hh,5737.7279999522725,response,1.0679712388489528,1.0639909819795554,-1.0817841406866813,1.0509600192807842,0.9695888821382915,-1.082757749432558,high,high,,ISIC_0033051.JPG,8,ISIC_0015180.JPG,34,false,0.1,hh,keypress(i),0,false,846464.1999999881,846463.7999999523,840709.622,840914.5999999642,840726.072,846270.281,4,500,15,
break,html.Screen,10_14_1,2023-11-17T17:37:53.387Z,,,,,,,,,,,NaN,,,,,,,,high,high,,,,,,false,,,,,false,846465.2999999523,846465.0999999642,,846464.5,,846270.281,4,500,,
break_continue,html.Screen,10_14_2,2023-11-17T17:37:53.388Z,,,,,,,,,,,NaN,,,,,,,,high,high,,,,,,false,,,,,false,846466.1999999881,846465.8999999762,,846465.5999999642,,846270.281,4,500,,
sequence,flow.Sequence,10_14,2023-11-17T17:37:53.388Z,,,,,,,,,,,5739.827999976114,completion,,,,,,,high,high,,,,,,false,,,,,false,846466.6999999881,846465.8999999762,840709.622,840914.5,840726.072,846270.281,4,500,,
trial,html.Screen,10_15_0,2023-11-17T17:37:56.106Z,,,,1,0.0074667911845194,-0.018500200317654,,0.04,true,hh,2913.219000000041,response,1.0980226451001782,1.0639909819795554,-1.0817841406866813,0.9421419207281913,0.9695888821382915,-1.082757749432558,high,high,,ISIC_0058723.JPG,9,ISIC_0060481.JPG,34,false,0.1,hh,keypress(i),0,false,849183.7999999523,849183.5,846253.71,846466.7999999523,846270.281,849025.559,4,500,16,
break,html.Screen,10_15_1,2023-11-17T17:37:56.107Z,,,,,,,,,,,NaN,,,,,,,,high,high,,,,,,false,,,,,false,849185.0999999642,849184.7999999523,,849184.2999999523,,849025.559,4,500,,
break_continue,html.Screen,10_15_2,2023-11-17T17:37:56.108Z,,,,,,,,,,,NaN,,,,,,,,high,high,,,,,,false,,,,,false,849186.0999999642,849185.6999999881,,849185.3999999762,,849025.559,4,500,,
sequence,flow.Sequence,10_15,2023-11-17T17:37:56.108Z,,,,,,,,,,,2915.41899998812,completion,,,,,,,high,high,,,,,,false,,,,,false,849186.3999999762,849185.6999999881,846253.71,846466.7999999523,846270.281,849025.559,4,500,,
trial,html.Screen,10_16_0,2023-11-17T17:37:59.706Z,,,,1,0.0164027439304477,-0.0082910758715273,,0.04,true,lh,3757.8409999761498,response,-0.9237241143561707,1.0639909819795554,-1.0817841406866813,0.7102087839245512,0.9695888821382915,-1.082757749432558,low,high,,ISIC_7381224.JPG,8,ISIC_0058661.JPG,25,false,0.27000000000000013,lh,keypress(e),0,false,852783.7999999523,852783.3999999762,848975.697,849186.6999999881,849025.559,852599.182,4,500,17,
break,html.Screen,10_16_1,2023-11-17T17:37:59.707Z,,,,,,,,,,,NaN,,,,,,,,low,high,,,,,,false,,,,,false,852785.0999999642,852784.7999999523,,852784.1999999881,,852599.182,4,500,,
break_continue,html.Screen,10_16_2,2023-11-17T17:37:59.708Z,,,,,,,,,,,NaN,,,,,,,,low,high,,,,,,false,,,,,false,852785.8999999762,852785.5,,852785.2999999523,,852599.182,4,500,,
sequence,flow.Sequence,10_16,2023-11-17T17:37:59.708Z,,,,,,,,,,,3759.9409999999916,completion,,,,,,,low,high,,,,,,false,,,,,false,852786.2999999523,852785.5,848975.697,849186.5999999642,849025.559,852599.182,4,500,,
trial,html.Screen,10_17_0,2023-11-17T17:38:02.186Z,,,,1,0.039520186367207,0.0377961575607372,,0.04,true,lh,2664.2179999761283,response,-1.2054195059663604,1.0639909819795554,-1.0817841406866813,0.7760611240296147,0.9695888821382915,-1.082757749432558,low,high,,ISIC_6356149.JPG,9,ISIC_8712559.JPG,25,false,0.27000000000000013,lh,keypress(e),0,false,855264,855263.3999999762,852582.592,852786.5,852599.182,855070.755,4,500,18,
break,html.Screen,10_17_1,2023-11-17T17:38:02.187Z,,,,,,,,,,,NaN,,,,,,,,low,high,,,,,,false,,,,,false,855265.3999999762,855265.0999999642,,855264.3999999762,,855070.755,4,500,,
break_continue,html.Screen,10_17_2,2023-11-17T17:38:02.188Z,,,,,,,,,,,NaN,,,,,,,,low,high,,,,,,false,,,,,false,855266.5,855266,,855265.5999999642,,855070.755,4,500,,
sequence,flow.Sequence,10_17,2023-11-17T17:38:02.189Z,,,,,,,,,,,2666.81799999997,completion,,,,,,,low,high,,,,,,false,,,,,false,855266.7999999523,855266,852582.592,852786.3999999762,852599.182,855070.755,4,500,,
trial,html.Screen,10_18_0,2023-11-17T17:38:15.378Z,,,,1,-0.0076984477620101,-0.0069458408496562,,0.04,true,ll,13384.944999988074,response,-1.151139267005652,1.0639909819795554,-1.0817841406866813,-1.0838749490501327,0.9695888821382915,-1.082757749432558,low,low,,ISIC_0000434.JPG,10,ISIC_0002566.JPG,25,false,0.11,ll,keypress(f),0,false,868456.0999999642,868455.6999999881,855054.107,855267.0999999642,855070.755,868279.706,4,500,19,
break,html.Screen,10_18_1,2023-11-17T17:38:15.380Z,,,,,,,,,,,NaN,,,,,,,,low,low,,,,,,false,,,,,false,868457.3999999762,868457,,868456.5,,868279.706,4,500,,
break_continue,html.Screen,10_18_2,2023-11-17T17:38:15.381Z,,,,,,,,,,,NaN,,,,,,,,low,low,,,,,,false,,,,,false,868458.2999999523,868457.8999999762,,868457.5999999642,,868279.706,4,500,,
sequence,flow.Sequence,10_18,2023-11-17T17:38:15.381Z,,,,,,,,,,,13387.144999976153,completion,,,,,,,low,low,,,,,,false,,,,,false,868458.6999999881,868457.8999999762,855054.107,855267.0999999642,855070.755,868279.706,4,500,,
trial,html.Screen,10_19_0,2023-11-17T17:38:20.922Z,,,,1,0.039520186367207,0.0377961575607372,,0.04,false,hl,5719.793999999994,response,0.9662688541319592,1.0639909819795554,-1.0817841406866813,-0.929746784178986,0.9695888821382915,-1.082757749432558,high,low,,ISIC_6356149.JPG,9,ISIC_0011077.JPG,25,false,0.27000000000000013,hh,keypress(i),0,false,873999.7999999523,873999.5,868246.39,868458.8999999762,868279.706,873807.203,4,500,20,
break,html.Screen,10_19_1,2023-11-17T17:38:20.923Z,,,,,,,,,,,NaN,,,,,,,,high,low,,,,,,false,,,,,false,874000.8999999762,874000.6999999881,,874000.1999999881,,873807.203,4,500,,
break_continue,html.Screen,10_19_2,2023-11-17T17:38:20.924Z,,,,,,,,,,,NaN,,,,,,,,high,low,,,,,,false,,,,,false,874001.7999999523,874001.3999999762,,874001.1999999881,,873807.203,4,500,,
sequence,flow.Sequence,10_19,2023-11-17T17:38:20.924Z,,,,,,,,,,,5721.693999976153,completion,,,,,,,high,low,,,,,,false,,,,,false,874002.1999999881,874001.3999999762,868246.39,868458.8999999762,868279.706,873807.203,4,500,,
trial,html.Screen,10_20_0,2023-11-17T17:38:26.826Z,,,,1,-0.0308384937406319,0.0038396364323947,,0.04,true,hh,6096.596999952337,response,1.0918237468930412,1.0639909819795554,-1.0817841406866813,1.0199940959248062,0.9695888821382915,-1.082757749432558,high,high,,ISIC_0029825.JPG,8,ISIC_0064120.JPG,34,false,0.1,hh,keypress(i),0,false,879904.1999999881,879903.7999999523,873790.647,874002.3999999762,873807.203,879718.635,4,500,21,
break,html.Screen,10_20_1,2023-11-17T17:38:26.828Z,,,,,,,,,,,NaN,,,,,,,,high,high,,,,,,false,,,,,false,879905.3999999762,879905.0999999642,,879904.5,,879718.635,4,500,,
break_continue,html.Screen,10_20_2,2023-11-17T17:38:26.829Z,,,,,,,,,,,NaN,,,,,,,,high,high,,,,,,false,,,,,false,879906.2999999523,879905.8999999762,,879905.5999999642,,879718.635,4,500,,
sequence,flow.Sequence,10_20,2023-11-17T17:38:26.829Z,,,,,,,,,,,6098.696999976179,completion,,,,,,,high,high,,,,,,false,,,,,false,879906.5999999642,879905.8999999762,873790.647,874002.2999999523,873807.203,879718.635,4,500,,
trial,html.Screen,10_21_0,2023-11-17T17:38:30.610Z,,,,1,-0.0308384937406319,0.0038396364323947,,0.04,true,hl,3968.8649999999907,response,0.90812608370647,1.0639909819795554,-1.0817841406866813,-1.2720026872926935,0.9695888821382915,-1.082757749432558,high,low,,ISIC_0029825.JPG,9,ISIC_0450295.JPG,25,false,0.27000000000000013,hl,keypress(j),0,false,883687.7999999523,883687.5,879702.187,879906.8999999762,879718.635,883509.609,4,500,22,
break,html.Screen,10_21_1,2023-11-17T17:38:30.611Z,,,,,,,,,,,NaN,,,,,,,,high,low,,,,,,false,,,,,false,883688.8999999762,883688.6999999881,,883688.1999999881,,883509.609,4,500,,
break_continue,html.Screen,10_21_2,2023-11-17T17:38:30.612Z,,,,,,,,,,,NaN,,,,,,,,high,low,,,,,,false,,,,,false,883689.8999999762,883689.5,,883689.1999999881,,883509.609,4,500,,
sequence,flow.Sequence,10_21,2023-11-17T17:38:30.613Z,,,,,,,,,,,3970.8649999999907,completion,,,,,,,high,low,,,,,,false,,,,,false,883690.1999999881,883689.5,879702.187,879906.7999999523,879718.635,883509.609,4,500,,
trial,html.Screen,10_22_0,2023-11-17T17:38:36.258Z,,,,1,-0.0044063257337227,-0.0172548282859886,,0.04,false,hh,5825.790999976103,response,1.0333845898785206,1.0639909819795554,-1.0817841406866813,0.998838774713298,0.9695888821382915,-1.082757749432558,high,high,,ISIC_7413786.JPG,9,ISIC_0010486.JPG,34,false,0.1,lh,keypress(e),0,false,889335.5999999642,889335.3999999762,883492.755,883690.3999999762,883509.609,889153.674,4,500,23,
break,html.Screen,10_22_1,2023-11-17T17:38:36.259Z,,,,,,,,,,,NaN,,,,,,,,high,high,,,,,,false,,,,,false,889336.6999999881,889336.3999999762,,889336,,889153.674,4,500,,
break_continue,html.Screen,10_22_2,2023-11-17T17:38:36.260Z,,,,,,,,,,,NaN,,,,,,,,high,high,,,,,,false,,,,,false,889337.3999999762,889337.0999999642,,889336.8999999762,,889153.674,4,500,,
sequence,flow.Sequence,10_22,2023-11-17T17:38:36.260Z,,,,,,,,,,,5827.490999964182,completion,,,,,,,high,high,,,,,,false,,,,,false,889337.5999999642,889337.0999999642,883492.755,883690.2999999523,883509.609,889153.674,4,500,,
trial,html.Screen,10_23_0,2023-11-17T17:38:41.266Z,,,,1,0.0388334549081915,-0.0303399972963369,,0.04,true,hh,5190.02599998808,response,1.1078259498922374,1.0639909819795554,-1.0817841406866813,0.9020376444393038,0.9695888821382915,-1.082757749432558,high,high,,ISIC_4961708.JPG,9,ISIC_0071069.JPG,34,false,0.1,hh,keypress(i),0,false,894344.0999999642,894343.6999999881,889137.003,889337.6999999881,889153.674,894163.5,4,500,24,
break,html.Screen,10_23_1,2023-11-17T17:38:41.268Z,,,,,,,,,,,NaN,,,,,,,,high,high,,,,,,false,,,,,false,894345.2999999523,894345,,894344.5,,894163.5,4,500,,
break_continue,html.Screen,10_23_2,2023-11-17T17:38:41.268Z,,,,,,,,,,,NaN,,,,,,,,high,high,,,,,,false,,,,,false,894346.1999999881,894345.7999999523,,894345.5,,894163.5,4,500,,
sequence,flow.Sequence,10_23,2023-11-17T17:38:41.269Z,,,,,,,,,,,5192.125999952317,completion,,,,,,,high,high,,,,,,false,,,,,false,894346.5,894345.7999999523,889137.003,889337.5999999642,889153.674,894163.5,4,500,,
trial,html.Screen,10_24_0,2023-11-17T17:38:50.394Z,,,,1,,0.0102871556606504,,0.04,true,hh,9308.099999964237,response,1.0665699221890637,1.0639909819795554,-1.0817841406866813,1.0106762707163983,0.9695888821382915,-1.082757749432558,high,high,,ISIC_1805163.JPG,9,ISIC_1630301.JPG,34,false,0.1,hh,keypress(i),0,false,903471.8999999762,903471.5999999642,894146.922,894346.7999999523,894163.5,903281.174,4,500,25,
break,html.Screen,10_24_1,2023-11-17T17:38:50.395Z,,,,,,,,,,,NaN,,,,,,,,high,high,,,,,,false,,,,,false,903473.0999999642,903472.6999999881,,903472.2999999523,,903281.174,4,500,,
break_continue,html.Screen,10_24_2,2023-11-17T17:38:50.396Z,,,,,,,,,,,NaN,,,,,,,,high,high,,,,,,false,,,,,false,903474,903473.5999999642,,903473.2999999523,,903281.174,4,500,,
sequence,flow.Sequence,10_24,2023-11-17T17:38:50.397Z,,,,,,,,,,,9310.099999964237,completion,,,,,,,high,high,,,,,,false,,,,,false,903474.1999999881,903473.5999999642,894146.922,894346.7999999523,894163.5,903281.174,4,500,,
trial,html.Screen,10_25_0,2023-11-17T17:38:53.627Z,,,,1,0.0164027439304477,-0.0082910758715273,,0.04,false,ll,3422.826000000001,response,-1.001866590114321,1.0639909819795554,-1.0817841406866813,-1.080719641270871,0.9695888821382915,-1.082757749432558,low,low,,ISIC_7381224.JPG,8,ISIC_0663941.JPG,25,false,0.11,hh,keypress(i),0,false,906704.3999999762,906704,903264.692,903474.5,903281.174,906520.806,4,500,26,
break,html.Screen,10_25_1,2023-11-17T17:38:53.628Z,,,,,,,,,,,NaN,,,,,,,,low,low,,,,,,false,,,,,false,906705.5999999642,906705.2999999523,,906704.6999999881,,906520.806,4,500,,
break_continue,html.Screen,10_25_2,2023-11-17T17:38:53.629Z,,,,,,,,,,,NaN,,,,,,,,low,low,,,,,,false,,,,,false,906706.5,906706,,906705.8999999762,,906520.806,4,500,,
sequence,flow.Sequence,10_25,2023-11-17T17:38:53.629Z,,,,,,,,,,,3424.826000000001,completion,,,,,,,low,low,,,,,,false,,,,,false,906706.7999999523,906706,903264.692,903474.3999999762,903281.174,906520.806,4,500,,
trial,html.Screen,10_26_0,2023-11-17T17:38:57.626Z,,,,1,0.0374659946425444,0.0086043094957617,,0.04,true,hl,4182.893999988097,response,0.9662688541319592,1.0639909819795554,-1.0817841406866813,-0.929746784178986,0.9695888821382915,-1.082757749432558,high,low,,ISIC_0033051.JPG,9,ISIC_0011077.JPG,25,false,0.27000000000000013,hl,keypress(j),0,false,910703.8999999762,910703.6999999881,906504.355,906707.0999999642,906520.806,910528.602,4,500,27,
break,html.Screen,10_26_1,2023-11-17T17:38:57.627Z,,,,,,,,,,,NaN,,,,,,,,high,low,,,,,,false,,,,,false,910705.1999999881,910704.8999999762,,910704.2999999523,,910528.602,4,500,,
break_continue,html.Screen,10_26_2,2023-11-17T17:38:57.628Z,,,,,,,,,,,NaN,,,,,,,,high,low,,,,,,false,,,,,false,910706.0999999642,910705.6999999881,,910705.3999999762,,910528.602,4,500,,
sequence,flow.Sequence,10_26,2023-11-17T17:38:57.629Z,,,,,,,,,,,4184.893999988097,completion,,,,,,,high,low,,,,,,false,,,,,false,910706.3999999762,910705.6999999881,906504.355,906707,906520.806,910528.602,4,500,,
trial,html.Screen,10_27_0,2023-11-17T17:39:03.498Z,,,,1,0.0374659946425444,0.0086043094957617,,0.04,false,lh,6046.898000000045,response,-0.8954803463300026,1.0639909819795554,-1.0817841406866813,0.7071819047913821,0.9695888821382915,-1.082757749432558,low,high,,ISIC_0033051.JPG,8,ISIC_0033071.JPG,25,false,0.27000000000000013,hl,keypress(j),0,false,916575.8999999762,916575.5,910495.391,910706.5999999642,910528.602,916390.016,4,500,28,
break,html.Screen,10_27_1,2023-11-17T17:39:03.499Z,,,,,,,,,,,NaN,,,,,,,,low,high,,,,,,false,,,,,false,916577.0999999642,916576.7999999523,,916576.1999999881,,916390.016,4,500,,
break_continue,html.Screen,10_27_2,2023-11-17T17:39:03.500Z,,,,,,,,,,,NaN,,,,,,,,low,high,,,,,,false,,,,,false,916578,916577.5,,916577.2999999523,,916390.016,4,500,,
sequence,flow.Sequence,10_27,2023-11-17T17:39:03.501Z,,,,,,,,,,,6048.898000000045,completion,,,,,,,low,high,,,,,,false,,,,,false,916578.2999999523,916577.5,910495.391,910706.5,910528.602,916390.016,4,500,,
trial,html.Screen,10_28_0,2023-11-17T17:39:05.795Z,,,,1,0.0164027439304477,-0.0082910758715273,,0.04,true,hl,2481.7839999523712,response,0.9633172970727744,1.0639909819795554,-1.0817841406866813,-0.8472659344792351,0.9695888821382915,-1.082757749432558,high,low,,ISIC_7381224.JPG,9,ISIC_0067172.JPG,25,false,0.27000000000000013,hl,keypress(j),0,false,918872.1999999881,918871.7999999523,916373.531,916578.5,916390.016,918695.155,4,500,29,
break,html.Screen,10_28_1,2023-11-17T17:39:05.796Z,,,,,,,,,,,NaN,,,,,,,,high,low,,,,,,false,,,,,false,918873.5,918873.0999999642,,918872.5999999642,,918695.155,4,500,,
break_continue,html.Screen,10_28_2,2023-11-17T17:39:05.797Z,,,,,,,,,,,NaN,,,,,,,,high,low,,,,,,false,,,,,false,918874.5,918873.8999999762,,918873.6999999881,,918695.155,4,500,,
sequence,flow.Sequence,10_28,2023-11-17T17:39:05.797Z,,,,,,,,,,,2483.883999976213,completion,,,,,,,high,low,,,,,,false,,,,,false,918874.6999999881,918873.8999999762,916373.531,916578.3999999762,916390.016,918695.155,4,500,,
trial,html.Screen,10_29_0,2023-11-17T17:39:16.345Z,,,,1,-0.0257631352671967,-0.0202837002774028,,0.04,false,hl,10727.144999952288,response,1.0685314915436992,1.0639909819795554,-1.0817841406866813,-0.8203833713472237,0.9695888821382915,-1.082757749432558,high,low,,ISIC_0032797.JPG,10,ISIC_0029374.JPG,25,false,0.27000000000000013,ll,keypress(f),0,false,929422.3999999762,929422.2999999523,918661.233,918875,918695.155,929231.662,4,500,30,
break,html.Screen,10_29_1,2023-11-17T17:39:16.346Z,,,,,,,,,,,NaN,,,,,,,,high,low,,,,,,false,,,,,false,929422.5999999642,929422.5999999642,,929422.5,,929231.662,4,500,,
break_continue,html.Screen,10_29_2,2023-11-17T17:39:16.346Z,,,,,,,,,,,NaN,,,,,,,,high,low,,,,,,false,,,,,false,929422.8999999762,929422.7999999523,,929422.6999999881,,929231.662,4,500,,
sequence,flow.Sequence,10_29,2023-11-17T17:39:16.346Z,,,,,,,,,,,10727.644999952288,completion,,,,,,,high,low,,,,,,false,,,,,false,929423,929422.7999999523,918661.233,918874.8999999762,918695.155,929231.662,4,500,,
trial,html.Screen,10_30_0,2023-11-17T17:39:22.945Z,,,,1,0.0199950873045219,0.0172506388509166,,0.04,true,hl,6790.337999999989,response,1.0153439398566937,1.0639909819795554,-1.0817841406866813,-0.93001438372942,0.9695888821382915,-1.082757749432558,high,low,,ISIC_0029906.JPG,9,ISIC_8211214.JPG,25,false,0.27000000000000013,hl,keypress(j),0,false,936022.0999999642,936022,929215.041,929423,929231.662,935827.826,4,500,31,
break,html.Screen,10_30_1,2023-11-17T17:39:22.946Z,,,,,,,,,,,NaN,,,,,,,,high,low,,,,,,false,,,,,false,936022.3999999762,936022.2999999523,,936022.1999999881,,935827.826,4,500,,
break_continue,html.Screen,10_30_2,2023-11-17T17:39:22.946Z,,,,,,,,,,,NaN,,,,,,,,high,low,,,,,,false,,,,,false,936022.6999999881,936022.5,,936022.5,,935827.826,4,500,,
sequence,flow.Sequence,10_30,2023-11-17T17:39:22.946Z,,,,,,,,,,,6790.837999999989,completion,,,,,,,high,low,,,,,,false,,,,,false,936022.6999999881,936022.5,929215.041,929423,929231.662,935827.826,4,500,,
trial,html.Screen,10_31_0,2023-11-17T17:39:28.275Z,,,,1,0.001445457736793,0.0165307427449982,,0.04,false,hh,5524.073999976157,response,1.0918237468930412,1.0639909819795554,-1.0817841406866813,1.0199940959248062,0.9695888821382915,-1.082757749432558,high,high,,ISIC_0027350.JPG,10,ISIC_0064120.JPG,34,false,0.1,lh,keypress(e),0,false,941352.1999999881,941351.8999999762,935811.358,936022.6999999881,935827.826,941171.592,4,500,32,
break,html.Screen,10_31_1,2023-11-17T17:39:28.277Z,,,,,,,,,,,NaN,,,,,,,,high,high,,,,,,false,,,,,false,941353.3999999762,941353.1999999881,,941352.6999999881,,941171.592,4,500,,
break_continue,html.Screen,10_31_2,2023-11-17T17:39:28.277Z,,,,,,,,,,,NaN,,,,,,,,high,high,,,,,,false,,,,,false,941354.1999999881,941353.7999999523,,941353.5999999642,,941171.592,4,500,,
sequence,flow.Sequence,10_31,2023-11-17T17:39:28.278Z,,,,,,,,,,,5525.973999952315,completion,,,,,,,high,high,,,,,,false,,,,,false,941354.5999999642,941353.7999999523,935811.358,936022.6999999881,935827.826,941171.592,4,500,,
trial,html.Screen,10_32_0,2023-11-17T17:39:33.027Z,,,,1,-0.0257631352671967,-0.0202837002774028,,0.04,true,hl,4932.007999964291,response,1.2646773654288392,1.0639909819795554,-1.0817841406866813,-0.952963803634235,0.9695888821382915,-1.082757749432558,high,low,,ISIC_0032797.JPG,8,ISIC_1996356.JPG,25,false,0.27000000000000013,hl,keypress(j),0,false,946103.8999999762,946103.5999999642,941154.871,941354.7999999523,941171.592,945914.152,4,500,33,
break,html.Screen,10_32_1,2023-11-17T17:39:33.028Z,,,,,,,,,,,NaN,,,,,,,,high,low,,,,,,false,,,,,false,946105.0999999642,946104.7999999523,,946104.2999999523,,945914.152,4,500,,
break_continue,html.Screen,10_32_2,2023-11-17T17:39:33.029Z,,,,,,,,,,,NaN,,,,,,,,high,low,,,,,,false,,,,,false,946105.8999999762,946105.5,,946105.2999999523,,945914.152,4,500,,
sequence,flow.Sequence,10_32,2023-11-17T17:39:33.029Z,,,,,,,,,,,4933.908000000054,completion,,,,,,,high,low,,,,,,false,,,,,false,946106.1999999881,946105.5,941154.871,941354.6999999881,941171.592,945914.152,4,500,,
trial,html.Screen,10_33_0,2023-11-17T17:39:37.434Z,,,,1,0.039520186367207,0.0377961575607372,,0.04,false,ll,4596.247999976156,response,-1.1441960791049337,1.0639909819795554,-1.0817841406866813,-1.0156321899655198,0.9695888821382915,-1.082757749432558,low,low,,ISIC_6356149.JPG,8,ISIC_4023381.JPG,25,false,0.11,lh,keypress(e),0,false,950510.5999999642,950510.3999999762,945897.625,946106.5,945914.152,950322.708,4,500,34,
break,html.Screen,10_33_1,2023-11-17T17:39:37.434Z,,,,,,,,,,,NaN,,,,,,,,low,low,,,,,,false,,,,,false,950510.8999999762,950510.7999999523,,950510.6999999881,,950322.708,4,500,,
break_continue,html.Screen,10_33_2,2023-11-17T17:39:37.434Z,,,,,,,,,,,NaN,,,,,,,,low,low,,,,,,false,,,,,false,950511.1999999881,950511.0999999642,,950511,,950322.708,4,500,,
sequence,flow.Sequence,10_33,2023-11-17T17:39:37.434Z,,,,,,,,,,,4596.947999964235,completion,,,,,,,low,low,,,,,,false,,,,,false,950511.1999999881,950511.0999999642,945897.625,946106.3999999762,945914.152,950322.708,4,500,,
trial,html.Screen,10_34_0,2023-11-17T17:39:40.402Z,,,,1,-0.0258224118104549,0.0029364553353019,,0.04,true,hl,3155.591999952332,response,0.8544507134472948,1.0639909819795554,-1.0817841406866813,-0.9244388608707323,0.9695888821382915,-1.082757749432558,high,low,,ISIC_8325226.JPG,10,ISIC_3565564.JPG,25,false,0.27000000000000013,hl,keypress(j),0,false,953478.3999999762,953478.2999999523,950306.063,950511.2999999523,950322.708,953295.343,4,500,35,
break,html.Screen,10_34_1,2023-11-17T17:39:40.402Z,,,,,,,,,,,NaN,,,,,,,,high,low,,,,,,false,,,,,false,953478.6999999881,953478.5999999642,,953478.5999999642,,953295.343,4,500,,
break_continue,html.Screen,10_34_2,2023-11-17T17:39:40.402Z,,,,,,,,,,,NaN,,,,,,,,high,low,,,,,,false,,,,,false,953479,953478.7999999523,,953478.6999999881,,953295.343,4,500,,
sequence,flow.Sequence,10_34,2023-11-17T17:39:40.402Z,,,,,,,,,,,3156.091999952332,completion,,,,,,,high,low,,,,,,false,,,,,false,953479,953478.7999999523,950306.063,950511.1999999881,950322.708,953295.343,4,500,,
trial,html.Screen,10_35_0,2023-11-17T17:39:44.546Z,,,,1,0.0241900387072296,-0.0339955304424736,,0.04,false,ll,4326.956999952323,response,-0.9786113496628154,1.0639909819795554,-1.0817841406866813,-1.040122402473425,0.9695888821382915,-1.082757749432558,low,low,,ISIC_0010789.JPG,9,ISIC_8195528.JPG,25,false,0.11,hl,keypress(j),0,false,957622.3999999762,957622.2999999523,953278.631,953479,953295.343,957436.56,4,500,36,
break,html.Screen,10_35_1,2023-11-17T17:39:44.546Z,,,,,,,,,,,NaN,,,,,,,,low,low,,,,,,false,,,,,false,957622.7999999523,957622.7999999523,,957622.5999999642,,957436.56,4,500,,
break_continue,html.Screen,10_35_2,2023-11-17T17:39:44.546Z,,,,,,,,,,,NaN,,,,,,,,low,low,,,,,,false,,,,,false,957623,957623,,957622.8999999762,,957436.56,4,500,,
sequence,flow.Sequence,10_35,2023-11-17T17:39:44.546Z,,,,,,,,,,,4327.6570000000065,completion,,,,,,,low,low,,,,,,false,,,,,false,957623.0999999642,957623,953278.631,953479,953295.343,957436.56,4,500,,
trial,html.Screen,10_36_0,2023-11-17T17:39:55.723Z,,,,1,0.001445457736793,0.0165307427449982,,0.04,false,lh,11363.439999999944,response,-1.075512775389519,1.0639909819795554,-1.0817841406866813,1.0454702683049502,0.9695888821382915,-1.082757749432558,low,high,,ISIC_0027350.JPG,9,ISIC_0033603.JPG,25,false,0.27000000000000013,hl,keypress(j),0,false,968800.2999999523,968800,957420.137,957623.1999999881,957436.56,968608.327,4,500,37,
break,html.Screen,10_36_1,2023-11-17T17:39:55.725Z,,,,,,,,,,,NaN,,,,,,,,low,high,,,,,,false,,,,,false,968801.5,968801.1999999881,,968800.6999999881,,968608.327,4,500,,
break_continue,html.Screen,10_36_2,2023-11-17T17:39:55.726Z,,,,,,,,,,,NaN,,,,,,,,low,high,,,,,,false,,,,,false,968802.3999999762,968802,,968801.6999999881,,968608.327,4,500,,
sequence,flow.Sequence,10_36,2023-11-17T17:39:55.726Z,,,,,,,,,,,11365.439999999944,completion,,,,,,,low,high,,,,,,false,,,,,false,968802.6999999881,968802,957420.137,957623.1999999881,957436.56,968608.327,4,500,,
trial,html.Screen,10_37_0,2023-11-17T17:39:58.323Z,,,,1,0.0109416414475118,0.005246498750811,,0.04,false,ll,2791.272999964189,response,-1.0659165756604234,1.0639909819795554,-1.0817841406866813,-1.0867497316848906,0.9695888821382915,-1.082757749432558,low,low,,ISIC_0064279.JPG,9,ISIC_5807608.JPG,25,false,0.11,hl,keypress(j),0,false,971400,971399.5999999642,968591.915,968803,968608.327,971213.396,4,500,38,
break,html.Screen,10_37_1,2023-11-17T17:39:58.324Z,,,,,,,,,,,NaN,,,,,,,,low,low,,,,,,false,,,,,false,971401,971400.7999999523,,971400.2999999523,,971213.396,4,500,,
break_continue,html.Screen,10_37_2,2023-11-17T17:39:58.325Z,,,,,,,,,,,NaN,,,,,,,,low,low,,,,,,false,,,,,false,971401.8999999762,971401.5,,971401.1999999881,,971213.396,4,500,,
sequence,flow.Sequence,10_37,2023-11-17T17:39:58.325Z,,,,,,,,,,,2793.1729999999516,completion,,,,,,,low,low,,,,,,false,,,,,false,971402.0999999642,971401.5,968591.915,968802.8999999762,968608.327,971213.396,4,500,,
trial,html.Screen,10_38_0,2023-11-17T17:40:01.787Z,,,,1,-0.0119001144851157,0.0063430114540141,,0.04,true,lh,3650.0039999762084,response,-0.8828738626295417,1.0639909819795554,-1.0817841406866813,0.8288177599439582,0.9695888821382915,-1.082757749432558,low,high,,ISIC_0003822.JPG,9,ISIC_0056041.JPG,25,false,0.27000000000000013,lh,keypress(e),0,false,974863.6999999881,974863.3999999762,971196.948,971402.3999999762,971213.396,974670.22,4,500,39,
break,html.Screen,10_38_1,2023-11-17T17:40:01.788Z,,,,,,,,,,,NaN,,,,,,,,low,high,,,,,,false,,,,,false,974865,974864.6999999881,,974864.1999999881,,974670.22,4,500,,
break_continue,html.Screen,10_38_2,2023-11-17T17:40:01.789Z,,,,,,,,,,,NaN,,,,,,,,low,high,,,,,,false,,,,,false,974865.8999999762,974865.5999999642,,974865.2999999523,,974670.22,4,500,,
