sender,sender_type,sender_id,timestamp,meta,,age,blockNo,c1,c2,condition,control_tolerance,correct,correctResponse,duration,ended_on,f1,f1_high,f1_low,f2,f2_high,f2_low,feature_level1,feature_level2,gender,img_left,img_reveal,img_right,n_target_images,practice,range_tolerance,response,response_action,selection_duration,staircase,time_commit,time_end,time_render,time_run,time_show,time_switch,total_blocks,total_trials,trialNo,url
informed_consent,html.Screen,0,2023-11-17T18:33:52.414Z,"{""labjs_version"":""20.2.4"",""labjs_build"":{""flavor"":""development"",""commit"":""f5b4a49f956347addd546a832a3327688c2c0fef""},""location"":""https://labjs.felixhenninger.com/api/labjs_preview/index.html"",""userAgent"":""Mozilla/5.0 (Windows NT 10.0; Win64; x64) AppleWebKit/537.36 (KHTML, like Gecko) Chrome/119.0.0.0 Safari/537.36"",""platform"":""Win32"",""language"":""en-US"",""locale"":""en-US"",""timeZone"":""America/Chicago"",""timezoneOffset"":360,""screen_width"":1920,""screen_height"":1080,""scroll_width"":945,""scroll_height"":918,""window_innerWidth"":945,""window_innerHeight"":966,""devicePixelRatio"":1}",,,,,,,,,,42671.258,response,,,,,,,,,,,,,,,,consent,click button,,,43130,43124,436.016,528.5,452.742,43053.122,,,,{}
Demography form,html.Form,1,2023-11-17T18:34:00.895Z,,,19,,,,,,,,8557.778000095364,form submission,,,,,,,,,female,,,,,,,,,,,51611.10000002384,51610.90000009537,43019.817,43130.200000047684,43053.122,51519.32,,,,
Welcome,html.Screen,2,2023-11-17T18:34:28.106Z,,,,,,,"[""asym"",""bor""]",,,,27301.080000095368,response,,,,,,,,,,,,,,,,continue,click button,,,78821.10000002384,78820.40000009537,51503.155,51611.300000071526,51519.32,78735.97,,,,
demo_instructions,html.Screen,3,2023-11-17T18:35:45.434Z,,,,,,,,,,,77411.73000004768,response,,,,,,,,,,,,,,,,continue,click button,,,156148.40000009537,156147.70000004768,78719.33,78821.30000007153,78735.97,156086.019,,,,
trial,html.Screen,4_0_0,2023-11-17T18:35:58.449Z,,,,0,1.0264463986917702,-1.2804054832904397,,,true,lh,13076.481,response,-1.0751036484083878,1.2,-1.2,1.143906455483852,1.2,-1.2,low,high,,ISIC_7889838.JPG,,ISIC_0064406.JPG,26,true,0.3600000000000002,lh,keypress(e),100,false,169163,169162.5,156069.291,156148.60000002384,156086.019,169102.58,1,16,1,
sequence,flow.Sequence,4_0,2023-11-17T18:35:58.454Z,,,,,,,,,,,13076.481,completion,,,,,,,low,high,,,,,,true,,,,,false,169168.40000009537,169162.5,156069.291,156148.60000002384,156086.019,169102.58,1,16,,
trial,html.Screen,4_1_0,2023-11-17T18:36:07.649Z,,,,0,0.8655167308525522,-0.9298580423306444,,,true,lh,9260.620000047697,response,-0.9433720631499012,1.2,-1.2,1.0582071940347648,1.2,-1.2,low,high,,ISIC_4603706.JPG,,ISIC_4890201.JPG,33,true,0.42000000000000026,lh,keypress(e),100,false,178363.40000009537,178363.20000004768,169085.928,169168.5,169102.58,178302.726,1,16,2,
sequence,flow.Sequence,4_1,2023-11-17T18:36:07.649Z,,,,,,,,,,,9260.620000047697,completion,,,,,,,low,high,,,,,,true,,,,,false,178363.5,178363.20000004768,169085.928,169168.40000009537,169102.58,178302.726,1,16,,
trial,html.Screen,4_2_0,2023-11-17T18:36:17.884Z,,,,0,0.7871162143493278,-0.8429329800778957,,,true,lh,10295.174000095372,response,-0.8179805381029407,1.2,-1.2,0.8578467162767749,1.2,-1.2,low,high,,ISIC_3439215.JPG,,ISIC_0067253.JPG,33,true,0.42000000000000026,lh,keypress(e),100,false,188598.10000002384,188597.90000009537,178286.117,178363.60000002384,178302.726,188535.935,1,16,3,
sequence,flow.Sequence,4_2,2023-11-17T18:36:17.884Z,,,,,,,,,,,10295.174000095372,completion,,,,,,,low,high,,,,,,true,,,,,false,188598.40000009537,188597.90000009537,178286.117,178363.60000002384,178302.726,188535.935,1,16,,
trial,html.Screen,4_3_0,2023-11-17T18:36:23.479Z,,,,0,0.7833710010171356,-0.9315588090336896,,,true,lh,5656.865000071528,response,-0.7877939497981142,1.2,-1.2,0.8415032780288271,1.2,-1.2,low,high,,ISIC_3826102.JPG,,ISIC_0067308.JPG,33,true,0.42000000000000026,lh,keypress(e),100,false,194193.20000004768,194192.80000007153,188519.382,188598.5,188535.935,194119.527,1,16,4,
sequence,flow.Sequence,4_3,2023-11-17T18:36:23.479Z,,,,,,,,,,,5656.865000071528,completion,,,,,,,low,high,,,,,,true,,,,,false,194193.40000009537,194192.80000007153,188519.382,188598.40000009537,188535.935,194119.527,1,16,,
trial,html.Screen,4_4_0,2023-11-17T18:36:31.513Z,,,,0,1.2923059965680113,1.222688159093534,,,true,ll,8107.773000071524,response,-1.1864860711009846,1.2,-1.2,-0.8363634080775226,1.2,-1.2,low,low,,ISIC_0072175.JPG,,ISIC_0007257.JPG,253,true,0.42000000000000026,ll,keypress(f),100,false,202227.5,202227.30000007153,194103.049,194193.40000009537,194119.527,202169.465,1,16,5,
sequence,flow.Sequence,4_4,2023-11-17T18:36:31.513Z,,,,,,,,,,,8107.773000071524,completion,,,,,,,low,low,,,,,,true,,,,,false,202227.80000007153,202227.30000007153,194103.049,194193.40000009537,194119.527,202169.465,1,16,,
trial,html.Screen,4_5_0,2023-11-17T18:36:44.400Z,,,,0,1.1877026569952844,1.1604367569896263,,,true,ll,12943.735000047687,response,-1.086647361897092,1.2,-1.2,-1.1528935990320313,1.2,-1.2,low,low,,ISIC_0064589.JPG,,ISIC_3505339.JPG,26,true,0.15000000000000002,ll,keypress(f),100,false,215113.40000009537,215113.20000004768,202153.038,202227.90000009537,202169.465,215052.85,1,16,6,
sequence,flow.Sequence,4_5,2023-11-17T18:36:44.400Z,,,,,,,,,,,12943.735000047687,completion,,,,,,,low,low,,,,,,true,,,,,false,215113.60000002384,215113.20000004768,202153.038,202227.90000009537,202169.465,215052.85,1,16,,
trial,html.Screen,4_6_0,2023-11-17T18:36:54.133Z,,,,0,1.2750452296609045,1.1682369131232675,,,true,ll,9793.649999999994,response,-1.057008495826831,1.2,-1.2,-1.1278122585028287,1.2,-1.2,low,low,,ISIC_0066399.JPG,,ISIC_2819798.JPG,26,true,0.15000000000000002,ll,keypress(f),100,false,224846.70000004768,224846.5,215036.361,215113.60000002384,215052.85,224786.09,1,16,7,
sequence,flow.Sequence,4_6,2023-11-17T18:36:54.133Z,,,,,,,,,,,9793.649999999994,completion,,,,,,,low,low,,,,,,true,,,,,false,224846.80000007153,224846.5,215036.361,215113.60000002384,215052.85,224786.09,1,16,,
trial,html.Screen,4_7_0,2023-11-17T18:37:00.969Z,,,,0,1.2952503640839694,1.107234527385344,,,true,ll,6896.510000023845,response,-1.3189473926989124,1.2,-1.2,-1.0770264364718942,1.2,-1.2,low,low,,ISIC_0034134.JPG,,ISIC_6093728.JPG,26,true,0.15000000000000002,ll,keypress(f),100,false,231682.80000007153,231682.60000002384,224769.699,224846.80000007153,224786.09,231619.686,1,16,8,
sequence,flow.Sequence,4_7,2023-11-17T18:37:00.969Z,,,,,,,,,,,6896.510000023845,completion,,,,,,,low,low,,,,,,true,,,,,false,231682.90000009537,231682.60000002384,224769.699,224846.80000007153,224786.09,231619.686,1,16,,
trial,html.Screen,4_8_0,2023-11-17T18:37:07.451Z,,,,0,-1.0026266089287914,1.0913275913920335,,,true,hl,6544.814000000013,response,1.0264463986917702,1.2,-1.2,-1.2804054832904397,1.2,-1.2,high,low,,ISIC_0033520.JPG,,ISIC_7889838.JPG,27,true,0.42000000000000026,hl,keypress(j),100,false,238164.70000004768,238164.5,231602.572,231683,231619.686,238103.004,1,16,9,
sequence,flow.Sequence,4_8,2023-11-17T18:37:07.451Z,,,,,,,,,,,6544.814000000013,completion,,,,,,,high,low,,,,,,true,,,,,false,238164.80000007153,238164.5,231602.572,231682.90000009537,231619.686,238103.004,1,16,,
trial,html.Screen,4_9_0,2023-11-17T18:37:15.527Z,,,,0,-0.9454713230140772,0.9245167441969216,,,true,hl,8137.196000047697,response,0.7998855902596425,1.2,-1.2,-1.1518579145663017,1.2,-1.2,high,low,,ISIC_9101055.JPG,,ISIC_0025061.JPG,27,true,0.42000000000000026,hl,keypress(j),100,false,246240.40000009537,246240.20000004768,238085.905,238164.90000009537,238103.004,246169.678,1,16,10,
sequence,flow.Sequence,4_9,2023-11-17T18:37:15.527Z,,,,,,,,,,,8137.196000047697,completion,,,,,,,high,low,,,,,,true,,,,,false,246240.60000002384,246240.20000004768,238085.905,238164.90000009537,238103.004,246169.678,1,16,,
trial,html.Screen,4_10_0,2023-11-17T18:37:25.843Z,,,,0,-0.8979276789594874,0.925374811016654,,,true,hl,10386.52200004767,response,0.8200962008791046,1.2,-1.2,-0.7936051642828523,1.2,-1.2,high,low,,ISIC_4208361.JPG,,ISIC_0027031.JPG,27,true,0.42000000000000026,hl,keypress(j),100,false,256556.40000009537,256556.20000004768,246152.549,246240.60000002384,246169.678,256486.014,1,16,11,
sequence,flow.Sequence,4_10,2023-11-17T18:37:25.843Z,,,,,,,,,,,10386.52200004767,completion,,,,,,,high,low,,,,,,true,,,,,false,256556.5,256556.20000004768,246152.549,246240.60000002384,246169.678,256486.014,1,16,,
trial,html.Screen,4_11_0,2023-11-17T18:37:31.967Z,,,,0,-0.9696118525781644,0.9244148283103414,,,true,hl,6194.186000047688,response,0.8816288864119318,1.2,-1.2,-0.801867301188093,1.2,-1.2,high,low,,ISIC_7927525.JPG,,ISIC_9196783.JPG,27,true,0.42000000000000026,hl,keypress(j),100,false,262680.40000009537,262680.2000000477,256469.216,256556.70000004768,256486.014,262619.433,1,16,12,
sequence,flow.Sequence,4_11,2023-11-17T18:37:31.967Z,,,,,,,,,,,6194.186000047688,completion,,,,,,,high,low,,,,,,true,,,,,false,262680.60000002384,262680.2000000477,256469.216,256556.70000004768,256486.014,262619.433,1,16,,
trial,html.Screen,4_12_0,2023-11-17T18:37:35.300Z,,,,0,-1.09666761087476,-1.1072126870290426,,,true,hh,3393.6670000238228,response,1.3847253236539578,1.2,-1.2,1.1048559518249943,1.2,-1.2,high,high,,ISIC_0071754.JPG,,ISIC_0060817.JPG,245,true,0.3600000000000002,hh,keypress(i),100,false,266013.3000000715,266013.10000002384,262603.021,262680.60000002384,262619.433,265953.003,1,16,13,
sequence,flow.Sequence,4_12,2023-11-17T18:37:35.300Z,,,,,,,,,,,3393.6670000238228,completion,,,,,,,high,high,,,,,,true,,,,,false,266013.40000009537,266013.10000002384,262603.021,262680.60000002384,262619.433,265953.003,1,16,,
trial,html.Screen,4_13_0,2023-11-17T18:37:37.208Z,,,,0,-1.057008495826831,-1.1278122585028287,,,true,hh,1968.496999999974,response,1.29026082950341,1.2,-1.2,1.144672688339213,1.2,-1.2,high,high,,ISIC_2819798.JPG,,ISIC_0054317.JPG,53,true,0.15000000000000002,hh,keypress(i),100,false,267921.60000002384,267921.5,265936.108,266013.5,265953.003,267852.554,1,16,14,
sequence,flow.Sequence,4_13,2023-11-17T18:37:37.208Z,,,,,,,,,,,1968.496999999974,completion,,,,,,,high,high,,,,,,true,,,,,false,267921.8000000715,267921.5,265936.108,266013.5,265953.003,267852.554,1,16,,
trial,html.Screen,4_14_0,2023-11-17T18:37:40.251Z,,,,0,-1.2503149164557643,-1.0796591227570405,,,true,hh,3112.3460000953637,response,1.2974483548597415,1.2,-1.2,1.34311625795084,1.2,-1.2,high,high,,ISIC_2466892.JPG,,ISIC_0011007.JPG,53,true,0.15000000000000002,hh,keypress(i),100,false,270965,270964.90000009537,267835.871,267921.8000000715,267852.554,270902.532,1,16,15,
sequence,flow.Sequence,4_14,2023-11-17T18:37:40.252Z,,,,,,,,,,,3112.3460000953637,completion,,,,,,,high,high,,,,,,true,,,,,false,270965.2000000477,270964.90000009537,267835.871,267921.8000000715,267852.554,270902.532,1,16,,
trial,html.Screen,4_15_0,2023-11-17T18:37:43.040Z,,,,0,-1.2318069697449794,-1.1703576816778267,,,true,hh,2850.768000071519,response,1.152619213055059,1.2,-1.2,1.1117876838408909,1.2,-1.2,high,high,,ISIC_2732573.JPG,,ISIC_0061915.JPG,53,true,0.15000000000000002,hh,keypress(i),100,false,273753.5,273753.3000000715,270885.867,270965.3000000715,270902.532,273686.037,1,16,16,
sequence,flow.Sequence,4_15,2023-11-17T18:37:43.040Z,,,,,,,,,,,2850.768000071519,completion,,,,,,,high,high,,,,,,true,,,,,false,273753.5,273753.3000000715,270885.867,270965.3000000715,270902.532,273686.037,1,16,,
demonstration_loop,flow.Loop,4,2023-11-17T18:37:43.040Z,,,,,,,,,,,117667.28100007153,completion,,,,,,,,,,,,,,true,,,,,false,273753.7000000477,273753.3000000715,156069.291,156148.60000002384,156086.019,273686.037,1,16,,
practice_instructions,html.Screen,5,2023-11-17T18:39:21.865Z,,,,,,,,,,,98886.06300002383,response,,,,,,,,,,,,,,,,continue,click button,,,372578.10000002384,372572.10000002384,273669.216,273753.7000000477,273686.037,372502.496,,,,
trial,html.Screen,6_0_0,2023-11-17T18:39:33.788Z,,,,1,0.809764442462202,-1.005337148078696,,,true,lh,11993.704000047699,response,-0.9579209317488,1.2,-1.2,1.0147487101263497,1.2,-1.2,low,high,,ISIC_2379379.JPG,,ISIC_8124482.JPG,26,true,0.3600000000000002,lh,keypress(e),0,false,384501.40000009537,384496.2000000477,372469.318,372578.3000000715,372502.496,384436.022,1,40,1,
sequence,flow.Sequence,6_0,2023-11-17T18:39:33.788Z,,,,,,,,,,,11993.704000047699,completion,,,,,,,low,high,,,,,,true,,,,,false,384501.5,384496.2000000477,372469.318,372578.3000000715,372502.496,384436.022,1,40,,
trial,html.Screen,6_1_0,2023-11-17T18:39:49.797Z,,,,1,1.255256820488545,1.1206426433062562,,,,,16016.619000000006,timeout,-1.1628852193613872,1.2,-1.2,-1.5464582893942915,1.2,-1.2,low,low,,ISIC_0024652.JPG,,ISIC_0008952.JPG,253,true,0.42000000000000026,,,0,false,400509.60000002384,400509.5,384419.569,384501.5,384436.022,400452.641,1,40,2,
sequence,flow.Sequence,6_1,2023-11-17T18:39:49.797Z,,,,,,,,,,,16073.478000000003,completion,,,,,,,low,low,,,,,,true,,,,,false,400509.7000000477,400509.5,384419.569,384501.5,384436.022,400452.641,1,40,,
trial,html.Screen,6_2_0,2023-11-17T18:39:57.685Z,,,,1,-1.2012395086389958,-1.0618985767073823,,,true,hh,7945.159000071522,response,1.101214461533281,1.2,-1.2,1.1849883512428183,1.2,-1.2,high,high,,ISIC_9876004.JPG,,ISIC_0064943.JPG,30,true,0.1,hh,keypress(i),0,false,408397.90000009537,408397.8000000715,400435.966,400509.7000000477,400452.641,408319.568,1,40,3,
sequence,flow.Sequence,6_2,2023-11-17T18:39:57.685Z,,,,,,,,,,,7945.159000071522,completion,,,,,,,high,high,,,,,,true,,,,,false,408398.10000002384,408397.8000000715,400435.966,400509.7000000477,400452.641,408319.568,1,40,,
trial,html.Screen,6_3_0,2023-11-17T18:40:04.693Z,,,,1,1.101214461533281,1.1849883512428183,,,true,ll,7085.632000047655,response,-1.0789197754694622,1.2,-1.2,-1.1654690806750023,1.2,-1.2,low,low,,ISIC_0064943.JPG,,ISIC_1576437.JPG,26,true,0.15000000000000002,ll,keypress(f),0,false,415405.3000000715,415405.2000000477,408302.656,408398.10000002384,408319.568,415319.092,1,40,4,
sequence,flow.Sequence,6_3,2023-11-17T18:40:04.693Z,,,,,,,,,,,7085.632000047655,completion,,,,,,,low,low,,,,,,true,,,,,false,415405.40000009537,415405.2000000477,408302.656,408398.10000002384,408319.568,415319.092,1,40,,
trial,html.Screen,6_4_0,2023-11-17T18:40:15.797Z,,,,1,1.2750452296609045,1.1682369131232675,,,true,ll,11190.508000023838,response,-1.1653123206802332,1.2,-1.2,-1.2976858999596654,1.2,-1.2,low,low,,ISIC_0066399.JPG,,ISIC_0071508.JPG,26,true,0.15000000000000002,ll,keypress(f),0,false,426509.7000000477,426509.60000002384,415302.2,415405.40000009537,415319.092,426435.755,1,40,5,
sequence,flow.Sequence,6_4,2023-11-17T18:40:15.797Z,,,,,,,,,,,11190.508000023838,completion,,,,,,,low,low,,,,,,true,,,,,false,426509.8000000715,426509.60000002384,415302.2,415405.40000009537,415319.092,426435.755,1,40,,
trial,html.Screen,6_5_0,2023-11-17T18:40:27.141Z,,,,1,0.7911024675435955,-0.7975977016137676,,,true,lh,11417.945000047679,response,-0.9454713230140772,1.2,-1.2,0.9245167441969216,1.2,-1.2,low,high,,ISIC_5813642.JPG,,ISIC_9101055.JPG,26,true,0.3600000000000002,lh,keypress(e),0,false,437853.90000009537,437853.7000000477,426419.139,426509.8000000715,426435.755,437769.089,1,40,6,
sequence,flow.Sequence,6_5,2023-11-17T18:40:27.142Z,,,,,,,,,,,11417.945000047679,completion,,,,,,,low,high,,,,,,true,,,,,false,437854,437853.7000000477,426419.139,426509.8000000715,426435.755,437769.089,1,40,,
trial,html.Screen,6_6_0,2023-11-17T18:40:40.597Z,,,,1,-0.858338058340649,0.9540612223480284,,,true,hl,13540.411000000022,response,0.8816288864119318,1.2,-1.2,-0.801867301188093,1.2,-1.2,high,low,,ISIC_8922893.JPG,,ISIC_9196783.JPG,27,true,0.42000000000000026,hl,keypress(j),0,false,451309.60000002384,451309.5,437752.484,437854,437769.089,451235.918,1,40,7,
sequence,flow.Sequence,6_6,2023-11-17T18:40:40.597Z,,,,,,,,,,,13540.411000000022,completion,,,,,,,high,low,,,,,,true,,,,,false,451309.7000000477,451309.5,437752.484,437854,437769.089,451235.918,1,40,,
trial,html.Screen,6_7_0,2023-11-17T18:40:48.678Z,,,,1,1.1346217981791904,1.1555132168806113,,,true,ll,8153.982000095362,response,-0.9069195139552818,1.2,-1.2,-1.17726864031644,1.2,-1.2,low,low,,ISIC_0032771.JPG,,ISIC_9728003.JPG,179,true,0.3600000000000002,ll,keypress(f),0,false,459390,459389.90000009537,451218.895,451309.7000000477,451235.918,459302.4,1,40,8,
sequence,flow.Sequence,6_7,2023-11-17T18:40:48.678Z,,,,,,,,,,,8153.982000095362,completion,,,,,,,low,low,,,,,,true,,,,,false,459390,459389.90000009537,451218.895,451309.7000000477,451235.918,459302.4,1,40,,
trial,html.Screen,6_8_0,2023-11-17T18:40:54.534Z,,,,1,-1.2364994561934892,0.9174173651516624,,,true,hl,5943.500000095344,response,0.7809949855371787,1.2,-1.2,-0.8493861117004308,1.2,-1.2,high,low,,ISIC_3481133.JPG,,ISIC_7450481.JPG,27,true,0.42000000000000026,hl,keypress(j),0,false,465246,465245.90000009537,459285.885,459390.10000002384,459302.4,465169.085,1,40,9,
sequence,flow.Sequence,6_8,2023-11-17T18:40:54.534Z,,,,,,,,,,,5943.500000095344,completion,,,,,,,high,low,,,,,,true,,,,,false,465246.10000002384,465245.90000009537,459285.885,459390.10000002384,459302.4,465169.085,1,40,,
trial,html.Screen,6_9_0,2023-11-17T18:40:59.174Z,,,,1,0.796241477082623,-0.9017449335975743,,,true,lh,4716.615000047663,response,-0.8809306963311293,1.2,-1.2,0.8614910030038974,1.2,-1.2,low,high,,ISIC_8588033.JPG,,ISIC_0013731.JPG,26,true,0.3600000000000002,lh,keypress(e),0,false,469885.7000000477,469885.7000000477,465152.684,465246.2000000477,465169.085,469802.394,1,40,10,
sequence,flow.Sequence,6_9,2023-11-17T18:40:59.174Z,,,,,,,,,,,4716.615000047663,completion,,,,,,,low,high,,,,,,true,,,,,false,469885.90000009537,469885.7000000477,465152.684,465246.2000000477,465169.085,469802.394,1,40,,
trial,html.Screen,6_10_0,2023-11-17T18:41:08.998Z,,,,1,1.0164576835546473,-0.8120626538423016,,,true,lh,9907.406000071554,response,-1.2075172235545184,1.2,-1.2,0.9116724966267612,1.2,-1.2,low,high,,ISIC_6002694.JPG,,ISIC_0024235.JPG,33,true,0.42000000000000026,lh,keypress(e),0,false,479709.90000009537,479709.8000000715,469785.657,469885.90000009537,469802.394,479635.898,1,40,11,
sequence,flow.Sequence,6_10,2023-11-17T18:41:08.998Z,,,,,,,,,,,9907.406000071554,completion,,,,,,,low,high,,,,,,true,,,,,false,479710,479709.8000000715,469785.657,469885.90000009537,469802.394,479635.898,1,40,,
trial,html.Screen,6_11_0,2023-11-17T18:41:11.925Z,,,,1,1.272699544571422,1.12917997553565,,,true,ll,3001.1020000000135,response,-1.3484513254017945,1.2,-1.2,-0.9900809605367444,1.2,-1.2,low,low,,ISIC_0012057.JPG,,ISIC_0033081.JPG,253,true,0.42000000000000026,ll,keypress(f),0,false,482637,482637,479618.715,479710.10000002384,479635.898,482552.382,1,40,12,
sequence,flow.Sequence,6_11,2023-11-17T18:41:11.925Z,,,,,,,,,,,3001.1020000000135,completion,,,,,,,low,low,,,,,,true,,,,,false,482637.10000002384,482637,479618.715,479710,479635.898,482552.382,1,40,,
trial,html.Screen,6_12_0,2023-11-17T18:41:14.565Z,,,,1,1.101214461533281,1.1849883512428183,,,true,ll,2725.018000095384,response,-1.241406480986552,1.2,-1.2,-1.081912821786771,1.2,-1.2,low,low,,ISIC_0064943.JPG,,ISIC_4223155.JPG,26,true,0.15000000000000002,ll,keypress(f),0,false,485277.5,485277.40000009537,482536.12,482637.2000000477,482552.382,485202.413,1,40,13,
sequence,flow.Sequence,6_12,2023-11-17T18:41:14.565Z,,,,,,,,,,,2725.018000095384,completion,,,,,,,low,low,,,,,,true,,,,,false,485277.60000002384,485277.40000009537,482536.12,482637.2000000477,482552.382,485202.413,1,40,,
trial,html.Screen,6_13_0,2023-11-17T18:41:16.758Z,,,,1,-0.8579451262594331,0.9633172970727744,,,true,hl,2267.2870000476833,response,1.0115965332688306,1.2,-1.2,-0.8282633603842442,1.2,-1.2,high,low,,ISIC_0067172.JPG,,ISIC_1069587.JPG,27,true,0.42000000000000026,hl,keypress(j),0,false,487469.8000000715,487469.7000000477,485186.134,485277.7000000477,485202.413,487385.742,1,40,14,
sequence,flow.Sequence,6_13,2023-11-17T18:41:16.758Z,,,,,,,,,,,2267.2870000476833,completion,,,,,,,high,low,,,,,,true,,,,,false,487470,487469.7000000477,485186.134,485277.7000000477,485202.413,487385.742,1,40,,
trial,html.Screen,6_14_0,2023-11-17T18:41:21.670Z,,,,1,-1.331700944308701,0.9395196143259436,,,true,hl,4995.958000047656,response,0.8816288864119318,1.2,-1.2,-0.801867301188093,1.2,-1.2,high,low,,ISIC_1668831.JPG,,ISIC_9196783.JPG,27,true,0.42000000000000026,hl,keypress(j),0,false,492381.8000000715,492381.7000000477,487369.156,487470,487385.742,492302.381,1,40,15,
sequence,flow.Sequence,6_14,2023-11-17T18:41:21.670Z,,,,,,,,,,,4995.958000047656,completion,,,,,,,high,low,,,,,,true,,,,,false,492382,492381.7000000477,487369.156,487470,487385.742,492302.381,1,40,,
trial,html.Screen,6_15_0,2023-11-17T18:41:30.630Z,,,,1,-0.8534691366511764,1.03975580494588,,,true,hl,9039.419000071532,response,0.7833710010171356,1.2,-1.2,-0.9315588090336896,1.2,-1.2,high,low,,ISIC_0056788.JPG,,ISIC_3826102.JPG,27,true,0.42000000000000026,hl,keypress(j),0,false,501341.8000000715,501341.8000000715,492285.601,492382,492302.381,501269.209,1,40,16,
sequence,flow.Sequence,6_15,2023-11-17T18:41:30.630Z,,,,,,,,,,,9039.419000071532,completion,,,,,,,high,low,,,,,,true,,,,,false,501342,501341.8000000715,492285.601,492382,492302.381,501269.209,1,40,,
trial,html.Screen,6_16_0,2023-11-17T18:41:42.406Z,,,,1,1.0115965332688306,-0.8282633603842442,,,true,lh,11848.391000023868,response,-0.9696118525781644,1.2,-1.2,0.9244148283103414,1.2,-1.2,low,high,,ISIC_1069587.JPG,,ISIC_7927525.JPG,26,true,0.3600000000000002,lh,keypress(e),0,false,513117.7000000477,513117.60000002384,501252.13,501342,501269.209,513035.886,1,40,17,
sequence,flow.Sequence,6_16,2023-11-17T18:41:42.406Z,,,,,,,,,,,11848.391000023868,completion,,,,,,,low,high,,,,,,true,,,,,false,513117.8000000715,513117.60000002384,501252.13,501342,501269.209,513035.886,1,40,,
trial,html.Screen,6_17_0,2023-11-17T18:41:47.830Z,,,,1,1.101346104814838,1.1225813067473052,,,true,ll,5505.714000023843,response,-0.8278249532658066,1.2,-1.2,-1.2608096600867198,1.2,-1.2,low,low,,ISIC_8175453.JPG,,ISIC_4114269.JPG,253,true,0.42000000000000026,ll,keypress(f),0,false,518541.7000000477,518541.60000002384,513018.75,513117.8000000715,513035.886,518469.506,1,40,18,
sequence,flow.Sequence,6_17,2023-11-17T18:41:47.830Z,,,,,,,,,,,5505.714000023843,completion,,,,,,,low,low,,,,,,true,,,,,false,518541.8000000715,518541.60000002384,513018.75,513117.8000000715,513035.886,518469.506,1,40,,
trial,html.Screen,6_18_0,2023-11-17T18:41:53.125Z,,,,1,-1.1388430156686884,-1.2700552354887775,,,true,hh,5367.594000023848,response,1.126264390089724,1.2,-1.2,1.271896565050952,1.2,-1.2,high,high,,ISIC_9939653.JPG,,ISIC_1520897.JPG,30,true,0.1,hh,keypress(i),0,false,523837.3000000715,523837.10000002384,518452.184,518541.8000000715,518469.506,523752.36,1,40,19,
sequence,flow.Sequence,6_18,2023-11-17T18:41:53.125Z,,,,,,,,,,,5367.594000023848,completion,,,,,,,high,high,,,,,,true,,,,,false,523837.40000009537,523837.10000002384,518452.184,518541.8000000715,518469.506,523752.36,1,40,,
trial,html.Screen,6_19_0,2023-11-17T18:42:01.733Z,,,,1,-1.2075172235545184,0.9116724966267612,,,true,hl,8692.540000095381,response,0.8200962008791046,1.2,-1.2,-0.7936051642828523,1.2,-1.2,high,low,,ISIC_0024235.JPG,,ISIC_0027031.JPG,27,true,0.42000000000000026,hl,keypress(j),0,false,532445,532444.9000000954,523735.779,523837.40000009537,523752.36,532369.143,1,40,20,
sequence,flow.Sequence,6_19,2023-11-17T18:42:01.733Z,,,,,,,,,,,8692.540000095381,completion,,,,,,,high,low,,,,,,true,,,,,false,532445.1000000238,532444.9000000954,523735.779,523837.40000009537,523752.36,532369.143,1,40,,
trial,html.Screen,6_20_0,2023-11-17T18:42:06.262Z,,,,1,-1.057008495826831,-1.1278122585028287,,,true,hh,4604.257000095327,response,1.2493792664822851,1.2,-1.2,1.1336008561684745,1.2,-1.2,high,high,,ISIC_2819798.JPG,,ISIC_0061475.JPG,245,true,0.3600000000000002,hh,keypress(i),0,false,536973.6000000238,536973.4000000954,532352.069,532445.2000000477,532369.143,536885.69,1,40,21,
sequence,flow.Sequence,6_20,2023-11-17T18:42:06.262Z,,,,,,,,,,,4604.257000095327,completion,,,,,,,high,high,,,,,,true,,,,,false,536973.6000000238,536973.4000000954,532352.069,532445.1000000238,532369.143,536885.69,1,40,,
trial,html.Screen,6_21_0,2023-11-17T18:42:12.230Z,,,,1,-1.3189473926989124,-1.0770264364718942,,,true,hh,6055.610000071581,response,1.343727382922318,1.2,-1.2,1.2738570369689235,1.2,-1.2,high,high,,ISIC_6093728.JPG,,ISIC_0001157.JPG,53,true,0.15000000000000002,hh,keypress(i),0,false,542941.5,542941.3000000715,536869.367,536973.6000000238,536885.69,542869.428,1,40,22,
sequence,flow.Sequence,6_21,2023-11-17T18:42:12.230Z,,,,,,,,,,,6055.610000071581,completion,,,,,,,high,high,,,,,,true,,,,,false,542941.6000000238,542941.3000000715,536869.367,536973.6000000238,536885.69,542869.428,1,40,,
trial,html.Screen,6_22_0,2023-11-17T18:42:16.230Z,,,,1,-1.2711018615747949,-1.1042234044781618,,,true,hh,4071.972000095411,response,1.082730232773217,1.2,-1.2,1.2594580992890123,1.2,-1.2,high,high,,ISIC_8603734.JPG,,ISIC_0011933.JPG,53,true,0.15000000000000002,hh,keypress(i),0,false,546941.6000000238,546941.4000000954,542835.924,542941.6000000238,542869.428,546869.124,1,40,23,
sequence,flow.Sequence,6_22,2023-11-17T18:42:16.230Z,,,,,,,,,,,4071.972000095411,completion,,,,,,,high,high,,,,,,true,,,,,false,546941.7000000477,546941.4000000954,542835.924,542941.6000000238,542869.428,546869.124,1,40,,
trial,html.Screen,6_23_0,2023-11-17T18:42:21.909Z,,,,1,-1.2364994561934892,0.9174173651516624,,,false,hl,5751.976000023889,response,0.991146183030456,1.2,-1.2,-0.9949639823722534,1.2,-1.2,high,low,,ISIC_3481133.JPG,,ISIC_6342224.JPG,27,true,0.42000000000000026,hh,keypress(i),0,false,552621.2000000477,552621.1000000238,546836.043,546941.7000000477,546869.124,552535.666,1,40,24,
sequence,flow.Sequence,6_23,2023-11-17T18:42:21.909Z,,,,,,,,,,,5751.976000023889,completion,,,,,,,high,low,,,,,,true,,,,,false,552621.2000000477,552621.1000000238,546836.043,546941.7000000477,546869.124,552535.666,1,40,,
trial,html.Screen,6_24_0,2023-11-17T18:42:30.550Z,,,,1,-0.8809306963311293,0.8614910030038974,,,true,hl,8725.7340000954,response,0.7870237732709365,1.2,-1.2,-0.9172955251119376,1.2,-1.2,high,low,,ISIC_0013731.JPG,,ISIC_0057716.JPG,27,true,0.42000000000000026,hl,keypress(j),0,false,561261.5,561261.4000000954,552519.022,552621.3000000715,552535.666,561185.687,1,40,25,
sequence,flow.Sequence,6_24,2023-11-17T18:42:30.550Z,,,,,,,,,,,8725.7340000954,completion,,,,,,,high,low,,,,,,true,,,,,false,561261.6000000238,561261.4000000954,552519.022,552621.3000000715,552535.666,561185.687,1,40,,
trial,html.Screen,6_25_0,2023-11-17T18:42:41.126Z,,,,1,-1.2503149164557643,-1.0796591227570405,,,true,hh,10651.913000023807,response,1.1783311757907324,1.2,-1.2,1.0915173513546716,1.2,-1.2,high,high,,ISIC_2466892.JPG,,ISIC_8241457.JPG,245,true,0.3600000000000002,hh,keypress(i),0,false,571837.6000000238,571837.6000000238,561169.183,561261.6000000238,561185.687,571752.295,1,40,26,
sequence,flow.Sequence,6_25,2023-11-17T18:42:41.126Z,,,,,,,,,,,10651.913000023807,completion,,,,,,,high,high,,,,,,true,,,,,false,571837.7000000477,571837.6000000238,561169.183,561261.6000000238,561185.687,571752.295,1,40,,
trial,html.Screen,6_26_0,2023-11-17T18:42:46.774Z,,,,1,1.1033977063872138,1.2513071571733083,,,true,ll,5733.3050000238,response,-1.201100953917304,1.2,-1.2,-1.1751492358160105,1.2,-1.2,low,low,,ISIC_0025472.JPG,,ISIC_0647224.JPG,26,true,0.15000000000000002,ll,keypress(f),0,false,577485.7000000477,577485.6000000238,571735.618,571837.8000000715,571752.295,577402.398,1,40,27,
sequence,flow.Sequence,6_26,2023-11-17T18:42:46.774Z,,,,,,,,,,,5733.3050000238,completion,,,,,,,low,low,,,,,,true,,,,,false,577485.8000000715,577485.6000000238,571735.618,571837.8000000715,571752.295,577402.398,1,40,,
trial,html.Screen,6_27_0,2023-11-17T18:42:51.654Z,,,,1,-1.09666761087476,-1.1072126870290426,,,true,hh,4963.002000095323,response,1.2923059965680113,1.2,-1.2,1.222688159093534,1.2,-1.2,high,high,,ISIC_0071754.JPG,,ISIC_0072175.JPG,30,true,0.1,hh,keypress(i),0,false,582365.4000000954,582365.4000000954,577385.63,577485.9000000954,577402.398,582285.656,1,40,28,
sequence,flow.Sequence,6_27,2023-11-17T18:42:51.654Z,,,,,,,,,,,4963.002000095323,completion,,,,,,,high,high,,,,,,true,,,,,false,582365.6000000238,582365.4000000954,577385.63,577485.9000000954,577402.398,582285.656,1,40,,
trial,html.Screen,6_28_0,2023-11-17T18:42:54.854Z,,,,1,0.948927472020595,-1.0660437155921598,,,false,lh,3279.7440000954084,response,-0.9696118525781644,1.2,-1.2,0.9244148283103414,1.2,-1.2,low,high,,ISIC_5808758.JPG,,ISIC_7927525.JPG,26,true,0.3600000000000002,ll,keypress(f),0,false,585565.5,585565.4000000954,582269.041,582365.6000000238,582285.656,585485.696,1,40,29,
sequence,flow.Sequence,6_28,2023-11-17T18:42:54.854Z,,,,,,,,,,,3279.7440000954084,completion,,,,,,,low,high,,,,,,true,,,,,false,585565.6000000238,585565.4000000954,582269.041,582365.6000000238,582285.656,585485.696,1,40,,
trial,html.Screen,6_29_0,2023-11-17T18:43:02.134Z,,,,1,0.7870237732709365,-0.9172955251119376,,,true,lh,7360.004000047687,response,-0.7836356408583546,1.2,-1.2,1.1197925594706428,1.2,-1.2,low,high,,ISIC_0057716.JPG,,ISIC_0024961.JPG,33,true,0.42000000000000026,lh,keypress(e),0,false,592845.7000000477,592845.7000000477,585468.954,585565.6000000238,585485.696,592769.037,1,40,30,
sequence,flow.Sequence,6_29,2023-11-17T18:43:02.134Z,,,,,,,,,,,7360.004000047687,completion,,,,,,,low,high,,,,,,true,,,,,false,592845.8000000715,592845.7000000477,585468.954,585565.6000000238,585485.696,592769.037,1,40,,
trial,html.Screen,6_30_0,2023-11-17T18:43:13.925Z,,,,1,0.8035152873995188,-0.82868450251632,,,true,lh,11867.962999999989,response,-1.020990671779317,1.2,-1.2,1.0116513850520903,1.2,-1.2,low,high,,ISIC_0010671.JPG,,ISIC_0011995.JPG,33,true,0.42000000000000026,lh,keypress(e),0,false,604637.1000000238,604637,592752.507,592845.8000000715,592769.037,604552.288,1,40,31,
sequence,flow.Sequence,6_30,2023-11-17T18:43:13.926Z,,,,,,,,,,,11867.962999999989,completion,,,,,,,low,high,,,,,,true,,,,,false,604637.1000000238,604637,592752.507,592845.8000000715,592769.037,604552.288,1,40,,
trial,html.Screen,6_31_0,2023-11-17T18:43:17.493Z,,,,1,1.272699544571422,1.12917997553565,,,true,ll,3652.612000095425,response,-0.9840050049609405,1.2,-1.2,-1.160746324899676,1.2,-1.2,low,low,,ISIC_0012057.JPG,,ISIC_8651053.JPG,253,true,0.42000000000000026,ll,keypress(f),0,false,608205.1000000238,608204.9000000954,604535.72,604637.2000000477,604552.288,608118.974,1,40,32,
sequence,flow.Sequence,6_31,2023-11-17T18:43:17.493Z,,,,,,,,,,,3652.612000095425,completion,,,,,,,low,low,,,,,,true,,,,,false,608205.1000000238,608204.9000000954,604535.72,604637.1000000238,604552.288,608118.974,1,40,,
trial,html.Screen,6_32_0,2023-11-17T18:43:18.662Z,,,,1,-1.09666761087476,-1.1072126870290426,,,true,hh,1254.5259999999544,response,1.2923059965680113,1.2,-1.2,1.222688159093534,1.2,-1.2,high,high,,ISIC_0071754.JPG,,ISIC_0072175.JPG,30,true,0.1,hh,keypress(i),0,false,609373.6000000238,609373.5,608102.318,608205.2000000477,608118.974,609302.84,1,40,33,
sequence,flow.Sequence,6_32,2023-11-17T18:43:18.662Z,,,,,,,,,,,1254.5259999999544,completion,,,,,,,high,high,,,,,,true,,,,,false,609373.7000000477,609373.5,608102.318,608205.2000000477,608118.974,609302.84,1,40,,
trial,html.Screen,6_33_0,2023-11-17T18:43:20.790Z,,,,1,0.8623414234919863,-0.782830143980698,,,true,lh,2198.5600000954,response,-1.331700944308701,1.2,-1.2,0.9395196143259436,1.2,-1.2,low,high,,ISIC_2727016.JPG,,ISIC_1668831.JPG,26,true,0.3600000000000002,lh,keypress(e),0,false,611501.5,611501.4000000954,609269.453,609373.7000000477,609302.84,611418.977,1,40,34,
sequence,flow.Sequence,6_33,2023-11-17T18:43:20.790Z,,,,,,,,,,,2198.5600000954,completion,,,,,,,low,high,,,,,,true,,,,,false,611501.6000000238,611501.4000000954,609269.453,609373.7000000477,609302.84,611418.977,1,40,,
trial,html.Screen,6_34_0,2023-11-17T18:43:23.222Z,,,,1,-1.0143509683988825,1.3163955902021656,,,true,hl,2514.5230000000447,response,1.0022829373011404,1.2,-1.2,-0.8311726972863814,1.2,-1.2,high,low,,ISIC_0062031.JPG,,ISIC_0033287.JPG,27,true,0.42000000000000026,hl,keypress(j),0,false,613933.6000000238,613933.5,611402.329,611501.6000000238,611418.977,613852.304,1,40,35,
sequence,flow.Sequence,6_34,2023-11-17T18:43:23.222Z,,,,,,,,,,,2514.5230000000447,completion,,,,,,,high,low,,,,,,true,,,,,false,613933.7000000477,613933.5,611402.329,611501.6000000238,611418.977,613852.304,1,40,,
trial,html.Screen,6_35_0,2023-11-17T18:43:31.925Z,,,,1,-1.1598623261077452,-1.203269031614007,,,true,hh,8784.296000023838,response,1.242586748440878,1.2,-1.2,1.1207933200172129,1.2,-1.2,high,high,,ISIC_0002639.JPG,,ISIC_0013073.JPG,245,true,0.3600000000000002,hh,keypress(i),0,false,622636.7000000477,622636.6000000238,613836.056,613933.7000000477,613852.304,622552.293,1,40,36,
sequence,flow.Sequence,6_35,2023-11-17T18:43:31.925Z,,,,,,,,,,,8784.296000023838,completion,,,,,,,high,high,,,,,,true,,,,,false,622636.8000000715,622636.6000000238,613836.056,613933.7000000477,613852.304,622552.293,1,40,,
trial,html.Screen,6_36_0,2023-11-17T18:43:36.439Z,,,,1,-0.8487429103619056,0.9778257804233036,,,true,hl,4598.007000071579,response,0.8092423703106274,1.2,-1.2,-1.1870093485714288,1.2,-1.2,high,low,,ISIC_4554863.JPG,,ISIC_8592235.JPG,27,true,0.42000000000000026,hl,keypress(j),0,false,627150.4000000954,627150.3000000715,622535.405,622636.8000000715,622552.293,627068.962,1,40,37,
sequence,flow.Sequence,6_36,2023-11-17T18:43:36.439Z,,,,,,,,,,,4598.007000071579,completion,,,,,,,high,low,,,,,,true,,,,,false,627150.6000000238,627150.3000000715,622535.405,622636.8000000715,622552.293,627068.962,1,40,,
trial,html.Screen,6_37_0,2023-11-17T18:43:37.830Z,,,,1,0.796241477082623,-0.9017449335975743,,,true,lh,1472.5379999999423,response,-1.020990671779317,1.2,-1.2,1.0116513850520903,1.2,-1.2,low,high,,ISIC_8588033.JPG,,ISIC_0011995.JPG,26,true,0.3600000000000002,lh,keypress(e),0,false,628541.5,628541.5,627052.646,627150.6000000238,627068.962,628469.016,1,40,38,
sequence,flow.Sequence,6_37,2023-11-17T18:43:37.830Z,,,,,,,,,,,1472.5379999999423,completion,,,,,,,low,high,,,,,,true,,,,,false,628541.7000000477,628541.5,627052.646,627150.6000000238,627068.962,628469.016,1,40,,
trial,html.Screen,6_38_0,2023-11-17T18:43:39.189Z,,,,1,1.2322060291690602,1.2686491386389651,,,true,ll,1431.6840000477387,response,-0.8728834820669534,1.2,-1.2,-0.9788202580034188,1.2,-1.2,low,low,,ISIC_0011697.JPG,,ISIC_7519627.JPG,253,true,0.42000000000000026,ll,keypress(f),0,false,629900.7000000477,629900.7000000477,628436.063,628541.7000000477,628469.016,629818.981,1,40,39,
sequence,flow.Sequence,6_38,2023-11-17T18:43:39.189Z,,,,,,,,,,,1431.6840000477387,completion,,,,,,,low,low,,,,,,true,,,,,false,629900.9000000954,629900.7000000477,628436.063,628541.7000000477,628469.016,629818.981,1,40,,
trial,html.Screen,6_39_0,2023-11-17T18:43:40.710Z,,,,1,-1.2711018615747949,-1.1042234044781618,,,true,hh,1602.2190000476548,response,1.126264390089724,1.2,-1.2,1.271896565050952,1.2,-1.2,high,high,,ISIC_8603734.JPG,,ISIC_1520897.JPG,30,true,0.1,hh,keypress(i),0,false,631421.3000000715,631421.2000000477,629802.756,629901,629818.981,631335.659,1,40,40,
sequence,flow.Sequence,6_39,2023-11-17T18:43:40.710Z,,,,,,,,,,,1602.2190000476548,completion,,,,,,,high,high,,,,,,true,,,,,false,631421.3000000715,631421.2000000477,629802.756,629900.9000000954,629818.981,631335.659,1,40,,
practice_loop,flow.Loop,6,2023-11-17T18:43:40.710Z,,,,,,,,,,,258918.7040000477,completion,,,,,,,,,,,,,,true,,,,,false,631421.4000000954,631421.2000000477,372469.318,372578.3000000715,372502.496,631335.659,1,40,,
stair_instructions,html.Screen,7,2023-11-17T18:43:58.084Z,,,,,,,,,,,17459.741000095382,response,,,,,,,,,,,,,,,,continue,click button,,,648796.1000000238,648795.4000000954,631319.433,631421.5,631335.659,648718.931,,,,
trial,html.Screen,8_0_0,2023-11-17T18:44:11.736Z,,,,2,-0.0112310719058792,0.0469047359904117,,0.05,false,ll,13729.069000000018,response,-1.0870240111136478,1.2,-1.2,-1.332340670965917,1.2,-1.2,low,low,,ISIC_0068184.JPG,,ISIC_0000660.JPG,26,false,0.15000000000000002,lh,keypress(e),0,true,662448,662448,648702.715,648796.3000000715,648718.931,662385.652,1,40,1,
sequence,flow.Sequence,8_0,2023-11-17T18:44:11.736Z,,,,,,,,,,,13729.069000000018,completion,,,,,,,low,low,,,,,,false,,,,,true,662448.1000000238,662448,648702.715,648796.3000000715,648718.931,662385.652,1,40,,
trial,html.Screen,8_1_0,2023-11-17T18:44:19.797Z,,,,2,0.0057914759495055,0.0074667911845194,,0.05,false,ll,8123.847999999998,response,-1.1642596483638106,1.15,-1.15,-1.109799097093339,1.15,-1.2,low,low,,ISIC_0058723.JPG,,ISIC_0765584.JPG,27,false,0.14,hh,keypress(i),0,true,670509.5,670509.5,662368.979,662448.2000000477,662385.652,670435.804,1,40,2,
sequence,flow.Sequence,8_1,2023-11-17T18:44:19.797Z,,,,,,,,,,,8123.847999999998,completion,,,,,,,low,low,,,,,,false,,,,,true,670509.6000000238,670509.5,662368.979,662448.2000000477,662385.652,670435.804,1,40,,
trial,html.Screen,8_2_0,2023-11-17T18:44:23.430Z,,,,2,0.0329095507339554,-0.0382899749693245,,0.05,true,hl,3705.89600004768,response,0.9388660854518424,1.15,-1.15,-0.79533948698576,1.15,-1.2,high,low,,ISIC_8812781.JPG,,ISIC_9291926.JPG,28,false,0.41000000000000025,hl,keypress(j),0,true,674141.7000000477,674141.7000000477,670419.07,670509.6000000238,670435.804,674069.408,1,40,3,
sequence,flow.Sequence,8_2,2023-11-17T18:44:23.430Z,,,,,,,,,,,3705.89600004768,completion,,,,,,,high,low,,,,,,false,,,,,true,674141.8000000715,674141.7000000477,670419.07,670509.6000000238,670435.804,674069.408,1,40,,
trial,html.Screen,8_3_0,2023-11-17T18:44:32.407Z,,,,2,-0.0159061451859594,-0.0296598845560212,,0.05,true,ll,9049.692000023788,response,-1.0316392011945703,1.15,-1.15,-1.1580619988377847,1.15,-1.15,low,low,,ISIC_0072564.JPG,,ISIC_0054206.JPG,30,false,0.13,ll,keypress(f),0,true,683119.3000000715,683119.1000000238,674052.623,674141.9000000954,674069.408,683035.567,1,40,4,
sequence,flow.Sequence,8_3,2023-11-17T18:44:32.407Z,,,,,,,,,,,9049.692000023788,completion,,,,,,,low,low,,,,,,false,,,,,true,683119.4000000954,683119.1000000238,674052.623,674141.9000000954,674069.408,683035.567,1,40,,
trial,html.Screen,8_4_0,2023-11-17T18:44:38.853Z,,,,2,-0.0159061451859594,-0.0296598845560212,,0.05,true,hh,6529.932999999961,response,1.0700930503975157,1.15,-1.15,1.2020012168275056,1.15,-1.0448506000161775,high,high,,ISIC_0072564.JPG,,ISIC_0000022.JPG,27,false,0.1,hh,keypress(i),0,true,689565.6000000238,689565.5,683018.654,683119.4000000954,683035.567,689485.674,1,40,5,
sequence,flow.Sequence,8_4,2023-11-17T18:44:38.854Z,,,,,,,,,,,6529.932999999961,completion,,,,,,,high,high,,,,,,false,,,,,true,689565.8000000715,689565.5,683018.654,683119.4000000954,683035.567,689485.674,1,40,,
trial,html.Screen,8_5_0,2023-11-17T18:44:45.685Z,,,,2,-0.0277178575053843,0.0395587463147856,,0.05,false,hl,6911.826000000001,response,0.7998855902596425,1.0860471336125106,-1.15,-1.1518579145663017,1.15,-1.0448506000161775,high,low,,ISIC_0010807.JPG,,ISIC_0025061.JPG,26,false,0.30000000000000016,ll,keypress(f),0,true,696397.5,696397.5,689469.202,689565.8000000715,689485.674,696318.902,1,40,6,
sequence,flow.Sequence,8_5,2023-11-17T18:44:45.685Z,,,,,,,,,,,6911.826000000001,completion,,,,,,,high,low,,,,,,false,,,,,true,696397.7000000477,696397.5,689469.202,689565.8000000715,689485.674,696318.902,1,40,,
trial,html.Screen,8_6_0,2023-11-17T18:44:52.678Z,,,,2,0.0329095507339554,-0.0382899749693245,,0.05,false,lh,7071.097999999998,response,-1.1181734135756094,1.1360471336125106,-1.15,0.944560381774994,1.15,-1.0448506000161775,low,high,,ISIC_8812781.JPG,,ISIC_9688534.JPG,25,false,0.31000000000000016,hl,keypress(j),0,true,703390.1000000238,703390,696302.082,696397.7000000477,696318.902,703302.248,1,40,7,
sequence,flow.Sequence,8_6,2023-11-17T18:44:52.678Z,,,,,,,,,,,7071.097999999998,completion,,,,,,,low,high,,,,,,false,,,,,true,703390.2000000477,703390,696302.082,696397.7000000477,696318.902,703302.248,1,40,,
trial,html.Screen,8_7_0,2023-11-17T18:44:57.926Z,,,,2,0.039728379742806,-0.0228701131373768,,0.05,false,lh,5334.652000095346,response,-1.2075172235545184,1.1360471336125106,-1.15,0.9116724966267612,1.15,-1.0448506000161775,low,high,,ISIC_0054073.JPG,,ISIC_0024235.JPG,25,false,0.31000000000000016,ll,keypress(f),0,true,708637,708636.9000000954,703285.452,703390.3000000715,703302.248,708552.248,1,40,8,
sequence,flow.Sequence,8_7,2023-11-17T18:44:57.926Z,,,,,,,,,,,5334.652000095346,completion,,,,,,,low,high,,,,,,false,,,,,true,708637.1000000238,708636.9000000954,703285.452,703390.3000000715,703302.248,708552.248,1,40,,
trial,html.Screen,8_8_0,2023-11-17T18:45:05.526Z,,,,2,0.0456515796420274,-0.0273567130070961,,0.05,false,hl,7684.751999999979,response,1.0022829373011404,1.1360471336125106,-1.15,-0.8311726972863814,1.15,-1.0448506000161775,high,low,,ISIC_0068610.JPG,,ISIC_0033287.JPG,28,false,0.3400000000000002,hh,keypress(i),0,true,716237.2000000477,716237,708535.455,708637.2000000477,708552.248,716152.289,1,40,9,
sequence,flow.Sequence,8_8,2023-11-17T18:45:05.526Z,,,,,,,,,,,7684.751999999979,completion,,,,,,,high,low,,,,,,false,,,,,true,716237.5,716237,708535.455,708637.2000000477,708552.248,716152.289,1,40,,
trial,html.Screen,8_9_0,2023-11-17T18:45:18.663Z,,,,2,0.0070725527271049,0.0049995141077508,,0.05,true,ll,13221.611000095378,response,-1.200284020742371,1.1360471336125106,-1.15,-1.0002918079433898,1.15,-1.0948506000161775,low,low,,ISIC_6124481.JPG,,ISIC_0678758.JPG,26,false,0.1,ll,keypress(f),0,true,729373.9000000954,729373.9000000954,716135.352,716237.5,716152.289,729302.671,1,40,10,
sequence,flow.Sequence,8_9,2023-11-17T18:45:18.663Z,,,,,,,,,,,13221.611000095378,completion,,,,,,,low,low,,,,,,false,,,,,true,729374,729373.9000000954,716135.352,716237.5,716152.289,729302.671,1,40,,
trial,html.Screen,8_10_0,2023-11-17T18:45:22.518Z,,,,2,0.0085520978188085,-0.0464691161264081,,0.05,false,lh,3926.829000000027,response,-0.8534691366511764,1.1360471336125106,-1.0502879143428803,1.03975580494588,1.15,-1.0948506000161775,low,high,,ISIC_0758797.JPG,,ISIC_0056788.JPG,25,false,0.28000000000000014,hl,keypress(j),0,true,733229.6000000238,733229.5,729268.626,729374.1000000238,729302.671,733152.706,1,40,11,
sequence,flow.Sequence,8_10,2023-11-17T18:45:22.519Z,,,,,,,,,,,3926.829000000027,completion,,,,,,,low,high,,,,,,false,,,,,true,733229.7000000477,733229.5,729268.626,729374.1000000238,729302.671,733152.706,1,40,,
trial,html.Screen,8_11_0,2023-11-17T18:45:26.790Z,,,,2,0.0116094682222121,-0.0258434522530318,,0.05,true,ll,4348.793999999994,response,-1.008381128411934,1.1360471336125106,-1.1002879143428803,-1.0088020117106191,1.15,-1.0948506000161775,low,low,,ISIC_9239632.JPG,,ISIC_6546903.JPG,31,false,0.11,ll,keypress(f),0,true,737501.5,737501.5,733135.639,733229.7000000477,733152.706,737418.896,1,40,12,
sequence,flow.Sequence,8_11,2023-11-17T18:45:26.790Z,,,,,,,,,,,4348.793999999994,completion,,,,,,,low,low,,,,,,false,,,,,true,737501.6000000238,737501.5,733135.639,733229.7000000477,733152.706,737418.896,1,40,,
trial,html.Screen,8_12_0,2023-11-17T18:45:30.534Z,,,,2,0.0070725527271049,0.0049995141077508,,0.05,false,lh,3826.404000071576,response,-0.991282840649944,1.1360471336125106,-1.1002879143428803,0.9397921099839784,1.15,-0.9585915700612764,low,high,,ISIC_6124481.JPG,,ISIC_0000463.JPG,26,false,0.30000000000000016,ll,keypress(f),0,true,741245.4000000954,741245.3000000715,737402.259,737501.6000000238,737418.896,741169.03,1,40,13,
sequence,flow.Sequence,8_12,2023-11-17T18:45:30.534Z,,,,,,,,,,,3826.404000071576,completion,,,,,,,low,high,,,,,,false,,,,,true,741245.5,741245.3000000715,737402.259,737501.6000000238,737418.896,741169.03,1,40,,
trial,html.Screen,8_13_0,2023-11-17T18:45:33.174Z,,,,2,0.0107854985447517,0.0478010417136109,,0.05,false,lh,2716.3700000953395,response,-0.9696118525781644,1.1360471336125106,-0.9498319845309389,0.9244148283103414,1.15,-0.9585915700612764,low,high,,ISIC_0010500.JPG,,ISIC_7927525.JPG,25,false,0.2400000000000001,ll,keypress(f),0,true,743885.6000000238,743885.4000000954,741152.591,741245.6000000238,741169.03,743802.232,1,40,14,
sequence,flow.Sequence,8_13,2023-11-17T18:45:33.175Z,,,,,,,,,,,2716.3700000953395,completion,,,,,,,low,high,,,,,,false,,,,,true,743885.6000000238,743885.4000000954,741152.591,741245.6000000238,741169.03,743802.232,1,40,,
trial,html.Screen,8_14_0,2023-11-17T18:45:37.446Z,,,,2,-0.0362376068089956,-0.047825070846155,,0.05,false,hl,4354.368000023882,response,0.9388660854518424,1.1360471336125106,-0.9498319845309389,-0.79533948698576,1.15,-0.9585915700612764,high,low,,ISIC_6985114.JPG,,ISIC_9291926.JPG,26,false,0.30000000000000016,hh,keypress(i),0,true,748156.7000000477,748156.6000000238,743785.545,743885.7000000477,743802.232,748068.938,1,40,15,
sequence,flow.Sequence,8_14,2023-11-17T18:45:37.446Z,,,,,,,,,,,4354.368000023882,completion,,,,,,,high,low,,,,,,false,,,,,true,748156.8000000715,748156.6000000238,743785.545,743885.7000000477,743802.232,748068.938,1,40,,
trial,html.Screen,8_15_0,2023-11-17T18:45:45.942Z,,,,2,,-0.0264544974620926,,0.05,true,hh,8583.962000095402,response,0.9777849718157332,1.0860471336125106,-0.9498319845309389,1.117811430082889,1.15,-1.0085915700612764,high,high,,ISIC_0056991.JPG,,ISIC_3256887.JPG,30,false,0.11,hh,keypress(i),0,true,756653,756652.9000000954,748052.333,748156.8000000715,748068.938,756568.884,1,40,16,
sequence,flow.Sequence,8_15,2023-11-17T18:45:45.942Z,,,,,,,,,,,8583.962000095402,completion,,,,,,,high,high,,,,,,false,,,,,true,756653.2000000477,756652.9000000954,748052.333,748156.8000000715,748068.938,756568.884,1,40,,
trial,html.Screen,8_16_0,2023-11-17T18:45:51.782Z,,,,2,0.039728379742806,-0.0228701131373768,,0.05,false,hl,5924.616000000038,response,1.0264463986917702,1.0860471336125106,-0.9498319845309389,-1.2804054832904397,1.15,-1.0085915700612764,high,low,,ISIC_0054073.JPG,,ISIC_7889838.JPG,28,false,0.30000000000000016,lh,keypress(e),0,true,762493.6000000238,762493.5,756552.003,756653.2000000477,756568.884,762419.35,1,40,17,
sequence,flow.Sequence,8_16,2023-11-17T18:45:51.783Z,,,,,,,,,,,5924.616000000038,completion,,,,,,,high,low,,,,,,false,,,,,true,762493.7000000477,762493.5,756552.003,756653.2000000477,756568.884,762419.35,1,40,,
trial,html.Screen,8_17_0,2023-11-17T18:45:58.486Z,,,,2,0.0085520978188085,-0.0464691161264081,,0.05,false,hh,6777.050000095391,response,1.0910404089869363,1.1360471336125106,-0.9498319845309389,1.119702461098404,1.15,-1.0585915700612765,high,high,,ISIC_0758797.JPG,,ISIC_0067097.JPG,27,false,0.1,ll,keypress(f),0,true,769196.6000000238,769196.4000000954,762402.296,762493.8000000715,762419.35,769118.863,1,40,18,
sequence,flow.Sequence,8_17,2023-11-17T18:45:58.486Z,,,,,,,,,,,6777.050000095391,completion,,,,,,,high,high,,,,,,false,,,,,true,769196.7000000477,769196.4000000954,762402.296,762493.8000000715,762419.35,769118.863,1,40,,
trial,html.Screen,8_18_0,2023-11-17T18:46:07.574Z,,,,2,-0.0097091270150747,0.0417921315885292,,0.05,false,lh,9166.23700002383,response,-1.0751036484083878,1.1860471336125107,-0.9498319845309389,1.143906455483852,1.15,-1.0585915700612765,low,high,,ISIC_3967213.JPG,,ISIC_0064406.JPG,25,false,0.2400000000000001,hl,keypress(j),0,true,778285.3000000715,778285.1000000238,769102.015,769196.8000000715,769118.863,778202.183,1,40,19,
sequence,flow.Sequence,8_18,2023-11-17T18:46:07.574Z,,,,,,,,,,,9166.23700002383,completion,,,,,,,low,high,,,,,,false,,,,,true,778285.4000000954,778285.1000000238,769102.015,769196.8000000715,769118.863,778202.183,1,40,,
trial,html.Screen,8_19_0,2023-11-17T18:46:09.590Z,,,,2,-0.0348234368746005,0.0236866303880924,,0.05,true,hh,2099.1170000715647,response,1.2249552940807693,1.1860471336125107,-0.9998319845309389,1.1723015116910682,1.15,-1.0585915700612765,high,high,,ISIC_0011099.JPG,,ISIC_0055251.JPG,28,false,0.1,hh,keypress(i),0,true,780301.4000000954,780301.3000000715,778185.705,778285.4000000954,778202.183,780218.902,1,40,20,
sequence,flow.Sequence,8_19,2023-11-17T18:46:09.591Z,,,,,,,,,,,2099.1170000715647,completion,,,,,,,high,high,,,,,,false,,,,,true,780301.4000000954,780301.3000000715,778185.705,778285.4000000954,778202.183,780218.902,1,40,,
trial,html.Screen,8_20_0,2023-11-17T18:46:14.054Z,,,,2,0.0050679133050021,-0.0009714874637896,,0.05,false,hl,4546.298000047682,response,1.0213365328004047,1.1860471336125107,-0.9998319845309389,-1.088524359911891,1.15,-1.0585915700612765,high,low,,ISIC_9848743.JPG,,ISIC_5434229.JPG,25,false,0.3700000000000002,hh,keypress(i),0,true,784765.3000000715,784765.2000000477,780202.199,780301.5,780218.902,784685.567,1,40,21,
sequence,flow.Sequence,8_20,2023-11-17T18:46:14.054Z,,,,,,,,,,,4546.298000047682,completion,,,,,,,high,low,,,,,,false,,,,,true,784765.4000000954,784765.2000000477,780202.199,780301.5,780218.902,784685.567,1,40,,
trial,html.Screen,8_21_0,2023-11-17T18:46:19.911Z,,,,2,0.0050679133050021,-0.0009714874637896,,0.05,false,lh,5935.932999999961,response,-0.7784583866003763,1.0468190222457363,-0.9998319845309389,0.9641514808986528,1.15,-1.1085915700612765,low,high,,ISIC_9848743.JPG,,ISIC_0011924.JPG,25,false,0.2600000000000001,ll,keypress(f),0,true,790621.5,790621.5,784669.17,784765.4000000954,784685.567,790535.531,1,40,22,
sequence,flow.Sequence,8_21,2023-11-17T18:46:19.911Z,,,,,,,,,,,5935.932999999961,completion,,,,,,,low,high,,,,,,false,,,,,true,790621.6000000238,790621.5,784669.17,784765.4000000954,784685.567,790535.531,1,40,,
trial,html.Screen,8_22_0,2023-11-17T18:46:24.822Z,,,,2,0.0363437082783146,0.0333332186217051,,0.05,false,hl,4997.269000071567,response,1.0264463986917702,1.0468190222457363,-0.9998319845309389,-1.2804054832904397,1.15,-1.1085915700612765,high,low,,ISIC_3314555.JPG,,ISIC_7889838.JPG,27,false,0.3200000000000002,lh,keypress(e),0,true,795533,795532.8000000715,790519.152,790621.7000000477,790535.531,795452.268,1,40,23,
sequence,flow.Sequence,8_22,2023-11-17T18:46:24.822Z,,,,,,,,,,,4997.269000071567,completion,,,,,,,high,low,,,,,,false,,,,,true,795533.1000000238,795532.8000000715,790519.152,790621.6000000238,790535.531,795452.268,1,40,,
trial,html.Screen,8_23_0,2023-11-17T18:46:29.703Z,,,,2,-0.000047919190197942736,-0.0462652940855003,,0.05,true,hh,4961.23199999996,response,1.0351900568634125,1.0968190222457364,-0.9998319845309389,1.060448537312289,1.15,-1.1585915700612766,high,high,,ISIC_0011507.JPG,,ISIC_4377208.JPG,29,false,0.11,hh,keypress(i),0,true,800413.6000000238,800413.5,795435.645,795533.1000000238,795452.268,800335.634,1,40,24,
sequence,flow.Sequence,8_23,2023-11-17T18:46:29.703Z,,,,,,,,,,,4961.23199999996,completion,,,,,,,high,high,,,,,,false,,,,,true,800413.6000000238,800413.5,795435.645,795533.1000000238,795452.268,800335.634,1,40,,
trial,html.Screen,8_24_0,2023-11-17T18:46:43.255Z,,,,2,-0.0102460616775615,0.0309670599545429,,0.05,true,hh,13629.766000095406,response,1.101346104814838,1.0968190222457364,-0.9998319845309389,1.1225813067473052,1.15,-1.1585915700612766,high,high,,ISIC_0072041.JPG,,ISIC_8175453.JPG,29,false,0.11,hh,keypress(i),0,true,813965.5,813965.4000000954,800318.924,800413.7000000477,800335.634,813885.544,1,40,25,
sequence,flow.Sequence,8_24,2023-11-17T18:46:43.255Z,,,,,,,,,,,13629.766000095406,completion,,,,,,,high,high,,,,,,false,,,,,true,813965.7000000477,813965.4000000954,800318.924,800413.7000000477,800335.634,813885.544,1,40,,
trial,html.Screen,8_25_0,2023-11-17T18:46:48.614Z,,,,2,-0.000047919190197942736,-0.0462652940855003,,0.05,false,hl,5439.256000071531,response,0.9235571765207048,1.041514922029797,-0.9998319845309389,-1.0008081653938232,1.041514922029797,-1.1585915700612766,high,low,,ISIC_0011507.JPG,,ISIC_8796632.JPG,25,false,0.3500000000000002,hh,keypress(i),0,true,819325,819324.8000000715,813868.827,813965.7000000477,813885.544,819252.647,1,40,26,
sequence,flow.Sequence,8_25,2023-11-17T18:46:48.614Z,,,,,,,,,,,5439.256000071531,completion,,,,,,,high,low,,,,,,false,,,,,true,819325.2000000477,819324.8000000715,813868.827,813965.7000000477,813885.544,819252.647,1,40,,
trial,html.Screen,8_26_0,2023-11-17T18:46:50.646Z,,,,2,-0.0112310719058792,0.0469047359904117,,0.05,false,hl,2104.25300009537,response,1.0264463986917702,1.041514922029797,-0.9998319845309389,-1.2804054832904397,1.041514922029797,-1.1585915700612766,high,low,,ISIC_0068184.JPG,,ISIC_7889838.JPG,25,false,0.3500000000000002,ll,keypress(f),0,true,821356.9000000954,821356.9000000954,819235.815,819325.2000000477,819252.647,821286.02,1,40,27,
sequence,flow.Sequence,8_26,2023-11-17T18:46:50.646Z,,,,,,,,,,,2104.25300009537,completion,,,,,,,high,low,,,,,,false,,,,,true,821357.1000000238,821356.9000000954,819235.815,819325.2000000477,819252.647,821286.02,1,40,,
trial,html.Screen,8_27_0,2023-11-17T18:46:53.542Z,,,,2,-0.0134764727102299,-0.0033499036460912,,0.05,false,hh,2967.0800000238232,response,1.0130095662293503,1.091514922029797,-0.9998319845309389,1.098939882801048,1.041514922029797,-1.1585915700612766,high,high,,ISIC_0009998.JPG,,ISIC_0059897.JPG,30,false,0.1,hl,keypress(j),0,true,824253.2000000477,824253.1000000238,821252.275,821357.1000000238,821286.02,824168.842,1,40,28,
sequence,flow.Sequence,8_27,2023-11-17T18:46:53.542Z,,,,,,,,,,,2967.0800000238232,completion,,,,,,,high,high,,,,,,false,,,,,true,824253.4000000954,824253.1000000238,821252.275,821357.1000000238,821286.02,824168.842,1,40,,
trial,html.Screen,8_28_0,2023-11-17T18:46:56.230Z,,,,2,0.0107854985447517,0.0478010417136109,,0.05,false,hl,2772.0580000954214,response,0.8655167308525522,1.091514922029797,-0.9998319845309389,-0.9298580423306444,1.091514922029797,-1.1585915700612766,high,low,,ISIC_0010500.JPG,,ISIC_4603706.JPG,25,false,0.3600000000000002,hh,keypress(i),0,true,826940.9000000954,826940.9000000954,824152.584,824253.4000000954,824168.842,826869.57,1,40,29,
sequence,flow.Sequence,8_28,2023-11-17T18:46:56.230Z,,,,,,,,,,,2772.0580000954214,completion,,,,,,,high,low,,,,,,false,,,,,true,826941,826940.9000000954,824152.584,824253.4000000954,824168.842,826869.57,1,40,,
trial,html.Screen,8_29_0,2023-11-17T18:47:00.919Z,,,,2,-0.0277178575053843,0.0395587463147856,,0.05,false,lh,4760.230000071577,response,-0.9696118525781644,0.8892631485409512,-0.9998319845309389,0.9244148283103414,1.091514922029797,-1.1585915700612766,low,high,,ISIC_0010807.JPG,,ISIC_7927525.JPG,27,false,0.2400000000000001,ll,keypress(f),0,true,831629.8000000715,831629.8000000715,826835.71,826941.1000000238,826869.57,831552.328,1,40,30,
sequence,flow.Sequence,8_29,2023-11-17T18:47:00.919Z,,,,,,,,,,,4760.230000071577,completion,,,,,,,low,high,,,,,,false,,,,,true,831630,831629.8000000715,826835.71,826941.1000000238,826869.57,831552.328,1,40,,
trial,html.Screen,8_30_0,2023-11-17T18:47:03.175Z,,,,2,-0.0348234368746005,0.0236866303880924,,0.05,true,ll,2332.872000047704,response,-0.9786457729523576,0.8892631485409512,-0.9498319845309389,-1.1189056385517386,1.141514922029797,-1.1585915700612766,low,low,,ISIC_0011099.JPG,,ISIC_3926019.JPG,26,false,0.11,ll,keypress(f),0,true,833885.4000000954,833885.2000000477,831535.647,831630.1000000238,831552.328,833802.347,1,40,31,
sequence,flow.Sequence,8_30,2023-11-17T18:47:03.175Z,,,,,,,,,,,2332.872000047704,completion,,,,,,,low,low,,,,,,false,,,,,true,833885.5,833885.2000000477,831535.647,831630,831552.328,833802.347,1,40,,
trial,html.Screen,8_31_0,2023-11-17T18:47:06.359Z,,,,2,0.0363437082783146,0.0333332186217051,,0.05,true,hh,3266.953000071575,response,0.9588812385345452,0.8892631485409512,-0.9498319845309389,1.21949255303104,1.141514922029797,-1.1585915700612766,high,high,,ISIC_3314555.JPG,,ISIC_0069986.JPG,34,false,0.1,hh,keypress(i),0,true,837069.4000000954,837069.3000000715,833785.652,833885.5,833802.347,836985.556,1,40,32,
sequence,flow.Sequence,8_31,2023-11-17T18:47:06.359Z,,,,,,,,,,,3266.953000071575,completion,,,,,,,high,high,,,,,,false,,,,,true,837069.4000000954,837069.3000000715,833785.652,833885.5,833802.347,836985.556,1,40,,
trial,html.Screen,8_32_0,2023-11-17T18:47:11.271Z,,,,2,0.0107854985447517,0.0478010417136109,,0.05,true,ll,4995.844000095385,response,-0.913084438298574,0.8892631485409512,-0.9498319845309389,-1.135180301076722,1.141514922029797,-1.1585915700612766,low,low,,ISIC_0010500.JPG,,ISIC_8637134.JPG,26,false,0.11,ll,keypress(f),0,true,841981.5,841981.4000000954,836968.828,837069.5,836985.556,841902.296,1,40,33,
sequence,flow.Sequence,8_32,2023-11-17T18:47:11.271Z,,,,,,,,,,,4995.844000095385,completion,,,,,,,low,low,,,,,,false,,,,,true,841981.6000000238,841981.4000000954,836968.828,837069.5,836985.556,841902.296,1,40,,
trial,html.Screen,8_33_0,2023-11-17T18:47:14.326Z,,,,2,-0.0097091270150747,0.0417921315885292,,0.05,true,ll,3134.4040000477107,response,-0.8856899178393457,0.8892631485409512,-0.8998319845309388,-1.1903131706835868,1.141514922029797,-1.1085915700612765,low,low,,ISIC_3967213.JPG,,ISIC_1233104.JPG,32,false,0.1,ll,keypress(f),0,true,845036.8000000715,845036.7000000477,841885.815,841981.6000000238,841902.296,844952.209,1,40,34,
sequence,flow.Sequence,8_33,2023-11-17T18:47:14.326Z,,,,,,,,,,,3134.4040000477107,completion,,,,,,,low,low,,,,,,false,,,,,true,845036.9000000954,845036.7000000477,841885.815,841981.6000000238,841902.296,844952.209,1,40,,
trial,html.Screen,8_34_0,2023-11-17T18:47:18.455Z,,,,2,0.007397293189458,0.0174716772037504,,0.05,false,ll,4213.290999999968,response,-0.8323753563397326,0.8892631485409512,-0.8998319845309388,-1.0355093302574103,1.141514922029797,-1.1085915700612765,low,low,,ISIC_0056226.JPG,,ISIC_0046729.JPG,32,false,0.1,hl,keypress(j),0,true,849165.6000000238,849165.5,844935.436,845036.9000000954,844952.209,849085.527,1,40,35,
sequence,flow.Sequence,8_34,2023-11-17T18:47:18.455Z,,,,,,,,,,,4213.290999999968,completion,,,,,,,low,low,,,,,,false,,,,,true,849165.7000000477,849165.5,844935.436,845036.9000000954,844952.209,849085.527,1,40,,
trial,html.Screen,8_35_0,2023-11-17T18:47:23.078Z,,,,2,0.0389988030702649,0.0143212271490256,,0.05,false,lh,4703.57300002384,response,-0.9433720631499012,0.8892631485409512,-0.9498319845309389,1.0582071940347648,1.141514922029797,-1.0629112504704985,low,high,,ISIC_0064669.JPG,,ISIC_4890201.JPG,25,false,0.2400000000000001,hl,keypress(j),0,true,853789.2000000477,853789.1000000238,849069.19,849165.8000000715,849085.527,853702.15,1,40,36,
sequence,flow.Sequence,8_35,2023-11-17T18:47:23.079Z,,,,,,,,,,,4703.57300002384,completion,,,,,,,low,high,,,,,,false,,,,,true,853789.3000000715,853789.1000000238,849069.19,849165.8000000715,849085.527,853702.15,1,40,,
trial,html.Screen,8_36_0,2023-11-17T18:47:25.991Z,,,,2,0.0324770283903853,0.0249968632204382,,0.05,false,ll,2999.1500000715023,response,-0.9936778235464944,0.8892631485409512,-0.9998319845309389,-0.9945365746760566,1.1915149220297971,-1.0629112504704985,low,low,,ISIC_7266462.JPG,,ISIC_5108076.JPG,32,false,0.1,lh,keypress(e),0,true,856701.4000000954,856701.3000000715,853685.563,853789.3000000715,853702.15,856618.811,1,40,37,
sequence,flow.Sequence,8_36,2023-11-17T18:47:25.991Z,,,,,,,,,,,2999.1500000715023,completion,,,,,,,low,low,,,,,,false,,,,,true,856701.5,856701.3000000715,853685.563,853789.3000000715,853702.15,856618.811,1,40,,
trial,html.Screen,8_37_0,2023-11-17T18:47:29.862Z,,,,2,0.0027483411352856,0.0100996915276271,,0.05,false,lh,3954.289000023855,response,-1.0143509683988825,0.8892631485409512,-0.9998319845309389,1.3163955902021656,1.1915149220297971,-1.1129112504704985,low,high,,ISIC_7364041.JPG,,ISIC_0062031.JPG,25,false,0.27000000000000013,hh,keypress(i),0,true,860573.1000000238,860573.1000000238,856602.282,856701.5,856618.811,860485.488,1,40,38,
sequence,flow.Sequence,8_37,2023-11-17T18:47:29.863Z,,,,,,,,,,,3954.289000023855,completion,,,,,,,low,high,,,,,,false,,,,,true,860573.2000000477,860573.1000000238,856602.282,856701.5,856618.811,860485.488,1,40,,
trial,html.Screen,8_38_0,2023-11-17T18:47:34.919Z,,,,2,0.0456515796420274,-0.0273567130070961,,0.05,true,hh,5143.912000095355,response,0.9147928199303512,0.8892631485409512,-1.049831984530939,1.1862713348854166,1.1915149220297971,-1.1129112504704985,high,high,,ISIC_0068610.JPG,,ISIC_0015136.JPG,36,false,0.1,hh,keypress(i),0,true,865629.5,865629.4000000954,860469.187,860573.3000000715,860485.488,865552.617,1,40,39,
sequence,flow.Sequence,8_38,2023-11-17T18:47:34.919Z,,,,,,,,,,,5143.912000095355,completion,,,,,,,high,high,,,,,,false,,,,,true,865629.7000000477,865629.4000000954,860469.187,860573.3000000715,860485.488,865552.617,1,40,,
trial,html.Screen,8_39_0,2023-11-17T18:47:42.246Z,,,,2,0.0107854985447517,0.0478010417136109,,0.05,true,hh,7404.283000095398,response,1.0651492409820618,1.151333462543791,-1.049831984530939,1.1862499256725747,1.151333462543791,-1.1129112504704985,high,high,,ISIC_0010500.JPG,,ISIC_0065421.JPG,28,false,0.1,hh,keypress(i),0,true,872957,872956.9000000954,865535.823,865629.7000000477,865552.617,872886.507,1,40,40,
sequence,flow.Sequence,8_39,2023-11-17T18:47:42.246Z,,,,,,,,,,,7404.283000095398,completion,,,,,,,high,high,,,,,,false,,,,,true,872957.1000000238,872956.9000000954,865535.823,865629.7000000477,865552.617,872886.507,1,40,,
stair_loop,flow.Loop,8,2023-11-17T18:47:42.246Z,,,,,,,,,,,224237.96900009539,completion,,,,,,,,,,,,,,false,,,,,true,872957.1000000238,872956.9000000954,648702.715,648796.2000000477,648718.931,872886.507,1,40,,
exp_instructions,html.Screen,9,2023-11-17T18:48:01.734Z,,,,,,,,,,,19558.6930000477,response,,,,,,,,,,,,,,,,continue,keypress(Space),,,892445.6000000238,892445.2000000477,872852.07,872957.2000000477,872886.507,892368.813,,,,
trial,html.Screen,10_0_0,2023-11-17T18:48:12.488Z,,,,1,-0.0277178575053843,0.0395587463147856,,0.05,false,hl,10829.98700007156,response,0.6864497754928831,0.9891673929333976,-0.9848319845309389,-1.0456580051873738,1.1316271185480473,-1.127171490163582,high,low,,ISIC_0010807.JPG,9,ISIC_0055388.JPG,25,false,0.31000000000000016,ll,keypress(f),0,false,903198.9000000954,903198.8000000715,892352.151,892445.8000000715,892368.813,903118.821,4,500,1,
break,html.Screen,10_0_1,2023-11-17T18:48:12.488Z,,,,,,,,,,,NaN,,,,,,,,high,low,,,,,,false,,,,,false,903199.2000000477,903199.1000000238,,903198.9000000954,,903118.821,4,500,,
break_continue,html.Screen,10_0_2,2023-11-17T18:48:12.488Z,,,,,,,,,,,NaN,,,,,,,,high,low,,,,,,false,,,,,false,903199.4000000954,903199.4000000954,,903199.3000000715,,903118.821,4,500,,
sequence,flow.Sequence,10_0,2023-11-17T18:48:12.488Z,,,,,,,,,,,10830.587000095402,completion,,,,,,,high,low,,,,,,false,,,,,false,903199.5,903199.4000000954,892352.151,892445.7000000477,892368.813,903118.821,4,500,,
trial,html.Screen,10_1_0,2023-11-17T18:48:14.918Z,,,,1,0.0050679133050021,-0.0009714874637896,,0.05,false,lh,2509.8790000476874,response,-0.879102500583965,0.9891673929333976,-0.9848319845309389,1.0933081951979773,1.1316271185480473,-1.127171490163582,low,high,,ISIC_9848743.JPG,9,ISIC_0046223.JPG,25,false,0.2500000000000001,ll,keypress(f),0,false,905628.9000000954,905628.7000000477,903102.224,903199.5,903118.821,905552.395,4,500,2,
break,html.Screen,10_1_1,2023-11-17T18:48:14.918Z,,,,,,,,,,,NaN,,,,,,,,low,high,,,,,,false,,,,,false,905629.3000000715,905629.2000000477,,905629,,905552.395,4,500,,
break_continue,html.Screen,10_1_2,2023-11-17T18:48:14.918Z,,,,,,,,,,,NaN,,,,,,,,low,high,,,,,,false,,,,,false,905629.5,905629.4000000954,,905629.4000000954,,905552.395,4,500,,
sequence,flow.Sequence,10_1,2023-11-17T18:48:14.918Z,,,,,,,,,,,2510.579000095371,completion,,,,,,,low,high,,,,,,false,,,,,false,905629.5,905629.4000000954,903102.224,903199.5,903118.821,905552.395,4,500,,
trial,html.Screen,10_2_0,2023-11-17T18:48:16.870Z,,,,1,-0.0245376145053177,0.0436993426328401,,0.05,false,lh,2029.0050000953488,response,-0.7401156491866404,0.9891673929333976,-0.9848319845309389,0.94165594025755,1.1316271185480473,-1.127171490163582,low,high,,ISIC_0056444.JPG,8,ISIC_0072429.JPG,25,false,0.2500000000000001,ll,keypress(f),0,false,907581.5,907581.4000000954,905535.937,905629.5,905552.395,907502.223,4,500,3,
break,html.Screen,10_2_1,2023-11-17T18:48:16.871Z,,,,,,,,,,,NaN,,,,,,,,low,high,,,,,,false,,,,,false,907581.8000000715,907581.7000000477,,907581.6000000238,,907502.223,4,500,,
break_continue,html.Screen,10_2_2,2023-11-17T18:48:16.871Z,,,,,,,,,,,NaN,,,,,,,,low,high,,,,,,false,,,,,false,907582,907581.9000000954,,907581.8000000715,,907502.223,4,500,,
sequence,flow.Sequence,10_2,2023-11-17T18:48:16.871Z,,,,,,,,,,,2029.5050000953488,completion,,,,,,,low,high,,,,,,false,,,,,false,907582,907581.9000000954,905535.937,905629.5,905552.395,907502.223,4,500,,
trial,html.Screen,10_3_0,2023-11-17T18:48:21.798Z,,,,1,-0.0097091270150747,0.0417921315885292,,0.05,false,lh,5006.677000095369,response,-0.9579209317488,0.9891673929333976,-0.9848319845309389,1.0147487101263497,1.1316271185480473,-1.127171490163582,low,high,,ISIC_3967213.JPG,10,ISIC_8124482.JPG,25,false,0.2500000000000001,hl,keypress(j),0,false,912509,912508.9000000954,907485.439,907582,907502.223,912435.641,4,500,4,
break,html.Screen,10_3_1,2023-11-17T18:48:21.798Z,,,,,,,,,,,NaN,,,,,,,,low,high,,,,,,false,,,,,false,912509.3000000715,912509.2000000477,,912509,,912435.641,4,500,,
break_continue,html.Screen,10_3_2,2023-11-17T18:48:21.798Z,,,,,,,,,,,NaN,,,,,,,,low,high,,,,,,false,,,,,false,912509.5,912509.5,,912509.3000000715,,912435.641,4,500,,
sequence,flow.Sequence,10_3,2023-11-17T18:48:21.798Z,,,,,,,,,,,5007.277000000002,completion,,,,,,,low,high,,,,,,false,,,,,false,912509.5,912509.5,907485.439,907582,907502.223,912435.641,4,500,,
trial,html.Screen,10_4_0,2023-11-17T18:48:24.806Z,,,,1,-0.0051189696037511,0.0396625911332438,,0.05,false,hl,3081.459000023897,response,0.7197989269080959,0.9891673929333976,-0.9848319845309389,-0.9410141415297968,1.1316271185480473,-1.127171490163582,high,low,,ISIC_9742891.JPG,9,ISIC_2635051.JPG,25,false,0.31000000000000016,hh,keypress(i),0,false,915517.2000000477,915517.1000000238,912419.084,912509.5,912435.641,915452.145,4,500,5,
break,html.Screen,10_4_1,2023-11-17T18:48:24.806Z,,,,,,,,,,,NaN,,,,,,,,high,low,,,,,,false,,,,,false,915517.5,915517.4000000954,,915517.3000000715,,915452.145,4,500,,
break_continue,html.Screen,10_4_2,2023-11-17T18:48:24.806Z,,,,,,,,,,,NaN,,,,,,,,high,low,,,,,,false,,,,,false,915517.6000000238,915517.6000000238,,915517.5,,915452.145,4,500,,
sequence,flow.Sequence,10_4,2023-11-17T18:48:24.806Z,,,,,,,,,,,3081.959000023897,completion,,,,,,,high,low,,,,,,false,,,,,false,915517.6000000238,915517.6000000238,912419.084,912509.5,912435.641,915452.145,4,500,,
trial,html.Screen,10_5_0,2023-11-17T18:48:28.966Z,,,,1,0.0450282431170921,,,0.05,true,hl,4224.854999999981,response,0.7998855902596425,0.9891673929333976,-0.9848319845309389,-1.1518579145663017,1.1316271185480473,-1.127171490163582,high,low,,ISIC_1805163.JPG,9,ISIC_0025061.JPG,25,false,0.31000000000000016,hl,keypress(j),0,false,919677.1000000238,919677,915435.477,915517.6000000238,915452.145,919602.587,4,500,6,
break,html.Screen,10_5_1,2023-11-17T18:48:28.966Z,,,,,,,,,,,NaN,,,,,,,,high,low,,,,,,false,,,,,false,919677.4000000954,919677.2000000477,,919677.1000000238,,919602.587,4,500,,
break_continue,html.Screen,10_5_2,2023-11-17T18:48:28.966Z,,,,,,,,,,,NaN,,,,,,,,high,low,,,,,,false,,,,,false,919677.5,919677.5,,919677.4000000954,,919602.587,4,500,,
sequence,flow.Sequence,10_5,2023-11-17T18:48:28.966Z,,,,,,,,,,,4225.354999999981,completion,,,,,,,high,low,,,,,,false,,,,,false,919677.6000000238,919677.5,915435.477,915517.6000000238,915452.145,919602.587,4,500,,
trial,html.Screen,10_6_0,2023-11-17T18:48:37.542Z,,,,1,-0.000047919190197942736,-0.0462652940855003,,0.05,false,lh,8650.113000047626,response,-1.0026266089287914,0.9891673929333976,-0.9848319845309389,1.0913275913920335,1.1316271185480473,-1.127171490163582,low,high,,ISIC_0011507.JPG,9,ISIC_0033520.JPG,25,false,0.2500000000000001,hh,keypress(i),0,false,928252.8000000715,928252.7000000477,919585.357,919677.6000000238,919602.587,928168.758,4,500,7,
break,html.Screen,10_6_1,2023-11-17T18:48:37.542Z,,,,,,,,,,,NaN,,,,,,,,low,high,,,,,,false,,,,,false,928253.1000000238,928253,,928252.9000000954,,928168.758,4,500,,
break_continue,html.Screen,10_6_2,2023-11-17T18:48:37.542Z,,,,,,,,,,,NaN,,,,,,,,low,high,,,,,,false,,,,,false,928253.3000000715,928253.2000000477,,928253.1000000238,,928168.758,4,500,,
sequence,flow.Sequence,10_6,2023-11-17T18:48:37.542Z,,,,,,,,,,,8650.613000047626,completion,,,,,,,low,high,,,,,,false,,,,,false,928253.4000000954,928253.2000000477,919585.357,919677.6000000238,919602.587,928168.758,4,500,,
trial,html.Screen,10_7_0,2023-11-17T18:48:42.694Z,,,,1,-0.000047919190197942736,-0.0462652940855003,,0.05,false,ll,5236.642000095337,response,-0.9029354290897352,0.9891673929333976,-0.9848319845309389,-1.1346860677105404,1.1316271185480473,-1.127171490163582,low,low,,ISIC_0011507.JPG,8,ISIC_4153687.JPG,33,false,0.11,hh,keypress(i),0,false,933405.6000000238,933405.4000000954,928152.459,928253.4000000954,928168.758,933318.766,4,500,8,
break,html.Screen,10_7_1,2023-11-17T18:48:42.695Z,,,,,,,,,,,NaN,,,,,,,,low,low,,,,,,false,,,,,false,933405.9000000954,933405.8000000715,,933405.7000000477,,933318.766,4,500,,
break_continue,html.Screen,10_7_2,2023-11-17T18:48:42.695Z,,,,,,,,,,,NaN,,,,,,,,low,low,,,,,,false,,,,,false,933406.1000000238,933406,,933405.9000000954,,933318.766,4,500,,
sequence,flow.Sequence,10_7,2023-11-17T18:48:42.695Z,,,,,,,,,,,5237.241999999969,completion,,,,,,,low,low,,,,,,false,,,,,false,933406.1000000238,933406,928152.459,928253.4000000954,928168.758,933318.766,4,500,,
trial,html.Screen,10_8_0,2023-11-17T18:48:45.318Z,,,,1,-0.0112310719058792,0.0469047359904117,,0.05,true,ll,2710.734000000055,response,-0.8854665385930431,0.9891673929333976,-0.9848319845309389,-1.0235331176078744,1.1316271185480473,-1.127171490163582,low,low,,ISIC_0068184.JPG,9,ISIC_0026889.JPG,33,false,0.11,ll,keypress(f),0,false,936029.5,936029.5,933302.416,933406.2000000477,933318.766,935952.576,4,500,9,
break,html.Screen,10_8_1,2023-11-17T18:48:45.319Z,,,,,,,,,,,NaN,,,,,,,,low,low,,,,,,false,,,,,false,936029.8000000715,936029.7000000477,,936029.6000000238,,935952.576,4,500,,
break_continue,html.Screen,10_8_2,2023-11-17T18:48:45.319Z,,,,,,,,,,,NaN,,,,,,,,low,low,,,,,,false,,,,,false,936030,936030,,936029.9000000954,,935952.576,4,500,,
sequence,flow.Sequence,10_8,2023-11-17T18:48:45.319Z,,,,,,,,,,,2711.234000000055,completion,,,,,,,low,low,,,,,,false,,,,,false,936030,936030,933302.416,933406.2000000477,933318.766,935952.576,4,500,,
trial,html.Screen,10_9_0,2023-11-17T18:48:49.318Z,,,,1,-0.0097091270150747,0.0417921315885292,,0.05,false,hh,4076.524000023841,response,1.0351900568634125,0.9891673929333976,-0.9848319845309389,1.060448537312289,1.1316271185480473,-1.127171490163582,high,high,,ISIC_3967213.JPG,9,ISIC_4377208.JPG,31,false,0.1,hl,keypress(j),0,false,940029.2000000477,940029.1000000238,935935.828,936030,935952.576,939952.305,4,500,10,
break,html.Screen,10_9_1,2023-11-17T18:48:49.318Z,,,,,,,,,,,NaN,,,,,,,,high,high,,,,,,false,,,,,false,940029.5,940029.4000000954,,940029.2000000477,,939952.305,4,500,,
break_continue,html.Screen,10_9_2,2023-11-17T18:48:49.319Z,,,,,,,,,,,NaN,,,,,,,,high,high,,,,,,false,,,,,false,940029.7000000477,940029.6000000238,,940029.6000000238,,939952.305,4,500,,
sequence,flow.Sequence,10_9,2023-11-17T18:48:49.319Z,,,,,,,,,,,4077.024000023841,completion,,,,,,,high,high,,,,,,false,,,,,false,940029.8000000715,940029.6000000238,935935.828,936030,935952.576,939952.305,4,500,,
trial,html.Screen,10_10_0,2023-11-17T18:48:53.318Z,,,,1,-0.0277178575053843,0.0395587463147856,,0.05,false,hl,4077.2950000237906,response,0.8035152873995188,0.9891673929333976,-0.9848319845309389,-0.82868450251632,1.1316271185480473,-1.127171490163582,high,low,,ISIC_0010807.JPG,9,ISIC_0010671.JPG,25,false,0.31000000000000016,hh,keypress(i),0,false,944029.7000000477,944029.6000000238,939935.719,940029.8000000715,939952.305,943952.288,4,500,11,
break,html.Screen,10_10_1,2023-11-17T18:48:53.319Z,,,,,,,,,,,NaN,,,,,,,,high,low,,,,,,false,,,,,false,944029.9000000954,944029.9000000954,,944029.7000000477,,943952.288,4,500,,
break_continue,html.Screen,10_10_2,2023-11-17T18:48:53.319Z,,,,,,,,,,,NaN,,,,,,,,high,low,,,,,,false,,,,,false,944030.2000000477,944030.1000000238,,944030,,943952.288,4,500,,
sequence,flow.Sequence,10_10,2023-11-17T18:48:53.319Z,,,,,,,,,,,4077.7950000237906,completion,,,,,,,high,low,,,,,,false,,,,,false,944030.3000000715,944030.1000000238,939935.719,940029.8000000715,939952.305,943952.288,4,500,,
trial,html.Screen,10_11_0,2023-11-17T18:48:55.685Z,,,,1,-0.0159061451859594,-0.0296598845560212,,0.05,false,lh,2444.2120000000577,response,-1.0865333402803938,0.9891673929333976,-0.9848319845309389,1.0542635307358266,1.1316271185480473,-1.127171490163582,low,high,,ISIC_0072564.JPG,9,ISIC_0034006.JPG,25,false,0.2500000000000001,hh,keypress(i),0,false,946396.7000000477,946396.5,943935.404,944030.3000000715,943952.288,946319.281,4,500,12,
break,html.Screen,10_11_1,2023-11-17T18:48:55.686Z,,,,,,,,,,,NaN,,,,,,,,low,high,,,,,,false,,,,,false,946396.9000000954,946396.9000000954,,946396.8000000715,,946319.281,4,500,,
break_continue,html.Screen,10_11_2,2023-11-17T18:48:55.686Z,,,,,,,,,,,NaN,,,,,,,,low,high,,,,,,false,,,,,false,946397.2000000477,946397.2000000477,,946397,,946319.281,4,500,,
sequence,flow.Sequence,10_11,2023-11-17T18:48:55.686Z,,,,,,,,,,,2444.9120000477415,completion,,,,,,,low,high,,,,,,false,,,,,false,946397.3000000715,946397.2000000477,943935.404,944030.3000000715,943952.288,946319.281,4,500,,
trial,html.Screen,10_12_0,2023-11-17T18:48:59.479Z,,,,1,0.0324770283903853,0.0249968632204382,,0.05,false,hh,3870.4190000477247,response,1.0525532302758762,0.9891673929333976,-0.9848319845309389,1.1628982512509805,1.1316271185480473,-1.127171490163582,high,high,,ISIC_7266462.JPG,8,ISIC_0033428.JPG,31,false,0.1,hl,keypress(j),0,false,950189.8000000715,950189.7000000477,946302.548,946397.3000000715,946319.281,950102.098,4,500,13,
break,html.Screen,10_12_1,2023-11-17T18:48:59.479Z,,,,,,,,,,,NaN,,,,,,,,high,high,,,,,,false,,,,,false,950190.1000000238,950190,,950189.9000000954,,950102.098,4,500,,
break_continue,html.Screen,10_12_2,2023-11-17T18:48:59.479Z,,,,,,,,,,,NaN,,,,,,,,high,high,,,,,,false,,,,,false,950190.3000000715,950190.3000000715,,950190.1000000238,,950102.098,4,500,,
sequence,flow.Sequence,10_12,2023-11-17T18:48:59.479Z,,,,,,,,,,,3871.0190000715666,completion,,,,,,,high,high,,,,,,false,,,,,false,950190.4000000954,950190.3000000715,946302.548,946397.3000000715,946319.281,950102.098,4,500,,
trial,html.Screen,10_13_0,2023-11-17T18:49:08.167Z,,,,1,-0.000047919190197942736,-0.0462652940855003,,0.05,false,lh,8775.002000023844,response,-0.8487429103619056,0.9891673929333976,-0.9848319845309389,0.9778257804233036,1.1316271185480473,-1.127171490163582,low,high,,ISIC_0011507.JPG,9,ISIC_4554863.JPG,25,false,0.2500000000000001,ll,keypress(f),0,false,958877.3000000715,958877.1000000238,950085.747,950190.4000000954,950102.098,958802.229,4,500,14,
break,html.Screen,10_13_1,2023-11-17T18:49:08.167Z,,,,,,,,,,,NaN,,,,,,,,low,high,,,,,,false,,,,,false,958877.6000000238,958877.5,,958877.3000000715,,958802.229,4,500,,
break_continue,html.Screen,10_13_2,2023-11-17T18:49:08.168Z,,,,,,,,,,,NaN,,,,,,,,low,high,,,,,,false,,,,,false,958877.8000000715,958877.8000000715,,958877.6000000238,,958802.229,4,500,,
sequence,flow.Sequence,10_13,2023-11-17T18:49:08.168Z,,,,,,,,,,,8775.702000071527,completion,,,,,,,low,high,,,,,,false,,,,,false,958877.9000000954,958877.8000000715,950085.747,950190.4000000954,950102.098,958802.229,4,500,,
trial,html.Screen,10_14_0,2023-11-17T18:49:16.966Z,,,,1,0.0324770283903853,0.0249968632204382,,0.05,false,lh,8874.471000047633,response,-0.869932994914832,0.9891673929333976,-0.9848319845309389,0.8880533324432531,1.1316271185480473,-1.127171490163582,low,high,,ISIC_7266462.JPG,10,ISIC_8617084.JPG,25,false,0.2500000000000001,hh,keypress(i),0,false,967676.8000000715,967676.7000000477,958785.384,958877.9000000954,958802.229,967602.572,4,500,15,
break,html.Screen,10_14_1,2023-11-17T18:49:16.967Z,,,,,,,,,,,NaN,,,,,,,,low,high,,,,,,false,,,,,false,967677.2000000477,967677,,967676.9000000954,,967602.572,4,500,,
break_continue,html.Screen,10_14_2,2023-11-17T18:49:16.967Z,,,,,,,,,,,NaN,,,,,,,,low,high,,,,,,false,,,,,false,967677.4000000954,967677.3000000715,,967677.2000000477,,967602.572,4,500,,
sequence,flow.Sequence,10_14,2023-11-17T18:49:16.967Z,,,,,,,,,,,8875.071000071475,completion,,,,,,,low,high,,,,,,false,,,,,false,967677.5,967677.3000000715,958785.384,958877.9000000954,958802.229,967602.572,4,500,,
trial,html.Screen,10_15_0,2023-11-17T18:49:24.135Z,,,,1,0.007397293189458,0.0174716772037504,,0.05,true,ll,7242.62800004764,response,-0.9786457729523576,0.9891673929333976,-0.9848319845309389,-1.1189056385517386,1.1316271185480473,-1.127171490163582,low,low,,ISIC_0056226.JPG,9,ISIC_3926019.JPG,33,false,0.11,ll,keypress(f),0,false,974845.3000000715,974845.2000000477,967585.277,967677.5,967602.572,974768.865,4,500,16,
break,html.Screen,10_15_1,2023-11-17T18:49:24.135Z,,,,,,,,,,,NaN,,,,,,,,low,low,,,,,,false,,,,,false,974845.7000000477,974845.5,,974845.4000000954,,974768.865,4,500,,
break_continue,html.Screen,10_15_2,2023-11-17T18:49:24.135Z,,,,,,,,,,,NaN,,,,,,,,low,low,,,,,,false,,,,,false,974845.8000000715,974845.8000000715,,974845.7000000477,,974768.865,4,500,,
sequence,flow.Sequence,10_15,2023-11-17T18:49:24.136Z,,,,,,,,,,,7243.228000071482,completion,,,,,,,low,low,,,,,,false,,,,,false,974845.8000000715,974845.8000000715,967585.277,967677.5,967602.572,974768.865,4,500,,
trial,html.Screen,10_16_0,2023-11-17T18:49:28.167Z,,,,1,-0.0277178575053843,0.0395587463147856,,0.05,false,hl,4108.435000071535,response,1.0115965332688306,0.9891673929333976,-0.9848319845309389,-0.8282633603842442,1.1316271185480473,-1.127171490163582,high,low,,ISIC_0010807.JPG,9,ISIC_1069587.JPG,25,false,0.31000000000000016,hh,keypress(i),0,false,978877.4000000954,978877.3000000715,974752.31,974845.9000000954,974768.865,978802.566,4,500,17,
break,html.Screen,10_16_1,2023-11-17T18:49:28.167Z,,,,,,,,,,,NaN,,,,,,,,high,low,,,,,,false,,,,,false,978877.7000000477,978877.6000000238,,978877.4000000954,,978802.566,4,500,,
break_continue,html.Screen,10_16_2,2023-11-17T18:49:28.168Z,,,,,,,,,,,NaN,,,,,,,,high,low,,,,,,false,,,,,false,978877.9000000954,978877.9000000954,,978877.7000000477,,978802.566,4,500,,
sequence,flow.Sequence,10_16,2023-11-17T18:49:28.168Z,,,,,,,,,,,4109.035000095377,completion,,,,,,,high,low,,,,,,false,,,,,false,978878,978877.9000000954,974752.31,974845.8000000715,974768.865,978802.566,4,500,,
trial,html.Screen,10_17_0,2023-11-17T18:49:30.646Z,,,,1,0.0069555338059566,-0.0310100918136373,,0.05,true,ll,2554.134000047692,response,-0.9008266293518152,0.9891673929333976,-0.9848319845309389,-1.180104759344151,1.1316271185480473,-1.127171490163582,low,low,,ISIC_0011177.JPG,8,ISIC_0025702.JPG,33,false,0.11,ll,keypress(f),0,false,981356.8000000715,981356.7000000477,978785.365,978878,978802.566,981286.736,4,500,18,
break,html.Screen,10_17_1,2023-11-17T18:49:30.647Z,,,,,,,,,,,NaN,,,,,,,,low,low,,,,,,false,,,,,false,981357.1000000238,981357.1000000238,,981356.9000000954,,981286.736,4,500,,
break_continue,html.Screen,10_17_2,2023-11-17T18:49:30.647Z,,,,,,,,,,,NaN,,,,,,,,low,low,,,,,,false,,,,,false,981357.3000000715,981357.3000000715,,981357.2000000477,,981286.736,4,500,,
sequence,flow.Sequence,10_17,2023-11-17T18:49:30.647Z,,,,,,,,,,,2554.734000071534,completion,,,,,,,low,low,,,,,,false,,,,,false,981357.4000000954,981357.3000000715,978785.365,978878,978802.566,981286.736,4,500,,
trial,html.Screen,10_18_0,2023-11-17T18:49:38.295Z,,,,1,-0.0409338693593207,0.0072462710499874,,0.05,false,hh,7718.664000095334,response,0.9342143229318964,0.9891673929333976,-0.9848319845309389,1.195482218669593,1.1316271185480473,-1.127171490163582,high,high,,ISIC_3608788.JPG,9,ISIC_8073555.JPG,31,false,0.1,lh,keypress(e),0,false,989005.5,989005.4000000954,981252.228,981357.5,981286.736,988918.707,4,500,19,
break,html.Screen,10_18_1,2023-11-17T18:49:38.295Z,,,,,,,,,,,NaN,,,,,,,,high,high,,,,,,false,,,,,false,989005.8000000715,989005.8000000715,,989005.6000000238,,988918.707,4,500,,
break_continue,html.Screen,10_18_2,2023-11-17T18:49:38.296Z,,,,,,,,,,,NaN,,,,,,,,high,high,,,,,,false,,,,,false,989006.1000000238,989005.9000000954,,989005.9000000954,,988918.707,4,500,,
sequence,flow.Sequence,10_18,2023-11-17T18:49:38.296Z,,,,,,,,,,,7719.164000095334,completion,,,,,,,high,high,,,,,,false,,,,,false,989006.1000000238,989005.9000000954,981252.228,981357.4000000954,981286.736,988918.707,4,500,,
trial,html.Screen,10_19_0,2023-11-17T18:49:43.079Z,,,,1,0.0329095507339554,-0.0382899749693245,,0.05,false,hl,4870.693000095314,response,0.7118141631588264,0.9891673929333976,-0.9848319845309389,-1.0369885917487718,1.1316271185480473,-1.127171490163582,high,low,,ISIC_8812781.JPG,9,ISIC_6917681.JPG,25,false,0.31000000000000016,ll,keypress(f),0,false,993789.5,993789.4000000954,988902.54,989006.1000000238,988918.707,993702.061,4,500,20,
break,html.Screen,10_19_1,2023-11-17T18:49:43.079Z,,,,,,,,,,,NaN,,,,,,,,high,low,,,,,,false,,,,,false,993789.8000000715,993789.8000000715,,993789.7000000477,,993702.061,4,500,,
break_continue,html.Screen,10_19_2,2023-11-17T18:49:43.080Z,,,,,,,,,,,NaN,,,,,,,,high,low,,,,,,false,,,,,false,993790,993789.9000000954,,993789.9000000954,,993702.061,4,500,,
sequence,flow.Sequence,10_19,2023-11-17T18:49:43.080Z,,,,,,,,,,,4871.193000095314,completion,,,,,,,high,low,,,,,,false,,,,,false,993790,993789.9000000954,988902.54,989006.1000000238,988918.707,993702.061,4,500,,
trial,html.Screen,10_20_0,2023-11-17T18:49:49.047Z,,,,1,0.007397293189458,0.0174716772037504,,0.05,false,hl,6055.439000000013,response,1.0115965332688306,0.9891673929333976,-0.9848319845309389,-0.8282633603842442,1.1316271185480473,-1.127171490163582,high,low,,ISIC_0056226.JPG,9,ISIC_1069587.JPG,25,false,0.31000000000000016,hh,keypress(i),0,false,999757.5,999757.5,993685.766,993790.1000000238,993702.061,999685.486,4,500,21,
break,html.Screen,10_20_1,2023-11-17T18:49:49.048Z,,,,,,,,,,,NaN,,,,,,,,high,low,,,,,,false,,,,,false,999758.3000000715,999758.2000000477,,999757.7000000477,,999685.486,4,500,,
break_continue,html.Screen,10_20_2,2023-11-17T18:49:49.048Z,,,,,,,,,,,NaN,,,,,,,,high,low,,,,,,false,,,,,false,999758.4000000954,999758.4000000954,,999758.3000000715,,999685.486,4,500,,
sequence,flow.Sequence,10_20,2023-11-17T18:49:49.048Z,,,,,,,,,,,6056.3390000953805,completion,,,,,,,high,low,,,,,,false,,,,,false,999758.5,999758.4000000954,993685.766,993790.1000000238,993702.061,999685.486,4,500,,
trial,html.Screen,10_21_0,2023-11-17T18:49:51.063Z,,,,1,-0.013431314305098,0.0140597582944232,,0.05,true,ll,2087.314000071492,response,-0.9840050049609405,0.9891673929333976,-0.9848319845309389,-1.160746324899676,1.1316271185480473,-1.127171490163582,low,low,,ISIC_0069617.JPG,9,ISIC_8651053.JPG,33,false,0.11,ll,keypress(f),0,false,1001772.9000000954,1001772.8000000715,999668.819,999758.5,999685.486,1001685.404,4,500,22,
break,html.Screen,10_21_1,2023-11-17T18:49:51.063Z,,,,,,,,,,,NaN,,,,,,,,low,low,,,,,,false,,,,,false,1001773.2000000477,1001773.1000000238,,1001773,,1001685.404,4,500,,
break_continue,html.Screen,10_21_2,2023-11-17T18:49:51.063Z,,,,,,,,,,,NaN,,,,,,,,low,low,,,,,,false,,,,,false,1001773.4000000954,1001773.3000000715,,1001773.2000000477,,1001685.404,4,500,,
sequence,flow.Sequence,10_21,2023-11-17T18:49:51.063Z,,,,,,,,,,,2087.814000071492,completion,,,,,,,low,low,,,,,,false,,,,,false,1001773.5,1001773.3000000715,999668.819,999758.5,999685.486,1001685.404,4,500,,
trial,html.Screen,10_22_0,2023-11-17T18:49:54.567Z,,,,1,0.0085520978188085,-0.0464691161264081,,0.05,false,lh,3591.6960000238614,response,-1.2075172235545184,0.9891673929333976,-0.9848319845309389,0.9116724966267612,1.1316271185480473,-1.127171490163582,low,high,,ISIC_0758797.JPG,9,ISIC_0024235.JPG,25,false,0.2500000000000001,ll,keypress(f),0,false,1005277.2000000477,1005277.1000000238,1001669.189,1001773.5,1001685.404,1005202.078,4,500,23,
break,html.Screen,10_22_1,2023-11-17T18:49:54.567Z,,,,,,,,,,,NaN,,,,,,,,low,high,,,,,,false,,,,,false,1005277.6000000238,1005277.4000000954,,1005277.3000000715,,1005202.078,4,500,,
break_continue,html.Screen,10_22_2,2023-11-17T18:49:54.567Z,,,,,,,,,,,NaN,,,,,,,,low,high,,,,,,false,,,,,false,1005277.7000000477,1005277.7000000477,,1005277.6000000238,,1005202.078,4,500,,
sequence,flow.Sequence,10_22,2023-11-17T18:49:54.567Z,,,,,,,,,,,3592.2960000477033,completion,,,,,,,low,high,,,,,,false,,,,,false,1005277.8000000715,1005277.7000000477,1001669.189,1001773.5,1001685.404,1005202.078,4,500,,
trial,html.Screen,10_23_0,2023-11-17T18:49:59.223Z,,,,1,0.0069555338059566,-0.0310100918136373,,0.05,false,hl,4731.4220000000205,response,0.9235571765207048,0.9891673929333976,-0.9848319845309389,-1.0008081653938232,1.1316271185480473,-1.127171490163582,high,low,,ISIC_0011177.JPG,10,ISIC_8796632.JPG,25,false,0.31000000000000016,hh,keypress(i),0,false,1009933.6000000238,1009933.5,1005185.662,1005277.9000000954,1005202.078,1009852.251,4,500,24,
break,html.Screen,10_23_1,2023-11-17T18:49:59.224Z,,,,,,,,,,,NaN,,,,,,,,high,low,,,,,,false,,,,,false,1009933.9000000954,1009933.8000000715,,1009933.7000000477,,1009852.251,4,500,,
break_continue,html.Screen,10_23_2,2023-11-17T18:49:59.224Z,,,,,,,,,,,NaN,,,,,,,,high,low,,,,,,false,,,,,false,1009934.1000000238,1009934,,1009934,,1009852.251,4,500,,
sequence,flow.Sequence,10_23,2023-11-17T18:49:59.224Z,,,,,,,,,,,4731.9220000000205,completion,,,,,,,high,low,,,,,,false,,,,,false,1009934.2000000477,1009934,1005185.662,1005277.9000000954,1005202.078,1009852.251,4,500,,
trial,html.Screen,10_24_0,2023-11-17T18:50:05.207Z,,,,1,0.0107854985447517,0.0478010417136109,,0.05,true,ll,6064.449000047636,response,-0.9607077625123552,0.9891673929333976,-0.9848319845309389,-1.0682608339754711,1.1316271185480473,-1.127171490163582,low,low,,ISIC_0010500.JPG,10,ISIC_0064763.JPG,33,false,0.11,ll,keypress(f),0,false,1015916.8000000715,1015916.7000000477,1009835.846,1009934.2000000477,1009852.251,1015835.615,4,500,25,
break,html.Screen,10_24_1,2023-11-17T18:50:05.207Z,,,,,,,,,,,NaN,,,,,,,,low,low,,,,,,false,,,,,false,1015917.1000000238,1015917.1000000238,,1015916.9000000954,,1015835.615,4,500,,
break_continue,html.Screen,10_24_2,2023-11-17T18:50:05.207Z,,,,,,,,,,,NaN,,,,,,,,low,low,,,,,,false,,,,,false,1015917.3000000715,1015917.3000000715,,1015917.2000000477,,1015835.615,4,500,,
sequence,flow.Sequence,10_24,2023-11-17T18:50:05.207Z,,,,,,,,,,,6065.049000071478,completion,,,,,,,low,low,,,,,,false,,,,,false,1015917.4000000954,1015917.3000000715,1009835.846,1009934.2000000477,1009852.251,1015835.615,4,500,,
trial,html.Screen,10_25_0,2023-11-17T18:50:11.687Z,,,,1,-0.0362376068089956,-0.047825070846155,,0.05,false,hh,6561.285000095377,response,1.0525532302758762,0.9891673929333976,-0.9848319845309389,1.1628982512509805,1.1316271185480473,-1.127171490163582,high,high,,ISIC_6985114.JPG,9,ISIC_0033428.JPG,31,false,0.1,hl,keypress(j),0,false,1022397,1022396.9000000954,1015818.659,1015917.4000000954,1015835.615,1022318.803,4,500,26,
break,html.Screen,10_25_1,2023-11-17T18:50:11.687Z,,,,,,,,,,,NaN,,,,,,,,high,high,,,,,,false,,,,,false,1022397.3000000715,1022397.3000000715,,1022397.1000000238,,1022318.803,4,500,,
break_continue,html.Screen,10_25_2,2023-11-17T18:50:11.687Z,,,,,,,,,,,NaN,,,,,,,,high,high,,,,,,false,,,,,false,1022397.5,1022397.4000000954,,1022397.4000000954,,1022318.803,4,500,,
sequence,flow.Sequence,10_25,2023-11-17T18:50:11.687Z,,,,,,,,,,,6561.785000095377,completion,,,,,,,high,high,,,,,,false,,,,,false,1022397.6000000238,1022397.4000000954,1015818.659,1015917.4000000954,1015835.615,1022318.803,4,500,,
trial,html.Screen,10_26_0,2023-11-17T18:50:18.423Z,,,,1,0.0389988030702649,0.0143212271490256,,0.05,true,hh,6814.697000000044,response,0.8942749799405368,0.9891673929333976,-0.9848319845309389,1.2228671360399193,1.1316271185480473,-1.127171490163582,high,high,,ISIC_0064669.JPG,9,ISIC_0033194.JPG,31,false,0.1,hh,keypress(i),0,false,1029133.6000000238,1029133.5,1022302.147,1022397.7000000477,1022318.803,1029052.05,4,500,27,
break,html.Screen,10_26_1,2023-11-17T18:50:18.424Z,,,,,,,,,,,NaN,,,,,,,,high,high,,,,,,false,,,,,false,1029133.9000000954,1029133.8000000715,,1029133.6000000238,,1029052.05,4,500,,
break_continue,html.Screen,10_26_2,2023-11-17T18:50:18.424Z,,,,,,,,,,,NaN,,,,,,,,high,high,,,,,,false,,,,,false,1029134,1029134,,1029133.9000000954,,1029052.05,4,500,,
sequence,flow.Sequence,10_26,2023-11-17T18:50:18.424Z,,,,,,,,,,,6815.197000000044,completion,,,,,,,high,high,,,,,,false,,,,,false,1029134.1000000238,1029134,1022302.147,1022397.7000000477,1022318.803,1029052.05,4,500,,
trial,html.Screen,10_27_0,2023-11-17T18:50:26.263Z,,,,1,-0.0102460616775615,0.0309670599545429,,0.05,false,hl,7921.449999999953,response,0.7833710010171356,0.9891673929333976,-0.9848319845309389,-0.9315588090336896,1.1316271185480473,-1.127171490163582,high,low,,ISIC_0072041.JPG,8,ISIC_3826102.JPG,25,false,0.31000000000000016,lh,keypress(e),0,false,1036973.6000000238,1036973.5,1029035.711,1029134.2000000477,1029052.05,1036902.696,4,500,28,
break,html.Screen,10_27_1,2023-11-17T18:50:26.264Z,,,,,,,,,,,NaN,,,,,,,,high,low,,,,,,false,,,,,false,1036973.8000000715,1036973.8000000715,,1036973.7000000477,,1036902.696,4,500,,
break_continue,html.Screen,10_27_2,2023-11-17T18:50:26.264Z,,,,,,,,,,,NaN,,,,,,,,high,low,,,,,,false,,,,,false,1036974.1000000238,1036974,,1036973.9000000954,,1036902.696,4,500,,
sequence,flow.Sequence,10_27,2023-11-17T18:50:26.264Z,,,,,,,,,,,7921.949999999953,completion,,,,,,,high,low,,,,,,false,,,,,false,1036974.1000000238,1036974,1029035.711,1029134.1000000238,1029052.05,1036902.696,4,500,,
trial,html.Screen,10_28_0,2023-11-17T18:50:30.567Z,,,,1,0.007397293189458,0.0174716772037504,,0.05,false,hh,4374.104000071529,response,1.0525532302758762,0.9891673929333976,-0.9848319845309389,1.1628982512509805,1.1316271185480473,-1.127171490163582,high,high,,ISIC_0056226.JPG,9,ISIC_0033428.JPG,31,false,0.1,ll,keypress(f),0,false,1041276.9000000954,1041276.8000000715,1036868.561,1036974.2000000477,1036902.696,1041202.511,4,500,29,
break,html.Screen,10_28_1,2023-11-17T18:50:30.567Z,,,,,,,,,,,NaN,,,,,,,,high,high,,,,,,false,,,,,false,1041277.1000000238,1041277,,1041276.9000000954,,1041202.511,4,500,,
break_continue,html.Screen,10_28_2,2023-11-17T18:50:30.567Z,,,,,,,,,,,NaN,,,,,,,,high,high,,,,,,false,,,,,false,1041277.4000000954,1041277.3000000715,,1041277.2000000477,,1041202.511,4,500,,
sequence,flow.Sequence,10_28,2023-11-17T18:50:30.567Z,,,,,,,,,,,4374.604000071529,completion,,,,,,,high,high,,,,,,false,,,,,false,1041277.4000000954,1041277.3000000715,1036868.561,1036974.1000000238,1036902.696,1041202.511,4,500,,
trial,html.Screen,10_29_0,2023-11-17T18:50:36.023Z,,,,1,-0.0409338693593207,0.0072462710499874,,0.05,true,hh,5530.689000047627,response,1.0698162624196283,0.9891673929333976,-0.9848319845309389,1.219634566983089,1.1316271185480473,-1.127171490163582,high,high,,ISIC_3608788.JPG,9,ISIC_0030552.JPG,31,false,0.1,hh,keypress(i),0,false,1046733.3000000715,1046733.2000000477,1041185.744,1041277.4000000954,1041202.511,1046652.097,4,500,30,
break,html.Screen,10_29_1,2023-11-17T18:50:36.023Z,,,,,,,,,,,NaN,,,,,,,,high,high,,,,,,false,,,,,false,1046733.6000000238,1046733.5,,1046733.3000000715,,1046652.097,4,500,,
break_continue,html.Screen,10_29_2,2023-11-17T18:50:36.024Z,,,,,,,,,,,NaN,,,,,,,,high,high,,,,,,false,,,,,false,1046733.8000000715,1046733.7000000477,,1046733.6000000238,,1046652.097,4,500,,
sequence,flow.Sequence,10_29,2023-11-17T18:50:36.024Z,,,,,,,,,,,5531.189000047627,completion,,,,,,,high,high,,,,,,false,,,,,false,1046733.8000000715,1046733.7000000477,1041185.744,1041277.4000000954,1041202.511,1046652.097,4,500,,
trial,html.Screen,10_30_0,2023-11-17T18:50:40.519Z,,,,1,0.039728379742806,-0.0228701131373768,,0.05,false,lh,4577.103000047733,response,-0.858338058340649,0.9891673929333976,-0.9848319845309389,0.9540612223480284,1.1316271185480473,-1.127171490163582,low,high,,ISIC_0054073.JPG,9,ISIC_8922893.JPG,25,false,0.2500000000000001,hl,keypress(j),0,false,1051229.3000000715,1051229.2000000477,1046635.371,1046733.8000000715,1046652.097,1051169.175,4,500,31,
break,html.Screen,10_30_1,2023-11-17T18:50:40.519Z,,,,,,,,,,,NaN,,,,,,,,low,high,,,,,,false,,,,,false,1051229.6000000238,1051229.6000000238,,1051229.5,,1051169.175,4,500,,
break_continue,html.Screen,10_30_2,2023-11-17T18:50:40.520Z,,,,,,,,,,,NaN,,,,,,,,low,high,,,,,,false,,,,,false,1051229.8000000715,1051229.7000000477,,1051229.7000000477,,1051169.175,4,500,,
sequence,flow.Sequence,10_30,2023-11-17T18:50:40.520Z,,,,,,,,,,,4577.603000047733,completion,,,,,,,low,high,,,,,,false,,,,,false,1051229.8000000715,1051229.7000000477,1046635.371,1046733.8000000715,1046652.097,1051169.175,4,500,,
trial,html.Screen,10_31_0,2023-11-17T18:50:56.532Z,,,,1,0.0085520978188085,-0.0464691161264081,,0.05,,,16016.22900000005,timeout,-1.2075172235545184,0.9891673929333976,-0.9848319845309389,0.9116724966267612,1.1316271185480473,-1.127171490163582,low,high,,ISIC_0758797.JPG,10,ISIC_0024235.JPG,25,false,0.2500000000000001,,,0,false,1067242.4000000954,1067242.3000000715,1051152.081,1051229.9000000954,1051169.175,1067185.404,4,500,32,
break,html.Screen,10_31_1,2023-11-17T18:50:56.533Z,,,,,,,,,,,NaN,,,,,,,,low,high,,,,,,false,,,,,false,1067242.7000000477,1067242.7000000477,,1067242.6000000238,,1067185.404,4,500,,
break_continue,html.Screen,10_31_2,2023-11-17T18:50:56.533Z,,,,,,,,,,,NaN,,,,,,,,low,high,,,,,,false,,,,,false,1067242.9000000954,1067242.8000000715,,1067242.8000000715,,1067185.404,4,500,,
sequence,flow.Sequence,10_31,2023-11-17T18:50:56.533Z,,,,,,,,,,,16073.625000071479,completion,,,,,,,low,high,,,,,,false,,,,,false,1067242.9000000954,1067242.8000000715,1051152.081,1051229.8000000715,1051169.175,1067185.404,4,500,,
trial,html.Screen,10_32_0,2023-11-17T18:51:03.624Z,,,,1,-0.0113873532168551,-0.0054999201556291,,0.05,true,hl,7147.996000095271,response,0.8947611078712571,0.9891673929333976,-0.9848319845309389,-0.8960964505004638,1.1316271185480473,-1.127171490163582,high,low,,ISIC_8812621.JPG,8,ISIC_6441128.JPG,25,false,0.31000000000000016,hl,keypress(j),0,false,1074333.6000000238,1074333.4000000954,1067169.17,1067242.9000000954,1067185.404,1074252.028,4,500,33,
break,html.Screen,10_32_1,2023-11-17T18:51:03.624Z,,,,,,,,,,,NaN,,,,,,,,high,low,,,,,,false,,,,,false,1074333.8000000715,1074333.8000000715,,1074333.6000000238,,1074252.028,4,500,,
break_continue,html.Screen,10_32_2,2023-11-17T18:51:03.624Z,,,,,,,,,,,NaN,,,,,,,,high,low,,,,,,false,,,,,false,1074334.1000000238,1074334,,1074333.8000000715,,1074252.028,4,500,,
sequence,flow.Sequence,10_32,2023-11-17T18:51:03.624Z,,,,,,,,,,,7148.595999999903,completion,,,,,,,high,low,,,,,,false,,,,,false,1074334.1000000238,1074334,1067169.17,1067242.9000000954,1067185.404,1074252.028,4,500,,
trial,html.Screen,10_33_0,2023-11-17T18:51:05.959Z,,,,1,-0.0102460616775615,0.0309670599545429,,0.05,false,lh,2417.2720000715926,response,-1.2331439637486756,0.9891673929333976,-0.9848319845309389,0.9691143900156988,1.1316271185480473,-1.127171490163582,low,high,,ISIC_0072041.JPG,8,ISIC_7877488.JPG,25,false,0.2500000000000001,ll,keypress(f),0,false,1076669.4000000954,1076669.3000000715,1074235.293,1074334.1000000238,1074252.028,1076585.361,4,500,34,
break,html.Screen,10_33_1,2023-11-17T18:51:05.960Z,,,,,,,,,,,NaN,,,,,,,,low,high,,,,,,false,,,,,false,1076669.6000000238,1076669.6000000238,,1076669.5,,1076585.361,4,500,,
break_continue,html.Screen,10_33_2,2023-11-17T18:51:05.960Z,,,,,,,,,,,NaN,,,,,,,,low,high,,,,,,false,,,,,false,1076669.9000000954,1076669.8000000715,,1076669.7000000477,,1076585.361,4,500,,
sequence,flow.Sequence,10_33,2023-11-17T18:51:05.960Z,,,,,,,,,,,2417.7720000715926,completion,,,,,,,low,high,,,,,,false,,,,,false,1076669.9000000954,1076669.8000000715,1074235.293,1074334.1000000238,1074252.028,1076585.361,4,500,,
trial,html.Screen,10_34_0,2023-11-17T18:51:11.896Z,,,,1,,-0.0264544974620926,,0.05,false,ll,6020.33900004765,response,-0.936668460603038,0.9891673929333976,-0.9848319845309389,-1.058142123525081,1.1316271185480473,-1.127171490163582,low,low,,ISIC_0056991.JPG,8,ISIC_5046340.JPG,33,false,0.11,hh,keypress(i),0,false,1082605.7000000477,1082605.7000000477,1076568.62,1076670,1076585.361,1082518.721,4,500,35,
break,html.Screen,10_34_1,2023-11-17T18:51:11.896Z,,,,,,,,,,,NaN,,,,,,,,low,low,,,,,,false,,,,,false,1082606,1082605.9000000954,,1082605.8000000715,,1082518.721,4,500,,
break_continue,html.Screen,10_34_2,2023-11-17T18:51:11.896Z,,,,,,,,,,,NaN,,,,,,,,low,low,,,,,,false,,,,,false,1082606.2000000477,1082606.1000000238,,1082606.1000000238,,1082518.721,4,500,,
sequence,flow.Sequence,10_34,2023-11-17T18:51:11.896Z,,,,,,,,,,,6020.739000023808,completion,,,,,,,low,low,,,,,,false,,,,,false,1082606.2000000477,1082606.1000000238,1076568.62,1076669.9000000954,1076585.361,1082518.721,4,500,,
trial,html.Screen,10_35_0,2023-11-17T18:51:14.184Z,,,,1,0.0363437082783146,0.0333332186217051,,0.05,false,lh,2374.8790000239387,response,-1.0143509683988825,0.9891673929333976,-0.9848319845309389,1.3163955902021656,1.1316271185480473,-1.127171490163582,low,high,,ISIC_3314555.JPG,8,ISIC_0062031.JPG,25,false,0.2500000000000001,hh,keypress(i),0,false,1084893.6000000238,1084893.6000000238,1082502.289,1082606.3000000715,1082518.721,1084819.16,4,500,36,
break,html.Screen,10_35_1,2023-11-17T18:51:14.184Z,,,,,,,,,,,NaN,,,,,,,,low,high,,,,,,false,,,,,false,1084894,1084893.9000000954,,1084893.8000000715,,1084819.16,4,500,,
break_continue,html.Screen,10_35_2,2023-11-17T18:51:14.184Z,,,,,,,,,,,NaN,,,,,,,,low,high,,,,,,false,,,,,false,1084894.1000000238,1084894.1000000238,,1084894,,1084819.16,4,500,,
sequence,flow.Sequence,10_35,2023-11-17T18:51:14.184Z,,,,,,,,,,,2375.3790000239387,completion,,,,,,,low,high,,,,,,false,,,,,false,1084894.2000000477,1084894.1000000238,1082502.289,1082606.2000000477,1082518.721,1084819.16,4,500,,
trial,html.Screen,10_36_0,2023-11-17T18:51:17.176Z,,,,1,0.0450282431170921,,,0.05,false,lh,3066.340000000084,response,-1.2075172235545184,0.9891673929333976,-0.9848319845309389,0.9116724966267612,1.1316271185480473,-1.127171490163582,low,high,,ISIC_1805163.JPG,8,ISIC_0024235.JPG,25,false,0.2500000000000001,ll,keypress(f),0,false,1087885.6000000238,1087885.5,1084802.229,1084894.3000000715,1084819.16,1087802.193,4,500,37,
break,html.Screen,10_36_1,2023-11-17T18:51:17.176Z,,,,,,,,,,,NaN,,,,,,,,low,high,,,,,,false,,,,,false,1087885.9000000954,1087885.8000000715,,1087885.7000000477,,1087802.193,4,500,,
break_continue,html.Screen,10_36_2,2023-11-17T18:51:17.176Z,,,,,,,,,,,NaN,,,,,,,,low,high,,,,,,false,,,,,false,1087886,1087885.9000000954,,1087885.9000000954,,1087802.193,4,500,,
sequence,flow.Sequence,10_36,2023-11-17T18:51:17.176Z,,,,,,,,,,,3066.7400000954513,completion,,,,,,,low,high,,,,,,false,,,,,false,1087886.1000000238,1087885.9000000954,1084802.229,1084894.2000000477,1084819.16,1087802.193,4,500,,
trial,html.Screen,10_37_0,2023-11-17T18:51:21.479Z,,,,1,0.007397293189458,0.0174716772037504,,0.05,true,ll,4387.207000095397,response,-0.913084438298574,0.9891673929333976,-0.9848319845309389,-1.135180301076722,1.1316271185480473,-1.127171490163582,low,low,,ISIC_0056226.JPG,9,ISIC_8637134.JPG,33,false,0.11,ll,keypress(f),0,false,1092189.4000000954,1092189.4000000954,1087785.759,1087886.2000000477,1087802.193,1092102,4,500,38,
break,html.Screen,10_37_1,2023-11-17T18:51:21.480Z,,,,,,,,,,,NaN,,,,,,,,low,low,,,,,,false,,,,,false,1092189.7000000477,1092189.7000000477,,1092189.5,,1092102,4,500,,
break_continue,html.Screen,10_37_2,2023-11-17T18:51:21.480Z,,,,,,,,,,,NaN,,,,,,,,low,low,,,,,,false,,,,,false,1092189.9000000954,1092189.9000000954,,1092189.7000000477,,1092102,4,500,,
sequence,flow.Sequence,10_37,2023-11-17T18:51:21.480Z,,,,,,,,,,,4387.707000095397,completion,,,,,,,low,low,,,,,,false,,,,,false,1092189.9000000954,1092189.9000000954,1087785.759,1087886.2000000477,1087802.193,1092102,4,500,,
trial,html.Screen,10_38_0,2023-11-17T18:51:23.687Z,,,,1,-0.0051189696037511,0.0396625911332438,,0.05,false,hl,2294.5,response,0.8035152873995188,0.9891673929333976,-0.9848319845309389,-0.82868450251632,1.1316271185480473,-1.127171490163582,high,low,,ISIC_9742891.JPG,9,ISIC_0010671.JPG,25,false,0.31000000000000016,hh,keypress(i),0,false,1094396.6000000238,1094396.5,1092085.494,1092190.1000000238,1092102,1094319.145,4,500,39,
