sender,sender_type,sender_id,timestamp,meta,,age,blockNo,c1,c2,condition,control_tolerance,correct,correctResponse,duration,ended_on,f1,f1_high,f1_low,f2,f2_high,f2_low,feature_level1,feature_level2,gender,img_left,img_reveal,img_right,n_target_images,practice,range_tolerance,response,response_action,selection_duration,staircase,time_commit,time_end,time_render,time_run,time_show,time_switch,total_blocks,total_trials,trialNo,url
informed_consent,html.Screen,0,2023-11-17T18:33:58.519Z,"{""labjs_version"":""20.2.4"",""labjs_build"":{""flavor"":""development"",""commit"":""f5b4a49f956347addd546a832a3327688c2c0fef""},""location"":""https://labjs.felixhenninger.com/api/labjs_preview/index.html"",""userAgent"":""Mozilla/5.0 (Windows NT 10.0; Win64; x64) AppleWebKit/537.36 (KHTML, like Gecko) Chrome/119.0.0.0 Safari/537.36"",""platform"":""Win32"",""language"":""en-US"",""locale"":""en-US"",""timeZone"":""America/Chicago"",""timezoneOffset"":360,""screen_width"":1920,""screen_height"":1080,""scroll_width"":945,""scroll_height"":918,""window_innerWidth"":945,""window_innerHeight"":966,""devicePixelRatio"":1}",,,,,,,,,,26067.435999964237,response,,,,,,,,,,,,,,,,consent,click button,,,26645.19999998808,26636.099999964237,551.991,749.5,568.664,26461.216,,,,{}
Demography form,html.Form,1,2023-11-17T18:34:21.824Z,,,18,,,,,,,,23487.48399998808,form submission,,,,,,,,,female,,,,,,,,,,,49948.799999952316,49948.69999998808,26444.797,26645.5,26461.216,49767.946,,,,
Welcome,html.Screen,2,2023-11-17T18:34:39.151Z,,,,,,,"[""asym"",""bor""]",,,,17508.053999999996,response,,,,,,,,,,,,,,,,continue,click button,,,67276.5,67276,49751.2,49949,49767.946,67118.766,,,,
demo_instructions,html.Screen,3,2023-11-17T18:34:46.927Z,,,,,,,,,,,7933.533999952313,response,,,,,,,,,,,,,,,,continue,click button,,,75052.79999995232,75052.29999995232,67102.085,67276.59999996424,67118.766,74893.047,,,,
trial,html.Screen,4_0_0,2023-11-17T18:34:57.322Z,,,,0,1.0022829373011404,-0.8311726972863814,,,true,lh,10554.25299995231,response,-1.0751036484083878,1.2,-1.2,1.143906455483852,1.2,-1.2,low,high,,ISIC_0033287.JPG,,ISIC_0064406.JPG,26,true,0.3600000000000002,lh,keypress(e),100,false,85447.39999997616,85447.29999995232,74859.887,75053,74893.047,85286.94,1,16,1,
sequence,flow.Sequence,4_0,2023-11-17T18:34:57.322Z,,,,,,,,,,,10554.25299995231,completion,,,,,,,low,high,,,,,,true,,,,,false,85447.59999996424,85447.29999995232,74859.887,75053,74893.047,85286.94,1,16,,
trial,html.Screen,4_1_0,2023-11-17T18:35:12.573Z,,,,0,0.8035152873995188,-0.82868450251632,,,true,lh,15411.059999999998,response,-1.4747161152848791,1.2,-1.2,0.847048591307387,1.2,-1.2,low,high,,ISIC_0010671.JPG,,ISIC_0016092.JPG,33,true,0.42000000000000026,lh,keypress(e),100,false,100698.19999998808,100698,85270.118,85447.69999998808,85286.94,100535.573,1,16,2,
sequence,flow.Sequence,4_1,2023-11-17T18:35:12.573Z,,,,,,,,,,,15411.059999999998,completion,,,,,,,low,high,,,,,,true,,,,,false,100698.39999997616,100698,85270.118,85447.69999998808,85286.94,100535.573,1,16,,
trial,html.Screen,4_2_0,2023-11-17T18:35:20.113Z,,,,0,0.7870237732709365,-0.9172955251119376,,,true,lh,7702.926999999996,response,-0.8979276789594874,1.2,-1.2,0.925374811016654,1.2,-1.2,low,high,,ISIC_0057716.JPG,,ISIC_4208361.JPG,33,true,0.42000000000000026,lh,keypress(e),100,false,108238.69999998808,108238.5,100518.718,100698.5,100535.573,108076.35,1,16,3,
sequence,flow.Sequence,4_2,2023-11-17T18:35:20.114Z,,,,,,,,,,,7702.926999999996,completion,,,,,,,low,high,,,,,,true,,,,,false,108239,108238.5,100518.718,100698.39999997616,100535.573,108076.35,1,16,,
trial,html.Screen,4_3_0,2023-11-17T18:35:25.396Z,,,,0,0.9873794329144926,-0.7991077882008257,,,true,lh,5443.749999964231,response,-0.8534691366511764,1.2,-1.2,1.03975580494588,1.2,-1.2,low,high,,ISIC_0013498.JPG,,ISIC_0056788.JPG,33,true,0.42000000000000026,lh,keypress(e),100,false,113520.29999995232,113520.09999996424,108059.604,108239.09999996424,108076.35,113348.461,1,16,4,
sequence,flow.Sequence,4_3,2023-11-17T18:35:25.397Z,,,,,,,,,,,5443.749999964231,completion,,,,,,,low,high,,,,,,true,,,,,false,113520.59999996424,113520.09999996424,108059.604,108239.09999996424,108076.35,113348.461,1,16,,
trial,html.Screen,4_4_0,2023-11-17T18:35:30.313Z,,,,0,1.1383813631375823,1.1319312220332556,,,false,ll,5088.338999952321,response,-1.136807569070348,1.2,-1.2,-0.9216915307460268,1.2,-1.2,low,low,,ISIC_6227397.JPG,,ISIC_6006795.JPG,253,true,0.42000000000000026,lh,keypress(e),100,false,118436.89999997616,118436.79999995232,113331.675,113520.69999998808,113348.461,118270.05,1,16,5,
sequence,flow.Sequence,4_4,2023-11-17T18:35:30.313Z,,,,,,,,,,,5088.338999952321,completion,,,,,,,low,low,,,,,,true,,,,,false,118437.09999996424,118436.79999995232,113331.675,113520.69999998808,113348.461,118270.05,1,16,,
trial,html.Screen,4_5_0,2023-11-17T18:35:35.938Z,,,,0,1.2282561398079586,1.210457198775374,,,true,ll,5791.549999964234,response,-1.086647361897092,1.2,-1.2,-1.1528935990320313,1.2,-1.2,low,low,,ISIC_9141817.JPG,,ISIC_3505339.JPG,26,true,0.15000000000000002,ll,keypress(f),100,false,124061.79999995232,124061.59999996424,118253.141,118437.19999998808,118270.05,123892.232,1,16,6,
sequence,flow.Sequence,4_5,2023-11-17T18:35:35.938Z,,,,,,,,,,,5791.549999964234,completion,,,,,,,low,low,,,,,,true,,,,,false,124062.09999996424,124061.59999996424,118253.141,118437.19999998808,118270.05,123892.232,1,16,,
trial,html.Screen,4_6_0,2023-11-17T18:35:38.824Z,,,,0,1.1033977063872138,1.2513071571733083,,,true,ll,3056.1679999761545,response,-1.3189473926989124,1.2,-1.2,-1.0770264364718942,1.2,-1.2,low,low,,ISIC_0025472.JPG,,ISIC_6093728.JPG,26,true,0.15000000000000002,ll,keypress(f),100,false,126948.5,126948.39999997616,123875.422,124062.09999996424,123892.232,126778.432,1,16,7,
sequence,flow.Sequence,4_6,2023-11-17T18:35:38.825Z,,,,,,,,,,,3056.1679999761545,completion,,,,,,,low,low,,,,,,true,,,,,false,126948.79999995232,126948.39999997616,123875.422,124062.09999996424,123892.232,126778.432,1,16,,
trial,html.Screen,4_7_0,2023-11-17T18:35:41.827Z,,,,0,1.101214461533281,1.1849883512428183,,,true,ll,3172.9679999761574,response,-1.1598623261077452,1.2,-1.2,-1.203269031614007,1.2,-1.2,low,low,,ISIC_0064943.JPG,,ISIC_0002639.JPG,26,true,0.15000000000000002,ll,keypress(f),100,false,129951.59999996424,129951.39999997616,126761.684,126948.89999997616,126778.432,129781.317,1,16,8,
sequence,flow.Sequence,4_7,2023-11-17T18:35:41.828Z,,,,,,,,,,,3172.9679999761574,completion,,,,,,,low,low,,,,,,true,,,,,false,129951.79999995232,129951.39999997616,126761.684,126948.89999997616,126778.432,129781.317,1,16,,
trial,html.Screen,4_8_0,2023-11-17T18:35:44.910Z,,,,0,-0.869932994914832,0.8880533324432531,,,false,hl,3252.6830000000045,response,0.9388660854518424,1.2,-1.2,-0.79533948698576,1.2,-1.2,high,low,,ISIC_8617084.JPG,,ISIC_9291926.JPG,27,true,0.42000000000000026,ll,keypress(f),100,false,133034.09999996424,133034,129764.647,129951.79999995232,129781.317,132867.734,1,16,9,
sequence,flow.Sequence,4_8,2023-11-17T18:35:44.910Z,,,,,,,,,,,3252.6830000000045,completion,,,,,,,high,low,,,,,,true,,,,,false,133034.39999997616,133034,129764.647,129951.79999995232,129781.317,132867.734,1,16,,
trial,html.Screen,4_9_0,2023-11-17T18:35:55.654Z,,,,0,-0.879102500583965,1.0933081951979773,,,true,hl,10910.36599996424,response,1.276222161935671,1.2,-1.2,-0.9657780821973284,1.2,-1.2,high,low,,ISIC_0046223.JPG,,ISIC_6710411.JPG,27,true,0.42000000000000026,hl,keypress(j),100,false,143778.39999997616,143778.09999996424,132851.096,133034.5,132867.734,143611.828,1,16,10,
sequence,flow.Sequence,4_9,2023-11-17T18:35:55.655Z,,,,,,,,,,,10910.36599996424,completion,,,,,,,high,low,,,,,,true,,,,,false,143778.69999998808,143778.09999996424,132851.096,133034.5,132867.734,143611.828,1,16,,
trial,html.Screen,4_10_0,2023-11-17T18:36:00.190Z,,,,0,-0.879102500583965,1.0933081951979773,,,true,hl,4702.271999964229,response,1.0264463986917702,1.2,-1.2,-1.2804054832904397,1.2,-1.2,high,low,,ISIC_0046223.JPG,,ISIC_7889838.JPG,27,true,0.42000000000000026,hl,keypress(j),100,false,148314.09999996424,148314.09999996424,143595.134,143778.89999997616,143611.828,148149.929,1,16,11,
sequence,flow.Sequence,4_10,2023-11-17T18:36:00.190Z,,,,,,,,,,,4702.271999964229,completion,,,,,,,high,low,,,,,,true,,,,,false,148314.29999995232,148314.09999996424,143595.134,143778.79999995232,143611.828,148149.929,1,16,,
trial,html.Screen,4_11_0,2023-11-17T18:36:02.911Z,,,,0,-0.8534691366511764,1.03975580494588,,,true,hl,2884.6709999642335,response,0.809764442462202,1.2,-1.2,-1.005337148078696,1.2,-1.2,high,low,,ISIC_0056788.JPG,,ISIC_2379379.JPG,27,true,0.42000000000000026,hl,keypress(j),100,false,151034.69999998808,151034.59999996424,148133.028,148314.39999997616,148149.929,150869.114,1,16,12,
sequence,flow.Sequence,4_11,2023-11-17T18:36:02.911Z,,,,,,,,,,,2884.6709999642335,completion,,,,,,,high,low,,,,,,true,,,,,false,151034.89999997616,151034.59999996424,148133.028,148314.29999995232,148149.929,150869.114,1,16,,
trial,html.Screen,4_12_0,2023-11-17T18:36:09.955Z,,,,0,-1.1210325063849345,-1.1498648320956202,,,true,hh,7210.285999976157,response,1.2633172011126104,1.2,-1.2,1.0924307772114292,1.2,-1.2,high,high,,ISIC_0032162.JPG,,ISIC_0024929.JPG,245,true,0.3600000000000002,hh,keypress(i),100,false,158079.5,158079.39999997616,150852.39,151034.89999997616,150869.114,157909.492,1,16,13,
sequence,flow.Sequence,4_12,2023-11-17T18:36:09.956Z,,,,,,,,,,,7210.285999976157,completion,,,,,,,high,high,,,,,,true,,,,,false,158079.59999996424,158079.39999997616,150852.39,151034.89999997616,150869.114,157909.492,1,16,,
trial,html.Screen,4_13_0,2023-11-17T18:36:12.572Z,,,,0,-1.1388430156686884,-1.2700552354887775,,,true,hh,2786.5080000000016,response,1.0700930503975157,1.2,-1.2,1.2020012168275056,1.2,-1.2,high,high,,ISIC_9939653.JPG,,ISIC_0000022.JPG,53,true,0.15000000000000002,hh,keypress(i),100,false,160696.19999998808,160696,157892.77,158079.79999995232,157909.492,160528.836,1,16,14,
sequence,flow.Sequence,4_13,2023-11-17T18:36:12.572Z,,,,,,,,,,,2786.5080000000016,completion,,,,,,,high,high,,,,,,true,,,,,false,160696.5,160696,157892.77,158079.79999995232,157909.492,160528.836,1,16,,
trial,html.Screen,4_14_0,2023-11-17T18:36:14.937Z,,,,0,-1.0870240111136478,-1.332340670965917,,,true,hh,2532.063999976148,response,1.1512633312172555,1.2,-1.2,1.337709216648353,1.2,-1.2,high,high,,ISIC_0000660.JPG,,ISIC_6512653.JPG,53,true,0.15000000000000002,hh,keypress(i),100,false,163061,163060.89999997616,160512.128,160696.69999998808,160528.836,162897.824,1,16,15,
sequence,flow.Sequence,4_14,2023-11-17T18:36:14.937Z,,,,,,,,,,,2532.063999976148,completion,,,,,,,high,high,,,,,,true,,,,,false,163061.19999998808,163060.89999997616,160512.128,160696.69999998808,160528.836,162897.824,1,16,,
trial,html.Screen,4_15_0,2023-11-17T18:36:16.768Z,,,,0,-1.201100953917304,-1.1751492358160105,,,true,hh,1993.8759999880858,response,1.1877026569952844,1.2,-1.2,1.1604367569896263,1.2,-1.2,high,high,,ISIC_0647224.JPG,,ISIC_0064589.JPG,53,true,0.15000000000000002,hh,keypress(i),100,false,164891.89999997616,164891.69999998808,162881.128,163061.29999995232,162897.824,164733.046,1,16,16,
sequence,flow.Sequence,4_15,2023-11-17T18:36:16.768Z,,,,,,,,,,,1993.8759999880858,completion,,,,,,,high,high,,,,,,true,,,,,false,164892.09999996424,164891.69999998808,162881.128,163061.19999998808,162897.824,164733.046,1,16,,
demonstration_loop,flow.Loop,4,2023-11-17T18:36:16.768Z,,,,,,,,,,,89998.65299998807,completion,,,,,,,,,,,,,,true,,,,,false,164892.09999996424,164891.69999998808,74859.887,75053,74893.047,164733.046,1,16,,
practice_instructions,html.Screen,5,2023-11-17T18:36:19.057Z,,,,,,,,,,,2447.153999988077,response,,,,,,,,,,,,,,,,continue,click button,,,167180.79999995232,167180.19999998808,164716.331,164892.19999998808,164733.046,167018.617,,,,
trial,html.Screen,6_0_0,2023-11-17T18:36:28.436Z,,,,1,1.2915523362516486,1.1264977790562936,,,true,ll,9533.08299998808,response,-1.3189473926989124,1.2,-1.2,-1.0770264364718942,1.2,-1.2,low,low,,ISIC_0502582.JPG,,ISIC_6093728.JPG,26,true,0.15000000000000002,ll,keypress(f),0,false,176558.89999997616,176551.69999998808,167001.927,167180.89999997616,167018.617,176394.626,1,40,1,
sequence,flow.Sequence,6_0,2023-11-17T18:36:28.436Z,,,,,,,,,,,9533.08299998808,completion,,,,,,,low,low,,,,,,true,,,,,false,176559.09999996424,176551.69999998808,167001.927,167180.89999997616,167018.617,176394.626,1,40,,
trial,html.Screen,6_1_0,2023-11-17T18:36:35.114Z,,,,1,-1.2706447584800626,-1.0903308007916603,,,false,hh,6842.57399998809,response,1.2282561398079586,1.2,-1.2,1.210457198775374,1.2,-1.2,high,high,,ISIC_9425937.JPG,,ISIC_9141817.JPG,30,true,0.1,hl,keypress(j),0,false,183237.29999995232,183237.19999998808,176379.058,176559.09999996424,176394.626,183067.986,1,40,2,
sequence,flow.Sequence,6_1,2023-11-17T18:36:35.114Z,,,,,,,,,,,6842.57399998809,completion,,,,,,,high,high,,,,,,true,,,,,false,183237.39999997616,183237.19999998808,176379.058,176559.09999996424,176394.626,183067.986,1,40,,
trial,html.Screen,6_2_0,2023-11-17T18:36:47.370Z,,,,1,-0.9454713230140772,0.9245167441969216,,,false,hl,12425.213999988075,response,1.0115965332688306,1.2,-1.2,-0.8282633603842442,1.2,-1.2,high,low,,ISIC_9101055.JPG,,ISIC_1069587.JPG,27,true,0.42000000000000026,lh,keypress(e),0,false,195493.29999995232,195493.19999998808,183034.644,183237.39999997616,183067.986,195313.574,1,40,3,
sequence,flow.Sequence,6_2,2023-11-17T18:36:47.370Z,,,,,,,,,,,12425.213999988075,completion,,,,,,,high,low,,,,,,true,,,,,false,195493.29999995232,195493.19999998808,183034.644,183237.39999997616,183067.986,195313.574,1,40,,
trial,html.Screen,6_3_0,2023-11-17T18:36:54.514Z,,,,1,0.7870237732709365,-0.9172955251119376,,,true,lh,7323.225999952323,response,-0.869932994914832,1.2,-1.2,0.8880533324432531,1.2,-1.2,low,high,,ISIC_0057716.JPG,,ISIC_8617084.JPG,26,true,0.3600000000000002,lh,keypress(e),0,false,202636.89999997616,202636.79999995232,195296.653,195493.39999997616,195313.574,202454.038,1,40,4,
sequence,flow.Sequence,6_3,2023-11-17T18:36:54.514Z,,,,,,,,,,,7323.225999952323,completion,,,,,,,low,high,,,,,,true,,,,,false,202637.09999996424,202636.79999995232,195296.653,195493.39999997616,195313.574,202454.038,1,40,,
trial,html.Screen,6_4_0,2023-11-17T18:37:03.162Z,,,,1,1.0213365328004047,-1.088524359911891,,,false,lh,8830.661999988079,response,-1.0751036484083878,1.2,-1.2,1.143906455483852,1.2,-1.2,low,high,,ISIC_5434229.JPG,,ISIC_0064406.JPG,33,true,0.42000000000000026,hl,keypress(j),0,false,211284.69999998808,211284.69999998808,202437.467,202637.09999996424,202454.038,211112.82,1,40,5,
sequence,flow.Sequence,6_4,2023-11-17T18:37:03.162Z,,,,,,,,,,,8830.661999988079,completion,,,,,,,low,high,,,,,,true,,,,,false,211284.79999995232,211284.69999998808,202437.467,202637.09999996424,202454.038,211112.82,1,40,,
trial,html.Screen,6_5_0,2023-11-17T18:37:07.466Z,,,,1,1.2169050727663315,1.1067845563421794,,,true,ll,4475.879999988072,response,-1.35536833905707,1.2,-1.2,-1.0348000491894005,1.2,-1.2,low,low,,ISIC_7016261.JPG,,ISIC_2565154.JPG,253,true,0.42000000000000026,ll,keypress(f),0,false,215588.79999995232,215588.69999998808,211096.059,211284.89999997616,211112.82,215417.048,1,40,6,
sequence,flow.Sequence,6_5,2023-11-17T18:37:07.466Z,,,,,,,,,,,4475.879999988072,completion,,,,,,,low,low,,,,,,true,,,,,false,215588.89999997616,215588.69999998808,211096.059,211284.79999995232,211112.82,215417.048,1,40,,
trial,html.Screen,6_6_0,2023-11-17T18:37:16.282Z,,,,1,0.7833710010171356,-0.9315588090336896,,,false,lh,8987.95199999999,response,-1.2364994561934892,1.2,-1.2,0.9174173651516624,1.2,-1.2,low,high,,ISIC_3826102.JPG,,ISIC_3481133.JPG,26,true,0.3600000000000002,ll,keypress(f),0,false,224405.19999998808,224405,215400.269,215589,215417.048,224225.871,1,40,7,
sequence,flow.Sequence,6_6,2023-11-17T18:37:16.282Z,,,,,,,,,,,8987.95199999999,completion,,,,,,,low,high,,,,,,true,,,,,false,224405.29999995232,224405,215400.269,215589,215417.048,224225.871,1,40,,
trial,html.Screen,6_7_0,2023-11-17T18:37:22.515Z,,,,1,-1.0717785279820962,-1.1267239445830604,,,true,hh,6411.328999988065,response,0.9046170303418553,1.2,-1.2,0.8867328775712738,1.2,-1.2,high,high,,ISIC_9948815.JPG,,ISIC_0055759.JPG,339,true,0.42000000000000026,hh,keypress(i),0,false,230637.29999995232,230637.19999998808,224209.132,224405.39999997616,224225.871,230465.457,1,40,8,
sequence,flow.Sequence,6_7,2023-11-17T18:37:22.516Z,,,,,,,,,,,6411.328999988065,completion,,,,,,,high,high,,,,,,true,,,,,false,230637.59999996424,230637.19999998808,224209.132,224405.29999995232,224225.871,230465.457,1,40,,
trial,html.Screen,6_8_0,2023-11-17T18:37:31.212Z,,,,1,1.1033977063872138,1.2513071571733083,,,true,ll,8868.043000000005,response,-1.3411179702686655,1.2,-1.2,-1.255103311449152,1.2,-1.2,low,low,,ISIC_0025472.JPG,,ISIC_5611010.JPG,26,true,0.15000000000000002,ll,keypress(f),0,false,239333.79999995232,239333.5,230448.619,230637.69999998808,230465.457,239157.507,1,40,9,
sequence,flow.Sequence,6_8,2023-11-17T18:37:31.212Z,,,,,,,,,,,8868.043000000005,completion,,,,,,,low,low,,,,,,true,,,,,false,239334.09999996424,239333.5,230448.619,230637.59999996424,230465.457,239157.507,1,40,,
trial,html.Screen,6_9_0,2023-11-17T18:37:39.603Z,,,,1,1.2181031651370575,1.2158573487067317,,,false,ll,8567.292999952304,response,-1.0858641668099058,1.2,-1.2,-1.1638942560200525,1.2,-1.2,low,low,,ISIC_7242312.JPG,,ISIC_5439597.JPG,26,true,0.15000000000000002,lh,keypress(e),0,false,247724.89999997616,247724.79999995232,239140.632,239334.19999998808,239157.507,247565.865,1,40,10,
sequence,flow.Sequence,6_9,2023-11-17T18:37:39.603Z,,,,,,,,,,,8567.292999952304,completion,,,,,,,low,low,,,,,,true,,,,,false,247725.09999996424,247724.79999995232,239140.632,239334.19999998808,239157.507,247565.865,1,40,,
trial,html.Screen,6_10_0,2023-11-17T18:37:51.307Z,,,,1,0.9388660854518424,-0.79533948698576,,,false,lh,11863.234999964247,response,-1.2695509547992938,1.2,-1.2,0.9641099676945492,1.2,-1.2,low,high,,ISIC_9291926.JPG,,ISIC_0025841.JPG,26,true,0.3600000000000002,ll,keypress(f),0,false,259429.19999998808,259429.09999996424,247532.486,247725.19999998808,247565.865,259244.242,1,40,11,
sequence,flow.Sequence,6_10,2023-11-17T18:37:51.307Z,,,,,,,,,,,11863.234999964247,completion,,,,,,,low,high,,,,,,true,,,,,false,259429.19999998808,259429.09999996424,247532.486,247725.19999998808,247565.865,259244.242,1,40,,
trial,html.Screen,6_11_0,2023-11-17T18:37:57.500Z,,,,1,1.2923059965680113,1.222688159093534,,,true,ll,6377.15799997616,response,-1.2318069697449794,1.2,-1.2,-1.1703576816778267,1.2,-1.2,low,low,,ISIC_0072175.JPG,,ISIC_2732573.JPG,253,true,0.42000000000000026,ll,keypress(f),0,false,265621.5,265621.39999997616,259227.575,259429.29999995232,259244.242,265450.429,1,40,12,
sequence,flow.Sequence,6_11,2023-11-17T18:37:57.500Z,,,,,,,,,,,6377.15799997616,completion,,,,,,,low,low,,,,,,true,,,,,false,265621.6999999881,265621.39999997616,259227.575,259429.29999995232,259244.242,265450.429,1,40,,
trial,html.Screen,6_12_0,2023-11-17T18:38:03.579Z,,,,1,-1.0143509683988825,1.3163955902021656,,,false,hl,6250.370999952313,response,1.4092385398614515,1.2,-1.2,-1.3046237992197836,1.2,-1.2,high,low,,ISIC_0062031.JPG,,ISIC_7254359.JPG,27,true,0.42000000000000026,hh,keypress(i),0,false,271700.89999997616,271700.7999999523,265433.613,265621.89999997616,265450.429,271523.26,1,40,13,
sequence,flow.Sequence,6_12,2023-11-17T18:38:03.579Z,,,,,,,,,,,6250.370999952313,completion,,,,,,,high,low,,,,,,true,,,,,false,271701,271700.7999999523,265433.613,265621.89999997616,265450.429,271523.26,1,40,,
trial,html.Screen,6_13_0,2023-11-17T18:38:12.611Z,,,,1,-1.2706447584800626,-1.0903308007916603,,,false,hh,9209.93999998807,response,1.424229599097214,1.2,-1.2,1.3787622981285976,1.2,-1.2,high,high,,ISIC_9425937.JPG,,ISIC_0032872.JPG,245,true,0.3600000000000002,hl,keypress(j),0,false,280733.39999997616,280733.1999999881,271506.523,271701.1999999881,271523.26,280582.26,1,40,14,
sequence,flow.Sequence,6_13,2023-11-17T18:38:12.612Z,,,,,,,,,,,9209.93999998807,completion,,,,,,,high,high,,,,,,true,,,,,false,280733.6999999881,280733.1999999881,271506.523,271701.09999996424,271523.26,280582.26,1,40,,
trial,html.Screen,6_14_0,2023-11-17T18:38:16.571Z,,,,1,-1.2364994561934892,0.9174173651516624,,,false,hl,4110.839999964228,response,1.0213365328004047,1.2,-1.2,-1.088524359911891,1.2,-1.2,high,low,,ISIC_3481133.JPG,,ISIC_5434229.JPG,27,true,0.42000000000000026,hh,keypress(i),0,false,284693.2999999523,284693.09999996424,280532.221,280733.6999999881,280582.26,284519.656,1,40,15,
sequence,flow.Sequence,6_14,2023-11-17T18:38:16.572Z,,,,,,,,,,,4110.839999964228,completion,,,,,,,high,low,,,,,,true,,,,,false,284693.5,284693.09999996424,280532.221,280733.6999999881,280582.26,284519.656,1,40,,
trial,html.Screen,6_15_0,2023-11-17T18:38:27.901Z,,,,1,-1.2724584600905462,-1.1411016103695344,,,false,hh,11501.643999952299,response,0.958609763811768,1.2,-1.2,1.0650939066726144,1.2,-1.2,high,high,,ISIC_0059625.JPG,,ISIC_0070163.JPG,245,true,0.3600000000000002,ll,keypress(f),0,false,296021.39999997616,296021.2999999523,284502.9,284693.59999996424,284519.656,295847.541,1,40,16,
sequence,flow.Sequence,6_15,2023-11-17T18:38:27.901Z,,,,,,,,,,,11501.643999952299,completion,,,,,,,high,high,,,,,,true,,,,,false,296021.59999996424,296021.2999999523,284502.9,284693.59999996424,284519.656,295847.541,1,40,,
trial,html.Screen,6_16_0,2023-11-17T18:38:34.413Z,,,,1,0.991146183030456,-0.9949639823722534,,,false,lh,6685.858999976132,response,-1.2075172235545184,1.2,-1.2,0.9116724966267612,1.2,-1.2,low,high,,ISIC_6342224.JPG,,ISIC_0024235.JPG,26,true,0.3600000000000002,ll,keypress(f),0,false,302533.6999999881,302533.39999997616,295830.76,296021.7999999523,295847.541,302354.127,1,40,17,
sequence,flow.Sequence,6_16,2023-11-17T18:38:34.413Z,,,,,,,,,,,6685.858999976132,completion,,,,,,,low,high,,,,,,true,,,,,false,302534,302533.39999997616,295830.76,296021.7999999523,295847.541,302354.127,1,40,,
trial,html.Screen,6_17_0,2023-11-17T18:38:42.340Z,,,,1,-1.1598623261077452,-1.203269031614007,,,true,hh,8107.0729999881005,response,1.2254187569955004,1.2,-1.2,1.174555235109734,1.2,-1.2,high,high,,ISIC_0002639.JPG,,ISIC_0027187.JPG,339,true,0.42000000000000026,hh,keypress(i),0,false,310461.2999999523,310461.1999999881,302337.314,302534.1999999881,302354.127,310278.623,1,40,18,
sequence,flow.Sequence,6_17,2023-11-17T18:38:42.341Z,,,,,,,,,,,8107.0729999881005,completion,,,,,,,high,high,,,,,,true,,,,,false,310461.5,310461.1999999881,302337.314,302534.09999996424,302354.127,310278.623,1,40,,
trial,html.Screen,6_18_0,2023-11-17T18:38:46.581Z,,,,1,1.2254187569955004,1.174555235109734,,,true,ll,4422.576999988058,response,-1.086647361897092,1.2,-1.2,-1.1528935990320313,1.2,-1.2,low,low,,ISIC_0027187.JPG,,ISIC_3505339.JPG,26,true,0.15000000000000002,ll,keypress(f),0,false,314701.39999997616,314701.1999999881,310262.033,310461.59999996424,310278.623,314532.917,1,40,19,
sequence,flow.Sequence,6_18,2023-11-17T18:38:46.581Z,,,,,,,,,,,4422.576999988058,completion,,,,,,,low,low,,,,,,true,,,,,false,314701.6999999881,314701.1999999881,310262.033,310461.5,310278.623,314532.917,1,40,,
trial,html.Screen,6_19_0,2023-11-17T18:38:47.709Z,,,,1,-1.2364994561934892,0.9174173651516624,,,true,hl,1296.2829999880632,response,0.948927472020595,1.2,-1.2,-1.0660437155921598,1.2,-1.2,high,low,,ISIC_3481133.JPG,,ISIC_5808758.JPG,27,true,0.42000000000000026,hl,keypress(j),0,false,315829.2999999523,315829.1999999881,314499.718,314701.7999999523,314532.917,315650.694,1,40,20,
sequence,flow.Sequence,6_19,2023-11-17T18:38:47.709Z,,,,,,,,,,,1296.2829999880632,completion,,,,,,,high,low,,,,,,true,,,,,false,315829.59999996424,315829.1999999881,314499.718,314701.7999999523,314532.917,315650.694,1,40,,
trial,html.Screen,6_20_0,2023-11-17T18:38:54.197Z,,,,1,-1.1598623261077452,-1.203269031614007,,,true,hh,6667.20599997614,response,1.242586748440878,1.2,-1.2,1.1207933200172129,1.2,-1.2,high,high,,ISIC_0002639.JPG,,ISIC_0013073.JPG,245,true,0.3600000000000002,hh,keypress(i),0,false,322318.1999999881,322317.89999997616,315634.035,315829.6999999881,315650.694,322173.889,1,40,21,
sequence,flow.Sequence,6_20,2023-11-17T18:38:54.198Z,,,,,,,,,,,6667.20599997614,completion,,,,,,,high,high,,,,,,true,,,,,false,322318.5,322317.89999997616,315634.035,315829.59999996424,315650.694,322173.889,1,40,,
trial,html.Screen,6_21_0,2023-11-17T18:38:58.813Z,,,,1,0.8816288864119318,-0.801867301188093,,,true,lh,4759.610999999975,response,-0.8487429103619056,1.2,-1.2,0.9778257804233036,1.2,-1.2,low,high,,ISIC_9196783.JPG,,ISIC_4554863.JPG,26,true,0.3600000000000002,lh,keypress(e),0,false,326933.6999999881,326933.5,322123.781,322318.59999996424,322173.889,326761.806,1,40,22,
sequence,flow.Sequence,6_21,2023-11-17T18:38:58.813Z,,,,,,,,,,,4759.610999999975,completion,,,,,,,low,high,,,,,,true,,,,,false,326933.89999997616,326933.5,322123.781,322318.59999996424,322173.889,326761.806,1,40,,
trial,html.Screen,6_22_0,2023-11-17T18:39:06.381Z,,,,1,-1.0026266089287914,1.0913275913920335,,,true,hl,7739.393999988097,response,0.8035152873995188,1.2,-1.2,-0.82868450251632,1.2,-1.2,high,low,,ISIC_0033520.JPG,,ISIC_0010671.JPG,27,true,0.42000000000000026,hl,keypress(j),0,false,334501.2999999523,334501.1999999881,326745.284,326934,326761.806,334319.381,1,40,23,
sequence,flow.Sequence,6_22,2023-11-17T18:39:06.381Z,,,,,,,,,,,7739.393999988097,completion,,,,,,,high,low,,,,,,true,,,,,false,334501.5,334501.1999999881,326745.284,326934,326761.806,334319.381,1,40,,
trial,html.Screen,6_23_0,2023-11-17T18:39:13.437Z,,,,1,-1.2318069697449794,-1.1703576816778267,,,true,hh,7238.418999952322,response,0.9012711689442632,1.2,-1.2,0.8639942067158306,1.2,-1.2,high,high,,ISIC_2732573.JPG,,ISIC_0032718.JPG,245,true,0.3600000000000002,hh,keypress(i),0,false,341558.09999996424,341557.7999999523,334302.689,334501.6999999881,334319.381,341376.52,1,40,24,
sequence,flow.Sequence,6_23,2023-11-17T18:39:13.438Z,,,,,,,,,,,7238.418999952322,completion,,,,,,,high,high,,,,,,true,,,,,false,341558.59999996424,341557.7999999523,334302.689,334501.6999999881,334319.381,341376.52,1,40,,
trial,html.Screen,6_24_0,2023-11-17T18:39:18.804Z,,,,1,-1.2024083555600384,-1.149077673153018,,,true,hh,5548.3799999761395,response,1.272699544571422,1.2,-1.2,1.12917997553565,1.2,-1.2,high,high,,ISIC_3566243.JPG,,ISIC_0012057.JPG,53,true,0.15000000000000002,hh,keypress(i),0,false,346925,346924.89999997616,341359.86,341558.89999997616,341376.52,346748.494,1,40,25,
sequence,flow.Sequence,6_24,2023-11-17T18:39:18.804Z,,,,,,,,,,,5548.3799999761395,completion,,,,,,,high,high,,,,,,true,,,,,false,346925.09999996424,346924.89999997616,341359.86,341558.7999999523,341376.52,346748.494,1,40,,
trial,html.Screen,6_25_0,2023-11-17T18:39:24.878Z,,,,1,-1.020990671779317,1.0116513850520903,,,true,hl,6249.205999988073,response,0.9388660854518424,1.2,-1.2,-0.79533948698576,1.2,-1.2,high,low,,ISIC_0011995.JPG,,ISIC_9291926.JPG,27,true,0.42000000000000026,hl,keypress(j),0,false,352997.89999997616,352997.6999999881,346731.856,346925.09999996424,346748.494,352821.248,1,40,26,
sequence,flow.Sequence,6_25,2023-11-17T18:39:24.878Z,,,,,,,,,,,6249.205999988073,completion,,,,,,,high,low,,,,,,true,,,,,false,352998.1999999881,352997.6999999881,346731.856,346925.09999996424,346748.494,352821.248,1,40,,
trial,html.Screen,6_26_0,2023-11-17T18:39:29.149Z,,,,1,-0.9579209317488,1.0147487101263497,,,true,hl,4447.851999964216,response,0.8816288864119318,1.2,-1.2,-0.801867301188093,1.2,-1.2,high,low,,ISIC_8124482.JPG,,ISIC_9196783.JPG,27,true,0.42000000000000026,hl,keypress(j),0,false,357269.1999999881,357269.09999996424,352804.459,352998.5,352821.248,357092.179,1,40,27,
sequence,flow.Sequence,6_26,2023-11-17T18:39:29.150Z,,,,,,,,,,,4447.851999964216,completion,,,,,,,high,low,,,,,,true,,,,,false,357269.39999997616,357269.09999996424,352804.459,352998.2999999523,352821.248,357092.179,1,40,,
trial,html.Screen,6_27_0,2023-11-17T18:39:33.173Z,,,,1,-1.1642596483638106,-1.109799097093339,,,true,hh,4200.720999976154,response,0.8471355550006346,1.2,-1.2,0.8721011160837115,1.2,-1.2,high,high,,ISIC_0765584.JPG,,ISIC_0025744.JPG,245,true,0.3600000000000002,hh,keypress(i),0,false,361293.09999996424,361292.89999997616,357075.414,357269.5,357092.179,361129.561,1,40,28,
sequence,flow.Sequence,6_27,2023-11-17T18:39:33.173Z,,,,,,,,,,,4200.720999976154,completion,,,,,,,high,high,,,,,,true,,,,,false,361293.2999999523,361292.89999997616,357075.414,357269.5,357092.179,361129.561,1,40,,
trial,html.Screen,6_28_0,2023-11-17T18:39:38.886Z,,,,1,-0.8809306963311293,0.8614910030038974,,,true,hl,5875.638999988092,response,1.0164576835546473,1.2,-1.2,-0.8120626538423016,1.2,-1.2,high,low,,ISIC_0013731.JPG,,ISIC_6002694.JPG,27,true,0.42000000000000026,hl,keypress(j),0,false,367005.39999997616,367005.1999999881,361096.105,361293.2999999523,361129.561,366836.357,1,40,29,
sequence,flow.Sequence,6_28,2023-11-17T18:39:38.886Z,,,,,,,,,,,5875.638999988092,completion,,,,,,,high,low,,,,,,true,,,,,false,367005.6999999881,367005.1999999881,361096.105,361293.2999999523,361129.561,366836.357,1,40,,
trial,html.Screen,6_29_0,2023-11-17T18:39:44.678Z,,,,1,-1.0717785279820962,-1.1267239445830604,,,true,hh,5961.442999952298,response,0.8926778502294954,1.2,-1.2,0.9164454040166848,1.2,-1.2,high,high,,ISIC_9948815.JPG,,ISIC_0011460.JPG,245,true,0.3600000000000002,hh,keypress(i),0,false,372798,372797.7999999523,366802.037,367005.89999997616,366836.357,372624.404,1,40,30,
sequence,flow.Sequence,6_29,2023-11-17T18:39:44.678Z,,,,,,,,,,,5961.442999952298,completion,,,,,,,high,high,,,,,,true,,,,,false,372798.1999999881,372797.7999999523,366802.037,367005.89999997616,366836.357,372624.404,1,40,,
trial,html.Screen,6_30_0,2023-11-17T18:39:48.022Z,,,,1,-0.879102500583965,1.0933081951979773,,,true,hl,3516.895999952336,response,0.8035152873995188,1.2,-1.2,-0.82868450251632,1.2,-1.2,high,low,,ISIC_0046223.JPG,,ISIC_0010671.JPG,27,true,0.42000000000000026,hl,keypress(j),0,false,376141.5,376141.2999999523,372607.729,372798.39999997616,372624.404,375961.038,1,40,31,
sequence,flow.Sequence,6_30,2023-11-17T18:39:48.022Z,,,,,,,,,,,3516.895999952336,completion,,,,,,,high,low,,,,,,true,,,,,false,376141.6999999881,376141.2999999523,372607.729,372798.39999997616,372624.404,375961.038,1,40,,
trial,html.Screen,6_31_0,2023-11-17T18:39:52.502Z,,,,1,1.0264463986917702,-1.2804054832904397,,,true,lh,4660.561999964237,response,-0.869932994914832,1.2,-1.2,0.8880533324432531,1.2,-1.2,low,high,,ISIC_7889838.JPG,,ISIC_8617084.JPG,26,true,0.3600000000000002,lh,keypress(e),0,false,380621.7999999523,380621.59999996424,375944.553,376141.89999997616,375961.038,380449.052,1,40,32,
sequence,flow.Sequence,6_31,2023-11-17T18:39:52.502Z,,,,,,,,,,,4660.561999964237,completion,,,,,,,low,high,,,,,,true,,,,,false,380622.09999996424,380621.59999996424,375944.553,376141.89999997616,375961.038,380449.052,1,40,,
trial,html.Screen,6_32_0,2023-11-17T18:39:55.839Z,,,,1,1.185875658992962,1.2635548590325487,,,true,ll,3509.247999952291,response,-0.7911473983754623,1.2,-1.2,-1.4206446907294763,1.2,-1.2,low,low,,ISIC_0011703.JPG,,ISIC_2075372.JPG,253,true,0.42000000000000026,ll,keypress(f),0,false,383958.59999996424,383958.2999999523,380432.269,380622.1999999881,380449.052,383785.581,1,40,33,
sequence,flow.Sequence,6_32,2023-11-17T18:39:55.839Z,,,,,,,,,,,3509.247999952291,completion,,,,,,,low,low,,,,,,true,,,,,false,383959,383958.2999999523,380432.269,380622.1999999881,380449.052,383785.581,1,40,,
trial,html.Screen,6_33_0,2023-11-17T18:40:01.078Z,,,,1,1.152619213055059,1.1117876838408909,,,true,ll,5412.018999964232,response,-1.0717785279820962,1.2,-1.2,-1.1267239445830604,1.2,-1.2,low,low,,ISIC_0061915.JPG,,ISIC_9948815.JPG,26,true,0.15000000000000002,ll,keypress(f),0,false,389197.6999999881,389197.59999996424,383768.947,383959.09999996424,383785.581,389024.352,1,40,34,
sequence,flow.Sequence,6_33,2023-11-17T18:40:01.078Z,,,,,,,,,,,5412.018999964232,completion,,,,,,,low,low,,,,,,true,,,,,false,389197.89999997616,389197.59999996424,383768.947,383959.09999996424,383785.581,389024.352,1,40,,
trial,html.Screen,6_34_0,2023-11-17T18:40:04.294Z,,,,1,1.1164729501046406,1.2978935747992253,,,true,ll,3389.0479999761446,response,-1.201100953917304,1.2,-1.2,-1.1751492358160105,1.2,-1.2,low,low,,ISIC_0034166.JPG,,ISIC_0647224.JPG,26,true,0.15000000000000002,ll,keypress(f),0,false,392413.5,392413.39999997616,389007.492,389197.89999997616,389024.352,392227.361,1,40,35,
sequence,flow.Sequence,6_34,2023-11-17T18:40:04.294Z,,,,,,,,,,,3389.0479999761446,completion,,,,,,,low,low,,,,,,true,,,,,false,392413.6999999881,392413.39999997616,389007.492,389197.89999997616,389024.352,392227.361,1,40,,
trial,html.Screen,6_35_0,2023-11-17T18:40:07.390Z,,,,1,1.1877026569952844,1.1604367569896263,,,true,ll,3282.038999976183,response,-1.2724584600905462,1.2,-1.2,-1.1411016103695344,1.2,-1.2,low,low,,ISIC_0064589.JPG,,ISIC_0059625.JPG,26,true,0.15000000000000002,ll,keypress(f),0,false,395509.5,395509.39999997616,392210.828,392413.89999997616,392227.361,395330.46,1,40,36,
sequence,flow.Sequence,6_35,2023-11-17T18:40:07.390Z,,,,,,,,,,,3282.038999976183,completion,,,,,,,low,low,,,,,,true,,,,,false,395509.59999996424,395509.39999997616,392210.828,392413.89999997616,392227.361,395330.46,1,40,,
trial,html.Screen,6_36_0,2023-11-17T18:40:15.982Z,,,,1,-1.2331439637486756,0.9691143900156988,,,true,hl,8770.739999988058,response,1.4092385398614515,1.2,-1.2,-1.3046237992197836,1.2,-1.2,high,low,,ISIC_7877488.JPG,,ISIC_7254359.JPG,27,true,0.42000000000000026,hl,keypress(j),0,false,404101.2999999523,404101.1999999881,395313.836,395509.59999996424,395330.46,403922.389,1,40,37,
sequence,flow.Sequence,6_36,2023-11-17T18:40:15.982Z,,,,,,,,,,,8770.739999988058,completion,,,,,,,high,low,,,,,,true,,,,,false,404101.59999996424,404101.1999999881,395313.836,395509.59999996424,395330.46,403922.389,1,40,,
trial,html.Screen,6_37_0,2023-11-17T18:40:22.944Z,,,,1,1.0164576835546473,-0.8120626538423016,,,true,lh,7140.0109999761335,response,-1.2364994561934892,1.2,-1.2,0.9174173651516624,1.2,-1.2,low,high,,ISIC_6002694.JPG,,ISIC_3481133.JPG,26,true,0.3600000000000002,lh,keypress(e),0,false,411062.59999996424,411062.39999997616,403905.678,404101.6999999881,403922.389,410879.325,1,40,38,
sequence,flow.Sequence,6_37,2023-11-17T18:40:22.944Z,,,,,,,,,,,7140.0109999761335,completion,,,,,,,low,high,,,,,,true,,,,,false,411062.89999997616,411062.39999997616,403905.678,404101.6999999881,403922.389,410879.325,1,40,,
trial,html.Screen,6_38_0,2023-11-17T18:40:26.982Z,,,,1,0.991146183030456,-0.9949639823722534,,,true,lh,4221.974999952305,response,-0.879102500583965,1.2,-1.2,1.0933081951979773,1.2,-1.2,low,high,,ISIC_6342224.JPG,,ISIC_0046223.JPG,33,true,0.42000000000000026,lh,keypress(e),0,false,415101.5,415101.2999999523,410862.633,411063.09999996424,410879.325,414916.733,1,40,39,
sequence,flow.Sequence,6_38,2023-11-17T18:40:26.983Z,,,,,,,,,,,4221.974999952305,completion,,,,,,,low,high,,,,,,true,,,,,false,415101.59999996424,415101.2999999523,410862.633,411063.09999996424,410879.325,414916.733,1,40,,
trial,html.Screen,6_39_0,2023-11-17T18:40:31.038Z,,,,1,0.7998855902596425,-1.1518579145663017,,,true,lh,4240.466999988072,response,-1.0656673213158945,1.2,-1.2,0.8082541692781954,1.2,-1.2,low,high,,ISIC_0025061.JPG,,ISIC_0033985.JPG,33,true,0.42000000000000026,lh,keypress(e),0,false,419157.2999999523,419157.1999999881,414899.968,415101.7999999523,414916.733,418970.787,1,40,40,
sequence,flow.Sequence,6_39,2023-11-17T18:40:31.038Z,,,,,,,,,,,4240.466999988072,completion,,,,,,,low,high,,,,,,true,,,,,false,419157.39999997616,419157.1999999881,414899.968,415101.7999999523,414916.733,418970.787,1,40,,
practice_loop,flow.Loop,6,2023-11-17T18:40:31.039Z,,,,,,,,,,,252138.58299998808,completion,,,,,,,,,,,,,,true,,,,,false,419157.5,419157.1999999881,167001.927,167180.89999997616,167018.617,418970.787,1,40,,
stair_instructions,html.Screen,7,2023-11-17T18:40:33.582Z,,,,,,,,,,,2729.712999999989,response,,,,,,,,,,,,,,,,continue,click button,,,421701.09999996424,421700.5,418954.044,419157.59999996424,418970.787,421523.387,,,,
trial,html.Screen,8_0_0,2023-11-17T18:40:42.822Z,,,,2,-0.0159061451859594,-0.0296598845560212,,0.05,true,ll,9417.812999988091,response,-1.444494618254804,1.2,-1.2,-0.9254956306193513,1.2,-1.2,low,low,,ISIC_0072564.JPG,,ISIC_9390107.JPG,253,false,0.42000000000000026,ll,keypress(f),0,true,430941.5,430941.1999999881,421506.726,421701.1999999881,421523.387,430765.931,1,40,1,
sequence,flow.Sequence,8_0,2023-11-17T18:40:42.823Z,,,,,,,,,,,9417.812999988091,completion,,,,,,,low,low,,,,,,false,,,,,true,430941.7999999523,430941.1999999881,421506.726,421701.1999999881,421523.387,430765.931,1,40,,
trial,html.Screen,8_1_0,2023-11-17T18:40:52.297Z,,,,2,-0.0188047466661863,0.0288346930436979,,0.05,true,hl,9650.069000000018,response,0.8655167308525522,1.15,-1.15,-0.9298580423306444,1.15,-1.15,high,low,,ISIC_0014157.JPG,,ISIC_4603706.JPG,27,false,0.3700000000000002,hl,keypress(j),0,true,440416,440416,430749.268,430942,430765.931,440242.141,1,40,2,
sequence,flow.Sequence,8_1,2023-11-17T18:40:52.297Z,,,,,,,,,,,9650.069000000018,completion,,,,,,,high,low,,,,,,false,,,,,true,440416.1999999881,440416,430749.268,430941.89999997616,430765.931,440242.141,1,40,,
trial,html.Screen,8_2_0,2023-11-17T18:40:57.702Z,,,,2,0.0069555338059566,-0.0310100918136373,,0.05,true,ll,5579.058999988076,response,-1.2318069697449794,1.15,-1.15,-1.1703576816778267,1.15,-1.0999999999999999,low,low,,ISIC_0011177.JPG,,ISIC_2732573.JPG,25,false,0.1,ll,keypress(f),0,true,445821.2999999523,445821.1999999881,440225.435,440416.1999999881,440242.141,445647.483,1,40,3,
sequence,flow.Sequence,8_2,2023-11-17T18:40:57.703Z,,,,,,,,,,,5579.058999988076,completion,,,,,,,low,low,,,,,,false,,,,,true,445821.5,445821.1999999881,440225.435,440416.1999999881,440242.141,445647.483,1,40,,
trial,html.Screen,8_3_0,2023-11-17T18:41:05.343Z,,,,2,-0.0102460616775615,0.0309670599545429,,0.05,true,lh,7814.316999952309,response,-0.8579451262594331,1.15,-1.1510823257114031,0.9633172970727744,1.15,-1.0999999999999999,low,high,,ISIC_0072041.JPG,,ISIC_0067172.JPG,25,false,0.31000000000000016,lh,keypress(e),0,true,453462,453461.7999999523,445630.765,445821.59999996424,445647.483,453288.555,1,40,4,
sequence,flow.Sequence,8_3,2023-11-17T18:41:05.343Z,,,,,,,,,,,7814.316999952309,completion,,,,,,,low,high,,,,,,false,,,,,true,453462.2999999523,453461.7999999523,445630.765,445821.5,445647.483,453288.555,1,40,,
trial,html.Screen,8_4_0,2023-11-17T18:41:09.862Z,,,,2,-0.0113873532168551,-0.0054999201556291,,0.05,true,hh,4692.544999964244,response,1.2493792664822851,1.15,-1.1510823257114031,1.1336008561684745,1.15,-1.0999999999999999,high,high,,ISIC_8812621.JPG,,ISIC_0061475.JPG,27,false,0.1,hh,keypress(i),0,true,457981.2999999523,457981.09999996424,453271.78,453462.2999999523,453288.555,457809.631,1,40,5,
sequence,flow.Sequence,8_4,2023-11-17T18:41:09.862Z,,,,,,,,,,,4692.544999964244,completion,,,,,,,high,high,,,,,,false,,,,,true,457981.39999997616,457981.09999996424,453271.78,453462.2999999523,453288.555,457809.631,1,40,,
trial,html.Screen,8_5_0,2023-11-17T18:41:12.855Z,,,,2,0.0329095507339554,-0.0382899749693245,,0.05,true,hh,3164.068999988085,response,0.9991183219041097,0.9984590766206243,-1.1510823257114031,1.0098382533872188,0.9984590766206243,-1.0999999999999999,high,high,,ISIC_8812781.JPG,,ISIC_0010415.JPG,40,false,0.1,hh,keypress(i),0,true,460973.7999999523,460973.6999999881,457793.158,457981.5,457809.631,460796.2,1,40,6,
sequence,flow.Sequence,8_5,2023-11-17T18:41:12.855Z,,,,,,,,,,,3164.068999988085,completion,,,,,,,high,high,,,,,,false,,,,,true,460973.89999997616,460973.6999999881,457793.158,457981.5,457809.631,460796.2,1,40,,
trial,html.Screen,8_6_0,2023-11-17T18:41:16.030Z,,,,2,0.0217698886732706,-0.0410870915161425,,0.05,true,hh,3353.1999999761465,response,1.0762260610050776,0.9984590766206243,-1.1510823257114031,1.082709423673037,0.9984590766206243,-1.0999999999999999,high,high,,ISIC_0072173.JPG,,ISIC_0058666.JPG,40,false,0.1,hh,keypress(i),0,true,464149.39999997616,464149.39999997616,460779.258,460974,460796.2,463965.8,1,40,7,
sequence,flow.Sequence,8_6,2023-11-17T18:41:16.031Z,,,,,,,,,,,3353.1999999761465,completion,,,,,,,high,high,,,,,,false,,,,,true,464149.59999996424,464149.39999997616,460779.258,460973.89999997616,460796.2,463965.8,1,40,,
trial,html.Screen,8_7_0,2023-11-17T18:41:20.222Z,,,,2,-0.0134764727102299,-0.0033499036460912,,0.05,true,hh,4375.399999988091,response,0.9090432487160188,0.9962738385301277,-1.1510823257114031,1.033319341099857,0.9962738385301277,-1.0999999999999999,high,high,,ISIC_0009998.JPG,,ISIC_4119029.JPG,40,false,0.1,hh,keypress(i),0,true,468341.2999999523,468341.1999999881,463949.342,464149.59999996424,463965.8,468186.85,1,40,8,
sequence,flow.Sequence,8_7,2023-11-17T18:41:20.222Z,,,,,,,,,,,4375.399999988091,completion,,,,,,,high,high,,,,,,false,,,,,true,468341.39999997616,468341.1999999881,463949.342,464149.59999996424,463965.8,468186.85,1,40,,
trial,html.Screen,8_8_0,2023-11-17T18:41:30.384Z,,,,2,-0.0362376068089956,-0.047825070846155,,0.05,false,lh,10314.94999995234,response,-0.9644643328174062,0.9962738385301277,-1.1510823257114031,0.745333984830218,0.9962738385301277,-1.0999999999999999,low,high,,ISIC_6985114.JPG,,ISIC_0058046.JPG,27,false,0.28000000000000014,ll,keypress(f),0,true,478502,478501.7999999523,468170.161,468341.59999996424,468186.85,478330.238,1,40,9,
sequence,flow.Sequence,8_8,2023-11-17T18:41:30.384Z,,,,,,,,,,,10314.94999995234,completion,,,,,,,low,high,,,,,,false,,,,,true,478502.2999999523,478501.7999999523,468170.161,468341.59999996424,468186.85,478330.238,1,40,,
trial,html.Screen,8_9_0,2023-11-17T18:41:40.640Z,,,,2,-0.0362376068089956,-0.047825070846155,,0.05,true,hl,10427.561999952304,response,1.0164576835546473,0.9962738385301277,-1.101082325711403,-0.8120626538423016,1.0462738385301278,-1.0999999999999999,high,low,,ISIC_6985114.JPG,,ISIC_6002694.JPG,28,false,0.30000000000000016,hl,keypress(j),0,true,488757.89999997616,488757.7999999523,478313.506,478502.39999997616,478330.238,488573.784,1,40,10,
sequence,flow.Sequence,8_9,2023-11-17T18:41:40.640Z,,,,,,,,,,,10427.561999952304,completion,,,,,,,high,low,,,,,,false,,,,,true,488758.1999999881,488757.7999999523,478313.506,478502.39999997616,478330.238,488573.784,1,40,,
trial,html.Screen,8_10_0,2023-11-17T18:41:44.151Z,,,,2,0.0456515796420274,-0.0273567130070961,,0.05,false,ll,3695.315999964252,response,-1.0378929077920005,0.9462738385301277,-1.101082325711403,-1.012953297890337,1.0462738385301278,-1.0499999999999998,low,low,,ISIC_0068610.JPG,,ISIC_0231745.JPG,32,false,0.11,lh,keypress(e),0,true,492269.2999999523,492269.09999996424,488556.889,488758.2999999523,488573.784,492093.992,1,40,11,
sequence,flow.Sequence,8_10,2023-11-17T18:41:44.151Z,,,,,,,,,,,3695.315999964252,completion,,,,,,,low,low,,,,,,false,,,,,true,492269.39999997616,492269.09999996424,488556.889,488758.1999999881,488573.784,492093.992,1,40,,
trial,html.Screen,8_11_0,2023-11-17T18:41:59.979Z,,,,2,0.0389988030702649,0.0143212271490256,,0.05,,,15832.517999999982,timeout,0.8035152873995188,0.9462738385301277,-1.101082325711403,-0.82868450251632,1.0462738385301278,-1.0999999999999999,high,low,,ISIC_0064669.JPG,,ISIC_0010671.JPG,25,false,0.28000000000000014,,,0,true,508096.7999999523,508096.5,492077.375,492269.5,492093.992,507926.51,1,40,12,
sequence,flow.Sequence,8_11,2023-11-17T18:41:59.979Z,,,,,,,,,,,16002.507999999973,completion,,,,,,,high,low,,,,,,false,,,,,true,508097.1999999881,508096.5,492077.375,492269.5,492093.992,507926.51,1,40,,
trial,html.Screen,8_12_0,2023-11-17T18:42:09.400Z,,,,2,-0.0362376068089956,-0.047825070846155,,0.05,true,hl,9591.48999999999,response,0.7197989269080959,0.9462738385301277,-1.101082325711403,-0.9410141415297968,1.0462738385301278,-1.0999999999999999,high,low,,ISIC_6985114.JPG,,ISIC_2635051.JPG,25,false,0.28000000000000014,hl,keypress(j),0,true,517518,517518,507893.383,508097.2999999523,507926.51,517335.895,1,40,13,
sequence,flow.Sequence,8_12,2023-11-17T18:42:09.400Z,,,,,,,,,,,9591.48999999999,completion,,,,,,,high,low,,,,,,false,,,,,true,517518.1999999881,517518,507893.383,508097.2999999523,507926.51,517335.895,1,40,,
trial,html.Screen,8_13_0,2023-11-17T18:42:14.535Z,,,,2,-0.0277178575053843,0.0395587463147856,,0.05,true,lh,5317.0049999761395,response,-0.9454713230140772,0.9462738385301277,-1.101082325711403,0.9245167441969216,1.0462738385301278,-1.0999999999999999,low,high,,ISIC_0010807.JPG,,ISIC_9101055.JPG,26,false,0.2500000000000001,lh,keypress(e),0,true,522653,522652.89999997616,517319.228,517518.2999999523,517335.895,522474.39,1,40,14,
sequence,flow.Sequence,8_13,2023-11-17T18:42:14.535Z,,,,,,,,,,,5317.0049999761395,completion,,,,,,,low,high,,,,,,false,,,,,true,522653.09999996424,522652.89999997616,517319.228,517518.2999999523,517335.895,522474.39,1,40,,
trial,html.Screen,8_14_0,2023-11-17T18:42:19.104Z,,,,2,-0.0112310719058792,0.0469047359904117,,0.05,false,hl,4747.809999988065,response,0.7870237732709365,0.9462738385301277,-1.051082325711403,-0.9172955251119376,1.0462738385301278,-1.0999999999999999,high,low,,ISIC_0068184.JPG,,ISIC_0057716.JPG,25,false,0.28000000000000014,lh,keypress(e),0,true,527222.5,527222.1999999881,522457.612,522653.09999996424,522474.39,527045.666,1,40,15,
sequence,flow.Sequence,8_14,2023-11-17T18:42:19.105Z,,,,,,,,,,,4747.809999988065,completion,,,,,,,high,low,,,,,,false,,,,,true,527222.7999999523,527222.1999999881,522457.612,522653.09999996424,522474.39,527045.666,1,40,,
trial,html.Screen,8_15_0,2023-11-17T18:42:27.912Z,,,,2,,-0.0264544974620926,,0.05,false,hl,8983.433999964269,response,1.0213365328004047,0.9962738385301277,-1.051082325711403,-1.088524359911891,1.0462738385301278,-1.15,high,low,,ISIC_0056991.JPG,,ISIC_5434229.JPG,26,false,0.3300000000000002,hh,keypress(i),0,true,536029.1999999881,536029.0999999642,527028.874,527223,527045.666,535854.463,1,40,16,
sequence,flow.Sequence,8_15,2023-11-17T18:42:27.912Z,,,,,,,,,,,8983.433999964269,completion,,,,,,,high,low,,,,,,false,,,,,true,536029.3999999762,536029.0999999642,527028.874,527223,527045.666,535854.463,1,40,,
trial,html.Screen,8_16_0,2023-11-17T18:42:29.744Z,,,,2,0.007397293189458,0.0174716772037504,,0.05,true,hh,2006.9369999761693,response,0.9262674596267249,0.9962738385301277,-1.051082325711403,1.0275767908572495,1.0462738385301278,-1.15,high,high,,ISIC_0056226.JPG,,ISIC_5415749.JPG,36,false,0.1,hh,keypress(i),0,true,537861.5999999642,537861.3999999762,535837.62,536029.3999999762,535854.463,537689.602,1,40,17,
sequence,flow.Sequence,8_16,2023-11-17T18:42:29.744Z,,,,,,,,,,,2006.9369999761693,completion,,,,,,,high,high,,,,,,false,,,,,true,537861.7999999523,537861.3999999762,535837.62,536029.3999999762,535854.463,537689.602,1,40,,
trial,html.Screen,8_17_0,2023-11-17T18:42:34.840Z,,,,2,-0.0362376068089956,-0.047825070846155,,0.05,true,hl,5267.997999964282,response,0.6629163102028129,0.9744566618288271,-1.051082325711403,-1.2268098550740514,0.9744566618288271,-1.15,high,low,,ISIC_6985114.JPG,,ISIC_9562157.JPG,27,false,0.3200000000000002,hl,keypress(j),0,true,542957.7999999523,542957.5999999642,537672.948,537861.8999999762,537689.602,542778.069,1,40,18,
sequence,flow.Sequence,8_17,2023-11-17T18:42:34.841Z,,,,,,,,,,,5267.997999964282,completion,,,,,,,high,low,,,,,,false,,,,,true,542958,542957.5999999642,537672.948,537861.8999999762,537689.602,542778.069,1,40,,
trial,html.Screen,8_18_0,2023-11-17T18:42:37.792Z,,,,2,-0.0097091270150747,0.0417921315885292,,0.05,true,hh,3131.0309999642195,response,1.0376573622140812,0.9744566618288271,-1.051082325711403,1.0000402707486682,0.9744566618288271,-1.15,high,high,,ISIC_3967213.JPG,,ISIC_0068798.JPG,45,false,0.1,hh,keypress(i),0,true,545909.1999999881,545909.0999999642,542761.36,542958.1999999881,542778.069,545731.021,1,40,19,
sequence,flow.Sequence,8_18,2023-11-17T18:42:37.792Z,,,,,,,,,,,3131.0309999642195,completion,,,,,,,high,high,,,,,,false,,,,,true,545909.2999999523,545909.0999999642,542761.36,542958,542778.069,545731.021,1,40,,
trial,html.Screen,8_19_0,2023-11-17T18:42:40.744Z,,,,2,-0.0348234368746005,0.0236866303880924,,0.05,true,ll,3130.1789999881294,response,-1.0789197754694622,0.9688488164813747,-1.051082325711403,-1.1654690806750023,0.9744566618288271,-1.15,low,low,,ISIC_0011099.JPG,,ISIC_1576437.JPG,29,false,0.13,ll,keypress(f),0,true,548861.3999999762,548861.1999999881,545714.46,545909.3999999762,545731.021,548683.959,1,40,20,
sequence,flow.Sequence,8_19,2023-11-17T18:42:40.744Z,,,,,,,,,,,3130.1789999881294,completion,,,,,,,low,low,,,,,,false,,,,,true,548861.5999999642,548861.1999999881,545714.46,545909.3999999762,545731.021,548683.959,1,40,,
trial,html.Screen,8_20_0,2023-11-17T18:42:43.984Z,,,,2,0.0057914759495055,0.0074667911845194,,0.05,true,lh,3417.3409999522846,response,-1.0751036484083878,0.9688488164813747,-1.051082325711403,1.143906455483852,0.9744566618288271,-1.0721944280722322,low,high,,ISIC_0058723.JPG,,ISIC_0064406.JPG,25,false,0.21000000000000008,lh,keypress(e),0,true,552101.3999999762,552101.2999999523,548667.214,548861.6999999881,548683.959,551920.525,1,40,21,
sequence,flow.Sequence,8_20,2023-11-17T18:42:43.984Z,,,,,,,,,,,3417.3409999522846,completion,,,,,,,low,high,,,,,,false,,,,,true,552101.5999999642,552101.2999999523,548667.214,548861.6999999881,548683.959,551920.525,1,40,,
trial,html.Screen,8_21_0,2023-11-17T18:42:51.224Z,,,,2,-0.0277178575053843,0.0395587463147856,,0.05,false,lh,7420.874999976135,response,-1.0026266089287914,0.9688488164813747,-1.001082325711403,1.0913275913920335,0.924456661828827,-1.0721944280722322,low,high,,ISIC_0010807.JPG,,ISIC_0033520.JPG,26,false,0.19000000000000006,hl,keypress(j),0,true,559341.3999999762,559341.3999999762,551904.045,552101.5999999642,551920.525,559161.166,1,40,22,
sequence,flow.Sequence,8_21,2023-11-17T18:42:51.224Z,,,,,,,,,,,7420.874999976135,completion,,,,,,,low,high,,,,,,false,,,,,true,559341.5,559341.3999999762,551904.045,552101.5999999642,551920.525,559161.166,1,40,,
trial,html.Screen,8_22_0,2023-11-17T18:42:53.609Z,,,,2,-0.0409338693593207,0.0072462710499874,,0.05,true,hh,2564.633999952348,response,0.9455512119785764,0.9688488164813747,-1.051082325711403,0.9818230031674032,0.9744566618288271,-1.0721944280722322,high,high,,ISIC_3608788.JPG,,ISIC_0057286.JPG,46,false,0.1,hh,keypress(i),0,true,561726,561725.7999999523,559144.416,559341.5999999642,559161.166,561546.865,1,40,23,
sequence,flow.Sequence,8_22,2023-11-17T18:42:53.609Z,,,,,,,,,,,2564.633999952348,completion,,,,,,,high,high,,,,,,false,,,,,true,561726.2999999523,561725.7999999523,559144.416,559341.5999999642,559161.166,561546.865,1,40,,
trial,html.Screen,8_23_0,2023-11-17T18:42:59.584Z,,,,2,-0.0113873532168551,-0.0054999201556291,,0.05,true,ll,6154.434999952326,response,-1.0097932576366906,0.9688488164813747,-1.051082325711403,-1.0644834610939486,0.9744566618288271,-1.0721944280722322,low,low,,ISIC_8812621.JPG,,ISIC_8559515.JPG,31,false,0.1,ll,keypress(f),0,true,567701.3999999762,567701.2999999523,561530.183,561726.3999999762,561546.865,567519.477,1,40,24,
sequence,flow.Sequence,8_23,2023-11-17T18:42:59.584Z,,,,,,,,,,,6154.434999952326,completion,,,,,,,low,low,,,,,,false,,,,,true,567701.5,567701.2999999523,561530.183,561726.3999999762,561546.865,567519.477,1,40,,
trial,html.Screen,8_24_0,2023-11-17T18:43:06.153Z,,,,2,0.0116094682222121,-0.0258434522530318,,0.05,false,hl,6750.422999976203,response,0.9235571765207048,0.9688488164813747,-1.051082325711403,-1.0008081653938232,0.9744566618288271,-1.0721944280722322,high,low,,ISIC_9239632.JPG,,ISIC_8796632.JPG,25,false,0.27000000000000013,lh,keypress(e),0,true,574270.0999999642,574269.8999999762,567502.784,567701.6999999881,567519.477,574092.736,1,40,25,
sequence,flow.Sequence,8_24,2023-11-17T18:43:06.153Z,,,,,,,,,,,6750.422999976203,completion,,,,,,,high,low,,,,,,false,,,,,true,574270.3999999762,574269.8999999762,567502.784,567701.6999999881,567519.477,574092.736,1,40,,
trial,html.Screen,8_25_0,2023-11-17T18:43:09.049Z,,,,2,0.0069555338059566,-0.0310100918136373,,0.05,true,ll,3073.3639999642037,response,-1.037577073517966,1.0188488164813747,-1.051082325711403,-1.027048110709042,0.9744566618288271,-1.1221944280722322,low,low,,ISIC_0011177.JPG,,ISIC_0004932.JPG,28,false,0.11,ll,keypress(f),0,true,577166.3999999762,577166.0999999642,574075.988,574270.5,574092.736,576995.611,1,40,26,
sequence,flow.Sequence,8_25,2023-11-17T18:43:09.049Z,,,,,,,,,,,3073.3639999642037,completion,,,,,,,low,low,,,,,,false,,,,,true,577166.7999999523,577166.0999999642,574075.988,574270.5,574092.736,576995.611,1,40,,
trial,html.Screen,8_26_0,2023-11-17T18:43:11.976Z,,,,2,-0.013431314305098,0.0140597582944232,,0.05,false,hl,3097.5889999880455,response,0.7723849213858904,1.0188488164813747,-0.9823125921135039,-0.888372424147899,0.9744566618288271,-1.1221944280722322,high,low,,ISIC_0069617.JPG,,ISIC_3884221.JPG,26,false,0.3200000000000002,hh,keypress(i),0,true,580093.2999999523,580093.1999999881,576978.914,577167,576995.611,579915.218,1,40,27,
sequence,flow.Sequence,8_26,2023-11-17T18:43:11.976Z,,,,,,,,,,,3097.5889999880455,completion,,,,,,,high,low,,,,,,false,,,,,true,580093.5,580093.1999999881,576978.914,577166.8999999762,576995.611,579915.218,1,40,,
trial,html.Screen,8_27_0,2023-11-17T18:43:16.361Z,,,,2,-0.0097091270150747,0.0417921315885292,,0.05,false,lh,4563.081999952323,response,-0.9433720631499012,1.0188488164813747,-0.9823125921135039,1.0582071940347648,0.9744566618288271,-1.1721944280722323,low,high,,ISIC_3967213.JPG,,ISIC_4890201.JPG,25,false,0.20000000000000007,ll,keypress(f),0,true,584478.5999999642,584478.2999999523,579898.487,580093.5,579915.218,584302.969,1,40,28,
sequence,flow.Sequence,8_27,2023-11-17T18:43:16.361Z,,,,,,,,,,,4563.081999952323,completion,,,,,,,low,high,,,,,,false,,,,,true,584478.8999999762,584478.2999999523,579898.487,580093.5,579915.218,584302.969,1,40,,
trial,html.Screen,8_28_0,2023-11-17T18:43:18.769Z,,,,2,0.0070725527271049,0.0049995141077508,,0.05,true,hh,2582.8309999522753,response,0.9735583105865782,1.0188488164813747,-0.9823125921135039,0.9340146106918494,1.024456661828827,-1.1721944280722323,high,high,,ISIC_6124481.JPG,,ISIC_0065204.JPG,39,false,0.1,hh,keypress(i),0,true,586886,586885.7999999523,584286.271,584479.0999999642,584302.969,586705.378,1,40,29,
sequence,flow.Sequence,8_28,2023-11-17T18:43:18.769Z,,,,,,,,,,,2582.8309999522753,completion,,,,,,,high,high,,,,,,false,,,,,true,586886.2999999523,586885.7999999523,584286.271,584479,584302.969,586705.378,1,40,,
trial,html.Screen,8_29_0,2023-11-17T18:43:21.089Z,,,,2,-0.0112310719058792,0.0469047359904117,,0.05,true,ll,2499.92199995229,response,-0.9884311917927716,0.9037864606392138,-0.9823125921135039,-1.2129880490682976,1.024456661828827,-1.1721944280722323,low,low,,ISIC_0068184.JPG,,ISIC_4255013.JPG,27,false,0.11,ll,keypress(f),0,true,589205.3999999762,589205.2999999523,586688.857,586886.2999999523,586705.378,589024.401,1,40,30,
sequence,flow.Sequence,8_29,2023-11-17T18:43:21.089Z,,,,,,,,,,,2499.92199995229,completion,,,,,,,low,low,,,,,,false,,,,,true,589205.5999999642,589205.2999999523,586688.857,586886.2999999523,586705.378,589024.401,1,40,,
trial,html.Screen,8_30_0,2023-11-17T18:43:31.009Z,,,,2,0.0050679133050021,-0.0009714874637896,,0.05,true,ll,10100.898999952362,response,-0.96885674750163,0.9037864606392138,-1.0507096204305346,-1.153255258098753,1.024456661828827,-1.1721944280722323,low,low,,ISIC_9848743.JPG,,ISIC_5722914.JPG,26,false,0.12,ll,keypress(f),0,true,599125.3999999762,599125.2999999523,589007.859,589205.5999999642,589024.401,598950.947,1,40,31,
sequence,flow.Sequence,8_30,2023-11-17T18:43:31.009Z,,,,,,,,,,,10100.898999952362,completion,,,,,,,low,low,,,,,,false,,,,,true,599125.5999999642,599125.2999999523,589007.859,589205.5999999642,589024.401,598950.947,1,40,,
trial,html.Screen,8_31_0,2023-11-17T18:43:36.354Z,,,,2,-0.0097091270150747,0.0417921315885292,,0.05,true,lh,5518.952999976114,response,-1.0751036484083878,0.9037864606392138,-1.0507096204305346,1.143906455483852,1.024456661828827,-1.0110560028001914,low,high,,ISIC_3967213.JPG,,ISIC_0064406.JPG,25,false,0.22000000000000008,lh,keypress(e),0,true,604470.1999999881,604469.8999999762,598934.291,599125.5999999642,598950.947,604289.619,1,40,32,
sequence,flow.Sequence,8_31,2023-11-17T18:43:36.354Z,,,,,,,,,,,5518.952999976114,completion,,,,,,,low,high,,,,,,false,,,,,true,604470.5,604469.8999999762,598934.291,599125.5999999642,598950.947,604289.619,1,40,,
trial,html.Screen,8_32_0,2023-11-17T18:43:45.049Z,,,,2,0.0324770283903853,0.0249968632204382,,0.05,true,lh,8875.98099996429,response,-0.8979276789594874,0.9037864606392138,-1.0007096204305346,0.925374811016654,0.9744566618288271,-1.0110560028001914,low,high,,ISIC_7266462.JPG,,ISIC_4208361.JPG,25,false,0.21000000000000008,lh,keypress(e),0,true,613165.7999999523,613165.5999999642,604272.815,604470.6999999881,604289.619,612981.66,1,40,33,
sequence,flow.Sequence,8_32,2023-11-17T18:43:45.049Z,,,,,,,,,,,8875.98099996429,completion,,,,,,,low,high,,,,,,false,,,,,true,613165.8999999762,613165.5999999642,604272.815,604470.5999999642,604289.619,612981.66,1,40,,
trial,html.Screen,8_33_0,2023-11-17T18:43:53.505Z,,,,2,-0.0159061451859594,-0.0296598845560212,,0.05,false,hh,8640.139999952284,response,0.8284509690992466,0.9037864606392138,-1.0007096204305346,1.016636264838755,0.9744566618288271,-1.0110560028001914,high,high,,ISIC_0072564.JPG,,ISIC_7973598.JPG,48,false,0.1,lh,keypress(e),0,true,621622,621621.7999999523,612965.047,613165.8999999762,612981.66,621440.143,1,40,34,
sequence,flow.Sequence,8_33,2023-11-17T18:43:53.506Z,,,,,,,,,,,8640.139999952284,completion,,,,,,,high,high,,,,,,false,,,,,true,621622.2999999523,621621.7999999523,612965.047,613165.8999999762,612981.66,621440.143,1,40,,
trial,html.Screen,8_34_0,2023-11-17T18:43:59.409Z,,,,2,-0.0245376145053177,0.0436993426328401,,0.05,true,lh,6085.056999988039,response,-1.011737552725394,0.9537864606392138,-1.0007096204305346,0.8500530224490773,0.9210055379277045,-1.0110560028001914,low,high,,ISIC_0056444.JPG,,ISIC_2998367.JPG,26,false,0.19000000000000006,lh,keypress(e),0,true,627525.2999999523,627525.1999999881,621423.296,621622.3999999762,621440.143,627346.005,1,40,35,
sequence,flow.Sequence,8_34,2023-11-17T18:43:59.409Z,,,,,,,,,,,6085.056999988039,completion,,,,,,,low,high,,,,,,false,,,,,true,627525.5,627525.1999999881,621423.296,621622.3999999762,621440.143,627346.005,1,40,,
trial,html.Screen,8_35_0,2023-11-17T18:44:05.705Z,,,,2,-0.0102460616775615,0.0309670599545429,,0.05,true,hl,6475.294999952312,response,0.8092423703106274,0.9537864606392138,-0.9507096204305345,-1.1870093485714288,0.9210055379277045,-1.0110560028001914,high,low,,ISIC_0072041.JPG,,ISIC_8592235.JPG,25,false,0.22000000000000008,hl,keypress(j),0,true,633821.5,633821.2999999523,627329.265,627525.5,627346.005,633635.652,1,40,36,
sequence,flow.Sequence,8_35,2023-11-17T18:44:05.705Z,,,,,,,,,,,6475.294999952312,completion,,,,,,,high,low,,,,,,false,,,,,true,633821.5999999642,633821.2999999523,627329.265,627525.5,627346.005,633635.652,1,40,,
trial,html.Screen,8_36_0,2023-11-17T18:44:10.417Z,,,,2,,-0.0264544974620926,,0.05,false,lh,4897.747999976156,response,-0.991282840649944,0.9537864606392138,-0.9507096204305345,0.9397921099839784,0.9210055379277045,-1.0110560028001914,low,high,,ISIC_0056991.JPG,,ISIC_0000463.JPG,27,false,0.18000000000000005,ll,keypress(f),0,true,638533.5,638533.3999999762,633618.877,633821.5999999642,633635.652,638357.035,1,40,37,
sequence,flow.Sequence,8_36,2023-11-17T18:44:10.417Z,,,,,,,,,,,4897.747999976156,completion,,,,,,,low,high,,,,,,false,,,,,true,638533.5999999642,638533.3999999762,633618.877,633821.5999999642,633635.652,638357.035,1,40,,
trial,html.Screen,8_37_0,2023-11-17T18:44:18.889Z,,,,2,0.0363437082783146,0.0333332186217051,,0.05,false,ll,8648.764999952284,response,-1.0270718265914571,0.9537864606392138,-0.9507096204305345,-0.9536353804316964,0.9710055379277045,-1.0110560028001914,low,low,,ISIC_3314555.JPG,,ISIC_3431915.JPG,38,false,0.1,hl,keypress(j),0,true,647006.0999999642,647005.7999999523,638340.496,638533.6999999881,638357.035,646832.206,1,40,38,
sequence,flow.Sequence,8_37,2023-11-17T18:44:18.890Z,,,,,,,,,,,8648.764999952284,completion,,,,,,,low,low,,,,,,false,,,,,true,647006.1999999881,647005.7999999523,638340.496,638533.6999999881,638357.035,646832.206,1,40,,
trial,html.Screen,8_38_0,2023-11-17T18:44:25.522Z,,,,2,-0.0051189696037511,0.0396625911332438,,0.05,false,ll,6805.693999976153,response,-0.9191486333136276,0.9537864606392138,-1.0007096204305346,-1.001866590114321,0.9710055379277045,-0.9224591105408202,low,low,,ISIC_9742891.JPG,,ISIC_0663941.JPG,43,false,0.1,hl,keypress(j),0,true,653638,653637.8999999762,646815.548,647006.3999999762,646832.206,653455.519,1,40,39,
sequence,flow.Sequence,8_38,2023-11-17T18:44:25.522Z,,,,,,,,,,,6805.693999976153,completion,,,,,,,low,low,,,,,,false,,,,,true,653638.1999999881,653637.8999999762,646815.548,647006.3999999762,646832.206,653455.519,1,40,,
trial,html.Screen,8_39_0,2023-11-17T18:44:28.178Z,,,,2,0.0050679133050021,-0.0009714874637896,,0.05,false,hh,2838.180999988108,response,0.8835058339726064,0.9537864606392138,-1.0507096204305346,1.035612893059322,0.9710055379277045,-0.9224591105408202,high,high,,ISIC_9848743.JPG,,ISIC_0069595.JPG,43,false,0.1,hl,keypress(j),0,true,656293.7999999523,656293.6999999881,653438.814,653638.3999999762,653455.519,656108.168,1,40,40,
sequence,flow.Sequence,8_39,2023-11-17T18:44:28.178Z,,,,,,,,,,,2838.180999988108,completion,,,,,,,high,high,,,,,,false,,,,,true,656294,656293.6999999881,653438.814,653638.2999999523,653455.519,656108.168,1,40,,
stair_loop,flow.Loop,8,2023-11-17T18:44:28.178Z,,,,,,,,,,,234770.3129999881,completion,,,,,,,,,,,,,,false,,,,,true,656294.1999999881,656293.6999999881,421506.726,421701.1999999881,421523.387,656108.168,1,40,,
exp_instructions,html.Screen,9,2023-11-17T18:44:30.994Z,,,,,,,,,,,3000.9319999642903,response,,,,,,,,,,,,,,,,continue,keypress(Space),,,659109.5,659109.0999999642,656091.566,656294.2999999523,656108.168,658944.321,,,,
trial,html.Screen,10_0_0,2023-11-17T18:44:33.642Z,,,,1,0.0050679133050021,-0.0009714874637896,,0.05,false,lh,2813.278999964241,response,-0.8487429103619056,0.9580645207681864,-1.0096420263513886,0.9778257804233036,0.9734213246584906,-1.060822447473877,low,high,,ISIC_9848743.JPG,8,ISIC_4554863.JPG,25,false,0.21000000000000008,ll,keypress(f),0,false,661757.6999999881,661757.5999999642,658911.001,659109.7999999523,658944.321,661580.302,4,500,1,
break,html.Screen,10_0_1,2023-11-17T18:44:33.642Z,,,,,,,,,,,NaN,,,,,,,,low,high,,,,,,false,,,,,false,661758.1999999881,661758.0999999642,,661757.7999999523,,661580.302,4,500,,
break_continue,html.Screen,10_0_2,2023-11-17T18:44:33.643Z,,,,,,,,,,,NaN,,,,,,,,low,high,,,,,,false,,,,,false,661758.5,661758.3999999762,,661758.2999999523,,661580.302,4,500,,
sequence,flow.Sequence,10_0,2023-11-17T18:44:33.643Z,,,,,,,,,,,2814.078999976162,completion,,,,,,,low,high,,,,,,false,,,,,false,661758.5999999642,661758.3999999762,658911.001,659109.6999999881,658944.321,661580.302,4,500,,
trial,html.Screen,10_1_0,2023-11-17T18:44:36.034Z,,,,1,0.0324770283903853,0.0249968632204382,,0.05,false,lh,2569.297999964212,response,-0.8179805381029407,0.9580645207681864,-1.0096420263513886,0.8578467162767749,0.9734213246584906,-1.060822447473877,low,high,,ISIC_7266462.JPG,9,ISIC_0067253.JPG,25,false,0.21000000000000008,hh,keypress(i),0,false,664149.7999999523,664149.5999999642,661563.703,661758.5999999642,661580.302,663966.04,4,500,2,
break,html.Screen,10_1_1,2023-11-17T18:44:36.035Z,,,,,,,,,,,NaN,,,,,,,,low,high,,,,,,false,,,,,false,664150.2999999523,664150.2999999523,,664150,,663966.04,4,500,,
break_continue,html.Screen,10_1_2,2023-11-17T18:44:36.035Z,,,,,,,,,,,NaN,,,,,,,,low,high,,,,,,false,,,,,false,664150.6999999881,664150.5,,664150.3999999762,,663966.04,4,500,,
sequence,flow.Sequence,10_1,2023-11-17T18:44:36.035Z,,,,,,,,,,,2570.197999999975,completion,,,,,,,low,high,,,,,,false,,,,,false,664150.7999999523,664150.5,661563.703,661758.5999999642,661580.302,663966.04,4,500,,
trial,html.Screen,10_2_0,2023-11-17T18:44:41.259Z,,,,1,0.039728379742806,-0.0228701131373768,,0.05,false,hh,5407.959999999963,response,0.8835058339726064,0.9580645207681864,-1.0096420263513886,1.035612893059322,0.9734213246584906,-1.060822447473877,high,high,,ISIC_0054073.JPG,9,ISIC_0069595.JPG,43,false,0.1,hl,keypress(j),0,false,669374.3999999762,669374,663949.563,664150.8999999762,663966.04,669187.881,4,500,3,
break,html.Screen,10_2_1,2023-11-17T18:44:41.259Z,,,,,,,,,,,NaN,,,,,,,,high,high,,,,,,false,,,,,false,669374.7999999523,669374.7999999523,,669374.5999999642,,669187.881,4,500,,
break_continue,html.Screen,10_2_2,2023-11-17T18:44:41.259Z,,,,,,,,,,,NaN,,,,,,,,high,high,,,,,,false,,,,,false,669375,669374.8999999762,,669374.7999999523,,669187.881,4,500,,
sequence,flow.Sequence,10_2,2023-11-17T18:44:41.259Z,,,,,,,,,,,5408.859999976121,completion,,,,,,,high,high,,,,,,false,,,,,false,669375,669374.8999999762,663949.563,664150.8999999762,663966.04,669187.881,4,500,,
trial,html.Screen,10_3_0,2023-11-17T18:44:50.147Z,,,,1,0.0363437082783146,0.0333332186217051,,0.05,false,lh,9074.418999952264,response,-0.8534691366511764,0.9580645207681864,-1.0096420263513886,1.03975580494588,0.9734213246584906,-1.060822447473877,low,high,,ISIC_3314555.JPG,10,ISIC_0056788.JPG,25,false,0.21000000000000008,hl,keypress(j),0,false,678262.5999999642,678262.2999999523,669171.249,669375.0999999642,669187.881,678080.118,4,500,4,
break,html.Screen,10_3_1,2023-11-17T18:44:50.148Z,,,,,,,,,,,NaN,,,,,,,,low,high,,,,,,false,,,,,false,678263.5999999642,678263.2999999523,,678262.8999999762,,678080.118,4,500,,
break_continue,html.Screen,10_3_2,2023-11-17T18:44:50.148Z,,,,,,,,,,,NaN,,,,,,,,low,high,,,,,,false,,,,,false,678264.1999999881,678264,,678263.6999999881,,678080.118,4,500,,
sequence,flow.Sequence,10_3,2023-11-17T18:44:50.149Z,,,,,,,,,,,9076.118999999948,completion,,,,,,,low,high,,,,,,false,,,,,false,678264.3999999762,678264,669171.249,669375.0999999642,669187.881,678080.118,4,500,,
trial,html.Screen,10_4_0,2023-11-17T18:44:54.849Z,,,,1,-0.0134764727102299,-0.0033499036460912,,0.05,true,lh,4885.081999988062,response,-1.011737552725394,0.9580645207681864,-1.0096420263513886,0.8500530224490773,0.9734213246584906,-1.060822447473877,low,high,,ISIC_0009998.JPG,9,ISIC_2998367.JPG,25,false,0.21000000000000008,lh,keypress(e),0,false,682965.2999999523,682965.1999999881,678063.582,678264.5999999642,678080.118,682784.854,4,500,5,
break,html.Screen,10_4_1,2023-11-17T18:44:54.850Z,,,,,,,,,,,NaN,,,,,,,,low,high,,,,,,false,,,,,false,682965.5,682965.5,,682965.3999999762,,682784.854,4,500,,
break_continue,html.Screen,10_4_2,2023-11-17T18:44:54.850Z,,,,,,,,,,,NaN,,,,,,,,low,high,,,,,,false,,,,,false,682965.6999999881,682965.6999999881,,682965.5999999642,,682784.854,4,500,,
sequence,flow.Sequence,10_4,2023-11-17T18:44:54.850Z,,,,,,,,,,,4885.581999988062,completion,,,,,,,low,high,,,,,,false,,,,,false,682965.7999999523,682965.6999999881,678063.582,678264.5,678080.118,682784.854,4,500,,
trial,html.Screen,10_5_0,2023-11-17T18:45:03.066Z,,,,1,0.0070725527271049,0.0049995141077508,,0.05,false,lh,8396.745999964187,response,-0.8809306963311293,0.9580645207681864,-1.0096420263513886,0.8614910030038974,0.9734213246584906,-1.060822447473877,low,high,,ISIC_6124481.JPG,9,ISIC_0013731.JPG,25,false,0.21000000000000008,hl,keypress(j),0,false,691181.5999999642,691181.5999999642,682768.167,682965.7999999523,682784.854,691009.741,4,500,6,
break,html.Screen,10_5_1,2023-11-17T18:45:03.066Z,,,,,,,,,,,NaN,,,,,,,,low,high,,,,,,false,,,,,false,691182.0999999642,691182,,691181.7999999523,,691009.741,4,500,,
break_continue,html.Screen,10_5_2,2023-11-17T18:45:03.066Z,,,,,,,,,,,NaN,,,,,,,,low,high,,,,,,false,,,,,false,691182.1999999881,691182.1999999881,,691182.0999999642,,691009.741,4,500,,
sequence,flow.Sequence,10_5,2023-11-17T18:45:03.067Z,,,,,,,,,,,8397.345999988029,completion,,,,,,,low,high,,,,,,false,,,,,false,691182.3999999762,691182.1999999881,682768.167,682965.7999999523,682784.854,691009.741,4,500,,
trial,html.Screen,10_6_0,2023-11-17T18:45:10.546Z,,,,1,0.039728379742806,-0.0228701131373768,,0.05,false,hl,7652.358999964199,response,0.7197989269080959,0.9580645207681864,-1.0096420263513886,-0.9410141415297968,0.9734213246584906,-1.060822447473877,high,low,,ISIC_0054073.JPG,10,ISIC_2635051.JPG,26,false,0.2600000000000001,hh,keypress(i),0,false,698662.1999999881,698662.0999999642,690993.028,691182.3999999762,691009.741,698483.904,4,500,7,
break,html.Screen,10_6_1,2023-11-17T18:45:10.547Z,,,,,,,,,,,NaN,,,,,,,,high,low,,,,,,false,,,,,false,698663.0999999642,698662.7999999523,,698662.5999999642,,698483.904,4,500,,
break_continue,html.Screen,10_6_2,2023-11-17T18:45:10.548Z,,,,,,,,,,,NaN,,,,,,,,high,low,,,,,,false,,,,,false,698663.6999999881,698663.5,,698663.2999999523,,698483.904,4,500,,
sequence,flow.Sequence,10_6,2023-11-17T18:45:10.548Z,,,,,,,,,,,7653.758999999962,completion,,,,,,,high,low,,,,,,false,,,,,false,698663.7999999523,698663.5,690993.028,691182.3999999762,691009.741,698483.904,4,500,,
trial,html.Screen,10_7_0,2023-11-17T18:45:13.250Z,,,,1,0.0389988030702649,0.0143212271490256,,0.05,false,lh,2881.4959999761777,response,-1.2075172235545184,0.9580645207681864,-1.0096420263513886,0.9116724966267612,0.9734213246584906,-1.060822447473877,low,high,,ISIC_0064669.JPG,9,ISIC_0024235.JPG,25,false,0.21000000000000008,ll,keypress(f),0,false,701365.5,701365.3999999762,698467.236,698664,698483.904,701186.615,4,500,8,
break,html.Screen,10_7_1,2023-11-17T18:45:13.250Z,,,,,,,,,,,NaN,,,,,,,,low,high,,,,,,false,,,,,false,701365.7999999523,701365.6999999881,,701365.5999999642,,701186.615,4,500,,
break_continue,html.Screen,10_7_2,2023-11-17T18:45:13.250Z,,,,,,,,,,,NaN,,,,,,,,low,high,,,,,,false,,,,,false,701366.0999999642,701365.8999999762,,701365.7999999523,,701186.615,4,500,,
sequence,flow.Sequence,10_7,2023-11-17T18:45:13.250Z,,,,,,,,,,,2881.9959999761777,completion,,,,,,,low,high,,,,,,false,,,,,false,701366.0999999642,701365.8999999762,698467.236,698664,698483.904,701186.615,4,500,,
trial,html.Screen,10_8_0,2023-11-17T18:45:20.066Z,,,,1,-0.0348234368746005,0.0236866303880924,,0.05,true,hl,6995.2849999761675,response,0.796241477082623,0.9580645207681864,-1.0096420263513886,-0.9017449335975743,0.9734213246584906,-1.060822447473877,high,low,,ISIC_0011099.JPG,9,ISIC_8588033.JPG,26,false,0.2600000000000001,hl,keypress(j),0,false,708182.0999999642,708181.8999999762,701170.083,701366.1999999881,701186.615,708010.135,4,500,9,
break,html.Screen,10_8_1,2023-11-17T18:45:20.067Z,,,,,,,,,,,NaN,,,,,,,,high,low,,,,,,false,,,,,false,708182.6999999881,708182.5,,708182.2999999523,,708010.135,4,500,,
break_continue,html.Screen,10_8_2,2023-11-17T18:45:20.067Z,,,,,,,,,,,NaN,,,,,,,,high,low,,,,,,false,,,,,false,708183.0999999642,708183,,708182.8999999762,,708010.135,4,500,,
sequence,flow.Sequence,10_8,2023-11-17T18:45:20.068Z,,,,,,,,,,,6996.385000000009,completion,,,,,,,high,low,,,,,,false,,,,,false,708183.2999999523,708183,701170.083,701366.1999999881,701186.615,708010.135,4,500,,
trial,html.Screen,10_9_0,2023-11-17T18:45:29.603Z,,,,1,0.0363437082783146,0.0333332186217051,,0.05,true,lh,9707.464999964228,response,-0.9454713230140772,0.9580645207681864,-1.0096420263513886,0.9245167441969216,0.9734213246584906,-1.060822447473877,low,high,,ISIC_3314555.JPG,10,ISIC_9101055.JPG,25,false,0.21000000000000008,lh,keypress(e),0,false,717717.7999999523,717717.5999999642,707993.438,708183.5,708010.135,717536.27,4,500,10,
break,html.Screen,10_9_1,2023-11-17T18:45:29.603Z,,,,,,,,,,,NaN,,,,,,,,low,high,,,,,,false,,,,,false,717718,717718,,717717.7999999523,,717536.27,4,500,,
break_continue,html.Screen,10_9_2,2023-11-17T18:45:29.603Z,,,,,,,,,,,NaN,,,,,,,,low,high,,,,,,false,,,,,false,717718.1999999881,717718.0999999642,,717718.0999999642,,717536.27,4,500,,
sequence,flow.Sequence,10_9,2023-11-17T18:45:29.603Z,,,,,,,,,,,9707.964999964228,completion,,,,,,,low,high,,,,,,false,,,,,false,717718.2999999523,717718.0999999642,707993.438,708183.3999999762,708010.135,717536.27,4,500,,
trial,html.Screen,10_10_0,2023-11-17T18:45:31.667Z,,,,1,0.0069555338059566,-0.0310100918136373,,0.05,true,ll,2245.7299999999814,response,-0.9358725198038064,0.9580645207681864,-1.0096420263513886,-0.9938776615596308,0.9734213246584906,-1.060822447473877,low,low,,ISIC_0011177.JPG,10,ISIC_3365692.JPG,30,false,0.1,ll,keypress(f),0,false,719782.1999999881,719782,717519.486,717718.2999999523,717536.27,719605.05,4,500,11,
break,html.Screen,10_10_1,2023-11-17T18:45:31.668Z,,,,,,,,,,,NaN,,,,,,,,low,low,,,,,,false,,,,,false,719782.7999999523,719782.6999999881,,719782.3999999762,,719605.05,4,500,,
break_continue,html.Screen,10_10_2,2023-11-17T18:45:31.668Z,,,,,,,,,,,NaN,,,,,,,,low,low,,,,,,false,,,,,false,719783.1999999881,719783.0999999642,,719783,,719605.05,4,500,,
sequence,flow.Sequence,10_10,2023-11-17T18:45:31.668Z,,,,,,,,,,,2246.8299999642186,completion,,,,,,,low,low,,,,,,false,,,,,false,719783.3999999762,719783.0999999642,717519.486,717718.2999999523,717536.27,719605.05,4,500,,
trial,html.Screen,10_11_0,2023-11-17T18:45:33.843Z,,,,1,0.0085520978188085,-0.0464691161264081,,0.05,false,lh,2353.0499999641906,response,-0.8860551570327019,0.9580645207681864,-1.0096420263513886,0.8067116931297591,0.9734213246584906,-1.060822447473877,low,high,,ISIC_0758797.JPG,9,ISIC_1457687.JPG,25,false,0.21000000000000008,ll,keypress(f),0,false,721958.3999999762,721958.0999999642,719588.503,719783.5,719605.05,721773.936,4,500,12,
break,html.Screen,10_11_1,2023-11-17T18:45:33.844Z,,,,,,,,,,,NaN,,,,,,,,low,high,,,,,,false,,,,,false,721959.0999999642,721959,,721958.5999999642,,721773.936,4,500,,
break_continue,html.Screen,10_11_2,2023-11-17T18:45:33.844Z,,,,,,,,,,,NaN,,,,,,,,low,high,,,,,,false,,,,,false,721959.5,721959.3999999762,,721959.1999999881,,721773.936,4,500,,
sequence,flow.Sequence,10_11,2023-11-17T18:45:33.845Z,,,,,,,,,,,2354.3499999761116,completion,,,,,,,low,high,,,,,,false,,,,,false,721959.7999999523,721959.3999999762,719588.503,719783.3999999762,719605.05,721773.936,4,500,,
trial,html.Screen,10_12_0,2023-11-17T18:45:40.059Z,,,,1,-0.0348234368746005,0.0236866303880924,,0.05,true,hl,6400.064000000013,response,0.9235571765207048,0.9580645207681864,-1.0096420263513886,-1.0008081653938232,0.9734213246584906,-1.060822447473877,high,low,,ISIC_0011099.JPG,9,ISIC_8796632.JPG,26,false,0.2600000000000001,hl,keypress(j),0,false,728174.1999999881,728174,721757.188,721959.8999999762,721773.936,727996.765,4,500,13,
break,html.Screen,10_12_1,2023-11-17T18:45:40.060Z,,,,,,,,,,,NaN,,,,,,,,high,low,,,,,,false,,,,,false,728174.7999999523,728174.5999999642,,728174.3999999762,,727996.765,4,500,,
break_continue,html.Screen,10_12_2,2023-11-17T18:45:40.060Z,,,,,,,,,,,NaN,,,,,,,,high,low,,,,,,false,,,,,false,728175.1999999881,728175,,728174.8999999762,,727996.765,4,500,,
sequence,flow.Sequence,10_12,2023-11-17T18:45:40.060Z,,,,,,,,,,,6401.064000000013,completion,,,,,,,high,low,,,,,,false,,,,,false,728175.3999999762,728175,721757.188,721959.8999999762,721773.936,727996.765,4,500,,
trial,html.Screen,10_13_0,2023-11-17T18:45:45.650Z,,,,1,-0.0188047466661863,0.0288346930436979,,0.05,false,hh,5768.734999999986,response,0.9306454722820696,0.9580645207681864,-1.0096420263513886,0.9812399591657396,0.9734213246584906,-1.060822447473877,high,high,,ISIC_0014157.JPG,9,ISIC_0009940.JPG,43,false,0.1,hl,keypress(j),0,false,733765.5,733765.5,727980.268,728175.5,727996.765,733585.679,4,500,14,
break,html.Screen,10_13_1,2023-11-17T18:45:45.651Z,,,,,,,,,,,NaN,,,,,,,,high,high,,,,,,false,,,,,false,733765.8999999762,733765.8999999762,,733765.6999999881,,733585.679,4,500,,
break_continue,html.Screen,10_13_2,2023-11-17T18:45:45.651Z,,,,,,,,,,,NaN,,,,,,,,high,high,,,,,,false,,,,,false,733766.0999999642,733766.0999999642,,733765.8999999762,,733585.679,4,500,,
sequence,flow.Sequence,10_13,2023-11-17T18:45:45.651Z,,,,,,,,,,,5769.334999964223,completion,,,,,,,high,high,,,,,,false,,,,,false,733766.2999999523,733766.0999999642,727980.268,728175.3999999762,727996.765,733585.679,4,500,,
trial,html.Screen,10_14_0,2023-11-17T18:45:51.746Z,,,,1,-0.0188047466661863,0.0288346930436979,,0.05,true,lh,6275.820999999996,response,-0.869932994914832,0.9580645207681864,-1.0096420263513886,0.8880533324432531,0.9734213246584906,-1.060822447473877,low,high,,ISIC_0014157.JPG,9,ISIC_8617084.JPG,25,false,0.21000000000000008,lh,keypress(e),0,false,739861.5,739861.5,733569.083,733766.2999999523,733585.679,739675.131,4,500,15,
break,html.Screen,10_14_1,2023-11-17T18:45:51.747Z,,,,,,,,,,,NaN,,,,,,,,low,high,,,,,,false,,,,,false,739861.7999999523,739861.7999999523,,739861.5999999642,,739675.131,4,500,,
break_continue,html.Screen,10_14_2,2023-11-17T18:45:51.747Z,,,,,,,,,,,NaN,,,,,,,,low,high,,,,,,false,,,,,false,739862,739861.8999999762,,739861.8999999762,,739675.131,4,500,,
sequence,flow.Sequence,10_14,2023-11-17T18:45:51.747Z,,,,,,,,,,,6276.220999976154,completion,,,,,,,low,high,,,,,,false,,,,,false,739862.0999999642,739861.8999999762,733569.083,733766.2999999523,733585.679,739675.131,4,500,,
trial,html.Screen,10_15_0,2023-11-17T18:45:55.291Z,,,,1,0.0329095507339554,-0.0382899749693245,,0.05,true,lh,3731.068999988027,response,-0.9579209317488,0.9580645207681864,-1.0096420263513886,1.0147487101263497,0.9734213246584906,-1.060822447473877,low,high,,ISIC_8812781.JPG,8,ISIC_8124482.JPG,25,false,0.21000000000000008,lh,keypress(e),0,false,743406.5,743406.1999999881,739658.421,739862.1999999881,739675.131,743228.698,4,500,16,
break,html.Screen,10_15_1,2023-11-17T18:45:55.292Z,,,,,,,,,,,NaN,,,,,,,,low,high,,,,,,false,,,,,false,743407.3999999762,743407.0999999642,,743406.7999999523,,743228.698,4,500,,
break_continue,html.Screen,10_15_2,2023-11-17T18:45:55.293Z,,,,,,,,,,,NaN,,,,,,,,low,high,,,,,,false,,,,,false,743407.7999999523,743407.6999999881,,743407.5,,743228.698,4,500,,
sequence,flow.Sequence,10_15,2023-11-17T18:45:55.293Z,,,,,,,,,,,3732.568999988027,completion,,,,,,,low,high,,,,,,false,,,,,false,743408.0999999642,743407.6999999881,739658.421,739862.0999999642,739675.131,743228.698,4,500,,
trial,html.Screen,10_16_0,2023-11-17T18:45:58.235Z,,,,1,0.0057914759495055,0.0074667911845194,,0.05,false,lh,3120.9019999642624,response,-0.9454713230140772,0.9580645207681864,-1.0096420263513886,0.9245167441969216,0.9734213246584906,-1.060822447473877,low,high,,ISIC_0058723.JPG,9,ISIC_9101055.JPG,25,false,0.21000000000000008,hh,keypress(i),0,false,746349.6999999881,746349.5999999642,743212.077,743408.1999999881,743228.698,746164.952,4,500,17,
break,html.Screen,10_16_1,2023-11-17T18:45:58.235Z,,,,,,,,,,,NaN,,,,,,,,low,high,,,,,,false,,,,,false,746350.0999999642,746350.0999999642,,746349.8999999762,,746164.952,4,500,,
break_continue,html.Screen,10_16_2,2023-11-17T18:45:58.235Z,,,,,,,,,,,NaN,,,,,,,,low,high,,,,,,false,,,,,false,746350.3999999762,746350.2999999523,,746350.1999999881,,746164.952,4,500,,
sequence,flow.Sequence,10_16,2023-11-17T18:45:58.235Z,,,,,,,,,,,3121.6019999523414,completion,,,,,,,low,high,,,,,,false,,,,,false,746350.5,746350.2999999523,743212.077,743408.1999999881,743228.698,746164.952,4,500,,
trial,html.Screen,10_17_0,2023-11-17T18:46:01.170Z,,,,1,0.0107854985447517,0.0478010417136109,,0.05,false,ll,3120.147999964189,response,-0.9949403898803344,0.9580645207681864,-1.0096420263513886,-1.0036806409150678,0.9734213246584906,-1.060822447473877,low,low,,ISIC_0010500.JPG,9,ISIC_0012450.JPG,30,false,0.1,lh,keypress(e),0,false,749285.0999999642,749285.0999999642,746148.353,746350.5999999642,746164.952,749101.209,4,500,18,
break,html.Screen,10_17_1,2023-11-17T18:46:01.170Z,,,,,,,,,,,NaN,,,,,,,,low,low,,,,,,false,,,,,false,749285.5999999642,749285.5,,749285.2999999523,,749101.209,4,500,,
break_continue,html.Screen,10_17_2,2023-11-17T18:46:01.171Z,,,,,,,,,,,NaN,,,,,,,,low,low,,,,,,false,,,,,false,749285.6999999881,749285.6999999881,,749285.5999999642,,749101.209,4,500,,
sequence,flow.Sequence,10_17,2023-11-17T18:46:01.171Z,,,,,,,,,,,3120.7479999880306,completion,,,,,,,low,low,,,,,,false,,,,,false,749285.7999999523,749285.6999999881,746148.353,746350.5,746164.952,749101.209,4,500,,
trial,html.Screen,10_18_0,2023-11-17T18:46:04.403Z,,,,1,-0.0409338693593207,0.0072462710499874,,0.05,false,hl,3416.5909999522846,response,0.8655167308525522,0.9580645207681864,-1.0096420263513886,-0.9298580423306444,0.9734213246584906,-1.060822447473877,high,low,,ISIC_3608788.JPG,9,ISIC_4603706.JPG,26,false,0.2600000000000001,lh,keypress(e),0,false,752518,752517.7999999523,749084.528,749285.8999999762,749101.209,752337.828,4,500,19,
break,html.Screen,10_18_1,2023-11-17T18:46:04.403Z,,,,,,,,,,,NaN,,,,,,,,high,low,,,,,,false,,,,,false,752518.3999999762,752518.3999999762,,752518.1999999881,,752337.828,4,500,,
break_continue,html.Screen,10_18_2,2023-11-17T18:46:04.404Z,,,,,,,,,,,NaN,,,,,,,,high,low,,,,,,false,,,,,false,752518.6999999881,752518.5999999642,,752518.5,,752337.828,4,500,,
sequence,flow.Sequence,10_18,2023-11-17T18:46:04.404Z,,,,,,,,,,,3417.3909999642055,completion,,,,,,,high,low,,,,,,false,,,,,false,752518.7999999523,752518.5999999642,749084.528,749285.8999999762,749101.209,752337.828,4,500,,
trial,html.Screen,10_19_0,2023-11-17T18:46:06.971Z,,,,1,-0.0102460616775615,0.0309670599545429,,0.05,false,hl,2748.2719999642577,response,1.0213365328004047,0.9580645207681864,-1.0096420263513886,-1.088524359911891,0.9734213246584906,-1.060822447473877,high,low,,ISIC_0072041.JPG,9,ISIC_5434229.JPG,26,false,0.2600000000000001,hh,keypress(i),0,false,755086.2999999523,755086.0999999642,752321.229,752518.8999999762,752337.828,754907.075,4,500,20,
break,html.Screen,10_19_1,2023-11-17T18:46:06.972Z,,,,,,,,,,,NaN,,,,,,,,high,low,,,,,,false,,,,,false,755086.8999999762,755086.7999999523,,755086.5,,754907.075,4,500,,
break_continue,html.Screen,10_19_2,2023-11-17T18:46:06.972Z,,,,,,,,,,,NaN,,,,,,,,high,low,,,,,,false,,,,,false,755087.2999999523,755087.1999999881,,755087,,754907.075,4,500,,
sequence,flow.Sequence,10_19,2023-11-17T18:46:06.972Z,,,,,,,,,,,2749.3719999880996,completion,,,,,,,high,low,,,,,,false,,,,,false,755087.5,755087.1999999881,752321.229,752518.7999999523,752337.828,754907.075,4,500,,
trial,html.Screen,10_20_0,2023-11-17T18:46:11.891Z,,,,1,0.0070725527271049,0.0049995141077508,,0.05,true,hl,5098.724999952363,response,0.948927472020595,0.9580645207681864,-1.0096420263513886,-1.0660437155921598,0.9734213246584906,-1.060822447473877,high,low,,ISIC_6124481.JPG,9,ISIC_5808758.JPG,26,false,0.2600000000000001,hl,keypress(j),0,false,760006,760005.7999999523,754890.419,755087.5999999642,754907.075,759828.65,4,500,21,
break,html.Screen,10_20_1,2023-11-17T18:46:11.891Z,,,,,,,,,,,NaN,,,,,,,,high,low,,,,,,false,,,,,false,760006.3999999762,760006.3999999762,,760006.0999999642,,759828.65,4,500,,
break_continue,html.Screen,10_20_2,2023-11-17T18:46:11.892Z,,,,,,,,,,,NaN,,,,,,,,high,low,,,,,,false,,,,,false,760006.8999999762,760006.7999999523,,760006.5999999642,,759828.65,4,500,,
sequence,flow.Sequence,10_20,2023-11-17T18:46:11.892Z,,,,,,,,,,,5099.724999952363,completion,,,,,,,high,low,,,,,,false,,,,,false,760007.0999999642,760006.7999999523,754890.419,755087.5999999642,754907.075,759828.65,4,500,,
trial,html.Screen,10_21_0,2023-11-17T18:46:18.339Z,,,,1,-0.0348234368746005,0.0236866303880924,,0.05,false,ll,6625.249999976135,response,-0.9191486333136276,0.9580645207681864,-1.0096420263513886,-1.001866590114321,0.9734213246584906,-1.060822447473877,low,low,,ISIC_0011099.JPG,9,ISIC_0663941.JPG,30,false,0.1,lh,keypress(e),0,false,766454,766453.8999999762,759812.047,760007.0999999642,759828.65,766285.132,4,500,22,
break,html.Screen,10_21_1,2023-11-17T18:46:18.339Z,,,,,,,,,,,NaN,,,,,,,,low,low,,,,,,false,,,,,false,766454.5,766454.3999999762,,766454.1999999881,,766285.132,4,500,,
break_continue,html.Screen,10_21_2,2023-11-17T18:46:18.340Z,,,,,,,,,,,NaN,,,,,,,,low,low,,,,,,false,,,,,false,766454.7999999523,766454.6999999881,,766454.5999999642,,766285.132,4,500,,
sequence,flow.Sequence,10_21,2023-11-17T18:46:18.340Z,,,,,,,,,,,6626.049999988056,completion,,,,,,,low,low,,,,,,false,,,,,false,766454.8999999762,766454.6999999881,759812.047,760007.0999999642,759828.65,766285.132,4,500,,
trial,html.Screen,10_22_0,2023-11-17T18:46:20.594Z,,,,1,0.0217698886732706,-0.0410870915161425,,0.05,false,lh,2424.467999964254,response,-0.8179805381029407,0.9580645207681864,-1.0096420263513886,0.8578467162767749,0.9734213246584906,-1.060822447473877,low,high,,ISIC_0072173.JPG,9,ISIC_0067253.JPG,25,false,0.21000000000000008,hh,keypress(i),0,false,768709.5999999642,768709.5999999642,766251.928,766455,766285.132,768537.452,4,500,23,
break,html.Screen,10_22_1,2023-11-17T18:46:20.595Z,,,,,,,,,,,NaN,,,,,,,,low,high,,,,,,false,,,,,false,768710,768710,,768709.7999999523,,768537.452,4,500,,
break_continue,html.Screen,10_22_2,2023-11-17T18:46:20.595Z,,,,,,,,,,,NaN,,,,,,,,low,high,,,,,,false,,,,,false,768710.1999999881,768710.1999999881,,768710,,768537.452,4,500,,
sequence,flow.Sequence,10_22,2023-11-17T18:46:20.595Z,,,,,,,,,,,2425.067999988096,completion,,,,,,,low,high,,,,,,false,,,,,false,768710.1999999881,768710.1999999881,766251.928,766455,766285.132,768537.452,4,500,,
trial,html.Screen,10_23_0,2023-11-17T18:46:23.667Z,,,,1,0.0027483411352856,0.0100996915276271,,0.05,true,hh,3244.147999964189,response,0.9172533965459856,0.9580645207681864,-1.0096420263513886,0.9108989535315742,0.9734213246584906,-1.060822447473877,high,high,,ISIC_7364041.JPG,9,ISIC_0990298.JPG,43,false,0.1,hh,keypress(i),0,false,771781.6999999881,771781.5999999642,768520.899,768710.1999999881,768537.452,771607.1,4,500,24,
break,html.Screen,10_23_1,2023-11-17T18:46:23.667Z,,,,,,,,,,,NaN,,,,,,,,high,high,,,,,,false,,,,,false,771782.0999999642,771782,,771781.7999999523,,771607.1,4,500,,
break_continue,html.Screen,10_23_2,2023-11-17T18:46:23.668Z,,,,,,,,,,,NaN,,,,,,,,high,high,,,,,,false,,,,,false,771782.2999999523,771782.1999999881,,771782.0999999642,,771607.1,4,500,,
sequence,flow.Sequence,10_23,2023-11-17T18:46:23.668Z,,,,,,,,,,,3244.7479999880306,completion,,,,,,,high,high,,,,,,false,,,,,false,771782.2999999523,771782.1999999881,768520.899,768710.1999999881,768537.452,771607.1,4,500,,
trial,html.Screen,10_24_0,2023-11-17T18:46:29.476Z,,,,1,-0.0277178575053843,0.0395587463147856,,0.05,false,hl,5983.099999988102,response,0.7809949855371787,0.9580645207681864,-1.0096420263513886,-0.8493861117004308,0.9734213246584906,-1.060822447473877,high,low,,ISIC_0010807.JPG,9,ISIC_7450481.JPG,26,false,0.2600000000000001,hh,keypress(i),0,false,777590.3999999762,777590.1999999881,771590.523,771782.5,771607.1,777412.889,4,500,25,
break,html.Screen,10_24_1,2023-11-17T18:46:29.476Z,,,,,,,,,,,NaN,,,,,,,,high,low,,,,,,false,,,,,false,777591,777590.8999999762,,777590.5,,777412.889,4,500,,
break_continue,html.Screen,10_24_2,2023-11-17T18:46:29.477Z,,,,,,,,,,,NaN,,,,,,,,high,low,,,,,,false,,,,,false,777591.5,777591.2999999523,,777591.1999999881,,777412.889,4,500,,
sequence,flow.Sequence,10_24,2023-11-17T18:46:29.477Z,,,,,,,,,,,5984.19999995234,completion,,,,,,,high,low,,,,,,false,,,,,false,777591.5999999642,777591.2999999523,771590.523,771782.5,771607.1,777412.889,4,500,,
trial,html.Screen,10_25_0,2023-11-17T18:46:32.115Z,,,,1,-0.0097091270150747,0.0417921315885292,,0.05,false,lh,2816.5109999761917,response,-0.9433720631499012,0.9580645207681864,-1.0096420263513886,1.0582071940347648,0.9734213246584906,-1.060822447473877,low,high,,ISIC_3967213.JPG,8,ISIC_4890201.JPG,25,false,0.21000000000000008,ll,keypress(f),0,false,780229.5,780229.3999999762,777396.274,777591.6999999881,777412.889,780048.923,4,500,26,
break,html.Screen,10_25_1,2023-11-17T18:46:32.115Z,,,,,,,,,,,NaN,,,,,,,,low,high,,,,,,false,,,,,false,780229.6999999881,780229.6999999881,,780229.5999999642,,780048.923,4,500,,
break_continue,html.Screen,10_25_2,2023-11-17T18:46:32.115Z,,,,,,,,,,,NaN,,,,,,,,low,high,,,,,,false,,,,,false,780229.8999999762,780229.8999999762,,780229.7999999523,,780048.923,4,500,,
sequence,flow.Sequence,10_25,2023-11-17T18:46:32.115Z,,,,,,,,,,,2817.0109999761917,completion,,,,,,,low,high,,,,,,false,,,,,false,780230.0999999642,780229.8999999762,777396.274,777591.6999999881,777412.889,780048.923,4,500,,
trial,html.Screen,10_26_0,2023-11-17T18:46:34.227Z,,,,1,0.0027483411352856,0.0100996915276271,,0.05,true,ll,2292.5770000000484,response,-0.9102336581208296,0.9580645207681864,-1.0096420263513886,-1.0305113346799688,0.9734213246584906,-1.060822447473877,low,low,,ISIC_7364041.JPG,9,ISIC_0068530.JPG,30,false,0.1,ll,keypress(f),0,false,782341.5999999642,782341.5,780032.161,780230.0999999642,780048.923,782167.836,4,500,27,
break,html.Screen,10_26_1,2023-11-17T18:46:34.227Z,,,,,,,,,,,NaN,,,,,,,,low,low,,,,,,false,,,,,false,782342,782341.8999999762,,782341.7999999523,,782167.836,4,500,,
break_continue,html.Screen,10_26_2,2023-11-17T18:46:34.228Z,,,,,,,,,,,NaN,,,,,,,,low,low,,,,,,false,,,,,false,782342.1999999881,782342.0999999642,,782342,,782167.836,4,500,,
sequence,flow.Sequence,10_26,2023-11-17T18:46:34.228Z,,,,,,,,,,,2293.1769999642856,completion,,,,,,,low,low,,,,,,false,,,,,false,782342.2999999523,782342.0999999642,780032.161,780230.0999999642,780048.923,782167.836,4,500,,
trial,html.Screen,10_27_0,2023-11-17T18:46:37.571Z,,,,1,0.039728379742806,-0.0228701131373768,,0.05,false,lh,3517.363999988069,response,-0.990489579313564,0.9580645207681864,-1.0096420263513886,0.7747897983133127,0.9734213246584906,-1.060822447473877,low,high,,ISIC_0054073.JPG,9,ISIC_7030404.JPG,25,false,0.21000000000000008,ll,keypress(f),0,false,785685.2999999523,785685.1999999881,782151.169,782342.2999999523,782167.836,785504.295,4,500,28,
break,html.Screen,10_27_1,2023-11-17T18:46:37.571Z,,,,,,,,,,,NaN,,,,,,,,low,high,,,,,,false,,,,,false,785685.7999999523,785685.5999999642,,785685.5,,785504.295,4,500,,
break_continue,html.Screen,10_27_2,2023-11-17T18:46:37.571Z,,,,,,,,,,,NaN,,,,,,,,low,high,,,,,,false,,,,,false,785685.8999999762,785685.8999999762,,785685.7999999523,,785504.295,4,500,,
sequence,flow.Sequence,10_27,2023-11-17T18:46:37.571Z,,,,,,,,,,,3518.063999976148,completion,,,,,,,low,high,,,,,,false,,,,,false,785686,785685.8999999762,782151.169,782342.2999999523,782167.836,785504.295,4,500,,
trial,html.Screen,10_28_0,2023-11-17T18:46:39.835Z,,,,1,0.0069555338059566,-0.0310100918136373,,0.05,false,lh,2445.204999999958,response,-1.2075172235545184,0.9580645207681864,-1.0096420263513886,0.9116724966267612,0.9734213246584906,-1.060822447473877,low,high,,ISIC_0011177.JPG,9,ISIC_0024235.JPG,25,false,0.21000000000000008,ll,keypress(f),0,false,787949.6999999881,787949.5,785487.63,785686,785504.295,787773.263,4,500,29,
break,html.Screen,10_28_1,2023-11-17T18:46:39.836Z,,,,,,,,,,,NaN,,,,,,,,low,high,,,,,,false,,,,,false,787950.0999999642,787949.8999999762,,787949.7999999523,,787773.263,4,500,,
break_continue,html.Screen,10_28_2,2023-11-17T18:46:39.836Z,,,,,,,,,,,NaN,,,,,,,,low,high,,,,,,false,,,,,false,787950.2999999523,787950.2999999523,,787950.1999999881,,787773.263,4,500,,
sequence,flow.Sequence,10_28,2023-11-17T18:46:39.836Z,,,,,,,,,,,2446.0049999522744,completion,,,,,,,low,high,,,,,,false,,,,,false,787950.2999999523,787950.2999999523,785487.63,785686,785504.295,787773.263,4,500,,
trial,html.Screen,10_29_0,2023-11-17T18:46:42.723Z,,,,1,-0.0112310719058792,0.0469047359904117,,0.05,false,hl,3064.4369999880437,response,0.8092423703106274,0.9580645207681864,-1.0096420263513886,-1.1870093485714288,0.9734213246584906,-1.060822447473877,high,low,,ISIC_0068184.JPG,9,ISIC_8592235.JPG,26,false,0.2600000000000001,lh,keypress(e),0,false,790837.8999999762,790837.6999999881,787756.538,787950.3999999762,787773.263,790659.501,4,500,30,
break,html.Screen,10_29_1,2023-11-17T18:46:42.724Z,,,,,,,,,,,NaN,,,,,,,,high,low,,,,,,false,,,,,false,790838.5,790838.2999999523,,790838.0999999642,,790659.501,4,500,,
break_continue,html.Screen,10_29_2,2023-11-17T18:46:42.724Z,,,,,,,,,,,NaN,,,,,,,,high,low,,,,,,false,,,,,false,790838.7999999523,790838.6999999881,,790838.5999999642,,790659.501,4,500,,
sequence,flow.Sequence,10_29,2023-11-17T18:46:42.724Z,,,,,,,,,,,3065.4369999880437,completion,,,,,,,high,low,,,,,,false,,,,,false,790839,790838.6999999881,787756.538,787950.3999999762,787773.263,790659.501,4,500,,
trial,html.Screen,10_30_0,2023-11-17T18:46:47.131Z,,,,1,,-0.0264544974620926,,0.05,false,lh,4586.198999988032,response,-0.9696118525781644,0.9580645207681864,-1.0096420263513886,0.9244148283103414,0.9734213246584906,-1.060822447473877,low,high,,ISIC_0056991.JPG,9,ISIC_7927525.JPG,25,false,0.21000000000000008,ll,keypress(f),0,false,795245.8999999762,795245.6999999881,790642.906,790839.0999999642,790659.501,795063.932,4,500,31,
break,html.Screen,10_30_1,2023-11-17T18:46:47.132Z,,,,,,,,,,,NaN,,,,,,,,low,high,,,,,,false,,,,,false,795246.2999999523,795246.1999999881,,795246,,795063.932,4,500,,
break_continue,html.Screen,10_30_2,2023-11-17T18:46:47.132Z,,,,,,,,,,,NaN,,,,,,,,low,high,,,,,,false,,,,,false,795246.7999999523,795246.5999999642,,795246.5,,795063.932,4,500,,
sequence,flow.Sequence,10_30,2023-11-17T18:46:47.132Z,,,,,,,,,,,4587.09899996419,completion,,,,,,,low,high,,,,,,false,,,,,false,795246.8999999762,795246.5999999642,790642.906,790839,790659.501,795063.932,4,500,,
trial,html.Screen,10_31_0,2023-11-17T18:46:49.323Z,,,,1,0.007397293189458,0.0174716772037504,,0.05,false,lh,2373.7679999880493,response,-1.2075172235545184,0.9580645207681864,-1.0096420263513886,0.9116724966267612,0.9734213246584906,-1.060822447473877,low,high,,ISIC_0056226.JPG,9,ISIC_0024235.JPG,25,false,0.21000000000000008,ll,keypress(f),0,false,797437.7999999523,797437.6999999881,795047.271,795247,795063.932,797266.104,4,500,32,
break,html.Screen,10_31_1,2023-11-17T18:46:49.324Z,,,,,,,,,,,NaN,,,,,,,,low,high,,,,,,false,,,,,false,797438.1999999881,797438.0999999642,,797437.8999999762,,797266.104,4,500,,
break_continue,html.Screen,10_31_2,2023-11-17T18:46:49.324Z,,,,,,,,,,,NaN,,,,,,,,low,high,,,,,,false,,,,,false,797438.5,797438.2999999523,,797438.2999999523,,797266.104,4,500,,
sequence,flow.Sequence,10_31,2023-11-17T18:46:49.324Z,,,,,,,,,,,2374.3679999522865,completion,,,,,,,low,high,,,,,,false,,,,,false,797438.5999999642,797438.2999999523,795047.271,795247,795063.932,797266.104,4,500,,
trial,html.Screen,10_32_0,2023-11-17T18:46:57.555Z,,,,1,-0.0159061451859594,-0.0296598845560212,,0.05,false,lh,8403.295999976108,response,-1.0865333402803938,0.9580645207681864,-1.0096420263513886,1.0542635307358266,0.9734213246584906,-1.060822447473877,low,high,,ISIC_0072564.JPG,9,ISIC_0034006.JPG,25,false,0.21000000000000008,ll,keypress(f),0,false,805669.5999999642,805669.3999999762,797249.54,797438.5999999642,797266.104,805491.097,4,500,33,
break,html.Screen,10_32_1,2023-11-17T18:46:57.555Z,,,,,,,,,,,NaN,,,,,,,,low,high,,,,,,false,,,,,false,805669.8999999762,805669.7999999523,,805669.5999999642,,805491.097,4,500,,
break_continue,html.Screen,10_32_2,2023-11-17T18:46:57.556Z,,,,,,,,,,,NaN,,,,,,,,low,high,,,,,,false,,,,,false,805670.0999999642,805670.0999999642,,805670,,805491.097,4,500,,
sequence,flow.Sequence,10_32,2023-11-17T18:46:57.556Z,,,,,,,,,,,8403.995999964187,completion,,,,,,,low,high,,,,,,false,,,,,false,805670.1999999881,805670.0999999642,797249.54,797438.5999999642,797266.104,805491.097,4,500,,
trial,html.Screen,10_33_0,2023-11-17T18:47:04.603Z,,,,1,0.0069555338059566,-0.0310100918136373,,0.05,false,hh,7226.502999964287,response,0.9306454722820696,0.9580645207681864,-1.0096420263513886,0.9812399591657396,0.9734213246584906,-1.060822447473877,high,high,,ISIC_0011177.JPG,9,ISIC_0009940.JPG,43,false,0.1,hl,keypress(j),0,false,812717.7999999523,812717.5999999642,805474.335,805670.2999999523,805491.097,812531.398,4,500,34,
break,html.Screen,10_33_1,2023-11-17T18:47:04.604Z,,,,,,,,,,,NaN,,,,,,,,high,high,,,,,,false,,,,,false,812718.0999999642,812718,,812717.8999999762,,812531.398,4,500,,
break_continue,html.Screen,10_33_2,2023-11-17T18:47:04.604Z,,,,,,,,,,,NaN,,,,,,,,high,high,,,,,,false,,,,,false,812718.2999999523,812718.1999999881,,812718.0999999642,,812531.398,4,500,,
sequence,flow.Sequence,10_33,2023-11-17T18:47:04.604Z,,,,,,,,,,,7227.102999988128,completion,,,,,,,high,high,,,,,,false,,,,,false,812718.3999999762,812718.1999999881,805474.335,805670.2999999523,805491.097,812531.398,4,500,,
trial,html.Screen,10_34_0,2023-11-17T18:47:11.859Z,,,,1,,-0.0264544974620926,,0.05,false,ll,7442.101999999955,response,-0.9859190680307316,0.9580645207681864,-1.0096420263513886,-1.0904756837966545,0.9734213246584906,-1.060822447473877,low,low,,ISIC_0056991.JPG,9,ISIC_0063151.JPG,30,false,0.1,lh,keypress(e),0,false,819973.6999999881,819973.5,812514.688,812718.3999999762,812531.398,819788.622,4,500,35,
break,html.Screen,10_34_1,2023-11-17T18:47:11.859Z,,,,,,,,,,,NaN,,,,,,,,low,low,,,,,,false,,,,,false,819974,819973.8999999762,,819973.6999999881,,819788.622,4,500,,
break_continue,html.Screen,10_34_2,2023-11-17T18:47:11.860Z,,,,,,,,,,,NaN,,,,,,,,low,low,,,,,,false,,,,,false,819974.1999999881,819974.1999999881,,819974.0999999642,,819788.622,4,500,,
sequence,flow.Sequence,10_34,2023-11-17T18:47:11.860Z,,,,,,,,,,,7442.801999988034,completion,,,,,,,low,low,,,,,,false,,,,,false,819974.2999999523,819974.1999999881,812514.688,812718.3999999762,812531.398,819788.622,4,500,,
trial,html.Screen,10_35_0,2023-11-17T18:47:19.819Z,,,,1,0.0107854985447517,0.0478010417136109,,0.05,false,hh,8144.977999964263,response,0.9209488961172596,0.9580645207681864,-1.0096420263513886,0.9916011869447884,0.9734213246584906,-1.060822447473877,high,high,,ISIC_0010500.JPG,8,ISIC_3338629.JPG,43,false,0.1,hl,keypress(j),0,false,827933.7999999523,827933.5999999642,819772.139,819974.3999999762,819788.622,827764.676,4,500,36,
break,html.Screen,10_35_1,2023-11-17T18:47:19.820Z,,,,,,,,,,,NaN,,,,,,,,high,high,,,,,,false,,,,,false,827934.0999999642,827934.0999999642,,827933.8999999762,,827764.676,4,500,,
break_continue,html.Screen,10_35_2,2023-11-17T18:47:19.820Z,,,,,,,,,,,NaN,,,,,,,,high,high,,,,,,false,,,,,false,827934.2999999523,827934.1999999881,,827934.1999999881,,827764.676,4,500,,
sequence,flow.Sequence,10_35,2023-11-17T18:47:19.820Z,,,,,,,,,,,8145.577999988105,completion,,,,,,,high,high,,,,,,false,,,,,false,827934.3999999762,827934.1999999881,819772.139,819974.2999999523,819788.622,827764.676,4,500,,
trial,html.Screen,10_36_0,2023-11-17T18:47:22.196Z,,,,1,-0.0409338693593207,0.0072462710499874,,0.05,true,ll,2545.5239999881014,response,-0.9684792294535484,0.9580645207681864,-1.0096420263513886,-0.9741930282015964,0.9734213246584906,-1.060822447473877,low,low,,ISIC_3608788.JPG,9,ISIC_3372750.JPG,30,false,0.1,ll,keypress(f),0,false,830310.3999999762,830310.1999999881,827729.99,827934.3999999762,827764.676,830132.331,4,500,37,
break,html.Screen,10_36_1,2023-11-17T18:47:22.197Z,,,,,,,,,,,NaN,,,,,,,,low,low,,,,,,false,,,,,false,830310.8999999762,830310.7999999523,,830310.5999999642,,830132.331,4,500,,
break_continue,html.Screen,10_36_2,2023-11-17T18:47:22.197Z,,,,,,,,,,,NaN,,,,,,,,low,low,,,,,,false,,,,,false,830311,830311,,830310.8999999762,,830132.331,4,500,,
sequence,flow.Sequence,10_36,2023-11-17T18:47:22.197Z,,,,,,,,,,,2546.3240000000224,completion,,,,,,,low,low,,,,,,false,,,,,false,830311.1999999881,830311,827729.99,827934.3999999762,827764.676,830132.331,4,500,,
trial,html.Screen,10_37_0,2023-11-17T18:47:24.796Z,,,,1,-0.000047919190197942736,-0.0462652940855003,,0.05,true,lh,2777.2689999642316,response,-0.8860551570327019,0.9580645207681864,-1.0096420263513886,0.8067116931297591,0.9734213246584906,-1.060822447473877,low,high,,ISIC_0011507.JPG,9,ISIC_1457687.JPG,25,false,0.21000000000000008,lh,keypress(e),0,false,832909.6999999881,832909.5999999642,830115.659,830311.1999999881,830132.331,832735.125,4,500,38,
break,html.Screen,10_37_1,2023-11-17T18:47:24.796Z,,,,,,,,,,,NaN,,,,,,,,low,high,,,,,,false,,,,,false,832910,832909.8999999762,,832909.7999999523,,832735.125,4,500,,
break_continue,html.Screen,10_37_2,2023-11-17T18:47:24.796Z,,,,,,,,,,,NaN,,,,,,,,low,high,,,,,,false,,,,,false,832910.1999999881,832910.0999999642,,832910.0999999642,,832735.125,4,500,,
