sender,sender_type,sender_id,timestamp,meta,,age,blockNo,c1,c2,condition,control_tolerance,correct,correctResponse,duration,ended_on,f1,f1_high,f1_low,f2,f2_high,f2_low,feature_level1,feature_level2,gender,img_left,img_reveal,img_right,n_target_images,practice,range_tolerance,response,response_action,selection_duration,staircase,time_commit,time_end,time_render,time_run,time_show,time_switch,total_blocks,total_trials,trialNo,url
informed_consent,html.Screen,0,2023-11-17T22:29:05.235Z,"{""labjs_version"":""20.2.4"",""labjs_build"":{""flavor"":""development"",""commit"":""f5b4a49f956347addd546a832a3327688c2c0fef""},""location"":""https://labjs.felixhenninger.com/api/labjs_preview/index.html"",""userAgent"":""Mozilla/5.0 (Windows NT 10.0; Win64; x64) AppleWebKit/537.36 (KHTML, like Gecko) Chrome/119.0.0.0 Safari/537.36"",""platform"":""Win32"",""language"":""en-US"",""locale"":""en-US"",""timeZone"":""America/Chicago"",""timezoneOffset"":360,""screen_width"":1920,""screen_height"":1080,""scroll_width"":945,""scroll_height"":918,""window_innerWidth"":945,""window_innerHeight"":966,""devicePixelRatio"":1}",,,,,,,,,,15780.432999964238,response,,,,,,,,,,,,,,,,consent,click button,,,16524.099999964237,16515.599999964237,718.471,917.3000000119209,735.167,16335.398,,,,{}
Demography form,html.Form,1,2023-11-17T22:29:11.515Z,,,19,,,,,,,,6468.902000011922,form submission,,,,,,,,,male,,,,,,,,,,,22804.399999976158,22804.30000001192,16318.448,16524.30000001192,16335.398,22618.596,,,,
Welcome,html.Screen,2,2023-11-17T22:29:54.091Z,,,,,,,"[""asym"",""col""]",,,,42760.903999999995,response,,,,,,,,,,,,,,,,continue,click button,,,65380,65379.5,22601.808,22804.5,22618.596,65184.99,,,,
demo_instructions,html.Screen,3,2023-11-17T22:30:27.115Z,,,,,,,,,,,33218.40999997616,response,,,,,,,,,,,,,,,,continue,click button,,,98403.80000001192,98403.39999997616,65168.598,65380.09999996424,65184.99,98218.234,,,,
trial,html.Screen,4_0_0,2023-11-17T22:30:34.264Z,,,,0,1.0345332538240786,-1.4719115945084815,,,true,lh,7334.266000000003,response,-1.2615315960773072,1.2,-1.2,1.194084675079932,1.2,-1.2,low,high,,ISIC_0192490.JPG,,ISIC_0010044.JPG,29,true,0.3600000000000002,lh,keypress(e),100,false,105552.89999997616,105552.5,98201.838,98404.09999996424,98218.234,105368.236,1,16,1,
sequence,flow.Sequence,4_0,2023-11-17T22:30:34.265Z,,,,,,,,,,,7334.266000000003,completion,,,,,,,low,high,,,,,,true,,,,,false,105553.5,105552.5,98201.838,98404,98218.234,105368.236,1,16,,
trial,html.Screen,4_1_0,2023-11-17T22:30:39.210Z,,,,0,1.2609895831255231,-1.0687377724194886,,,true,lh,5130.863999964233,response,-1.2615315960773072,1.2,-1.2,1.194084675079932,1.2,-1.2,low,high,,ISIC_1367610.JPG,,ISIC_0010044.JPG,29,true,0.3600000000000002,lh,keypress(e),100,false,110499.39999997616,110499.09999996424,105351.638,105553.80000001192,105368.236,110318.193,1,16,2,
sequence,flow.Sequence,4_1,2023-11-17T22:30:39.210Z,,,,,,,,,,,5130.863999964233,completion,,,,,,,low,high,,,,,,true,,,,,false,110500,110499.09999996424,105351.638,105553.69999998808,105368.236,110318.193,1,16,,
trial,html.Screen,4_2_0,2023-11-17T22:30:47.849Z,,,,0,1.2609895831255231,-1.0687377724194886,,,true,lh,8820.00699998808,response,-0.9385447468573198,1.2,-1.2,1.2289860846064424,1.2,-1.2,low,high,,ISIC_1367610.JPG,,ISIC_0032780.JPG,29,true,0.3600000000000002,lh,keypress(e),100,false,119138.5,119138.19999998808,110301.624,110500.19999998808,110318.193,118968.182,1,16,3,
sequence,flow.Sequence,4_2,2023-11-17T22:30:47.849Z,,,,,,,,,,,8820.00699998808,completion,,,,,,,low,high,,,,,,true,,,,,false,119139,119138.19999998808,110301.624,110500.09999996424,110318.193,118968.182,1,16,,
trial,html.Screen,4_3_0,2023-11-17T22:30:55.818Z,,,,0,1.2043484010107477,-1.2178113180138233,,,false,lh,8139.217999976157,response,-1.3515962101204746,1.2,-1.2,0.8414583575292955,1.2,-1.2,low,high,,ISIC_0011917.JPG,,ISIC_0274382.JPG,29,true,0.3600000000000002,ll,keypress(f),100,false,127107.80000001192,127107.39999997616,118951.573,119139.19999998808,118968.182,126934.988,1,16,4,
sequence,flow.Sequence,4_3,2023-11-17T22:30:55.819Z,,,,,,,,,,,8139.217999976157,completion,,,,,,,low,high,,,,,,true,,,,,false,127108.39999997616,127107.39999997616,118951.573,119139.19999998808,118968.182,126934.988,1,16,,
trial,html.Screen,4_4_0,2023-11-17T22:31:06.040Z,,,,0,1.1715181192107684,1.2251845559044463,,,true,ll,10394.711999988082,response,-1.011737552725394,1.2,-1.2,-1.0893360711742854,1.2,-1.2,low,low,,ISIC_0011957.JPG,,ISIC_2998367.JPG,127,true,0.3300000000000002,ll,keypress(f),100,false,137329.80000001192,137329.69999998808,126918.228,127108.59999996424,126934.988,137151.568,1,16,5,
sequence,flow.Sequence,4_4,2023-11-17T22:31:06.040Z,,,,,,,,,,,10394.711999988082,completion,,,,,,,low,low,,,,,,true,,,,,false,137330,137329.69999998808,126918.228,127108.5,126934.988,137151.568,1,16,,
trial,html.Screen,4_5_0,2023-11-17T22:31:11.890Z,,,,0,1.2289750544294995,1.3003764624334877,,,true,ll,6027.232000011922,response,-1.0878102877901663,1.2,-1.2,-1.3154097543539391,1.2,-1.2,low,low,,ISIC_0054167.JPG,,ISIC_1413242.JPG,25,true,0.15000000000000002,ll,keypress(f),100,false,143179.19999998808,143178.80000001192,137134.794,137330.09999996424,137151.568,143001.415,1,16,6,
sequence,flow.Sequence,4_5,2023-11-17T22:31:11.890Z,,,,,,,,,,,6027.232000011922,completion,,,,,,,low,low,,,,,,true,,,,,false,143179.80000001192,143178.80000001192,137134.794,137330.09999996424,137151.568,143001.415,1,16,,
trial,html.Screen,4_6_0,2023-11-17T22:31:19.751Z,,,,0,1.238264833797662,1.176099940770289,,,true,ll,8038.784999988071,response,-1.1363600109870835,1.2,-1.2,-1.295816345369928,1.2,-1.2,low,low,,ISIC_0032861.JPG,,ISIC_0026141.JPG,25,true,0.15000000000000002,ll,keypress(f),100,false,151040.5,151040.19999998808,142984.845,143180,143001.415,150868.111,1,16,7,
sequence,flow.Sequence,4_6,2023-11-17T22:31:19.751Z,,,,,,,,,,,8038.784999988071,completion,,,,,,,low,low,,,,,,true,,,,,false,151041,151040.19999998808,142984.845,143180,143001.415,150868.111,1,16,,
trial,html.Screen,4_7_0,2023-11-17T22:31:26.561Z,,,,0,1.2435042401134029,1.2939710463315144,,,true,ll,6982.588999988075,response,-1.1604734171556077,1.2,-1.2,-1.0789312625280616,1.2,-1.2,low,low,,ISIC_0056119.JPG,,ISIC_3950753.JPG,25,true,0.15000000000000002,ll,keypress(f),100,false,157851.09999996424,157850.69999998808,150851.546,151041.09999996424,150868.111,157684.733,1,16,8,
sequence,flow.Sequence,4_7,2023-11-17T22:31:26.562Z,,,,,,,,,,,6982.588999988075,completion,,,,,,,low,low,,,,,,true,,,,,false,157851.59999996424,157850.69999998808,150851.546,151041.09999996424,150868.111,157684.733,1,16,,
trial,html.Screen,4_8_0,2023-11-17T22:31:37.633Z,,,,0,-1.0143509683988825,1.0281980567462463,,,true,hl,11236.36699996423,response,0.9212323139676136,1.2,-1.2,-0.9882196642247332,1.2,-1.2,high,low,,ISIC_0062031.JPG,,ISIC_0014255.JPG,26,true,0.3300000000000002,hl,keypress(j),100,false,168921.39999997616,168921.09999996424,157651.509,157851.80000001192,157684.733,168751.391,1,16,9,
sequence,flow.Sequence,4_8,2023-11-17T22:31:37.633Z,,,,,,,,,,,11236.36699996423,completion,,,,,,,high,low,,,,,,true,,,,,false,168921.89999997616,168921.09999996424,157651.509,157851.69999998808,157684.733,168751.391,1,16,,
trial,html.Screen,4_9_0,2023-11-17T22:31:42.021Z,,,,0,-1.225025174430573,0.8422679054456499,,,true,hl,4558.409000011918,response,1.1592423187534993,1.2,-1.2,-1.067128884093211,1.2,-1.2,high,low,,ISIC_7503950.JPG,,ISIC_6854940.JPG,33,true,0.3600000000000002,hl,keypress(j),100,false,173310.09999996424,173309.80000001192,168734.753,168922.19999998808,168751.391,173134.663,1,16,10,
sequence,flow.Sequence,4_9,2023-11-17T22:31:42.022Z,,,,,,,,,,,4558.409000011918,completion,,,,,,,high,low,,,,,,true,,,,,false,173310.69999998808,173309.80000001192,168734.753,168922.09999996424,168751.391,173134.663,1,16,,
trial,html.Screen,4_10_0,2023-11-17T22:31:49.028Z,,,,0,-0.9087169856594104,0.8835647084207277,,,false,hl,7182.036999988079,response,0.8709576717420565,1.2,-1.2,-1.2795156779072283,1.2,-1.2,high,low,,ISIC_0000349.JPG,,ISIC_1925632.JPG,33,true,0.3600000000000002,lh,keypress(e),100,false,180316.89999997616,180316.69999998808,173118.053,173311,173134.663,180151.308,1,16,11,
sequence,flow.Sequence,4_10,2023-11-17T22:31:49.029Z,,,,,,,,,,,7182.036999988079,completion,,,,,,,high,low,,,,,,true,,,,,false,180317.5,180316.69999998808,173118.053,173310.89999997616,173134.663,180151.308,1,16,,
trial,html.Screen,4_11_0,2023-11-17T22:31:54.138Z,,,,0,-1.0003671514840182,0.8992716557663581,,,true,hl,5274.69200000001,response,0.8407642478899736,1.2,-1.2,-0.9542322753334054,1.2,-1.2,high,low,,ISIC_0061749.JPG,,ISIC_9090822.JPG,33,true,0.3600000000000002,hl,keypress(j),100,false,185426.30000001192,185426,180118.067,180317.69999998808,180151.308,185251.494,1,16,12,
sequence,flow.Sequence,4_11,2023-11-17T22:31:54.138Z,,,,,,,,,,,5274.69200000001,completion,,,,,,,high,low,,,,,,true,,,,,false,185426.89999997616,185426,180118.067,180317.59999996424,180151.308,185251.494,1,16,,
trial,html.Screen,4_12_0,2023-11-17T22:32:02.317Z,,,,0,-1.0581281450494728,-1.133169116569424,,,true,hh,8353.806000011915,response,1.367614404141952,1.2,-1.2,0.8543483016673109,1.2,-1.2,high,high,,ISIC_5490352.JPG,,ISIC_0053469.JPG,249,true,0.3600000000000002,hh,keypress(i),100,false,193605.69999998808,193605.30000001192,185234.692,185427,185251.494,193434.845,1,16,13,
sequence,flow.Sequence,4_12,2023-11-17T22:32:02.318Z,,,,,,,,,,,8353.806000011915,completion,,,,,,,high,high,,,,,,true,,,,,false,193606.19999998808,193605.30000001192,185234.692,185427,185251.494,193434.845,1,16,,
trial,html.Screen,4_13_0,2023-11-17T22:32:04.115Z,,,,0,-1.301795918505203,-1.0518606632781424,,,true,hh,1968.6549999999988,response,1.0762260610050776,1.2,-1.2,1.1184338818466155,1.2,-1.2,high,high,,ISIC_0027666.JPG,,ISIC_0058666.JPG,41,true,0.15000000000000002,hh,keypress(i),100,false,195403.69999998808,195403.5,193418.06,193606.39999997616,193434.845,195234.679,1,16,14,
sequence,flow.Sequence,4_13,2023-11-17T22:32:04.115Z,,,,,,,,,,,1968.6549999999988,completion,,,,,,,high,high,,,,,,true,,,,,false,195403.89999997616,195403.5,193418.06,193606.39999997616,193434.845,195234.679,1,16,,
trial,html.Screen,4_14_0,2023-11-17T22:32:06.253Z,,,,0,-1.294521945180264,-1.3078626540563885,,,true,hh,2306.7209999761544,response,1.1894733304494307,1.2,-1.2,1.1169761866204877,1.2,-1.2,high,high,,ISIC_3601224.JPG,,ISIC_0033813.JPG,41,true,0.15000000000000002,hh,keypress(i),100,false,197541.5,197541.39999997616,195218.078,195404,195234.679,197367.94,1,16,15,
sequence,flow.Sequence,4_14,2023-11-17T22:32:06.253Z,,,,,,,,,,,2306.7209999761544,completion,,,,,,,high,high,,,,,,true,,,,,false,197541.59999996424,197541.39999997616,195218.078,195404,195234.679,197367.94,1,16,,
trial,html.Screen,4_15_0,2023-11-17T22:32:10.051Z,,,,0,-1.1510001454240106,-1.132540312667795,,,true,hh,3971.0599999999977,response,1.094624209823328,1.2,-1.2,1.0544499428769605,1.2,-1.2,high,high,,ISIC_0009959.JPG,,ISIC_0055526.JPG,41,true,0.15000000000000002,hh,keypress(i),100,false,201339.30000001192,201339,197351.294,197541.59999996424,197367.94,201167.942,1,16,16,
sequence,flow.Sequence,4_15,2023-11-17T22:32:10.051Z,,,,,,,,,,,3971.0599999999977,completion,,,,,,,high,high,,,,,,true,,,,,false,201339.89999997616,201339,197351.294,197541.59999996424,197367.94,201167.942,1,16,,
demonstration_loop,flow.Loop,4,2023-11-17T22:32:10.052Z,,,,,,,,,,,103120.766,completion,,,,,,,,,,,,,,true,,,,,false,201340.39999997616,201339,98201.838,98404,98218.234,201167.942,1,16,,
practice_instructions,html.Screen,5,2023-11-17T22:32:35.722Z,,,,,,,,,,,25834.957999976148,response,,,,,,,,,,,,,,,,continue,click button,,,227011,227002.89999997616,201151.339,201340.59999996424,201167.942,226834.555,,,,
trial,html.Screen,6_0_0,2023-11-17T22:32:42.654Z,,,,1,-1.3411487193830047,1.198640448317381,,,true,hl,7107.844999976165,response,1.155796217969438,1.2,-1.2,-1.1646564121743912,1.2,-1.2,high,low,,ISIC_3093026.JPG,,ISIC_2685523.JPG,26,true,0.3300000000000002,hl,keypress(j),0,false,233942.80000001192,233942.39999997616,226801.208,227011.09999996424,226834.555,233767.875,1,40,1,
sequence,flow.Sequence,6_0,2023-11-17T22:32:42.655Z,,,,,,,,,,,7107.844999976165,completion,,,,,,,high,low,,,,,,true,,,,,false,233943.30000001192,233942.39999997616,226801.208,227011,226834.555,233767.875,1,40,,
trial,html.Screen,6_1_0,2023-11-17T22:32:55.741Z,,,,1,1.152619213055059,1.2957497771092716,,,true,ll,13261.324999988079,response,-0.967434313906551,1.2,-1.2,-0.9078292667476092,1.2,-1.2,low,low,,ISIC_0061915.JPG,,ISIC_0011668.JPG,157,true,0.3600000000000002,ll,keypress(f),0,false,247029.5,247029.19999998808,233751.349,233943.5,233767.875,246834.565,1,40,2,
sequence,flow.Sequence,6_1,2023-11-17T22:32:55.741Z,,,,,,,,,,,13261.324999988079,completion,,,,,,,low,low,,,,,,true,,,,,false,247029.89999997616,247029.19999998808,233751.349,233943.39999997616,233767.875,246834.565,1,40,,
trial,html.Screen,6_2_0,2023-11-17T22:33:04.637Z,,,,1,-1.053007132776416,-1.341217082060068,,,true,hh,9090.634999988077,response,1.1783311757907324,1.2,-1.2,1.266840220031473,1.2,-1.2,high,high,,ISIC_0024208.JPG,,ISIC_8241457.JPG,27,true,0.12,hh,keypress(i),0,false,255925.39999997616,255925.19999998808,246817.346,247030.09999996424,246834.565,255751.136,1,40,3,
sequence,flow.Sequence,6_2,2023-11-17T22:33:04.637Z,,,,,,,,,,,9090.634999988077,completion,,,,,,,high,high,,,,,,true,,,,,false,255925.89999997616,255925.19999998808,246817.346,247030,246834.565,255751.136,1,40,,
trial,html.Screen,6_3_0,2023-11-17T22:33:12.445Z,,,,1,1.0748728054622358,-1.2840853987892311,,,true,lh,7982.0639999880805,response,-1.4727776799485246,1.2,-1.2,0.8779113138076752,1.2,-1.2,low,high,,ISIC_0059219.JPG,,ISIC_0033074.JPG,29,true,0.3600000000000002,lh,keypress(e),0,false,263733.5,263733.1999999881,255717.686,255926,255751.136,263551.704,1,40,4,
sequence,flow.Sequence,6_3,2023-11-17T22:33:12.445Z,,,,,,,,,,,7982.0639999880805,completion,,,,,,,low,high,,,,,,true,,,,,false,263733.89999997616,263733.1999999881,255717.686,255926,255751.136,263551.704,1,40,,
trial,html.Screen,6_4_0,2023-11-17T22:33:18.099Z,,,,1,-1.0878102877901663,-1.3154097543539391,,,true,hh,5836.195999976131,response,1.0490239046679242,1.2,-1.2,0.8755566396204548,1.2,-1.2,high,high,,ISIC_1413242.JPG,,ISIC_0071430.JPG,211,true,0.3300000000000002,hh,keypress(i),0,false,269388,269387.89999997616,263517.791,263734,263551.704,269217.757,1,40,5,
sequence,flow.Sequence,6_4,2023-11-17T22:33:18.100Z,,,,,,,,,,,5836.195999976131,completion,,,,,,,high,high,,,,,,true,,,,,false,269388.09999996424,269387.89999997616,263517.791,263733.89999997616,263551.704,269217.757,1,40,,
trial,html.Screen,6_5_0,2023-11-17T22:33:25.845Z,,,,1,-0.8644465729542988,0.8679598285079457,,,true,hl,7915.642999976175,response,0.9225524349657857,1.2,-1.2,-0.929746784178986,1.2,-1.2,high,low,,ISIC_6718969.JPG,,ISIC_0011077.JPG,26,true,0.3300000000000002,hl,keypress(j),0,false,277133.6999999881,277133.39999997616,269184.508,269388.1999999881,269217.757,276951.25,1,40,6,
sequence,flow.Sequence,6_5,2023-11-17T22:33:25.846Z,,,,,,,,,,,7915.642999976175,completion,,,,,,,high,low,,,,,,true,,,,,false,277134.3000000119,277133.39999997616,269184.508,269388.1999999881,269217.757,276951.25,1,40,,
trial,html.Screen,6_6_0,2023-11-17T22:33:34.829Z,,,,1,1.2435042401134029,1.2939710463315144,,,true,ll,9165.849999964237,response,-0.9487751044258608,1.2,-1.2,-0.9230722071334148,1.2,-1.2,low,low,,ISIC_0056119.JPG,,ISIC_4568084.JPG,157,true,0.3600000000000002,ll,keypress(f),0,false,286117.39999997616,286117.09999996424,276934.412,277134.59999996424,276951.25,285934.385,1,40,7,
sequence,flow.Sequence,6_6,2023-11-17T22:33:34.829Z,,,,,,,,,,,9165.849999964237,completion,,,,,,,low,low,,,,,,true,,,,,false,286117.8000000119,286117.09999996424,276934.412,277134.5,276951.25,285934.385,1,40,,
trial,html.Screen,6_7_0,2023-11-17T22:33:40.957Z,,,,1,-1.2838089642212804,0.8550527900640753,,,true,hl,6310.714999964228,response,0.9566823908868002,1.2,-1.2,-0.9602125665128364,1.2,-1.2,high,low,,ISIC_0034187.JPG,,ISIC_0056784.JPG,26,true,0.3300000000000002,hl,keypress(j),0,false,292245.3000000119,292245.09999996424,285917.653,286118,285934.385,292051.096,1,40,8,
sequence,flow.Sequence,6_7,2023-11-17T22:33:40.957Z,,,,,,,,,,,6310.714999964228,completion,,,,,,,high,low,,,,,,true,,,,,false,292245.6999999881,292245.09999996424,285917.653,286117.89999997616,285934.385,292051.096,1,40,,
trial,html.Screen,6_8_0,2023-11-17T22:33:44.877Z,,,,1,-1.1638334638021437,-1.0846635401396965,,,true,hh,4114.003999964218,response,0.8868080718134892,1.2,-1.2,0.8837963869804757,1.2,-1.2,high,high,,ISIC_4718313.JPG,,ISIC_0068895.JPG,249,true,0.3600000000000002,hh,keypress(i),0,false,296165.3000000119,296165.09999996424,292034.353,292245.89999997616,292051.096,295967.75,1,40,9,
sequence,flow.Sequence,6_8,2023-11-17T22:33:44.877Z,,,,,,,,,,,4114.003999964218,completion,,,,,,,high,high,,,,,,true,,,,,false,296165.8000000119,296165.09999996424,292034.353,292245.89999997616,292051.096,295967.75,1,40,,
trial,html.Screen,6_9_0,2023-11-17T22:33:47.582Z,,,,1,-1.212030980680325,-1.139863018685685,,,true,hh,2902.149999976158,response,1.2359980588867217,1.2,-1.2,1.0529964469124329,1.2,-1.2,high,high,,ISIC_0008510.JPG,,ISIC_0032840.JPG,41,true,0.15000000000000002,hh,keypress(i),0,false,298870.09999996424,298869.89999997616,295951.069,296166,295967.75,298684.623,1,40,10,
sequence,flow.Sequence,6_9,2023-11-17T22:33:47.582Z,,,,,,,,,,,2902.149999976158,completion,,,,,,,high,high,,,,,,true,,,,,false,298870.39999997616,298869.89999997616,295951.069,296165.89999997616,295967.75,298684.623,1,40,,
trial,html.Screen,6_10_0,2023-11-17T22:33:56.325Z,,,,1,1.089914260719518,1.1695563571046357,,,true,ll,8928.476999964216,response,-1.294521945180264,1.2,-1.2,-1.3078626540563885,1.2,-1.2,low,low,,ISIC_0030695.JPG,,ISIC_3601224.JPG,25,true,0.15000000000000002,ll,keypress(f),0,false,307613.39999997616,307613.09999996424,298667.619,298870.6999999881,298684.623,307417.696,1,40,11,
sequence,flow.Sequence,6_10,2023-11-17T22:33:56.325Z,,,,,,,,,,,8928.476999964216,completion,,,,,,,low,low,,,,,,true,,,,,false,307613.8000000119,307613.09999996424,298667.619,298870.59999996424,298684.623,307417.696,1,40,,
trial,html.Screen,6_11_0,2023-11-17T22:34:00.125Z,,,,1,-1.1217390688497193,-1.2276600934505035,,,true,hh,3995.1040000119247,response,1.2055236989581275,1.2,-1.2,1.1960893075698802,1.2,-1.2,high,high,,ISIC_0026344.JPG,,ISIC_0072393.JPG,27,true,0.12,hh,keypress(i),0,false,311413.09999996424,311412.8000000119,307400.765,307614,307417.696,311250.978,1,40,12,
sequence,flow.Sequence,6_11,2023-11-17T22:34:00.125Z,,,,,,,,,,,3995.1040000119247,completion,,,,,,,high,high,,,,,,true,,,,,false,311413.39999997616,311412.8000000119,307400.765,307613.89999997616,307417.696,311250.978,1,40,,
trial,html.Screen,6_12_0,2023-11-17T22:34:08.340Z,,,,1,-0.8779374983479176,0.9745548032823428,,,true,hl,8377.421999976155,response,1.155796217969438,1.2,-1.2,-1.1646564121743912,1.2,-1.2,high,low,,ISIC_2991354.JPG,,ISIC_2685523.JPG,26,true,0.3300000000000002,hl,keypress(j),0,false,319628.5,319628.39999997616,311200.869,311413.6999999881,311250.978,319434.29,1,40,13,
sequence,flow.Sequence,6_12,2023-11-17T22:34:08.340Z,,,,,,,,,,,8377.421999976155,completion,,,,,,,high,low,,,,,,true,,,,,false,319628.59999996424,319628.39999997616,311200.869,311413.6999999881,311250.978,319434.29,1,40,,
trial,html.Screen,6_13_0,2023-11-17T22:34:13.317Z,,,,1,1.0700930503975157,-0.923753102263735,,,true,lh,5170.210000000021,response,-1.4748095371445096,1.2,-1.2,0.9579010801034902,1.2,-1.2,low,high,,ISIC_0000022.JPG,,ISIC_0033216.JPG,29,true,0.3600000000000002,lh,keypress(e),0,false,324604.89999997616,324604.5,319417.454,319628.59999996424,319434.29,324417.595,1,40,14,
sequence,flow.Sequence,6_13,2023-11-17T22:34:13.317Z,,,,,,,,,,,5170.210000000021,completion,,,,,,,low,high,,,,,,true,,,,,false,324605.5,324604.5,319417.454,319628.59999996424,319434.29,324417.595,1,40,,
trial,html.Screen,6_14_0,2023-11-17T22:34:16.005Z,,,,1,0.9046170303418553,-1.0063426986460375,,,true,lh,2875.304999976186,response,-0.9087169856594104,1.2,-1.2,0.8835647084207277,1.2,-1.2,low,high,,ISIC_0055759.JPG,,ISIC_0000349.JPG,29,true,0.3600000000000002,lh,keypress(e),0,false,327293.09999996424,327292.89999997616,324401.051,324605.59999996424,324417.595,327100.911,1,40,15,
sequence,flow.Sequence,6_14,2023-11-17T22:34:16.005Z,,,,,,,,,,,2875.304999976186,completion,,,,,,,low,high,,,,,,true,,,,,false,327293.5,327292.89999997616,324401.051,324605.59999996424,324417.595,327100.911,1,40,,
trial,html.Screen,6_15_0,2023-11-17T22:34:28.124Z,,,,1,-1.2615315960773072,1.194084675079932,,,true,hl,12311.088999999978,response,1.082730232773217,1.2,-1.2,-0.8833175387485132,1.2,-1.2,high,low,,ISIC_0010044.JPG,,ISIC_0011933.JPG,26,true,0.3300000000000002,hl,keypress(j),0,false,339412.09999996424,339412,327084.383,327293.59999996424,327100.911,339217.575,1,40,16,
sequence,flow.Sequence,6_15,2023-11-17T22:34:28.124Z,,,,,,,,,,,12311.088999999978,completion,,,,,,,high,low,,,,,,true,,,,,false,339412.1999999881,339412,327084.383,327293.59999996424,327100.911,339217.575,1,40,,
trial,html.Screen,6_16_0,2023-11-17T22:34:38.415Z,,,,1,-1.204229955025689,-1.0874249761617445,,,true,hh,10484.924999999988,response,0.941412607708087,1.2,-1.2,1.4208146340426957,1.2,-1.2,high,high,,ISIC_0056930.JPG,,ISIC_0000411.JPG,249,true,0.3600000000000002,hh,keypress(i),0,false,349702.8000000119,349702.5,339200.668,339412.1999999881,339217.575,349517.543,1,40,17,
sequence,flow.Sequence,6_16,2023-11-17T22:34:38.415Z,,,,,,,,,,,10484.924999999988,completion,,,,,,,high,high,,,,,,true,,,,,false,349703.1999999881,349702.5,339200.668,339412.1999999881,339217.575,349517.543,1,40,,
trial,html.Screen,6_17_0,2023-11-17T22:34:43.853Z,,,,1,0.9566823908868002,-0.9602125665128364,,,true,lh,5623.056999964232,response,-1.11329866545753,1.2,-1.2,1.2155631217348757,1.2,-1.2,low,high,,ISIC_0056784.JPG,,ISIC_0032610.JPG,29,true,0.3600000000000002,lh,keypress(e),0,false,355140.8000000119,355140.59999996424,349500.753,349703.39999997616,349517.543,354950.861,1,40,18,
sequence,flow.Sequence,6_17,2023-11-17T22:34:43.853Z,,,,,,,,,,,5623.056999964232,completion,,,,,,,low,high,,,,,,true,,,,,false,355141.09999996424,355140.59999996424,349500.753,349703.39999997616,349517.543,354950.861,1,40,,
trial,html.Screen,6_18_0,2023-11-17T22:34:49.077Z,,,,1,-0.9087169856594104,0.8835647084207277,,,true,hl,5414.139000000025,response,1.1547137855907486,1.2,-1.2,-1.0185275168641534,1.2,-1.2,high,low,,ISIC_0000349.JPG,,ISIC_7604870.JPG,26,true,0.3300000000000002,hl,keypress(j),0,false,360365.1999999881,360365,354934.278,355141.3000000119,354950.861,360184.172,1,40,19,
sequence,flow.Sequence,6_18,2023-11-17T22:34:49.077Z,,,,,,,,,,,5414.139000000025,completion,,,,,,,high,low,,,,,,true,,,,,false,360365.5,360365,354934.278,355141.1999999881,354950.861,360184.172,1,40,,
trial,html.Screen,6_19_0,2023-11-17T22:34:50.989Z,,,,1,-0.9385447468573198,1.2289860846064424,,,true,hl,2093.1280000119004,response,1.1547137855907486,1.2,-1.2,-1.0185275168641534,1.2,-1.2,high,low,,ISIC_0032780.JPG,,ISIC_7604870.JPG,33,true,0.3600000000000002,hl,keypress(j),0,false,362277.3000000119,362277.3000000119,360150.686,360365.8000000119,360184.172,362084.172,1,40,20,
sequence,flow.Sequence,6_19,2023-11-17T22:34:50.989Z,,,,,,,,,,,2093.1280000119004,completion,,,,,,,high,low,,,,,,true,,,,,false,362277.5,362277.3000000119,360150.686,360365.6999999881,360184.172,362084.172,1,40,,
trial,html.Screen,6_20_0,2023-11-17T22:34:53.581Z,,,,1,1.055319394932912,-1.409116680310466,,,true,lh,2784.7279999761377,response,-1.4748095371445096,1.2,-1.2,0.9579010801034902,1.2,-1.2,low,high,,ISIC_6398669.JPG,,ISIC_0033216.JPG,29,true,0.3600000000000002,lh,keypress(e),0,false,364869.1999999881,364868.89999997616,362067.697,362277.5,362084.172,364684.149,1,40,21,
sequence,flow.Sequence,6_20,2023-11-17T22:34:53.581Z,,,,,,,,,,,2784.7279999761377,completion,,,,,,,low,high,,,,,,true,,,,,false,364869.59999996424,364868.89999997616,362067.697,362277.5,362084.172,364684.149,1,40,,
trial,html.Screen,6_21_0,2023-11-17T22:34:58.349Z,,,,1,1.155796217969438,-1.1646564121743912,,,true,lh,4952.651000011945,response,-1.3411487193830047,1.2,-1.2,1.198640448317381,1.2,-1.2,low,high,,ISIC_2685523.JPG,,ISIC_3093026.JPG,29,true,0.3600000000000002,lh,keypress(e),0,false,369637.09999996424,369636.8000000119,364667.719,364869.89999997616,364684.149,369450.965,1,40,22,
sequence,flow.Sequence,6_21,2023-11-17T22:34:58.349Z,,,,,,,,,,,4952.651000011945,completion,,,,,,,low,high,,,,,,true,,,,,false,369637.5,369636.8000000119,364667.719,364869.89999997616,364684.149,369450.965,1,40,,
trial,html.Screen,6_22_0,2023-11-17T22:35:08.613Z,,,,1,-1.294521945180264,-1.3078626540563885,,,true,hh,10450.434999976133,response,1.2282561398079586,1.2,-1.2,1.4704753321872233,1.2,-1.2,high,high,,ISIC_3601224.JPG,,ISIC_9141817.JPG,211,true,0.3300000000000002,hh,keypress(i),0,false,379901.59999996424,379901.39999997616,369434.243,369637.59999996424,369450.965,379717.541,1,40,23,
sequence,flow.Sequence,6_22,2023-11-17T22:35:08.614Z,,,,,,,,,,,10450.434999976133,completion,,,,,,,high,high,,,,,,true,,,,,false,379902,379901.39999997616,369434.243,369637.59999996424,369450.965,379717.541,1,40,,
trial,html.Screen,6_23_0,2023-11-17T22:35:19.421Z,,,,1,1.2040551955011098,1.2664651062241792,,,true,ll,10991.55899996421,response,-1.1510001454240106,1.2,-1.2,-1.132540312667795,1.2,-1.2,low,low,,ISIC_0068886.JPG,,ISIC_0009959.JPG,25,true,0.15000000000000002,ll,keypress(f),0,false,390709.3000000119,390709.09999996424,379700.594,379902.1999999881,379717.541,390534.093,1,40,24,
sequence,flow.Sequence,6_23,2023-11-17T22:35:19.422Z,,,,,,,,,,,10991.55899996421,completion,,,,,,,low,low,,,,,,true,,,,,false,390709.8000000119,390709.09999996424,379700.594,379902.09999996424,379717.541,390534.093,1,40,,
trial,html.Screen,6_24_0,2023-11-17T22:35:28.516Z,,,,1,-1.0003671514840182,0.8992716557663581,,,false,hl,9269.907000000007,response,1.052305774554686,1.2,-1.2,-1.3940181224717798,1.2,-1.2,high,low,,ISIC_0061749.JPG,,ISIC_4175400.JPG,26,true,0.3300000000000002,hh,keypress(i),0,false,399804.09999996424,399804,390500.605,390709.89999997616,390534.093,399617.479,1,40,25,
sequence,flow.Sequence,6_24,2023-11-17T22:35:28.516Z,,,,,,,,,,,9269.907000000007,completion,,,,,,,high,low,,,,,,true,,,,,false,399804.3000000119,399804,390500.605,390709.89999997616,390534.093,399617.479,1,40,,
trial,html.Screen,6_25_0,2023-11-17T22:35:34.853Z,,,,1,-1.1217390688497193,-1.2276600934505035,,,true,hh,6523.321000011929,response,0.905313139676194,1.2,-1.2,0.9966583050703528,1.2,-1.2,high,high,,ISIC_0026344.JPG,,ISIC_0070342.JPG,249,true,0.3600000000000002,hh,keypress(i),0,false,406141.09999996424,406140.8000000119,399600.651,399804.3000000119,399617.479,405950.716,1,40,26,
sequence,flow.Sequence,6_25,2023-11-17T22:35:34.853Z,,,,,,,,,,,6523.321000011929,completion,,,,,,,high,high,,,,,,true,,,,,false,406141.59999996424,406140.8000000119,399600.651,399804.3000000119,399617.479,405950.716,1,40,,
trial,html.Screen,6_26_0,2023-11-17T22:35:50.653Z,,,,1,1.238264833797662,1.176099940770289,,,,,15799.969999999972,timeout,-1.294521945180264,1.2,-1.2,-1.3078626540563885,1.2,-1.2,low,low,,ISIC_0032861.JPG,,ISIC_3601224.JPG,25,true,0.15000000000000002,,,0,false,421941.09999996424,421940.89999997616,405933.951,406141.8000000119,405950.716,421750.686,1,40,27,
sequence,flow.Sequence,6_26,2023-11-17T22:35:50.654Z,,,,,,,,,,,15990.183999976143,completion,,,,,,,low,low,,,,,,true,,,,,false,421941.6999999881,421940.89999997616,405933.951,406141.6999999881,405950.716,421750.686,1,40,,
trial,html.Screen,6_27_0,2023-11-17T22:35:59.405Z,,,,1,1.1392234684115472,1.3198277407683998,,,true,ll,8942.013999988092,response,-1.2714351764931109,1.2,-1.2,-1.0785174776187512,1.2,-1.2,low,low,,ISIC_0071875.JPG,,ISIC_2454898.JPG,25,true,0.15000000000000002,ll,keypress(f),0,false,430692.89999997616,430692.6999999881,421734.293,421942,421750.686,430517.31,1,40,28,
sequence,flow.Sequence,6_27,2023-11-17T22:35:59.405Z,,,,,,,,,,,8942.013999988092,completion,,,,,,,low,low,,,,,,true,,,,,false,430693.3000000119,430692.6999999881,421734.293,421941.89999997616,421750.686,430517.31,1,40,,
trial,html.Screen,6_28_0,2023-11-17T22:36:04.021Z,,,,1,-1.1890109863264902,0.8867825318561365,,,true,hl,4791.0899999761605,response,1.052305774554686,1.2,-1.2,-1.3940181224717798,1.2,-1.2,high,low,,ISIC_0072576.JPG,,ISIC_4175400.JPG,26,true,0.3300000000000002,hl,keypress(j),0,false,435308.6999999881,435308.39999997616,430483.911,430693.59999996424,430517.31,435117.283,1,40,29,
sequence,flow.Sequence,6_28,2023-11-17T22:36:04.021Z,,,,,,,,,,,4791.0899999761605,completion,,,,,,,high,low,,,,,,true,,,,,false,435309.09999996424,435308.39999997616,430483.911,430693.5,430517.31,435117.283,1,40,,
trial,html.Screen,6_29_0,2023-11-17T22:36:10.262Z,,,,1,1.1126049058422398,1.2305421124063929,,,true,ll,6432.517000011925,response,-0.9203094922714854,1.2,-1.2,-1.2983013773851462,1.2,-1.2,low,low,,ISIC_0071536.JPG,,ISIC_6001936.JPG,157,true,0.3600000000000002,ll,keypress(f),0,false,441550,441549.8000000119,435100.735,435309.1999999881,435117.283,441367.804,1,40,30,
sequence,flow.Sequence,6_29,2023-11-17T22:36:10.262Z,,,,,,,,,,,6432.517000011925,completion,,,,,,,low,low,,,,,,true,,,,,false,441550.39999997616,441549.8000000119,435100.735,435309.1999999881,435117.283,441367.804,1,40,,
trial,html.Screen,6_30_0,2023-11-17T22:36:14.022Z,,,,1,1.2232482867978696,1.2451219760556858,,,true,ll,3941.8959999880753,response,-1.1727618800748076,1.2,-1.2,-1.0636787813411093,1.2,-1.2,low,low,,ISIC_0030889.JPG,,ISIC_9690371.JPG,25,true,0.15000000000000002,ll,keypress(f),0,false,445309.89999997616,445309.6999999881,441333.862,441550.59999996424,441367.804,445133.947,1,40,31,
sequence,flow.Sequence,6_30,2023-11-17T22:36:14.022Z,,,,,,,,,,,3941.8959999880753,completion,,,,,,,low,low,,,,,,true,,,,,false,445310.39999997616,445309.6999999881,441333.862,441550.5,441367.804,445133.947,1,40,,
trial,html.Screen,6_31_0,2023-11-17T22:36:18.861Z,,,,1,1.296989496412063,-1.1425074323097002,,,true,lh,5015.353000011935,response,-1.1235224875125256,1.2,-1.2,0.8641223012137988,1.2,-1.2,low,high,,ISIC_6356803.JPG,,ISIC_0033901.JPG,29,true,0.3600000000000002,lh,keypress(e),0,false,450149.59999996424,450149.3000000119,445100.724,445310.59999996424,445133.947,449967.846,1,40,32,
sequence,flow.Sequence,6_31,2023-11-17T22:36:18.862Z,,,,,,,,,,,5015.353000011935,completion,,,,,,,low,high,,,,,,true,,,,,false,450149.89999997616,450149.3000000119,445100.724,445310.5,445133.947,449967.846,1,40,,
trial,html.Screen,6_32_0,2023-11-17T22:36:30.005Z,,,,1,-1.1305948371148624,-1.2802709447034604,,,false,hh,11324.85399998806,response,0.9155975352610564,1.2,-1.2,1.439675487858658,1.2,-1.2,high,high,,ISIC_5648111.JPG,,ISIC_8691327.JPG,211,true,0.3300000000000002,hl,keypress(j),0,false,461293,461292.6999999881,449934.042,450150,449967.846,461117.244,1,40,33,
sequence,flow.Sequence,6_32,2023-11-17T22:36:30.005Z,,,,,,,,,,,11324.85399998806,completion,,,,,,,high,high,,,,,,true,,,,,false,461293.3000000119,461292.6999999881,449934.042,450150,449967.846,461117.244,1,40,,
trial,html.Screen,6_33_0,2023-11-17T22:36:39.516Z,,,,1,0.9225524349657857,-0.929746784178986,,,true,lh,9686.556000011915,response,-0.9039158082670506,1.2,-1.2,1.0517562064343149,1.2,-1.2,low,high,,ISIC_0011077.JPG,,ISIC_0015411.JPG,29,true,0.3600000000000002,lh,keypress(e),0,false,470803.89999997616,470803.8000000119,461083.66,461293.5,461117.244,470617.211,1,40,34,
sequence,flow.Sequence,6_33,2023-11-17T22:36:39.516Z,,,,,,,,,,,9686.556000011915,completion,,,,,,,low,high,,,,,,true,,,,,false,470804,470803.8000000119,461083.66,461293.39999997616,461117.244,470617.211,1,40,,
trial,html.Screen,6_34_0,2023-11-17T22:36:47.909Z,,,,1,0.8709576717420565,-1.2795156779072283,,,true,lh,8579.888999964227,response,-1.411763789273233,1.2,-1.2,1.0057734478347988,1.2,-1.2,low,high,,ISIC_1925632.JPG,,ISIC_0027235.JPG,29,true,0.3600000000000002,lh,keypress(e),0,false,479197.3000000119,479197.09999996424,470600.467,470804,470617.211,479000.581,1,40,35,
sequence,flow.Sequence,6_34,2023-11-17T22:36:47.910Z,,,,,,,,,,,8579.888999964227,completion,,,,,,,low,high,,,,,,true,,,,,false,479197.6999999881,479197.09999996424,470600.467,470804,470617.211,479000.581,1,40,,
trial,html.Screen,6_35_0,2023-11-17T22:36:58.814Z,,,,1,1.2315945866020412,1.13226141421557,,,true,ll,11101.018999964232,response,-0.9908691524573628,1.2,-1.2,-1.300224660339869,1.2,-1.2,low,low,,ISIC_0033595.JPG,,ISIC_2105563.JPG,127,true,0.3300000000000002,ll,keypress(f),0,false,490101.89999997616,490101.59999996424,478983.824,479197.89999997616,479000.581,489917.146,1,40,36,
sequence,flow.Sequence,6_35,2023-11-17T22:36:58.814Z,,,,,,,,,,,11101.018999964232,completion,,,,,,,low,low,,,,,,true,,,,,false,490102.1999999881,490101.59999996424,478983.824,479197.89999997616,479000.581,489917.146,1,40,,
trial,html.Screen,6_36_0,2023-11-17T22:37:08.540Z,,,,1,0.9873794329144926,-0.9500689037516484,,,true,lh,9910.553999988071,response,-0.8479396253253069,1.2,-1.2,1.011054319516718,1.2,-1.2,low,high,,ISIC_0013498.JPG,,ISIC_0063521.JPG,29,true,0.3600000000000002,lh,keypress(e),0,false,499827.8000000119,499827.6999999881,489900.234,490102.5,489917.146,499633.805,1,40,37,
sequence,flow.Sequence,6_36,2023-11-17T22:37:08.540Z,,,,,,,,,,,9910.553999988071,completion,,,,,,,low,high,,,,,,true,,,,,false,499828.09999996424,499827.6999999881,489900.234,490102.39999997616,489917.146,499633.805,1,40,,
trial,html.Screen,6_37_0,2023-11-17T22:37:15.140Z,,,,1,-1.212030980680325,-1.139863018685685,,,true,hh,6793.995000011928,response,0.913652449364318,1.2,-1.2,0.9917659814487484,1.2,-1.2,high,high,,ISIC_0008510.JPG,,ISIC_0032233.JPG,211,true,0.3300000000000002,hh,keypress(i),0,false,506427.8000000119,506427.8000000119,499616.882,499828.09999996424,499633.805,506233.775,1,40,38,
sequence,flow.Sequence,6_37,2023-11-17T22:37:15.140Z,,,,,,,,,,,6793.995000011928,completion,,,,,,,high,high,,,,,,true,,,,,false,506427.89999997616,506427.8000000119,499616.882,499828.09999996424,499633.805,506233.775,1,40,,
trial,html.Screen,6_38_0,2023-11-17T22:37:17.244Z,,,,1,-0.8644465729542988,0.8679598285079457,,,true,hl,2298.0250000118976,response,0.9448560599810628,1.2,-1.2,-0.9099421612683488,1.2,-1.2,high,low,,ISIC_6718969.JPG,,ISIC_9684318.JPG,26,true,0.3300000000000002,hl,keypress(j),0,false,508532,508531.8000000119,506217.143,506428,506233.775,508333.815,1,40,39,
sequence,flow.Sequence,6_38,2023-11-17T22:37:17.244Z,,,,,,,,,,,2298.0250000118976,completion,,,,,,,high,low,,,,,,true,,,,,false,508532.1999999881,508531.8000000119,506217.143,506427.89999997616,506233.775,508333.815,1,40,,
trial,html.Screen,6_39_0,2023-11-17T22:37:25.645Z,,,,1,1.2872758518949912,1.313723254903214,,,true,ll,8598.985000011919,response,-1.0831477774866454,1.2,-1.2,-1.0347343776726454,1.2,-1.2,low,low,,ISIC_0064376.JPG,,ISIC_9475559.JPG,157,true,0.3600000000000002,ll,keypress(f),0,false,516933.09999996424,516932.8000000119,508317.154,508532.3000000119,508333.815,516750.545,1,40,40,
sequence,flow.Sequence,6_39,2023-11-17T22:37:25.646Z,,,,,,,,,,,8598.985000011919,completion,,,,,,,low,low,,,,,,true,,,,,false,516933.39999997616,516932.8000000119,508317.154,508532.3000000119,508333.815,516750.545,1,40,,
practice_loop,flow.Loop,6,2023-11-17T22:37:25.646Z,,,,,,,,,,,290098.2450000119,completion,,,,,,,,,,,,,,true,,,,,false,516933.8000000119,516932.8000000119,226801.208,227011,226834.555,516750.545,1,40,,
stair_instructions,html.Screen,7,2023-11-17T22:37:58.636Z,,,,,,,,,,,33171.654999988095,response,,,,,,,,,,,,,,,,continue,click button,,,549922.6999999881,549922.1999999881,516733.743,516933.89999997616,516750.545,549733.666,,,,
trial,html.Screen,8_0_0,2023-11-17T22:38:03.048Z,,,,2,-0.0086413421586899,-0.0360184993500958,,0.04,false,hl,4600.334000000032,response,0.9566823908868002,1.2,-1.2,-0.9602125665128364,1.2,-1.2,high,low,,ISIC_0010767.JPG,,ISIC_0056784.JPG,26,false,0.3300000000000002,hh,keypress(i),0,true,554334.3000000119,554334,549717.253,549922.8000000119,549733.666,554150.295,1,40,1,
sequence,flow.Sequence,8_0,2023-11-17T22:38:03.048Z,,,,,,,,,,,4600.334000000032,completion,,,,,,,high,low,,,,,,false,,,,,true,554334.6999999881,554334,549717.253,549922.8000000119,549733.666,554150.295,1,40,,
trial,html.Screen,8_1_0,2023-11-17T22:38:10.933Z,,,,2,-0.0063515208248796,-0.0194177605767913,,0.04,false,lh,8069.304999964195,response,-1.00615481805876,1.15,-1.15,0.8428903771195875,1.15,-1.2,low,high,,ISIC_5281908.JPG,,ISIC_0069970.JPG,27,false,0.31000000000000016,hh,keypress(i),0,true,562219.6999999881,562219.5999999642,554133.705,554334.8999999762,554150.295,562033.855,1,40,2,
sequence,flow.Sequence,8_1,2023-11-17T22:38:10.934Z,,,,,,,,,,,8069.304999964195,completion,,,,,,,low,high,,,,,,false,,,,,true,562219.8999999762,562219.5999999642,554133.705,554334.8000000119,554150.295,562033.855,1,40,,
trial,html.Screen,8_2_0,2023-11-17T22:38:19.334Z,,,,2,0.0057914759495055,-0.018500200317654,,0.04,true,ll,8586.344999988098,response,-1.02671179315839,1.15,-1.15,-1.232411858241539,1.15,-1.15,low,low,,ISIC_0058723.JPG,,ISIC_7779155.JPG,26,false,0.14,ll,keypress(f),0,true,570620.3999999762,570620.1999999881,562016.762,562219.8999999762,562033.855,570433.755,1,40,3,
sequence,flow.Sequence,8_2,2023-11-17T22:38:19.335Z,,,,,,,,,,,8586.344999988098,completion,,,,,,,low,low,,,,,,false,,,,,true,570620.8000000119,570620.1999999881,562016.762,562219.8999999762,562033.855,570433.755,1,40,,
trial,html.Screen,8_3_0,2023-11-17T22:38:24.143Z,,,,2,-0.0063515208248796,-0.0194177605767913,,0.04,true,hh,4994.944999988074,response,1.042500842905652,1.15,-1.15,1.083053464502593,1.15,-1.15,high,high,,ISIC_5281908.JPG,,ISIC_0071135.JPG,25,false,0.11,hh,keypress(i),0,true,575428.8000000119,575428.6999999881,570416.762,570621,570433.755,575233.596,1,40,4,
sequence,flow.Sequence,8_3,2023-11-17T22:38:24.143Z,,,,,,,,,,,4994.944999988074,completion,,,,,,,high,high,,,,,,false,,,,,true,575429,575428.6999999881,570416.762,570621,570433.755,575233.596,1,40,,
trial,html.Screen,8_4_0,2023-11-17T22:38:32.623Z,,,,2,0.0077673378094614,0.0021810768579373,,0.04,true,ll,8675.90399999998,response,-1.02671179315839,1.0999999999999999,-1.15,-1.232411858241539,1.0999999999999999,-1.15,low,low,,ISIC_0067621.JPG,,ISIC_7779155.JPG,26,false,0.14,ll,keypress(f),0,true,583909.8000000119,583909.5,575216.759,575429.1999999881,575233.596,583716.898,1,40,5,
sequence,flow.Sequence,8_4,2023-11-17T22:38:32.624Z,,,,,,,,,,,8675.90399999998,completion,,,,,,,low,low,,,,,,false,,,,,true,583910.1999999881,583909.5,575216.759,575429.1999999881,575233.596,583716.898,1,40,,
trial,html.Screen,8_5_0,2023-11-17T22:38:38.103Z,,,,2,0.0399381815506136,0.0177751789152893,,0.04,true,ll,5671.7019999641925,response,-1.1363600109870835,1.0999999999999999,-1.182411858241539,-1.295816345369928,1.0999999999999999,-1.182411858241539,low,low,,ISIC_3981425.JPG,,ISIC_0026141.JPG,26,false,0.15000000000000002,ll,keypress(f),0,true,589388.8999999762,589388.5999999642,583700.181,583910.3999999762,583716.898,589200.229,1,40,6,
sequence,flow.Sequence,8_5,2023-11-17T22:38:38.103Z,,,,,,,,,,,5671.7019999641925,completion,,,,,,,low,low,,,,,,false,,,,,true,589389.3000000119,589388.5999999642,583700.181,583910.3000000119,583716.898,589200.229,1,40,,
trial,html.Screen,8_6_0,2023-11-17T22:38:44.541Z,,,,2,-0.0063515208248796,-0.0194177605767913,,0.04,true,ll,6626.77099999995,response,-1.1642596483638106,1.0999999999999999,-1.182411858241539,-1.091507924157762,1.0999999999999999,-1.182411858241539,low,low,,ISIC_5281908.JPG,,ISIC_0765584.JPG,26,false,0.15000000000000002,ll,keypress(f),0,true,595827.0999999642,595827,589183.402,589389.5,589200.229,595633.55,1,40,7,
sequence,flow.Sequence,8_6,2023-11-17T22:38:44.541Z,,,,,,,,,,,6626.77099999995,completion,,,,,,,low,low,,,,,,false,,,,,true,595827.1999999881,595827,589183.402,589389.3999999762,589200.229,595633.55,1,40,,
trial,html.Screen,8_7_0,2023-11-17T22:38:50.542Z,,,,2,0.0077673378094614,0.0021810768579373,,0.04,true,hl,6194.949999999953,response,1.2609895831255231,1.0999999999999999,-1.1436621347638452,-1.0687377724194886,1.0999999999999999,-1.1436621347638452,high,low,,ISIC_0067621.JPG,,ISIC_1367610.JPG,25,false,0.2500000000000001,hl,keypress(j),0,true,601828.8000000119,601828.5,595616.941,595827.1999999881,595633.55,601633.516,1,40,8,
sequence,flow.Sequence,8_7,2023-11-17T22:38:50.543Z,,,,,,,,,,,6194.949999999953,completion,,,,,,,high,low,,,,,,false,,,,,true,601829.1999999881,601828.5,595616.941,595827.1999999881,595633.55,601633.516,1,40,,
trial,html.Screen,8_8_0,2023-11-17T22:38:54.718Z,,,,2,0.0060934073440827,0.0279108145883031,,0.04,false,ll,4370.784000011976,response,-1.1217390688497193,1.0999999999999999,-1.1436621347638452,-1.2276600934505035,1.0999999999999999,-1.1436621347638452,low,low,,ISIC_0032604.JPG,,ISIC_0026344.JPG,29,false,0.14,hh,keypress(i),0,true,606004.5,606004.3000000119,601616.893,601829.3000000119,601633.516,605816.879,1,40,9,
sequence,flow.Sequence,8_8,2023-11-17T22:38:54.719Z,,,,,,,,,,,4370.784000011976,completion,,,,,,,low,low,,,,,,false,,,,,true,606005,606004.3000000119,601616.893,601829.3000000119,601633.516,605816.879,1,40,,
trial,html.Screen,8_9_0,2023-11-17T22:39:03.440Z,,,,2,-0.0086413421586899,-0.0360184993500958,,0.04,false,hh,8906.121000000043,response,1.1711612520017805,1.0999999999999999,-1.1936621347638452,1.191169949562454,1.0999999999999999,-1.1936621347638452,high,high,,ISIC_0010767.JPG,,ISIC_0061936.JPG,32,false,0.11,ll,keypress(f),0,true,614723.0999999642,614723,605800.268,606005.1999999881,605816.879,614533.567,1,40,10,
sequence,flow.Sequence,8_9,2023-11-17T22:39:03.440Z,,,,,,,,,,,8906.121000000043,completion,,,,,,,high,high,,,,,,false,,,,,true,614723.1999999881,614723,605800.268,606005.0999999642,605816.879,614533.567,1,40,,
trial,html.Screen,8_10_0,2023-11-17T22:39:12.291Z,,,,2,-0.0189295602385628,-0.0128812415435153,,0.04,false,hh,9039.332999976119,response,1.1320017221158485,1.15,-1.1936621347638452,1.065213496692536,1.15,-1.1936621347638452,high,high,,ISIC_0010372.JPG,,ISIC_0030597.JPG,25,false,0.11,hl,keypress(j),0,true,623573.3000000119,623572.8999999762,614516.526,614723.3000000119,614533.567,623383.461,1,40,11,
sequence,flow.Sequence,8_10,2023-11-17T22:39:12.291Z,,,,,,,,,,,9039.332999976119,completion,,,,,,,high,high,,,,,,false,,,,,true,623573.6999999881,623572.8999999762,614516.526,614723.3000000119,614533.567,623383.461,1,40,,
trial,html.Screen,8_11_0,2023-11-17T22:39:19.681Z,,,,2,-0.0321039635696159,-0.020496766286318,,0.04,true,ll,7580.138999964227,response,-1.3045229691102764,1.15,-1.1936621347638452,-1.1781544075681951,1.15,-1.1936621347638452,low,low,,ISIC_0058063.JPG,,ISIC_6148533.JPG,31,false,0.16000000000000003,ll,keypress(f),0,true,630963.6999999881,630963.5999999642,623366.702,623573.8999999762,623383.461,630766.778,1,40,12,
sequence,flow.Sequence,8_11,2023-11-17T22:39:19.681Z,,,,,,,,,,,7580.138999964227,completion,,,,,,,low,low,,,,,,false,,,,,true,630963.8999999762,630963.5999999642,623366.702,623573.8000000119,623383.461,630766.778,1,40,,
trial,html.Screen,8_12_0,2023-11-17T22:39:28.090Z,,,,2,-0.0086413421586899,-0.0360184993500958,,0.04,false,hh,8605.522000011872,response,1.0474638406367112,1.15,-1.1936621347638452,1.2142897533079478,1.15,-1.1936621347638452,high,high,,ISIC_0010767.JPG,,ISIC_0025277.JPG,25,false,0.11,lh,keypress(e),0,true,639372.5,639372.3000000119,630750.064,630964,630766.778,639183.414,1,40,13,
sequence,flow.Sequence,8_12,2023-11-17T22:39:28.090Z,,,,,,,,,,,8605.522000011872,completion,,,,,,,high,high,,,,,,false,,,,,true,639373,639372.3000000119,630750.064,630963.8999999762,630766.778,639183.414,1,40,,
trial,html.Screen,8_13_0,2023-11-17T22:39:33.050Z,,,,2,0.0023664502831079,0.0252784582169994,,0.04,true,hl,5148.985999976168,response,0.887838744955182,1.15,-1.1936621347638452,-1.3716210719758812,1.15,-1.1936621347638452,high,low,,ISIC_4156010.JPG,,ISIC_1488727.JPG,27,false,0.29000000000000015,hl,keypress(j),0,true,644332.5,644332.3999999762,639166.425,639373.1999999881,639183.414,644150.974,1,40,14,
sequence,flow.Sequence,8_13,2023-11-17T22:39:33.050Z,,,,,,,,,,,5148.985999976168,completion,,,,,,,high,low,,,,,,false,,,,,true,644333,644332.3999999762,639166.425,639373.0999999642,639183.414,644150.974,1,40,,
trial,html.Screen,8_14_0,2023-11-17T22:39:42.208Z,,,,2,0.0071892445601978,-0.0246015408628738,,0.04,false,lh,9339.625999964192,response,-1.411763789273233,1.15,-1.1936621347638452,1.0057734478347988,1.15,-1.1436621347638452,low,high,,ISIC_0014133.JPG,,ISIC_0027235.JPG,27,false,0.3300000000000002,ll,keypress(f),0,true,653490.6999999881,653490.5999999642,644116.811,644333.1999999881,644150.974,653300.139,1,40,15,
sequence,flow.Sequence,8_14,2023-11-17T22:39:42.208Z,,,,,,,,,,,9339.625999964192,completion,,,,,,,low,high,,,,,,false,,,,,true,653490.8999999762,653490.5999999642,644116.811,644333.1999999881,644150.974,653300.139,1,40,,
trial,html.Screen,8_15_0,2023-11-17T22:39:48.571Z,,,,2,0.0350697500805515,0.0166617848231997,,0.04,true,hh,6553.060999988113,response,1.194799101954455,1.15,-1.1436621347638452,1.2071632388858642,1.15,-1.1436621347638452,high,high,,ISIC_0024423.JPG,,ISIC_4347535.JPG,25,false,0.11,hh,keypress(i),0,true,659853.5,659853.1999999881,653283.056,653490.8999999762,653300.139,659666.676,1,40,16,
sequence,flow.Sequence,8_15,2023-11-17T22:39:48.571Z,,,,,,,,,,,6553.060999988113,completion,,,,,,,high,high,,,,,,false,,,,,true,659853.8999999762,659853.1999999881,653283.056,653490.8999999762,653300.139,659666.676,1,40,,
trial,html.Screen,8_16_0,2023-11-17T22:39:55.018Z,,,,2,-0.0367218428225813,0.0026956749740767,,0.04,true,lh,6633.42399996426,response,-1.411763789273233,1.1509811704201596,-1.1436621347638452,1.0057734478347988,1.15,-1.1436621347638452,low,high,,ISIC_7212271.JPG,,ISIC_0027235.JPG,27,false,0.31000000000000016,lh,keypress(e),0,true,666300.3999999762,666300.0999999642,659650.052,659854.0999999642,659666.676,666116.713,1,40,17,
sequence,flow.Sequence,8_16,2023-11-17T22:39:55.018Z,,,,,,,,,,,6633.42399996426,completion,,,,,,,low,high,,,,,,false,,,,,true,666300.6999999881,666300.0999999642,659650.052,659854,659666.676,666116.713,1,40,,
trial,html.Screen,8_17_0,2023-11-17T22:40:01.580Z,,,,2,0.0023664502831079,0.0252784582169994,,0.04,true,hl,6742.386999964248,response,1.296989496412063,1.1509811704201596,-1.1436621347638452,-1.1425074323097002,1.0999999999999999,-1.1436621347638452,high,low,,ISIC_4156010.JPG,,ISIC_6356803.JPG,25,false,0.28000000000000014,hl,keypress(j),0,true,672859.3000000119,672859.0999999642,666099.803,666300.8999999762,666116.713,672666.663,1,40,18,
sequence,flow.Sequence,8_17,2023-11-17T22:40:01.580Z,,,,,,,,,,,6742.386999964248,completion,,,,,,,high,low,,,,,,false,,,,,true,672859.3000000119,672859.0999999642,666099.803,666300.8000000119,666116.713,672666.663,1,40,,
trial,html.Screen,8_18_0,2023-11-17T22:40:06.436Z,,,,2,0.0077673378094614,0.0021810768579373,,0.04,true,lh,5048.337000000058,response,-0.8923602890201078,1.1509811704201596,-1.1436621347638452,0.8351700666074688,1.0999999999999999,-1.1436621347638452,low,high,,ISIC_0067621.JPG,,ISIC_0033103.JPG,25,false,0.28000000000000014,lh,keypress(e),0,true,677715.0999999642,677715,672650.069,672859.3000000119,672666.663,677516.603,1,40,19,
sequence,flow.Sequence,8_18,2023-11-17T22:40:06.436Z,,,,,,,,,,,5048.337000000058,completion,,,,,,,low,high,,,,,,false,,,,,true,677715.1999999881,677715,672650.069,672859.3000000119,672666.663,677516.603,1,40,,
trial,html.Screen,8_19_0,2023-11-17T22:40:13.486Z,,,,2,0.0060918352854008,-0.029032683404407,,0.04,true,lh,7248.697000011918,response,-0.8591294258188253,1.1509811704201596,-1.093662134763845,0.870797302150167,1.0999999999999999,-1.1436621347638452,low,high,,ISIC_8436194.JPG,,ISIC_0055841.JPG,25,false,0.2600000000000001,lh,keypress(e),0,true,684765.5999999642,684765.3000000119,677500.103,677715.1999999881,677516.603,684583.867,1,40,20,
sequence,flow.Sequence,8_19,2023-11-17T22:40:13.486Z,,,,,,,,,,,7248.697000011918,completion,,,,,,,low,high,,,,,,false,,,,,true,684766,684765.3000000119,677500.103,677715.1999999881,677516.603,684583.867,1,40,,
trial,html.Screen,8_20_0,2023-11-17T22:40:19.501Z,,,,2,0.0350697500805515,0.0166617848231997,,0.04,true,ll,6196.33299998811,response,-1.1604734171556077,1.1509811704201596,-1.093662134763845,-1.0789312625280616,1.0499999999999998,-1.1436621347638452,low,low,,ISIC_0024423.JPG,,ISIC_3950753.JPG,26,false,0.13,ll,keypress(f),0,true,690780.3999999762,690780.1999999881,684549.787,684766.0999999642,684583.867,690583.349,1,40,21,
sequence,flow.Sequence,8_20,2023-11-17T22:40:19.501Z,,,,,,,,,,,6196.33299998811,completion,,,,,,,low,low,,,,,,false,,,,,true,690780.8999999762,690780.1999999881,684549.787,684766,684583.867,690583.349,1,40,,
trial,html.Screen,8_21_0,2023-11-17T22:40:26.556Z,,,,2,0.0399381815506136,0.0177751789152893,,0.04,true,hh,7251.750999964192,response,1.084683602025889,1.1509811704201596,-0.9190303441734434,1.0111744161375118,1.0499999999999998,-0.9190303441734434,high,high,,ISIC_3981425.JPG,,ISIC_0069946.JPG,28,false,0.11,hh,keypress(i),0,true,697835.1999999881,697835.0999999642,690566.662,690781.0999999642,690583.349,697649.939,1,40,22,
sequence,flow.Sequence,8_21,2023-11-17T22:40:26.556Z,,,,,,,,,,,7251.750999964192,completion,,,,,,,high,high,,,,,,false,,,,,true,697835.3000000119,697835.0999999642,690566.662,690781,690583.349,697649.939,1,40,,
trial,html.Screen,8_22_0,2023-11-17T22:40:33.517Z,,,,2,-0.0367218428225813,0.0026956749740767,,0.04,false,hl,7146.260999988066,response,0.9128554359750156,0.9979290090817003,-0.9190303441734434,-0.739303798149096,1.0499999999999998,-0.9190303441734434,high,low,,ISIC_7212271.JPG,,ISIC_0030985.JPG,27,false,0.19000000000000006,hh,keypress(i),0,true,704796.5,704796.1999999881,697633.223,697835.3999999762,697649.939,704599.971,1,40,23,
sequence,flow.Sequence,8_22,2023-11-17T22:40:33.517Z,,,,,,,,,,,7146.260999988066,completion,,,,,,,high,low,,,,,,false,,,,,true,704796.8999999762,704796.1999999881,697633.223,697835.3999999762,697649.939,704599.971,1,40,,
trial,html.Screen,8_23_0,2023-11-17T22:40:36.644Z,,,,2,0.0060934073440827,0.0279108145883031,,0.04,true,hl,3323.0289999999804,response,0.8688859182707874,0.9979290090817003,-0.9190303441734434,-0.9566733172438716,1.0499999999999998,-0.9690303441734435,high,low,,ISIC_0032604.JPG,,ISIC_0640770.JPG,29,false,0.20000000000000007,hl,keypress(j),0,true,707923.0999999642,707923,704583,704797.0999999642,704599.971,707733.23,1,40,24,
sequence,flow.Sequence,8_23,2023-11-17T22:40:36.644Z,,,,,,,,,,,3323.0289999999804,completion,,,,,,,high,low,,,,,,false,,,,,true,707923.0999999642,707923,704583,704797.0999999642,704599.971,707733.23,1,40,,
trial,html.Screen,8_24_0,2023-11-17T22:40:39.197Z,,,,2,-0.0199897690678184,-0.0312486875504497,,0.04,true,hl,2742.6699999761768,response,1.0088376543442317,0.9479290090817003,-0.9190303441734434,-0.8023075994977575,1.0499999999999998,-0.9690303441734435,high,low,,ISIC_5482426.JPG,,ISIC_7619234.JPG,26,false,0.18000000000000005,hl,keypress(j),0,true,710476.1999999881,710475.8999999762,707716.716,707923.1999999881,707733.23,710283.217,1,40,25,
sequence,flow.Sequence,8_24,2023-11-17T22:40:39.197Z,,,,,,,,,,,2742.6699999761768,completion,,,,,,,high,low,,,,,,false,,,,,true,710476.5999999642,710475.8999999762,707716.716,707923.0999999642,707733.23,710283.217,1,40,,
trial,html.Screen,8_25_0,2023-11-17T22:40:44.109Z,,,,2,-0.0189295602385628,-0.0128812415435153,,0.04,true,hl,5104.783000000054,response,0.8164333039971521,0.9479290090817003,-0.9190303441734434,-0.7749218621525992,1.0499999999999998,-0.9190303441734434,high,low,,ISIC_0010372.JPG,,ISIC_0013079.JPG,29,false,0.18000000000000005,hl,keypress(j),0,true,715388.1999999881,715388,710266.746,710476.8000000119,710283.217,715199.94,1,40,26,
sequence,flow.Sequence,8_25,2023-11-17T22:40:44.109Z,,,,,,,,,,,5104.783000000054,completion,,,,,,,high,low,,,,,,false,,,,,true,715388.5999999642,715388,710266.746,710476.8000000119,710283.217,715199.94,1,40,,
trial,html.Screen,8_26_0,2023-11-17T22:40:52.886Z,,,,2,0.0023664502831079,0.0252784582169994,,0.04,false,hl,8965.259999988135,response,0.8164333039971521,0.8979290090817003,-0.9190303441734434,-0.7749218621525992,1.0499999999999998,-0.9190303441734434,high,low,,ISIC_4156010.JPG,,ISIC_0013079.JPG,28,false,0.17000000000000004,hh,keypress(i),0,true,724165.5,724165.1999999881,715183.305,715388.8000000119,715199.94,723983.789,1,40,27,
sequence,flow.Sequence,8_26,2023-11-17T22:40:52.886Z,,,,,,,,,,,8965.259999988135,completion,,,,,,,high,low,,,,,,false,,,,,true,724165.8000000119,724165.1999999881,715183.305,715388.8000000119,715199.94,723983.789,1,40,,
trial,html.Screen,8_27_0,2023-11-17T22:41:00.071Z,,,,2,0.0077673378094614,0.0021810768579373,,0.04,false,hh,7363.3109999642475,response,0.9314347560281744,0.8979290090817003,-0.9190303441734434,1.134138732207607,1.0499999999999998,-0.9690303441734435,high,high,,ISIC_0067621.JPG,,ISIC_0056660.JPG,37,false,0.1,hl,keypress(j),0,true,731347.0999999642,731347.0999999642,723949.702,724166,723983.789,731149.801,1,40,28,
sequence,flow.Sequence,8_27,2023-11-17T22:41:00.071Z,,,,,,,,,,,7363.3109999642475,completion,,,,,,,high,high,,,,,,false,,,,,true,731347.3000000119,731347.0999999642,723949.702,724166,723983.789,731149.801,1,40,,
trial,html.Screen,8_28_0,2023-11-17T22:41:09.808Z,,,,2,0.0399381815506136,0.0177751789152893,,0.04,true,lh,9934.09899997618,response,-0.8534691366511764,0.8239340300126632,-0.9190303441734434,1.276663727068437,1.0999999999999999,-0.9690303441734435,low,high,,ISIC_3981425.JPG,,ISIC_0056788.JPG,29,false,0.2300000000000001,lh,keypress(e),0,true,741084.1999999881,741083.8999999762,731133.162,731347.3999999762,731149.801,740899.852,1,40,29,
sequence,flow.Sequence,8_28,2023-11-17T22:41:09.808Z,,,,,,,,,,,9934.09899997618,completion,,,,,,,low,high,,,,,,false,,,,,true,741084.5999999642,741083.8999999762,731133.162,731347.3000000119,731149.801,740899.852,1,40,,
trial,html.Screen,8_29_0,2023-11-17T22:41:19.472Z,,,,2,0.0118555311043871,0.0087774532070196,,0.04,true,lh,9848.247999964282,response,-0.8129823105338526,0.8239340300126632,-0.9190303441734434,0.9655386457143784,1.0999999999999999,-0.9690303441734435,low,high,,ISIC_6488658.JPG,,ISIC_8268025.JPG,29,false,0.2300000000000001,lh,keypress(e),0,true,750748.3000000119,750748.0999999642,740882.803,741084.6999999881,740899.852,750566.879,1,40,30,
sequence,flow.Sequence,8_29,2023-11-17T22:41:19.473Z,,,,,,,,,,,9848.247999964282,completion,,,,,,,low,high,,,,,,false,,,,,true,750748.8000000119,750748.0999999642,740882.803,741084.5999999642,740899.852,750566.879,1,40,,
trial,html.Screen,8_30_0,2023-11-17T22:41:28.361Z,,,,2,0.0071892445601978,-0.0246015408628738,,0.04,false,hh,9069.621000000043,response,0.8847502213514871,0.8239340300126632,-0.8690303441734434,0.9725947392713435,1.0711011863914075,-0.9690303441734435,high,high,,ISIC_0014133.JPG,,ISIC_0073044.JPG,35,false,0.1,hl,keypress(j),0,true,759636.8999999762,759636.5,750532.848,750749,750566.879,759449.735,1,40,31,
sequence,flow.Sequence,8_30,2023-11-17T22:41:28.361Z,,,,,,,,,,,9069.621000000043,completion,,,,,,,high,high,,,,,,false,,,,,true,759637.1999999881,759636.5,750532.848,750749,750566.879,759449.735,1,40,,
trial,html.Screen,8_31_0,2023-11-17T22:41:33.975Z,,,,2,0.0377791839943904,-0.0227626648172468,,0.04,false,ll,5801.664999976172,response,-0.7848333827448511,0.8239340300126632,-0.8690303441734434,-0.9557254346276748,1.1211011863914075,-0.9690303441734435,low,low,,ISIC_7167479.JPG,,ISIC_6778515.JPG,39,false,0.1,lh,keypress(e),0,true,765251.5,765251.3999999762,759433.073,759637.5,759449.735,765066.48,1,40,32,
sequence,flow.Sequence,8_31,2023-11-17T22:41:33.976Z,,,,,,,,,,,5801.664999976172,completion,,,,,,,low,low,,,,,,false,,,,,true,765251.5999999642,765251.3999999762,759433.073,759637.3999999762,759449.735,765066.48,1,40,,
trial,html.Screen,8_32_0,2023-11-17T22:41:38.686Z,,,,2,0.0118555311043871,0.0087774532070196,,0.04,true,lh,4895.619999964256,response,-0.6899115458415905,0.8239340300126632,-0.8690303441734434,1.1859040095641875,1.1211011863914075,-1.0190303441734434,low,high,,ISIC_6488658.JPG,,ISIC_0028967.JPG,29,false,0.2300000000000001,lh,keypress(e),0,true,769962.1999999881,769962.0999999642,765049.699,765251.6999999881,765066.48,769766.356,1,40,33,
sequence,flow.Sequence,8_32,2023-11-17T22:41:38.686Z,,,,,,,,,,,4895.619999964256,completion,,,,,,,low,high,,,,,,false,,,,,true,769962.3000000119,769962.0999999642,765049.699,765251.6999999881,765066.48,769766.356,1,40,,
trial,html.Screen,8_33_0,2023-11-17T22:41:44.225Z,,,,2,0.0050679133050021,0.0174815595031679,,0.04,true,ll,5734.444000011892,response,-0.8966918590347848,0.8239340300126632,-0.8190303441734433,-1.078424090533439,1.1211011863914075,-1.0190303441734434,low,low,,ISIC_9848743.JPG,,ISIC_0034193.JPG,38,false,0.1,ll,keypress(f),0,true,775501.0999999642,775500.8000000119,769749.595,769962.3000000119,769766.356,775316.42,1,40,34,
sequence,flow.Sequence,8_33,2023-11-17T22:41:44.225Z,,,,,,,,,,,5734.444000011892,completion,,,,,,,low,low,,,,,,false,,,,,true,775501.5,775500.8000000119,769749.595,769962.3000000119,769766.356,775316.42,1,40,,
trial,html.Screen,8_34_0,2023-11-17T22:41:48.112Z,,,,2,0.0023664502831079,0.0252784582169994,,0.04,true,hl,4071.1799999641953,response,0.9046170303418553,0.8239340300126632,-0.8190303441734433,-1.0063426986460375,1.1211011863914075,-1.0190303441734434,high,low,,ISIC_4156010.JPG,,ISIC_0055759.JPG,26,false,0.14,hl,keypress(j),0,true,779387.8999999762,779387.5999999642,775299.533,775501.6999999881,775316.42,779199.683,1,40,35,
sequence,flow.Sequence,8_34,2023-11-17T22:41:48.112Z,,,,,,,,,,,4071.1799999641953,completion,,,,,,,high,low,,,,,,false,,,,,true,779388.3000000119,779387.5999999642,775299.533,775501.5999999642,775316.42,779199.683,1,40,,
trial,html.Screen,8_35_0,2023-11-17T22:41:51.680Z,,,,2,-0.0321039635696159,-0.020496766286318,,0.04,true,lh,3756.11700001196,response,-0.8129823105338526,0.7739340300126631,-0.8190303441734433,0.9655386457143784,1.1211011863914075,-0.9923833945897382,low,high,,ISIC_0058063.JPG,,ISIC_8268025.JPG,25,false,0.20000000000000007,lh,keypress(e),0,true,782956.0999999642,782955.8000000119,779183.164,779388.3999999762,779199.683,782766.441,1,40,36,
sequence,flow.Sequence,8_35,2023-11-17T22:41:51.680Z,,,,,,,,,,,3756.11700001196,completion,,,,,,,low,high,,,,,,false,,,,,true,782956.5,782955.8000000119,779183.164,779388.3999999762,779199.683,782766.441,1,40,,
trial,html.Screen,8_36_0,2023-11-17T22:41:55.319Z,,,,2,0.0399381815506136,0.0177751789152893,,0.04,false,ll,3828.0590000000084,response,-0.6985076842370845,0.7739340300126631,-0.7690303441734433,-0.8959760854588986,1.0711011863914075,-0.9923833945897382,low,low,,ISIC_3981425.JPG,,ISIC_9410044.JPG,46,false,0.1,hl,keypress(j),0,true,786594.5999999642,786594.5,782749.842,782956.5999999642,782766.441,786399.683,1,40,37,
sequence,flow.Sequence,8_36,2023-11-17T22:41:55.319Z,,,,,,,,,,,3828.0590000000084,completion,,,,,,,low,low,,,,,,false,,,,,true,786594.6999999881,786594.5,782749.842,782956.5,782766.441,786399.683,1,40,,
trial,html.Screen,8_37_0,2023-11-17T22:42:06.868Z,,,,2,0.0057914759495055,-0.018500200317654,,0.04,true,lh,11740.516999988118,response,-0.692868405271937,0.7739340300126631,-0.8190303441734433,1.157912599481825,1.0711011863914075,-0.9923833945897382,low,high,,ISIC_0058723.JPG,,ISIC_0026272.JPG,25,false,0.19000000000000006,lh,keypress(e),0,true,798140.3999999762,798140.1999999881,786382.909,786594.8000000119,786399.683,797949.713,1,40,38,
sequence,flow.Sequence,8_37,2023-11-17T22:42:06.868Z,,,,,,,,,,,11740.516999988118,completion,,,,,,,low,high,,,,,,false,,,,,true,798140.8000000119,798140.1999999881,786382.909,786594.8000000119,786399.683,797949.713,1,40,,
trial,html.Screen,8_38_0,2023-11-17T22:42:11.515Z,,,,2,-0.0127320821962457,0.0315308940184827,,0.04,true,hh,4838.287000000011,response,0.8617273148568415,0.7739340300126631,-0.8190303441734433,1.1394683921871485,1.0711011863914075,-0.9923833945897382,high,high,,ISIC_8156101.JPG,,ISIC_0000287.JPG,31,false,0.1,hh,keypress(i),0,true,802788.1999999881,802788,797932.843,798141,797949.713,802599.7,1,40,39,
sequence,flow.Sequence,8_38,2023-11-17T22:42:11.516Z,,,,,,,,,,,4838.287000000011,completion,,,,,,,high,high,,,,,,false,,,,,true,802788.5999999642,802788,797932.843,798141,797949.713,802599.7,1,40,,
trial,html.Screen,8_39_0,2023-11-17T22:42:15.313Z,,,,2,0.0350697500805515,0.0166617848231997,,0.04,true,hh,3986.399999964284,response,0.6934463012153527,0.7739340300126631,-0.8190303441734433,0.8561157996484916,0.950597853521995,-0.9923833945897382,high,high,,ISIC_0024423.JPG,,ISIC_0033063.JPG,46,false,0.1,hh,keypress(i),0,true,806586.1999999881,806586.0999999642,802583.062,802788.8000000119,802599.7,806399.901,1,40,40,
sequence,flow.Sequence,8_39,2023-11-17T22:42:15.314Z,,,,,,,,,,,3986.399999964284,completion,,,,,,,high,high,,,,,,false,,,,,true,806586.3999999762,806586.0999999642,802583.062,802788.8000000119,802599.7,806399.901,1,40,,
stair_loop,flow.Loop,8,2023-11-17T22:42:15.314Z,,,,,,,,,,,256852.43399996427,completion,,,,,,,,,,,,,,false,,,,,true,806586.5,806586.0999999642,549717.253,549922.8000000119,549733.666,806399.901,1,40,,
exp_instructions,html.Screen,9,2023-11-17T22:42:47.435Z,,,,,,,,,,,32307.198999964283,response,,,,,,,,,,,,,,,,continue,keypress(Space),,,838707.8000000119,838707.0999999642,806383.112,806586.5,806399.901,838516.182,,,,
trial,html.Screen,10_0_0,2023-11-17T22:42:54.604Z,,,,1,0.0060934073440827,0.0279108145883031,,0.04,false,lh,7360.517999988049,response,-0.849847885203758,0.8813372377741239,-0.8827619337029636,0.973447384095442,1.0720254265522327,-0.9811001963070373,low,high,,ISIC_0032604.JPG,9,ISIC_9612228.JPG,25,false,0.20000000000000007,ll,keypress(f),0,false,845877,845876.6999999881,838498.553,838708.1999999881,838516.182,845682.851,4,500,1,
break,html.Screen,10_0_1,2023-11-17T22:42:54.605Z,,,,,,,,,,,NaN,,,,,,,,low,high,,,,,,false,,,,,false,845878.0999999642,845877.8000000119,,845877.3999999762,,845682.851,4,500,,
break_continue,html.Screen,10_0_2,2023-11-17T22:42:54.606Z,,,,,,,,,,,NaN,,,,,,,,low,high,,,,,,false,,,,,false,845878.8999999762,845878.5999999642,,845878.3999999762,,845682.851,4,500,,
sequence,flow.Sequence,10_0,2023-11-17T22:42:54.606Z,,,,,,,,,,,7362.417999964207,completion,,,,,,,low,high,,,,,,false,,,,,false,845879.1999999881,845878.5999999642,838498.553,838708.0999999642,838516.182,845682.851,4,500,,
trial,html.Screen,10_1_0,2023-11-17T22:42:58.011Z,,,,1,0.0077673378094614,0.0021810768579373,,0.04,true,hl,3600.648999999976,response,0.9448560599810628,0.8813372377741239,-0.8827619337029636,-0.9099421612683488,1.0720254265522327,-0.9811001963070373,high,low,,ISIC_0067621.JPG,9,ISIC_9684318.JPG,25,false,0.16000000000000003,hl,keypress(j),0,false,849283.8999999762,849283.5,845666.074,845879.5,845682.851,849099.565,4,500,2,
break,html.Screen,10_1_1,2023-11-17T22:42:58.012Z,,,,,,,,,,,NaN,,,,,,,,high,low,,,,,,false,,,,,false,849284.8000000119,849284.5,,849284.1999999881,,849099.565,4,500,,
break_continue,html.Screen,10_1_2,2023-11-17T22:42:58.012Z,,,,,,,,,,,NaN,,,,,,,,high,low,,,,,,false,,,,,false,849285.3000000119,849285.0999999642,,849284.8999999762,,849099.565,4,500,,
sequence,flow.Sequence,10_1,2023-11-17T22:42:58.013Z,,,,,,,,,,,3602.248999964213,completion,,,,,,,high,low,,,,,,false,,,,,false,849285.5,849285.0999999642,845666.074,845879.3000000119,845682.851,849099.565,4,500,,
trial,html.Screen,10_2_0,2023-11-17T22:43:05.037Z,,,,1,-0.0321039635696159,-0.020496766286318,,0.04,false,lh,7208.134999988135,response,-0.8129823105338526,0.8813372377741239,-0.8827619337029636,0.9655386457143784,1.0720254265522327,-0.9811001963070373,low,high,,ISIC_0058063.JPG,11,ISIC_8268025.JPG,25,false,0.20000000000000007,ll,keypress(f),0,false,856308,856307.6999999881,849082.784,849285.5999999642,849099.565,856116.183,4,500,3,
break,html.Screen,10_2_1,2023-11-17T22:43:05.038Z,,,,,,,,,,,NaN,,,,,,,,low,high,,,,,,false,,,,,false,856308.8000000119,856308.6999999881,,856308.3000000119,,856116.183,4,500,,
break_continue,html.Screen,10_2_2,2023-11-17T22:43:05.039Z,,,,,,,,,,,NaN,,,,,,,,low,high,,,,,,false,,,,,false,856309.3999999762,856309.1999999881,,856309,,856116.183,4,500,,
sequence,flow.Sequence,10_2,2023-11-17T22:43:05.039Z,,,,,,,,,,,7209.634999988135,completion,,,,,,,low,high,,,,,,false,,,,,false,856309.6999999881,856309.1999999881,849082.784,849285.5999999642,849099.565,856116.183,4,500,,
trial,html.Screen,10_3_0,2023-11-17T22:43:11.262Z,,,,1,0.0350697500805515,0.0166617848231997,,0.04,true,hh,6416.317000000039,response,0.8984767404401109,0.8813372377741239,-0.8827619337029636,1.0289479104867394,1.0720254265522327,-0.9811001963070373,high,high,,ISIC_0024423.JPG,9,ISIC_0011458.JPG,37,false,0.1,hh,keypress(i),0,false,862532.8000000119,862532.5,856099.75,856309.8999999762,856116.183,862349.506,4,500,4,
break,html.Screen,10_3_1,2023-11-17T22:43:11.263Z,,,,,,,,,,,NaN,,,,,,,,high,high,,,,,,false,,,,,false,862533.6999999881,862533.5,,862533.0999999642,,862349.506,4,500,,
break_continue,html.Screen,10_3_2,2023-11-17T22:43:11.264Z,,,,,,,,,,,NaN,,,,,,,,high,high,,,,,,false,,,,,false,862534.1999999881,862534.0999999642,,862533.8999999762,,862349.506,4,500,,
sequence,flow.Sequence,10_3,2023-11-17T22:43:11.264Z,,,,,,,,,,,6417.916999964276,completion,,,,,,,high,high,,,,,,false,,,,,false,862534.5,862534.0999999642,856099.75,856309.8000000119,856116.183,862349.506,4,500,,
trial,html.Screen,10_4_0,2023-11-17T22:43:18.950Z,,,,1,0.0158987717472563,0.0292472192292015,,0.04,false,hl,7870.893999976106,response,0.7809949855371787,0.8813372377741239,-0.8827619337029636,-0.8834146203433249,1.0720254265522327,-0.9811001963070373,high,low,,ISIC_1366765.JPG,9,ISIC_7450481.JPG,25,false,0.16000000000000003,lh,keypress(e),0,false,870220.5999999642,870220.3999999762,862332.942,862534.6999999881,862349.506,870032.745,4,500,5,
break,html.Screen,10_4_1,2023-11-17T22:43:18.951Z,,,,,,,,,,,NaN,,,,,,,,high,low,,,,,,false,,,,,false,870221.5,870221.3000000119,,870221,,870032.745,4,500,,
break_continue,html.Screen,10_4_2,2023-11-17T22:43:18.951Z,,,,,,,,,,,NaN,,,,,,,,high,low,,,,,,false,,,,,false,870222.0999999642,870221.8999999762,,870221.5999999642,,870032.745,4,500,,
sequence,flow.Sequence,10_4,2023-11-17T22:43:18.952Z,,,,,,,,,,,7872.393999976106,completion,,,,,,,high,low,,,,,,false,,,,,false,870222.3000000119,870221.8999999762,862332.942,862534.5999999642,862349.506,870032.745,4,500,,
trial,html.Screen,10_5_0,2023-11-17T22:43:25.125Z,,,,1,0.0118555311043871,0.0087774532070196,,0.04,false,hl,6362.454999988084,response,0.8620516892494489,0.8813372377741239,-0.8827619337029636,-1.1108509340502866,1.0720254265522327,-0.9811001963070373,high,low,,ISIC_6488658.JPG,9,ISIC_5557806.JPG,25,false,0.16000000000000003,lh,keypress(e),0,false,876395.1999999881,876395.1999999881,870016.224,870222.5,870032.745,876199.388,4,500,6,
break,html.Screen,10_5_1,2023-11-17T22:43:25.125Z,,,,,,,,,,,NaN,,,,,,,,high,low,,,,,,false,,,,,false,876395.5,876395.5,,876395.3000000119,,876199.388,4,500,,
break_continue,html.Screen,10_5_2,2023-11-17T22:43:25.125Z,,,,,,,,,,,NaN,,,,,,,,high,low,,,,,,false,,,,,false,876395.6999999881,876395.5999999642,,876395.5999999642,,876199.388,4,500,,
sequence,flow.Sequence,10_5,2023-11-17T22:43:25.125Z,,,,,,,,,,,6362.854999964242,completion,,,,,,,high,low,,,,,,false,,,,,false,876395.6999999881,876395.5999999642,870016.224,870222.3999999762,870032.745,876199.388,4,500,,
trial,html.Screen,10_6_0,2023-11-17T22:43:29.189Z,,,,1,-0.0365981355399771,-0.0162670920008846,,0.04,false,ll,4259.811999988044,response,-0.9696118525781644,0.8813372377741239,-0.8827619337029636,-0.9712966348713286,1.0720254265522327,-0.9811001963070373,low,low,,ISIC_0982855.JPG,8,ISIC_7927525.JPG,38,false,0.1,lh,keypress(e),0,false,880459.3999999762,880459.1999999881,876182.829,876395.8000000119,876199.388,880266.157,4,500,7,
break,html.Screen,10_6_1,2023-11-17T22:43:29.190Z,,,,,,,,,,,NaN,,,,,,,,low,low,,,,,,false,,,,,false,880460.3999999762,880460.1999999881,,880459.6999999881,,880266.157,4,500,,
break_continue,html.Screen,10_6_2,2023-11-17T22:43:29.190Z,,,,,,,,,,,NaN,,,,,,,,low,low,,,,,,false,,,,,false,880460.8999999762,880460.6999999881,,880460.5,,880266.157,4,500,,
sequence,flow.Sequence,10_6,2023-11-17T22:43:29.190Z,,,,,,,,,,,4261.311999988044,completion,,,,,,,low,low,,,,,,false,,,,,false,880461.0999999642,880460.6999999881,876182.829,876395.8000000119,876199.388,880266.157,4,500,,
trial,html.Screen,10_7_0,2023-11-17T22:43:35.700Z,,,,1,0.0377791839943904,-0.0227626648172468,,0.04,false,ll,6704.143000011914,response,-0.8191491070125395,0.8813372377741239,-0.8827619337029636,-0.9768428530424166,1.0720254265522327,-0.9811001963070373,low,low,,ISIC_7167479.JPG,9,ISIC_2565986.JPG,38,false,0.1,lh,keypress(e),0,false,886970.3999999762,886970.3000000119,880249.619,880461.3000000119,880266.157,886782.727,4,500,8,
break,html.Screen,10_7_1,2023-11-17T22:43:35.700Z,,,,,,,,,,,NaN,,,,,,,,low,low,,,,,,false,,,,,false,886970.5999999642,886970.5999999642,,886970.5,,886782.727,4,500,,
break_continue,html.Screen,10_7_2,2023-11-17T22:43:35.700Z,,,,,,,,,,,NaN,,,,,,,,low,low,,,,,,false,,,,,false,886970.8999999762,886970.8000000119,,886970.8000000119,,886782.727,4,500,,
sequence,flow.Sequence,10_7,2023-11-17T22:43:35.700Z,,,,,,,,,,,6704.643000011914,completion,,,,,,,low,low,,,,,,false,,,,,false,886970.8999999762,886970.8000000119,880249.619,880461.1999999881,880266.157,886782.727,4,500,,
trial,html.Screen,10_8_0,2023-11-17T22:43:43.101Z,,,,1,-0.0127320821962457,0.0315308940184827,,0.04,true,ll,7589.073000011966,response,-0.9191486333136276,0.8813372377741239,-0.8827619337029636,-1.080719641270871,1.0720254265522327,-0.9811001963070373,low,low,,ISIC_8156101.JPG,9,ISIC_0663941.JPG,38,false,0.1,ll,keypress(f),0,false,894372.0999999642,894371.8000000119,886766.314,886971,886782.727,894182.722,4,500,9,
break,html.Screen,10_8_1,2023-11-17T22:43:43.102Z,,,,,,,,,,,NaN,,,,,,,,low,low,,,,,,false,,,,,false,894373,894372.8000000119,,894372.3999999762,,894182.722,4,500,,
break_continue,html.Screen,10_8_2,2023-11-17T22:43:43.103Z,,,,,,,,,,,NaN,,,,,,,,low,low,,,,,,false,,,,,false,894373.5999999642,894373.3000000119,,894373.1999999881,,894182.722,4,500,,
sequence,flow.Sequence,10_8,2023-11-17T22:43:43.103Z,,,,,,,,,,,7590.573000011966,completion,,,,,,,low,low,,,,,,false,,,,,false,894373.8999999762,894373.3000000119,886766.314,886971,886782.727,894182.722,4,500,,
trial,html.Screen,10_9_0,2023-11-17T22:43:47.565Z,,,,1,0.0399381815506136,0.0177751789152893,,0.04,true,lh,4652.977999988128,response,-0.717897378657649,0.8813372377741239,-0.8827619337029636,0.8788356736457825,1.0720254265522327,-0.9811001963070373,low,high,,ISIC_3981425.JPG,9,ISIC_3963183.JPG,25,false,0.20000000000000007,lh,keypress(e),0,false,898835.8999999762,898835.6999999881,894166.146,894374,894182.722,898649.381,4,500,10,
break,html.Screen,10_9_1,2023-11-17T22:43:47.566Z,,,,,,,,,,,NaN,,,,,,,,low,high,,,,,,false,,,,,false,898836.8000000119,898836.5999999642,,898836.1999999881,,898649.381,4,500,,
break_continue,html.Screen,10_9_2,2023-11-17T22:43:47.567Z,,,,,,,,,,,NaN,,,,,,,,low,high,,,,,,false,,,,,false,898837.3999999762,898837.1999999881,,898837,,898649.381,4,500,,
sequence,flow.Sequence,10_9,2023-11-17T22:43:47.567Z,,,,,,,,,,,4654.477999988128,completion,,,,,,,low,high,,,,,,false,,,,,false,898837.5999999642,898837.1999999881,894166.146,894373.8999999762,894182.722,898649.381,4,500,,
trial,html.Screen,10_10_0,2023-11-17T22:43:52.421Z,,,,1,0.0377791839943904,-0.0227626648172468,,0.04,true,hh,5042.218999964185,response,0.9293599144917216,0.8813372377741239,-0.8827619337029636,1.045616100036335,1.0720254265522327,-0.9811001963070373,high,high,,ISIC_7167479.JPG,10,ISIC_0011031.JPG,37,false,0.1,hh,keypress(i),0,false,903691.8999999762,903691.5999999642,898632.862,898837.6999999881,898649.381,903499.333,4,500,11,
break,html.Screen,10_10_1,2023-11-17T22:43:52.422Z,,,,,,,,,,,NaN,,,,,,,,high,high,,,,,,false,,,,,false,903692.6999999881,903692.5999999642,,903692.1999999881,,903499.333,4,500,,
break_continue,html.Screen,10_10_2,2023-11-17T22:43:52.423Z,,,,,,,,,,,NaN,,,,,,,,high,high,,,,,,false,,,,,false,903693.3000000119,903693.0999999642,,903692.8999999762,,903499.333,4,500,,
sequence,flow.Sequence,10_10,2023-11-17T22:43:52.423Z,,,,,,,,,,,5043.718999964185,completion,,,,,,,high,high,,,,,,false,,,,,false,903693.5,903693.0999999642,898632.862,898837.6999999881,898649.381,903499.333,4,500,,
trial,html.Screen,10_11_0,2023-11-17T22:43:59.287Z,,,,1,-0.0051046740562181,0.0178832721027728,,0.04,true,lh,7057.066999976174,response,-0.8779374983479176,0.8813372377741239,-0.8827619337029636,0.9745548032823428,1.0720254265522327,-0.9811001963070373,low,high,,ISIC_9545819.JPG,9,ISIC_2991354.JPG,25,false,0.20000000000000007,lh,keypress(e),0,false,910556.8000000119,910556.3999999762,903482.676,903693.6999999881,903499.333,910366.006,4,500,12,
break,html.Screen,10_11_1,2023-11-17T22:43:59.288Z,,,,,,,,,,,NaN,,,,,,,,low,high,,,,,,false,,,,,false,910557.8000000119,910557.5999999642,,910557.0999999642,,910366.006,4,500,,
break_continue,html.Screen,10_11_2,2023-11-17T22:43:59.289Z,,,,,,,,,,,NaN,,,,,,,,low,high,,,,,,false,,,,,false,910558.3000000119,910558.0999999642,,910558,,910366.006,4,500,,
sequence,flow.Sequence,10_11,2023-11-17T22:43:59.289Z,,,,,,,,,,,7058.766999964253,completion,,,,,,,low,high,,,,,,false,,,,,false,910558.5,910558.0999999642,903482.676,903693.5999999642,903499.333,910366.006,4,500,,
trial,html.Screen,10_12_0,2023-11-17T22:44:06.862Z,,,,1,-0.0367218428225813,0.0026956749740767,,0.04,false,hl,7765.493999999948,response,0.8620516892494489,0.8813372377741239,-0.8827619337029636,-1.1108509340502866,1.0720254265522327,-0.9811001963070373,high,low,,ISIC_7212271.JPG,9,ISIC_5557806.JPG,25,false,0.16000000000000003,hh,keypress(i),0,false,918131.8000000119,918131.5,910349.533,910558.6999999881,910366.006,917949.751,4,500,13,
break,html.Screen,10_12_1,2023-11-17T22:44:06.863Z,,,,,,,,,,,NaN,,,,,,,,high,low,,,,,,false,,,,,false,918132.8000000119,918132.5999999642,,918132.0999999642,,917949.751,4,500,,
break_continue,html.Screen,10_12_2,2023-11-17T22:44:06.864Z,,,,,,,,,,,NaN,,,,,,,,high,low,,,,,,false,,,,,false,918133.3999999762,918133.0999999642,,918132.8999999762,,917949.751,4,500,,
sequence,flow.Sequence,10_12,2023-11-17T22:44:06.864Z,,,,,,,,,,,7767.093999964185,completion,,,,,,,high,low,,,,,,false,,,,,false,918133.5999999642,918133.0999999642,910349.533,910558.6999999881,910366.006,917949.751,4,500,,
trial,html.Screen,10_13_0,2023-11-17T22:44:13.167Z,,,,1,0.0118555311043871,0.0087774532070196,,0.04,true,hh,6486.2489999999525,response,0.905313139676194,0.8813372377741239,-0.8827619337029636,0.9966583050703528,1.0720254265522327,-0.9811001963070373,high,high,,ISIC_6488658.JPG,10,ISIC_0070342.JPG,37,false,0.1,hh,keypress(i),0,false,924436.1999999881,924436,917916.074,918133.8000000119,917949.751,924249.446,4,500,14,
break,html.Screen,10_13_1,2023-11-17T22:44:13.168Z,,,,,,,,,,,NaN,,,,,,,,high,high,,,,,,false,,,,,false,924437.0999999642,924436.8999999762,,924436.5,,924249.446,4,500,,
break_continue,html.Screen,10_13_2,2023-11-17T22:44:13.168Z,,,,,,,,,,,NaN,,,,,,,,high,high,,,,,,false,,,,,false,924437.6999999881,924437.3999999762,,924437.1999999881,,924249.446,4,500,,
sequence,flow.Sequence,10_13,2023-11-17T22:44:13.168Z,,,,,,,,,,,6487.648999976111,completion,,,,,,,high,high,,,,,,false,,,,,false,924437.8999999762,924437.3999999762,917916.074,918133.6999999881,917949.751,924249.446,4,500,,
trial,html.Screen,10_14_0,2023-11-17T22:44:19.206Z,,,,1,0.0023664502831079,0.0252784582169994,,0.04,false,ll,6226.153999964241,response,-0.8191491070125395,0.8813372377741239,-0.8827619337029636,-0.9768428530424166,1.0720254265522327,-0.9811001963070373,low,low,,ISIC_4156010.JPG,9,ISIC_2565986.JPG,38,false,0.1,hh,keypress(i),0,false,930475.8000000119,930475.5999999642,924232.653,924438,924249.446,930282.617,4,500,15,
break,html.Screen,10_14_1,2023-11-17T22:44:19.207Z,,,,,,,,,,,NaN,,,,,,,,low,low,,,,,,false,,,,,false,930476.6999999881,930476.5999999642,,930476.1999999881,,930282.617,4,500,,
break_continue,html.Screen,10_14_2,2023-11-17T22:44:19.208Z,,,,,,,,,,,NaN,,,,,,,,low,low,,,,,,false,,,,,false,930477.1999999881,930477.0999999642,,930476.8999999762,,930282.617,4,500,,
sequence,flow.Sequence,10_14,2023-11-17T22:44:19.208Z,,,,,,,,,,,6227.653999964241,completion,,,,,,,low,low,,,,,,false,,,,,false,930477.5,930477.0999999642,924232.653,924438,924249.446,930282.617,4,500,,
trial,html.Screen,10_15_0,2023-11-17T22:44:23.550Z,,,,1,-0.010035581303589,0.0100711721396864,,0.04,true,hl,4536.782999976189,response,0.7770090828713646,0.8813372377741239,-0.8827619337029636,-0.8312841515328998,1.0720254265522327,-0.9811001963070373,high,low,,ISIC_0030592.JPG,9,ISIC_9072034.JPG,25,false,0.16000000000000003,hl,keypress(j),0,false,934819.5999999642,934819.3999999762,930266.114,930477.5999999642,930282.617,934632.678,4,500,16,
break,html.Screen,10_15_1,2023-11-17T22:44:23.551Z,,,,,,,,,,,NaN,,,,,,,,high,low,,,,,,false,,,,,false,934820.6999999881,934820.3999999762,,934820,,934632.678,4,500,,
break_continue,html.Screen,10_15_2,2023-11-17T22:44:23.552Z,,,,,,,,,,,NaN,,,,,,,,high,low,,,,,,false,,,,,false,934821.1999999881,934821,,934820.8000000119,,934632.678,4,500,,
sequence,flow.Sequence,10_15,2023-11-17T22:44:23.552Z,,,,,,,,,,,4538.383000000031,completion,,,,,,,high,low,,,,,,false,,,,,false,934821.3999999762,934821,930266.114,930477.5999999642,930282.617,934632.678,4,500,,
trial,html.Screen,10_16_0,2023-11-17T22:44:30.918Z,,,,1,0.0057914759495055,-0.018500200317654,,0.04,true,hh,7554.822000000044,response,0.9314347560281744,0.8813372377741239,-0.8827619337029636,1.134138732207607,1.0720254265522327,-0.9811001963070373,high,high,,ISIC_0058723.JPG,9,ISIC_0056660.JPG,37,false,0.1,hh,keypress(i),0,false,942187.8999999762,942187.5,934616.2,934821.5999999642,934632.678,941999.245,4,500,17,
break,html.Screen,10_16_1,2023-11-17T22:44:30.919Z,,,,,,,,,,,NaN,,,,,,,,high,high,,,,,,false,,,,,false,942188.8000000119,942188.5,,942188.1999999881,,941999.245,4,500,,
break_continue,html.Screen,10_16_2,2023-11-17T22:44:30.920Z,,,,,,,,,,,NaN,,,,,,,,high,high,,,,,,false,,,,,false,942189.3999999762,942189.1999999881,,942189.0999999642,,941999.245,4,500,,
sequence,flow.Sequence,10_16,2023-11-17T22:44:30.920Z,,,,,,,,,,,7556.521999988123,completion,,,,,,,high,high,,,,,,false,,,,,false,942189.6999999881,942189.1999999881,934616.2,934821.5,934632.678,941999.245,4,500,,
trial,html.Screen,10_17_0,2023-11-17T22:44:37.302Z,,,,1,0.0023664502831079,0.0252784582169994,,0.04,false,hl,6572.354999964242,response,0.7468996036626098,0.8813372377741239,-0.8827619337029636,-1.0079605779898853,1.0720254265522327,-0.9811001963070373,high,low,,ISIC_4156010.JPG,9,ISIC_5335139.JPG,25,false,0.16000000000000003,hh,keypress(i),0,false,948571.8999999762,948571.5999999642,941982.787,942189.8999999762,941999.245,948382.554,4,500,18,
break,html.Screen,10_17_1,2023-11-17T22:44:37.303Z,,,,,,,,,,,NaN,,,,,,,,high,low,,,,,,false,,,,,false,948572.8999999762,948572.5999999642,,948572.3000000119,,948382.554,4,500,,
break_continue,html.Screen,10_17_2,2023-11-17T22:44:37.304Z,,,,,,,,,,,NaN,,,,,,,,high,low,,,,,,false,,,,,false,948573.5999999642,948573.3999999762,,948573.0999999642,,948382.554,4,500,,
sequence,flow.Sequence,10_17,2023-11-17T22:44:37.304Z,,,,,,,,,,,6574.154999976163,completion,,,,,,,high,low,,,,,,false,,,,,false,948573.8000000119,948573.3999999762,941982.787,942189.8000000119,941999.245,948382.554,4,500,,
trial,html.Screen,10_18_0,2023-11-17T22:44:41.783Z,,,,1,-0.0051046740562181,0.0178832721027728,,0.04,true,lh,4669.145999988075,response,-0.7133243033950115,0.8813372377741239,-0.8827619337029636,1.0307816252475666,1.0720254265522327,-0.9811001963070373,low,high,,ISIC_9545819.JPG,9,ISIC_1369273.JPG,25,false,0.20000000000000007,lh,keypress(e),0,false,953052,953051.6999999881,948366.041,948574,948382.554,952866.031,4,500,19,
break,html.Screen,10_18_1,2023-11-17T22:44:41.783Z,,,,,,,,,,,NaN,,,,,,,,low,high,,,,,,false,,,,,false,953052.8000000119,953052.5999999642,,953052.3000000119,,952866.031,4,500,,
break_continue,html.Screen,10_18_2,2023-11-17T22:44:41.784Z,,,,,,,,,,,NaN,,,,,,,,low,high,,,,,,false,,,,,false,953053.3999999762,953053.1999999881,,953053,,952866.031,4,500,,
sequence,flow.Sequence,10_18,2023-11-17T22:44:41.784Z,,,,,,,,,,,4670.645999988075,completion,,,,,,,low,high,,,,,,false,,,,,false,953053.5999999642,953053.1999999881,948366.041,948574,948382.554,952866.031,4,500,,
trial,html.Screen,10_19_0,2023-11-17T22:44:48.399Z,,,,1,-0.0063515208248796,-0.0194177605767913,,0.04,true,hl,6801.66899998812,response,0.7368905194906678,0.8813372377741239,-0.8827619337029636,-0.8863051738178956,1.0720254265522327,-0.9811001963070373,high,low,,ISIC_5281908.JPG,8,ISIC_8001757.JPG,25,false,0.16000000000000003,hl,keypress(j),0,false,959668,959667.6999999881,952849.346,953053.8000000119,952866.031,959482.52,4,500,20,
break,html.Screen,10_19_1,2023-11-17T22:44:48.400Z,,,,,,,,,,,NaN,,,,,,,,high,low,,,,,,false,,,,,false,959669,959668.6999999881,,959668.3000000119,,959482.52,4,500,,
break_continue,html.Screen,10_19_2,2023-11-17T22:44:48.400Z,,,,,,,,,,,NaN,,,,,,,,high,low,,,,,,false,,,,,false,959669.5999999642,959669.3999999762,,959669.1999999881,,959482.52,4,500,,
sequence,flow.Sequence,10_19,2023-11-17T22:44:48.400Z,,,,,,,,,,,6803.368999976199,completion,,,,,,,high,low,,,,,,false,,,,,false,959669.8000000119,959669.3999999762,952849.346,953053.6999999881,952866.031,959482.52,4,500,,
trial,html.Screen,10_20_0,2023-11-17T22:44:54.038Z,,,,1,-0.0367218428225813,0.0026956749740767,,0.04,false,lh,5825.079999964219,response,-0.8152354890677903,0.8813372377741239,-0.8827619337029636,1.10470584815077,1.0720254265522327,-0.9811001963070373,low,high,,ISIC_7212271.JPG,9,ISIC_0010283.JPG,25,false,0.20000000000000007,hh,keypress(i),0,false,965307.8000000119,965307.5999999642,959466.083,959670,959482.52,965115.836,4,500,21,
break,html.Screen,10_20_1,2023-11-17T22:44:54.039Z,,,,,,,,,,,NaN,,,,,,,,low,high,,,,,,false,,,,,false,965308.5,965308.3000000119,,965308,,965115.836,4,500,,
break_continue,html.Screen,10_20_2,2023-11-17T22:44:54.039Z,,,,,,,,,,,NaN,,,,,,,,low,high,,,,,,false,,,,,false,965309,965308.8000000119,,965308.6999999881,,965115.836,4,500,,
sequence,flow.Sequence,10_20,2023-11-17T22:44:54.040Z,,,,,,,,,,,5826.280000011902,completion,,,,,,,low,high,,,,,,false,,,,,false,965309.0999999642,965308.8000000119,959466.083,959670,959482.52,965115.836,4,500,,
trial,html.Screen,10_21_0,2023-11-17T22:44:59.136Z,,,,1,-0.0127320821962457,0.0315308940184827,,0.04,true,hh,5287.66399999999,response,0.7916641003387539,0.8813372377741239,-0.8827619337029636,1.035069030839197,1.0720254265522327,-0.9811001963070373,high,high,,ISIC_8156101.JPG,9,ISIC_0069635.JPG,37,false,0.1,hh,keypress(i),0,false,970403.8000000119,970403.5,965099.345,965309.1999999881,965115.836,970215.884,4,500,22,
break,html.Screen,10_21_1,2023-11-17T22:44:59.136Z,,,,,,,,,,,NaN,,,,,,,,high,high,,,,,,false,,,,,false,970404.6999999881,970404.5,,970404.0999999642,,970215.884,4,500,,
break_continue,html.Screen,10_21_2,2023-11-17T22:44:59.137Z,,,,,,,,,,,NaN,,,,,,,,high,high,,,,,,false,,,,,false,970405.1999999881,970405.0999999642,,970404.8999999762,,970215.884,4,500,,
sequence,flow.Sequence,10_21,2023-11-17T22:44:59.137Z,,,,,,,,,,,5289.263999964227,completion,,,,,,,high,high,,,,,,false,,,,,false,970405.3999999762,970405.0999999642,965099.345,965309.1999999881,965115.836,970215.884,4,500,,
trial,html.Screen,10_22_0,2023-11-17T22:45:02.448Z,,,,1,0.0060918352854008,-0.029032683404407,,0.04,true,hh,3499.616000000038,response,0.8970039097647139,0.8813372377741239,-0.8827619337029636,0.9775899280745278,1.0720254265522327,-0.9811001963070373,high,high,,ISIC_8436194.JPG,9,ISIC_0024449.JPG,37,false,0.1,hh,keypress(i),0,false,973715.8000000119,973715.5,970199.334,970405.5999999642,970215.884,973549.188,4,500,23,
break,html.Screen,10_22_1,2023-11-17T22:45:02.449Z,,,,,,,,,,,NaN,,,,,,,,high,high,,,,,,false,,,,,false,973716.6999999881,973716.5,,973716.0999999642,,973549.188,4,500,,
break_continue,html.Screen,10_22_2,2023-11-17T22:45:02.449Z,,,,,,,,,,,NaN,,,,,,,,high,high,,,,,,false,,,,,false,973717.3000000119,973717.0999999642,,973716.8999999762,,973549.188,4,500,,
sequence,flow.Sequence,10_22,2023-11-17T22:45:02.449Z,,,,,,,,,,,3501.2159999642754,completion,,,,,,,high,high,,,,,,false,,,,,false,973717.5,973717.0999999642,970199.334,970405.5999999642,970215.884,973549.188,4,500,,
trial,html.Screen,10_23_0,2023-11-17T22:45:06.328Z,,,,1,0.0077673378094614,0.0021810768579373,,0.04,true,ll,4047.0119999881135,response,-0.8299201784919694,0.8813372377741239,-0.8827619337029636,-0.9555257680008306,1.0720254265522327,-0.9811001963070373,low,low,,ISIC_0067621.JPG,10,ISIC_6937199.JPG,38,false,0.1,ll,keypress(f),0,false,977596.3999999762,977596.1999999881,973532.648,973717.6999999881,973549.188,977399.22,4,500,24,
break,html.Screen,10_23_1,2023-11-17T22:45:06.329Z,,,,,,,,,,,NaN,,,,,,,,low,low,,,,,,false,,,,,false,977597.3999999762,977597.0999999642,,977596.6999999881,,977399.22,4,500,,
break_continue,html.Screen,10_23_2,2023-11-17T22:45:06.330Z,,,,,,,,,,,NaN,,,,,,,,low,low,,,,,,false,,,,,false,977598,977597.8000000119,,977597.5999999642,,977399.22,4,500,,
sequence,flow.Sequence,10_23,2023-11-17T22:45:06.330Z,,,,,,,,,,,4048.6120000119554,completion,,,,,,,low,low,,,,,,false,,,,,false,977598.1999999881,977597.8000000119,973532.648,973717.6999999881,973549.188,977399.22,4,500,,
trial,html.Screen,10_24_0,2023-11-17T22:45:11.303Z,,,,1,-0.0367218428225813,0.0026956749740767,,0.04,false,lh,5171.679999976186,response,-0.8069562753553525,0.8813372377741239,-0.8827619337029636,0.9101764190105358,1.0720254265522327,-0.9811001963070373,low,high,,ISIC_7212271.JPG,8,ISIC_0046596.JPG,25,false,0.20000000000000007,hh,keypress(i),0,false,982571,982570.8999999762,977382.672,977598.3999999762,977399.22,982382.448,4,500,25,
break,html.Screen,10_24_1,2023-11-17T22:45:11.304Z,,,,,,,,,,,NaN,,,,,,,,low,high,,,,,,false,,,,,false,982571.6999999881,982571.5999999642,,982571.1999999881,,982382.448,4,500,,
break_continue,html.Screen,10_24_2,2023-11-17T22:45:11.304Z,,,,,,,,,,,NaN,,,,,,,,low,high,,,,,,false,,,,,false,982572.0999999642,982572,,982571.8000000119,,982382.448,4,500,,
sequence,flow.Sequence,10_24,2023-11-17T22:45:11.304Z,,,,,,,,,,,5172.780000000028,completion,,,,,,,low,high,,,,,,false,,,,,false,982572.3000000119,982572,977382.672,977598.3999999762,977399.22,982382.448,4,500,,
trial,html.Screen,10_25_0,2023-11-17T22:45:16.247Z,,,,1,0.0166849894750452,-0.0371614812368835,,0.04,false,hl,5132.852000011946,response,0.7427462594865504,0.8813372377741239,-0.8827619337029636,-0.8227092439521284,1.0720254265522327,-0.9811001963070373,high,low,,ISIC_6231450.JPG,9,ISIC_2681497.JPG,25,false,0.16000000000000003,ll,keypress(f),0,false,987515.5,987515.3000000119,982365.966,982572.3000000119,982382.448,987332.706,4,500,26,
break,html.Screen,10_25_1,2023-11-17T22:45:16.248Z,,,,,,,,,,,NaN,,,,,,,,high,low,,,,,,false,,,,,false,987516.3999999762,987516.1999999881,,987515.6999999881,,987332.706,4,500,,
break_continue,html.Screen,10_25_2,2023-11-17T22:45:16.249Z,,,,,,,,,,,NaN,,,,,,,,high,low,,,,,,false,,,,,false,987516.8999999762,987516.6999999881,,987516.5,,987332.706,4,500,,
sequence,flow.Sequence,10_25,2023-11-17T22:45:16.249Z,,,,,,,,,,,5134.251999988104,completion,,,,,,,high,low,,,,,,false,,,,,false,987517,987516.6999999881,982365.966,982572.3000000119,982382.448,987332.706,4,500,,
trial,html.Screen,10_26_0,2023-11-17T22:45:22.993Z,,,,1,-0.0361875505619981,0.0291457404567876,,0.04,true,hl,6927.893999964232,response,0.8181754542205604,0.8813372377741239,-0.8827619337029636,-0.8285141543298179,1.0720254265522327,-0.9811001963070373,high,low,,ISIC_0027480.JPG,10,ISIC_3812485.JPG,25,false,0.16000000000000003,hl,keypress(j),0,false,994261,994260.5999999642,987299.273,987517.1999999881,987332.706,994065.751,4,500,27,
break,html.Screen,10_26_1,2023-11-17T22:45:22.994Z,,,,,,,,,,,NaN,,,,,,,,high,low,,,,,,false,,,,,false,994261.8999999762,994261.6999999881,,994261.3000000119,,994065.751,4,500,,
break_continue,html.Screen,10_26_2,2023-11-17T22:45:22.994Z,,,,,,,,,,,NaN,,,,,,,,high,low,,,,,,false,,,,,false,994262.3999999762,994262.1999999881,,994262,,994065.751,4,500,,
sequence,flow.Sequence,10_26,2023-11-17T22:45:22.994Z,,,,,,,,,,,6929.4939999880735,completion,,,,,,,high,low,,,,,,false,,,,,false,994262.5999999642,994262.1999999881,987299.273,987517.1999999881,987332.706,994065.751,4,500,,
trial,html.Screen,10_27_0,2023-11-17T22:45:31.967Z,,,,1,0.0166849894750452,-0.0371614812368835,,0.04,false,lh,9169.448999988032,response,-0.8069562753553525,0.8813372377741239,-0.8827619337029636,0.9101764190105358,1.0720254265522327,-0.9811001963070373,low,high,,ISIC_6231450.JPG,8,ISIC_0046596.JPG,25,false,0.20000000000000007,hl,keypress(j),0,false,1003235.5,1003235.1999999881,994049.322,994262.8000000119,994065.751,1003049.235,4,500,28,
break,html.Screen,10_27_1,2023-11-17T22:45:31.968Z,,,,,,,,,,,NaN,,,,,,,,low,high,,,,,,false,,,,,false,1003236.3999999762,1003236.1999999881,,1003235.8000000119,,1003049.235,4,500,,
break_continue,html.Screen,10_27_2,2023-11-17T22:45:31.969Z,,,,,,,,,,,NaN,,,,,,,,low,high,,,,,,false,,,,,false,1003236.8999999762,1003236.6999999881,,1003236.5,,1003049.235,4,500,,
sequence,flow.Sequence,10_27,2023-11-17T22:45:31.969Z,,,,,,,,,,,9170.948999988032,completion,,,,,,,low,high,,,,,,false,,,,,false,1003237,1003236.6999999881,994049.322,994262.8000000119,994065.751,1003049.235,4,500,,
trial,html.Screen,10_28_0,2023-11-17T22:45:40.576Z,,,,1,0.0350697500805515,0.0166617848231997,,0.04,false,ll,8794.265000000014,response,-0.7848333827448511,0.8813372377741239,-0.8827619337029636,-0.9557254346276748,1.0720254265522327,-0.9811001963070373,low,low,,ISIC_0024423.JPG,9,ISIC_6778515.JPG,38,false,0.1,hl,keypress(j),0,false,1011843.6999999881,1011843.5,1003032.47,1003237.3000000119,1003049.235,1011649.058,4,500,29,
break,html.Screen,10_28_1,2023-11-17T22:45:40.576Z,,,,,,,,,,,NaN,,,,,,,,low,low,,,,,,false,,,,,false,1011844.6999999881,1011844.3999999762,,1011844.0999999642,,1011649.058,4,500,,
break_continue,html.Screen,10_28_2,2023-11-17T22:45:40.577Z,,,,,,,,,,,NaN,,,,,,,,low,low,,,,,,false,,,,,false,1011845.1999999881,1011845,,1011844.8000000119,,1011649.058,4,500,,
sequence,flow.Sequence,10_28,2023-11-17T22:45:40.577Z,,,,,,,,,,,8795.765000000014,completion,,,,,,,low,low,,,,,,false,,,,,false,1011845.3999999762,1011845,1003032.47,1003237.1999999881,1003049.235,1011649.058,4,500,,
trial,html.Screen,10_29_0,2023-11-17T22:45:47.104Z,,,,1,-0.0321039635696159,-0.020496766286318,,0.04,true,hh,6722.541999964276,response,0.8345681746897251,0.8813372377741239,-0.8827619337029636,1.0727296565951878,1.0720254265522327,-0.9811001963070373,high,high,,ISIC_0058063.JPG,9,ISIC_0032531.JPG,37,false,0.1,hh,keypress(i),0,false,1018371.8999999762,1018371.5999999642,1011632.248,1011845.5999999642,1011649.058,1018182.361,4,500,30,
break,html.Screen,10_29_1,2023-11-17T22:45:47.105Z,,,,,,,,,,,NaN,,,,,,,,high,high,,,,,,false,,,,,false,1018372.8999999762,1018372.5999999642,,1018372.3000000119,,1018182.361,4,500,,
break_continue,html.Screen,10_29_2,2023-11-17T22:45:47.105Z,,,,,,,,,,,NaN,,,,,,,,high,high,,,,,,false,,,,,false,1018373.5,1018373.3000000119,,1018373,,1018182.361,4,500,,
sequence,flow.Sequence,10_29,2023-11-17T22:45:47.106Z,,,,,,,,,,,6724.24200001196,completion,,,,,,,high,high,,,,,,false,,,,,false,1018373.6999999881,1018373.3000000119,1011632.248,1011845.5999999642,1011649.058,1018182.361,4,500,,
trial,html.Screen,10_30_0,2023-11-17T22:45:53.104Z,,,,1,0.0050679133050021,0.0174815595031679,,0.04,false,hh,6189.8389999880455,response,0.8617273148568415,0.8813372377741239,-0.8827619337029636,1.1394683921871485,1.0720254265522327,-0.9811001963070373,high,high,,ISIC_9848743.JPG,8,ISIC_0000287.JPG,37,false,0.1,hl,keypress(j),0,false,1024372.5,1024372.1999999881,1018165.767,1018373.8999999762,1018182.361,1024182.349,4,500,31,
break,html.Screen,10_30_1,2023-11-17T22:45:53.105Z,,,,,,,,,,,NaN,,,,,,,,high,high,,,,,,false,,,,,false,1024373.5,1024373.3000000119,,1024372.8000000119,,1024182.349,4,500,,
break_continue,html.Screen,10_30_2,2023-11-17T22:45:53.106Z,,,,,,,,,,,NaN,,,,,,,,high,high,,,,,,false,,,,,false,1024374.0999999642,1024373.8999999762,,1024373.6999999881,,1024182.349,4,500,,
sequence,flow.Sequence,10_30,2023-11-17T22:45:53.106Z,,,,,,,,,,,6191.538999976125,completion,,,,,,,high,high,,,,,,false,,,,,false,1024374.3999999762,1024373.8999999762,1018165.767,1018373.8999999762,1018182.361,1024182.349,4,500,,
trial,html.Screen,10_31_0,2023-11-17T22:45:56.560Z,,,,1,-0.0367218428225813,0.0026956749740767,,0.04,true,hl,3645.9510000118753,response,0.7753299102004093,0.8813372377741239,-0.8827619337029636,-1.053851019509641,1.0720254265522327,-0.9811001963070373,high,low,,ISIC_7212271.JPG,9,ISIC_9511832.JPG,25,false,0.16000000000000003,hl,keypress(j),0,false,1027828.5,1027828.3000000119,1024165.729,1024374.5999999642,1024182.349,1027632.35,4,500,32,
break,html.Screen,10_31_1,2023-11-17T22:45:56.561Z,,,,,,,,,,,NaN,,,,,,,,high,low,,,,,,false,,,,,false,1027829.5,1027829.1999999881,,1027828.8000000119,,1027632.35,4,500,,
break_continue,html.Screen,10_31_2,2023-11-17T22:45:56.562Z,,,,,,,,,,,NaN,,,,,,,,high,low,,,,,,false,,,,,false,1027830,1027829.8999999762,,1027829.6999999881,,1027632.35,4,500,,
sequence,flow.Sequence,10_31,2023-11-17T22:45:56.562Z,,,,,,,,,,,3647.5509999761125,completion,,,,,,,high,low,,,,,,false,,,,,false,1027830.3000000119,1027829.8999999762,1024165.729,1024374.5,1024182.349,1027632.35,4,500,,
trial,html.Screen,10_32_0,2023-11-17T22:46:01.369Z,,,,1,0.0399381815506136,0.0177751789152893,,0.04,true,hh,5003.7499999642605,response,0.9314347560281744,0.8813372377741239,-0.8827619337029636,1.134138732207607,1.0720254265522327,-0.9811001963070373,high,high,,ISIC_3981425.JPG,9,ISIC_0056660.JPG,37,false,0.1,hh,keypress(i),0,false,1032636.3000000119,1032636.0999999642,1027615.801,1027830.3999999762,1027632.35,1032449.222,4,500,33,
break,html.Screen,10_32_1,2023-11-17T22:46:01.370Z,,,,,,,,,,,NaN,,,,,,,,high,high,,,,,,false,,,,,false,1032637.3000000119,1032637,,1032636.6999999881,,1032449.222,4,500,,
break_continue,html.Screen,10_32_2,2023-11-17T22:46:01.371Z,,,,,,,,,,,NaN,,,,,,,,high,high,,,,,,false,,,,,false,1032637.8000000119,1032637.6999999881,,1032637.5,,1032449.222,4,500,,
sequence,flow.Sequence,10_32,2023-11-17T22:46:01.371Z,,,,,,,,,,,5005.349999988102,completion,,,,,,,high,high,,,,,,false,,,,,false,1032638.0999999642,1032637.6999999881,1027615.801,1027830.3999999762,1027632.35,1032449.222,4,500,,
trial,html.Screen,10_33_0,2023-11-17T22:46:05.928Z,,,,1,0.0077673378094614,0.0021810768579373,,0.04,true,hh,4745.477999988128,response,0.8667223452789944,0.8813372377741239,-0.8827619337029636,1.08062537708245,1.0720254265522327,-0.9811001963070373,high,high,,ISIC_0067621.JPG,9,ISIC_0070032.JPG,37,false,0.1,hh,keypress(i),0,false,1037194.6999999881,1037194.6999999881,1032432.392,1032638.3000000119,1032449.222,1036998.997,4,500,34,
break,html.Screen,10_33_1,2023-11-17T22:46:05.928Z,,,,,,,,,,,NaN,,,,,,,,high,high,,,,,,false,,,,,false,1037195.0999999642,1037195,,1037194.8999999762,,1036998.997,4,500,,
break_continue,html.Screen,10_33_2,2023-11-17T22:46:05.928Z,,,,,,,,,,,NaN,,,,,,,,high,high,,,,,,false,,,,,false,1037195.1999999881,1037195.1999999881,,1037195.0999999642,,1036998.997,4,500,,
sequence,flow.Sequence,10_33,2023-11-17T22:46:05.928Z,,,,,,,,,,,4745.977999988128,completion,,,,,,,high,high,,,,,,false,,,,,false,1037195.3000000119,1037195.1999999881,1032432.392,1032638.3000000119,1032449.222,1036998.997,4,500,,
trial,html.Screen,10_34_0,2023-11-17T22:46:09.967Z,,,,1,0.0060934073440827,0.0279108145883031,,0.04,false,lh,4234.402999976184,response,-0.7622914383475332,0.8813372377741239,-0.8827619337029636,0.8883896910883083,1.0720254265522327,-0.9811001963070373,low,high,,ISIC_0032604.JPG,9,ISIC_0032005.JPG,25,false,0.20000000000000007,ll,keypress(f),0,false,1041233.3999999762,1041233.3999999762,1036982.447,1037195.3999999762,1036998.997,1041048.966,4,500,35,
break,html.Screen,10_34_1,2023-11-17T22:46:09.967Z,,,,,,,,,,,NaN,,,,,,,,low,high,,,,,,false,,,,,false,1041233.8999999762,1041233.6999999881,,1041233.5,,1041048.966,4,500,,
break_continue,html.Screen,10_34_2,2023-11-17T22:46:09.967Z,,,,,,,,,,,NaN,,,,,,,,low,high,,,,,,false,,,,,false,1041234.0999999642,1041234.0999999642,,1041234,,1041048.966,4,500,,
sequence,flow.Sequence,10_34,2023-11-17T22:46:09.967Z,,,,,,,,,,,4235.102999964263,completion,,,,,,,low,high,,,,,,false,,,,,false,1041234.1999999881,1041234.0999999642,1036982.447,1037195.3999999762,1036998.997,1041048.966,4,500,,
trial,html.Screen,10_35_0,2023-11-17T22:46:14.024Z,,,,1,-0.0127320821962457,0.0315308940184827,,0.04,true,hh,4242.033999999985,response,0.9106525024234248,0.8813372377741239,-0.8827619337029636,1.0361692964751965,1.0720254265522327,-0.9811001963070373,high,high,,ISIC_8156101.JPG,8,ISIC_0058676.JPG,37,false,0.1,hh,keypress(i),0,false,1045291.3000000119,1045291,1041032.468,1041234.3000000119,1041048.966,1045099.04,4,500,36,
break,html.Screen,10_35_1,2023-11-17T22:46:14.025Z,,,,,,,,,,,NaN,,,,,,,,high,high,,,,,,false,,,,,false,1045292.0999999642,1045291.8999999762,,1045291.5999999642,,1045099.04,4,500,,
break_continue,html.Screen,10_35_2,2023-11-17T22:46:14.026Z,,,,,,,,,,,NaN,,,,,,,,high,high,,,,,,false,,,,,false,1045292.5999999642,1045292.3999999762,,1045292.1999999881,,1045099.04,4,500,,
sequence,flow.Sequence,10_35,2023-11-17T22:46:14.026Z,,,,,,,,,,,4243.433999976143,completion,,,,,,,high,high,,,,,,false,,,,,false,1045292.8999999762,1045292.3999999762,1041032.468,1041234.3000000119,1041048.966,1045099.04,4,500,,
trial,html.Screen,10_36_0,2023-11-17T22:46:20.952Z,,,,1,0.012810673904807,-0.00400964452501,,0.04,false,hh,7119.359999976121,response,0.968277930473984,0.8813372377741239,-0.8827619337029636,1.0901346674420178,1.0720254265522327,-0.9811001963070373,high,high,,ISIC_0064656.JPG,9,ISIC_0519386.JPG,37,false,0.1,ll,keypress(f),0,false,1052218.5,1052218.3999999762,1045082.43,1045292.8999999762,1045099.04,1052032.384,4,500,37,
break,html.Screen,10_36_1,2023-11-17T22:46:20.952Z,,,,,,,,,,,NaN,,,,,,,,high,high,,,,,,false,,,,,false,1052218.800000012,1052218.800000012,,1052218.5999999642,,1052032.384,4,500,,
break_continue,html.Screen,10_36_2,2023-11-17T22:46:20.952Z,,,,,,,,,,,NaN,,,,,,,,high,high,,,,,,false,,,,,false,1052219,1052219,,1052219,,1052032.384,4,500,,
sequence,flow.Sequence,10_36,2023-11-17T22:46:20.952Z,,,,,,,,,,,7119.959999999963,completion,,,,,,,high,high,,,,,,false,,,,,false,1052219.0999999642,1052219,1045082.43,1045292.8999999762,1045099.04,1052032.384,4,500,,
trial,html.Screen,10_37_0,2023-11-17T22:46:29.650Z,,,,1,0.0050679133050021,0.0174815595031679,,0.04,true,hh,8883.815999988,response,0.905313139676194,0.8813372377741239,-0.8827619337029636,0.9966583050703528,1.0720254265522327,-0.9811001963070373,high,high,,ISIC_9848743.JPG,8,ISIC_0070342.JPG,37,false,0.1,hh,keypress(i),0,false,1060916.3999999762,1060916.199999988,1052015.857,1052219.0999999642,1052032.384,1060732.447,4,500,38,
break,html.Screen,10_37_1,2023-11-17T22:46:29.651Z,,,,,,,,,,,NaN,,,,,,,,high,high,,,,,,false,,,,,false,1060917.3999999762,1060917.199999988,,1060916.800000012,,1060732.447,4,500,,
break_continue,html.Screen,10_37_2,2023-11-17T22:46:29.651Z,,,,,,,,,,,NaN,,,,,,,,high,high,,,,,,false,,,,,false,1060918,1060917.699999988,,1060917.5999999642,,1060732.447,4,500,,
sequence,flow.Sequence,10_37,2023-11-17T22:46:29.651Z,,,,,,,,,,,8885.315999988,completion,,,,,,,high,high,,,,,,false,,,,,false,1060918.199999988,1060917.699999988,1052015.857,1052219.0999999642,1052032.384,1060732.447,4,500,,
