sender,sender_type,sender_id,timestamp,meta,,age,blockNo,c1,c2,condition,control_tolerance,correct,correctResponse,duration,ended_on,f1,f1_high,f1_low,f2,f2_high,f2_low,feature_level1,feature_level2,gender,img_left,img_reveal,img_right,n_target_images,practice,range_tolerance,response,response_action,selection_duration,staircase,time_commit,time_end,time_render,time_run,time_show,time_switch,total_blocks,total_trials,trialNo,url
informed_consent,html.Screen,0,2023-11-17T16:31:34.937Z,"{""labjs_version"":""20.2.4"",""labjs_build"":{""flavor"":""development"",""commit"":""f5b4a49f956347addd546a832a3327688c2c0fef""},""location"":""https://labjs.felixhenninger.com/api/labjs_preview/index.html"",""userAgent"":""Mozilla/5.0 (Windows NT 10.0; Win64; x64) AppleWebKit/537.36 (KHTML, like Gecko) Chrome/119.0.0.0 Safari/537.36"",""platform"":""Win32"",""language"":""en-US"",""locale"":""en-US"",""timeZone"":""America/Chicago"",""timezoneOffset"":360,""screen_width"":1920,""screen_height"":1080,""scroll_width"":945,""scroll_height"":918,""window_innerWidth"":945,""window_innerHeight"":966,""devicePixelRatio"":1}",,,,,,,,,,21422.40799997616,response,,,,,,,,,,,,,,,,consent,click button,,,22255.399999976158,22247.399999976158,808.183,797.0999999940395,824.992,22262.957,,,,{}
Demography form,html.Form,1,2023-11-17T16:31:40.813Z,,,18,,,,,,,,5867.642999994041,form submission,,,,,,,,,male,,,,,,,,,,,28130.69999998808,28130.59999999404,22246.425,22255.69999998808,22262.957,28152.303,,,,
Welcome,html.Screen,2,2023-11-17T16:32:47.059Z,,,,,,,"[""asym"",""col""]",,,,66223.29699999404,response,,,,,,,,,,,,,,,,continue,click button,,,94376.19999998808,94375.59999999404,28135.561,28130.79999998212,28152.303,94385.202,,,,
demo_instructions,html.Screen,3,2023-11-17T16:33:31.443Z,,,,,,,,,,,44374.597999982114,response,,,,,,,,,,,,,,,,continue,click button,,,138760.39999997616,138759.79999998212,94368.6,94376.29999998212,94385.202,138796.28,,,,
trial,html.Screen,4_0_0,2023-11-17T16:33:38.092Z,,,,0,0.9212323139676136,-0.9882196642247332,,,true,lh,6612.819999994041,response,-0.8479396253253069,1.2,-1.2,1.011054319516718,1.2,-1.2,low,high,,ISIC_0014255.JPG,,ISIC_0063521.JPG,29,true,0.3600000000000002,lh,keypress(e),100,false,145409.39999997616,145409.09999999404,138746.463,138760.5,138796.28,145436.327,1,16,1,
sequence,flow.Sequence,4_0,2023-11-17T16:33:38.109Z,,,,,,,,,,,6612.819999994041,completion,,,,,,,low,high,,,,,,true,,,,,false,145426,145409.09999999404,138746.463,138760.5,138796.28,145436.327,1,16,,
trial,html.Screen,4_1_0,2023-11-17T16:33:42.352Z,,,,0,1.296989496412063,-1.1425074323097002,,,true,lh,4232.772999994049,response,-0.8479396253253069,1.2,-1.2,1.011054319516718,1.2,-1.2,low,high,,ISIC_6356803.JPG,,ISIC_0063521.JPG,29,true,0.3600000000000002,lh,keypress(e),100,false,149669.29999998212,149669.09999999404,145419.657,145426.09999999404,145436.327,149690.555,1,16,2,
sequence,flow.Sequence,4_1,2023-11-17T16:33:42.353Z,,,,,,,,,,,4232.772999994049,completion,,,,,,,low,high,,,,,,true,,,,,false,149669.69999998808,149669.09999999404,145419.657,145426.09999999404,145436.327,149690.555,1,16,,
trial,html.Screen,4_2_0,2023-11-17T16:33:47.688Z,,,,0,1.2609895831255231,-1.0687377724194886,,,true,lh,5313.744999982126,response,-0.8494721812820843,1.2,-1.2,1.3435429139974266,1.2,-1.2,low,high,,ISIC_1367610.JPG,,ISIC_0033585.JPG,29,true,0.3600000000000002,lh,keypress(e),100,false,155004.59999999404,155004.29999998212,149673.868,149669.89999997616,149690.555,155029.465,1,16,3,
sequence,flow.Sequence,4_2,2023-11-17T16:33:47.688Z,,,,,,,,,,,5313.744999982126,completion,,,,,,,low,high,,,,,,true,,,,,false,155004.89999997616,155004.29999998212,149673.868,149669.79999998212,149690.555,155029.465,1,16,,
trial,html.Screen,4_3_0,2023-11-17T16:33:51.098Z,,,,0,0.9225524349657857,-0.929746784178986,,,true,lh,3385.2349999880826,response,-1.2838089642212804,1.2,-1.2,0.8550527900640753,1.2,-1.2,low,high,,ISIC_0011077.JPG,,ISIC_0034187.JPG,29,true,0.3600000000000002,lh,keypress(e),100,false,158415,158414.69999998808,155012.579,155005,155029.465,158432.753,1,16,4,
sequence,flow.Sequence,4_3,2023-11-17T16:33:51.098Z,,,,,,,,,,,3385.2349999880826,completion,,,,,,,low,high,,,,,,true,,,,,false,158415.29999998212,158414.69999998808,155012.579,155005,155029.465,158432.753,1,16,,
trial,html.Screen,4_4_0,2023-11-17T16:33:54.767Z,,,,0,1.3034518282811869,1.0897657776277234,,,true,ll,3651.646999976161,response,-0.8789245418555859,1.2,-1.2,-1.207575413157872,1.2,-1.2,low,low,,ISIC_0071988.JPG,,ISIC_0001602.JPG,127,true,0.3300000000000002,ll,keypress(f),100,false,162084.5,162084.39999997616,158415.989,158415.5,158432.753,162103,1,16,5,
sequence,flow.Sequence,4_4,2023-11-17T16:33:54.768Z,,,,,,,,,,,3651.646999976161,completion,,,,,,,low,low,,,,,,true,,,,,false,162084.69999998808,162084.39999997616,158415.989,158415.39999997616,158432.753,162103,1,16,,
trial,html.Screen,4_5_0,2023-11-17T16:33:57.367Z,,,,0,1.2974483548597415,1.2071506593281005,,,true,ll,2580.5999999940395,response,-1.073296525451802,1.2,-1.2,-1.3454282740421717,1.2,-1.2,low,low,,ISIC_0011007.JPG,,ISIC_5787312.JPG,25,true,0.15000000000000002,ll,keypress(f),100,false,164683.69999998808,164683.59999999404,162086.288,162084.69999998808,162103,164705.597,1,16,6,
sequence,flow.Sequence,4_5,2023-11-17T16:33:57.367Z,,,,,,,,,,,2580.5999999940395,completion,,,,,,,low,low,,,,,,true,,,,,false,164683.89999997616,164683.59999999404,162086.288,162084.69999998808,162103,164705.597,1,16,,
trial,html.Screen,4_6_0,2023-11-17T16:34:00.203Z,,,,0,1.2059606637811695,1.214966446488752,,,true,ll,2814.5029999940307,response,-1.2714351764931109,1.2,-1.2,-1.0785174776187512,1.2,-1.2,low,low,,ISIC_0013334.JPG,,ISIC_2454898.JPG,25,true,0.15000000000000002,ll,keypress(f),100,false,167520.29999998212,167520.09999999404,164688.873,164684,164705.597,167542.016,1,16,7,
sequence,flow.Sequence,4_6,2023-11-17T16:34:00.204Z,,,,,,,,,,,2814.5029999940307,completion,,,,,,,low,low,,,,,,true,,,,,false,167520.69999998808,167520.09999999404,164688.873,164683.89999997616,164705.597,167542.016,1,16,,
trial,html.Screen,4_7_0,2023-11-17T16:34:05.736Z,,,,0,1.2872758518949912,1.313723254903214,,,true,ll,5510.783999982115,response,-1.053007132776416,1.2,-1.2,-1.341217082060068,1.2,-1.2,low,low,,ISIC_0064376.JPG,,ISIC_0024208.JPG,25,true,0.15000000000000002,ll,keypress(f),100,false,173052.89999997616,173052.79999998212,167525.073,167520.79999998212,167542.016,173080.628,1,16,8,
sequence,flow.Sequence,4_7,2023-11-17T16:34:05.736Z,,,,,,,,,,,5510.783999982115,completion,,,,,,,low,low,,,,,,true,,,,,false,173053.29999998212,173052.79999998212,167525.073,167520.79999998212,167542.016,173080.628,1,16,,
trial,html.Screen,4_8_0,2023-11-17T16:34:13.493Z,,,,0,-0.9385447468573198,1.2289860846064424,,,true,hl,7729.372000000003,response,0.9873794329144926,1.2,-1.2,-0.9500689037516484,1.2,-1.2,high,low,,ISIC_0032780.JPG,,ISIC_0013498.JPG,26,true,0.3300000000000002,hl,keypress(j),100,false,180810.19999998808,180810,173063.98,173053.39999997616,173080.628,180838.588,1,16,9,
sequence,flow.Sequence,4_8,2023-11-17T16:34:13.493Z,,,,,,,,,,,7729.372000000003,completion,,,,,,,high,low,,,,,,true,,,,,false,180810.39999997616,180810,173063.98,173053.39999997616,173080.628,180838.588,1,16,,
trial,html.Screen,4_9_0,2023-11-17T16:34:18.410Z,,,,0,-0.9013888878932071,0.9328095253308732,,,true,hl,4888.11199998809,response,1.052305774554686,1.2,-1.2,-1.3940181224717798,1.2,-1.2,high,low,,ISIC_0068259.JPG,,ISIC_4175400.JPG,33,true,0.3600000000000002,hl,keypress(j),100,false,185726.89999997616,185726.69999998808,180821.736,180810.5,180838.588,185743.369,1,16,10,
sequence,flow.Sequence,4_9,2023-11-17T16:34:18.410Z,,,,,,,,,,,4888.11199998809,completion,,,,,,,high,low,,,,,,true,,,,,false,185727.09999999404,185726.69999998808,180821.736,180810.5,180838.588,185743.369,1,16,,
trial,html.Screen,4_10_0,2023-11-17T16:34:21.300Z,,,,0,-0.9039158082670506,1.0517562064343149,,,true,hl,2873.2309999940335,response,0.8688859182707874,1.2,-1.2,-0.9566733172438716,1.2,-1.2,high,low,,ISIC_0015411.JPG,,ISIC_0640770.JPG,33,true,0.3600000000000002,hl,keypress(j),100,false,188616.69999998808,188616.59999999404,185726.621,185727.19999998808,185743.369,188646.366,1,16,11,
sequence,flow.Sequence,4_10,2023-11-17T16:34:21.300Z,,,,,,,,,,,2873.2309999940335,completion,,,,,,,high,low,,,,,,true,,,,,false,188616.89999997616,188616.59999999404,185726.621,185727.09999999404,185743.369,188646.366,1,16,,
trial,html.Screen,4_11_0,2023-11-17T16:34:23.529Z,,,,0,-1.0143509683988825,1.0281980567462463,,,true,hl,2199.133999999991,response,1.0264463986917702,1.2,-1.2,-1.171271535505083,1.2,-1.2,high,low,,ISIC_0062031.JPG,,ISIC_7889838.JPG,33,true,0.3600000000000002,hl,keypress(j),100,false,190845.59999999404,190845.5,188629.52,188617,188646.366,190865.23,1,16,12,
sequence,flow.Sequence,4_11,2023-11-17T16:34:23.529Z,,,,,,,,,,,2199.133999999991,completion,,,,,,,high,low,,,,,,true,,,,,false,190845.79999998212,190845.5,188629.52,188617,188646.366,190865.23,1,16,,
trial,html.Screen,4_12_0,2023-11-17T16:34:25.792Z,,,,0,-1.0885984639975343,-1.2042618719491294,,,false,hh,2243.2699999999895,response,0.8784544408401186,1.2,-1.2,1.080833919700588,1.2,-1.2,high,high,,ISIC_0012740.JPG,,ISIC_0029809.JPG,249,true,0.3600000000000002,hl,keypress(j),100,false,193108.69999998808,193108.5,190848.396,190845.89999997616,190865.23,193134.148,1,16,13,
sequence,flow.Sequence,4_12,2023-11-17T16:34:25.792Z,,,,,,,,,,,2243.2699999999895,completion,,,,,,,high,high,,,,,,true,,,,,false,193109,193108.5,190848.396,190845.89999997616,190865.23,193134.148,1,16,,
trial,html.Screen,4_13_0,2023-11-17T16:34:28.487Z,,,,0,-1.301795918505203,-1.0518606632781424,,,true,hh,2669.651999982132,response,1.089914260719518,1.2,-1.2,1.1695563571046357,1.2,-1.2,high,high,,ISIC_0027666.JPG,,ISIC_0030695.JPG,41,true,0.15000000000000002,hh,keypress(i),100,false,195803.89999997616,195803.79999998212,193117.366,193109,193134.148,195820.077,1,16,14,
sequence,flow.Sequence,4_13,2023-11-17T16:34:28.487Z,,,,,,,,,,,2669.651999982132,completion,,,,,,,high,high,,,,,,true,,,,,false,195804.09999999404,195803.79999998212,193117.366,193109,193134.148,195820.077,1,16,,
trial,html.Screen,4_14_0,2023-11-17T16:34:31.324Z,,,,0,-1.053007132776416,-1.341217082060068,,,true,hh,2820.7229999821284,response,1.1894733304494307,1.2,-1.2,1.1169761866204877,1.2,-1.2,high,high,,ISIC_0024208.JPG,,ISIC_0033813.JPG,41,true,0.15000000000000002,hh,keypress(i),100,false,198640.89999997616,198640.79999998212,195803.379,195804.09999999404,195820.077,198672.962,1,16,15,
sequence,flow.Sequence,4_14,2023-11-17T16:34:31.324Z,,,,,,,,,,,2820.7229999821284,completion,,,,,,,high,high,,,,,,true,,,,,false,198641.19999998808,198640.79999998212,195803.379,195804.09999999404,195820.077,198672.962,1,16,,
trial,html.Screen,4_15_0,2023-11-17T16:34:33.668Z,,,,0,-1.053007132776416,-1.341217082060068,,,true,hh,2311.837999982119,response,1.2359980588867217,1.2,-1.2,1.0529964469124329,1.2,-1.2,high,high,,ISIC_0024208.JPG,,ISIC_0032840.JPG,41,true,0.15000000000000002,hh,keypress(i),100,false,200984.89999997616,200984.79999998212,198656.383,198641.29999998212,198672.962,201008.537,1,16,16,
sequence,flow.Sequence,4_15,2023-11-17T16:34:33.668Z,,,,,,,,,,,2311.837999982119,completion,,,,,,,high,high,,,,,,true,,,,,false,200985.09999999404,200984.79999998212,198656.383,198641.29999998212,198672.962,201008.537,1,16,,
demonstration_loop,flow.Loop,4,2023-11-17T16:34:33.668Z,,,,,,,,,,,62188.51999998212,completion,,,,,,,,,,,,,,true,,,,,false,200985.19999998808,200984.79999998212,138746.463,138760.5,138796.28,201008.537,1,16,,
practice_instructions,html.Screen,5,2023-11-17T16:34:44.930Z,,,,,,,,,,,11231.062999994028,response,,,,,,,,,,,,,,,,continue,click button,,,212247,212239.59999999404,200991.906,200985.19999998808,201008.537,212269.845,,,,
trial,html.Screen,6_0_0,2023-11-17T16:34:49.333Z,,,,1,-1.2200968917423711,-1.3183466064109373,,,true,hh,4373.354999988078,response,1.238264833797662,1.2,-1.2,1.176099940770289,1.2,-1.2,high,high,,ISIC_3624318.JPG,,ISIC_0032861.JPG,27,true,0.12,hh,keypress(i),0,false,216650.5,216643.19999998808,212253.126,212247.09999999404,212269.845,216674.249,1,40,1,
sequence,flow.Sequence,6_0,2023-11-17T16:34:49.333Z,,,,,,,,,,,4373.354999988078,completion,,,,,,,high,high,,,,,,true,,,,,false,216650.69999998808,216643.19999998808,212253.126,212247.09999999404,212269.845,216674.249,1,40,,
trial,html.Screen,6_1_0,2023-11-17T16:34:53.892Z,,,,1,1.052305774554686,-1.3940181224717798,,,true,lh,4534.250999999989,response,-0.8644465729542988,1.2,-1.2,0.8679598285079457,1.2,-1.2,low,high,,ISIC_4175400.JPG,,ISIC_6718969.JPG,29,true,0.3600000000000002,lh,keypress(e),0,false,221208.79999998212,221208.5,216658.034,216650.79999998212,216674.249,221228.816,1,40,2,
sequence,flow.Sequence,6_1,2023-11-17T16:34:53.892Z,,,,,,,,,,,4534.250999999989,completion,,,,,,,low,high,,,,,,true,,,,,false,221209,221208.5,216658.034,216650.69999998808,216674.249,221228.816,1,40,,
trial,html.Screen,6_2_0,2023-11-17T16:34:59.099Z,,,,1,1.2704198237183777,-1.138121072015301,,,true,lh,5187.383999988087,response,-1.4727776799485246,1.2,-1.2,0.8779113138076752,1.2,-1.2,low,high,,ISIC_0501843.JPG,,ISIC_0033074.JPG,29,true,0.3600000000000002,lh,keypress(e),0,false,226416.29999998212,226416.19999998808,221195.387,221209.09999999404,221228.816,226435.354,1,40,3,
sequence,flow.Sequence,6_2,2023-11-17T16:34:59.099Z,,,,,,,,,,,5187.383999988087,completion,,,,,,,low,high,,,,,,true,,,,,false,226416.5,226416.19999998808,221195.387,221209,221228.816,226435.354,1,40,,
trial,html.Screen,6_3_0,2023-11-17T16:35:05.484Z,,,,1,-1.0959058628476686,-1.2921331918483707,,,true,hh,6365.245999994047,response,1.4757481022428036,1.2,-1.2,1.208510423375335,1.2,-1.2,high,high,,ISIC_5920470.JPG,,ISIC_0046526.JPG,211,true,0.3300000000000002,hh,keypress(i),0,false,232800.89999997616,232800.59999999404,226400.553,226416.69999998808,226435.354,232823.739,1,40,4,
sequence,flow.Sequence,6_3,2023-11-17T16:35:05.484Z,,,,,,,,,,,6365.245999994047,completion,,,,,,,high,high,,,,,,true,,,,,false,232801.09999999404,232800.59999999404,226400.553,226416.59999999404,226435.354,232823.739,1,40,,
trial,html.Screen,6_4_0,2023-11-17T16:35:11.764Z,,,,1,0.9212323139676136,-0.9882196642247332,,,true,lh,6256.860999994038,response,-1.0003671514840182,1.2,-1.2,0.8992716557663581,1.2,-1.2,low,high,,ISIC_0014255.JPG,,ISIC_0061749.JPG,29,true,0.3600000000000002,lh,keypress(e),0,false,239080.79999998212,239080.59999999404,232790.44,232801.29999998212,232823.739,239096.723,1,40,5,
sequence,flow.Sequence,6_4,2023-11-17T16:35:11.764Z,,,,,,,,,,,6256.860999994038,completion,,,,,,,low,high,,,,,,true,,,,,false,239080.89999997616,239080.59999999404,232790.44,232801.19999998808,232823.739,239096.723,1,40,,
trial,html.Screen,6_5_0,2023-11-17T16:35:19.348Z,,,,1,-1.3471772753257971,-1.055978100098093,,,true,hh,7567.777000000002,response,1.0022982145596024,1.2,-1.2,1.4442113609277247,1.2,-1.2,high,high,,ISIC_2077116.JPG,,ISIC_0011930.JPG,211,true,0.3300000000000002,hh,keypress(i),0,false,246664.69999998808,246664.5,239079.999,239081.09999999404,239096.723,246687.632,1,40,6,
sequence,flow.Sequence,6_5,2023-11-17T16:35:19.348Z,,,,,,,,,,,7567.777000000002,completion,,,,,,,high,high,,,,,,true,,,,,false,246664.89999997616,246664.5,239079.999,239081,239096.723,246687.632,1,40,,
trial,html.Screen,6_6_0,2023-11-17T16:35:25.923Z,,,,1,-1.2838089642212804,0.8550527900640753,,,true,hl,6552.967999994027,response,0.9448560599810628,1.2,-1.2,-0.9099421612683488,1.2,-1.2,high,low,,ISIC_0034187.JPG,,ISIC_9684318.JPG,26,true,0.3300000000000002,hl,keypress(j),0,false,253240.69999998808,253240.59999999404,246654.352,246665.09999999404,246687.632,253244.193,1,40,7,
sequence,flow.Sequence,6_6,2023-11-17T16:35:25.924Z,,,,,,,,,,,6552.967999994027,completion,,,,,,,high,low,,,,,,true,,,,,false,253240.79999998212,253240.59999999404,246654.352,246665,246687.632,253244.193,1,40,,
trial,html.Screen,6_7_0,2023-11-17T16:35:31.077Z,,,,1,-1.064425982109969,0.958564243697126,,,true,hl,5148.50699998808,response,1.0748728054622358,1.2,-1.2,-1.2840853987892311,1.2,-1.2,high,low,,ISIC_3203344.JPG,,ISIC_0059219.JPG,33,true,0.3600000000000002,hl,keypress(j),0,false,258392.89999997616,258392.69999998808,253227.473,253240.79999998212,253244.193,258399.378,1,40,8,
sequence,flow.Sequence,6_7,2023-11-17T16:35:31.077Z,,,,,,,,,,,5148.50699998808,completion,,,,,,,high,low,,,,,,true,,,,,false,258393.09999999404,258392.69999998808,253227.473,253240.79999998212,253244.193,258399.378,1,40,,
trial,html.Screen,6_8_0,2023-11-17T16:35:36.061Z,,,,1,-1.1305948371148624,-1.2802709447034604,,,true,hh,4977.021999976161,response,1.1320017221158485,1.2,-1.2,1.065213496692536,1.2,-1.2,high,high,,ISIC_5648111.JPG,,ISIC_0030597.JPG,249,true,0.3600000000000002,hh,keypress(i),0,false,263376.5,263376.39999997616,258382.745,258393.19999998808,258399.378,263387.656,1,40,9,
sequence,flow.Sequence,6_8,2023-11-17T16:35:36.061Z,,,,,,,,,,,4977.021999976161,completion,,,,,,,high,high,,,,,,true,,,,,false,263376.6999999881,263376.39999997616,258382.745,258393.19999998808,258399.378,263387.656,1,40,,
trial,html.Screen,6_9_0,2023-11-17T16:35:43.253Z,,,,1,-1.2838089642212804,0.8550527900640753,,,true,hl,7180.543999988062,response,1.0748728054622358,1.2,-1.2,-1.2840853987892311,1.2,-1.2,high,low,,ISIC_0034187.JPG,,ISIC_0059219.JPG,26,true,0.3300000000000002,hl,keypress(j),0,false,270568.39999997616,270568.1999999881,263370.959,263376.7999999821,263387.656,270578.215,1,40,10,
sequence,flow.Sequence,6_9,2023-11-17T16:35:43.253Z,,,,,,,,,,,7180.543999988062,completion,,,,,,,high,low,,,,,,true,,,,,false,270568.39999997616,270568.1999999881,263370.959,263376.7999999821,263387.656,270578.215,1,40,,
trial,html.Screen,6_10_0,2023-11-17T16:35:48.653Z,,,,1,1.0961318727760048,-1.2134960228256146,,,true,lh,5390.384999994014,response,-0.9385447468573198,1.2,-1.2,1.2289860846064424,1.2,-1.2,low,high,,ISIC_9768421.JPG,,ISIC_0032780.JPG,29,true,0.3600000000000002,lh,keypress(e),0,false,275968.6999999881,275968.59999999404,270561.4,270568.5,270578.215,275983.608,1,40,11,
sequence,flow.Sequence,6_10,2023-11-17T16:35:48.653Z,,,,,,,,,,,5390.384999994014,completion,,,,,,,low,high,,,,,,true,,,,,false,275969,275968.59999999404,270561.4,270568.39999997616,270578.215,275983.608,1,40,,
trial,html.Screen,6_11_0,2023-11-17T16:35:53.597Z,,,,1,-0.8591294258188253,0.870797302150167,,,true,hl,4928.791999976151,response,1.2704198237183777,1.2,-1.2,-1.138121072015301,1.2,-1.2,high,low,,ISIC_0055841.JPG,,ISIC_0501843.JPG,26,true,0.3300000000000002,hl,keypress(j),0,false,280912.5,280912.39999997616,275966.939,275969.09999999404,275983.608,280921.895,1,40,12,
sequence,flow.Sequence,6_11,2023-11-17T16:35:53.597Z,,,,,,,,,,,4928.791999976151,completion,,,,,,,high,low,,,,,,true,,,,,false,280912.6999999881,280912.39999997616,275966.939,275969.09999999404,275983.608,280921.895,1,40,,
trial,html.Screen,6_12_0,2023-11-17T16:35:57.341Z,,,,1,-1.073296525451802,-1.3454282740421717,,,true,hh,3734.5049999761395,response,1.042500842905652,1.2,-1.2,1.083053464502593,1.2,-1.2,high,high,,ISIC_5787312.JPG,,ISIC_0071135.JPG,249,true,0.3600000000000002,hh,keypress(i),0,false,284656.59999999404,284656.39999997616,280905.304,280912.7999999821,280921.895,284675.642,1,40,13,
sequence,flow.Sequence,6_12,2023-11-17T16:35:57.341Z,,,,,,,,,,,3734.5049999761395,completion,,,,,,,high,high,,,,,,true,,,,,false,284656.89999997616,284656.39999997616,280905.304,280912.6999999881,280921.895,284675.642,1,40,,
trial,html.Screen,6_13_0,2023-11-17T16:36:01.333Z,,,,1,1.0961318727760048,-1.2134960228256146,,,true,lh,3972.657999982126,response,-0.8591294258188253,1.2,-1.2,0.870797302150167,1.2,-1.2,low,high,,ISIC_9768421.JPG,,ISIC_0055841.JPG,29,true,0.3600000000000002,lh,keypress(e),0,false,288648.39999997616,288648.2999999821,284642.425,284657,284675.642,288663.247,1,40,14,
sequence,flow.Sequence,6_13,2023-11-17T16:36:01.333Z,,,,,,,,,,,3972.657999982126,completion,,,,,,,low,high,,,,,,true,,,,,false,288648.5,288648.2999999821,284642.425,284657,284675.642,288663.247,1,40,,
trial,html.Screen,6_14_0,2023-11-17T16:36:07.493Z,,,,1,1.1894733304494307,1.1169761866204877,,,true,ll,6145.352999994066,response,-1.2512482034836876,1.2,-1.2,-0.9575957368769288,1.2,-1.2,low,low,,ISIC_0033813.JPG,,ISIC_5736624.JPG,127,true,0.3300000000000002,ll,keypress(f),0,false,294808.6999999881,294808.59999999404,288646.381,288648.59999999404,288663.247,294835.833,1,40,15,
sequence,flow.Sequence,6_14,2023-11-17T16:36:07.493Z,,,,,,,,,,,6145.352999994066,completion,,,,,,,low,low,,,,,,true,,,,,false,294808.89999997616,294808.59999999404,288646.381,288648.59999999404,288663.247,294835.833,1,40,,
trial,html.Screen,6_15_0,2023-11-17T16:36:11.636Z,,,,1,1.2704198237183777,-1.138121072015301,,,true,lh,4116.167000000016,response,-1.225025174430573,1.2,-1.2,0.8422679054456499,1.2,-1.2,low,high,,ISIC_0501843.JPG,,ISIC_7503950.JPG,29,true,0.3600000000000002,lh,keypress(e),0,false,298952.1999999881,298952,294802.573,294809,294835.833,298956.619,1,40,16,
sequence,flow.Sequence,6_15,2023-11-17T16:36:11.636Z,,,,,,,,,,,4116.167000000016,completion,,,,,,,low,high,,,,,,true,,,,,false,298952.2999999821,298952,294802.573,294808.89999997616,294835.833,298956.619,1,40,,
trial,html.Screen,6_16_0,2023-11-17T16:36:18.100Z,,,,1,1.089914260719518,1.1695563571046357,,,true,ll,6459.4809999940335,response,-1.527180138517639,1.2,-1.2,-1.3543995271489262,1.2,-1.2,low,low,,ISIC_0030695.JPG,,ISIC_3190566.JPG,127,true,0.3300000000000002,ll,keypress(f),0,false,305416.1999999881,305416.09999999404,298940.087,298952.2999999821,298956.619,305429.782,1,40,17,
sequence,flow.Sequence,6_16,2023-11-17T16:36:18.101Z,,,,,,,,,,,6459.4809999940335,completion,,,,,,,low,low,,,,,,true,,,,,false,305416.39999997616,305416.09999999404,298940.087,298952.2999999821,298956.619,305429.782,1,40,,
trial,html.Screen,6_17_0,2023-11-17T16:36:24.981Z,,,,1,1.250220052739973,1.2967258992731714,,,true,ll,6866.417999988073,response,-1.1638334638021437,1.2,-1.2,-1.0846635401396965,1.2,-1.2,low,low,,ISIC_0031368.JPG,,ISIC_4718313.JPG,25,true,0.15000000000000002,ll,keypress(f),0,false,312296.39999997616,312296.1999999881,305412.977,305416.39999997616,305429.782,312320.013,1,40,18,
sequence,flow.Sequence,6_17,2023-11-17T16:36:24.981Z,,,,,,,,,,,6866.417999988073,completion,,,,,,,low,low,,,,,,true,,,,,false,312296.5,312296.1999999881,305412.977,305416.39999997616,305429.782,312320.013,1,40,,
trial,html.Screen,6_18_0,2023-11-17T16:36:29.388Z,,,,1,-1.2615315960773072,1.194084675079932,,,true,hl,4384.186999988102,response,1.2704198237183777,1.2,-1.2,-1.138121072015301,1.2,-1.2,high,low,,ISIC_0010044.JPG,,ISIC_0501843.JPG,26,true,0.3300000000000002,hl,keypress(j),0,false,316704.2999999821,316704.1999999881,312286.477,312296.5,312320.013,316707.682,1,40,19,
sequence,flow.Sequence,6_18,2023-11-17T16:36:29.389Z,,,,,,,,,,,4384.186999988102,completion,,,,,,,high,low,,,,,,true,,,,,false,316704.5,316704.1999999881,312286.477,312296.5,312320.013,316707.682,1,40,,
trial,html.Screen,6_19_0,2023-11-17T16:36:37.367Z,,,,1,1.2043484010107477,-1.2178113180138233,,,true,lh,7973.717999976187,response,-0.849847885203758,1.2,-1.2,0.973447384095442,1.2,-1.2,low,high,,ISIC_0011917.JPG,,ISIC_9612228.JPG,29,true,0.3600000000000002,lh,keypress(e),0,false,324681.5,324681.39999997616,316690.954,316704.59999999404,316707.682,324699.102,1,40,20,
sequence,flow.Sequence,6_19,2023-11-17T16:36:37.367Z,,,,,,,,,,,7973.717999976187,completion,,,,,,,low,high,,,,,,true,,,,,false,324681.89999997616,324681.39999997616,316690.954,316704.5,316707.682,324699.102,1,40,,
trial,html.Screen,6_20_0,2023-11-17T16:36:44.118Z,,,,1,-1.0959058628476686,-1.2921331918483707,,,true,hh,6733.3979999999865,response,1.1227373144244253,1.2,-1.2,1.1886610799377713,1.2,-1.2,high,high,,ISIC_5920470.JPG,,ISIC_0059506.JPG,211,true,0.3300000000000002,hh,keypress(i),0,false,331432.59999999404,331432.5,324682.474,324682.09999999404,324699.102,331439.105,1,40,21,
sequence,flow.Sequence,6_20,2023-11-17T16:36:44.118Z,,,,,,,,,,,6733.3979999999865,completion,,,,,,,high,high,,,,,,true,,,,,false,331432.7999999821,331432.5,324682.474,324682.09999999404,324699.102,331439.105,1,40,,
trial,html.Screen,6_21_0,2023-11-17T16:36:49.175Z,,,,1,-1.4748095371445096,0.9579010801034902,,,true,hl,5049.994999994058,response,0.9046170303418553,1.2,-1.2,-1.0063426986460375,1.2,-1.2,high,low,,ISIC_0033216.JPG,,ISIC_0055759.JPG,26,true,0.3300000000000002,hl,keypress(j),0,false,336489.2999999821,336489.09999999404,331422.346,331432.89999997616,331439.105,336494.228,1,40,22,
sequence,flow.Sequence,6_21,2023-11-17T16:36:49.175Z,,,,,,,,,,,5049.994999994058,completion,,,,,,,high,low,,,,,,true,,,,,false,336489.59999999404,336489.09999999404,331422.346,331432.7999999821,331439.105,336494.228,1,40,,
trial,html.Screen,6_22_0,2023-11-17T16:36:53.574Z,,,,1,-1.1604734171556077,-1.0789312625280616,,,true,hh,4394.471999988076,response,1.152619213055059,1.2,-1.2,1.2957497771092716,1.2,-1.2,high,high,,ISIC_3950753.JPG,,ISIC_0061915.JPG,249,true,0.3600000000000002,hh,keypress(i),0,false,340888.7999999821,340888.6999999881,336477.613,336489.6999999881,336494.228,340915.291,1,40,23,
sequence,flow.Sequence,6_22,2023-11-17T16:36:53.574Z,,,,,,,,,,,4394.471999988076,completion,,,,,,,high,high,,,,,,true,,,,,false,340889,340888.6999999881,336477.613,336489.6999999881,336494.228,340915.291,1,40,,
trial,html.Screen,6_23_0,2023-11-17T16:36:59.014Z,,,,1,-0.9039158082670506,1.0517562064343149,,,true,hl,5413.008999982092,response,0.8787496315223856,1.2,-1.2,-1.3680901203013998,1.2,-1.2,high,low,,ISIC_0015411.JPG,,ISIC_0023811.JPG,26,true,0.3300000000000002,hl,keypress(j),0,false,346328.5,346328.2999999821,340881.999,340889.09999999404,340915.291,346337.359,1,40,24,
sequence,flow.Sequence,6_23,2023-11-17T16:36:59.014Z,,,,,,,,,,,5413.008999982092,completion,,,,,,,high,low,,,,,,true,,,,,false,346328.6999999881,346328.2999999821,340881.999,340889.09999999404,340915.291,346337.359,1,40,,
trial,html.Screen,6_24_0,2023-11-17T16:37:08.438Z,,,,1,1.0822170028935367,-1.1654796154432183,,,true,lh,9415.141000000003,response,-1.0143509683988825,1.2,-1.2,1.0281980567462463,1.2,-1.2,low,high,,ISIC_7288818.JPG,,ISIC_0062031.JPG,29,true,0.3600000000000002,lh,keypress(e),0,false,355752.6999999881,355752.5,346320.692,346328.6999999881,346337.359,355763.553,1,40,25,
sequence,flow.Sequence,6_24,2023-11-17T16:37:08.438Z,,,,,,,,,,,9415.141000000003,completion,,,,,,,low,high,,,,,,true,,,,,false,355752.7999999821,355752.5,346320.692,346328.6999999881,346337.359,355763.553,1,40,,
trial,html.Screen,6_25_0,2023-11-17T16:37:15.927Z,,,,1,1.189469386514313,1.3008582067137853,,,true,ll,7477.446999999986,response,-0.9696118525781644,1.2,-1.2,-0.9712966348713286,1.2,-1.2,low,low,,ISIC_0010644.JPG,,ISIC_7927525.JPG,127,true,0.3300000000000002,ll,keypress(f),0,false,363241.2999999821,363241,355746.869,355752.7999999821,355763.553,363254.37,1,40,26,
sequence,flow.Sequence,6_25,2023-11-17T16:37:15.927Z,,,,,,,,,,,7477.446999999986,completion,,,,,,,low,low,,,,,,true,,,,,false,363241.7999999821,363241,355746.869,355752.7999999821,355763.553,363254.37,1,40,,
trial,html.Screen,6_26_0,2023-11-17T16:37:20.366Z,,,,1,1.2059606637811695,1.214966446488752,,,true,ll,4426.229999994044,response,-1.0885984639975343,1.2,-1.2,-1.2042618719491294,1.2,-1.2,low,low,,ISIC_0013334.JPG,,ISIC_0012740.JPG,25,true,0.15000000000000002,ll,keypress(f),0,false,367680.6999999881,367680.59999999404,363237.701,363241.89999997616,363254.37,367692.09,1,40,27,
sequence,flow.Sequence,6_26,2023-11-17T16:37:20.366Z,,,,,,,,,,,4426.229999994044,completion,,,,,,,low,low,,,,,,true,,,,,false,367680.7999999821,367680.59999999404,363237.701,363241.7999999821,363254.37,367692.09,1,40,,
trial,html.Screen,6_27_0,2023-11-17T16:37:25.774Z,,,,1,-1.4748095371445096,0.9579010801034902,,,true,hl,5396.909999999974,response,0.9225524349657857,1.2,-1.2,-0.929746784178986,1.2,-1.2,high,low,,ISIC_0033216.JPG,,ISIC_0011077.JPG,26,true,0.3300000000000002,hl,keypress(j),0,false,373089.1999999881,373089,367675.569,367680.89999997616,367692.09,373114.211,1,40,28,
sequence,flow.Sequence,6_27,2023-11-17T16:37:25.775Z,,,,,,,,,,,5396.909999999974,completion,,,,,,,high,low,,,,,,true,,,,,false,373089.39999997616,373089,367675.569,367680.89999997616,367692.09,373114.211,1,40,,
trial,html.Screen,6_28_0,2023-11-17T16:37:31.503Z,,,,1,-0.8494721812820843,1.3435429139974266,,,true,hl,5702.388999994029,response,0.8688859182707874,1.2,-1.2,-0.9566733172438716,1.2,-1.2,high,low,,ISIC_0033585.JPG,,ISIC_0640770.JPG,33,true,0.3600000000000002,hl,keypress(j),0,false,378816.6999999881,378816.59999999404,373080.921,373089.5,373114.211,378819.921,1,40,29,
sequence,flow.Sequence,6_28,2023-11-17T16:37:31.503Z,,,,,,,,,,,5702.388999994029,completion,,,,,,,high,low,,,,,,true,,,,,false,378816.7999999821,378816.59999999404,373080.921,373089.5,373114.211,378819.921,1,40,,
trial,html.Screen,6_29_0,2023-11-17T16:37:36.055Z,,,,1,1.1671212908494544,1.1286681796701683,,,true,ll,4548.778999988106,response,-1.4076170529882488,1.2,-1.2,-1.2895723530339247,1.2,-1.2,low,low,,ISIC_0065022.JPG,,ISIC_8545097.JPG,157,true,0.3600000000000002,ll,keypress(f),0,false,383368.89999997616,383368.6999999881,378803.112,378816.89999997616,378819.921,383391.117,1,40,30,
sequence,flow.Sequence,6_29,2023-11-17T16:37:36.056Z,,,,,,,,,,,4548.778999988106,completion,,,,,,,low,low,,,,,,true,,,,,false,383369.1999999881,383368.6999999881,378803.112,378816.7999999821,378819.921,383391.117,1,40,,
trial,html.Screen,6_30_0,2023-11-17T16:37:40.984Z,,,,1,-1.3515962101204746,0.8414583575292955,,,true,hl,4906.182999982091,response,1.0748728054622358,1.2,-1.2,-1.2840853987892311,1.2,-1.2,high,low,,ISIC_0274382.JPG,,ISIC_0059219.JPG,26,true,0.3300000000000002,hl,keypress(j),0,false,388297.5,388297.2999999821,383357.934,383369.2999999821,383391.117,388312.88,1,40,31,
sequence,flow.Sequence,6_30,2023-11-17T16:37:40.984Z,,,,,,,,,,,4906.182999982091,completion,,,,,,,high,low,,,,,,true,,,,,false,388297.7999999821,388297.2999999821,383357.934,383369.1999999881,383391.117,388312.88,1,40,,
trial,html.Screen,6_31_0,2023-11-17T16:37:44.216Z,,,,1,1.1715181192107684,1.2251845559044463,,,false,ll,3216.8199999880744,response,-1.203781047420757,1.2,-1.2,-1.53696096366863,1.2,-1.2,low,low,,ISIC_0011957.JPG,,ISIC_0200153.JPG,157,true,0.3600000000000002,hl,keypress(j),0,false,391529.89999997616,391529.6999999881,388296.12,388298,388312.88,391549.308,1,40,32,
sequence,flow.Sequence,6_31,2023-11-17T16:37:44.217Z,,,,,,,,,,,3216.8199999880744,completion,,,,,,,low,low,,,,,,true,,,,,false,391530.2999999821,391529.6999999881,388296.12,388298,388312.88,391549.308,1,40,,
trial,html.Screen,6_32_0,2023-11-17T16:37:48.303Z,,,,1,0.9448560599810628,-0.9099421612683488,,,true,lh,4067.39199998806,response,-0.8591294258188253,1.2,-1.2,0.870797302150167,1.2,-1.2,low,high,,ISIC_9684318.JPG,,ISIC_0055841.JPG,29,true,0.3600000000000002,lh,keypress(e),0,false,395616.6999999881,395616.6999999881,391515.949,391530.5,391549.308,395636.745,1,40,33,
sequence,flow.Sequence,6_32,2023-11-17T16:37:48.303Z,,,,,,,,,,,4067.39199998806,completion,,,,,,,low,high,,,,,,true,,,,,false,395617,395616.6999999881,391515.949,391530.39999997616,391549.308,395636.745,1,40,,
trial,html.Screen,6_33_0,2023-11-17T16:37:56.544Z,,,,1,1.2609895831255231,-1.0687377724194886,,,true,lh,8220.554999982123,response,-1.0003671514840182,1.2,-1.2,0.8992716557663581,1.2,-1.2,low,high,,ISIC_1367610.JPG,,ISIC_0061749.JPG,29,true,0.3600000000000002,lh,keypress(e),0,false,403857.59999999404,403857.2999999821,395603.358,395617.09999999404,395636.745,403861.65,1,40,34,
sequence,flow.Sequence,6_33,2023-11-17T16:37:56.544Z,,,,,,,,,,,8220.554999982123,completion,,,,,,,low,high,,,,,,true,,,,,false,403858,403857.2999999821,395603.358,395617,395636.745,403861.65,1,40,,
trial,html.Screen,6_34_0,2023-11-17T16:38:02.072Z,,,,1,1.089914260719518,1.1695563571046357,,,true,ll,5523.649999982095,response,-1.1168199061753437,1.2,-1.2,-1.212287319329914,1.2,-1.2,low,low,,ISIC_0030695.JPG,,ISIC_5919355.JPG,127,true,0.3300000000000002,ll,keypress(f),0,false,409385.5,409385.2999999821,403844.861,403858.09999999404,403861.65,409400.523,1,40,35,
sequence,flow.Sequence,6_34,2023-11-17T16:38:02.072Z,,,,,,,,,,,5523.649999982095,completion,,,,,,,low,low,,,,,,true,,,,,false,409385.89999997616,409385.2999999821,403844.861,403858.09999999404,403861.65,409400.523,1,40,,
trial,html.Screen,6_35_0,2023-11-17T16:38:07.663Z,,,,1,-1.0878102877901663,-1.3154097543539391,,,true,hh,5576.176999988093,response,1.1126049058422398,1.2,-1.2,1.2305421124063929,1.2,-1.2,high,high,,ISIC_1413242.JPG,,ISIC_0071536.JPG,27,true,0.12,hh,keypress(i),0,false,414976.6999999881,414976.6999999881,409383.883,409386,409400.523,414989.502,1,40,36,
sequence,flow.Sequence,6_35,2023-11-17T16:38:07.663Z,,,,,,,,,,,5576.176999988093,completion,,,,,,,high,high,,,,,,true,,,,,false,414976.89999997616,414976.6999999881,409383.883,409386,409400.523,414989.502,1,40,,
trial,html.Screen,6_36_0,2023-11-17T16:38:13.007Z,,,,1,-1.204229955025689,-1.0874249761617445,,,true,hh,5331.1979999881005,response,1.152619213055059,1.2,-1.2,1.2957497771092716,1.2,-1.2,high,high,,ISIC_0056930.JPG,,ISIC_0061915.JPG,41,true,0.15000000000000002,hh,keypress(i),0,false,420320.7999999821,420320.6999999881,414972.807,414977,414989.502,420328.112,1,40,37,
sequence,flow.Sequence,6_36,2023-11-17T16:38:13.007Z,,,,,,,,,,,5331.1979999881005,completion,,,,,,,high,high,,,,,,true,,,,,false,420321,420320.6999999881,414972.807,414977,414989.502,420328.112,1,40,,
trial,html.Screen,6_37_0,2023-11-17T16:38:17.111Z,,,,1,1.2872758518949912,1.313723254903214,,,false,ll,4096.587999988056,response,-1.2200968917423711,1.2,-1.2,-1.3183466064109373,1.2,-1.2,low,low,,ISIC_0064376.JPG,,ISIC_3624318.JPG,25,true,0.15000000000000002,hl,keypress(j),0,false,424424.89999997616,424424.6999999881,420311.62,420321,420328.112,424432.234,1,40,38,
sequence,flow.Sequence,6_37,2023-11-17T16:38:17.111Z,,,,,,,,,,,4096.587999988056,completion,,,,,,,low,low,,,,,,true,,,,,false,424425,424424.6999999881,420311.62,420321,420328.112,424432.234,1,40,,
trial,html.Screen,6_38_0,2023-11-17T16:38:20.911Z,,,,1,1.2055236989581275,1.1960893075698802,,,false,ll,3792.4659999880823,response,-1.3045229691102764,1.2,-1.2,-1.1781544075681951,1.2,-1.2,low,low,,ISIC_0072393.JPG,,ISIC_6148533.JPG,25,true,0.15000000000000002,hl,keypress(j),0,false,428224.89999997616,428224.6999999881,424415.567,424425.09999999404,424432.234,428236.032,1,40,39,
sequence,flow.Sequence,6_38,2023-11-17T16:38:20.911Z,,,,,,,,,,,3792.4659999880823,completion,,,,,,,low,low,,,,,,true,,,,,false,428225,428224.6999999881,424415.567,424425.09999999404,424432.234,428236.032,1,40,,
trial,html.Screen,6_39_0,2023-11-17T16:38:24.599Z,,,,1,-1.0885984639975343,-1.2042618719491294,,,true,hh,3676.3679999761516,response,1.2059606637811695,1.2,-1.2,1.214966446488752,1.2,-1.2,high,high,,ISIC_0012740.JPG,,ISIC_0013334.JPG,27,true,0.12,hh,keypress(i),0,false,431912.5,431912.39999997616,428219.281,428225.09999999404,428236.032,431923.095,1,40,40,
sequence,flow.Sequence,6_39,2023-11-17T16:38:24.599Z,,,,,,,,,,,3676.3679999761516,completion,,,,,,,high,high,,,,,,true,,,,,false,431912.59999999404,431912.39999997616,428219.281,428225.09999999404,428236.032,431923.095,1,40,,
practice_loop,flow.Loop,6,2023-11-17T16:38:24.599Z,,,,,,,,,,,219642.55499997616,completion,,,,,,,,,,,,,,true,,,,,false,431912.6999999881,431912.39999997616,212253.126,212247.09999999404,212269.845,431923.095,1,40,,
stair_instructions,html.Screen,7,2023-11-17T16:38:48.464Z,,,,,,,,,,,23852.905000000028,response,,,,,,,,,,,,,,,,continue,click button,,,455776.5,455776,431906.543,431912.7999999821,431923.095,455780.239,,,,
trial,html.Screen,8_0_0,2023-11-17T16:39:00.540Z,,,,2,0.0071892445601978,-0.0246015408628738,,0.04,false,ll,12071.560999982117,response,-1.204229955025689,1.2,-1.2,-1.0874249761617445,1.2,-1.2,low,low,,ISIC_0014133.JPG,,ISIC_0056930.JPG,25,false,0.15000000000000002,hl,keypress(j),0,true,467851.7999999821,467851.7999999821,455763.822,455776.59999999404,455780.239,467875.72,1,40,1,
sequence,flow.Sequence,8_0,2023-11-17T16:39:00.540Z,,,,,,,,,,,12071.560999982117,completion,,,,,,,low,low,,,,,,false,,,,,true,467851.89999997616,467851.7999999821,455763.822,455776.59999999404,455780.239,467875.72,1,40,,
trial,html.Screen,8_1_0,2023-11-17T16:39:08.961Z,,,,2,0.0077673378094614,0.0021810768579373,,0.04,false,hl,8397.780000000028,response,1.155796217969438,1.15,-1.2,-1.1646564121743912,1.15,-1.15,high,low,,ISIC_0067621.JPG,,ISIC_2685523.JPG,25,false,0.28000000000000014,hh,keypress(i),0,true,476273.7999999821,476273.5,467859.022,467852.09999999404,467875.72,476284.124,1,40,2,
sequence,flow.Sequence,8_1,2023-11-17T16:39:08.962Z,,,,,,,,,,,8397.780000000028,completion,,,,,,,high,low,,,,,,false,,,,,true,476274.09999999404,476273.5,467859.022,467852,467875.72,476284.124,1,40,,
trial,html.Screen,8_2_0,2023-11-17T16:39:12.805Z,,,,2,-0.010035581303589,0.0100711721396864,,0.04,true,hl,3833.175999982108,response,1.0961318727760048,1.15,-1.15,-1.2134960228256146,1.15,-1.15,high,low,,ISIC_0030592.JPG,,ISIC_9768421.JPG,25,false,0.28000000000000014,hl,keypress(j),0,true,480117.5,480117.2999999821,476267.454,476274.39999997616,476284.124,480121.305,1,40,3,
sequence,flow.Sequence,8_2,2023-11-17T16:39:12.805Z,,,,,,,,,,,3833.175999982108,completion,,,,,,,high,low,,,,,,false,,,,,true,480117.59999999404,480117.2999999821,476267.454,476274.2999999821,476284.124,480121.305,1,40,,
trial,html.Screen,8_3_0,2023-11-17T16:39:18.568Z,,,,2,-0.0127320821962457,0.0315308940184827,,0.04,true,lh,5758.994999982126,response,-1.2838089642212804,1.0999999999999999,-1.15,0.8550527900640753,1.15,-1.15,low,high,,ISIC_8156101.JPG,,ISIC_0034187.JPG,27,false,0.31000000000000016,lh,keypress(e),0,true,485880.2999999821,485880.2999999821,480104.761,480117.6999999881,480121.305,485893.727,1,40,4,
sequence,flow.Sequence,8_3,2023-11-17T16:39:18.568Z,,,,,,,,,,,5758.994999982126,completion,,,,,,,low,high,,,,,,false,,,,,true,485880.5,485880.2999999821,480104.761,480117.6999999881,480121.305,485893.727,1,40,,
trial,html.Screen,8_4_0,2023-11-17T16:39:26.345Z,,,,2,-0.0321039635696159,-0.020496766286318,,0.04,false,lh,7763.172999976145,response,-1.3411487193830047,1.0999999999999999,-1.15,1.198640448317381,1.15,-1.15,low,high,,ISIC_0058063.JPG,,ISIC_3093026.JPG,27,false,0.31000000000000016,hh,keypress(i),0,true,493657.09999999404,493656.89999997616,485877.165,485880.5,485893.727,493668.23,1,40,5,
sequence,flow.Sequence,8_4,2023-11-17T16:39:26.345Z,,,,,,,,,,,7763.172999976145,completion,,,,,,,low,high,,,,,,false,,,,,true,493657.2999999821,493656.89999997616,485877.165,485880.5,485893.727,493668.23,1,40,,
trial,html.Screen,8_5_0,2023-11-17T16:39:38.408Z,,,,2,0.0077673378094614,0.0021810768579373,,0.04,false,hh,12052.270000000019,response,1.0710981257723884,1.0999999999999999,-1.15,0.9983143500894516,0.9768466191907281,-1.15,high,high,,ISIC_0067621.JPG,,ISIC_0026652.JPG,36,false,0.1,hl,keypress(j),0,true,505720.59999999404,505720.5,493651.583,493657.39999997616,493668.23,505730.267,1,40,6,
sequence,flow.Sequence,8_5,2023-11-17T16:39:38.409Z,,,,,,,,,,,12052.270000000019,completion,,,,,,,high,high,,,,,,false,,,,,true,505720.6999999881,505720.5,493651.583,493657.39999997616,493668.23,505730.267,1,40,,
trial,html.Screen,8_6_0,2023-11-17T16:39:44.521Z,,,,2,0.0023664502831079,0.0252784582169994,,0.04,false,hh,6102.9329999880865,response,1.188743606919222,1.0999999999999999,-1.15,0.9421419207281913,1.0268466191907282,-1.15,high,high,,ISIC_4156010.JPG,,ISIC_0060481.JPG,33,false,0.1,ll,keypress(f),0,true,511833.39999997616,511833.1999999881,505713.449,505720.7999999821,505730.267,511836.373,1,40,7,
sequence,flow.Sequence,8_6,2023-11-17T16:39:44.521Z,,,,,,,,,,,6102.9329999880865,completion,,,,,,,high,high,,,,,,false,,,,,true,511833.6999999881,511833.1999999881,505713.449,505720.6999999881,505730.267,511836.373,1,40,,
trial,html.Screen,8_7_0,2023-11-17T16:39:54.650Z,,,,2,0.0399381815506136,0.0177751789152893,,0.04,false,ll,10124.626999999979,response,-1.1217390688497193,1.15,-1.15,-1.2276600934505035,1.0768466191907282,-1.15,low,low,,ISIC_3981425.JPG,,ISIC_0026344.JPG,26,false,0.14,hh,keypress(i),0,true,521961.09999999404,521961,511819.722,511833.7999999821,511836.373,521963.184,1,40,8,
sequence,flow.Sequence,8_7,2023-11-17T16:39:54.650Z,,,,,,,,,,,10124.626999999979,completion,,,,,,,low,low,,,,,,false,,,,,true,521961.2999999821,521961,511819.722,511833.7999999821,511836.373,521963.184,1,40,,
trial,html.Screen,8_8_0,2023-11-17T16:40:00.538Z,,,,2,-0.0086413421586899,-0.0360184993500958,,0.04,false,ll,5885.61599998211,response,-1.2714351764931109,1.15,-1.15,-1.0785174776187512,1.0768466191907282,-1.15,low,low,,ISIC_0010767.JPG,,ISIC_2454898.JPG,26,false,0.14,hl,keypress(j),0,true,527848.8999999762,527848.7999999821,521946.305,521961.39999997616,521963.184,527852.398,1,40,9,
sequence,flow.Sequence,8_8,2023-11-17T16:40:00.538Z,,,,,,,,,,,5885.61599998211,completion,,,,,,,low,low,,,,,,false,,,,,true,527849,527848.7999999821,521946.305,521961.2999999821,521963.184,527852.398,1,40,,
trial,html.Screen,8_9_0,2023-11-17T16:40:06.339Z,,,,2,0.0166849894750452,-0.0371614812368835,,0.04,true,hl,5797.401999982074,response,1.2704198237183777,1.15,-1.15,-1.138121072015301,1.0768466191907282,-1.15,high,low,,ISIC_6231450.JPG,,ISIC_0501843.JPG,25,false,0.28000000000000014,hl,keypress(j),0,true,533650.099999994,533649.7999999821,527835.718,527849.1999999881,527852.398,533658.266,1,40,10,
sequence,flow.Sequence,8_9,2023-11-17T16:40:06.339Z,,,,,,,,,,,5797.401999982074,completion,,,,,,,high,low,,,,,,false,,,,,true,533650.3999999762,533649.7999999821,527835.718,527849.099999994,527852.398,533658.266,1,40,,
trial,html.Screen,8_10_0,2023-11-17T16:40:10.057Z,,,,2,0.0057914759495055,-0.018500200317654,,0.04,true,hl,3710.3339999940945,response,0.9448560599810628,1.15,-1.15,-0.9099421612683488,1.0768466191907282,-1.0999999999999999,high,low,,ISIC_0058723.JPG,,ISIC_9684318.JPG,25,false,0.28000000000000014,hl,keypress(j),0,true,537368.6999999881,537368.599999994,533641.548,533650.5,533658.266,537378.591,1,40,11,
sequence,flow.Sequence,8_10,2023-11-17T16:40:10.057Z,,,,,,,,,,,3710.3339999940945,completion,,,,,,,high,low,,,,,,false,,,,,true,537368.7999999821,537368.599999994,533641.548,533650.5,533658.266,537378.591,1,40,,
trial,html.Screen,8_11_0,2023-11-17T16:40:14.778Z,,,,2,0.0057914759495055,-0.018500200317654,,0.04,true,hh,4710.608999988064,response,1.0657476601009717,1.0999999999999999,-1.15,1.166572336354465,1.0768466191907282,-1.0999999999999999,high,high,,ISIC_0058723.JPG,,ISIC_0010778.JPG,28,false,0.1,hh,keypress(i),0,true,542089.5,542089.1999999881,537361.907,537368.7999999821,537378.591,542100.008,1,40,12,
sequence,flow.Sequence,8_11,2023-11-17T16:40:14.778Z,,,,,,,,,,,4710.608999988064,completion,,,,,,,high,high,,,,,,false,,,,,true,542089.599999994,542089.1999999881,537361.907,537368.7999999821,537378.591,542100.008,1,40,,
trial,html.Screen,8_12_0,2023-11-17T16:40:17.874Z,,,,2,-0.0051046740562181,0.0178832721027728,,0.04,true,hl,3084.8919999761274,response,1.296989496412063,1.0999999999999999,-1.15,-1.1425074323097002,1.0768466191907282,-1.0999999999999999,high,low,,ISIC_9545819.JPG,,ISIC_6356803.JPG,26,false,0.2500000000000001,hl,keypress(j),0,true,545185,545184.8999999762,542083.311,542089.8999999762,542100.008,545203.656,1,40,13,
sequence,flow.Sequence,8_12,2023-11-17T16:40:17.874Z,,,,,,,,,,,3084.8919999761274,completion,,,,,,,high,low,,,,,,false,,,,,true,545185.099999994,545184.8999999762,542083.311,542089.7999999821,542100.008,545203.656,1,40,,
trial,html.Screen,8_13_0,2023-11-17T16:40:24.426Z,,,,2,-0.0321039635696159,-0.020496766286318,,0.04,false,lh,6533.14399998216,response,-1.3515962101204746,1.0499999999999998,-1.15,0.8414583575292955,1.0768466191907282,-1.0499999999999998,low,high,,ISIC_0058063.JPG,,ISIC_0274382.JPG,25,false,0.28000000000000014,ll,keypress(f),0,true,551736.7999999821,551736.7999999821,545169.954,545185.1999999881,545203.656,551742.982,1,40,14,
sequence,flow.Sequence,8_13,2023-11-17T16:40:24.426Z,,,,,,,,,,,6533.14399998216,completion,,,,,,,low,high,,,,,,false,,,,,true,551737,551736.7999999821,545169.954,545185.1999999881,545203.656,551742.982,1,40,,
trial,html.Screen,8_14_0,2023-11-17T16:40:33.738Z,,,,2,0.00126575685933,0.0325046559638838,,0.04,false,hl,9305.817999982159,response,1.1547137855907486,1.0499999999999998,-1.15,-1.0185275168641534,1.1268466191907283,-1.0499999999999998,high,low,,ISIC_5682259.JPG,,ISIC_7604870.JPG,26,false,0.2300000000000001,hh,keypress(i),0,true,561048.8999999762,561048.7999999821,551726.188,551737,551742.982,561052.3,1,40,15,
sequence,flow.Sequence,8_14,2023-11-17T16:40:33.738Z,,,,,,,,,,,9305.817999982159,completion,,,,,,,high,low,,,,,,false,,,,,true,561049,561048.7999999821,551726.188,551737,551742.982,561052.3,1,40,,
trial,html.Screen,8_15_0,2023-11-17T16:40:43.210Z,,,,2,-0.0321039635696159,-0.020496766286318,,0.04,false,hl,9468.399999988033,response,1.2043484010107477,1.0499999999999998,-1.15,-1.2178113180138233,1.1268466191907283,-1.0999999999999999,high,low,,ISIC_0058063.JPG,,ISIC_0011917.JPG,25,false,0.2300000000000001,ll,keypress(f),0,true,570520.7999999821,570520.6999999881,561035.684,561049,561052.3,570528.503,1,40,16,
sequence,flow.Sequence,8_15,2023-11-17T16:40:43.210Z,,,,,,,,,,,9468.399999988033,completion,,,,,,,high,low,,,,,,false,,,,,true,570520.8999999762,570520.6999999881,561035.684,561049,561052.3,570528.503,1,40,,
trial,html.Screen,8_16_0,2023-11-17T16:40:51.475Z,,,,2,-0.010035581303589,0.0100711721396864,,0.04,false,hh,8256.896999976132,response,1.194799101954455,1.0999999999999999,-1.15,1.2071632388858642,1.1268466191907283,-1.0999999999999999,high,high,,ISIC_0030592.JPG,,ISIC_4347535.JPG,25,false,0.1,hl,keypress(j),0,true,578785.599999994,578785.3999999762,570511.573,570521,570528.503,578804.364,1,40,17,
sequence,flow.Sequence,8_16,2023-11-17T16:40:51.475Z,,,,,,,,,,,8256.896999976132,completion,,,,,,,high,high,,,,,,false,,,,,true,578785.8999999762,578785.3999999762,570511.573,570521,570528.503,578804.364,1,40,,
trial,html.Screen,8_17_0,2023-11-17T16:40:54.539Z,,,,2,-0.0127320821962457,0.0315308940184827,,0.04,false,ll,3044.835999988136,response,-1.1168199061753437,1.0999999999999999,-1.15,-1.212287319329914,1.1768466191907283,-1.0999999999999999,low,low,,ISIC_8156101.JPG,,ISIC_5919355.JPG,26,false,0.13,hl,keypress(j),0,true,581849.2999999821,581849.1999999881,578769.875,578786,578804.364,581856.479,1,40,18,
sequence,flow.Sequence,8_17,2023-11-17T16:40:54.539Z,,,,,,,,,,,3044.835999988136,completion,,,,,,,low,low,,,,,,false,,,,,true,581849.599999994,581849.1999999881,578769.875,578786,578804.364,581856.479,1,40,,
trial,html.Screen,8_18_0,2023-11-17T16:40:58.402Z,,,,2,0.0060918352854008,-0.029032683404407,,0.04,true,lh,3856.3209999820683,response,-1.3559315773956395,1.0999999999999999,-1.15,0.924768326187701,1.1768466191907283,-1.0499999999999998,low,high,,ISIC_8436194.JPG,,ISIC_5101111.JPG,25,false,0.3300000000000002,lh,keypress(e),0,true,585712.8999999762,585712.7999999821,581839.712,581849.599999994,581856.479,585727.06,1,40,19,
sequence,flow.Sequence,8_18,2023-11-17T16:40:58.402Z,,,,,,,,,,,3856.3209999820683,completion,,,,,,,low,high,,,,,,false,,,,,true,585713.099999994,585712.7999999821,581839.712,581849.599999994,581856.479,585727.06,1,40,,
trial,html.Screen,8_19_0,2023-11-17T16:41:01.474Z,,,,2,-0.0199897690678184,-0.0312486875504497,,0.04,false,hh,3057.7399999820627,response,1.1783311757907324,1.0999999999999999,-1.15,1.266840220031473,1.1768466191907283,-1.0499999999999998,high,high,,ISIC_5482426.JPG,,ISIC_8241457.JPG,30,false,0.11,lh,keypress(e),0,true,588784.8999999762,588784.7999999821,585710.416,585713.099999994,585727.06,588796.747,1,40,20,
sequence,flow.Sequence,8_19,2023-11-17T16:41:01.474Z,,,,,,,,,,,3057.7399999820627,completion,,,,,,,high,high,,,,,,false,,,,,true,588785,588784.7999999821,585710.416,585713.099999994,585727.06,588796.747,1,40,,
trial,html.Screen,8_20_0,2023-11-17T16:41:05.418Z,,,,2,-0.0367218428225813,0.0026956749740767,,0.04,false,lh,3932.152999976184,response,-1.3559315773956395,1.15,-1.15,0.924768326187701,1.045804273109587,-1.0499999999999998,low,high,,ISIC_7212271.JPG,,ISIC_5101111.JPG,25,false,0.2600000000000001,ll,keypress(f),0,true,592729.099999994,592728.8999999762,588780.073,588785.1999999881,588796.747,592733.999,1,40,21,
sequence,flow.Sequence,8_20,2023-11-17T16:41:05.419Z,,,,,,,,,,,3932.152999976184,completion,,,,,,,low,high,,,,,,false,,,,,true,592729.1999999881,592728.8999999762,588780.073,588785.099999994,588796.747,592733.999,1,40,,
trial,html.Screen,8_21_0,2023-11-17T16:41:08.802Z,,,,2,-0.0365981355399771,-0.0162670920008846,,0.04,true,lh,3378.800999982166,response,-1.3515962101204746,1.15,-1.0999999999999999,0.8414583575292955,1.095804273109587,-1.0499999999999998,low,high,,ISIC_0982855.JPG,,ISIC_0274382.JPG,26,false,0.2600000000000001,lh,keypress(e),0,true,596112.8999999762,596112.7999999821,592717.519,592729.2999999821,592733.999,596120.803,1,40,22,
sequence,flow.Sequence,8_21,2023-11-17T16:41:08.802Z,,,,,,,,,,,3378.800999982166,completion,,,,,,,low,high,,,,,,false,,,,,true,596113,596112.7999999821,592717.519,592729.2999999821,592733.999,596120.803,1,40,,
trial,html.Screen,8_22_0,2023-11-17T16:41:14.186Z,,,,2,-0.0199897690678184,-0.0312486875504497,,0.04,true,hh,5375.996999982162,response,1.1474466950560966,1.15,-1.0999999999999999,1.173734476257662,1.095804273109587,-1.0499999999999998,high,high,,ISIC_5482426.JPG,,ISIC_5216586.JPG,26,false,0.11,hh,keypress(i),0,true,601496.8999999762,601496.7999999821,596104.065,596113,596120.803,601509.449,1,40,23,
sequence,flow.Sequence,8_22,2023-11-17T16:41:14.186Z,,,,,,,,,,,5375.996999982162,completion,,,,,,,high,high,,,,,,false,,,,,true,601497.099999994,601496.7999999821,596104.065,596113,596120.803,601509.449,1,40,,
trial,html.Screen,8_23_0,2023-11-17T16:41:21.531Z,,,,2,0.0158987717472563,0.0292472192292015,,0.04,false,hl,7332.150999994017,response,1.2463522959513311,1.15,-1.0999999999999999,-0.8691422647859491,1.1105905856568794,-1.0499999999999998,high,low,,ISIC_1366765.JPG,,ISIC_0057192.JPG,26,false,0.27000000000000013,lh,keypress(e),0,true,608841.7999999821,608841.599999994,601492.826,601497.1999999881,601509.449,608850.211,1,40,24,
sequence,flow.Sequence,8_23,2023-11-17T16:41:21.531Z,,,,,,,,,,,7332.150999994017,completion,,,,,,,high,low,,,,,,false,,,,,true,608842,608841.599999994,601492.826,601497.1999999881,601509.449,608850.211,1,40,,
trial,html.Screen,8_24_0,2023-11-17T16:41:28.043Z,,,,2,0.0060918352854008,-0.029032683404407,,0.04,false,hl,6503.088999982108,response,0.8787496315223856,1.15,-1.0999999999999999,-1.3680901203013998,1.1105905856568794,-1.0999999999999999,high,low,,ISIC_8436194.JPG,,ISIC_0023811.JPG,25,false,0.28000000000000014,lh,keypress(e),0,true,615353.5,615353.2999999821,608833.553,608842.1999999881,608850.211,615356.705,1,40,25,
sequence,flow.Sequence,8_24,2023-11-17T16:41:28.043Z,,,,,,,,,,,6503.088999982108,completion,,,,,,,high,low,,,,,,false,,,,,true,615353.6999999881,615353.2999999821,608833.553,608842.099999994,608850.211,615356.705,1,40,,
trial,html.Screen,8_25_0,2023-11-17T16:41:33.394Z,,,,2,0.0077673378094614,0.0021810768579373,,0.04,false,ll,5348.1949999762,response,-1.1604734171556077,1.15,-1.0999999999999999,-1.0789312625280616,1.1105905856568794,-1.15,low,low,,ISIC_0067621.JPG,,ISIC_3950753.JPG,28,false,0.13,hl,keypress(j),0,true,620704.8999999762,620704.8999999762,615340.081,615353.8999999762,615356.705,620712.02,1,40,26,
sequence,flow.Sequence,8_25,2023-11-17T16:41:33.394Z,,,,,,,,,,,5348.1949999762,completion,,,,,,,low,low,,,,,,false,,,,,true,620705.099999994,620704.8999999762,615340.081,615353.8999999762,615356.705,620712.02,1,40,,
trial,html.Screen,8_26_0,2023-11-17T16:41:38.066Z,,,,2,0.0350697500805515,0.0166617848231997,,0.04,false,ll,4664.7799999821,response,-1.2555541172897566,1.15,-1.15,-1.0235056423601527,1.1105905856568794,-1.15,low,low,,ISIC_0024423.JPG,,ISIC_1578399.JPG,26,false,0.14,lh,keypress(e),0,true,625377,625376.7999999821,620695.482,620705.099999994,620712.02,625383.335,1,40,27,
sequence,flow.Sequence,8_26,2023-11-17T16:41:38.066Z,,,,,,,,,,,4664.7799999821,completion,,,,,,,low,low,,,,,,false,,,,,true,625377.099999994,625376.7999999821,620695.482,620705.099999994,620712.02,625383.335,1,40,,
trial,html.Screen,8_27_0,2023-11-17T16:41:45.307Z,,,,2,-0.0365981355399771,-0.0162670920008846,,0.04,false,lh,7234.464999982156,response,-1.0143509683988825,1.15,-1.15,1.0281980567462463,1.1105905856568794,-1.15,low,high,,ISIC_0982855.JPG,,ISIC_0062031.JPG,25,false,0.29000000000000015,hh,keypress(i),0,true,632618,632617.7999999821,625366.727,625377.2999999821,625383.335,632623.993,1,40,28,
sequence,flow.Sequence,8_27,2023-11-17T16:41:45.308Z,,,,,,,,,,,7234.464999982156,completion,,,,,,,low,high,,,,,,false,,,,,true,632618.2999999821,632617.7999999821,625366.727,625377.1999999881,625383.335,632623.993,1,40,,
trial,html.Screen,8_28_0,2023-11-17T16:41:51.531Z,,,,2,0.012810673904807,-0.00400964452501,,0.04,true,ll,6217.106999994023,response,-1.1604734171556077,1.15,-1.15,-1.0789312625280616,1.1105905856568794,-1.15,low,low,,ISIC_0064656.JPG,,ISIC_3950753.JPG,26,false,0.14,ll,keypress(f),0,true,638841.2999999821,638841.099999994,632607.219,632618.5,632623.993,638846.876,1,40,29,
sequence,flow.Sequence,8_28,2023-11-17T16:41:51.531Z,,,,,,,,,,,6217.106999994023,completion,,,,,,,low,low,,,,,,false,,,,,true,638841.599999994,638841.099999994,632607.219,632618.3999999762,632623.993,638846.876,1,40,,
trial,html.Screen,8_29_0,2023-11-17T16:41:59.491Z,,,,2,0.0050679133050021,0.0174815595031679,,0.04,false,hh,7953.823999988032,response,1.2055236989581275,1.15,-1.15,1.1960893075698802,1.1105905856568794,-1.15,high,high,,ISIC_9848743.JPG,,ISIC_0072393.JPG,26,false,0.11,ll,keypress(f),0,true,646800.8999999762,646800.6999999881,638830.047,638841.7999999821,638846.876,646804.775,1,40,30,
sequence,flow.Sequence,8_29,2023-11-17T16:41:59.491Z,,,,,,,,,,,7953.823999988032,completion,,,,,,,high,high,,,,,,false,,,,,true,646801.099999994,646800.6999999881,638830.047,638841.6999999881,638846.876,646804.775,1,40,,
trial,html.Screen,8_30_0,2023-11-17T16:42:06.899Z,,,,2,-0.0365981355399771,-0.0162670920008846,,0.04,true,ll,7404.424999988056,response,-1.2254777618346506,1.15,-1.15,-1.0356416330964822,1.1605905856568794,-1.15,low,low,,ISIC_0982855.JPG,,ISIC_1054090.JPG,26,false,0.14,ll,keypress(f),0,true,654209.3999999762,654209.1999999881,646788.105,646801.099999994,646804.775,654228.9,1,40,31,
sequence,flow.Sequence,8_30,2023-11-17T16:42:06.899Z,,,,,,,,,,,7404.424999988056,completion,,,,,,,low,low,,,,,,false,,,,,true,654209.6999999881,654209.1999999881,646788.105,646801.099999994,646804.775,654228.9,1,40,,
trial,html.Screen,8_31_0,2023-11-17T16:42:11.795Z,,,,2,0.0050679133050021,0.0174815595031679,,0.04,false,lh,4876.199999994016,response,-0.7203854121635694,1.15,-1.0072864478122718,0.967180948735857,1.1605905856568794,-1.0072864478122718,low,high,,ISIC_9848743.JPG,,ISIC_0439726.JPG,28,false,0.29000000000000015,ll,keypress(f),0,true,659105.3999999762,659105.099999994,654195.646,654209.6999999881,654228.9,659117.171,1,40,32,
sequence,flow.Sequence,8_31,2023-11-17T16:42:11.795Z,,,,,,,,,,,4876.199999994016,completion,,,,,,,low,high,,,,,,false,,,,,true,659105.599999994,659105.099999994,654195.646,654209.6999999881,654228.9,659117.171,1,40,,
trial,html.Screen,8_32_0,2023-11-17T16:42:20.114Z,,,,2,0.0158987717472563,0.0292472192292015,,0.04,true,hh,8307.329000000027,response,1.2059606637811695,1.15,-1.0072864478122718,1.214966446488752,1.1605905856568794,-1.0072864478122718,high,high,,ISIC_1366765.JPG,,ISIC_0013334.JPG,27,false,0.11,hh,keypress(i),0,true,667424.599999994,667424.5,659100.622,659105.599999994,659117.171,667443.304,1,40,33,
sequence,flow.Sequence,8_32,2023-11-17T16:42:20.114Z,,,,,,,,,,,8307.329000000027,completion,,,,,,,high,high,,,,,,false,,,,,true,667424.6999999881,667424.5,659100.622,659105.599999994,659117.171,667443.304,1,40,,
trial,html.Screen,8_33_0,2023-11-17T16:42:29.669Z,,,,2,0.0077673378094614,0.0021810768579373,,0.04,true,hh,9535.095999976154,response,1.094624209823328,1.15,-1.0072864478122718,1.0544499428769605,1.1605905856568794,-1.0072864478122718,high,high,,ISIC_0067621.JPG,,ISIC_0055526.JPG,27,false,0.11,hh,keypress(i),0,true,676978.7999999821,676978.3999999762,667408.718,667424.7999999821,667443.304,676985.086,1,40,34,
sequence,flow.Sequence,8_33,2023-11-17T16:42:29.669Z,,,,,,,,,,,9535.095999976154,completion,,,,,,,high,high,,,,,,false,,,,,true,676979.599999994,676978.3999999762,667408.718,667424.7999999821,667443.304,676985.086,1,40,,
trial,html.Screen,8_34_0,2023-11-17T16:42:34.235Z,,,,2,0.0399381815506136,0.0177751789152893,,0.04,false,ll,4559.713999982108,response,-1.0275060871969903,1.0847081946828563,-1.0072864478122718,-0.9101747326852082,1.0847081946828563,-1.0072864478122718,low,low,,ISIC_3981425.JPG,,ISIC_9155028.JPG,27,false,0.11,lh,keypress(e),0,true,681544.8999999762,681544.7999999821,676968.41,676979.8999999762,676985.086,681556.267,1,40,35,
sequence,flow.Sequence,8_34,2023-11-17T16:42:34.235Z,,,,,,,,,,,4559.713999982108,completion,,,,,,,low,low,,,,,,false,,,,,true,681545,681544.7999999821,676968.41,676979.7999999821,676985.086,681556.267,1,40,,
trial,html.Screen,8_35_0,2023-11-17T16:42:38.123Z,,,,2,0.0350697500805515,0.0166617848231997,,0.04,true,hl,3876.4329999880865,response,1.0264463986917702,1.0847081946828563,-0.9572864478122718,-1.171271535505083,1.0847081946828563,-1.0572864478122719,high,low,,ISIC_0024423.JPG,,ISIC_7889838.JPG,26,false,0.2300000000000001,hl,keypress(j),0,true,685433,685432.6999999881,681539.603,681545.099999994,681556.267,685443.459,1,40,36,
sequence,flow.Sequence,8_35,2023-11-17T16:42:38.123Z,,,,,,,,,,,3876.4329999880865,completion,,,,,,,high,low,,,,,,false,,,,,true,685433.1999999881,685432.6999999881,681539.603,681545.099999994,681556.267,685443.459,1,40,,
trial,html.Screen,8_36_0,2023-11-17T16:42:45.859Z,,,,2,0.0060918352854008,-0.029032683404407,,0.04,false,lh,7725.740999988047,response,-0.8779374983479176,1.0847081946828563,-0.9572864478122718,0.9745548032823428,1.0847081946828563,-1.0572864478122719,low,high,,ISIC_8436194.JPG,,ISIC_2991354.JPG,25,false,0.2300000000000001,ll,keypress(f),0,true,693169.3999999762,693169.1999999881,685426.847,685433.2999999821,685443.459,693184.556,1,40,37,
sequence,flow.Sequence,8_36,2023-11-17T16:42:45.859Z,,,,,,,,,,,7725.740999988047,completion,,,,,,,low,high,,,,,,false,,,,,true,693169.599999994,693169.1999999881,685426.847,685433.1999999881,685443.459,693184.556,1,40,,
trial,html.Screen,8_37_0,2023-11-17T16:42:49.027Z,,,,2,0.0050679133050021,0.0174815595031679,,0.04,true,lh,3152.2439999821363,response,-0.9013888878932071,1.0847081946828563,-0.9572864478122718,0.9328095253308732,1.1347081946828563,-1.0572864478122719,low,high,,ISIC_9848743.JPG,,ISIC_0068259.JPG,27,false,0.2600000000000001,lh,keypress(e),0,true,696336.8999999762,696336.7999999821,693167.74,693169.7999999821,693184.556,696355.57,1,40,38,
sequence,flow.Sequence,8_37,2023-11-17T16:42:49.027Z,,,,,,,,,,,3152.2439999821363,completion,,,,,,,low,high,,,,,,false,,,,,true,696337,696336.7999999821,693167.74,693169.6999999881,693184.556,696355.57,1,40,,
trial,html.Screen,8_38_0,2023-11-17T16:42:52.211Z,,,,2,0.0060934073440827,0.0279108145883031,,0.04,false,ll,3165.3299999762094,response,-0.9191486333136276,1.0847081946828563,-0.9072864478122717,-1.080719641270871,1.1347081946828563,-1.0572864478122719,low,low,,ISIC_0032604.JPG,,ISIC_0663941.JPG,29,false,0.1,hl,keypress(j),0,true,699520.8999999762,699520.8999999762,696321.001,696337.1999999881,696355.57,699524.244,1,40,39,
sequence,flow.Sequence,8_38,2023-11-17T16:42:52.211Z,,,,,,,,,,,3165.3299999762094,completion,,,,,,,low,low,,,,,,false,,,,,true,699521.099999994,699520.8999999762,696321.001,696337.1999999881,696355.57,699524.244,1,40,,
trial,html.Screen,8_39_0,2023-11-17T16:43:02.180Z,,,,2,0.0071892445601978,-0.0246015408628738,,0.04,false,hh,9965.65599997621,response,1.1320017221158485,1.0847081946828563,-0.9572864478122718,1.065213496692536,1.1347081946828563,-1.0072864478122718,high,high,,ISIC_0014133.JPG,,ISIC_0030597.JPG,28,false,0.1,hl,keypress(j),0,true,709490.099999994,709489.8999999762,699507.674,699521.099999994,699524.244,709500.953,1,40,40,
sequence,flow.Sequence,8_39,2023-11-17T16:43:02.181Z,,,,,,,,,,,9965.65599997621,completion,,,,,,,high,high,,,,,,false,,,,,true,709490.5,709489.8999999762,699507.674,699521.099999994,699524.244,709500.953,1,40,,
stair_loop,flow.Loop,8,2023-11-17T16:43:02.181Z,,,,,,,,,,,253709.66099997616,completion,,,,,,,,,,,,,,false,,,,,true,709490.6999999881,709489.8999999762,455763.822,455776.59999999404,455780.239,709500.953,1,40,,
exp_instructions,html.Screen,9,2023-11-17T16:43:22.740Z,,,,,,,,,,,20547.84699998214,response,,,,,,,,,,,,,,,,continue,keypress(Space),,,730049.1999999881,730048.7999999821,709484.182,709490.8999999762,709500.953,730054.798,,,,
trial,html.Screen,10_0_0,2023-11-17T16:43:30.333Z,,,,1,0.0077673378094614,0.0021810768579373,,0.04,true,hh,7588.001999982167,response,1.2055236989581275,1.1304124584048574,-1.0582789015155225,1.1960893075698802,1.1156079214825791,-1.0732789015155222,high,high,,ISIC_0067621.JPG,9,ISIC_0072393.JPG,28,false,0.11,hh,keypress(i),0,false,737643.099999994,737642.7999999821,730037.742,730049.3999999762,730054.798,737645.773,4,500,1,
break,html.Screen,10_0_1,2023-11-17T16:43:30.335Z,,,,,,,,,,,NaN,,,,,,,,high,high,,,,,,false,,,,,false,737644.3999999762,737644.099999994,,737643.3999999762,,737645.773,4,500,,
break_continue,html.Screen,10_0_2,2023-11-17T16:43:30.336Z,,,,,,,,,,,NaN,,,,,,,,high,high,,,,,,false,,,,,false,737645.2999999821,737645,,737644.599999994,,737645.773,4,500,,
sequence,flow.Sequence,10_0,2023-11-17T16:43:30.336Z,,,,,,,,,,,7590.202000000048,completion,,,,,,,high,high,,,,,,false,,,,,false,737645.5,737645,730037.742,730049.3999999762,730054.798,737645.773,4,500,,
trial,html.Screen,10_1_0,2023-11-17T16:43:33.236Z,,,,1,0.012810673904807,-0.00400964452501,,0.04,true,hh,2899.4269999880344,response,1.1227373144244253,1.1304124584048574,-1.0582789015155225,1.1886610799377713,1.1156079214825791,-1.0732789015155222,high,high,,ISIC_0064656.JPG,9,ISIC_0059506.JPG,28,false,0.11,hh,keypress(i),0,false,740545.3999999762,740545.1999999881,737628.918,737645.599999994,737645.773,740548.658,4,500,2,
break,html.Screen,10_1_1,2023-11-17T16:43:33.236Z,,,,,,,,,,,NaN,,,,,,,,high,high,,,,,,false,,,,,false,740546,740545.8999999762,,740545.599999994,,740548.658,4,500,,
break_continue,html.Screen,10_1_2,2023-11-17T16:43:33.237Z,,,,,,,,,,,NaN,,,,,,,,high,high,,,,,,false,,,,,false,740546.3999999762,740546.2999999821,,740546.1999999881,,740548.658,4,500,,
sequence,flow.Sequence,10_1,2023-11-17T16:43:33.237Z,,,,,,,,,,,2900.526999982074,completion,,,,,,,high,high,,,,,,false,,,,,false,740546.599999994,740546.2999999821,737628.918,737645.599999994,737645.773,740548.658,4,500,,
trial,html.Screen,10_2_0,2023-11-17T16:43:39.547Z,,,,1,0.0077673378094614,0.0021810768579373,,0.04,true,ll,6307.9419999939855,response,-1.1655508270784471,1.1304124584048574,-1.0582789015155225,-1.1162776063248168,1.1156079214825791,-1.0732789015155222,low,low,,ISIC_0067621.JPG,10,ISIC_5509946.JPG,25,false,0.12,ll,keypress(f),0,false,746856.7999999821,746856.599999994,740532.005,740546.7999999821,740548.658,746871.634,4,500,3,
break,html.Screen,10_2_1,2023-11-17T16:43:39.548Z,,,,,,,,,,,NaN,,,,,,,,low,low,,,,,,false,,,,,false,746857.1999999881,746857.099999994,,746856.8999999762,,746871.634,4,500,,
break_continue,html.Screen,10_2_2,2023-11-17T16:43:39.548Z,,,,,,,,,,,NaN,,,,,,,,low,low,,,,,,false,,,,,false,746857.5,746857.3999999762,,746857.2999999821,,746871.634,4,500,,
sequence,flow.Sequence,10_2,2023-11-17T16:43:39.548Z,,,,,,,,,,,6308.741999976104,completion,,,,,,,low,low,,,,,,false,,,,,false,746857.599999994,746857.3999999762,740532.005,740546.6999999881,740548.658,746871.634,4,500,,
trial,html.Screen,10_3_0,2023-11-17T16:43:44.724Z,,,,1,0.0060934073440827,0.0279108145883031,,0.04,false,lh,5162.165999982157,response,-1.064425982109969,1.1304124584048574,-1.0582789015155225,0.958564243697126,1.1156079214825791,-1.0732789015155222,low,high,,ISIC_0032604.JPG,9,ISIC_3203344.JPG,25,false,0.27000000000000013,ll,keypress(f),0,false,752034.099999994,752033.7999999821,746854.829,746857.599999994,746871.634,752043.523,4,500,4,
break,html.Screen,10_3_1,2023-11-17T16:43:44.725Z,,,,,,,,,,,NaN,,,,,,,,low,high,,,,,,false,,,,,false,752035.099999994,752034.7999999821,,752034.3999999762,,752043.523,4,500,,
break_continue,html.Screen,10_3_2,2023-11-17T16:43:44.726Z,,,,,,,,,,,NaN,,,,,,,,low,high,,,,,,false,,,,,false,752035.599999994,752035.5,,752035.2999999821,,752043.523,4,500,,
sequence,flow.Sequence,10_3,2023-11-17T16:43:44.726Z,,,,,,,,,,,5163.866000000038,completion,,,,,,,low,high,,,,,,false,,,,,false,752036,752035.5,746854.829,746857.599999994,746871.634,752043.523,4,500,,
trial,html.Screen,10_4_0,2023-11-17T16:43:48.908Z,,,,1,-0.0365981355399771,-0.0162670920008846,,0.04,true,hh,4173.276999982074,response,1.1715181192107684,1.1304124584048574,-1.0582789015155225,1.2251845559044463,1.1156079214825791,-1.0732789015155222,high,high,,ISIC_0982855.JPG,8,ISIC_0011957.JPG,28,false,0.11,hh,keypress(i),0,false,756216.8999999762,756216.7999999821,752026.775,752036.099999994,752043.523,756231.229,4,500,5,
break,html.Screen,10_4_1,2023-11-17T16:43:48.908Z,,,,,,,,,,,NaN,,,,,,,,high,high,,,,,,false,,,,,false,756217.2999999821,756217.1999999881,,756217.099999994,,756231.229,4,500,,
break_continue,html.Screen,10_4_2,2023-11-17T16:43:48.908Z,,,,,,,,,,,NaN,,,,,,,,high,high,,,,,,false,,,,,false,756217.5,756217.3999999762,,756217.2999999821,,756231.229,4,500,,
sequence,flow.Sequence,10_4,2023-11-17T16:43:48.908Z,,,,,,,,,,,4173.876999976113,completion,,,,,,,high,high,,,,,,false,,,,,false,756217.5,756217.3999999762,752026.775,752036,752043.523,756231.229,4,500,,
trial,html.Screen,10_5_0,2023-11-17T16:43:54.788Z,,,,1,0.0399381815506136,0.0177751789152893,,0.04,false,ll,5865.370999993989,response,-0.9991910338212396,1.1304124584048574,-1.0582789015155225,-1.0085499824556403,1.1156079214825791,-1.0732789015155222,low,low,,ISIC_3981425.JPG,8,ISIC_7795549.JPG,25,false,0.12,hl,keypress(j),0,false,762096.6999999881,762096.599999994,756214.515,756217.599999994,756231.229,762103.531,4,500,6,
break,html.Screen,10_5_1,2023-11-17T16:43:54.788Z,,,,,,,,,,,NaN,,,,,,,,low,low,,,,,,false,,,,,false,762097,762096.8999999762,,762096.7999999821,,762103.531,4,500,,
break_continue,html.Screen,10_5_2,2023-11-17T16:43:54.788Z,,,,,,,,,,,NaN,,,,,,,,low,low,,,,,,false,,,,,false,762097.1999999881,762097.1999999881,,762097.099999994,,762103.531,4,500,,
sequence,flow.Sequence,10_5,2023-11-17T16:43:54.788Z,,,,,,,,,,,5865.970999988029,completion,,,,,,,low,low,,,,,,false,,,,,false,762097.2999999821,762097.1999999881,756214.515,756217.599999994,756231.229,762103.531,4,500,,
trial,html.Screen,10_6_0,2023-11-17T16:43:57.828Z,,,,1,-0.0365981355399771,-0.0162670920008846,,0.04,false,ll,3033.368999976199,response,-0.9537595754201148,1.1304124584048574,-1.0582789015155225,-1.1342661775432377,1.1156079214825791,-1.0732789015155222,low,low,,ISIC_0982855.JPG,9,ISIC_0741694.JPG,25,false,0.12,hl,keypress(j),0,false,765137,765136.8999999762,762087.062,762097.2999999821,762103.531,765139.892,4,500,7,
break,html.Screen,10_6_1,2023-11-17T16:43:57.828Z,,,,,,,,,,,NaN,,,,,,,,low,low,,,,,,false,,,,,false,765137.3999999762,765137.2999999821,,765137.099999994,,765139.892,4,500,,
break_continue,html.Screen,10_6_2,2023-11-17T16:43:57.828Z,,,,,,,,,,,NaN,,,,,,,,low,low,,,,,,false,,,,,false,765137.599999994,765137.5,,765137.5,,765139.892,4,500,,
sequence,flow.Sequence,10_6,2023-11-17T16:43:57.828Z,,,,,,,,,,,3033.969000000041,completion,,,,,,,low,low,,,,,,false,,,,,false,765137.599999994,765137.5,762087.062,762097.2999999821,762103.531,765139.892,4,500,,
trial,html.Screen,10_7_0,2023-11-17T16:44:01.292Z,,,,1,0.0023664502831079,0.0252784582169994,,0.04,false,ll,3460.907999982126,response,-1.0064329161780483,1.1304124584048574,-1.0582789015155225,-1.0631481857644678,1.1156079214825791,-1.0732789015155222,low,low,,ISIC_4156010.JPG,9,ISIC_0033137.JPG,25,false,0.12,lh,keypress(e),0,false,768600.8999999762,768600.7999999821,765123.202,765137.6999999881,765139.892,768610.022,4,500,8,
break,html.Screen,10_7_1,2023-11-17T16:44:01.292Z,,,,,,,,,,,NaN,,,,,,,,low,low,,,,,,false,,,,,false,768601.2999999821,768601.099999994,,768601,,768610.022,4,500,,
break_continue,html.Screen,10_7_2,2023-11-17T16:44:01.292Z,,,,,,,,,,,NaN,,,,,,,,low,low,,,,,,false,,,,,false,768601.3999999762,768601.3999999762,,768601.2999999821,,768610.022,4,500,,
sequence,flow.Sequence,10_7,2023-11-17T16:44:01.292Z,,,,,,,,,,,3461.5079999761656,completion,,,,,,,low,low,,,,,,false,,,,,false,768601.5,768601.3999999762,765123.202,765137.6999999881,765139.892,768610.022,4,500,,
trial,html.Screen,10_8_0,2023-11-17T16:44:05.060Z,,,,1,0.0060918352854008,-0.029032683404407,,0.04,true,hh,3758.877999976161,response,1.2055236989581275,1.1304124584048574,-1.0582789015155225,1.1960893075698802,1.1156079214825791,-1.0732789015155222,high,high,,ISIC_8436194.JPG,10,ISIC_0072393.JPG,28,false,0.11,hh,keypress(i),0,false,772369,772368.8999999762,768593.425,768601.6999999881,768610.022,772380.512,4,500,9,
break,html.Screen,10_8_1,2023-11-17T16:44:05.060Z,,,,,,,,,,,NaN,,,,,,,,high,high,,,,,,false,,,,,false,772369.3999999762,772369.2999999821,,772369.099999994,,772380.512,4,500,,
break_continue,html.Screen,10_8_2,2023-11-17T16:44:05.061Z,,,,,,,,,,,NaN,,,,,,,,high,high,,,,,,false,,,,,false,772369.6999999881,772369.599999994,,772369.5,,772380.512,4,500,,
sequence,flow.Sequence,10_8,2023-11-17T16:44:05.061Z,,,,,,,,,,,3759.5779999940423,completion,,,,,,,high,high,,,,,,false,,,,,false,772369.7999999821,772369.599999994,768593.425,768601.599999994,768610.022,772380.512,4,500,,
trial,html.Screen,10_9_0,2023-11-17T16:44:09.204Z,,,,1,0.012020985739544,-0.0126097407389903,,0.04,true,lh,4132.488000000012,response,-1.2838089642212804,1.1304124584048574,-1.0582789015155225,0.8550527900640753,1.1156079214825791,-1.0732789015155222,low,high,,ISIC_0069379.JPG,9,ISIC_0034187.JPG,25,false,0.27000000000000013,lh,keypress(e),0,false,776513.099999994,776513,772364.06,772369.7999999821,772380.512,776517.955,4,500,10,
break,html.Screen,10_9_1,2023-11-17T16:44:09.204Z,,,,,,,,,,,NaN,,,,,,,,low,high,,,,,,false,,,,,false,776513.5,776513.3999999762,,776513.2999999821,,776517.955,4,500,,
break_continue,html.Screen,10_9_2,2023-11-17T16:44:09.205Z,,,,,,,,,,,NaN,,,,,,,,low,high,,,,,,false,,,,,false,776513.6999999881,776513.6999999881,,776513.599999994,,776517.955,4,500,,
sequence,flow.Sequence,10_9,2023-11-17T16:44:09.205Z,,,,,,,,,,,4133.187999988091,completion,,,,,,,low,high,,,,,,false,,,,,false,776513.7999999821,776513.6999999881,772364.06,772369.7999999821,772380.512,776517.955,4,500,,
trial,html.Screen,10_10_0,2023-11-17T16:44:13.076Z,,,,1,-0.0361875505619981,0.0291457404567876,,0.04,true,hh,3867.244999988121,response,1.2055236989581275,1.1304124584048574,-1.0582789015155225,1.1960893075698802,1.1156079214825791,-1.0732789015155222,high,high,,ISIC_0027480.JPG,9,ISIC_0072393.JPG,28,false,0.11,hh,keypress(i),0,false,780385.2999999821,780385.1999999881,776501.538,776513.7999999821,776517.955,780388.518,4,500,11,
break,html.Screen,10_10_1,2023-11-17T16:44:13.077Z,,,,,,,,,,,NaN,,,,,,,,high,high,,,,,,false,,,,,false,780385.7999999821,780385.6999999881,,780385.5,,780388.518,4,500,,
break_continue,html.Screen,10_10_2,2023-11-17T16:44:13.077Z,,,,,,,,,,,NaN,,,,,,,,high,high,,,,,,false,,,,,false,780386,780386,,780385.8999999762,,780388.518,4,500,,
sequence,flow.Sequence,10_10,2023-11-17T16:44:13.077Z,,,,,,,,,,,3868.045000000042,completion,,,,,,,high,high,,,,,,false,,,,,false,780386.1999999881,780386,776501.538,776513.7999999821,776517.955,780388.518,4,500,,
trial,html.Screen,10_11_0,2023-11-17T16:44:17.868Z,,,,1,0.0166849894750452,-0.0371614812368835,,0.04,true,lh,4788.5819999939995,response,-1.064425982109969,1.1304124584048574,-1.0582789015155225,0.958564243697126,1.1156079214825791,-1.0732789015155222,low,high,,ISIC_6231450.JPG,10,ISIC_3203344.JPG,25,false,0.27000000000000013,lh,keypress(e),0,false,785177.1999999881,785177.099999994,780371.755,780386.2999999821,780388.518,785193.312,4,500,12,
break,html.Screen,10_11_1,2023-11-17T16:44:17.868Z,,,,,,,,,,,NaN,,,,,,,,low,high,,,,,,false,,,,,false,785177.5,785177.5,,785177.3999999762,,785193.312,4,500,,
break_continue,html.Screen,10_11_2,2023-11-17T16:44:17.869Z,,,,,,,,,,,NaN,,,,,,,,low,high,,,,,,false,,,,,false,785177.6999999881,785177.6999999881,,785177.599999994,,785193.312,4,500,,
sequence,flow.Sequence,10_11,2023-11-17T16:44:17.869Z,,,,,,,,,,,4789.181999988039,completion,,,,,,,low,high,,,,,,false,,,,,false,785177.7999999821,785177.6999999881,780371.755,780386.2999999821,780388.518,785193.312,4,500,,
trial,html.Screen,10_12_0,2023-11-17T16:44:21.916Z,,,,1,0.0060934073440827,0.0279108145883031,,0.04,false,lh,4031.987999982084,response,-0.8069562753553525,1.1304124584048574,-1.0582789015155225,0.9101764190105358,1.1156079214825791,-1.0732789015155222,low,high,,ISIC_0032604.JPG,9,ISIC_0046596.JPG,25,false,0.27000000000000013,hh,keypress(i),0,false,789225.5,789225.2999999821,785176.827,785177.8999999762,785193.312,789230.721,4,500,13,
break,html.Screen,10_12_1,2023-11-17T16:44:21.917Z,,,,,,,,,,,NaN,,,,,,,,low,high,,,,,,false,,,,,false,789225.8999999762,789225.8999999762,,789225.599999994,,789230.721,4,500,,
break_continue,html.Screen,10_12_2,2023-11-17T16:44:21.917Z,,,,,,,,,,,NaN,,,,,,,,low,high,,,,,,false,,,,,false,789226.2999999821,789226.1999999881,,789226.099999994,,789230.721,4,500,,
sequence,flow.Sequence,10_12,2023-11-17T16:44:21.917Z,,,,,,,,,,,4032.8879999880446,completion,,,,,,,low,high,,,,,,false,,,,,false,789226.3999999762,789226.1999999881,785176.827,785177.7999999821,785193.312,789230.721,4,500,,
trial,html.Screen,10_13_0,2023-11-17T16:44:26.412Z,,,,1,0.00126575685933,0.0325046559638838,,0.04,false,hl,4490.27899999998,response,0.9448560599810628,1.1304124584048574,-1.0582789015155225,-0.9099421612683488,1.1156079214825791,-1.0732789015155222,high,low,,ISIC_5682259.JPG,9,ISIC_9684318.JPG,26,false,0.27000000000000013,lh,keypress(e),0,false,793721.099999994,793721,789213.952,789226.5,789230.721,793735.284,4,500,14,
break,html.Screen,10_13_1,2023-11-17T16:44:26.412Z,,,,,,,,,,,NaN,,,,,,,,high,low,,,,,,false,,,,,false,793721.3999999762,793721.3999999762,,793721.1999999881,,793735.284,4,500,,
break_continue,html.Screen,10_13_2,2023-11-17T16:44:26.412Z,,,,,,,,,,,NaN,,,,,,,,high,low,,,,,,false,,,,,false,793721.599999994,793721.599999994,,793721.5,,793735.284,4,500,,
sequence,flow.Sequence,10_13,2023-11-17T16:44:26.413Z,,,,,,,,,,,4490.87899999402,completion,,,,,,,high,low,,,,,,false,,,,,false,793721.6999999881,793721.599999994,789213.952,789226.5,789230.721,793735.284,4,500,,
trial,html.Screen,10_14_0,2023-11-17T16:44:28.644Z,,,,1,-0.0189295602385628,-0.0128812415435153,,0.04,false,ll,2217.716000000015,response,-1.0375203228848855,1.1304124584048574,-1.0582789015155225,-1.0256934713188917,1.1156079214825791,-1.0732789015155222,low,low,,ISIC_0010372.JPG,9,ISIC_4264600.JPG,25,false,0.12,lh,keypress(e),0,false,795953.099999994,795953,793718.595,793721.6999999881,793735.284,795971.609,4,500,15,
break,html.Screen,10_14_1,2023-11-17T16:44:28.644Z,,,,,,,,,,,NaN,,,,,,,,low,low,,,,,,false,,,,,false,795953.3999999762,795953.3999999762,,795953.1999999881,,795971.609,4,500,,
break_continue,html.Screen,10_14_2,2023-11-17T16:44:28.644Z,,,,,,,,,,,NaN,,,,,,,,low,low,,,,,,false,,,,,false,795953.599999994,795953.5,,795953.3999999762,,795971.609,4,500,,
sequence,flow.Sequence,10_14,2023-11-17T16:44:28.644Z,,,,,,,,,,,2218.216000000015,completion,,,,,,,low,low,,,,,,false,,,,,false,795953.599999994,795953.5,793718.595,793721.6999999881,793735.284,795971.609,4,500,,
trial,html.Screen,10_15_0,2023-11-17T16:44:33.148Z,,,,1,0.0060934073440827,0.0279108145883031,,0.04,false,lh,4485.390999999945,response,-0.849847885203758,1.1304124584048574,-1.0582789015155225,0.973447384095442,1.1156079214825791,-1.0732789015155222,low,high,,ISIC_0032604.JPG,9,ISIC_9612228.JPG,25,false,0.27000000000000013,hl,keypress(j),0,false,800457.1999999881,800457,795937.541,795953.599999994,795971.609,800458.604,4,500,16,
break,html.Screen,10_15_1,2023-11-17T16:44:33.148Z,,,,,,,,,,,NaN,,,,,,,,low,high,,,,,,false,,,,,false,800457.3999999762,800457.3999999762,,800457.2999999821,,800458.604,4,500,,
break_continue,html.Screen,10_15_2,2023-11-17T16:44:33.148Z,,,,,,,,,,,NaN,,,,,,,,low,high,,,,,,false,,,,,false,800457.599999994,800457.599999994,,800457.5,,800458.604,4,500,,
sequence,flow.Sequence,10_15,2023-11-17T16:44:33.149Z,,,,,,,,,,,4485.990999993985,completion,,,,,,,low,high,,,,,,false,,,,,false,800457.6999999881,800457.599999994,795937.541,795953.599999994,795971.609,800458.604,4,500,,
trial,html.Screen,10_16_0,2023-11-17T16:44:42.428Z,,,,1,-0.0051046740562181,0.0178832721027728,,0.04,false,ll,9278.39599999995,response,-1.0581281450494728,1.1304124584048574,-1.0582789015155225,-1.133169116569424,1.1156079214825791,-1.0732789015155222,low,low,,ISIC_9545819.JPG,9,ISIC_5490352.JPG,25,false,0.12,lh,keypress(e),0,false,809737.099999994,809737,800441.904,800457.7999999821,800458.604,809751.247,4,500,17,
break,html.Screen,10_16_1,2023-11-17T16:44:42.428Z,,,,,,,,,,,NaN,,,,,,,,low,low,,,,,,false,,,,,false,809737.3999999762,809737.3999999762,,809737.1999999881,,809751.247,4,500,,
break_continue,html.Screen,10_16_2,2023-11-17T16:44:42.428Z,,,,,,,,,,,NaN,,,,,,,,low,low,,,,,,false,,,,,false,809737.599999994,809737.599999994,,809737.5,,809751.247,4,500,,
sequence,flow.Sequence,10_16,2023-11-17T16:44:42.428Z,,,,,,,,,,,9278.99599999399,completion,,,,,,,low,low,,,,,,false,,,,,false,809737.6999999881,809737.599999994,800441.904,800457.7999999821,800458.604,809751.247,4,500,,
trial,html.Screen,10_17_0,2023-11-17T16:44:50.189Z,,,,1,0.0077673378094614,0.0021810768579373,,0.04,false,hl,7746.552999982145,response,1.2609895831255231,1.1304124584048574,-1.0582789015155225,-1.0687377724194886,1.1156079214825791,-1.0732789015155222,high,low,,ISIC_0067621.JPG,8,ISIC_1367610.JPG,26,false,0.27000000000000013,ll,keypress(f),0,false,817498,817497.7999999821,809734.47,809737.6999999881,809751.247,817509.056,4,500,18,
break,html.Screen,10_17_1,2023-11-17T16:44:50.190Z,,,,,,,,,,,NaN,,,,,,,,high,low,,,,,,false,,,,,false,817499,817498.6999999881,,817498.2999999821,,817509.056,4,500,,
break_continue,html.Screen,10_17_2,2023-11-17T16:44:50.191Z,,,,,,,,,,,NaN,,,,,,,,high,low,,,,,,false,,,,,false,817499.599999994,817499.3999999762,,817499.099999994,,817509.056,4,500,,
sequence,flow.Sequence,10_17,2023-11-17T16:44:50.191Z,,,,,,,,,,,7748.152999976184,completion,,,,,,,high,low,,,,,,false,,,,,false,817499.7999999821,817499.3999999762,809734.47,809737.6999999881,809751.247,817509.056,4,500,,
trial,html.Screen,10_18_0,2023-11-17T16:44:54.372Z,,,,1,0.0118555311043871,0.0087774532070196,,0.04,true,hl,4171.944000000018,response,0.9046170303418553,1.1304124584048574,-1.0582789015155225,-1.0063426986460375,1.1156079214825791,-1.0732789015155222,high,low,,ISIC_6488658.JPG,9,ISIC_0055759.JPG,26,false,0.27000000000000013,hl,keypress(j),0,false,821681.099999994,821681,817492.192,817499.8999999762,817509.056,821696.562,4,500,19,
break,html.Screen,10_18_1,2023-11-17T16:44:54.373Z,,,,,,,,,,,NaN,,,,,,,,high,low,,,,,,false,,,,,false,821681.5,821681.2999999821,,821681.1999999881,,821696.562,4,500,,
break_continue,html.Screen,10_18_2,2023-11-17T16:44:54.373Z,,,,,,,,,,,NaN,,,,,,,,high,low,,,,,,false,,,,,false,821681.599999994,821681.5,,821681.5,,821696.562,4,500,,
sequence,flow.Sequence,10_18,2023-11-17T16:44:54.373Z,,,,,,,,,,,4172.444000000018,completion,,,,,,,high,low,,,,,,false,,,,,false,821681.599999994,821681.5,817492.192,817499.8999999762,817509.056,821696.562,4,500,,
trial,html.Screen,10_19_0,2023-11-17T16:44:59.740Z,,,,1,-0.0199897690678184,-0.0312486875504497,,0.04,false,hl,5352.337999976124,response,1.0264463986917702,1.1304124584048574,-1.0582789015155225,-1.171271535505083,1.1156079214825791,-1.0732789015155222,high,low,,ISIC_5482426.JPG,9,ISIC_7889838.JPG,26,false,0.27000000000000013,lh,keypress(e),0,false,827049,827048.8999999762,821679.988,821681.599999994,821696.562,827051.871,4,500,20,
break,html.Screen,10_19_1,2023-11-17T16:44:59.741Z,,,,,,,,,,,NaN,,,,,,,,high,low,,,,,,false,,,,,false,827049.2999999821,827049.2999999821,,827049.099999994,,827051.871,4,500,,
break_continue,html.Screen,10_19_2,2023-11-17T16:44:59.741Z,,,,,,,,,,,NaN,,,,,,,,high,low,,,,,,false,,,,,false,827049.599999994,827049.5,,827049.3999999762,,827051.871,4,500,,
sequence,flow.Sequence,10_19,2023-11-17T16:44:59.741Z,,,,,,,,,,,5352.9379999999655,completion,,,,,,,high,low,,,,,,false,,,,,false,827049.599999994,827049.5,821679.988,821681.599999994,821696.562,827051.871,4,500,,
trial,html.Screen,10_20_0,2023-11-17T16:45:03.861Z,,,,1,-0.0063515208248796,-0.0194177605767913,,0.04,true,lh,4117.428999982076,response,-0.8534691366511764,1.1304124584048574,-1.0582789015155225,1.276663727068437,1.1156079214825791,-1.0732789015155222,low,high,,ISIC_5281908.JPG,9,ISIC_0056788.JPG,25,false,0.27000000000000013,lh,keypress(e),0,false,831169.3999999762,831169.2999999821,827035.256,827049.599999994,827051.871,831189.366,4,500,21,
break,html.Screen,10_20_1,2023-11-17T16:45:03.861Z,,,,,,,,,,,NaN,,,,,,,,low,high,,,,,,false,,,,,false,831169.7999999821,831169.7999999821,,831169.599999994,,831189.366,4,500,,
break_continue,html.Screen,10_20_2,2023-11-17T16:45:03.861Z,,,,,,,,,,,NaN,,,,,,,,low,high,,,,,,false,,,,,false,831170.099999994,831170,,831170,,831189.366,4,500,,
sequence,flow.Sequence,10_20,2023-11-17T16:45:03.862Z,,,,,,,,,,,4118.128999999957,completion,,,,,,,low,high,,,,,,false,,,,,false,831170.1999999881,831170,827035.256,827049.599999994,827051.871,831189.366,4,500,,
trial,html.Screen,10_21_0,2023-11-17T16:45:09.309Z,,,,1,0.0071892445601978,-0.0246015408628738,,0.04,true,lh,5427.93399998208,response,-0.8644465729542988,1.1304124584048574,-1.0582789015155225,0.8679598285079457,1.1156079214825791,-1.0732789015155222,low,high,,ISIC_0014133.JPG,10,ISIC_6718969.JPG,25,false,0.27000000000000013,lh,keypress(e),0,false,836617.3999999762,836617.2999999821,831156.103,831170.2999999821,831189.366,836628.13,4,500,22,
break,html.Screen,10_21_1,2023-11-17T16:45:09.309Z,,,,,,,,,,,NaN,,,,,,,,low,high,,,,,,false,,,,,false,836617.7999999821,836617.6999999881,,836617.5,,836628.13,4,500,,
break_continue,html.Screen,10_21_2,2023-11-17T16:45:09.309Z,,,,,,,,,,,NaN,,,,,,,,low,high,,,,,,false,,,,,false,836618,836618,,836617.7999999821,,836628.13,4,500,,
sequence,flow.Sequence,10_21,2023-11-17T16:45:09.309Z,,,,,,,,,,,5428.633999999962,completion,,,,,,,low,high,,,,,,false,,,,,false,836618.099999994,836618,831156.103,831170.2999999821,831189.366,836628.13,4,500,,
trial,html.Screen,10_22_0,2023-11-17T16:45:22.814Z,,,,1,0.0158987717472563,0.0292472192292015,,0.04,false,ll,13494.069999988074,response,-1.1513073368404492,1.1304124584048574,-1.0582789015155225,-1.0485268550965705,1.1156079214825791,-1.0732789015155222,low,low,,ISIC_1366765.JPG,8,ISIC_0030666.JPG,25,false,0.12,lh,keypress(e),0,false,850122.3999999762,850122.1999999881,836611.606,836618.1999999881,836628.13,850125.046,4,500,23,
break,html.Screen,10_22_1,2023-11-17T16:45:22.815Z,,,,,,,,,,,NaN,,,,,,,,low,low,,,,,,false,,,,,false,850123.1999999881,850123,,850122.6999999881,,850125.046,4,500,,
break_continue,html.Screen,10_22_2,2023-11-17T16:45:22.815Z,,,,,,,,,,,NaN,,,,,,,,low,low,,,,,,false,,,,,false,850123.6999999881,850123.599999994,,850123.3999999762,,850125.046,4,500,,
sequence,flow.Sequence,10_22,2023-11-17T16:45:22.815Z,,,,,,,,,,,13495.469999994035,completion,,,,,,,low,low,,,,,,false,,,,,false,850123.8999999762,850123.599999994,836611.606,836618.1999999881,836628.13,850125.046,4,500,,
trial,html.Screen,10_23_0,2023-11-17T16:45:31.854Z,,,,1,-0.0365981355399771,-0.0162670920008846,,0.04,false,lh,9037.053999994067,response,-0.849847885203758,1.1304124584048574,-1.0582789015155225,0.973447384095442,1.1156079214825791,-1.0732789015155222,low,high,,ISIC_0982855.JPG,9,ISIC_9612228.JPG,25,false,0.27000000000000013,hh,keypress(i),0,false,859162.3999999762,859162.099999994,850108.408,850124.099999994,850125.046,859167.386,4,500,24,
break,html.Screen,10_23_1,2023-11-17T16:45:31.854Z,,,,,,,,,,,NaN,,,,,,,,low,high,,,,,,false,,,,,false,859163.1999999881,859163,,859162.599999994,,859167.386,4,500,,
break_continue,html.Screen,10_23_2,2023-11-17T16:45:31.855Z,,,,,,,,,,,NaN,,,,,,,,low,high,,,,,,false,,,,,false,859163.6999999881,859163.599999994,,859163.3999999762,,859167.386,4,500,,
sequence,flow.Sequence,10_23,2023-11-17T16:45:31.855Z,,,,,,,,,,,9038.553999994067,completion,,,,,,,low,high,,,,,,false,,,,,false,859164,859163.599999994,850108.408,850124.099999994,850125.046,859167.386,4,500,,
trial,html.Screen,10_24_0,2023-11-17T16:45:39.790Z,,,,1,0.0060918352854008,-0.029032683404407,,0.04,false,ll,7930.913999982062,response,-1.1513073368404492,1.1304124584048574,-1.0582789015155225,-1.0485268550965705,1.1156079214825791,-1.0732789015155222,low,low,,ISIC_8436194.JPG,9,ISIC_0030666.JPG,25,false,0.12,lh,keypress(e),0,false,867098.5,867098.2999999821,859150.522,859164.099999994,859167.386,867108.732,4,500,25,
break,html.Screen,10_24_1,2023-11-17T16:45:39.791Z,,,,,,,,,,,NaN,,,,,,,,low,low,,,,,,false,,,,,false,867099.599999994,867099.1999999881,,867098.8999999762,,867108.732,4,500,,
break_continue,html.Screen,10_24_2,2023-11-17T16:45:39.791Z,,,,,,,,,,,NaN,,,,,,,,low,low,,,,,,false,,,,,false,867100.099999994,867099.8999999762,,867099.599999994,,867108.732,4,500,,
sequence,flow.Sequence,10_24,2023-11-17T16:45:39.792Z,,,,,,,,,,,7932.513999976101,completion,,,,,,,low,low,,,,,,false,,,,,false,867100.3999999762,867099.8999999762,859150.522,859164.099999994,859167.386,867108.732,4,500,,
trial,html.Screen,10_25_0,2023-11-17T16:45:46.325Z,,,,1,-0.0199897690678184,-0.0312486875504497,,0.04,false,ll,6524.567999982159,response,-1.1510001454240106,1.1304124584048574,-1.0582789015155225,-1.132540312667795,1.1156079214825791,-1.0732789015155222,low,low,,ISIC_5482426.JPG,9,ISIC_0009959.JPG,25,false,0.12,hl,keypress(j),0,false,873633.2999999821,873633.2999999821,867092.069,867100.5,867108.732,873648.606,4,500,26,
break,html.Screen,10_25_1,2023-11-17T16:45:46.325Z,,,,,,,,,,,NaN,,,,,,,,low,low,,,,,,false,,,,,false,873633.6999999881,873633.599999994,,873633.3999999762,,873648.606,4,500,,
break_continue,html.Screen,10_25_2,2023-11-17T16:45:46.325Z,,,,,,,,,,,NaN,,,,,,,,low,low,,,,,,false,,,,,false,873634,873633.8999999762,,873633.7999999821,,873648.606,4,500,,
sequence,flow.Sequence,10_25,2023-11-17T16:45:46.325Z,,,,,,,,,,,6525.167999976198,completion,,,,,,,low,low,,,,,,false,,,,,false,873634.099999994,873633.8999999762,867092.069,867100.5,867108.732,873648.606,4,500,,
trial,html.Screen,10_26_0,2023-11-17T16:45:52.421Z,,,,1,0.0060918352854008,-0.029032683404407,,0.04,true,ll,6080.293999976129,response,-0.9949679201447648,1.1304124584048574,-1.0582789015155225,-1.0468574143792184,1.1156079214825791,-1.0732789015155222,low,low,,ISIC_8436194.JPG,9,ISIC_6640753.JPG,25,false,0.12,ll,keypress(f),0,false,879729,879728.8999999762,873631.986,873634.1999999881,873648.606,879737.963,4,500,27,
break,html.Screen,10_26_1,2023-11-17T16:45:52.421Z,,,,,,,,,,,NaN,,,,,,,,low,low,,,,,,false,,,,,false,879729.2999999821,879729.1999999881,,879729.099999994,,879737.963,4,500,,
break_continue,html.Screen,10_26_2,2023-11-17T16:45:52.421Z,,,,,,,,,,,NaN,,,,,,,,low,low,,,,,,false,,,,,false,879729.5,879729.5,,879729.3999999762,,879737.963,4,500,,
sequence,flow.Sequence,10_26,2023-11-17T16:45:52.421Z,,,,,,,,,,,6080.893999999971,completion,,,,,,,low,low,,,,,,false,,,,,false,879729.599999994,879729.5,873631.986,873634.099999994,873648.606,879737.963,4,500,,
trial,html.Screen,10_27_0,2023-11-17T16:45:55.077Z,,,,1,-0.0086413421586899,-0.0360184993500958,,0.04,true,lh,2647.2369999880902,response,-0.8644465729542988,1.1304124584048574,-1.0582789015155225,0.8679598285079457,1.1156079214825791,-1.0732789015155222,low,high,,ISIC_0010767.JPG,8,ISIC_6718969.JPG,25,false,0.27000000000000013,lh,keypress(e),0,false,882385.3999999762,882385.1999999881,879721.274,879729.6999999881,879737.963,882390.629,4,500,28,
break,html.Screen,10_27_1,2023-11-17T16:45:55.077Z,,,,,,,,,,,NaN,,,,,,,,low,high,,,,,,false,,,,,false,882385.6999999881,882385.599999994,,882385.5,,882390.629,4,500,,
break_continue,html.Screen,10_27_2,2023-11-17T16:45:55.077Z,,,,,,,,,,,NaN,,,,,,,,low,high,,,,,,false,,,,,false,882385.8999999762,882385.8999999762,,882385.6999999881,,882390.629,4,500,,
sequence,flow.Sequence,10_27,2023-11-17T16:45:55.078Z,,,,,,,,,,,2647.9369999761693,completion,,,,,,,low,high,,,,,,false,,,,,false,882385.8999999762,882385.8999999762,879721.274,879729.599999994,879737.963,882390.629,4,500,,
trial,html.Screen,10_28_0,2023-11-17T16:46:00.685Z,,,,1,0.0050679133050021,0.0174815595031679,,0.04,true,hl,5602.470999994082,response,1.0822170028935367,1.1304124584048574,-1.0582789015155225,-1.1654796154432183,1.1156079214825791,-1.0732789015155222,high,low,,ISIC_9848743.JPG,9,ISIC_7288818.JPG,26,false,0.27000000000000013,hl,keypress(j),0,false,887993.2999999821,887993.099999994,882373.966,882386,882390.629,887996.234,4,500,29,
break,html.Screen,10_28_1,2023-11-17T16:46:00.685Z,,,,,,,,,,,NaN,,,,,,,,high,low,,,,,,false,,,,,false,887993.599999994,887993.599999994,,887993.3999999762,,887996.234,4,500,,
break_continue,html.Screen,10_28_2,2023-11-17T16:46:00.685Z,,,,,,,,,,,NaN,,,,,,,,high,low,,,,,,false,,,,,false,887993.8999999762,887993.6999999881,,887993.6999999881,,887996.234,4,500,,
sequence,flow.Sequence,10_28,2023-11-17T16:46:00.685Z,,,,,,,,,,,5603.070999988122,completion,,,,,,,high,low,,,,,,false,,,,,false,887993.8999999762,887993.6999999881,882373.966,882386,882390.629,887996.234,4,500,,
trial,html.Screen,10_29_0,2023-11-17T16:46:04.141Z,,,,1,-0.0189295602385628,-0.0128812415435153,,0.04,true,hl,3453.465999988024,response,1.2313629723857695,1.1304124584048574,-1.0582789015155225,-0.8233104214456342,1.1156079214825791,-1.0732789015155222,high,low,,ISIC_0010372.JPG,9,ISIC_3475660.JPG,26,false,0.27000000000000013,hl,keypress(j),0,false,891449.8999999762,891449.6999999881,887979.714,887993.8999999762,887996.234,891466.491,4,500,30,
break,html.Screen,10_29_1,2023-11-17T16:46:04.142Z,,,,,,,,,,,NaN,,,,,,,,high,low,,,,,,false,,,,,false,891450.6999999881,891450.5,,891450.099999994,,891466.491,4,500,,
break_continue,html.Screen,10_29_2,2023-11-17T16:46:04.143Z,,,,,,,,,,,NaN,,,,,,,,high,low,,,,,,false,,,,,false,891451.1999999881,891451,,891450.7999999821,,891466.491,4,500,,
sequence,flow.Sequence,10_29,2023-11-17T16:46:04.143Z,,,,,,,,,,,3454.765999999945,completion,,,,,,,high,low,,,,,,false,,,,,false,891451.2999999821,891451,887979.714,887993.8999999762,887996.234,891466.491,4,500,,
trial,html.Screen,10_30_0,2023-11-17T16:46:09.757Z,,,,1,-0.0361875505619981,0.0291457404567876,,0.04,true,hh,5598.30899998208,response,1.1474466950560966,1.1304124584048574,-1.0582789015155225,1.173734476257662,1.1156079214825791,-1.0732789015155222,high,high,,ISIC_0027480.JPG,9,ISIC_5216586.JPG,28,false,0.11,hh,keypress(i),0,false,897064.8999999762,897064.7999999821,891449.864,891451.3999999762,891466.491,897071.985,4,500,31,
break,html.Screen,10_30_1,2023-11-17T16:46:09.757Z,,,,,,,,,,,NaN,,,,,,,,high,high,,,,,,false,,,,,false,897065.1999999881,897065.099999994,,897065.099999994,,897071.985,4,500,,
break_continue,html.Screen,10_30_2,2023-11-17T16:46:09.757Z,,,,,,,,,,,NaN,,,,,,,,high,high,,,,,,false,,,,,false,897065.3999999762,897065.3999999762,,897065.2999999821,,897071.985,4,500,,
sequence,flow.Sequence,10_30,2023-11-17T16:46:09.757Z,,,,,,,,,,,5598.90899997612,completion,,,,,,,high,high,,,,,,false,,,,,false,897065.3999999762,897065.3999999762,891449.864,891451.2999999821,891466.491,897071.985,4,500,,
trial,html.Screen,10_31_0,2023-11-17T16:46:13.069Z,,,,1,-0.0063515208248796,-0.0194177605767913,,0.04,false,ll,3305.015000000014,response,-1.1119564877278971,1.1304124584048574,-1.0582789015155225,-0.9546609075308709,1.1156079214825791,-1.0732789015155222,low,low,,ISIC_5281908.JPG,9,ISIC_0056110.JPG,25,false,0.12,lh,keypress(e),0,false,900377.099999994,900377,897055.176,897065.5,897071.985,900392.236,4,500,32,
break,html.Screen,10_31_1,2023-11-17T16:46:13.069Z,,,,,,,,,,,NaN,,,,,,,,low,low,,,,,,false,,,,,false,900377.3999999762,900377.3999999762,,900377.1999999881,,900392.236,4,500,,
break_continue,html.Screen,10_31_2,2023-11-17T16:46:13.069Z,,,,,,,,,,,NaN,,,,,,,,low,low,,,,,,false,,,,,false,900377.599999994,900377.599999994,,900377.5,,900392.236,4,500,,
sequence,flow.Sequence,10_31,2023-11-17T16:46:13.069Z,,,,,,,,,,,3305.6149999940535,completion,,,,,,,low,low,,,,,,false,,,,,false,900377.6999999881,900377.599999994,897055.176,897065.3999999762,897071.985,900392.236,4,500,,
trial,html.Screen,10_32_0,2023-11-17T16:46:18.494Z,,,,1,0.00126575685933,0.0325046559638838,,0.04,false,ll,5410.063999982085,response,-1.1432120973785689,1.1304124584048574,-1.0582789015155225,-0.973254467915268,1.1156079214825791,-1.0732789015155222,low,low,,ISIC_5682259.JPG,8,ISIC_2072219.JPG,25,false,0.12,lh,keypress(e),0,false,905802.5,905802.2999999821,900375.342,900377.6999999881,900392.236,905830.733,4,500,33,
break,html.Screen,10_32_1,2023-11-17T16:46:18.495Z,,,,,,,,,,,NaN,,,,,,,,low,low,,,,,,false,,,,,false,905803.5,905803.2999999821,,905802.8999999762,,905830.733,4,500,,
break_continue,html.Screen,10_32_2,2023-11-17T16:46:18.496Z,,,,,,,,,,,NaN,,,,,,,,low,low,,,,,,false,,,,,false,905804.2999999821,905804,,905803.7999999821,,905830.733,4,500,,
sequence,flow.Sequence,10_32,2023-11-17T16:46:18.496Z,,,,,,,,,,,5411.7639999999665,completion,,,,,,,low,low,,,,,,false,,,,,false,905804.3999999762,905804,900375.342,900377.6999999881,900392.236,905830.733,4,500,,
trial,html.Screen,10_33_0,2023-11-17T16:46:26.413Z,,,,1,0.0399381815506136,0.0177751789152893,,0.04,true,lh,7890.866999994032,response,-0.8494721812820843,1.1304124584048574,-1.0582789015155225,1.3435429139974266,1.1156079214825791,-1.0732789015155222,low,high,,ISIC_3981425.JPG,9,ISIC_0033585.JPG,25,false,0.27000000000000013,lh,keypress(e),0,false,913721.7999999821,913721.599999994,905797.481,905804.599999994,905830.733,913738.67,4,500,34,
break,html.Screen,10_33_1,2023-11-17T16:46:26.414Z,,,,,,,,,,,NaN,,,,,,,,low,high,,,,,,false,,,,,false,913722.2999999821,913722.1999999881,,913722,,913738.67,4,500,,
break_continue,html.Screen,10_33_2,2023-11-17T16:46:26.414Z,,,,,,,,,,,NaN,,,,,,,,low,high,,,,,,false,,,,,false,913722.6999999881,913722.5,,913722.3999999762,,913738.67,4,500,,
sequence,flow.Sequence,10_33,2023-11-17T16:46:26.414Z,,,,,,,,,,,7891.766999999993,completion,,,,,,,low,high,,,,,,false,,,,,false,913722.7999999821,913722.5,905797.481,905804.599999994,905830.733,913738.67,4,500,,
trial,html.Screen,10_34_0,2023-11-17T16:46:32.005Z,,,,1,-0.0327772618698018,0.0056908372048728,,0.04,true,ll,5574.729999976116,response,-1.1655508270784471,1.1304124584048574,-1.0582789015155225,-1.1162776063248168,1.1156079214825791,-1.0732789015155222,low,low,,ISIC_7897925.JPG,9,ISIC_5509946.JPG,25,false,0.12,ll,keypress(f),0,false,919313.5,919313.3999999762,913721.893,913723,913738.67,919327.648,4,500,35,
break,html.Screen,10_34_1,2023-11-17T16:46:32.006Z,,,,,,,,,,,NaN,,,,,,,,low,low,,,,,,false,,,,,false,919314,919313.8999999762,,919313.6999999881,,919327.648,4,500,,
break_continue,html.Screen,10_34_2,2023-11-17T16:46:32.006Z,,,,,,,,,,,NaN,,,,,,,,low,low,,,,,,false,,,,,false,919314.3999999762,919314.2999999821,,919314.099999994,,919327.648,4,500,,
sequence,flow.Sequence,10_34,2023-11-17T16:46:32.006Z,,,,,,,,,,,5575.629999982077,completion,,,,,,,low,low,,,,,,false,,,,,false,919314.5,919314.2999999821,913721.893,913722.8999999762,913738.67,919327.648,4,500,,
trial,html.Screen,10_35_0,2023-11-17T16:46:36.445Z,,,,1,0.0071892445601978,-0.0246015408628738,,0.04,true,ll,4425.551999988034,response,-1.1569583426015195,1.1304124584048574,-1.0582789015155225,-1.02258614327008,1.1156079214825791,-1.0732789015155222,low,low,,ISIC_0014133.JPG,9,ISIC_5705973.JPG,25,false,0.12,ll,keypress(f),0,false,923753.2999999821,923753.1999999881,919310.845,919314.599999994,919327.648,923765.392,4,500,36,
break,html.Screen,10_35_1,2023-11-17T16:46:36.445Z,,,,,,,,,,,NaN,,,,,,,,low,low,,,,,,false,,,,,false,923753.599999994,923753.599999994,,923753.5,,923765.392,4,500,,
break_continue,html.Screen,10_35_2,2023-11-17T16:46:36.445Z,,,,,,,,,,,NaN,,,,,,,,low,low,,,,,,false,,,,,false,923753.8999999762,923753.7999999821,,923753.6999999881,,923765.392,4,500,,
sequence,flow.Sequence,10_35,2023-11-17T16:46:36.445Z,,,,,,,,,,,4426.151999982074,completion,,,,,,,low,low,,,,,,false,,,,,false,923753.8999999762,923753.7999999821,919310.845,919314.599999994,919327.648,923765.392,4,500,,
trial,html.Screen,10_36_0,2023-11-17T16:46:40.901Z,,,,1,0.0077673378094614,0.0021810768579373,,0.04,true,hh,4443.8079999880865,response,1.094624209823328,1.1304124584048574,-1.0582789015155225,1.0544499428769605,1.1156079214825791,-1.0732789015155222,high,high,,ISIC_0067621.JPG,8,ISIC_0055526.JPG,28,false,0.11,hh,keypress(i),0,false,928209.3999999762,928209.1999999881,923748.694,923754,923765.392,928219.907,4,500,37,
break,html.Screen,10_36_1,2023-11-17T16:46:40.901Z,,,,,,,,,,,NaN,,,,,,,,high,high,,,,,,false,,,,,false,928209.6999999881,928209.599999994,,928209.5,,928219.907,4,500,,
break_continue,html.Screen,10_36_2,2023-11-17T16:46:40.901Z,,,,,,,,,,,NaN,,,,,,,,high,high,,,,,,false,,,,,false,928209.8999999762,928209.8999999762,,928209.6999999881,,928219.907,4,500,,
sequence,flow.Sequence,10_36,2023-11-17T16:46:40.902Z,,,,,,,,,,,4444.507999976166,completion,,,,,,,high,high,,,,,,false,,,,,false,928209.8999999762,928209.8999999762,923748.694,923753.8999999762,923765.392,928219.907,4,500,,
trial,html.Screen,10_37_0,2023-11-17T16:46:45.205Z,,,,1,0.0158987717472563,0.0292472192292015,,0.04,false,ll,4293.492999976152,response,-1.0581281450494728,1.1304124584048574,-1.0582789015155225,-1.133169116569424,1.1156079214825791,-1.0732789015155222,low,low,,ISIC_1366765.JPG,9,ISIC_5490352.JPG,25,false,0.12,lh,keypress(e),0,false,932513.5,932513.3999999762,928203.184,928210,928219.907,932524.135,4,500,38,
break,html.Screen,10_37_1,2023-11-17T16:46:45.205Z,,,,,,,,,,,NaN,,,,,,,,low,low,,,,,,false,,,,,false,932513.8999999762,932513.7999999821,,932513.599999994,,932524.135,4,500,,
break_continue,html.Screen,10_37_2,2023-11-17T16:46:45.206Z,,,,,,,,,,,NaN,,,,,,,,low,low,,,,,,false,,,,,false,932514,932513.8999999762,,932513.8999999762,,932524.135,4,500,,
sequence,flow.Sequence,10_37,2023-11-17T16:46:45.206Z,,,,,,,,,,,4293.992999976152,completion,,,,,,,low,low,,,,,,false,,,,,false,932514.099999994,932513.8999999762,928203.184,928210,928219.907,932524.135,4,500,,
trial,html.Screen,10_38_0,2023-11-17T16:46:57.037Z,,,,1,0.0071892445601978,-0.0246015408628738,,0.04,true,hl,11821.16499998211,response,1.2313629723857695,1.1304124584048574,-1.0582789015155225,-0.8233104214456342,1.1156079214825791,-1.0732789015155222,high,low,,ISIC_0014133.JPG,8,ISIC_3475660.JPG,26,false,0.27000000000000013,hl,keypress(j),0,false,944345.3999999762,944345.2999999821,932507.609,932514.1999999881,932524.135,944352.649,4,500,39,
break,html.Screen,10_38_1,2023-11-17T16:46:57.038Z,,,,,,,,,,,NaN,,,,,,,,high,low,,,,,,false,,,,,false,944345.6999999881,944345.599999994,,944345.5,,944352.649,4,500,,
break_continue,html.Screen,10_38_2,2023-11-17T16:46:57.038Z,,,,,,,,,,,NaN,,,,,,,,high,low,,,,,,false,,,,,false,944345.7999999821,944345.7999999821,,944345.6999999881,,944352.649,4,500,,
sequence,flow.Sequence,10_38,2023-11-17T16:46:57.038Z,,,,,,,,,,,11821.66499998211,completion,,,,,,,high,low,,,,,,false,,,,,false,944345.8999999762,944345.7999999821,932507.609,932514.099999994,932524.135,944352.649,4,500,,
