sender,sender_type,sender_id,timestamp,meta,,age,blockNo,c1,c2,condition,control_tolerance,correct,correctResponse,duration,ended_on,f1,f1_high,f1_low,f2,f2_high,f2_low,feature_level1,feature_level2,gender,img_left,img_reveal,img_right,n_target_images,practice,range_tolerance,response,response_action,selection_duration,staircase,time_commit,time_end,time_render,time_run,time_show,time_switch,total_blocks,total_trials,trialNo,url
informed_consent,html.Screen,0,2023-11-17T15:26:18.238Z,"{""labjs_version"":""20.2.4"",""labjs_build"":{""flavor"":""development"",""commit"":""f5b4a49f956347addd546a832a3327688c2c0fef""},""location"":""https://labjs.felixhenninger.com/api/labjs_preview/index.html"",""userAgent"":""Mozilla/5.0 (Windows NT 10.0; Win64; x64) AppleWebKit/537.36 (KHTML, like Gecko) Chrome/119.0.0.0 Safari/537.36"",""platform"":""Win32"",""language"":""en-US"",""locale"":""en-US"",""timeZone"":""America/Chicago"",""timezoneOffset"":360,""screen_width"":1680,""screen_height"":1050,""scroll_width"":825,""scroll_height"":888,""window_innerWidth"":825,""window_innerHeight"":936,""devicePixelRatio"":1}",,,,,,,,,,29700.70300001192,response,,,,,,,,,,,,,,,,consent,click button,,,30383.30000001192,30374.30000001192,656.864,652,673.597,30381.414,,,,{}
Demography form,html.Form,1,2023-11-17T15:26:29.494Z,,,18,,,,,,,,11257.485999976157,form submission,,,,,,,,,female,,,,,,,,,,,41639.10000002384,41638.89999997616,30364.923,30383.600000023842,30381.414,41653.576,,,,
Welcome,html.Screen,2,2023-11-17T15:27:00.646Z,,,,,,,"[""asym"",""bor""]",,,,31136.72400001192,response,,,,,,,,,,,,,,,,continue,click button,,,72790.89999997616,72790.30000001192,41636.684,41639.19999998808,41653.576,72797.285,,,,
demo_instructions,html.Screen,3,2023-11-17T15:27:39.886Z,,,,,,,,,,,39233.01500001192,response,,,,,,,,,,,,,,,,continue,click button,,,112030.89999997616,112030.30000001192,72780.834,72791,72797.285,112090.464,,,,
trial,html.Screen,4_0_0,2023-11-17T15:27:54.992Z,,,,0,0.8816288864119318,-0.801867301188093,,,true,lh,15045.935999976151,response,-1.2331439637486756,1.2,-1.2,0.9691143900156988,1.2,-1.2,low,high,,ISIC_9196783.JPG,,ISIC_7877488.JPG,26,true,0.3600000000000002,lh,keypress(e),100,false,127136.80000001192,127136.39999997616,112023.696,112031,112090.464,127169.806,1,16,1,
sequence,flow.Sequence,4_0,2023-11-17T15:27:54.993Z,,,,,,,,,,,15045.935999976151,completion,,,,,,,low,high,,,,,,true,,,,,false,127137.39999997616,127136.39999997616,112023.696,112031,112090.464,127169.806,1,16,,
trial,html.Screen,4_1_0,2023-11-17T15:28:01.971Z,,,,0,0.8200962008791046,-0.7936051642828523,,,true,lh,6944.994000011924,response,-0.869932994914832,1.2,-1.2,0.8880533324432531,1.2,-1.2,low,high,,ISIC_0027031.JPG,,ISIC_8617084.JPG,33,true,0.42000000000000026,lh,keypress(e),100,false,134115.39999997616,134114.80000001192,127136.484,127137.60000002384,127169.806,134166.751,1,16,2,
sequence,flow.Sequence,4_1,2023-11-17T15:28:01.972Z,,,,,,,,,,,6944.994000011924,completion,,,,,,,low,high,,,,,,true,,,,,false,134116.10000002384,134114.80000001192,127136.484,127137.5,127169.806,134166.751,1,16,,
trial,html.Screen,4_2_0,2023-11-17T15:28:10.968Z,,,,0,0.7809949855371787,-0.8493861117004308,,,true,lh,8944.74900000001,response,-0.8487429103619056,1.2,-1.2,0.9778257804233036,1.2,-1.2,low,high,,ISIC_7450481.JPG,,ISIC_4554863.JPG,33,true,0.42000000000000026,lh,keypress(e),100,false,143112.10000002384,143111.5,134116.776,134116.5,134166.751,143150.912,1,16,3,
sequence,flow.Sequence,4_2,2023-11-17T15:28:10.969Z,,,,,,,,,,,8944.74900000001,completion,,,,,,,low,high,,,,,,true,,,,,false,143113,143111.5,134116.776,134116.39999997616,134166.751,143150.912,1,16,,
trial,html.Screen,4_3_0,2023-11-17T15:28:19.196Z,,,,0,0.7998855902596425,-1.1518579145663017,,,true,lh,8189.287999988068,response,-0.7877939497981142,1.2,-1.2,0.8415032780288271,1.2,-1.2,low,high,,ISIC_0025061.JPG,,ISIC_0067308.JPG,33,true,0.42000000000000026,lh,keypress(e),100,false,151340.80000001192,151340.19999998808,143117.627,143113.39999997616,143150.912,151367.157,1,16,4,
sequence,flow.Sequence,4_3,2023-11-17T15:28:19.197Z,,,,,,,,,,,8189.287999988068,completion,,,,,,,low,high,,,,,,true,,,,,false,151341.5,151340.19999998808,143117.627,143113.30000001192,143150.912,151367.157,1,16,,
trial,html.Screen,4_4_0,2023-11-17T15:28:33.946Z,,,,0,1.156827121261563,1.2544342720917778,,,true,ll,14723.143000011914,response,-1.0959058628476686,1.2,-1.2,-1.1684835186766898,1.2,-1.2,low,low,,ISIC_0060397.JPG,,ISIC_5920470.JPG,253,true,0.42000000000000026,ll,keypress(f),100,false,166090.89999997616,166090.30000001192,151350.247,151341.89999997616,151367.157,166112.297,1,16,5,
sequence,flow.Sequence,4_4,2023-11-17T15:28:33.947Z,,,,,,,,,,,14723.143000011914,completion,,,,,,,low,low,,,,,,true,,,,,false,166091.69999998808,166090.30000001192,151350.247,151341.80000001192,151367.157,166112.297,1,16,,
trial,html.Screen,4_5_0,2023-11-17T15:28:39.478Z,,,,0,1.2493792664822851,1.1336008561684745,,,true,ll,5509.602999976167,response,-1.086647361897092,1.2,-1.2,-1.1528935990320313,1.2,-1.2,low,low,,ISIC_0061475.JPG,,ISIC_3505339.JPG,26,true,0.15000000000000002,ll,keypress(f),100,false,171622.39999997616,171621.89999997616,166095.64,166092,166112.297,171639.709,1,16,6,
sequence,flow.Sequence,4_5,2023-11-17T15:28:39.479Z,,,,,,,,,,,5509.602999976167,completion,,,,,,,low,low,,,,,,true,,,,,false,171623.10000002384,171621.89999997616,166095.64,166091.89999997616,166112.297,171639.709,1,16,,
trial,html.Screen,4_6_0,2023-11-17T15:28:44.705Z,,,,0,1.2282561398079586,1.210457198775374,,,true,ll,5209.891000023839,response,-1.1642596483638106,1.2,-1.2,-1.109799097093339,1.2,-1.2,low,low,,ISIC_9141817.JPG,,ISIC_0765584.JPG,26,true,0.15000000000000002,ll,keypress(f),100,false,176849.89999997616,176849.60000002384,171623.07,171623.5,171639.709,176866.648,1,16,7,
sequence,flow.Sequence,4_6,2023-11-17T15:28:44.706Z,,,,,,,,,,,5209.891000023839,completion,,,,,,,low,low,,,,,,true,,,,,false,176850.5,176849.60000002384,171623.07,171623.39999997616,171639.709,176866.648,1,16,,
trial,html.Screen,4_7_0,2023-11-17T15:28:48.637Z,,,,0,1.1253220985777015,1.108725659461368,,,true,ll,3914.1520000119344,response,-1.057008495826831,1.2,-1.2,-1.1278122585028287,1.2,-1.2,low,low,,ISIC_0054954.JPG,,ISIC_2819798.JPG,26,true,0.15000000000000002,ll,keypress(f),100,false,180781.19999998808,180780.80000001192,176849.877,176850.60000002384,176866.648,180824.226,1,16,8,
sequence,flow.Sequence,4_7,2023-11-17T15:28:48.637Z,,,,,,,,,,,3914.1520000119344,completion,,,,,,,low,low,,,,,,true,,,,,false,180781.80000001192,180780.80000001192,176849.877,176850.5,176866.648,180824.226,1,16,,
trial,html.Screen,4_8_0,2023-11-17T15:28:56.420Z,,,,0,-0.879102500583965,1.0933081951979773,,,true,hl,7739.673999976163,response,0.8623414234919863,1.2,-1.2,-0.782830143980698,1.2,-1.2,high,low,,ISIC_0046223.JPG,,ISIC_2727016.JPG,27,true,0.42000000000000026,hl,keypress(j),100,false,188564.10000002384,188563.89999997616,180790.955,180782,180824.226,188606.038,1,16,9,
sequence,flow.Sequence,4_8,2023-11-17T15:28:56.420Z,,,,,,,,,,,7739.673999976163,completion,,,,,,,high,low,,,,,,true,,,,,false,188564.5,188563.89999997616,180790.955,180782,180824.226,188606.038,1,16,,
trial,html.Screen,4_9_0,2023-11-17T15:29:01.441Z,,,,0,-0.8809306963311293,0.8614910030038974,,,true,hl,4979.2620000119205,response,1.0022829373011404,1.2,-1.2,-0.8311726972863814,1.2,-1.2,high,low,,ISIC_0013731.JPG,,ISIC_0033287.JPG,27,true,0.42000000000000026,hl,keypress(j),100,false,193585.69999998808,193585.30000001192,188572.71,188564.60000002384,188606.038,193632.498,1,16,10,
sequence,flow.Sequence,4_9,2023-11-17T15:29:01.442Z,,,,,,,,,,,4979.2620000119205,completion,,,,,,,high,low,,,,,,true,,,,,false,193586.39999997616,193585.30000001192,188572.71,188564.60000002384,188606.038,193632.498,1,16,,
trial,html.Screen,4_10_0,2023-11-17T15:29:08.191Z,,,,0,-1.0026266089287914,1.0913275913920335,,,true,hl,6702.002000000008,response,1.0213365328004047,1.2,-1.2,-1.088524359911891,1.2,-1.2,high,low,,ISIC_0033520.JPG,,ISIC_5434229.JPG,27,true,0.42000000000000026,hl,keypress(j),100,false,200334.89999997616,200334.5,193599.165,193586.60000002384,193632.498,200378.962,1,16,11,
sequence,flow.Sequence,4_10,2023-11-17T15:29:08.191Z,,,,,,,,,,,6702.002000000008,completion,,,,,,,high,low,,,,,,true,,,,,false,200335.60000002384,200334.5,193599.165,193586.60000002384,193632.498,200378.962,1,16,,
trial,html.Screen,4_11_0,2023-11-17T15:29:19.731Z,,,,0,-1.020990671779317,1.0116513850520903,,,true,hl,11495.838000011921,response,0.7911024675435955,1.2,-1.2,-0.7975977016137676,1.2,-1.2,high,low,,ISIC_0011995.JPG,,ISIC_5813642.JPG,27,true,0.42000000000000026,hl,keypress(j),100,false,211875.19999998808,211874.80000001192,200345.612,200335.89999997616,200378.962,211901.394,1,16,12,
sequence,flow.Sequence,4_11,2023-11-17T15:29:19.731Z,,,,,,,,,,,11495.838000011921,completion,,,,,,,high,low,,,,,,true,,,,,false,211875.89999997616,211874.80000001192,200345.612,200335.69999998808,200378.962,211901.394,1,16,,
trial,html.Screen,4_12_0,2023-11-17T15:29:27.834Z,,,,0,-1.2024083555600384,-1.149077673153018,,,true,hh,8077.106,response,1.3106425847970045,1.2,-1.2,1.5470937147118164,1.2,-1.2,high,high,,ISIC_3566243.JPG,,ISIC_0063164.JPG,245,true,0.3600000000000002,hh,keypress(i),100,false,219978.69999998808,219978.5,211884.739,211876.19999998808,211901.394,220000.663,1,16,13,
sequence,flow.Sequence,4_12,2023-11-17T15:29:27.835Z,,,,,,,,,,,8077.106,completion,,,,,,,high,high,,,,,,true,,,,,false,219978.89999997616,219978.5,211884.739,211876.10000002384,211901.394,220000.663,1,16,,
trial,html.Screen,4_13_0,2023-11-17T15:29:30.133Z,,,,0,-1.2503149164557643,-1.0796591227570405,,,true,hh,2276.6370000119205,response,1.2923059965680113,1.2,-1.2,1.222688159093534,1.2,-1.2,high,high,,ISIC_2466892.JPG,,ISIC_0072175.JPG,53,true,0.15000000000000002,hh,keypress(i),100,false,222277.60000002384,222277.30000001192,219983.837,219979,220000.663,222305.037,1,16,14,
sequence,flow.Sequence,4_13,2023-11-17T15:29:30.134Z,,,,,,,,,,,2276.6370000119205,completion,,,,,,,high,high,,,,,,true,,,,,false,222278.19999998808,222277.30000001192,219983.837,219979,220000.663,222305.037,1,16,,
trial,html.Screen,4_14_0,2023-11-17T15:29:32.252Z,,,,0,-1.131522954199764,-1.1047184491749509,,,true,hh,2091.2630000119098,response,1.1383813631375823,1.2,-1.2,1.1319312220332556,1.2,-1.2,high,high,,ISIC_1868816.JPG,,ISIC_6227397.JPG,53,true,0.15000000000000002,hh,keypress(i),100,false,224396.39999997616,224396.30000001192,222288.387,222278.39999997616,222305.037,224425.793,1,16,15,
sequence,flow.Sequence,4_14,2023-11-17T15:29:32.252Z,,,,,,,,,,,2091.2630000119098,completion,,,,,,,high,high,,,,,,true,,,,,false,224396.69999998808,224396.30000001192,222288.387,222278.39999997616,222305.037,224425.793,1,16,,
trial,html.Screen,4_15_0,2023-11-17T15:29:34.489Z,,,,0,-1.0870240111136478,-1.332340670965917,,,true,hh,2207.106999976153,response,1.2631894117279046,1.2,-1.2,1.0916958871221865,1.2,-1.2,high,high,,ISIC_0000660.JPG,,ISIC_0065748.JPG,53,true,0.15000000000000002,hh,keypress(i),100,false,226633.30000001192,226632.89999997616,224409.097,224396.69999998808,224425.793,226663.45,1,16,16,
sequence,flow.Sequence,4_15,2023-11-17T15:29:34.490Z,,,,,,,,,,,2207.106999976153,completion,,,,,,,high,high,,,,,,true,,,,,false,226634,226632.89999997616,224409.097,224396.69999998808,224425.793,226663.45,1,16,,
demonstration_loop,flow.Loop,4,2023-11-17T15:29:34.490Z,,,,,,,,,,,114542.43599997615,completion,,,,,,,,,,,,,,true,,,,,false,226634.39999997616,226632.89999997616,112023.696,112031,112090.464,226663.45,1,16,,
practice_instructions,html.Screen,5,2023-11-17T15:29:49.534Z,,,,,,,,,,,15006.949999976147,response,,,,,,,,,,,,,,,,continue,click button,,,241678.30000001192,241670.39999997616,226646.811,226634.60000002384,226663.45,241726.103,,,,
trial,html.Screen,6_0_0,2023-11-17T15:30:03.957Z,,,,1,0.8035152873995188,-0.82868450251632,,,true,lh,14367.997000023839,response,-1.0751036484083878,1.2,-1.2,1.143906455483852,1.2,-1.2,low,high,,ISIC_0010671.JPG,,ISIC_0064406.JPG,26,true,0.3600000000000002,lh,keypress(e),0,false,256101.19999998808,256094.10000002384,241659.605,241678.5,241726.103,256120.799,1,40,1,
sequence,flow.Sequence,6_0,2023-11-17T15:30:03.957Z,,,,,,,,,,,14367.997000023839,completion,,,,,,,low,high,,,,,,true,,,,,false,256101.30000001192,256094.10000002384,241659.605,241678.5,241726.103,256120.799,1,40,,
trial,html.Screen,6_1_0,2023-11-17T15:30:11.945Z,,,,1,1.276222161935671,-0.9657780821973284,,,true,lh,7967.40099998808,response,-0.879102500583965,1.2,-1.2,1.0933081951979773,1.2,-1.2,low,high,,ISIC_6710411.JPG,,ISIC_0046223.JPG,33,true,0.42000000000000026,lh,keypress(e),0,false,264088.60000002384,264088.1999999881,256104.117,256101.39999997616,256120.799,264102.991,1,40,2,
sequence,flow.Sequence,6_1,2023-11-17T15:30:11.945Z,,,,,,,,,,,7967.40099998808,completion,,,,,,,low,high,,,,,,true,,,,,false,264089,264088.1999999881,256104.117,256101.39999997616,256120.799,264102.991,1,40,,
trial,html.Screen,6_2_0,2023-11-17T15:30:15.641Z,,,,1,-1.1137763092539212,-1.1599906701455132,,,true,hh,3681.309000011941,response,1.0351900568634125,1.2,-1.2,1.060448537312289,1.2,-1.2,high,high,,ISIC_5413788.JPG,,ISIC_4377208.JPG,339,true,0.42000000000000026,hh,keypress(i),0,false,267784.6999999881,267784.3000000119,264086.454,264089.39999997616,264102.991,267793.584,1,40,3,
sequence,flow.Sequence,6_2,2023-11-17T15:30:15.641Z,,,,,,,,,,,3681.309000011941,completion,,,,,,,high,high,,,,,,true,,,,,false,267785.3000000119,267784.3000000119,264086.454,264089.1999999881,264102.991,267793.584,1,40,,
trial,html.Screen,6_3_0,2023-11-17T15:30:25.873Z,,,,1,1.2750452296609045,1.1682369131232675,,,true,ll,10222.716000011947,response,-1.057008495826831,1.2,-1.2,-1.1278122585028287,1.2,-1.2,low,low,,ISIC_0066399.JPG,,ISIC_2819798.JPG,26,true,0.15000000000000002,ll,keypress(f),0,false,278016.6999999881,278016.3000000119,267777.024,267785.60000002384,267793.584,278030.125,1,40,4,
sequence,flow.Sequence,6_3,2023-11-17T15:30:25.873Z,,,,,,,,,,,10222.716000011947,completion,,,,,,,low,low,,,,,,true,,,,,false,278017.3000000119,278016.3000000119,267777.024,267785.5,267793.584,278030.125,1,40,,
trial,html.Screen,6_4_0,2023-11-17T15:30:28.815Z,,,,1,1.1164729501046406,1.2978935747992253,,,true,ll,2929.074999988079,response,-1.0717785279820962,1.2,-1.2,-1.1267239445830604,1.2,-1.2,low,low,,ISIC_0034166.JPG,,ISIC_9948815.JPG,26,true,0.15000000000000002,ll,keypress(f),0,false,280959.3000000119,280959.1999999881,278013.499,278017.5,278030.125,281019.264,1,40,5,
sequence,flow.Sequence,6_4,2023-11-17T15:30:28.815Z,,,,,,,,,,,2929.074999988079,completion,,,,,,,low,low,,,,,,true,,,,,false,280959.5,280959.1999999881,278013.499,278017.5,278030.125,281019.264,1,40,,
trial,html.Screen,6_5_0,2023-11-17T15:30:35.273Z,,,,1,-0.8979276789594874,0.925374811016654,,,true,hl,6397.036000011896,response,1.0213365328004047,1.2,-1.2,-1.088524359911891,1.2,-1.2,high,low,,ISIC_4208361.JPG,,ISIC_5434229.JPG,27,true,0.42000000000000026,hl,keypress(j),0,false,287416.6999999881,287416.3000000119,280952.543,280959.5,281019.264,287431.781,1,40,6,
sequence,flow.Sequence,6_5,2023-11-17T15:30:35.273Z,,,,,,,,,,,6397.036000011896,completion,,,,,,,high,low,,,,,,true,,,,,false,287417.3000000119,287416.3000000119,280952.543,280959.5,281019.264,287431.781,1,40,,
trial,html.Screen,6_6_0,2023-11-17T15:30:39.888Z,,,,1,1.2282561398079586,1.210457198775374,,,true,ll,4600.319000023825,response,-0.9786457729523576,1.2,-1.2,-1.1189056385517386,1.2,-1.2,low,low,,ISIC_9141817.JPG,,ISIC_3926019.JPG,179,true,0.3600000000000002,ll,keypress(f),0,false,292032.5,292032.10000002384,287415.252,287417.5,287431.781,292040.726,1,40,7,
sequence,flow.Sequence,6_6,2023-11-17T15:30:39.889Z,,,,,,,,,,,4600.319000023825,completion,,,,,,,low,low,,,,,,true,,,,,false,292033,292032.10000002384,287415.252,287417.5,287431.781,292040.726,1,40,,
trial,html.Screen,6_7_0,2023-11-17T15:30:43.911Z,,,,1,-1.0959058628476686,-1.1684835186766898,,,true,hh,4014.3740000238176,response,1.2322060291690602,1.2,-1.2,1.2686491386389651,1.2,-1.2,high,high,,ISIC_5920470.JPG,,ISIC_0011697.JPG,30,true,0.1,hh,keypress(i),0,false,296055.3000000119,296055.10000002384,292024.211,292033.1999999881,292040.726,296065.216,1,40,8,
sequence,flow.Sequence,6_7,2023-11-17T15:30:43.912Z,,,,,,,,,,,4014.3740000238176,completion,,,,,,,high,high,,,,,,true,,,,,false,296055.5,296055.10000002384,292024.211,292033.1999999881,292040.726,296065.216,1,40,,
trial,html.Screen,6_8_0,2023-11-17T15:30:48.185Z,,,,1,-1.2706447584800626,-1.0903308007916603,,,true,hh,4263.183999976143,response,1.0651492409820618,1.2,-1.2,1.1862499256725747,1.2,-1.2,high,high,,ISIC_9425937.JPG,,ISIC_0065421.JPG,53,true,0.15000000000000002,hh,keypress(i),0,false,300328.8000000119,300328.39999997616,296048.529,296055.6999999881,296065.216,300373.659,1,40,9,
sequence,flow.Sequence,6_8,2023-11-17T15:30:48.185Z,,,,,,,,,,,4263.183999976143,completion,,,,,,,high,high,,,,,,true,,,,,false,300329.39999997616,300328.39999997616,296048.529,296055.60000002384,296065.216,300373.659,1,40,,
trial,html.Screen,6_9_0,2023-11-17T15:30:55.049Z,,,,1,0.9873794329144926,-0.7991077882008257,,,true,lh,6818.540999988094,response,-1.331700944308701,1.2,-1.2,0.9395196143259436,1.2,-1.2,low,high,,ISIC_0013498.JPG,,ISIC_1668831.JPG,26,true,0.3600000000000002,lh,keypress(e),0,false,307192.60000002384,307192.1999999881,300323.655,300329.6999999881,300373.659,307220.257,1,40,10,
sequence,flow.Sequence,6_9,2023-11-17T15:30:55.049Z,,,,,,,,,,,6818.540999988094,completion,,,,,,,low,high,,,,,,true,,,,,false,307193.10000002384,307192.1999999881,300323.655,300329.60000002384,300373.659,307220.257,1,40,,
trial,html.Screen,6_10_0,2023-11-17T15:31:00.680Z,,,,1,-1.1137763092539212,-1.1599906701455132,,,true,hh,5603.642999976175,response,0.8489974003990046,1.2,-1.2,1.3952427972894204,1.2,-1.2,high,high,,ISIC_5413788.JPG,,ISIC_0032624.JPG,339,true,0.42000000000000026,hh,keypress(i),0,false,312824.1999999881,312823.89999997616,307186.959,307193.3000000119,307220.257,312881.271,1,40,11,
sequence,flow.Sequence,6_10,2023-11-17T15:31:00.681Z,,,,,,,,,,,5603.642999976175,completion,,,,,,,high,high,,,,,,true,,,,,false,312824.6999999881,312823.89999997616,307186.959,307193.10000002384,307220.257,312881.271,1,40,,
trial,html.Screen,6_11_0,2023-11-17T15:31:10.615Z,,,,1,0.8947611078712571,-0.8960964505004638,,,true,lh,9877.529000011913,response,-0.869932994914832,1.2,-1.2,0.8880533324432531,1.2,-1.2,low,high,,ISIC_6441128.JPG,,ISIC_8617084.JPG,26,true,0.3600000000000002,lh,keypress(e),0,false,322758.89999997616,322758.8000000119,312814.69,312824.89999997616,312881.271,322783.905,1,40,12,
sequence,flow.Sequence,6_11,2023-11-17T15:31:10.615Z,,,,,,,,,,,9877.529000011913,completion,,,,,,,low,high,,,,,,true,,,,,false,322759,322758.8000000119,312814.69,312824.89999997616,312881.271,322783.905,1,40,,
trial,html.Screen,6_12_0,2023-11-17T15:31:16.808Z,,,,1,-1.011737552725394,0.8500530224490773,,,true,hl,6168.195000023814,response,1.276222161935671,1.2,-1.2,-0.9657780821973284,1.2,-1.2,high,low,,ISIC_2998367.JPG,,ISIC_6710411.JPG,27,true,0.42000000000000026,hl,keypress(j),0,false,328952.3000000119,328952.10000002384,322750.654,322759.10000002384,322783.905,328979.284,1,40,13,
sequence,flow.Sequence,6_12,2023-11-17T15:31:16.809Z,,,,,,,,,,,6168.195000023814,completion,,,,,,,high,low,,,,,,true,,,,,false,328952.8000000119,328952.10000002384,322750.654,322759.10000002384,322783.905,328979.284,1,40,,
trial,html.Screen,6_13_0,2023-11-17T15:31:18.489Z,,,,1,-0.8534691366511764,1.03975580494588,,,true,hl,1652.915999988094,response,0.7833710010171356,1.2,-1.2,-0.9315588090336896,1.2,-1.2,high,low,,ISIC_0056788.JPG,,ISIC_3826102.JPG,27,true,0.42000000000000026,hl,keypress(j),0,false,330632.39999997616,330632.1999999881,328946.078,328953.10000002384,328979.284,330682.596,1,40,14,
sequence,flow.Sequence,6_13,2023-11-17T15:31:18.489Z,,,,,,,,,,,1652.915999988094,completion,,,,,,,high,low,,,,,,true,,,,,false,330633,330632.1999999881,328946.078,328953,328979.284,330682.596,1,40,,
trial,html.Screen,6_14_0,2023-11-17T15:31:20.095Z,,,,1,0.948927472020595,-1.0660437155921598,,,false,lh,1556.5040000238223,response,-1.0865333402803938,1.2,-1.2,1.0542635307358266,1.2,-1.2,low,high,,ISIC_5808758.JPG,,ISIC_0034006.JPG,26,true,0.3600000000000002,ll,keypress(f),0,false,332239.1999999881,332239.10000002384,330632.729,330633.1999999881,330682.596,332252.341,1,40,15,
sequence,flow.Sequence,6_14,2023-11-17T15:31:20.095Z,,,,,,,,,,,1556.5040000238223,completion,,,,,,,low,high,,,,,,true,,,,,false,332239.3000000119,332239.10000002384,330632.729,330633.1999999881,330682.596,332252.341,1,40,,
trial,html.Screen,6_15_0,2023-11-17T15:31:27.527Z,,,,1,0.8035152873995188,-0.82868450251632,,,true,lh,7418.459000011906,response,-1.2331439637486756,1.2,-1.2,0.9691143900156988,1.2,-1.2,low,high,,ISIC_0010671.JPG,,ISIC_7877488.JPG,33,true,0.42000000000000026,lh,keypress(e),0,false,339670.89999997616,339670.8000000119,332235.789,332239.39999997616,332252.341,339683.427,1,40,16,
sequence,flow.Sequence,6_15,2023-11-17T15:31:27.527Z,,,,,,,,,,,7418.459000011906,completion,,,,,,,low,high,,,,,,true,,,,,false,339671.10000002384,339670.8000000119,332235.789,332239.39999997616,332252.341,339683.427,1,40,,
trial,html.Screen,6_16_0,2023-11-17T15:31:33.633Z,,,,1,-0.869932994914832,0.8880533324432531,,,true,hl,6092.772999988054,response,1.0213365328004047,1.2,-1.2,-1.088524359911891,1.2,-1.2,high,low,,ISIC_8617084.JPG,,ISIC_5434229.JPG,27,true,0.42000000000000026,hl,keypress(j),0,false,345776.60000002384,345776.1999999881,339666.872,339671.1999999881,339683.427,345796.135,1,40,17,
sequence,flow.Sequence,6_16,2023-11-17T15:31:33.633Z,,,,,,,,,,,6092.772999988054,completion,,,,,,,high,low,,,,,,true,,,,,false,345777.10000002384,345776.1999999881,339666.872,339671.10000002384,339683.427,345796.135,1,40,,
trial,html.Screen,6_17_0,2023-11-17T15:31:37.057Z,,,,1,-0.869932994914832,0.8880533324432531,,,true,hl,3404.1650000119116,response,0.8947611078712571,1.2,-1.2,-0.8960964505004638,1.2,-1.2,high,low,,ISIC_8617084.JPG,,ISIC_6441128.JPG,27,true,0.42000000000000026,hl,keypress(j),0,false,349200.60000002384,349200.3000000119,345762.159,345777.39999997616,345796.135,349218.938,1,40,18,
sequence,flow.Sequence,6_17,2023-11-17T15:31:37.057Z,,,,,,,,,,,3404.1650000119116,completion,,,,,,,high,low,,,,,,true,,,,,false,349201.1999999881,349200.3000000119,345762.159,345777.1999999881,345796.135,349218.938,1,40,,
trial,html.Screen,6_18_0,2023-11-17T15:31:38.713Z,,,,1,1.1877026569952844,1.1604367569896263,,,true,ll,1637.4619999761344,response,-0.9517665083259332,1.2,-1.2,-1.2717175116510189,1.2,-1.2,low,low,,ISIC_0064589.JPG,,ISIC_2421696.JPG,179,true,0.3600000000000002,ll,keypress(f),0,false,350856.8000000119,350856.39999997616,349185.541,349201.39999997616,349218.938,350905.288,1,40,19,
sequence,flow.Sequence,6_18,2023-11-17T15:31:38.713Z,,,,,,,,,,,1637.4619999761344,completion,,,,,,,low,low,,,,,,true,,,,,false,350857.1999999881,350856.39999997616,349185.541,349201.3000000119,349218.938,350905.288,1,40,,
trial,html.Screen,6_19_0,2023-11-17T15:31:40.401Z,,,,1,-0.8579451262594331,0.9633172970727744,,,true,hl,1638.9119999880786,response,0.7809949855371787,1.2,-1.2,-0.8493861117004308,1.2,-1.2,high,low,,ISIC_0067172.JPG,,ISIC_7450481.JPG,27,true,0.42000000000000026,hl,keypress(j),0,false,352544.5,352544.1999999881,350855.437,350857.60000002384,350905.288,352558.61,1,40,20,
sequence,flow.Sequence,6_19,2023-11-17T15:31:40.401Z,,,,,,,,,,,1638.9119999880786,completion,,,,,,,high,low,,,,,,true,,,,,false,352545,352544.1999999881,350855.437,350857.5,350905.288,352558.61,1,40,,
trial,html.Screen,6_20_0,2023-11-17T15:31:41.761Z,,,,1,-1.201100953917304,-1.1751492358160105,,,true,hh,1345.690000011935,response,1.0657476601009717,1.2,-1.2,0.970732112511705,1.2,-1.2,high,high,,ISIC_0647224.JPG,,ISIC_0010778.JPG,245,true,0.3600000000000002,hh,keypress(i),0,false,353904.60000002384,353904.3000000119,352542.039,352545.1999999881,352558.61,353911.14,1,40,21,
sequence,flow.Sequence,6_20,2023-11-17T15:31:41.761Z,,,,,,,,,,,1345.690000011935,completion,,,,,,,high,high,,,,,,true,,,,,false,353905.10000002384,353904.3000000119,352542.039,352545.1999999881,352558.61,353911.14,1,40,,
trial,html.Screen,6_21_0,2023-11-17T15:31:43.657Z,,,,1,-1.1210325063849345,-1.1498648320956202,,,true,hh,1889.160000011907,response,1.1512633312172555,1.2,-1.2,1.337709216648353,1.2,-1.2,high,high,,ISIC_0032162.JPG,,ISIC_6512653.JPG,53,true,0.15000000000000002,hh,keypress(i),0,false,355800.6999999881,355800.3000000119,353894.522,353905.39999997616,353911.14,355831.552,1,40,22,
sequence,flow.Sequence,6_21,2023-11-17T15:31:43.657Z,,,,,,,,,,,1889.160000011907,completion,,,,,,,high,high,,,,,,true,,,,,false,355801.3000000119,355800.3000000119,353894.522,353905.3000000119,353911.14,355831.552,1,40,,
trial,html.Screen,6_22_0,2023-11-17T15:31:44.993Z,,,,1,1.0213365328004047,-1.088524359911891,,,true,lh,1304.647999988054,response,-0.8579451262594331,1.2,-1.2,0.9633172970727744,1.2,-1.2,low,high,,ISIC_5434229.JPG,,ISIC_0067172.JPG,26,true,0.3600000000000002,lh,keypress(e),0,false,357136.5,357136.1999999881,355798.373,355801.60000002384,355831.552,357150.887,1,40,23,
sequence,flow.Sequence,6_22,2023-11-17T15:31:44.993Z,,,,,,,,,,,1304.647999988054,completion,,,,,,,low,high,,,,,,true,,,,,false,357137,357136.1999999881,355798.373,355801.5,355831.552,357150.887,1,40,,
trial,html.Screen,6_23_0,2023-11-17T15:31:46.280Z,,,,1,1.2282561398079586,1.210457198775374,,,true,ll,1272.413000011933,response,-1.200284020742371,1.2,-1.2,-1.0002918079433898,1.2,-1.2,low,low,,ISIC_9141817.JPG,,ISIC_0678758.JPG,253,true,0.42000000000000026,ll,keypress(f),0,false,358423.5,358423.3000000119,357134.321,357137.3000000119,357150.887,358436.686,1,40,24,
sequence,flow.Sequence,6_23,2023-11-17T15:31:46.280Z,,,,,,,,,,,1272.413000011933,completion,,,,,,,low,low,,,,,,true,,,,,false,358423.8000000119,358423.3000000119,357134.321,357137.1999999881,357150.887,358436.686,1,40,,
trial,html.Screen,6_24_0,2023-11-17T15:31:47.377Z,,,,1,-1.0870240111136478,-1.332340670965917,,,true,hh,1083.614000011934,response,1.2282561398079586,1.2,-1.2,1.210457198775374,1.2,-1.2,high,high,,ISIC_0000660.JPG,,ISIC_9141817.JPG,30,true,0.1,hh,keypress(i),0,false,359520.60000002384,359520.3000000119,358420.182,358423.89999997616,358436.686,359555.472,1,40,25,
sequence,flow.Sequence,6_24,2023-11-17T15:31:47.377Z,,,,,,,,,,,1083.614000011934,completion,,,,,,,high,high,,,,,,true,,,,,false,359521.3000000119,359520.3000000119,358420.182,358423.89999997616,358436.686,359555.472,1,40,,
trial,html.Screen,6_25_0,2023-11-17T15:31:48.496Z,,,,1,-0.8487429103619056,0.9778257804233036,,,true,hl,1083.828000011912,response,0.8623414234919863,1.2,-1.2,-0.782830143980698,1.2,-1.2,high,low,,ISIC_4554863.JPG,,ISIC_2727016.JPG,27,true,0.42000000000000026,hl,keypress(j),0,false,360639.5,360639.3000000119,359505.639,359521.60000002384,359555.472,360658.005,1,40,26,
sequence,flow.Sequence,6_25,2023-11-17T15:31:48.496Z,,,,,,,,,,,1083.828000011912,completion,,,,,,,high,low,,,,,,true,,,,,false,360639.6999999881,360639.3000000119,359505.639,359521.60000002384,359555.472,360658.005,1,40,,
trial,html.Screen,6_26_0,2023-11-17T15:31:50.007Z,,,,1,-1.131522954199764,-1.1047184491749509,,,true,hh,1492.9949999999953,response,0.8809051780367407,1.2,-1.2,1.044525830449456,1.2,-1.2,high,high,,ISIC_1868816.JPG,,ISIC_0029212.JPG,245,true,0.3600000000000002,hh,keypress(i),0,false,362151.1999999881,362151,360624.367,360639.89999997616,360658.005,362160.525,1,40,27,
sequence,flow.Sequence,6_26,2023-11-17T15:31:50.008Z,,,,,,,,,,,1492.9949999999953,completion,,,,,,,high,high,,,,,,true,,,,,false,362151.39999997616,362151,360624.367,360639.8000000119,360658.005,362160.525,1,40,,
trial,html.Screen,6_27_0,2023-11-17T15:31:51.072Z,,,,1,-1.131522954199764,-1.1047184491749509,,,true,hh,1054.7750000118976,response,1.2181031651370575,1.2,-1.2,1.2158573487067317,1.2,-1.2,high,high,,ISIC_1868816.JPG,,ISIC_7242312.JPG,53,true,0.15000000000000002,hh,keypress(i),0,false,363215.5,363215.3000000119,362144.063,362151.5,362160.525,363246.009,1,40,28,
sequence,flow.Sequence,6_27,2023-11-17T15:31:51.072Z,,,,,,,,,,,1054.7750000118976,completion,,,,,,,high,high,,,,,,true,,,,,false,363215.6999999881,363215.3000000119,362144.063,362151.39999997616,362160.525,363246.009,1,40,,
trial,html.Screen,6_28_0,2023-11-17T15:32:04.569Z,,,,1,-1.2075172235545184,0.9116724966267612,,,true,hl,13466.390999976138,response,0.7809949855371787,1.2,-1.2,-0.8493861117004308,1.2,-1.2,high,low,,ISIC_0024235.JPG,,ISIC_7450481.JPG,27,true,0.42000000000000026,hl,keypress(j),0,false,376712.6999999881,376712.39999997616,363212.711,363215.89999997616,363246.009,376722.226,1,40,29,
sequence,flow.Sequence,6_28,2023-11-17T15:32:04.570Z,,,,,,,,,,,13466.390999976138,completion,,,,,,,high,low,,,,,,true,,,,,false,376713.3000000119,376712.39999997616,363212.711,363215.89999997616,363246.009,376722.226,1,40,,
trial,html.Screen,6_29_0,2023-11-17T15:32:09.217Z,,,,1,-1.3189473926989124,-1.0770264364718942,,,true,hh,4638.074000011897,response,1.2254187569955004,1.2,-1.2,1.174555235109734,1.2,-1.2,high,high,,ISIC_6093728.JPG,,ISIC_0027187.JPG,245,true,0.3600000000000002,hh,keypress(i),0,false,381360.6999999881,381360.3000000119,376705.559,376713.39999997616,376722.226,381397.982,1,40,30,
sequence,flow.Sequence,6_29,2023-11-17T15:32:09.218Z,,,,,,,,,,,4638.074000011897,completion,,,,,,,high,high,,,,,,true,,,,,false,381361.1999999881,381360.3000000119,376705.559,376713.39999997616,376722.226,381397.982,1,40,,
trial,html.Screen,6_30_0,2023-11-17T15:32:15.153Z,,,,1,-0.8979276789594874,0.925374811016654,,,true,hl,5898.41799997614,response,0.8623414234919863,1.2,-1.2,-0.782830143980698,1.2,-1.2,high,low,,ISIC_4208361.JPG,,ISIC_2727016.JPG,27,true,0.42000000000000026,hl,keypress(j),0,false,387296.8000000119,387296.39999997616,381348.111,381361.5,381397.982,387309.531,1,40,31,
sequence,flow.Sequence,6_30,2023-11-17T15:32:15.154Z,,,,,,,,,,,5898.41799997614,completion,,,,,,,high,low,,,,,,true,,,,,false,387297.3000000119,387296.39999997616,381348.111,381361.39999997616,381397.982,387309.531,1,40,,
trial,html.Screen,6_31_0,2023-11-17T15:32:20.176Z,,,,1,1.101214461533281,1.1849883512428183,,,true,ll,5009.769000011904,response,-0.8854665385930431,1.2,-1.2,-1.0235331176078744,1.2,-1.2,low,low,,ISIC_0064943.JPG,,ISIC_0026889.JPG,179,true,0.3600000000000002,ll,keypress(f),0,false,392319.39999997616,392319.3000000119,387292.857,387297.5,387309.531,392335.961,1,40,32,
sequence,flow.Sequence,6_31,2023-11-17T15:32:20.176Z,,,,,,,,,,,5009.769000011904,completion,,,,,,,low,low,,,,,,true,,,,,false,392319.60000002384,392319.3000000119,387292.857,387297.39999997616,387309.531,392335.961,1,40,,
trial,html.Screen,6_32_0,2023-11-17T15:32:22.593Z,,,,1,1.185875658992962,1.2635548590325487,,,true,ll,2400.1390000238316,response,-1.131522954199764,1.2,-1.2,-1.1047184491749509,1.2,-1.2,low,low,,ISIC_0011703.JPG,,ISIC_1868816.JPG,26,true,0.15000000000000002,ll,keypress(f),0,false,394736.5,394736.10000002384,392319.423,392319.6999999881,392335.961,394740.718,1,40,33,
sequence,flow.Sequence,6_32,2023-11-17T15:32:22.594Z,,,,,,,,,,,2400.1390000238316,completion,,,,,,,low,low,,,,,,true,,,,,false,394737,394736.10000002384,392319.423,392319.60000002384,392335.961,394740.718,1,40,,
trial,html.Screen,6_33_0,2023-11-17T15:32:24.640Z,,,,1,1.126264390089724,1.271896565050952,,,true,ll,2042.3820000238484,response,-1.057008495826831,1.2,-1.2,-1.1278122585028287,1.2,-1.2,low,low,,ISIC_1520897.JPG,,ISIC_2819798.JPG,26,true,0.15000000000000002,ll,keypress(f),0,false,396783.10000002384,396783.10000002384,394724.076,394737.3000000119,394740.718,396827.984,1,40,34,
sequence,flow.Sequence,6_33,2023-11-17T15:32:24.640Z,,,,,,,,,,,2042.3820000238484,completion,,,,,,,low,low,,,,,,true,,,,,false,396783.3000000119,396783.10000002384,394724.076,394737.1999999881,394740.718,396827.984,1,40,,
trial,html.Screen,6_34_0,2023-11-17T15:32:32.058Z,,,,1,0.9388660854518424,-0.79533948698576,,,true,lh,7372.715999988082,response,-0.869932994914832,1.2,-1.2,0.8880533324432531,1.2,-1.2,low,high,,ISIC_9291926.JPG,,ISIC_8617084.JPG,26,true,0.3600000000000002,lh,keypress(e),0,false,404201,404200.6999999881,396778.168,396783.3000000119,396827.984,404209.018,1,40,35,
sequence,flow.Sequence,6_34,2023-11-17T15:32:32.058Z,,,,,,,,,,,7372.715999988082,completion,,,,,,,low,high,,,,,,true,,,,,false,404201.5,404200.6999999881,396778.168,396783.3000000119,396827.984,404209.018,1,40,,
trial,html.Screen,6_35_0,2023-11-17T15:32:35.089Z,,,,1,1.2181031651370575,1.2158573487067317,,,true,ll,3023.1819999880972,response,-1.0366777133497644,1.2,-1.2,-0.8674472391512381,1.2,-1.2,low,low,,ISIC_7242312.JPG,,ISIC_0014431.JPG,253,true,0.42000000000000026,ll,keypress(f),0,false,407232.60000002384,407232.1999999881,404192.549,404201.8000000119,404209.018,407281.706,1,40,36,
sequence,flow.Sequence,6_35,2023-11-17T15:32:35.090Z,,,,,,,,,,,3023.1819999880972,completion,,,,,,,low,low,,,,,,true,,,,,false,407233.1999999881,407232.1999999881,404192.549,404201.6999999881,404209.018,407281.706,1,40,,
trial,html.Screen,6_36_0,2023-11-17T15:32:40.353Z,,,,1,0.809764442462202,-1.005337148078696,,,true,lh,5214.594000011915,response,-1.1181734135756094,1.2,-1.2,0.944560381774994,1.2,-1.2,low,high,,ISIC_2379379.JPG,,ISIC_9688534.JPG,26,true,0.3600000000000002,lh,keypress(e),0,false,412496.6999999881,412496.3000000119,407231.847,407233.3000000119,407281.706,412508.626,1,40,37,
sequence,flow.Sequence,6_36,2023-11-17T15:32:40.354Z,,,,,,,,,,,5214.594000011915,completion,,,,,,,low,high,,,,,,true,,,,,false,412497.1999999881,412496.3000000119,407231.847,407233.3000000119,407281.706,412508.626,1,40,,
trial,html.Screen,6_37_0,2023-11-17T15:32:45.177Z,,,,1,1.242586748440878,1.1207933200172129,,,true,ll,4811.874000000011,response,-1.2073182124516106,1.2,-1.2,-0.802303915567935,1.2,-1.2,low,low,,ISIC_0013073.JPG,,ISIC_2214766.JPG,253,true,0.42000000000000026,ll,keypress(f),0,false,417320.8000000119,417320.5,412492.027,412497.39999997616,412508.626,417367.996,1,40,38,
sequence,flow.Sequence,6_37,2023-11-17T15:32:45.178Z,,,,,,,,,,,4811.874000000011,completion,,,,,,,low,low,,,,,,true,,,,,false,417321.1999999881,417320.5,412492.027,412497.39999997616,412508.626,417367.996,1,40,,
trial,html.Screen,6_38_0,2023-11-17T15:32:51.529Z,,,,1,0.9873794329144926,-0.7991077882008257,,,true,lh,6304.004000000015,response,-0.8534691366511764,1.2,-1.2,1.03975580494588,1.2,-1.2,low,high,,ISIC_0013498.JPG,,ISIC_0056788.JPG,26,true,0.3600000000000002,lh,keypress(e),0,false,423672.3000000119,423672,417318.038,417321.5,417367.996,423697.001,1,40,39,
sequence,flow.Sequence,6_38,2023-11-17T15:32:51.530Z,,,,,,,,,,,6304.004000000015,completion,,,,,,,low,high,,,,,,true,,,,,false,423672.8000000119,423672,417318.038,417321.5,417367.996,423697.001,1,40,,
trial,html.Screen,6_39_0,2023-11-17T15:32:57.538Z,,,,1,-0.879102500583965,1.0933081951979773,,,true,hl,5983.599000023853,response,0.8816288864119318,1.2,-1.2,-0.801867301188093,1.2,-1.2,high,low,,ISIC_0046223.JPG,,ISIC_9196783.JPG,27,true,0.42000000000000026,hl,keypress(j),0,false,429680.89999997616,429680.60000002384,423663.686,423673.10000002384,423697.001,429691.969,1,40,40,
sequence,flow.Sequence,6_39,2023-11-17T15:32:57.538Z,,,,,,,,,,,5983.599000023853,completion,,,,,,,high,low,,,,,,true,,,,,false,429681.39999997616,429680.60000002384,423663.686,423673.10000002384,423697.001,429691.969,1,40,,
practice_loop,flow.Loop,6,2023-11-17T15:32:57.539Z,,,,,,,,,,,187954.49700002384,completion,,,,,,,,,,,,,,true,,,,,false,429681.8000000119,429680.60000002384,241659.605,241678.39999997616,241726.103,429691.969,1,40,,
stair_instructions,html.Screen,7,2023-11-17T15:33:01.321Z,,,,,,,,,,,3770.7309999880963,response,,,,,,,,,,,,,,,,continue,click button,,,433463.10000002384,433462.6999999881,429675.501,429682,429691.969,433466.02,,,,
trial,html.Screen,8_0_0,2023-11-17T15:33:08.495Z,,,,2,-0.0277178575053843,0.0395587463147856,,0.05,true,ll,7171.17999998806,response,-0.8728834820669534,1.2,-1.2,-0.9788202580034188,1.2,-1.2,low,low,,ISIC_0010807.JPG,,ISIC_7519627.JPG,179,false,0.3600000000000002,ll,keypress(f),0,true,440637.1999999881,440637.1999999881,433449.421,433463.3000000119,433466.02,440663.58,1,40,1,
sequence,flow.Sequence,8_0,2023-11-17T15:33:08.495Z,,,,,,,,,,,7171.17999998806,completion,,,,,,,low,low,,,,,,false,,,,,true,440637.39999997616,440637.1999999881,433449.421,433463.3000000119,433466.02,440663.58,1,40,,
trial,html.Screen,8_1_0,2023-11-17T15:33:10.835Z,,,,2,-0.000047919190197942736,-0.0462652940855003,,0.05,true,ll,2313.119999988063,response,-1.0406934755278734,1.15,-1.15,-1.2406966347110775,1.15,-1.15,low,low,,ISIC_0011507.JPG,,ISIC_2687641.JPG,30,false,0.13,ll,keypress(f),0,true,442977.1999999881,442976.6999999881,440646.637,440637.5,440663.58,442984.538,1,40,2,
sequence,flow.Sequence,8_1,2023-11-17T15:33:10.836Z,,,,,,,,,,,2313.119999988063,completion,,,,,,,low,low,,,,,,false,,,,,true,442977.6999999881,442976.6999999881,440646.637,440637.39999997616,440663.58,442984.538,1,40,,
trial,html.Screen,8_2_0,2023-11-17T15:33:19.411Z,,,,2,-0.0188047466661863,0.0288346930436979,,0.05,true,ll,8568.062000023841,response,-1.037577073517966,1.15,-1.059758446357248,-1.027048110709042,1.15,-1.059758446357248,low,low,,ISIC_0014157.JPG,,ISIC_0004932.JPG,26,false,0.1,ll,keypress(f),0,true,451552.89999997616,451552.60000002384,442968.07,442977.89999997616,442984.538,451601.276,1,40,3,
sequence,flow.Sequence,8_2,2023-11-17T15:33:19.411Z,,,,,,,,,,,8568.062000023841,completion,,,,,,,low,low,,,,,,false,,,,,true,451553.39999997616,451552.60000002384,442968.07,442977.8000000119,442984.538,451601.276,1,40,,
trial,html.Screen,8_3_0,2023-11-17T15:33:23.395Z,,,,2,0.0450282431170921,,,0.05,false,hl,3935.1239999761456,response,0.9388660854518424,1.15,-1.059758446357248,-0.79533948698576,1.15,-1.059758446357248,high,low,,ISIC_1805163.JPG,,ISIC_9291926.JPG,30,false,0.3600000000000002,hh,keypress(i),0,true,455536.8000000119,455536.39999997616,451551.249,451553.8000000119,451601.276,455558.995,1,40,4,
sequence,flow.Sequence,8_3,2023-11-17T15:33:23.395Z,,,,,,,,,,,3935.1239999761456,completion,,,,,,,high,low,,,,,,false,,,,,true,455537.3000000119,455536.39999997616,451551.249,451553.60000002384,451601.276,455558.995,1,40,,
trial,html.Screen,8_4_0,2023-11-17T15:33:29.435Z,,,,2,0.0450282431170921,,,0.05,false,ll,6017.6050000238465,response,-1.1137763092539212,1.15,-1.059758446357248,-1.1599906701455132,1.15,-1.109758446357248,low,low,,ISIC_1805163.JPG,,ISIC_5413788.JPG,25,false,0.1,lh,keypress(e),0,true,461576.89999997616,461576.60000002384,455525.833,455537.60000002384,455558.995,461587.402,1,40,5,
sequence,flow.Sequence,8_4,2023-11-17T15:33:29.435Z,,,,,,,,,,,6017.6050000238465,completion,,,,,,,low,low,,,,,,false,,,,,true,461577.39999997616,461576.60000002384,455525.833,455537.5,455558.995,461587.402,1,40,,
trial,html.Screen,8_5_0,2023-11-17T15:33:31.769Z,,,,2,0.0070725527271049,0.0049995141077508,,0.05,true,ll,2323.597999999998,response,-1.0406934755278734,1.15,-1.009758446357248,-1.2406966347110775,1.15,-1.1597584463572481,low,low,,ISIC_6124481.JPG,,ISIC_2687641.JPG,25,false,0.11,ll,keypress(f),0,true,463911.10000002384,463911,461570.915,461577.6999999881,461587.402,463925.271,1,40,6,
sequence,flow.Sequence,8_5,2023-11-17T15:33:31.769Z,,,,,,,,,,,2323.597999999998,completion,,,,,,,low,low,,,,,,false,,,,,true,463911.3000000119,463911,461570.915,461577.60000002384,461587.402,463925.271,1,40,,
trial,html.Screen,8_6_0,2023-11-17T15:33:36.979Z,,,,2,-0.0112310719058792,0.0469047359904117,,0.05,false,hl,5195.12899997615,response,1.0264463986917702,1.15,-1.009758446357248,-1.2804054832904397,1.15,-1.1597584463572481,high,low,,ISIC_0068184.JPG,,ISIC_7889838.JPG,26,false,0.3700000000000002,lh,keypress(e),0,true,469120.6999999881,469120.39999997616,463908.809,463911.3000000119,463925.271,469135.437,1,40,7,
sequence,flow.Sequence,8_6,2023-11-17T15:33:36.979Z,,,,,,,,,,,5195.12899997615,completion,,,,,,,high,low,,,,,,false,,,,,true,469121.1999999881,469120.39999997616,463908.809,463911.3000000119,463925.271,469135.437,1,40,,
trial,html.Screen,8_7_0,2023-11-17T15:33:39.971Z,,,,2,-0.0277178575053843,0.0395587463147856,,0.05,false,hl,2976.8630000119447,response,1.0164576835546473,1.15,-1.009758446357248,-0.8120626538423016,1.15,-1.1597584463572481,high,low,,ISIC_0010807.JPG,,ISIC_6002694.JPG,26,false,0.3700000000000002,lh,keypress(e),0,true,472112.6999999881,472112.3000000119,469118.938,469121.39999997616,469135.437,472124.672,1,40,8,
sequence,flow.Sequence,8_7,2023-11-17T15:33:39.971Z,,,,,,,,,,,2976.8630000119447,completion,,,,,,,high,low,,,,,,false,,,,,true,472113.1999999881,472112.3000000119,469118.938,469121.3000000119,469135.437,472124.672,1,40,,
trial,html.Screen,8_8_0,2023-11-17T15:33:42.667Z,,,,2,0.0085520978188085,-0.0464691161264081,,0.05,true,hh,2683.8279999999795,response,1.2254187569955004,1.15,-1.009758446357248,1.174555235109734,1.15,-1.1597584463572481,high,high,,ISIC_0758797.JPG,,ISIC_0027187.JPG,27,false,0.1,hh,keypress(i),0,true,474808.89999997616,474808.5,472107.998,472113.5,472124.672,474829.849,1,40,9,
sequence,flow.Sequence,8_8,2023-11-17T15:33:42.667Z,,,,,,,,,,,2683.8279999999795,completion,,,,,,,high,high,,,,,,false,,,,,true,474809.39999997616,474808.5,472107.998,472113.3000000119,472124.672,474829.849,1,40,,
trial,html.Screen,8_9_0,2023-11-17T15:33:50.259Z,,,,2,-0.013431314305098,0.0140597582944232,,0.05,false,hl,7570.9510000119335,response,1.4092385398614515,1.15,-1.009758446357248,-1.3046237992197836,1.15,-1.1597584463572481,high,low,,ISIC_0069617.JPG,,ISIC_7254359.JPG,26,false,0.3700000000000002,hh,keypress(i),0,true,482401.10000002384,482400.8000000119,474796.559,474809.6999999881,474829.849,482427.975,1,40,10,
sequence,flow.Sequence,8_9,2023-11-17T15:33:50.260Z,,,,,,,,,,,7570.9510000119335,completion,,,,,,,high,low,,,,,,false,,,,,true,482401.60000002384,482400.8000000119,474796.559,474809.60000002384,474829.849,482427.975,1,40,,
trial,html.Screen,8_10_0,2023-11-17T15:33:54.051Z,,,,2,0.0450282431170921,,,0.05,false,hl,3764.4249999761814,response,1.0264463986917702,1.1918968874855926,-1.009758446357248,-1.2804054832904397,1.15,-1.1597584463572481,high,low,,ISIC_1805163.JPG,,ISIC_7889838.JPG,28,false,0.41000000000000025,lh,keypress(e),0,true,486192.8000000119,486192.39999997616,482394.737,482401.89999997616,482427.975,486218.686,1,40,11,
sequence,flow.Sequence,8_10,2023-11-17T15:33:54.051Z,,,,,,,,,,,3764.4249999761814,completion,,,,,,,high,low,,,,,,false,,,,,true,486193.3000000119,486192.39999997616,482394.737,482401.8000000119,482427.975,486218.686,1,40,,
trial,html.Screen,8_11_0,2023-11-17T15:34:00.893Z,,,,2,0.0057914759495055,0.0074667911845194,,0.05,false,hl,6813.914000023855,response,0.8092423703106274,1.1918968874855926,-1.009758446357248,-1.1870093485714288,1.15,-1.1597584463572481,high,low,,ISIC_0058723.JPG,,ISIC_8592235.JPG,28,false,0.41000000000000025,lh,keypress(e),0,true,493032.89999997616,493032.60000002384,486185.495,486193.5,486218.686,493048.745,1,40,12,
sequence,flow.Sequence,8_11,2023-11-17T15:34:00.894Z,,,,,,,,,,,6813.914000023855,completion,,,,,,,high,low,,,,,,false,,,,,true,493033.5,493032.60000002384,486185.495,486193.5,486218.686,493048.745,1,40,,
trial,html.Screen,8_12_0,2023-11-17T15:34:14.828Z,,,,2,0.0217698886732706,-0.0410870915161425,,0.05,true,ll,13918.855000023847,response,-1.09666761087476,1.1918968874855926,-1.009758446357248,-1.1072126870290426,1.15,-1.1597584463572481,low,low,,ISIC_0072173.JPG,,ISIC_0071754.JPG,25,false,0.11,ll,keypress(f),0,true,506967.6999999881,506967.60000002384,493032.027,493033.6999999881,493048.745,506992.432,1,40,13,
sequence,flow.Sequence,8_12,2023-11-17T15:34:14.828Z,,,,,,,,,,,13918.855000023847,completion,,,,,,,low,low,,,,,,false,,,,,true,506967.89999997616,506967.60000002384,493032.027,493033.6999999881,493048.745,506992.432,1,40,,
trial,html.Screen,8_13_0,2023-11-17T15:34:18.373Z,,,,2,-0.0113873532168551,-0.0054999201556291,,0.05,true,lh,3519.8680000119493,response,-0.7745647318095624,1.1918968874855926,-1.0519401489519014,1.1610302064435811,1.15,-1.1597584463572481,low,high,,ISIC_8812621.JPG,,ISIC_0033004.JPG,26,false,0.28000000000000014,lh,keypress(e),0,true,510512.60000002384,510512.3000000119,506959.053,506968,506992.432,510516.064,1,40,14,
sequence,flow.Sequence,8_13,2023-11-17T15:34:18.373Z,,,,,,,,,,,3519.8680000119493,completion,,,,,,,low,high,,,,,,false,,,,,true,510513.1999999881,510512.3000000119,506959.053,506968,506992.432,510516.064,1,40,,
trial,html.Screen,8_14_0,2023-11-17T15:34:27.749Z,,,,2,0.0450282431170921,,,0.05,true,hh,9372.736000011908,response,1.242586748440878,1.1918968874855926,-1.0519401489519014,1.1207933200172129,1.0999999999999999,-1.1597584463572481,high,high,,ISIC_1805163.JPG,,ISIC_0013073.JPG,34,false,0.1,hh,keypress(i),0,true,519889.1999999881,519888.8000000119,510499.538,510513.39999997616,510516.064,519934.311,1,40,15,
sequence,flow.Sequence,8_14,2023-11-17T15:34:27.750Z,,,,,,,,,,,9372.736000011908,completion,,,,,,,high,high,,,,,,false,,,,,true,519889.60000002384,519888.8000000119,510499.538,510513.39999997616,510516.064,519934.311,1,40,,
trial,html.Screen,8_15_0,2023-11-17T15:34:29.779Z,,,,2,-0.0348234368746005,0.0236866303880924,,0.05,false,lh,1984.5889999761712,response,-0.8534691366511764,1.1918968874855926,-1.0519401489519014,1.03975580494588,1.0999999999999999,-1.1597584463572481,low,high,,ISIC_0011099.JPG,,ISIC_0056788.JPG,25,false,0.2500000000000001,hh,keypress(i),0,true,521918.89999997616,521918.89999997616,519884.137,519889.89999997616,519934.311,521938.18,1,40,16,
sequence,flow.Sequence,8_15,2023-11-17T15:34:29.779Z,,,,,,,,,,,1984.5889999761712,completion,,,,,,,low,high,,,,,,false,,,,,true,521919,521918.89999997616,519884.137,519889.8000000119,519934.311,521938.18,1,40,,
trial,html.Screen,8_16_0,2023-11-17T15:34:33.443Z,,,,2,0.0070725527271049,0.0049995141077508,,0.05,false,lh,3645.120000011928,response,-1.2075172235545184,1.1918968874855926,-1.1019401489519014,0.9116724966267612,1.0302745624815464,-1.1597584463572481,low,high,,ISIC_6124481.JPG,,ISIC_0024235.JPG,26,false,0.2500000000000001,ll,keypress(f),0,true,525583.3999999762,525583.3000000119,521904.849,521919.1999999881,521938.18,525595.334,1,40,17,
sequence,flow.Sequence,8_16,2023-11-17T15:34:33.444Z,,,,,,,,,,,3645.120000011928,completion,,,,,,,low,high,,,,,,false,,,,,true,525583.6000000238,525583.3000000119,521904.849,521919.1999999881,521938.18,525595.334,1,40,,
trial,html.Screen,8_17_0,2023-11-17T15:34:37.773Z,,,,2,0.0329095507339554,-0.0382899749693245,,0.05,true,lh,4317.165999999968,response,-0.9696118525781644,1.1918968874855926,-1.1019401489519014,0.9244148283103414,1.0802745624815464,-1.1597584463572481,low,high,,ISIC_8812781.JPG,,ISIC_7927525.JPG,25,false,0.2600000000000001,lh,keypress(e),0,true,529912.8999999762,529912.5,525578.628,525583.6000000238,525595.334,529937.11,1,40,18,
sequence,flow.Sequence,8_17,2023-11-17T15:34:37.773Z,,,,,,,,,,,4317.165999999968,completion,,,,,,,low,high,,,,,,false,,,,,true,529913.3000000119,529912.5,525578.628,525583.6000000238,525595.334,529937.11,1,40,,
trial,html.Screen,8_18_0,2023-11-17T15:34:40.540Z,,,,2,-0.000047919190197942736,-0.0462652940855003,,0.05,false,hl,2742.490000023856,response,1.0122398223568725,1.1918968874855926,-1.0519401489519014,-0.7505228537454216,1.0802745624815464,-1.1597584463572481,high,low,,ISIC_0011507.JPG,,ISIC_0033802.JPG,28,false,0.41000000000000025,lh,keypress(e),0,true,532679.8000000119,532679.6000000238,529903.897,529913.6999999881,529937.11,532709.174,1,40,19,
sequence,flow.Sequence,8_18,2023-11-17T15:34:40.540Z,,,,,,,,,,,2742.490000023856,completion,,,,,,,high,low,,,,,,false,,,,,true,532680,532679.6000000238,529903.897,529913.6000000238,529937.11,532709.174,1,40,,
trial,html.Screen,8_19_0,2023-11-17T15:34:43.613Z,,,,2,0.0107854985447517,0.0478010417136109,,0.05,false,hl,3043.126000011922,response,0.991146183030456,1.1918968874855926,-1.0519401489519014,-0.9949639823722534,1.0802745624815464,-1.1597584463572481,high,low,,ISIC_0010500.JPG,,ISIC_6342224.JPG,28,false,0.41000000000000025,lh,keypress(e),0,true,535752.6000000238,535752.3000000119,532675.997,532680.1000000238,532709.174,535765.207,1,40,20,
sequence,flow.Sequence,8_19,2023-11-17T15:34:43.613Z,,,,,,,,,,,3043.126000011922,completion,,,,,,,high,low,,,,,,false,,,,,true,535753.1000000238,535752.3000000119,532675.997,532680.1000000238,532709.174,535765.207,1,40,,
trial,html.Screen,8_20_0,2023-11-17T15:34:51.749Z,,,,2,0.0116094682222121,-0.0258434522530318,,0.05,true,hh,8123.393000023789,response,1.2618585285282764,1.1918968874855926,-1.0519401489519014,1.0804044917288194,1.0802745624815464,-1.1597584463572481,high,high,,ISIC_9239632.JPG,,ISIC_0011691.JPG,37,false,0.1,hh,keypress(i),0,true,543888.8999999762,543888.6000000238,535748.471,535753.3999999762,535765.207,543897.63,1,40,21,
sequence,flow.Sequence,8_20,2023-11-17T15:34:51.749Z,,,,,,,,,,,8123.393000023789,completion,,,,,,,high,high,,,,,,false,,,,,true,543889.3000000119,543888.6000000238,535748.471,535753.3000000119,535765.207,543897.63,1,40,,
trial,html.Screen,8_21_0,2023-11-17T15:34:54.197Z,,,,2,-0.0362376068089956,-0.047825070846155,,0.05,true,hh,2438.8699999999953,response,1.242586748440878,1.1918968874855926,-1.0519401489519014,1.1207933200172129,1.1211315101285477,-1.1597584463572481,high,high,,ISIC_6985114.JPG,,ISIC_0013073.JPG,33,false,0.1,hh,keypress(i),0,true,546336.8000000119,546336.5,543880.974,543889.6000000238,543897.63,546352.657,1,40,22,
sequence,flow.Sequence,8_21,2023-11-17T15:34:54.197Z,,,,,,,,,,,2438.8699999999953,completion,,,,,,,high,high,,,,,,false,,,,,true,546337.3999999762,546336.5,543880.974,543889.3999999762,543897.63,546352.657,1,40,,
trial,html.Screen,8_22_0,2023-11-17T15:34:56.141Z,,,,2,-0.0112310719058792,0.0469047359904117,,0.05,true,hh,1927.8429999999935,response,1.0387488172228707,1.1316900342290455,-1.0519401489519014,1.186629690487006,1.1211315101285477,-1.1597584463572481,high,high,,ISIC_0068184.JPG,,ISIC_0015390.JPG,31,false,0.1,hh,keypress(i),0,true,548280.8000000119,548280.5,546335.923,546337.6000000238,546352.657,548289.511,1,40,23,
sequence,flow.Sequence,8_22,2023-11-17T15:34:56.141Z,,,,,,,,,,,1927.8429999999935,completion,,,,,,,high,high,,,,,,false,,,,,true,548281.3000000119,548280.5,546335.923,546337.6000000238,546352.657,548289.511,1,40,,
trial,html.Screen,8_23_0,2023-11-17T15:35:04.623Z,,,,2,-0.0159061451859594,-0.0296598845560212,,0.05,true,lh,8471.089000023785,response,-0.8860551570327019,1.1316900342290455,-1.0519401489519014,0.8067116931297591,1.0626892538549384,-1.1597584463572481,low,high,,ISIC_0072564.JPG,,ISIC_1457687.JPG,28,false,0.2600000000000001,lh,keypress(e),0,true,556760.8000000119,556760.6000000238,548273.019,548281.6000000238,548289.511,556772.674,1,40,24,
sequence,flow.Sequence,8_23,2023-11-17T15:35:04.623Z,,,,,,,,,,,8471.089000023785,completion,,,,,,,low,high,,,,,,false,,,,,true,556761.3999999762,556760.6000000238,548273.019,548281.5,548289.511,556772.674,1,40,,
trial,html.Screen,8_24_0,2023-11-17T15:35:09.199Z,,,,2,0.0027483411352856,0.0100996915276271,,0.05,true,hh,4564.326000000001,response,1.1877026569952844,1.1316900342290455,-1.0519401489519014,1.1604367569896263,1.0626892538549384,-1.1597584463572481,high,high,,ISIC_7364041.JPG,,ISIC_0064589.JPG,32,false,0.1,hh,keypress(i),0,true,561337.6000000238,561337,556756.101,556761.6000000238,556772.674,561348.263,1,40,25,
sequence,flow.Sequence,8_24,2023-11-17T15:35:09.200Z,,,,,,,,,,,4564.326000000001,completion,,,,,,,high,high,,,,,,false,,,,,true,561338.1000000238,561337,556756.101,556761.5,556772.674,561348.263,1,40,,
trial,html.Screen,8_25_0,2023-11-17T15:35:16.295Z,,,,2,0.0217698886732706,-0.0410870915161425,,0.05,false,lh,7084.636999976123,response,-1.011737552725394,0.9335742250596927,-1.0519401489519014,0.8500530224490773,0.9335742250596927,-1.1597584463572481,low,high,,ISIC_0072173.JPG,,ISIC_2998367.JPG,26,false,0.20000000000000007,ll,keypress(f),0,true,568433.1999999881,568432.8999999762,561331.721,561338.3000000119,561348.263,568445.409,1,40,26,
sequence,flow.Sequence,8_25,2023-11-17T15:35:16.295Z,,,,,,,,,,,7084.636999976123,completion,,,,,,,low,high,,,,,,false,,,,,true,568433.6000000238,568432.8999999762,561331.721,561338.1999999881,561348.263,568445.409,1,40,,
trial,html.Screen,8_26_0,2023-11-17T15:35:20.270Z,,,,2,0.0050679133050021,-0.0009714874637896,,0.05,false,hh,3962.990999976173,response,0.8426401499140178,0.9335742250596927,-1.0019401489519013,0.9561650569523902,0.9835742250596927,-1.1597584463572481,high,high,,ISIC_9848743.JPG,,ISIC_0060380.JPG,43,false,0.1,lh,keypress(e),0,true,572408.6999999881,572408.3999999762,568428.782,568433.8999999762,568445.409,572419.79,1,40,27,
sequence,flow.Sequence,8_26,2023-11-17T15:35:20.271Z,,,,,,,,,,,3962.990999976173,completion,,,,,,,high,high,,,,,,false,,,,,true,572409.3000000119,572408.3999999762,568428.782,568433.8000000119,568445.409,572419.79,1,40,,
trial,html.Screen,8_27_0,2023-11-17T15:35:24.023Z,,,,2,-0.000047919190197942736,-0.0462652940855003,,0.05,true,ll,3740.7099999999627,response,-0.9008266293518152,0.9835742250596927,-1.0019401489519013,-1.180104759344151,0.9835742250596927,-1.1597584463572481,low,low,,ISIC_0011507.JPG,,ISIC_0025702.JPG,25,false,0.11,ll,keypress(f),0,true,576160.8999999762,576160.5,572403.289,572409.5,572419.79,576177.222,1,40,28,
sequence,flow.Sequence,8_27,2023-11-17T15:35:24.023Z,,,,,,,,,,,3740.7099999999627,completion,,,,,,,low,low,,,,,,false,,,,,true,576161.3999999762,576160.5,572403.289,572409.3999999762,572419.79,576177.222,1,40,,
trial,html.Screen,8_28_0,2023-11-17T15:35:27.991Z,,,,2,0.0389988030702649,0.0143212271490256,,0.05,false,hh,3951.5780000119703,response,0.9185517403328254,0.9835742250596927,-1.0019401489519013,0.9975299101285906,0.9835742250596927,-1.1597584463572481,high,high,,ISIC_0064669.JPG,,ISIC_0011130.JPG,45,false,0.1,lh,keypress(e),0,true,580129.1999999881,580128.8000000119,576160.395,576161.6000000238,576177.222,580134.834,1,40,29,
sequence,flow.Sequence,8_28,2023-11-17T15:35:27.991Z,,,,,,,,,,,3951.5780000119703,completion,,,,,,,high,high,,,,,,false,,,,,true,580129.6999999881,580128.8000000119,576160.395,576161.6000000238,576177.222,580134.834,1,40,,
trial,html.Screen,8_29_0,2023-11-17T15:35:35.823Z,,,,2,-0.0051189696037511,0.0396625911332438,,0.05,true,hh,7825.665999999968,response,1.0917349644156236,1.0335742250596927,-1.0019401489519013,0.9715963767506804,0.9335742250596927,-1.1597584463572481,high,high,,ISIC_9742891.JPG,,ISIC_0034059.JPG,29,false,0.1,hh,keypress(i),0,true,587960.8999999762,587960.5,580118.253,580130,580134.834,587966.746,1,40,30,
sequence,flow.Sequence,8_29,2023-11-17T15:35:35.823Z,,,,,,,,,,,7825.665999999968,completion,,,,,,,high,high,,,,,,false,,,,,true,587961.5,587960.5,580118.253,580129.8999999762,580134.834,587966.746,1,40,,
trial,html.Screen,8_30_0,2023-11-17T15:35:40.351Z,,,,2,-0.0102460616775615,0.0309670599545429,,0.05,false,lh,4521.953999988036,response,-1.1181734135756094,1.0335742250596927,-1.0019401489519013,0.944560381774994,0.9335742250596927,-1.1597584463572481,low,high,,ISIC_0072041.JPG,,ISIC_9688534.JPG,26,false,0.20000000000000007,ll,keypress(f),0,true,592489.1000000238,592488.6999999881,587950.237,587961.6999999881,587966.746,592508.911,1,40,31,
sequence,flow.Sequence,8_30,2023-11-17T15:35:40.351Z,,,,,,,,,,,4521.953999988036,completion,,,,,,,low,high,,,,,,false,,,,,true,592489.6000000238,592488.6999999881,587950.237,587961.6999999881,587966.746,592508.911,1,40,,
trial,html.Screen,8_31_0,2023-11-17T15:35:50.007Z,,,,2,-0.0113873532168551,-0.0054999201556291,,0.05,false,hl,9635.589000000036,response,0.948927472020595,1.0335742250596927,-0.9519401489519013,-1.0660437155921598,0.9835742250596927,-1.1597584463572481,high,low,,ISIC_8812621.JPG,,ISIC_5808758.JPG,26,false,0.3500000000000002,ll,keypress(f),0,true,602144.8000000119,602144.5,592475.77,592489.8000000119,592508.911,602161.041,1,40,32,
sequence,flow.Sequence,8_31,2023-11-17T15:35:50.007Z,,,,,,,,,,,9635.589000000036,completion,,,,,,,high,low,,,,,,false,,,,,true,602145.3999999762,602144.5,592475.77,592489.6999999881,592508.911,602161.041,1,40,,
trial,html.Screen,8_32_0,2023-11-17T15:35:57.951Z,,,,2,-0.0348234368746005,0.0236866303880924,,0.05,false,lh,7927.658999988111,response,-0.7877939497981142,1.0835742250596927,-0.9519401489519013,0.8415032780288271,0.9835742250596927,-1.109758446357248,low,high,,ISIC_0011099.JPG,,ISIC_0067308.JPG,26,false,0.18000000000000005,ll,keypress(f),0,true,610089,610088.6999999881,602144.482,602145.6000000238,602161.041,610109.843,1,40,33,
sequence,flow.Sequence,8_32,2023-11-17T15:35:57.951Z,,,,,,,,,,,7927.658999988111,completion,,,,,,,low,high,,,,,,false,,,,,true,610089.6000000238,610088.6999999881,602144.482,602145.5,602161.041,610109.843,1,40,,
trial,html.Screen,8_33_0,2023-11-17T15:36:04.320Z,,,,2,0.0450282431170921,,,0.05,true,ll,6346.556999976165,response,-0.8671772321064484,1.0835742250596927,-0.9519401489519013,-1.0212529379514277,1.0335742250596927,-1.109758446357248,low,low,,ISIC_1805163.JPG,,ISIC_0004352.JPG,30,false,0.1,ll,keypress(f),0,true,616456.6999999881,616456.3999999762,610076.643,610089.8000000119,610109.843,616472.327,1,40,34,
sequence,flow.Sequence,8_33,2023-11-17T15:36:04.321Z,,,,,,,,,,,6346.556999976165,completion,,,,,,,low,low,,,,,,false,,,,,true,616457.1999999881,616456.3999999762,610076.643,610089.6999999881,610109.843,616472.327,1,40,,
trial,html.Screen,8_34_0,2023-11-17T15:36:07.288Z,,,,2,-0.0362376068089956,-0.047825070846155,,0.05,true,ll,2952.0729999761097,response,-0.9008266293518152,1.0835742250596927,-0.894215085028938,-1.180104759344151,1.0335742250596927,-1.109758446357248,low,low,,ISIC_6985114.JPG,,ISIC_0025702.JPG,32,false,0.1,ll,keypress(f),0,true,619424.6999999881,619424.3999999762,616455.567,616457.5,616472.327,619428.062,1,40,35,
sequence,flow.Sequence,8_34,2023-11-17T15:36:07.289Z,,,,,,,,,,,2952.0729999761097,completion,,,,,,,low,low,,,,,,false,,,,,true,619425.3000000119,619424.3999999762,616455.567,616457.3999999762,616472.327,619428.062,1,40,,
trial,html.Screen,8_35_0,2023-11-17T15:36:09.127Z,,,,2,-0.0188047466661863,0.0288346930436979,,0.05,true,hh,1835.3379999761237,response,0.9991183219041097,1.0835742250596927,-0.894215085028938,1.0098382533872188,1.0335742250596927,-0.990465694347983,high,high,,ISIC_0014157.JPG,,ISIC_0010415.JPG,30,false,0.1,hh,keypress(i),0,true,621263.5,621263.3999999762,619411.439,619425.6000000238,619428.062,621282.62,1,40,36,
sequence,flow.Sequence,8_35,2023-11-17T15:36:09.127Z,,,,,,,,,,,1835.3379999761237,completion,,,,,,,high,high,,,,,,false,,,,,true,621263.6000000238,621263.3999999762,619411.439,619425.5,619428.062,621282.62,1,40,,
trial,html.Screen,8_36_0,2023-11-17T15:36:12.632Z,,,,2,-0.0134764727102299,-0.0033499036460912,,0.05,false,lh,3485.9800000238465,response,-0.7784583866003763,1.0835742250596927,-0.894215085028938,0.9641514808986528,1.0335742250596927,-0.990465694347983,low,high,,ISIC_0009998.JPG,,ISIC_0011924.JPG,26,false,0.19000000000000006,ll,keypress(f),0,true,624768.8999999762,624768.6000000238,621248.219,621263.6999999881,621282.62,624788.469,1,40,37,
sequence,flow.Sequence,8_36,2023-11-17T15:36:12.633Z,,,,,,,,,,,3485.9800000238465,completion,,,,,,,low,high,,,,,,false,,,,,true,624769.5,624768.6000000238,621248.219,621263.6999999881,621282.62,624788.469,1,40,,
trial,html.Screen,8_37_0,2023-11-17T15:36:14.528Z,,,,2,0.0389988030702649,0.0143212271490256,,0.05,false,lh,1876.1310000238009,response,-0.6762618798182235,1.0835742250596927,-0.8442150850289379,1.067875773627714,1.0835742250596927,-0.990465694347983,low,high,,ISIC_0064669.JPG,,ISIC_0000135.JPG,25,false,0.17000000000000004,ll,keypress(f),0,true,626665.1000000238,626664.6000000238,624755.248,624769.6999999881,624788.469,626675.405,1,40,38,
sequence,flow.Sequence,8_37,2023-11-17T15:36:14.529Z,,,,,,,,,,,1876.1310000238009,completion,,,,,,,low,high,,,,,,false,,,,,true,626665.6000000238,626664.6000000238,624755.248,624769.6999999881,624788.469,626675.405,1,40,,
trial,html.Screen,8_38_0,2023-11-17T15:36:19.217Z,,,,2,0.0324770283903853,0.0249968632204382,,0.05,false,ll,4677.294999988051,response,-0.878837306607763,1.0835742250596927,-0.8442150850289379,-0.9806817794837708,1.1335742250596927,-0.990465694347983,low,low,,ISIC_7266462.JPG,,ISIC_6250970.JPG,37,false,0.1,lh,keypress(e),0,true,631353.1999999881,631352.6999999881,626658.883,626665.8000000119,626675.405,631367.87,1,40,39,
sequence,flow.Sequence,8_38,2023-11-17T15:36:19.217Z,,,,,,,,,,,4677.294999988051,completion,,,,,,,low,low,,,,,,false,,,,,true,631353.6999999881,631352.6999999881,626658.883,626665.6999999881,626675.405,631367.87,1,40,,
trial,html.Screen,8_39_0,2023-11-17T15:36:26.847Z,,,,2,0.0050679133050021,-0.0009714874637896,,0.05,false,hl,7615.130000000005,response,0.9235571765207048,1.0835742250596927,-0.7275495932129932,-1.0008081653938232,1.1335742250596927,-1.040465694347983,high,low,,ISIC_9848743.JPG,,ISIC_8796632.JPG,26,false,0.30000000000000016,hh,keypress(i),0,true,638983.1999999881,638983,631351.152,631353.8999999762,631367.87,638999.403,1,40,40,
sequence,flow.Sequence,8_39,2023-11-17T15:36:26.847Z,,,,,,,,,,,7615.130000000005,completion,,,,,,,high,low,,,,,,false,,,,,true,638983.3000000119,638983,631351.152,631353.8999999762,631367.87,638999.403,1,40,,
stair_loop,flow.Loop,8,2023-11-17T15:36:26.847Z,,,,,,,,,,,205516.97999999998,completion,,,,,,,,,,,,,,false,,,,,true,638983.3000000119,638983,433449.421,433463.1999999881,433466.02,638999.403,1,40,,
exp_instructions,html.Screen,9,2023-11-17T15:36:35.255Z,,,,,,,,,,,8391.59699999995,response,,,,,,,,,,,,,,,,continue,keypress(Space),,,647391.3999999762,647391,638982.635,638983.3999999762,638999.403,647415.791,,,,
trial,html.Screen,10_0_0,2023-11-17T15:36:40.643Z,,,,1,0.0116094682222121,-0.0258434522530318,,0.05,false,hl,5363.8090000238735,response,1.0264463986917702,1.0691238626776856,-0.963789355184215,-1.2804054832904397,1.0325764733171954,-1.1124352583549315,high,low,,ISIC_9239632.JPG,9,ISIC_7889838.JPG,26,false,0.3200000000000002,lh,keypress(e),0,false,652779.6999999881,652779.6000000238,647382.357,647391.6000000238,647415.791,652793.017,4,500,1,
break,html.Screen,10_0_1,2023-11-17T15:36:40.644Z,,,,,,,,,,,NaN,,,,,,,,high,low,,,,,,false,,,,,false,652780.3000000119,652780.1000000238,,652779.8999999762,,652793.017,4,500,,
break_continue,html.Screen,10_0_2,2023-11-17T15:36:40.644Z,,,,,,,,,,,NaN,,,,,,,,high,low,,,,,,false,,,,,false,652780.8000000119,652780.6000000238,,652780.3999999762,,652793.017,4,500,,
sequence,flow.Sequence,10_0,2023-11-17T15:36:40.644Z,,,,,,,,,,,5364.8090000238735,completion,,,,,,,high,low,,,,,,false,,,,,false,652780.8999999762,652780.6000000238,647382.357,647391.6000000238,647415.791,652793.017,4,500,,
trial,html.Screen,10_1_0,2023-11-17T15:36:44.839Z,,,,1,0.0069555338059566,-0.0310100918136373,,0.05,false,hh,4182.283000011928,response,1.0088070132449485,1.0691238626776856,-0.963789355184215,1.0292526683018866,1.0325764733171954,-1.1124352583549315,high,high,,ISIC_0011177.JPG,9,ISIC_0059314.JPG,30,false,0.1,lh,keypress(e),0,false,656975.5,656975.3000000119,652776.229,652780.8999999762,652793.017,656984.396,4,500,2,
break,html.Screen,10_1_1,2023-11-17T15:36:44.839Z,,,,,,,,,,,NaN,,,,,,,,high,high,,,,,,false,,,,,false,656975.8000000119,656975.6999999881,,656975.6000000238,,656984.396,4,500,,
break_continue,html.Screen,10_1_2,2023-11-17T15:36:44.840Z,,,,,,,,,,,NaN,,,,,,,,high,high,,,,,,false,,,,,false,656976.1000000238,656976,,656976,,656984.396,4,500,,
sequence,flow.Sequence,10_1,2023-11-17T15:36:44.840Z,,,,,,,,,,,4182.983000000007,completion,,,,,,,high,high,,,,,,false,,,,,false,656976.1999999881,656976,652776.229,652780.8999999762,652793.017,656984.396,4,500,,
trial,html.Screen,10_2_0,2023-11-17T15:36:47.807Z,,,,1,0.007397293189458,0.0174716772037504,,0.05,true,lh,2959.204000023892,response,-0.8534691366511764,1.0691238626776856,-0.963789355184215,1.03975580494588,1.0325764733171954,-1.1124352583549315,low,high,,ISIC_0056226.JPG,8,ISIC_0056788.JPG,27,false,0.2300000000000001,lh,keypress(e),0,false,659943.6999999881,659943.6000000238,656967.838,656976.1999999881,656984.396,659956.85,4,500,3,
break,html.Screen,10_2_1,2023-11-17T15:36:47.808Z,,,,,,,,,,,NaN,,,,,,,,low,high,,,,,,false,,,,,false,659944.1999999881,659944.1000000238,,659943.8999999762,,659956.85,4,500,,
break_continue,html.Screen,10_2_2,2023-11-17T15:36:47.808Z,,,,,,,,,,,NaN,,,,,,,,low,high,,,,,,false,,,,,false,659944.5,659944.3999999762,,659944.1999999881,,659956.85,4,500,,
sequence,flow.Sequence,10_2,2023-11-17T15:36:47.808Z,,,,,,,,,,,2960.0039999762084,completion,,,,,,,low,high,,,,,,false,,,,,false,659944.6000000238,659944.3999999762,656967.838,656976.1999999881,656984.396,659956.85,4,500,,
trial,html.Screen,10_3_0,2023-11-17T15:37:03.804Z,,,,1,-0.0245376145053177,0.0436993426328401,,0.05,,,16014.53899999999,timeout,1.0115965332688306,1.0691238626776856,-0.963789355184215,-0.8282633603842442,1.0325764733171954,-1.1124352583549315,high,low,,ISIC_0056444.JPG,9,ISIC_1069587.JPG,26,false,0.3200000000000002,,,0,false,675939.3999999762,675939,659940.341,659944.8000000119,659956.85,675971.389,4,500,4,
break,html.Screen,10_3_1,2023-11-17T15:37:03.805Z,,,,,,,,,,,NaN,,,,,,,,high,low,,,,,,false,,,,,false,675940.6000000238,675940.3000000119,,675939.8000000119,,675971.389,4,500,,
break_continue,html.Screen,10_3_2,2023-11-17T15:37:03.806Z,,,,,,,,,,,NaN,,,,,,,,high,low,,,,,,false,,,,,false,675941.3000000119,675941.1000000238,,675940.6999999881,,675971.389,4,500,,
sequence,flow.Sequence,10_3,2023-11-17T15:37:03.806Z,,,,,,,,,,,15984.250000023865,completion,,,,,,,high,low,,,,,,false,,,,,false,675941.6000000238,675941.1000000238,659940.341,659944.6999999881,659956.85,675971.389,4,500,,
trial,html.Screen,10_4_0,2023-11-17T15:37:08.618Z,,,,1,0.0069555338059566,-0.0310100918136373,,0.05,true,ll,4781.211000023875,response,-0.9525123994269484,1.0691238626776856,-0.963789355184215,-1.0779941204178511,1.0325764733171954,-1.1124352583549315,low,low,,ISIC_0011177.JPG,8,ISIC_0009642.JPG,29,false,0.1,ll,keypress(f),0,false,680753,680752.6000000238,675954.75,675941.8000000119,675971.389,680764.018,4,500,5,
break,html.Screen,10_4_1,2023-11-17T15:37:08.619Z,,,,,,,,,,,NaN,,,,,,,,low,low,,,,,,false,,,,,false,680754.3000000119,680753.8999999762,,680753.3999999762,,680764.018,4,500,,
break_continue,html.Screen,10_4_2,2023-11-17T15:37:08.620Z,,,,,,,,,,,NaN,,,,,,,,low,low,,,,,,false,,,,,false,680755.1000000238,680754.8000000119,,680754.6000000238,,680764.018,4,500,,
sequence,flow.Sequence,10_4,2023-11-17T15:37:08.620Z,,,,,,,,,,,4783.4110000119545,completion,,,,,,,low,low,,,,,,false,,,,,false,680755.3999999762,680754.8000000119,675954.75,675941.6999999881,675971.389,680764.018,4,500,,
trial,html.Screen,10_5_0,2023-11-17T15:37:12.010Z,,,,1,-0.0113873532168551,-0.0054999201556291,,0.05,false,ll,3380.48199999996,response,-0.9525123994269484,1.0691238626776856,-0.963789355184215,-1.0779941204178511,1.0325764733171954,-1.1124352583549315,low,low,,ISIC_8812621.JPG,8,ISIC_0009642.JPG,29,false,0.1,lh,keypress(e),0,false,684144.8000000119,684144.5,680747.418,680755.6000000238,680764.018,684153.958,4,500,6,
break,html.Screen,10_5_1,2023-11-17T15:37:12.011Z,,,,,,,,,,,NaN,,,,,,,,low,low,,,,,,false,,,,,false,684146.1000000238,684145.6999999881,,684145.3000000119,,684153.958,4,500,,
break_continue,html.Screen,10_5_2,2023-11-17T15:37:12.012Z,,,,,,,,,,,NaN,,,,,,,,low,low,,,,,,false,,,,,false,684146.8000000119,684146.6000000238,,684146.3000000119,,684153.958,4,500,,
sequence,flow.Sequence,10_5,2023-11-17T15:37:12.012Z,,,,,,,,,,,3382.582000023802,completion,,,,,,,low,low,,,,,,false,,,,,false,684147.1000000238,684146.6000000238,680747.418,680755.6000000238,680764.018,684153.958,4,500,,
trial,html.Screen,10_6_0,2023-11-17T15:37:19.370Z,,,,1,-0.0097091270150747,0.0417921315885292,,0.05,true,lh,7350.842000011937,response,-1.0865333402803938,1.0691238626776856,-0.963789355184215,1.0542635307358266,1.0325764733171954,-1.1124352583549315,low,high,,ISIC_3967213.JPG,9,ISIC_0034006.JPG,27,false,0.2300000000000001,lh,keypress(e),0,false,691505.1999999881,691504.8000000119,684137.514,684147.3999999762,684153.958,691518.312,4,500,7,
break,html.Screen,10_6_1,2023-11-17T15:37:19.371Z,,,,,,,,,,,NaN,,,,,,,,low,high,,,,,,false,,,,,false,691506.3999999762,691506.1000000238,,691505.5,,691518.312,4,500,,
break_continue,html.Screen,10_6_2,2023-11-17T15:37:19.372Z,,,,,,,,,,,NaN,,,,,,,,low,high,,,,,,false,,,,,false,691507.3000000119,691507,,691506.6999999881,,691518.312,4,500,,
sequence,flow.Sequence,10_6,2023-11-17T15:37:19.372Z,,,,,,,,,,,7353.042000000016,completion,,,,,,,low,high,,,,,,false,,,,,false,691507.5,691507,684137.514,684147.3000000119,684153.958,691518.312,4,500,,
trial,html.Screen,10_7_0,2023-11-17T15:37:22.506Z,,,,1,0.0057914759495055,0.0074667911845194,,0.05,false,hl,3122.1879999999655,response,0.809764442462202,1.0691238626776856,-0.963789355184215,-1.005337148078696,1.0325764733171954,-1.1124352583549315,high,low,,ISIC_0058723.JPG,9,ISIC_2379379.JPG,26,false,0.3200000000000002,lh,keypress(e),0,false,694640.8999999762,694640.5,691501.839,691507.8000000119,691518.312,694657.842,4,500,8,
break,html.Screen,10_7_1,2023-11-17T15:37:22.507Z,,,,,,,,,,,NaN,,,,,,,,high,low,,,,,,false,,,,,false,694642.1000000238,694641.8000000119,,694641.3000000119,,694657.842,4,500,,
break_continue,html.Screen,10_7_2,2023-11-17T15:37:22.508Z,,,,,,,,,,,NaN,,,,,,,,high,low,,,,,,false,,,,,false,694643,694642.6999999881,,694642.3999999762,,694657.842,4,500,,
sequence,flow.Sequence,10_7,2023-11-17T15:37:22.508Z,,,,,,,,,,,3124.3879999880446,completion,,,,,,,high,low,,,,,,false,,,,,false,694643.3999999762,694642.6999999881,691501.839,691507.6999999881,691518.312,694657.842,4,500,,
trial,html.Screen,10_8_0,2023-11-17T15:37:25.418Z,,,,1,-0.0102460616775615,0.0309670599545429,,0.05,true,hh,2894.658000000054,response,1.064818044116379,1.0691238626776856,-0.963789355184215,1.0146741178993408,1.0325764733171954,-1.1124352583549315,high,high,,ISIC_0072041.JPG,10,ISIC_0032504.JPG,30,false,0.1,hh,keypress(i),0,false,697552.8999999762,697552.5,694641.23,694643.6000000238,694657.842,697563.406,4,500,9,
break,html.Screen,10_8_1,2023-11-17T15:37:25.419Z,,,,,,,,,,,NaN,,,,,,,,high,high,,,,,,false,,,,,false,697554.1000000238,697553.8000000119,,697553.3000000119,,697563.406,4,500,,
break_continue,html.Screen,10_8_2,2023-11-17T15:37:25.420Z,,,,,,,,,,,NaN,,,,,,,,high,high,,,,,,false,,,,,false,697554.8999999762,697554.6999999881,,697554.3000000119,,697563.406,4,500,,
sequence,flow.Sequence,10_8,2023-11-17T15:37:25.420Z,,,,,,,,,,,2896.857999988133,completion,,,,,,,high,high,,,,,,false,,,,,false,697555.3000000119,697554.6999999881,694641.23,694643.5,694657.842,697563.406,4,500,,
trial,html.Screen,10_9_0,2023-11-17T15:37:30.938Z,,,,1,-0.0051189696037511,0.0396625911332438,,0.05,true,ll,5509.394000011962,response,-0.9859190680307316,1.0691238626776856,-0.963789355184215,-1.0904756837966545,1.0325764733171954,-1.1124352583549315,low,low,,ISIC_9742891.JPG,9,ISIC_0063151.JPG,29,false,0.1,ll,keypress(f),0,false,703073.1999999881,703072.8000000119,697546.856,697555.5,697563.406,703107.687,4,500,10,
break,html.Screen,10_9_1,2023-11-17T15:37:30.939Z,,,,,,,,,,,NaN,,,,,,,,low,low,,,,,,false,,,,,false,703074.5,703074.1000000238,,703073.6000000238,,703107.687,4,500,,
break_continue,html.Screen,10_9_2,2023-11-17T15:37:30.940Z,,,,,,,,,,,NaN,,,,,,,,low,low,,,,,,false,,,,,false,703075.3000000119,703075,,703074.8000000119,,703107.687,4,500,,
sequence,flow.Sequence,10_9,2023-11-17T15:37:30.940Z,,,,,,,,,,,5511.594000000041,completion,,,,,,,low,low,,,,,,false,,,,,false,703075.6000000238,703075,697546.856,697555.5,697563.406,703107.687,4,500,,
trial,html.Screen,10_10_0,2023-11-17T15:37:36.474Z,,,,1,-0.0112310719058792,0.0469047359904117,,0.05,false,hl,5500.913000023807,response,0.7998855902596425,1.0691238626776856,-0.963789355184215,-1.1518579145663017,1.0325764733171954,-1.1124352583549315,high,low,,ISIC_0068184.JPG,9,ISIC_0025061.JPG,26,false,0.3200000000000002,lh,keypress(e),0,false,708609,708608.6000000238,703090.837,703075.8000000119,703107.687,708634.954,4,500,11,
break,html.Screen,10_10_1,2023-11-17T15:37:36.475Z,,,,,,,,,,,NaN,,,,,,,,high,low,,,,,,false,,,,,false,708610.1999999881,708609.8999999762,,708609.3000000119,,708634.954,4,500,,
break_continue,html.Screen,10_10_2,2023-11-17T15:37:36.476Z,,,,,,,,,,,NaN,,,,,,,,high,low,,,,,,false,,,,,false,708610.8999999762,708610.6000000238,,708610.3999999762,,708634.954,4,500,,
sequence,flow.Sequence,10_10,2023-11-17T15:37:36.476Z,,,,,,,,,,,5502.913000023807,completion,,,,,,,high,low,,,,,,false,,,,,false,708611.1999999881,708610.6000000238,703090.837,703075.6999999881,703107.687,708634.954,4,500,,
trial,html.Screen,10_11_0,2023-11-17T15:37:38.634Z,,,,1,-0.0112310719058792,0.0469047359904117,,0.05,false,hl,2134.045999999973,response,0.7998855902596425,1.0691238626776856,-0.963789355184215,-1.1518579145663017,1.0325764733171954,-1.1124352583549315,high,low,,ISIC_0068184.JPG,9,ISIC_0025061.JPG,26,false,0.3200000000000002,lh,keypress(e),0,false,710769.3000000119,710769,708601.744,708611.5,708634.954,710789.146,4,500,12,
break,html.Screen,10_11_1,2023-11-17T15:37:38.635Z,,,,,,,,,,,NaN,,,,,,,,high,low,,,,,,false,,,,,false,710770.5,710770.1999999881,,710769.6999999881,,710789.146,4,500,,
break_continue,html.Screen,10_11_2,2023-11-17T15:37:38.636Z,,,,,,,,,,,NaN,,,,,,,,high,low,,,,,,false,,,,,false,710771.3000000119,710771.1000000238,,710770.8000000119,,710789.146,4,500,,
sequence,flow.Sequence,10_11,2023-11-17T15:37:38.636Z,,,,,,,,,,,2136.146000023815,completion,,,,,,,high,low,,,,,,false,,,,,false,710771.5,710771.1000000238,708601.744,708611.3000000119,708634.954,710789.146,4,500,,
trial,html.Screen,10_12_0,2023-11-17T15:37:43.922Z,,,,1,-0.000047919190197942736,-0.0462652940855003,,0.05,false,hl,5267.753999976208,response,0.7871162143493278,1.0691238626776856,-0.963789355184215,-0.8429329800778957,1.0325764733171954,-1.1124352583549315,high,low,,ISIC_0011507.JPG,9,ISIC_3439215.JPG,26,false,0.3200000000000002,hh,keypress(i),0,false,716057.3000000119,716056.8999999762,710755.879,710771.8000000119,710789.146,716082.779,4,500,13,
break,html.Screen,10_12_1,2023-11-17T15:37:43.923Z,,,,,,,,,,,NaN,,,,,,,,high,low,,,,,,false,,,,,false,716058.5,716058.1999999881,,716057.6999999881,,716082.779,4,500,,
break_continue,html.Screen,10_12_2,2023-11-17T15:37:43.924Z,,,,,,,,,,,NaN,,,,,,,,high,low,,,,,,false,,,,,false,716059.1999999881,716059,,716058.6999999881,,716082.779,4,500,,
sequence,flow.Sequence,10_12,2023-11-17T15:37:43.924Z,,,,,,,,,,,5269.85400000005,completion,,,,,,,high,low,,,,,,false,,,,,false,716059.6000000238,716059,710755.879,710771.6999999881,710789.146,716082.779,4,500,,
trial,html.Screen,10_13_0,2023-11-17T15:37:51.442Z,,,,1,-0.0159061451859594,-0.0296598845560212,,0.05,false,hl,7493.821000023861,response,0.7809949855371787,1.0691238626776856,-0.963789355184215,-0.8493861117004308,1.0325764733171954,-1.1124352583549315,high,low,,ISIC_0072564.JPG,8,ISIC_7450481.JPG,26,false,0.3200000000000002,ll,keypress(f),0,false,723576.8999999762,723576.6000000238,716049.569,716059.8999999762,716082.779,723580.691,4,500,14,
break,html.Screen,10_13_1,2023-11-17T15:37:51.443Z,,,,,,,,,,,NaN,,,,,,,,high,low,,,,,,false,,,,,false,723578.1000000238,723577.8000000119,,723577.3000000119,,723580.691,4,500,,
break_continue,html.Screen,10_13_2,2023-11-17T15:37:51.444Z,,,,,,,,,,,NaN,,,,,,,,high,low,,,,,,false,,,,,false,723578.8999999762,723578.6000000238,,723578.3999999762,,723580.691,4,500,,
sequence,flow.Sequence,10_13,2023-11-17T15:37:51.444Z,,,,,,,,,,,7495.821000023861,completion,,,,,,,high,low,,,,,,false,,,,,false,723579.1999999881,723578.6000000238,716049.569,716059.8000000119,716082.779,723580.691,4,500,,
trial,html.Screen,10_14_0,2023-11-17T15:37:53.856Z,,,,1,-0.0277178575053843,0.0395587463147856,,0.05,true,hh,2410.6090000119293,response,1.0491289899026992,1.0691238626776856,-0.963789355184215,1.058683139801412,1.0325764733171954,-1.1124352583549315,high,high,,ISIC_0010807.JPG,9,ISIC_0010866.JPG,30,false,0.1,hh,keypress(i),0,false,725991.3999999762,725991.3000000119,723564.278,723579.3999999762,723580.691,726018.809,4,500,15,
break,html.Screen,10_14_1,2023-11-17T15:37:53.857Z,,,,,,,,,,,NaN,,,,,,,,high,high,,,,,,false,,,,,false,725991.8000000119,725991.6999999881,,725991.6000000238,,726018.809,4,500,,
break_continue,html.Screen,10_14_2,2023-11-17T15:37:53.857Z,,,,,,,,,,,NaN,,,,,,,,high,high,,,,,,false,,,,,false,725992,725991.8999999762,,725991.8000000119,,726018.809,4,500,,
sequence,flow.Sequence,10_14,2023-11-17T15:37:53.857Z,,,,,,,,,,,2411.2089999761665,completion,,,,,,,high,high,,,,,,false,,,,,false,725992.1000000238,725991.8999999762,723564.278,723579.3999999762,723580.691,726018.809,4,500,,
trial,html.Screen,10_15_0,2023-11-17T15:37:57.690Z,,,,1,0.0057914759495055,0.0074667911845194,,0.05,true,ll,3806.2910000238335,response,-0.9071602543711612,1.0691238626776856,-0.963789355184215,-1.073798502866343,1.0325764733171954,-1.1124352583549315,low,low,,ISIC_0058723.JPG,9,ISIC_6676776.JPG,29,false,0.1,ll,keypress(f),0,false,729825.5,729825.1000000238,726002.312,725992.1000000238,726018.809,729842.912,4,500,16,
break,html.Screen,10_15_1,2023-11-17T15:37:57.692Z,,,,,,,,,,,NaN,,,,,,,,low,low,,,,,,false,,,,,false,729826.6999999881,729826.5,,729826,,729842.912,4,500,,
break_continue,html.Screen,10_15_2,2023-11-17T15:37:57.692Z,,,,,,,,,,,NaN,,,,,,,,low,low,,,,,,false,,,,,false,729827.5,729827.1999999881,,729827,,729842.912,4,500,,
sequence,flow.Sequence,10_15,2023-11-17T15:37:57.693Z,,,,,,,,,,,3808.3909999880707,completion,,,,,,,low,low,,,,,,false,,,,,false,729827.8000000119,729827.1999999881,726002.312,725992.1000000238,726018.809,729842.912,4,500,,
trial,html.Screen,10_16_0,2023-11-17T15:38:03.257Z,,,,1,0.0085520978188085,-0.0464691161264081,,0.05,true,lh,5547.987999976147,response,-0.8979276789594874,1.0691238626776856,-0.963789355184215,0.925374811016654,1.0325764733171954,-1.1124352583549315,low,high,,ISIC_0758797.JPG,9,ISIC_4208361.JPG,27,false,0.2300000000000001,lh,keypress(e),0,false,735391.1000000238,735390.8999999762,729826.306,729828.1000000238,729842.912,735403.74,4,500,17,
break,html.Screen,10_16_1,2023-11-17T15:38:03.257Z,,,,,,,,,,,NaN,,,,,,,,low,high,,,,,,false,,,,,false,735391.3999999762,735391.3000000119,,735391.1000000238,,735403.74,4,500,,
break_continue,html.Screen,10_16_2,2023-11-17T15:38:03.257Z,,,,,,,,,,,NaN,,,,,,,,low,high,,,,,,false,,,,,false,735391.6000000238,735391.5,,735391.3999999762,,735403.74,4,500,,
sequence,flow.Sequence,10_16,2023-11-17T15:38:03.257Z,,,,,,,,,,,5548.587999999989,completion,,,,,,,low,high,,,,,,false,,,,,false,735391.6999999881,735391.5,729826.306,729828,729842.912,735403.74,4,500,,
trial,html.Screen,10_17_0,2023-11-17T15:38:11.099Z,,,,1,-0.013431314305098,0.0140597582944232,,0.05,false,hl,7829.06000001193,response,0.7809949855371787,1.0691238626776856,-0.963789355184215,-0.8493861117004308,1.0325764733171954,-1.1124352583549315,high,low,,ISIC_0069617.JPG,8,ISIC_7450481.JPG,26,false,0.3200000000000002,ll,keypress(f),0,false,743233.3000000119,743232.8000000119,735387.161,735391.6999999881,735403.74,743235.732,4,500,18,
break,html.Screen,10_17_1,2023-11-17T15:38:11.100Z,,,,,,,,,,,NaN,,,,,,,,high,low,,,,,,false,,,,,false,743234.5,743234.1999999881,,743233.6000000238,,743235.732,4,500,,
break_continue,html.Screen,10_17_2,2023-11-17T15:38:11.101Z,,,,,,,,,,,NaN,,,,,,,,high,low,,,,,,false,,,,,false,743235.3000000119,743235.1000000238,,743234.8000000119,,743235.732,4,500,,
sequence,flow.Sequence,10_17,2023-11-17T15:38:11.101Z,,,,,,,,,,,7831.360000023851,completion,,,,,,,high,low,,,,,,false,,,,,false,743235.6999999881,743235.1000000238,735387.161,735391.6999999881,735403.74,743235.732,4,500,,
trial,html.Screen,10_18_0,2023-11-17T15:38:18.058Z,,,,1,0.007397293189458,0.0174716772037504,,0.05,false,hh,6956.868000023882,response,1.101346104814838,1.0691238626776856,-0.963789355184215,1.1225813067473052,1.0325764733171954,-1.1124352583549315,high,high,,ISIC_0056226.JPG,9,ISIC_8175453.JPG,30,false,0.1,hl,keypress(j),0,false,750192.8999999762,750192.6000000238,743219.081,743235.8000000119,743235.732,750199.196,4,500,19,
break,html.Screen,10_18_1,2023-11-17T15:38:18.060Z,,,,,,,,,,,NaN,,,,,,,,high,high,,,,,,false,,,,,false,750194.1999999881,750193.8000000119,,750193.3000000119,,750199.196,4,500,,
break_continue,html.Screen,10_18_2,2023-11-17T15:38:18.061Z,,,,,,,,,,,NaN,,,,,,,,high,high,,,,,,false,,,,,false,750194.8999999762,750194.6999999881,,750194.5,,750199.196,4,500,,
sequence,flow.Sequence,10_18,2023-11-17T15:38:18.061Z,,,,,,,,,,,6958.967999988119,completion,,,,,,,high,high,,,,,,false,,,,,false,750195.3000000119,750194.6999999881,743219.081,743235.8000000119,743235.732,750199.196,4,500,,
trial,html.Screen,10_19_0,2023-11-17T15:38:21.121Z,,,,1,-0.0113873532168551,-0.0054999201556291,,0.05,false,ll,3055.9040000238456,response,-1.057008495826831,1.0691238626776856,-0.963789355184215,-1.1278122585028287,1.0325764733171954,-1.1124352583549315,low,low,,ISIC_8812621.JPG,9,ISIC_2819798.JPG,29,false,0.1,hl,keypress(j),0,false,753255.1999999881,753255.1000000238,750182.675,750195.6000000238,750199.196,753271.846,4,500,20,
break,html.Screen,10_19_1,2023-11-17T15:38:21.121Z,,,,,,,,,,,NaN,,,,,,,,low,low,,,,,,false,,,,,false,753255.6000000238,753255.5,,753255.3999999762,,753271.846,4,500,,
break_continue,html.Screen,10_19_2,2023-11-17T15:38:21.121Z,,,,,,,,,,,NaN,,,,,,,,low,low,,,,,,false,,,,,false,753255.8000000119,753255.8000000119,,753255.6000000238,,753271.846,4,500,,
sequence,flow.Sequence,10_19,2023-11-17T15:38:21.121Z,,,,,,,,,,,3056.6040000119247,completion,,,,,,,low,low,,,,,,false,,,,,false,753255.8999999762,753255.8000000119,750182.675,750195.5,750199.196,753271.846,4,500,,
trial,html.Screen,10_20_0,2023-11-17T15:38:26.955Z,,,,1,-0.000047919190197942736,-0.0462652940855003,,0.05,true,ll,5817.053999976139,response,-0.9069195139552818,1.0691238626776856,-0.963789355184215,-1.17726864031644,1.0325764733171954,-1.1124352583549315,low,low,,ISIC_0011507.JPG,9,ISIC_9728003.JPG,29,false,0.1,ll,keypress(f),0,false,759089.1999999881,759088.8999999762,753238.687,753255.8999999762,753271.846,759116.564,4,500,21,
break,html.Screen,10_20_1,2023-11-17T15:38:26.956Z,,,,,,,,,,,NaN,,,,,,,,low,low,,,,,,false,,,,,false,759090.5,759090.1000000238,,759089.6000000238,,759116.564,4,500,,
break_continue,html.Screen,10_20_2,2023-11-17T15:38:26.957Z,,,,,,,,,,,NaN,,,,,,,,low,low,,,,,,false,,,,,false,759091.1999999881,759091,,759090.6999999881,,759116.564,4,500,,
sequence,flow.Sequence,10_20,2023-11-17T15:38:26.957Z,,,,,,,,,,,5819.15399999998,completion,,,,,,,low,low,,,,,,false,,,,,false,759091.6000000238,759091,753238.687,753255.8999999762,753271.846,759116.564,4,500,,
trial,html.Screen,10_21_0,2023-11-17T15:38:35.243Z,,,,1,0.0324770283903853,0.0249968632204382,,0.05,false,hl,8260.236000011908,response,0.991146183030456,1.0691238626776856,-0.963789355184215,-0.9949639823722534,1.0325764733171954,-1.1124352583549315,high,low,,ISIC_7266462.JPG,9,ISIC_6342224.JPG,26,false,0.3200000000000002,lh,keypress(e),0,false,767377.1000000238,767376.8000000119,759083.232,759091.8999999762,759116.564,767399.36,4,500,22,
break,html.Screen,10_21_1,2023-11-17T15:38:35.244Z,,,,,,,,,,,NaN,,,,,,,,high,low,,,,,,false,,,,,false,767378.3999999762,767378.1000000238,,767377.5,,767399.36,4,500,,
break_continue,html.Screen,10_21_2,2023-11-17T15:38:35.245Z,,,,,,,,,,,NaN,,,,,,,,high,low,,,,,,false,,,,,false,767379.1000000238,767378.8999999762,,767378.6000000238,,767399.36,4,500,,
sequence,flow.Sequence,10_21,2023-11-17T15:38:35.245Z,,,,,,,,,,,8262.335999976145,completion,,,,,,,high,low,,,,,,false,,,,,false,767379.5,767378.8999999762,759083.232,759091.8000000119,759116.564,767399.36,4,500,,
trial,html.Screen,10_22_0,2023-11-17T15:38:37.635Z,,,,1,-0.0277178575053843,0.0395587463147856,,0.05,true,hh,2369.440000011935,response,1.0762260610050776,1.0691238626776856,-0.963789355184215,1.082709423673037,1.0325764733171954,-1.1124352583549315,high,high,,ISIC_0010807.JPG,9,ISIC_0058666.JPG,30,false,0.1,hh,keypress(i),0,false,769769.1000000238,769768.8000000119,767366.134,767379.6999999881,767399.36,769787.932,4,500,23,
break,html.Screen,10_22_1,2023-11-17T15:38:37.636Z,,,,,,,,,,,NaN,,,,,,,,high,high,,,,,,false,,,,,false,769770.3000000119,769770,,769769.5,,769787.932,4,500,,
break_continue,html.Screen,10_22_2,2023-11-17T15:38:37.637Z,,,,,,,,,,,NaN,,,,,,,,high,high,,,,,,false,,,,,false,769771,769770.8000000119,,769770.5,,769787.932,4,500,,
sequence,flow.Sequence,10_22,2023-11-17T15:38:37.637Z,,,,,,,,,,,2371.440000011935,completion,,,,,,,high,high,,,,,,false,,,,,false,769771.3000000119,769770.8000000119,767366.134,767379.6000000238,767399.36,769787.932,4,500,,
trial,html.Screen,10_23_0,2023-11-17T15:38:39.305Z,,,,1,0.0057914759495055,0.0074667911845194,,0.05,true,hh,1651.0679999999702,response,1.1254252603792554,1.0691238626776856,-0.963789355184215,1.0263116781284176,1.0325764733171954,-1.1124352583549315,high,high,,ISIC_0058723.JPG,9,ISIC_0032420.JPG,30,false,0.1,hh,keypress(i),0,false,771439.1000000238,771439,769754.194,769771.6999999881,769787.932,771440.53,4,500,24,
break,html.Screen,10_23_1,2023-11-17T15:38:39.305Z,,,,,,,,,,,NaN,,,,,,,,high,high,,,,,,false,,,,,false,771439.3999999762,771439.3999999762,,771439.1999999881,,771440.53,4,500,,
break_continue,html.Screen,10_23_2,2023-11-17T15:38:39.305Z,,,,,,,,,,,NaN,,,,,,,,high,high,,,,,,false,,,,,false,771439.6000000238,771439.6000000238,,771439.3999999762,,771440.53,4,500,,
sequence,flow.Sequence,10_23,2023-11-17T15:38:39.305Z,,,,,,,,,,,1651.668000023812,completion,,,,,,,high,high,,,,,,false,,,,,false,771439.6000000238,771439.6000000238,769754.194,769771.6000000238,769787.932,771440.53,4,500,,
trial,html.Screen,10_24_0,2023-11-17T15:38:42.899Z,,,,1,0.0050679133050021,-0.0009714874637896,,0.05,true,ll,3592.169999988051,response,-0.8842396282744274,1.0691238626776856,-0.963789355184215,-1.0676592823752966,1.0325764733171954,-1.1124352583549315,low,low,,ISIC_9848743.JPG,9,ISIC_0029182.JPG,29,false,0.1,ll,keypress(f),0,false,775033,775032.6999999881,771424.073,771439.6999999881,771440.53,775047.644,4,500,25,
break,html.Screen,10_24_1,2023-11-17T15:38:42.900Z,,,,,,,,,,,NaN,,,,,,,,low,low,,,,,,false,,,,,false,775034.3000000119,775034,,775033.5,,775047.644,4,500,,
break_continue,html.Screen,10_24_2,2023-11-17T15:38:42.901Z,,,,,,,,,,,NaN,,,,,,,,low,low,,,,,,false,,,,,false,775035,775034.8000000119,,775034.5,,775047.644,4,500,,
sequence,flow.Sequence,10_24,2023-11-17T15:38:42.901Z,,,,,,,,,,,3594.270000011893,completion,,,,,,,low,low,,,,,,false,,,,,false,775035.3999999762,775034.8000000119,771424.073,771439.6999999881,771440.53,775047.644,4,500,,
trial,html.Screen,10_25_0,2023-11-17T15:38:44.921Z,,,,1,0.0070725527271049,0.0049995141077508,,0.05,true,hh,2007.6560000119498,response,1.0931477426281198,1.0691238626776856,-0.963789355184215,1.0028306951898116,1.0325764733171954,-1.1124352583549315,high,high,,ISIC_6124481.JPG,8,ISIC_0026531.JPG,30,false,0.1,hh,keypress(i),0,false,777055.3999999762,777055.3000000119,775031.097,775035.6000000238,775047.644,777068.263,4,500,26,
break,html.Screen,10_25_1,2023-11-17T15:38:44.921Z,,,,,,,,,,,NaN,,,,,,,,high,high,,,,,,false,,,,,false,777055.8000000119,777055.6999999881,,777055.5,,777068.263,4,500,,
break_continue,html.Screen,10_25_2,2023-11-17T15:38:44.921Z,,,,,,,,,,,NaN,,,,,,,,high,high,,,,,,false,,,,,false,777055.8999999762,777055.8999999762,,777055.8000000119,,777068.263,4,500,,
sequence,flow.Sequence,10_25,2023-11-17T15:38:44.921Z,,,,,,,,,,,2008.255999976187,completion,,,,,,,high,high,,,,,,false,,,,,false,777055.8999999762,777055.8999999762,775031.097,775035.6000000238,775047.644,777068.263,4,500,,
trial,html.Screen,10_26_0,2023-11-17T15:38:49.267Z,,,,1,-0.0097091270150747,0.0417921315885292,,0.05,true,ll,4332.636999976123,response,-0.9069195139552818,1.0691238626776856,-0.963789355184215,-1.17726864031644,1.0325764733171954,-1.1124352583549315,low,low,,ISIC_3967213.JPG,9,ISIC_9728003.JPG,29,false,0.1,ll,keypress(f),0,false,781401.1999999881,781400.8999999762,777051.512,777056,777068.263,781426.648,4,500,27,
break,html.Screen,10_26_1,2023-11-17T15:38:49.268Z,,,,,,,,,,,NaN,,,,,,,,low,low,,,,,,false,,,,,false,781402.3000000119,781402,,781401.6000000238,,781426.648,4,500,,
break_continue,html.Screen,10_26_2,2023-11-17T15:38:49.269Z,,,,,,,,,,,NaN,,,,,,,,low,low,,,,,,false,,,,,false,781403.1000000238,781402.8000000119,,781402.5,,781426.648,4,500,,
sequence,flow.Sequence,10_26,2023-11-17T15:38:49.269Z,,,,,,,,,,,4334.5370000118855,completion,,,,,,,low,low,,,,,,false,,,,,false,781403.3999999762,781402.8000000119,777051.512,777056,777068.263,781426.648,4,500,,
trial,html.Screen,10_27_0,2023-11-17T15:38:51.027Z,,,,1,-0.0409338693593207,0.0072462710499874,,0.05,false,hl,1734.1520000118762,response,0.8092423703106274,1.0691238626776856,-0.963789355184215,-1.1870093485714288,1.0325764733171954,-1.1124352583549315,high,low,,ISIC_3608788.JPG,8,ISIC_8592235.JPG,26,false,0.3200000000000002,ll,keypress(f),0,false,783161,783160.8000000119,781409.956,781403.6000000238,781426.648,783180.034,4,500,28,
break,html.Screen,10_27_1,2023-11-17T15:38:51.028Z,,,,,,,,,,,NaN,,,,,,,,high,low,,,,,,false,,,,,false,783162.3000000119,783162,,783161.5,,783180.034,4,500,,
break_continue,html.Screen,10_27_2,2023-11-17T15:38:51.029Z,,,,,,,,,,,NaN,,,,,,,,high,low,,,,,,false,,,,,false,783163,783162.8000000119,,783162.6000000238,,783180.034,4,500,,
sequence,flow.Sequence,10_27,2023-11-17T15:38:51.029Z,,,,,,,,,,,1736.1520000118762,completion,,,,,,,high,low,,,,,,false,,,,,false,783163.3000000119,783162.8000000119,781409.956,781403.6000000238,781426.648,783180.034,4,500,,
trial,html.Screen,10_28_0,2023-11-17T15:38:53.875Z,,,,1,-0.0112310719058792,0.0469047359904117,,0.05,false,lh,2828.766000011936,response,-0.8979276789594874,1.0691238626776856,-0.963789355184215,0.925374811016654,1.0325764733171954,-1.1124352583549315,low,high,,ISIC_0068184.JPG,9,ISIC_4208361.JPG,27,false,0.2300000000000001,ll,keypress(f),0,false,786009.1999999881,786008.8000000119,783146.894,783163.6000000238,783180.034,786018.922,4,500,29,
break,html.Screen,10_28_1,2023-11-17T15:38:53.876Z,,,,,,,,,,,NaN,,,,,,,,low,high,,,,,,false,,,,,false,786010.3999999762,786010,,786009.6000000238,,786018.922,4,500,,
break_continue,html.Screen,10_28_2,2023-11-17T15:38:53.877Z,,,,,,,,,,,NaN,,,,,,,,low,high,,,,,,false,,,,,false,786011.1000000238,786010.8000000119,,786010.6999999881,,786018.922,4,500,,
sequence,flow.Sequence,10_28,2023-11-17T15:38:53.877Z,,,,,,,,,,,2830.766000011936,completion,,,,,,,low,high,,,,,,false,,,,,false,786011.3999999762,786010.8000000119,783146.894,783163.6000000238,783180.034,786018.922,4,500,,
trial,html.Screen,10_29_0,2023-11-17T15:38:57.859Z,,,,1,-0.0134764727102299,-0.0033499036460912,,0.05,false,hl,3973.7779999880586,response,0.7870237732709365,1.0691238626776856,-0.963789355184215,-0.9172955251119376,1.0325764733171954,-1.1124352583549315,high,low,,ISIC_0009998.JPG,9,ISIC_0057716.JPG,26,false,0.3200000000000002,ll,keypress(f),0,false,789993,789992.6999999881,786002.479,786011.6999999881,786018.922,790009.997,4,500,30,
break,html.Screen,10_29_1,2023-11-17T15:38:57.860Z,,,,,,,,,,,NaN,,,,,,,,high,low,,,,,,false,,,,,false,789994.1999999881,789993.8999999762,,789993.5,,790009.997,4,500,,
break_continue,html.Screen,10_29_2,2023-11-17T15:38:57.860Z,,,,,,,,,,,NaN,,,,,,,,high,low,,,,,,false,,,,,false,789995,789994.6999999881,,789994.3999999762,,790009.997,4,500,,
sequence,flow.Sequence,10_29,2023-11-17T15:38:57.861Z,,,,,,,,,,,3975.7779999880586,completion,,,,,,,high,low,,,,,,false,,,,,false,789995.1999999881,789994.6999999881,786002.479,786011.6000000238,786018.922,790009.997,4,500,,
trial,html.Screen,10_30_0,2023-11-17T15:39:00.275Z,,,,1,0.0450282431170921,,,0.05,false,lh,2398.702999988105,response,-1.1181734135756094,1.0691238626776856,-0.963789355184215,0.944560381774994,1.0325764733171954,-1.1124352583549315,low,high,,ISIC_1805163.JPG,9,ISIC_9688534.JPG,27,false,0.2300000000000001,ll,keypress(f),0,false,792409,792408.6999999881,789993.541,789995.5,790009.997,792414.679,4,500,31,
break,html.Screen,10_30_1,2023-11-17T15:39:00.276Z,,,,,,,,,,,NaN,,,,,,,,low,high,,,,,,false,,,,,false,792410,792409.6000000238,,792409.1999999881,,792414.679,4,500,,
break_continue,html.Screen,10_30_2,2023-11-17T15:39:00.277Z,,,,,,,,,,,NaN,,,,,,,,low,high,,,,,,false,,,,,false,792410.6000000238,792410.3000000119,,792410.1000000238,,792414.679,4,500,,
sequence,flow.Sequence,10_30,2023-11-17T15:39:00.277Z,,,,,,,,,,,2400.303000011947,completion,,,,,,,low,high,,,,,,false,,,,,false,792410.8000000119,792410.3000000119,789993.541,789995.3999999762,790009.997,792414.679,4,500,,
trial,html.Screen,10_31_0,2023-11-17T15:39:05.011Z,,,,1,-0.0188047466661863,0.0288346930436979,,0.05,false,ll,4730.020999988075,response,-0.9029354290897352,1.0691238626776856,-0.963789355184215,-1.1346860677105404,1.0325764733171954,-1.1124352583549315,low,low,,ISIC_0014157.JPG,9,ISIC_4153687.JPG,29,false,0.1,hl,keypress(j),0,false,797145.1000000238,797144.6999999881,792398.258,792411,792414.679,797157.334,4,500,32,
break,html.Screen,10_31_1,2023-11-17T15:39:05.012Z,,,,,,,,,,,NaN,,,,,,,,low,low,,,,,,false,,,,,false,797146.3999999762,797145.8999999762,,797145.5,,797157.334,4,500,,
break_continue,html.Screen,10_31_2,2023-11-17T15:39:05.013Z,,,,,,,,,,,NaN,,,,,,,,low,low,,,,,,false,,,,,false,797147,797146.6999999881,,797146.6000000238,,797157.334,4,500,,
sequence,flow.Sequence,10_31,2023-11-17T15:39:05.014Z,,,,,,,,,,,4732.020999988075,completion,,,,,,,low,low,,,,,,false,,,,,false,797147.3000000119,797146.6999999881,792398.258,792411,792414.679,797157.334,4,500,,
trial,html.Screen,10_32_0,2023-11-17T15:39:09.571Z,,,,1,-0.000047919190197942736,-0.0462652940855003,,0.05,true,ll,4547.0659999761265,response,-1.0097932576366906,1.0691238626776856,-0.963789355184215,-1.0644834610939486,1.0325764733171954,-1.1124352583549315,low,low,,ISIC_0011507.JPG,8,ISIC_8559515.JPG,29,false,0.1,ll,keypress(f),0,false,801704.8000000119,801704.3999999762,797140.794,797147.6000000238,797157.334,801716.143,4,500,33,
break,html.Screen,10_32_1,2023-11-17T15:39:09.572Z,,,,,,,,,,,NaN,,,,,,,,low,low,,,,,,false,,,,,false,801705.8999999762,801705.6999999881,,801705.1999999881,,801716.143,4,500,,
break_continue,html.Screen,10_32_2,2023-11-17T15:39:09.573Z,,,,,,,,,,,NaN,,,,,,,,low,low,,,,,,false,,,,,false,801706.6000000238,801706.3999999762,,801706.1999999881,,801716.143,4,500,,
sequence,flow.Sequence,10_32,2023-11-17T15:39:09.573Z,,,,,,,,,,,4549.0659999761265,completion,,,,,,,low,low,,,,,,false,,,,,false,801706.8999999762,801706.3999999762,797140.794,797147.5,797157.334,801716.143,4,500,,
trial,html.Screen,10_33_0,2023-11-17T15:39:20.404Z,,,,1,-0.0159061451859594,-0.0296598845560212,,0.05,false,lh,10820.85699999996,response,-0.7877939497981142,1.0691238626776856,-0.963789355184215,0.8415032780288271,1.0325764733171954,-1.1124352583549315,low,high,,ISIC_0072564.JPG,8,ISIC_0067308.JPG,27,false,0.2300000000000001,ll,keypress(f),0,false,812537.3000000119,812537,801699.378,801707.1999999881,801716.143,812553.984,4,500,34,
break,html.Screen,10_33_1,2023-11-17T15:39:20.405Z,,,,,,,,,,,NaN,,,,,,,,low,high,,,,,,false,,,,,false,812538.6000000238,812538.3000000119,,812537.8000000119,,812553.984,4,500,,
break_continue,html.Screen,10_33_2,2023-11-17T15:39:20.405Z,,,,,,,,,,,NaN,,,,,,,,low,high,,,,,,false,,,,,false,812539.3000000119,812539,,812538.8000000119,,812553.984,4,500,,
sequence,flow.Sequence,10_33,2023-11-17T15:39:20.406Z,,,,,,,,,,,10822.85699999996,completion,,,,,,,low,high,,,,,,false,,,,,false,812539.6999999881,812539,801699.378,801707.1000000238,801716.143,812553.984,4,500,,
trial,html.Screen,10_34_0,2023-11-17T15:39:22.595Z,,,,1,0.0450282431170921,,,0.05,true,hh,2174.915999976103,response,1.0022982145596024,1.0691238626776856,-0.963789355184215,0.9703352077282876,1.0325764733171954,-1.1124352583549315,high,high,,ISIC_1805163.JPG,9,ISIC_0011930.JPG,30,false,0.1,hh,keypress(i),0,false,814729.3000000119,814728.8999999762,812537.446,812539.8999999762,812553.984,814741.549,4,500,35,
break,html.Screen,10_34_1,2023-11-17T15:39:22.597Z,,,,,,,,,,,NaN,,,,,,,,high,high,,,,,,false,,,,,false,814730.6000000238,814730.1999999881,,814729.6999999881,,814741.549,4,500,,
break_continue,html.Screen,10_34_2,2023-11-17T15:39:22.597Z,,,,,,,,,,,NaN,,,,,,,,high,high,,,,,,false,,,,,false,814731.1999999881,814731.1000000238,,814730.8000000119,,814741.549,4,500,,
sequence,flow.Sequence,10_34,2023-11-17T15:39:22.598Z,,,,,,,,,,,2177.116000023787,completion,,,,,,,high,high,,,,,,false,,,,,false,814731.6000000238,814731.1000000238,812537.446,812539.8999999762,812553.984,814741.549,4,500,,
trial,html.Screen,10_35_0,2023-11-17T15:39:28.467Z,,,,1,0.0456515796420274,-0.0273567130070961,,0.05,false,hh,5859.251000011922,response,1.135372722680314,1.0691238626776856,-0.963789355184215,1.0926414044454305,1.0325764733171954,-1.1124352583549315,high,high,,ISIC_0068610.JPG,8,ISIC_2355513.JPG,30,false,0.1,ll,keypress(f),0,false,820601.1999999881,820600.8000000119,814724.807,814732,814741.549,820620.453,4,500,36,
break,html.Screen,10_35_1,2023-11-17T15:39:28.469Z,,,,,,,,,,,NaN,,,,,,,,high,high,,,,,,false,,,,,false,820602.3999999762,820602.1000000238,,820601.6000000238,,820620.453,4,500,,
break_continue,html.Screen,10_35_2,2023-11-17T15:39:28.469Z,,,,,,,,,,,NaN,,,,,,,,high,high,,,,,,false,,,,,false,820603.1999999881,820603,,820602.6999999881,,820620.453,4,500,,
sequence,flow.Sequence,10_35,2023-11-17T15:39:28.470Z,,,,,,,,,,,5861.451000000001,completion,,,,,,,high,high,,,,,,false,,,,,false,820603.6000000238,820603,814724.807,814731.8999999762,814741.549,820620.453,4,500,,
trial,html.Screen,10_36_0,2023-11-17T15:39:35.626Z,,,,1,0.039728379742806,-0.0228701131373768,,0.05,false,lh,7138.946999976179,response,-1.0026266089287914,1.0691238626776856,-0.963789355184215,1.0913275913920335,1.0325764733171954,-1.1124352583549315,low,high,,ISIC_0054073.JPG,9,ISIC_0033520.JPG,27,false,0.2300000000000001,ll,keypress(f),0,false,827759.5,827759.3999999762,820586.416,820603.8000000119,820620.453,827783.507,4,500,37,
break,html.Screen,10_36_1,2023-11-17T15:39:35.626Z,,,,,,,,,,,NaN,,,,,,,,low,high,,,,,,false,,,,,false,827759.8999999762,827759.8000000119,,827759.6000000238,,827783.507,4,500,,
break_continue,html.Screen,10_36_2,2023-11-17T15:39:35.626Z,,,,,,,,,,,NaN,,,,,,,,low,high,,,,,,false,,,,,false,827760.1000000238,827760.1000000238,,827760,,827783.507,4,500,,
sequence,flow.Sequence,10_36,2023-11-17T15:39:35.626Z,,,,,,,,,,,7139.647000023862,completion,,,,,,,low,high,,,,,,false,,,,,false,827760.1000000238,827760.1000000238,820586.416,820603.8000000119,820620.453,827783.507,4,500,,
trial,html.Screen,10_37_0,2023-11-17T15:39:38.193Z,,,,1,0.0450282431170921,,,0.05,false,lh,2543.5930000238586,response,-0.869932994914832,1.0691238626776856,-0.963789355184215,0.8880533324432531,1.0325764733171954,-1.1124352583549315,low,high,,ISIC_1805163.JPG,8,ISIC_8617084.JPG,27,false,0.2300000000000001,hh,keypress(i),0,false,830327.1000000238,830327.1000000238,827750.344,827760.1999999881,827783.507,830338.531,4,500,38,
break,html.Screen,10_37_1,2023-11-17T15:39:38.194Z,,,,,,,,,,,NaN,,,,,,,,low,high,,,,,,false,,,,,false,830327.5,830327.3999999762,,830327.3000000119,,830338.531,4,500,,
break_continue,html.Screen,10_37_2,2023-11-17T15:39:38.194Z,,,,,,,,,,,NaN,,,,,,,,low,high,,,,,,false,,,,,false,830327.6000000238,830327.6000000238,,830327.5,,830338.531,4,500,,
sequence,flow.Sequence,10_37,2023-11-17T15:39:38.194Z,,,,,,,,,,,2544.0930000238586,completion,,,,,,,low,high,,,,,,false,,,,,false,830327.6999999881,830327.6000000238,827750.344,827760.1999999881,827783.507,830338.531,4,500,,
