sender,sender_type,sender_id,timestamp,meta,,age,blockNo,c1,c2,condition,control_tolerance,correct,correctResponse,duration,ended_on,f1,f1_high,f1_low,f2,f2_high,f2_low,feature_level1,feature_level2,gender,img_left,img_reveal,img_right,n_target_images,practice,range_tolerance,response,response_action,selection_duration,staircase,time_commit,time_end,time_render,time_run,time_show,time_switch,total_blocks,total_trials,trialNo,url
informed_consent,html.Screen,0,2023-11-17T16:15:17.666Z,"{""labjs_version"":""20.2.4"",""labjs_build"":{""flavor"":""development"",""commit"":""f5b4a49f956347addd546a832a3327688c2c0fef""},""location"":""https://labjs.felixhenninger.com/api/labjs_preview/index.html"",""userAgent"":""Mozilla/5.0 (Windows NT 10.0; Win64; x64) AppleWebKit/537.36 (KHTML, like Gecko) Chrome/119.0.0.0 Safari/537.36"",""platform"":""Win32"",""language"":""en-US"",""locale"":""en-US"",""timeZone"":""America/Chicago"",""timezoneOffset"":360,""screen_width"":1920,""screen_height"":1080,""scroll_width"":945,""scroll_height"":918,""window_innerWidth"":945,""window_innerHeight"":966,""devicePixelRatio"":1}",,,,,,,,,,188887.71600001192,response,,,,,,,,,,,,,,,,consent,click button,,,189590.80000001192,189581.80000001192,677.405,668.8000000119209,694.084,189611.163,,,,{}
Demography form,html.Form,1,2023-11-17T16:15:23.745Z,,,18,,,,,,,,6059.036999988079,form submission,,,,,,,,,male,,,,,,,,,,,195670.30000001192,195670.19999998808,189594.286,189591.09999999404,189611.163,195694.255,,,,
Welcome,html.Screen,2,2023-11-17T16:15:37.169Z,,,,,,,"[""asym"",""col""]",,,,13399.645000005956,response,,,,,,,,,,,,,,,,continue,click button,,,209094.5,209093.90000000596,195677.608,195670.40000000596,195694.255,209111.165,,,,
demo_instructions,html.Screen,3,2023-11-17T16:16:02.994Z,,,,,,,,,,,25806.635000011913,response,,,,,,,,,,,,,,,,continue,click button,,,234918.59999999404,234917.80000001192,209094.317,209094.59999999404,209111.165,234944.314,,,,
trial,html.Screen,4_0_0,2023-11-17T16:16:09.654Z,,,,0,1.1592423187534993,-1.067128884093211,,,true,lh,6634.385999988066,response,-1.4748095371445096,1.2,-1.2,0.9579010801034902,1.2,-1.2,low,high,,ISIC_6854940.JPG,,ISIC_0033216.JPG,29,true,0.3600000000000002,lh,keypress(e),100,false,241579,241578.69999998808,234911.116,234918.80000001192,234944.314,241611.084,1,16,1,
sequence,flow.Sequence,4_0,2023-11-17T16:16:09.665Z,,,,,,,,,,,6634.385999988066,completion,,,,,,,low,high,,,,,,true,,,,,false,241590.40000000596,241578.69999998808,234911.116,234918.80000001192,234944.314,241611.084,1,16,,
trial,html.Screen,4_1_0,2023-11-17T16:16:18.209Z,,,,0,0.887838744955182,-1.3716210719758812,,,true,lh,8522.415999999997,response,-1.4727776799485246,1.2,-1.2,0.8779113138076752,1.2,-1.2,low,high,,ISIC_1488727.JPG,,ISIC_0033074.JPG,29,true,0.3600000000000002,lh,keypress(e),100,false,250133.80000001192,250133.5,241594.353,241590.59999999404,241611.084,250161.182,1,16,2,
sequence,flow.Sequence,4_1,2023-11-17T16:16:18.209Z,,,,,,,,,,,8522.415999999997,completion,,,,,,,low,high,,,,,,true,,,,,false,250134,250133.5,241594.353,241590.5,241611.084,250161.182,1,16,,
trial,html.Screen,4_2_0,2023-11-17T16:16:23.156Z,,,,0,1.0822170028935367,-1.1654796154432183,,,true,lh,4919.21800000596,response,-1.1224745971429997,1.2,-1.2,0.8423270217438888,1.2,-1.2,low,high,,ISIC_7288818.JPG,,ISIC_0057032.JPG,29,true,0.3600000000000002,lh,keypress(e),100,false,255080.59999999404,255080.40000000596,250144.366,250134.09999999404,250161.182,255110.983,1,16,3,
sequence,flow.Sequence,4_2,2023-11-17T16:16:23.156Z,,,,,,,,,,,4919.21800000596,completion,,,,,,,low,high,,,,,,true,,,,,false,255080.90000000596,255080.40000000596,250144.366,250134.09999999404,250161.182,255110.983,1,16,,
trial,html.Screen,4_3_0,2023-11-17T16:16:25.635Z,,,,0,0.9448560599810628,-0.9099421612683488,,,true,lh,2449.0169999999925,response,-0.9385447468573198,1.2,-1.2,1.2289860846064424,1.2,-1.2,low,high,,ISIC_9684318.JPG,,ISIC_0032780.JPG,29,true,0.3600000000000002,lh,keypress(e),100,false,257560.19999998808,257560,255094.359,255080.90000000596,255110.983,257577.937,1,16,4,
sequence,flow.Sequence,4_3,2023-11-17T16:16:25.636Z,,,,,,,,,,,2449.0169999999925,completion,,,,,,,low,high,,,,,,true,,,,,false,257560.59999999404,257560,255094.359,255080.90000000596,255110.983,257577.937,1,16,,
trial,html.Screen,4_4_0,2023-11-17T16:16:30.955Z,,,,0,1.2435042401134029,1.2939710463315144,,,true,ll,5301.662999994034,response,-1.211212746138903,1.2,-1.2,-0.9514368385965256,1.2,-1.2,low,low,,ISIC_0056119.JPG,,ISIC_0198331.JPG,127,true,0.3300000000000002,ll,keypress(f),100,false,262879.8000000119,262879.59999999404,257561.062,257560.80000001192,257577.937,262911.268,1,16,5,
sequence,flow.Sequence,4_4,2023-11-17T16:16:30.955Z,,,,,,,,,,,5301.662999994034,completion,,,,,,,low,low,,,,,,true,,,,,false,262880,262879.59999999404,257561.062,257560.69999998808,257577.937,262911.268,1,16,,
trial,html.Screen,4_5_0,2023-11-17T16:16:33.376Z,,,,0,1.2040551955011098,1.2664651062241792,,,true,ll,2389.732000000018,response,-1.053007132776416,1.2,-1.2,-1.341217082060068,1.2,-1.2,low,low,,ISIC_0068886.JPG,,ISIC_0024208.JPG,25,true,0.15000000000000002,ll,keypress(f),100,false,265301.1999999881,265301,262894.362,262880.09999999404,262911.268,265327.883,1,16,6,
sequence,flow.Sequence,4_5,2023-11-17T16:16:33.377Z,,,,,,,,,,,2389.732000000018,completion,,,,,,,low,low,,,,,,true,,,,,false,265301.3000000119,265301,262894.362,262880,262911.268,265327.883,1,16,,
trial,html.Screen,4_6_0,2023-11-17T16:16:36.711Z,,,,0,1.1126049058422398,1.2305421124063929,,,true,ll,3307.4170000119484,response,-1.301795918505203,1.2,-1.2,-1.0518606632781424,1.2,-1.2,low,low,,ISIC_0071536.JPG,,ISIC_0027666.JPG,25,true,0.15000000000000002,ll,keypress(f),100,false,268635.3000000119,268635.3000000119,265311.011,265301.40000000596,265327.883,268661.002,1,16,7,
sequence,flow.Sequence,4_6,2023-11-17T16:16:36.711Z,,,,,,,,,,,3307.4170000119484,completion,,,,,,,low,low,,,,,,true,,,,,false,268635.5,268635.3000000119,265311.011,265301.40000000596,265327.883,268661.002,1,16,,
trial,html.Screen,4_7_0,2023-11-17T16:16:41.629Z,,,,0,1.194799101954455,1.2071632388858642,,,true,ll,4892.898000005982,response,-1.204229955025689,1.2,-1.2,-1.0874249761617445,1.2,-1.2,low,low,,ISIC_4347535.JPG,,ISIC_0056930.JPG,25,true,0.15000000000000002,ll,keypress(f),100,false,273554.09999999404,273553.90000000596,268644.396,268635.59999999404,268661.002,273577.766,1,16,8,
sequence,flow.Sequence,4_7,2023-11-17T16:16:41.629Z,,,,,,,,,,,4892.898000005982,completion,,,,,,,low,low,,,,,,true,,,,,false,273554.3000000119,273553.90000000596,268644.396,268635.59999999404,268661.002,273577.766,1,16,,
trial,html.Screen,4_8_0,2023-11-17T16:16:47.139Z,,,,0,-0.8779374983479176,0.9745548032823428,,,true,hl,5486.333999994036,response,1.296989496412063,1.2,-1.2,-1.1425074323097002,1.2,-1.2,high,low,,ISIC_2991354.JPG,,ISIC_6356803.JPG,26,true,0.3300000000000002,hl,keypress(j),100,false,279064.1999999881,279064.09999999404,273561.053,273554.3000000119,273577.766,279094.354,1,16,9,
sequence,flow.Sequence,4_8,2023-11-17T16:16:47.140Z,,,,,,,,,,,5486.333999994036,completion,,,,,,,high,low,,,,,,true,,,,,false,279064.40000000596,279064.09999999404,273561.053,273554.3000000119,273577.766,279094.354,1,16,,
trial,html.Screen,4_9_0,2023-11-17T16:16:49.283Z,,,,0,-1.0003671514840182,0.8992716557663581,,,true,hl,2113.146000000008,response,0.9225524349657857,1.2,-1.2,-0.929746784178986,1.2,-1.2,high,low,,ISIC_0061749.JPG,,ISIC_0011077.JPG,33,true,0.3600000000000002,hl,keypress(j),100,false,281207.6999999881,281207.5,279077.714,279064.5,279094.354,281227.715,1,16,10,
sequence,flow.Sequence,4_9,2023-11-17T16:16:49.283Z,,,,,,,,,,,2113.146000000008,completion,,,,,,,high,low,,,,,,true,,,,,false,281208,281207.5,279077.714,279064.40000000596,279094.354,281227.715,1,16,,
trial,html.Screen,4_10_0,2023-11-17T16:16:53.974Z,,,,0,-0.8534691366511764,1.276663727068437,,,true,hl,4671.284999999974,response,0.9448560599810628,1.2,-1.2,-0.9099421612683488,1.2,-1.2,high,low,,ISIC_0056788.JPG,,ISIC_9684318.JPG,33,true,0.3600000000000002,hl,keypress(j),100,false,285899.09999999404,285899,281211.045,281208.09999999404,281227.715,285927.946,1,16,11,
sequence,flow.Sequence,4_10,2023-11-17T16:16:53.974Z,,,,,,,,,,,4671.284999999974,completion,,,,,,,high,low,,,,,,true,,,,,false,285899.1999999881,285899,281211.045,281208,281227.715,285927.946,1,16,,
trial,html.Screen,4_11_0,2023-11-17T16:16:57.780Z,,,,0,-1.2838089642212804,0.8550527900640753,,,true,hl,3777.0540000000037,response,1.0345332538240786,1.2,-1.2,-1.4719115945084815,1.2,-1.2,high,low,,ISIC_0034187.JPG,,ISIC_0192490.JPG,33,true,0.3600000000000002,hl,keypress(j),100,false,289705.1999999881,289705,285911.042,285899.3000000119,285927.946,289727.837,1,16,12,
sequence,flow.Sequence,4_11,2023-11-17T16:16:57.781Z,,,,,,,,,,,3777.0540000000037,completion,,,,,,,high,low,,,,,,true,,,,,false,289705.5,289705,285911.042,285899.3000000119,285927.946,289727.837,1,16,,
trial,html.Screen,4_12_0,2023-11-17T16:17:04.366Z,,,,0,-1.3045229691102764,-1.1781544075681951,,,true,hh,6562.963000011921,response,1.500052198957292,1.2,-1.2,1.5439962241415257,1.2,-1.2,high,high,,ISIC_6148533.JPG,,ISIC_0053594.JPG,249,true,0.3600000000000002,hh,keypress(i),100,false,296291,296290.8000000119,289711.076,289705.59999999404,289727.837,296311.296,1,16,13,
sequence,flow.Sequence,4_12,2023-11-17T16:17:04.366Z,,,,,,,,,,,6562.963000011921,completion,,,,,,,high,high,,,,,,true,,,,,false,296291.3000000119,296290.8000000119,289711.076,289705.59999999404,289727.837,296311.296,1,16,,
trial,html.Screen,4_13_0,2023-11-17T16:17:06.871Z,,,,0,-1.0581281450494728,-1.133169116569424,,,true,hh,2484.3039999940665,response,1.2359980588867217,1.2,-1.2,1.0529964469124329,1.2,-1.2,high,high,,ISIC_5490352.JPG,,ISIC_0032840.JPG,41,true,0.15000000000000002,hh,keypress(i),100,false,298795.8000000119,298795.59999999404,296294.421,296291.40000000596,296311.296,298827.942,1,16,14,
sequence,flow.Sequence,4_13,2023-11-17T16:17:06.871Z,,,,,,,,,,,2484.3039999940665,completion,,,,,,,high,high,,,,,,true,,,,,false,298795.90000000596,298795.59999999404,296294.421,296291.40000000596,296311.296,298827.942,1,16,,
trial,html.Screen,4_14_0,2023-11-17T16:17:08.494Z,,,,0,-1.294521945180264,-1.3078626540563885,,,true,hh,1590.4580000059796,response,1.2839527450318475,1.2,-1.2,1.342019616565807,1.2,-1.2,high,high,,ISIC_3601224.JPG,,ISIC_0070210.JPG,41,true,0.15000000000000002,hh,keypress(i),100,false,300418.5,300418.40000000596,298811.177,298796,298827.942,300444.548,1,16,15,
sequence,flow.Sequence,4_14,2023-11-17T16:17:08.494Z,,,,,,,,,,,1590.4580000059796,completion,,,,,,,high,high,,,,,,true,,,,,false,300418.6999999881,300418.40000000596,298811.177,298796,298827.942,300444.548,1,16,,
trial,html.Screen,4_15_0,2023-11-17T16:17:10.195Z,,,,0,-1.1510001454240106,-1.132540312667795,,,true,hh,1675.2520000119112,response,1.3271122559811526,1.2,-1.2,1.292001792497521,1.2,-1.2,high,high,,ISIC_0009959.JPG,,ISIC_0065181.JPG,41,true,0.15000000000000002,hh,keypress(i),100,false,302120,302119.8000000119,300427.764,300418.6999999881,300444.548,302144.666,1,16,16,
sequence,flow.Sequence,4_15,2023-11-17T16:17:10.195Z,,,,,,,,,,,1675.2520000119112,completion,,,,,,,high,high,,,,,,true,,,,,false,302120.09999999404,302119.8000000119,300427.764,300418.6999999881,300444.548,302144.666,1,16,,
demonstration_loop,flow.Loop,4,2023-11-17T16:17:10.195Z,,,,,,,,,,,67175.48600001191,completion,,,,,,,,,,,,,,true,,,,,false,302120.1999999881,302119.8000000119,234911.116,234918.80000001192,234944.314,302144.666,1,16,,
practice_instructions,html.Screen,5,2023-11-17T16:17:12.986Z,,,,,,,,,,,2765.3339999999735,response,,,,,,,,,,,,,,,,continue,click button,,,304910.59999999404,304910,302127.763,302120.1999999881,302144.666,304928.708,,,,
trial,html.Screen,6_0_0,2023-11-17T16:17:15.211Z,,,,1,1.1592423187534993,-1.067128884093211,,,true,lh,2206.5920000119368,response,-1.4748095371445096,1.2,-1.2,0.9579010801034902,1.2,-1.2,low,high,,ISIC_6854940.JPG,,ISIC_0033216.JPG,29,true,0.3600000000000002,lh,keypress(e),0,false,307135.5,307135.3000000119,304894.463,304910.6999999881,304928.708,307161.324,1,40,1,
sequence,flow.Sequence,6_0,2023-11-17T16:17:15.211Z,,,,,,,,,,,2206.5920000119368,completion,,,,,,,low,high,,,,,,true,,,,,false,307135.8000000119,307135.3000000119,304894.463,304910.59999999404,304928.708,307161.324,1,40,,
trial,html.Screen,6_1_0,2023-11-17T16:17:20.283Z,,,,1,-0.8779374983479176,0.9745548032823428,,,false,hl,5045.576000005938,response,0.9448560599810628,1.2,-1.2,-0.9099421612683488,1.2,-1.2,high,low,,ISIC_2991354.JPG,,ISIC_9684318.JPG,26,true,0.3300000000000002,ll,keypress(f),0,false,312207.09999999404,312206.90000000596,307144.389,307135.90000000596,307161.324,312211.103,1,40,2,
sequence,flow.Sequence,6_1,2023-11-17T16:17:20.283Z,,,,,,,,,,,5045.576000005938,completion,,,,,,,high,low,,,,,,true,,,,,false,312207.40000000596,312206.90000000596,307144.389,307135.90000000596,307161.324,312211.103,1,40,,
trial,html.Screen,6_2_0,2023-11-17T16:17:23.427Z,,,,1,-0.849847885203758,0.973447384095442,,,true,hl,3140.197000011918,response,1.052305774554686,1.2,-1.2,-1.3940181224717798,1.2,-1.2,high,low,,ISIC_9612228.JPG,,ISIC_4175400.JPG,33,true,0.3600000000000002,hl,keypress(j),0,false,315351.5,315351.3000000119,312194.398,312207.5,312211.103,315361.125,1,40,3,
sequence,flow.Sequence,6_2,2023-11-17T16:17:23.428Z,,,,,,,,,,,3140.197000011918,completion,,,,,,,high,low,,,,,,true,,,,,false,315351.8000000119,315351.3000000119,312194.398,312207.40000000596,312211.103,315361.125,1,40,,
trial,html.Screen,6_3_0,2023-11-17T16:17:25.459Z,,,,1,-1.0885984639975343,-1.2042618719491294,,,true,hh,2022.175000011921,response,1.2893246069103816,1.2,-1.2,1.0655029133871594,1.2,-1.2,high,high,,ISIC_0012740.JPG,,ISIC_0070747.JPG,249,true,0.3600000000000002,hh,keypress(i),0,false,317383.5,317383.3000000119,315344.415,315352,315361.125,317394.568,1,40,4,
sequence,flow.Sequence,6_3,2023-11-17T16:17:25.460Z,,,,,,,,,,,2022.175000011921,completion,,,,,,,high,high,,,,,,true,,,,,false,317383.8000000119,317383.3000000119,315344.415,315352,315361.125,317394.568,1,40,,
trial,html.Screen,6_4_0,2023-11-17T16:17:27.571Z,,,,1,1.089914260719518,1.1695563571046357,,,false,ll,2100.1319999880507,response,-1.3471772753257971,1.2,-1.2,-1.055978100098093,1.2,-1.2,low,low,,ISIC_0030695.JPG,,ISIC_2077116.JPG,25,true,0.15000000000000002,lh,keypress(e),0,false,319494.8000000119,319494.6999999881,317377.726,317384,317394.568,319511.138,1,40,5,
sequence,flow.Sequence,6_4,2023-11-17T16:17:27.571Z,,,,,,,,,,,2100.1319999880507,completion,,,,,,,low,low,,,,,,true,,,,,false,319495.09999999404,319494.6999999881,317377.726,317383.90000000596,317394.568,319511.138,1,40,,
trial,html.Screen,6_5_0,2023-11-17T16:17:34.483Z,,,,1,1.1711612520017805,1.191169949562454,,,true,ll,6895.762000005983,response,-1.3471772753257971,1.2,-1.2,-1.055978100098093,1.2,-1.2,low,low,,ISIC_0061936.JPG,,ISIC_2077116.JPG,25,true,0.15000000000000002,ll,keypress(f),0,false,326407,326406.90000000596,319494.519,319495.1999999881,319511.138,326411.122,1,40,6,
sequence,flow.Sequence,6_5,2023-11-17T16:17:34.483Z,,,,,,,,,,,6895.762000005983,completion,,,,,,,low,low,,,,,,true,,,,,false,326407.3000000119,326406.90000000596,319494.519,319495.09999999404,319511.138,326411.122,1,40,,
trial,html.Screen,6_6_0,2023-11-17T16:17:39.283Z,,,,1,-1.301795918505203,-1.0518606632781424,,,true,hh,4795.7780000059865,response,1.2059606637811695,1.2,-1.2,1.214966446488752,1.2,-1.2,high,high,,ISIC_0027666.JPG,,ISIC_0013334.JPG,27,true,0.12,hh,keypress(i),0,false,331207,331206.90000000596,326394.31,326407.40000000596,326411.122,331227.778,1,40,7,
sequence,flow.Sequence,6_6,2023-11-17T16:17:39.283Z,,,,,,,,,,,4795.7780000059865,completion,,,,,,,high,high,,,,,,true,,,,,false,331207.3000000119,331206.90000000596,326394.31,326407.40000000596,326411.122,331227.778,1,40,,
trial,html.Screen,6_7_0,2023-11-17T16:17:47.747Z,,,,1,-1.0143509683988825,1.0281980567462463,,,false,hl,8442.62200000597,response,0.9046170303418553,1.2,-1.2,-1.0063426986460375,1.2,-1.2,high,low,,ISIC_0062031.JPG,,ISIC_0055759.JPG,26,true,0.3300000000000002,ll,keypress(f),0,false,339670.59999999404,339670.40000000596,331194.42,331207.40000000596,331227.778,339677.774,1,40,8,
sequence,flow.Sequence,6_7,2023-11-17T16:17:47.747Z,,,,,,,,,,,8442.62200000597,completion,,,,,,,high,low,,,,,,true,,,,,false,339670.6999999881,339670.40000000596,331194.42,331207.40000000596,331227.778,339677.774,1,40,,
trial,html.Screen,6_8_0,2023-11-17T16:17:54.363Z,,,,1,-1.2714351764931109,-1.0785174776187512,,,true,hh,6609.126000005985,response,1.4998915225172038,1.2,-1.2,1.0644234101027583,1.2,-1.2,high,high,,ISIC_2454898.JPG,,ISIC_0071576.JPG,249,true,0.3600000000000002,hh,keypress(i),0,false,346287.09999999404,346286.90000000596,339660.872,339670.8000000119,339677.774,346294.484,1,40,9,
sequence,flow.Sequence,6_8,2023-11-17T16:17:54.363Z,,,,,,,,,,,6609.126000005985,completion,,,,,,,high,high,,,,,,true,,,,,false,346287.3000000119,346286.90000000596,339660.872,339670.8000000119,339677.774,346294.484,1,40,,
trial,html.Screen,6_9_0,2023-11-17T16:17:59.667Z,,,,1,-1.3471772753257971,-1.055978100098093,,,true,hh,5296.016000000003,response,1.1894733304494307,1.2,-1.2,1.1169761866204877,1.2,-1.2,high,high,,ISIC_2077116.JPG,,ISIC_0033813.JPG,41,true,0.15000000000000002,hh,keypress(i),0,false,351590.59999999404,351590.5,346277.722,346287.40000000596,346294.484,351594.472,1,40,10,
sequence,flow.Sequence,6_9,2023-11-17T16:17:59.667Z,,,,,,,,,,,5296.016000000003,completion,,,,,,,high,high,,,,,,true,,,,,false,351590.8000000119,351590.5,346277.722,346287.40000000596,346294.484,351594.472,1,40,,
trial,html.Screen,6_10_0,2023-11-17T16:18:04.770Z,,,,1,1.2435042401134029,1.2939710463315144,,,true,ll,5100.027999999991,response,-1.1655508270784471,1.2,-1.2,-1.1162776063248168,1.2,-1.2,low,low,,ISIC_0056119.JPG,,ISIC_5509946.JPG,25,true,0.15000000000000002,ll,keypress(f),0,false,356694.5,356694.5,351577.754,351590.8000000119,351594.472,356711.112,1,40,11,
sequence,flow.Sequence,6_10,2023-11-17T16:18:04.771Z,,,,,,,,,,,5100.027999999991,completion,,,,,,,low,low,,,,,,true,,,,,false,356694.6999999881,356694.5,351577.754,351590.8000000119,351594.472,356711.112,1,40,,
trial,html.Screen,6_11_0,2023-11-17T16:18:10.722Z,,,,1,1.0264463986917702,-1.171271535505083,,,true,lh,5935.288000005938,response,-0.8494721812820843,1.2,-1.2,1.3435429139974266,1.2,-1.2,low,high,,ISIC_7889838.JPG,,ISIC_0033585.JPG,29,true,0.3600000000000002,lh,keypress(e),0,false,362646.5,362646.40000000596,356694.434,356694.8000000119,356711.112,362661.135,1,40,12,
sequence,flow.Sequence,6_11,2023-11-17T16:18:10.723Z,,,,,,,,,,,5935.288000005938,completion,,,,,,,low,high,,,,,,true,,,,,false,362646.6999999881,362646.40000000596,356694.434,356694.6999999881,356711.112,362661.135,1,40,,
trial,html.Screen,6_12_0,2023-11-17T16:18:14.378Z,,,,1,-1.0581281450494728,-1.133169116569424,,,true,hh,3640.96499999403,response,1.1392234684115472,1.2,-1.2,1.3198277407683998,1.2,-1.2,high,high,,ISIC_5490352.JPG,,ISIC_0071875.JPG,211,true,0.3300000000000002,hh,keypress(i),0,false,366302.1999999881,366302.09999999404,362644.514,362646.90000000596,362661.135,366311.158,1,40,13,
sequence,flow.Sequence,6_12,2023-11-17T16:18:14.378Z,,,,,,,,,,,3640.96499999403,completion,,,,,,,high,high,,,,,,true,,,,,false,366302.1999999881,366302.09999999404,362644.514,362646.90000000596,362661.135,366311.158,1,40,,
trial,html.Screen,6_13_0,2023-11-17T16:18:19.891Z,,,,1,-1.1510001454240106,-1.132540312667795,,,true,hh,5503.142000011925,response,1.2015106101917423,1.2,-1.2,1.3393124611420348,1.2,-1.2,high,high,,ISIC_0009959.JPG,,ISIC_0072496.JPG,41,true,0.15000000000000002,hh,keypress(i),0,false,371814.40000000596,371814.3000000119,366294.444,366302.40000000596,366311.158,371827.819,1,40,14,
sequence,flow.Sequence,6_13,2023-11-17T16:18:19.891Z,,,,,,,,,,,5503.142000011925,completion,,,,,,,high,high,,,,,,true,,,,,false,371814.5,371814.3000000119,366294.444,366302.40000000596,366311.158,371827.819,1,40,,
trial,html.Screen,6_14_0,2023-11-17T16:18:25.394Z,,,,1,0.9448560599810628,-0.9099421612683488,,,true,lh,5490.280999994022,response,-1.2838089642212804,1.2,-1.2,0.8550527900640753,1.2,-1.2,low,high,,ISIC_9684318.JPG,,ISIC_0034187.JPG,29,true,0.3600000000000002,lh,keypress(e),0,false,377318.1999999881,377318.09999999404,371811.1,371814.59999999404,371827.819,377327.828,1,40,15,
sequence,flow.Sequence,6_14,2023-11-17T16:18:25.394Z,,,,,,,,,,,5490.280999994022,completion,,,,,,,low,high,,,,,,true,,,,,false,377318.3000000119,377318.09999999404,371811.1,371814.59999999404,371827.819,377327.828,1,40,,
trial,html.Screen,6_15_0,2023-11-17T16:18:29.195Z,,,,1,-0.9385447468573198,1.2289860846064424,,,false,hl,3790.572000005981,response,0.9225524349657857,1.2,-1.2,-0.929746784178986,1.2,-1.2,high,low,,ISIC_0032780.JPG,,ISIC_0011077.JPG,26,true,0.3300000000000002,hh,keypress(i),0,false,381118.5,381118.40000000596,377311.224,377318.3000000119,377327.828,381127.891,1,40,16,
sequence,flow.Sequence,6_15,2023-11-17T16:18:29.195Z,,,,,,,,,,,3790.572000005981,completion,,,,,,,high,low,,,,,,true,,,,,false,381118.6999999881,381118.40000000596,377311.224,377318.3000000119,377327.828,381127.891,1,40,,
trial,html.Screen,6_16_0,2023-11-17T16:18:34.379Z,,,,1,1.2289750544294995,1.3003764624334877,,,true,ll,5174.909000011918,response,-1.1604734171556077,1.2,-1.2,-1.0789312625280616,1.2,-1.2,low,low,,ISIC_0054167.JPG,,ISIC_3950753.JPG,157,true,0.3600000000000002,ll,keypress(f),0,false,386303,386302.8000000119,381111.284,381118.6999999881,381127.891,386311.173,1,40,17,
sequence,flow.Sequence,6_16,2023-11-17T16:18:34.379Z,,,,,,,,,,,5174.909000011918,completion,,,,,,,low,low,,,,,,true,,,,,false,386303.1999999881,386302.8000000119,381111.284,381118.6999999881,381127.891,386311.173,1,40,,
trial,html.Screen,6_17_0,2023-11-17T16:18:41.692Z,,,,1,1.0700930503975157,-0.923753102263735,,,false,lh,7304.227000005951,response,-0.8644465729542988,1.2,-1.2,0.8679598285079457,1.2,-1.2,low,high,,ISIC_0000022.JPG,,ISIC_6718969.JPG,29,true,0.3600000000000002,ll,keypress(f),0,false,393615.59999999404,393615.40000000596,386294.463,386303.1999999881,386311.173,393628.002,1,40,18,
sequence,flow.Sequence,6_17,2023-11-17T16:18:41.692Z,,,,,,,,,,,7304.227000005951,completion,,,,,,,low,high,,,,,,true,,,,,false,393615.6999999881,393615.40000000596,386294.463,386303.1999999881,386311.173,393628.002,1,40,,
trial,html.Screen,6_18_0,2023-11-17T16:18:44.732Z,,,,1,-1.2714351764931109,-1.0785174776187512,,,true,hh,3027.097999994061,response,1.018568530854085,1.2,-1.2,1.1850528225859975,1.2,-1.2,high,high,,ISIC_2454898.JPG,,ISIC_0057180.JPG,211,true,0.3300000000000002,hh,keypress(i),0,false,396655.40000000596,396655.09999999404,393610.937,393615.6999999881,393628.002,396661.191,1,40,19,
sequence,flow.Sequence,6_18,2023-11-17T16:18:44.732Z,,,,,,,,,,,3027.097999994061,completion,,,,,,,high,high,,,,,,true,,,,,false,396655.90000000596,396655.09999999404,393610.937,393615.6999999881,393628.002,396661.191,1,40,,
trial,html.Screen,6_19_0,2023-11-17T16:18:48.539Z,,,,1,1.1227373144244253,1.1886610799377713,,,true,ll,3801.908999994048,response,-1.1305948371148624,1.2,-1.2,-1.2802709447034604,1.2,-1.2,low,low,,ISIC_0059506.JPG,,ISIC_5648111.JPG,25,true,0.15000000000000002,ll,keypress(f),0,false,400463.3000000119,400463.09999999404,396644.53,396656.09999999404,396661.191,400477.975,1,40,20,
sequence,flow.Sequence,6_19,2023-11-17T16:18:48.540Z,,,,,,,,,,,3801.908999994048,completion,,,,,,,low,low,,,,,,true,,,,,false,400463.59999999404,400463.09999999404,396644.53,396656.09999999404,396661.191,400477.975,1,40,,
trial,html.Screen,6_20_0,2023-11-17T16:18:58.420Z,,,,1,1.250220052739973,1.2967258992731714,,,true,ll,9865.325000011944,response,-1.3045229691102764,1.2,-1.2,-1.1781544075681951,1.2,-1.2,low,low,,ISIC_0031368.JPG,,ISIC_6148533.JPG,25,true,0.15000000000000002,ll,keypress(f),0,false,410343.5,410343.3000000119,400461.324,400463.8000000119,400477.975,410361.224,1,40,21,
sequence,flow.Sequence,6_20,2023-11-17T16:18:58.420Z,,,,,,,,,,,9865.325000011944,completion,,,,,,,low,low,,,,,,true,,,,,false,410343.8000000119,410343.3000000119,400461.324,400463.6999999881,400477.975,410361.224,1,40,,
trial,html.Screen,6_21_0,2023-11-17T16:19:01.731Z,,,,1,1.2232482867978696,1.2451219760556858,,,true,ll,3293.4759999880916,response,-1.2200968917423711,1.2,-1.2,-1.3183466064109373,1.2,-1.2,low,low,,ISIC_0030889.JPG,,ISIC_3624318.JPG,25,true,0.15000000000000002,ll,keypress(f),0,false,413654.90000000596,413654.6999999881,410344.292,410343.90000000596,410361.224,413661.26,1,40,22,
sequence,flow.Sequence,6_21,2023-11-17T16:19:01.731Z,,,,,,,,,,,3293.4759999880916,completion,,,,,,,low,low,,,,,,true,,,,,false,413655.09999999404,413654.6999999881,410344.292,410343.90000000596,410361.224,413661.26,1,40,,
trial,html.Screen,6_22_0,2023-11-17T16:19:04.723Z,,,,1,1.2289750544294995,1.3003764624334877,,,true,ll,2985.640000005951,response,-1.212030980680325,1.2,-1.2,-1.139863018685685,1.2,-1.2,low,low,,ISIC_0054167.JPG,,ISIC_0008510.JPG,25,true,0.15000000000000002,ll,keypress(f),0,false,416647.1999999881,416646.90000000596,413644.597,413655.3000000119,413661.26,416661.199,1,40,23,
sequence,flow.Sequence,6_22,2023-11-17T16:19:04.724Z,,,,,,,,,,,2985.640000005951,completion,,,,,,,low,low,,,,,,true,,,,,false,416647.40000000596,416646.90000000596,413644.597,413655.3000000119,413661.26,416661.199,1,40,,
trial,html.Screen,6_23_0,2023-11-17T16:19:06.539Z,,,,1,-1.3515962101204746,0.8414583575292955,,,true,hl,1801.8009999999776,response,0.9212323139676136,1.2,-1.2,-0.9882196642247332,1.2,-1.2,high,low,,ISIC_0274382.JPG,,ISIC_0014255.JPG,26,true,0.3300000000000002,hl,keypress(j),0,false,418463.09999999404,418463,416644.707,416647.59999999404,416661.199,418477.895,1,40,24,
sequence,flow.Sequence,6_23,2023-11-17T16:19:06.540Z,,,,,,,,,,,1801.8009999999776,completion,,,,,,,high,low,,,,,,true,,,,,false,418463.40000000596,418463,416644.707,416647.5,416661.199,418477.895,1,40,,
trial,html.Screen,6_24_0,2023-11-17T16:19:08.170Z,,,,1,0.9212323139676136,-0.9882196642247332,,,true,lh,1616.3049999880604,response,-1.00615481805876,1.2,-1.2,0.8428903771195875,1.2,-1.2,low,high,,ISIC_0014255.JPG,,ISIC_0069970.JPG,29,true,0.3600000000000002,lh,keypress(e),0,false,420094.3000000119,420094.1999999881,418461.431,418463.59999999404,418477.895,420111.209,1,40,25,
sequence,flow.Sequence,6_24,2023-11-17T16:19:08.171Z,,,,,,,,,,,1616.3049999880604,completion,,,,,,,low,high,,,,,,true,,,,,false,420094.5,420094.1999999881,418461.431,418463.59999999404,418477.895,420111.209,1,40,,
trial,html.Screen,6_25_0,2023-11-17T16:19:09.691Z,,,,1,-1.4727776799485246,0.8779113138076752,,,true,hl,1503.2910000000265,response,1.0748728054622358,1.2,-1.2,-1.2840853987892311,1.2,-1.2,high,low,,ISIC_0033074.JPG,,ISIC_0059219.JPG,26,true,0.3300000000000002,hl,keypress(j),0,false,421614.6999999881,421614.5,420094.719,420094.59999999404,420111.209,421627.897,1,40,26,
sequence,flow.Sequence,6_25,2023-11-17T16:19:09.691Z,,,,,,,,,,,1503.2910000000265,completion,,,,,,,high,low,,,,,,true,,,,,false,421614.90000000596,421614.5,420094.719,420094.5,420111.209,421627.897,1,40,,
trial,html.Screen,6_26_0,2023-11-17T16:19:11.323Z,,,,1,-0.8779374983479176,0.9745548032823428,,,true,hl,1618.3029999880819,response,0.9448560599810628,1.2,-1.2,-0.9099421612683488,1.2,-1.2,high,low,,ISIC_2991354.JPG,,ISIC_9684318.JPG,33,true,0.3600000000000002,hl,keypress(j),0,false,423246.3000000119,423246.1999999881,421611.214,421614.90000000596,421627.897,423261.216,1,40,27,
sequence,flow.Sequence,6_26,2023-11-17T16:19:11.323Z,,,,,,,,,,,1618.3029999880819,completion,,,,,,,high,low,,,,,,true,,,,,false,423246.40000000596,423246.1999999881,421611.214,421614.90000000596,421627.897,423261.216,1,40,,
trial,html.Screen,6_27_0,2023-11-17T16:19:12.619Z,,,,1,-1.0878102877901663,-1.3154097543539391,,,true,hh,1281.783999999985,response,0.903200901040808,1.2,-1.2,0.8884252535933715,1.2,-1.2,high,high,,ISIC_1413242.JPG,,ISIC_0065260.JPG,249,true,0.3600000000000002,hh,keypress(i),0,false,424543.1999999881,424543,423244.792,423246.5,423261.216,424562.648,1,40,28,
sequence,flow.Sequence,6_27,2023-11-17T16:19:12.620Z,,,,,,,,,,,1281.783999999985,completion,,,,,,,high,high,,,,,,true,,,,,false,424543.5,424543,423244.792,423246.5,423261.216,424562.648,1,40,,
trial,html.Screen,6_28_0,2023-11-17T16:19:14.347Z,,,,1,1.2609895831255231,-1.0687377724194886,,,true,lh,1707.752000005974,response,-1.3559315773956395,1.2,-1.2,0.924768326187701,1.2,-1.2,low,high,,ISIC_1367610.JPG,,ISIC_5101111.JPG,29,true,0.3600000000000002,lh,keypress(e),0,false,426270.5,426270.40000000596,424528.003,424543.59999999404,424562.648,426277.934,1,40,29,
sequence,flow.Sequence,6_28,2023-11-17T16:19:14.347Z,,,,,,,,,,,1707.752000005974,completion,,,,,,,low,high,,,,,,true,,,,,false,426270.6999999881,426270.40000000596,424528.003,424543.59999999404,424562.648,426277.934,1,40,,
trial,html.Screen,6_29_0,2023-11-17T16:19:16.427Z,,,,1,-1.204229955025689,-1.0874249761617445,,,true,hh,2072.665999994031,response,1.026546863458038,1.2,-1.2,1.2570421604565634,1.2,-1.2,high,high,,ISIC_0056930.JPG,,ISIC_0026500.JPG,211,true,0.3300000000000002,hh,keypress(i),0,false,428350.8000000119,428350.59999999404,426261.27,426270.6999999881,426277.934,428361.318,1,40,30,
sequence,flow.Sequence,6_29,2023-11-17T16:19:16.427Z,,,,,,,,,,,2072.665999994031,completion,,,,,,,high,high,,,,,,true,,,,,false,428351,428350.59999999404,426261.27,426270.6999999881,426277.934,428361.318,1,40,,
trial,html.Screen,6_30_0,2023-11-17T16:19:18.075Z,,,,1,1.2289750544294995,1.3003764624334877,,,true,ll,1637.1819999999716,response,-1.1305948371148624,1.2,-1.2,-1.2802709447034604,1.2,-1.2,low,low,,ISIC_0054167.JPG,,ISIC_5648111.JPG,25,true,0.15000000000000002,ll,keypress(f),0,false,429998.6999999881,429998.5,428344.741,428351.1999999881,428361.318,430011.277,1,40,31,
sequence,flow.Sequence,6_30,2023-11-17T16:19:18.075Z,,,,,,,,,,,1637.1819999999716,completion,,,,,,,low,low,,,,,,true,,,,,false,429998.90000000596,429998.5,428344.741,428351.09999999404,428361.318,430011.277,1,40,,
trial,html.Screen,6_31_0,2023-11-17T16:19:19.524Z,,,,1,-1.1168199061753437,-1.212287319329914,,,true,hh,1435.7229999999981,response,1.1126049058422398,1.2,-1.2,1.2305421124063929,1.2,-1.2,high,high,,ISIC_5919355.JPG,,ISIC_0071536.JPG,27,true,0.12,hh,keypress(i),0,false,431447.3000000119,431447,429994.657,429999,430011.277,431461.246,1,40,32,
sequence,flow.Sequence,6_31,2023-11-17T16:19:19.524Z,,,,,,,,,,,1435.7229999999981,completion,,,,,,,high,high,,,,,,true,,,,,false,431447.8000000119,431447,429994.657,429999,430011.277,431461.246,1,40,,
trial,html.Screen,6_32_0,2023-11-17T16:19:20.995Z,,,,1,1.0822170028935367,-1.1654796154432183,,,true,lh,1456.9539999880944,response,-1.064425982109969,1.2,-1.2,0.958564243697126,1.2,-1.2,low,high,,ISIC_7288818.JPG,,ISIC_3203344.JPG,29,true,0.3600000000000002,lh,keypress(e),0,false,432918.3000000119,432918.1999999881,431444.761,431448,431461.246,432927.909,1,40,33,
sequence,flow.Sequence,6_32,2023-11-17T16:19:20.995Z,,,,,,,,,,,1456.9539999880944,completion,,,,,,,low,high,,,,,,true,,,,,false,432918.3000000119,432918.1999999881,431444.761,431447.90000000596,431461.246,432927.909,1,40,,
trial,html.Screen,6_33_0,2023-11-17T16:19:22.323Z,,,,1,-0.8494721812820843,1.3435429139974266,,,true,hl,1318.6909999940544,response,1.0822170028935367,1.2,-1.2,-1.1654796154432183,1.2,-1.2,high,low,,ISIC_0033585.JPG,,ISIC_7288818.JPG,26,true,0.3300000000000002,hl,keypress(j),0,false,434246.90000000596,434246.59999999404,432911.265,432918.40000000596,432927.909,434261.28,1,40,34,
sequence,flow.Sequence,6_33,2023-11-17T16:19:22.323Z,,,,,,,,,,,1318.6909999940544,completion,,,,,,,high,low,,,,,,true,,,,,false,434247.09999999404,434246.59999999404,432911.265,432918.40000000596,432927.909,434261.28,1,40,,
trial,html.Screen,6_34_0,2023-11-17T16:19:23.675Z,,,,1,0.9046170303418553,-1.0063426986460375,,,true,lh,1337.219999999972,response,-1.3515962101204746,1.2,-1.2,0.8414583575292955,1.2,-1.2,low,high,,ISIC_0055759.JPG,,ISIC_0274382.JPG,29,true,0.3600000000000002,lh,keypress(e),0,false,435598.59999999404,435598.5,434244.773,434247.1999999881,434261.28,435611.243,1,40,35,
sequence,flow.Sequence,6_34,2023-11-17T16:19:23.675Z,,,,,,,,,,,1337.219999999972,completion,,,,,,,low,high,,,,,,true,,,,,false,435598.8000000119,435598.5,434244.773,434247.1999999881,434261.28,435611.243,1,40,,
trial,html.Screen,6_35_0,2023-11-17T16:19:24.867Z,,,,1,-1.3411487193830047,1.198640448317381,,,true,hl,1179.6570000059437,response,1.052305774554686,1.2,-1.2,-1.3940181224717798,1.2,-1.2,high,low,,ISIC_3093026.JPG,,ISIC_4175400.JPG,26,true,0.3300000000000002,hl,keypress(j),0,false,436791.09999999404,436790.90000000596,435594.586,435599,435611.243,436794.62,1,40,36,
sequence,flow.Sequence,6_35,2023-11-17T16:19:24.868Z,,,,,,,,,,,1179.6570000059437,completion,,,,,,,high,low,,,,,,true,,,,,false,436791.40000000596,436790.90000000596,435594.586,435598.90000000596,435611.243,436794.62,1,40,,
trial,html.Screen,6_36_0,2023-11-17T16:19:26.571Z,,,,1,1.2040551955011098,1.2664651062241792,,,true,ll,1700.2800000059651,response,-1.294521945180264,1.2,-1.2,-1.3078626540563885,1.2,-1.2,low,low,,ISIC_0068886.JPG,,ISIC_3601224.JPG,157,true,0.3600000000000002,ll,keypress(f),0,false,438495,438494.90000000596,436777.924,436791.40000000596,436794.62,438511.252,1,40,37,
sequence,flow.Sequence,6_36,2023-11-17T16:19:26.572Z,,,,,,,,,,,1700.2800000059651,completion,,,,,,,low,low,,,,,,true,,,,,false,438495.3000000119,438494.90000000596,436777.924,436791.40000000596,436794.62,438511.252,1,40,,
trial,html.Screen,6_37_0,2023-11-17T16:19:27.883Z,,,,1,-1.1890109863264902,0.8867825318561365,,,true,hl,1295.347999994061,response,1.0822170028935367,1.2,-1.2,-1.1654796154432183,1.2,-1.2,high,low,,ISIC_0072576.JPG,,ISIC_7288818.JPG,26,true,0.3300000000000002,hl,keypress(j),0,false,439806.6999999881,439806.59999999404,438494.812,438495.40000000596,438511.252,439811.202,1,40,38,
sequence,flow.Sequence,6_37,2023-11-17T16:19:27.883Z,,,,,,,,,,,1295.347999994061,completion,,,,,,,high,low,,,,,,true,,,,,false,439806.8000000119,439806.59999999404,438494.812,438495.3000000119,438511.252,439811.202,1,40,,
trial,html.Screen,6_38_0,2023-11-17T16:19:29.132Z,,,,1,1.052305774554686,-1.3940181224717798,,,true,lh,1243.8979999940493,response,-0.9039158082670506,1.2,-1.2,1.0517562064343149,1.2,-1.2,low,high,,ISIC_4175400.JPG,,ISIC_0015411.JPG,29,true,0.3600000000000002,lh,keypress(e),0,false,441055.5,441055.09999999404,439794.663,439806.8000000119,439811.202,441061.234,1,40,39,
sequence,flow.Sequence,6_38,2023-11-17T16:19:29.132Z,,,,,,,,,,,1243.8979999940493,completion,,,,,,,low,high,,,,,,true,,,,,false,441055.90000000596,441055.09999999404,439794.663,439806.8000000119,439811.202,441061.234,1,40,,
trial,html.Screen,6_39_0,2023-11-17T16:19:30.515Z,,,,1,1.1592423187534993,-1.067128884093211,,,true,lh,1377.2660000000033,response,-1.4748095371445096,1.2,-1.2,0.9579010801034902,1.2,-1.2,low,high,,ISIC_6854940.JPG,,ISIC_0033216.JPG,29,true,0.3600000000000002,lh,keypress(e),0,false,442438.59999999404,442438.5,441044.794,441056.09999999404,441061.234,442444.588,1,40,40,
sequence,flow.Sequence,6_39,2023-11-17T16:19:30.515Z,,,,,,,,,,,1377.2660000000033,completion,,,,,,,low,high,,,,,,true,,,,,false,442438.8000000119,442438.5,441044.794,441056.09999999404,441061.234,442444.588,1,40,,
practice_loop,flow.Loop,6,2023-11-17T16:19:30.515Z,,,,,,,,,,,137509.79200000002,completion,,,,,,,,,,,,,,true,,,,,false,442438.8000000119,442438.5,304894.463,304910.59999999404,304928.708,442444.588,1,40,,
stair_instructions,html.Screen,7,2023-11-17T16:19:42.195Z,,,,,,,,,,,11673.212000011932,response,,,,,,,,,,,,,,,,continue,click button,,,454118.5,454117.8000000119,442427.89,442438.90000000596,442444.588,454127.95,,,,
trial,html.Screen,8_0_0,2023-11-17T16:19:54.585Z,,,,2,-0.0361875505619981,0.0291457404567876,,0.04,false,lh,12381.049999999988,response,-0.9087169856594104,1.2,-1.2,0.8835647084207277,1.2,-1.2,low,high,,ISIC_0027480.JPG,,ISIC_0000349.JPG,29,false,0.3600000000000002,ll,keypress(f),0,true,466509.09999999404,466509,454111.356,454118.5,454127.95,466527.973,1,40,1,
sequence,flow.Sequence,8_0,2023-11-17T16:19:54.586Z,,,,,,,,,,,12381.049999999988,completion,,,,,,,low,high,,,,,,false,,,,,true,466509.3000000119,466509,454111.356,454118.5,454127.95,466527.973,1,40,,
trial,html.Screen,8_1_0,2023-11-17T16:19:59.828Z,,,,2,-0.0127320821962457,0.0315308940184827,,0.04,true,lh,5223.126999994041,response,-1.1890109863264902,1.15,-1.15,0.8867825318561365,1.2,-1.15,low,high,,ISIC_8156101.JPG,,ISIC_0072576.JPG,27,false,0.3400000000000002,lh,keypress(e),0,true,471751.1999999881,471751.09999999404,466511.315,466509.5,466527.973,471761.301,1,40,2,
sequence,flow.Sequence,8_1,2023-11-17T16:19:59.828Z,,,,,,,,,,,5223.126999994041,completion,,,,,,,low,high,,,,,,false,,,,,true,471751.40000000596,471751.09999999404,466511.315,466509.5,466527.973,471761.301,1,40,,
trial,html.Screen,8_2_0,2023-11-17T16:20:07.468Z,,,,2,-0.0365981355399771,-0.0162670920008846,,0.04,false,hl,7629.898999988101,response,1.2609895831255231,1.15,-1.0999999999999999,-1.0687377724194886,1.15,-1.15,high,low,,ISIC_0982855.JPG,,ISIC_1367610.JPG,25,false,0.28000000000000014,hh,keypress(i),0,true,479391.5,479391.1999999881,471744.593,471751.40000000596,471761.301,479394.638,1,40,3,
sequence,flow.Sequence,8_2,2023-11-17T16:20:07.468Z,,,,,,,,,,,7629.898999988101,completion,,,,,,,high,low,,,,,,false,,,,,true,479391.8000000119,479391.1999999881,471744.593,471751.40000000596,471761.301,479394.638,1,40,,
trial,html.Screen,8_3_0,2023-11-17T16:20:16.092Z,,,,2,0.012020985739544,-0.0126097407389903,,0.04,true,ll,8620.762000005983,response,-1.212030980680325,1.15,-1.0999999999999999,-1.139863018685685,1.15,-1.15,low,low,,ISIC_0069379.JPG,,ISIC_0008510.JPG,28,false,0.13,ll,keypress(f),0,true,488015.59999999404,488015.40000000596,479377.683,479391.90000000596,479394.638,488028.011,1,40,4,
sequence,flow.Sequence,8_3,2023-11-17T16:20:16.092Z,,,,,,,,,,,8620.762000005983,completion,,,,,,,low,low,,,,,,false,,,,,true,488015.90000000596,488015.40000000596,479377.683,479391.90000000596,479394.638,488028.011,1,40,,
trial,html.Screen,8_4_0,2023-11-17T16:20:20.516Z,,,,2,0.0350697500805515,0.0166617848231997,,0.04,true,ll,4411.289000011922,response,-1.212030980680325,1.15,-1.0999999999999999,-1.139863018685685,1.15,-1.15,low,low,,ISIC_0024423.JPG,,ISIC_0008510.JPG,28,false,0.13,ll,keypress(f),0,true,492439.5,492439.3000000119,488011.133,488016.09999999404,488028.011,492444.603,1,40,5,
sequence,flow.Sequence,8_4,2023-11-17T16:20:20.516Z,,,,,,,,,,,4411.289000011922,completion,,,,,,,low,low,,,,,,false,,,,,true,492439.8000000119,492439.3000000119,488011.133,488016,488028.011,492444.603,1,40,,
trial,html.Screen,8_5_0,2023-11-17T16:20:28.075Z,,,,2,0.012810673904807,-0.00400964452501,,0.04,true,ll,7553.697000011918,response,-1.09666761087476,1.15,-1.089863018685685,-0.9917482735105084,1.15,-1.089863018685685,low,low,,ISIC_0064656.JPG,,ISIC_0071754.JPG,25,false,0.12,ll,keypress(f),0,true,499998.40000000596,499998.3000000119,492427.935,492439.90000000596,492444.603,500011.291,1,40,6,
sequence,flow.Sequence,8_5,2023-11-17T16:20:28.075Z,,,,,,,,,,,7553.697000011918,completion,,,,,,,low,low,,,,,,false,,,,,true,499998.59999999404,499998.3000000119,492427.935,492439.90000000596,492444.603,500011.291,1,40,,
trial,html.Screen,8_6_0,2023-11-17T16:20:33.588Z,,,,2,-0.0365981355399771,-0.0162670920008846,,0.04,true,ll,5499.7089999999735,response,-1.0885984639975343,1.15,-1.089863018685685,-1.2042618719491294,1.15,-1.089863018685685,low,low,,ISIC_0982855.JPG,,ISIC_0012740.JPG,25,false,0.12,ll,keypress(f),0,true,505511.09999999404,505511,499994.403,499998.6999999881,500011.291,505528.02,1,40,7,
sequence,flow.Sequence,8_6,2023-11-17T16:20:33.588Z,,,,,,,,,,,5499.7089999999735,completion,,,,,,,low,low,,,,,,false,,,,,true,505511.3000000119,505511,499994.403,499998.6999999881,500011.291,505528.02,1,40,,
trial,html.Screen,8_7_0,2023-11-17T16:20:37.948Z,,,,2,0.0050679133050021,0.0174815595031679,,0.04,true,lh,4343.17999998806,response,-0.8644465729542988,1.15,-1.048005072729819,0.8679598285079457,1.15,-1.048005072729819,low,high,,ISIC_9848743.JPG,,ISIC_6718969.JPG,26,false,0.29000000000000015,lh,keypress(e),0,true,509871.5,509871.1999999881,505511.281,505511.40000000596,505528.02,509878.026,1,40,8,
sequence,flow.Sequence,8_7,2023-11-17T16:20:37.948Z,,,,,,,,,,,4343.17999998806,completion,,,,,,,low,high,,,,,,false,,,,,true,509871.8000000119,509871.1999999881,505511.281,505511.40000000596,505528.02,509878.026,1,40,,
trial,html.Screen,8_8_0,2023-11-17T16:20:42.899Z,,,,2,0.012020985739544,-0.0126097407389903,,0.04,false,lh,4944.6739999880665,response,-0.8070820195894357,1.15,-1.048005072729819,0.8958120092147633,1.0999999999999999,-1.048005072729819,low,high,,ISIC_0069379.JPG,,ISIC_0060585.JPG,25,false,0.2500000000000001,hh,keypress(i),0,true,514822.90000000596,514822.6999999881,509861.273,509871.90000000596,509878.026,514828.042,1,40,9,
sequence,flow.Sequence,8_8,2023-11-17T16:20:42.900Z,,,,,,,,,,,4944.6739999880665,completion,,,,,,,low,high,,,,,,false,,,,,true,514823.09999999404,514822.6999999881,509861.273,509871.90000000596,509878.026,514828.042,1,40,,
trial,html.Screen,8_9_0,2023-11-17T16:20:48.491Z,,,,2,-0.0365981355399771,-0.0162670920008846,,0.04,false,hl,5586.358000005945,response,1.0088376543442317,1.15,-1.098005072729819,-0.8023075994977575,1.0999999999999999,-1.048005072729819,high,low,,ISIC_0982855.JPG,,ISIC_7619234.JPG,26,false,0.27000000000000013,hh,keypress(i),0,true,520414.40000000596,520414.40000000596,514811.296,514823.09999999404,514828.042,520427.994,1,40,10,
sequence,flow.Sequence,8_9,2023-11-17T16:20:48.491Z,,,,,,,,,,,5586.358000005945,completion,,,,,,,high,low,,,,,,false,,,,,true,520414.5,520414.40000000596,514811.296,514823.09999999404,514828.042,520427.994,1,40,,
trial,html.Screen,8_10_0,2023-11-17T16:20:55.867Z,,,,2,0.0118555311043871,0.0087774532070196,,0.04,true,ll,7362.505999999994,response,-1.0901635293704552,0.9023248317794974,-1.098005072729819,-1.0348352814358883,1.0999999999999999,-1.098005072729819,low,low,,ISIC_6488658.JPG,,ISIC_7583134.JPG,26,false,0.12,ll,keypress(f),0,true,527790.6999999881,527790.5,520411.194,520414.5,520427.994,527794.71,1,40,11,
sequence,flow.Sequence,8_10,2023-11-17T16:20:55.867Z,,,,,,,,,,,7362.505999999994,completion,,,,,,,low,low,,,,,,false,,,,,true,527790.8000000119,527790.5,520411.194,520414.5,520427.994,527794.71,1,40,,
trial,html.Screen,8_11_0,2023-11-17T16:20:57.828Z,,,,2,0.0118555311043871,0.0087774532070196,,0.04,true,hh,1956.8899999940768,response,0.934130994804294,0.9023248317794974,-1.098005072729819,1.110086733022912,1.0999999999999999,-1.098005072729819,high,high,,ISIC_6488658.JPG,,ISIC_0053916.JPG,30,false,0.1,hh,keypress(i),0,true,529751.900000006,529751.599999994,527777.795,527790.900000006,527794.71,529761.374,1,40,12,
sequence,flow.Sequence,8_11,2023-11-17T16:20:57.829Z,,,,,,,,,,,1956.8899999940768,completion,,,,,,,high,high,,,,,,false,,,,,true,529752.3000000119,529751.599999994,527777.795,527790.900000006,527794.71,529761.374,1,40,,
trial,html.Screen,8_12_0,2023-11-17T16:21:03.012Z,,,,2,0.0377791839943904,-0.0227626648172468,,0.04,false,lh,5174.225999994087,response,-1.00615481805876,0.9023248317794974,-1.098005072729819,0.8428903771195875,0.9721088639136031,-1.098005072729819,low,high,,ISIC_7167479.JPG,,ISIC_0069970.JPG,26,false,0.2400000000000001,hh,keypress(i),0,true,534935.900000006,534935.599999994,529744.79,529752.400000006,529761.374,534944.707,1,40,13,
sequence,flow.Sequence,8_12,2023-11-17T16:21:03.013Z,,,,,,,,,,,5174.225999994087,completion,,,,,,,low,high,,,,,,false,,,,,true,534936.3000000119,534935.599999994,529744.79,529752.400000006,529761.374,534944.707,1,40,,
trial,html.Screen,8_13_0,2023-11-17T16:21:07.212Z,,,,2,-0.0327772618698018,0.0056908372048728,,0.04,true,ll,4190.193000005907,response,-1.1638334638021437,0.9023248317794974,-1.148005072729819,-1.0846635401396965,0.9721088639136031,-1.098005072729819,low,low,,ISIC_7897925.JPG,,ISIC_4718313.JPG,27,false,0.13,ll,keypress(f),0,true,539135,539134.900000006,534928.051,534936.400000006,534944.707,539144.72,1,40,14,
sequence,flow.Sequence,8_13,2023-11-17T16:21:07.212Z,,,,,,,,,,,4190.193000005907,completion,,,,,,,low,low,,,,,,false,,,,,true,539135.1999999881,539134.900000006,534928.051,534936.400000006,534944.707,539144.72,1,40,,
trial,html.Screen,8_14_0,2023-11-17T16:21:09.355Z,,,,2,0.0060918352854008,-0.029032683404407,,0.04,true,hh,2133.6800000059884,response,0.8223148058609743,0.9023248317794974,-1.148005072729819,0.8873094399918428,0.9721088639136031,-1.07424850197092,high,high,,ISIC_8436194.JPG,,ISIC_0011356.JPG,46,false,0.1,hh,keypress(i),0,true,541278.5,541278.400000006,539128.165,539135.3000000119,539144.72,541294.75,1,40,15,
sequence,flow.Sequence,8_14,2023-11-17T16:21:09.355Z,,,,,,,,,,,2133.6800000059884,completion,,,,,,,high,high,,,,,,false,,,,,true,541278.599999994,541278.400000006,539128.165,539135.3000000119,539144.72,541294.75,1,40,,
trial,html.Screen,8_15_0,2023-11-17T16:21:15.732Z,,,,2,-0.0127320821962457,0.0315308940184827,,0.04,true,hh,6360.550000011921,response,0.8543323078107433,0.8523248317794974,-1.148005072729819,0.9163054072963652,0.922108863913603,-1.07424850197092,high,high,,ISIC_8156101.JPG,,ISIC_0012070.JPG,50,false,0.1,hh,keypress(i),0,true,547655.400000006,547655.3000000119,541277.992,541278.6999999881,541294.75,547661.442,1,40,16,
sequence,flow.Sequence,8_15,2023-11-17T16:21:15.732Z,,,,,,,,,,,6360.550000011921,completion,,,,,,,high,high,,,,,,false,,,,,true,547655.8000000119,547655.3000000119,541277.992,541278.6999999881,541294.75,547661.442,1,40,,
trial,html.Screen,8_16_0,2023-11-17T16:21:21.395Z,,,,2,0.00126575685933,0.0325046559638838,,0.04,false,hl,5657.157999994,response,0.7011709745663137,0.8523248317794974,-1.148005072729819,-0.9901017340796716,0.922108863913603,-1.07424850197092,high,low,,ISIC_5682259.JPG,,ISIC_8679617.JPG,27,false,0.17000000000000004,hh,keypress(i),0,true,553318.6999999881,553318.599999994,547644.578,547656,547661.442,553328.041,1,40,17,
sequence,flow.Sequence,8_16,2023-11-17T16:21:21.396Z,,,,,,,,,,,5657.157999994,completion,,,,,,,high,low,,,,,,false,,,,,true,553318.900000006,553318.599999994,547644.578,547655.900000006,547661.442,553328.041,1,40,,
trial,html.Screen,8_17_0,2023-11-17T16:21:26.053Z,,,,2,0.0158987717472563,0.0292472192292015,,0.04,true,ll,4647.558999994071,response,-1.0581281450494728,0.7587381909313394,-1.148005072729819,-1.133169116569424,0.922108863913603,-1.12424850197092,low,low,,ISIC_1366765.JPG,,ISIC_5490352.JPG,25,false,0.13,ll,keypress(f),0,true,557975.900000006,557975.599999994,553311.319,553318.900000006,553328.041,557978.081,1,40,18,
sequence,flow.Sequence,8_17,2023-11-17T16:21:26.053Z,,,,,,,,,,,4647.558999994071,completion,,,,,,,low,low,,,,,,false,,,,,true,557976.3000000119,557975.599999994,553311.319,553318.900000006,553328.041,557978.081,1,40,,
trial,html.Screen,8_18_0,2023-11-17T16:21:31.068Z,,,,2,0.0350697500805515,0.0166617848231997,,0.04,false,hl,5013.1189999880735,response,0.6242203246465953,0.7587381909313394,-1.0456486308094484,-1.0943038627805588,0.922108863913603,-1.12424850197092,high,low,,ISIC_0024423.JPG,,ISIC_4720306.JPG,26,false,0.15000000000000002,hh,keypress(i),0,true,562991.400000006,562991.1999999881,557961.304,557976.400000006,557978.081,562994.757,1,40,19,
sequence,flow.Sequence,8_18,2023-11-17T16:21:31.069Z,,,,,,,,,,,5013.1189999880735,completion,,,,,,,high,low,,,,,,false,,,,,true,562991.900000006,562991.1999999881,557961.304,557976.3000000119,557978.081,562994.757,1,40,,
trial,html.Screen,8_19_0,2023-11-17T16:21:33.420Z,,,,2,0.0023664502831079,0.0252784582169994,,0.04,true,hh,2348.2430000000168,response,0.7291462397404709,0.7587381909313394,-1.0456486308094484,0.9195149254716736,0.922108863913603,-1.1742485019709201,high,high,,ISIC_4156010.JPG,,ISIC_3445468.JPG,58,false,0.1,hh,keypress(i),0,true,565343.1999999881,565343,562977.932,562992,562994.757,565362.832,1,40,20,
sequence,flow.Sequence,8_19,2023-11-17T16:21:33.420Z,,,,,,,,,,,2348.2430000000168,completion,,,,,,,high,high,,,,,,false,,,,,true,565343.5,565343,562977.932,562992,562994.757,565362.832,1,40,,
trial,html.Screen,8_20_0,2023-11-17T16:21:39.092Z,,,,2,-0.0189295602385628,-0.0128812415435153,,0.04,true,hl,5652.468000011868,response,0.7753299102004093,0.7218676250591344,-1.0456486308094484,-1.053851019509641,0.7218676250591344,-1.1742485019709201,high,low,,ISIC_0010372.JPG,,ISIC_9511832.JPG,27,false,0.15000000000000002,hl,keypress(j),0,true,571015.5,571015.3000000119,565328.178,565343.6999999881,565362.832,571028.144,1,40,21,
sequence,flow.Sequence,8_20,2023-11-17T16:21:39.093Z,,,,,,,,,,,5652.468000011868,completion,,,,,,,high,low,,,,,,false,,,,,true,571015.8000000119,571015.3000000119,565328.178,565343.599999994,565362.832,571028.144,1,40,,
trial,html.Screen,8_21_0,2023-11-17T16:21:45.460Z,,,,2,0.0399381815506136,0.0177751789152893,,0.04,false,lh,6354.756000005989,response,-1.1224745971429997,0.7218676250591344,-1.0456486308094484,0.8423270217438888,0.7218676250591344,-1.1742485019709201,low,high,,ISIC_3981425.JPG,,ISIC_0057032.JPG,27,false,0.15000000000000002,hl,keypress(j),0,true,577383.099999994,577382.900000006,571011.222,571015.900000006,571028.144,577394.744,1,40,22,
sequence,flow.Sequence,8_21,2023-11-17T16:21:45.460Z,,,,,,,,,,,6354.756000005989,completion,,,,,,,low,high,,,,,,false,,,,,true,577383.3000000119,577382.900000006,571011.222,571015.900000006,571028.144,577394.744,1,40,,
trial,html.Screen,8_22_0,2023-11-17T16:21:52.789Z,,,,2,0.0077673378094614,0.0021810768579373,,0.04,false,lh,7317.256000000052,response,-0.9394943755829636,0.7218676250591344,-1.0956486308094484,0.7928025019302636,0.7718676250591344,-1.1742485019709201,low,high,,ISIC_0067621.JPG,,ISIC_0071550.JPG,25,false,0.16000000000000003,ll,keypress(f),0,true,584712.1999999881,584712,577378.013,577383.3000000119,577394.744,584728.197,1,40,23,
sequence,flow.Sequence,8_22,2023-11-17T16:21:52.789Z,,,,,,,,,,,7317.256000000052,completion,,,,,,,low,high,,,,,,false,,,,,true,584712.8000000119,584712,577378.013,577383.3000000119,577394.744,584728.197,1,40,,
trial,html.Screen,8_23_0,2023-11-17T16:21:56.651Z,,,,2,-0.0189295602385628,-0.0128812415435153,,0.04,true,hh,3846.4029999939958,response,0.7169129183381184,0.7218676250591344,-1.0956486308094484,0.734644362134931,0.8218676250591345,-1.1742485019709201,high,high,,ISIC_0010372.JPG,,ISIC_0033956.JPG,58,false,0.1,hh,keypress(i),0,true,588574.8000000119,588574.599999994,584711.207,584713.099999994,584728.197,588578.131,1,40,24,
sequence,flow.Sequence,8_23,2023-11-17T16:21:56.652Z,,,,,,,,,,,3846.4029999939958,completion,,,,,,,high,high,,,,,,false,,,,,true,588574.900000006,588574.599999994,584711.207,584713,584728.197,588578.131,1,40,,
trial,html.Screen,8_24_0,2023-11-17T16:21:59.291Z,,,,2,-0.010035581303589,0.0100711721396864,,0.04,true,hh,2636.368999999948,response,0.7014201857091904,0.6757786402365247,-1.0956486308094484,0.8383919586371591,0.8218676250591345,-1.1742485019709201,high,high,,ISIC_0030592.JPG,,ISIC_0014541.JPG,54,false,0.1,hh,keypress(i),0,true,591214.599999994,591214.5,588561.39,588574.900000006,588578.131,591228.257,1,40,25,
sequence,flow.Sequence,8_24,2023-11-17T16:21:59.291Z,,,,,,,,,,,2636.368999999948,completion,,,,,,,high,high,,,,,,false,,,,,true,591214.8000000119,591214.5,588561.39,588574.900000006,588578.131,591228.257,1,40,,
trial,html.Screen,8_25_0,2023-11-17T16:22:03.868Z,,,,2,0.012810673904807,-0.00400964452501,,0.04,true,ll,4563.043000011938,response,-1.1305948371148624,0.6757786402365247,-1.0956486308094484,-1.2802709447034604,0.7199060721731747,-1.1742485019709201,low,low,,ISIC_0064656.JPG,,ISIC_5648111.JPG,26,false,0.13,ll,keypress(f),0,true,595791.599999994,595791.3000000119,591211.401,591214.900000006,591228.257,595794.81,1,40,26,
sequence,flow.Sequence,8_25,2023-11-17T16:22:03.869Z,,,,,,,,,,,4563.043000011938,completion,,,,,,,low,low,,,,,,false,,,,,true,595791.900000006,595791.3000000119,591211.401,591214.8000000119,591228.257,595794.81,1,40,,
trial,html.Screen,8_26_0,2023-11-17T16:22:11.804Z,,,,2,0.0166849894750452,-0.0371614812368835,,0.04,false,lh,7932.090000005905,response,-0.9075550800549244,0.6757786402365247,-1.0456486308094484,0.6130742692627077,0.7199060721731747,-1.12424850197092,low,high,,ISIC_6231450.JPG,,ISIC_0058906.JPG,27,false,0.15000000000000002,hl,keypress(j),0,true,603727.099999994,603726.900000006,595778.092,595792.099999994,595794.81,603745.878,1,40,27,
sequence,flow.Sequence,8_26,2023-11-17T16:22:11.804Z,,,,,,,,,,,7932.090000005905,completion,,,,,,,low,high,,,,,,false,,,,,true,603727.3000000119,603726.900000006,595778.092,595792,595794.81,603745.878,1,40,,
trial,html.Screen,8_27_0,2023-11-17T16:22:17.348Z,,,,2,-0.0361875505619981,0.0291457404567876,,0.04,false,hl,5524.821999988053,response,0.7877592509894734,0.6757786402365247,-1.0956486308094484,-1.1264694181779615,0.7699060721731747,-1.12424850197092,high,low,,ISIC_0027480.JPG,,ISIC_9058340.JPG,26,false,0.13,ll,keypress(f),0,true,609270.8000000119,609270.6999999881,603711.397,603727.5,603745.878,609278.1,1,40,28,
sequence,flow.Sequence,8_27,2023-11-17T16:22:17.348Z,,,,,,,,,,,5524.821999988053,completion,,,,,,,high,low,,,,,,false,,,,,true,609270.900000006,609270.6999999881,603711.397,603727.5,603745.878,609278.1,1,40,,
trial,html.Screen,8_28_0,2023-11-17T16:22:23.187Z,,,,2,-0.0361875505619981,0.0291457404567876,,0.04,false,lh,5831.999999994063,response,-1.1890109863264902,0.7257786402365247,-1.0956486308094484,0.8867825318561365,0.7699060721731747,-1.12424850197092,low,high,,ISIC_0027480.JPG,,ISIC_0072576.JPG,25,false,0.16000000000000003,ll,keypress(f),0,true,615110.3000000119,615110.099999994,609261.445,609271,609278.1,615129.557,1,40,29,
sequence,flow.Sequence,8_28,2023-11-17T16:22:23.187Z,,,,,,,,,,,5831.999999994063,completion,,,,,,,low,high,,,,,,false,,,,,true,615110.3000000119,615110.099999994,609261.445,609271,609278.1,615129.557,1,40,,
trial,html.Screen,8_29_0,2023-11-17T16:22:31.533Z,,,,2,-0.0051046740562181,0.0178832721027728,,0.04,true,ll,8326.14299998805,response,-1.0375203228848855,0.7257786402365247,-1.0956486308094484,-1.0256934713188917,0.8199060721731748,-1.12424850197092,low,low,,ISIC_9545819.JPG,,ISIC_4264600.JPG,27,false,0.12,ll,keypress(f),0,true,623455.900000006,623455.6999999881,615094.627,615110.400000006,615129.557,623461.474,1,40,30,
sequence,flow.Sequence,8_29,2023-11-17T16:22:31.533Z,,,,,,,,,,,8326.14299998805,completion,,,,,,,low,low,,,,,,false,,,,,true,623456.1999999881,623455.6999999881,615094.627,615110.400000006,615129.557,623461.474,1,40,,
trial,html.Screen,8_30_0,2023-11-17T16:22:39.468Z,,,,2,-0.0051046740562181,0.0178832721027728,,0.04,false,hl,7929.826000011875,response,0.8561946552009824,0.7257786402365247,-1.0573522288226909,-0.9282171889213044,0.8199060721731748,-1.0573522288226909,high,low,,ISIC_9545819.JPG,,ISIC_3065032.JPG,28,false,0.14,ll,keypress(f),0,true,631391.5,631391.3000000119,623444.581,623456.3000000119,623461.474,631394.86,1,40,31,
sequence,flow.Sequence,8_30,2023-11-17T16:22:39.469Z,,,,,,,,,,,7929.826000011875,completion,,,,,,,high,low,,,,,,false,,,,,true,631391.8000000119,631391.3000000119,623444.581,623456.3000000119,623461.474,631394.86,1,40,,
trial,html.Screen,8_31_0,2023-11-17T16:22:43.620Z,,,,2,0.0057914759495055,-0.018500200317654,,0.04,true,hl,4147.839999988093,response,0.7450700429395554,0.7757786402365248,-1.0573522288226909,-1.1659665266603083,0.8199060721731748,-1.0573522288226909,high,low,,ISIC_0058723.JPG,,ISIC_3736075.JPG,26,false,0.14,hl,keypress(j),0,true,635542.8000000119,635542.6999999881,631377.941,631392,631394.86,635544.843,1,40,32,
sequence,flow.Sequence,8_31,2023-11-17T16:22:43.620Z,,,,,,,,,,,4147.839999988093,completion,,,,,,,high,low,,,,,,false,,,,,true,635543,635542.6999999881,631377.941,631391.900000006,631394.86,635544.843,1,40,,
trial,html.Screen,8_32_0,2023-11-17T16:22:49.563Z,,,,2,0.012020985739544,-0.0126097407389903,,0.04,false,hl,5941.557000005967,response,0.6629163102028129,0.7757786402365248,-1.0573522288226909,-1.000470054909676,0.8199060721731748,-1.0073522288226908,high,low,,ISIC_0069379.JPG,,ISIC_9562157.JPG,25,false,0.12,ll,keypress(f),0,true,641486.400000006,641486.400000006,635528.057,635543,635544.843,641494.857,1,40,33,
sequence,flow.Sequence,8_32,2023-11-17T16:22:49.563Z,,,,,,,,,,,5941.557000005967,completion,,,,,,,high,low,,,,,,false,,,,,true,641486.599999994,641486.400000006,635528.057,635543,635544.843,641494.857,1,40,,
trial,html.Screen,8_33_0,2023-11-17T16:22:51.491Z,,,,2,-0.0051046740562181,0.0178832721027728,,0.04,true,hh,1919.5430000060005,response,0.850984647884985,0.8257786402365248,-1.0573522288226909,0.8368364447246962,0.8199060721731748,-1.0073522288226908,high,high,,ISIC_9545819.JPG,,ISIC_0062005.JPG,64,false,0.1,hh,keypress(i),0,true,643414.599999994,643414.400000006,641478.075,641486.599999994,641494.857,643428.15,1,40,34,
sequence,flow.Sequence,8_33,2023-11-17T16:22:51.492Z,,,,,,,,,,,1919.5430000060005,completion,,,,,,,high,high,,,,,,false,,,,,true,643414.8000000119,643414.400000006,641478.075,641486.599999994,641494.857,643428.15,1,40,,
trial,html.Screen,8_34_0,2023-11-17T16:22:53.363Z,,,,2,0.00126575685933,0.0325046559638838,,0.04,true,hh,1858.2500000059372,response,0.7427258768301445,0.8257786402365248,-1.0573522288226909,0.7291248954594411,0.8199060721731748,-1.0073522288226908,high,high,,ISIC_5682259.JPG,,ISIC_0060829.JPG,64,false,0.1,hh,keypress(i),0,true,645286.5,645286.400000006,643411.486,643414.8000000119,643428.15,645294.889,1,40,35,
sequence,flow.Sequence,8_34,2023-11-17T16:22:53.363Z,,,,,,,,,,,1858.2500000059372,completion,,,,,,,high,high,,,,,,false,,,,,true,645286.6999999881,645286.400000006,643411.486,643414.8000000119,643428.15,645294.889,1,40,,
trial,html.Screen,8_35_0,2023-11-17T16:22:58.716Z,,,,2,0.0060918352854008,-0.029032683404407,,0.04,false,hh,5344.1110000000335,response,0.8054611183301272,0.7329806700920687,-1.0573522288226909,0.6459948043112863,0.7329806700920687,-1.0073522288226908,high,high,,ISIC_8436194.JPG,,ISIC_0072377.JPG,62,false,0.1,lh,keypress(e),0,true,650639.1999999881,650639,645278.166,645286.6999999881,645294.889,650644.886,1,40,36,
sequence,flow.Sequence,8_35,2023-11-17T16:22:58.716Z,,,,,,,,,,,5344.1110000000335,completion,,,,,,,high,high,,,,,,false,,,,,true,650639.400000006,650639,645278.166,645286.6999999881,645294.889,650644.886,1,40,,
trial,html.Screen,8_36_0,2023-11-17T16:23:02.044Z,,,,2,0.012810673904807,-0.00400964452501,,0.04,true,ll,3322.414000011864,response,-1.09666761087476,0.7829806700920687,-1.0573522288226909,-0.9917482735105084,0.7329806700920687,-1.0073522288226908,low,low,,ISIC_0064656.JPG,,ISIC_0071754.JPG,28,false,0.11,ll,keypress(f),0,true,653967.400000006,653967.3000000119,650628.072,650639.599999994,650644.886,653978.297,1,40,37,
sequence,flow.Sequence,8_36,2023-11-17T16:23:02.045Z,,,,,,,,,,,3322.414000011864,completion,,,,,,,low,low,,,,,,false,,,,,true,653967.6999999881,653967.3000000119,650628.072,650639.5,650644.886,653978.297,1,40,,
trial,html.Screen,8_37_0,2023-11-17T16:23:08.748Z,,,,2,0.0399381815506136,0.0177751789152893,,0.04,false,hl,6692.802999994019,response,0.8015753713975186,0.7829806700920687,-1.0573522288226909,-1.0067065355978264,0.7329806700920687,-0.9942079421926342,high,low,,ISIC_3981425.JPG,,ISIC_0002119.JPG,28,false,0.13,ll,keypress(f),0,true,660671.3000000119,660671.099999994,653961.458,653967.900000006,653978.297,660678.214,1,40,38,
sequence,flow.Sequence,8_37,2023-11-17T16:23:08.748Z,,,,,,,,,,,6692.802999994019,completion,,,,,,,high,low,,,,,,false,,,,,true,660671.599999994,660671.099999994,653961.458,653967.8000000119,653978.297,660678.214,1,40,,
trial,html.Screen,8_38_0,2023-11-17T16:23:13.708Z,,,,2,-0.0063515208248796,-0.0194177605767913,,0.04,false,lh,4952.785999999964,response,-0.9394943755829636,0.8329806700920688,-1.0573522288226909,0.7928025019302636,0.7329806700920687,-0.9942079421926342,low,high,,ISIC_5281908.JPG,,ISIC_0071550.JPG,26,false,0.15000000000000002,ll,keypress(f),0,true,665631.1999999881,665631,660661.545,660671.599999994,660678.214,665645.125,1,40,39,
sequence,flow.Sequence,8_38,2023-11-17T16:23:13.708Z,,,,,,,,,,,4952.785999999964,completion,,,,,,,low,high,,,,,,false,,,,,true,665631.5,665631,660661.545,660671.599999994,660678.214,665645.125,1,40,,
trial,html.Screen,8_39_0,2023-11-17T16:23:20.308Z,,,,2,0.012020985739544,-0.0126097407389903,,0.04,false,hh,6585.175000011921,response,0.8509873724468401,0.8329806700920688,-0.923100455590395,0.7817976328037175,0.7829806700920687,-0.9942079421926342,high,high,,ISIC_0069379.JPG,,ISIC_0011497.JPG,62,false,0.1,lh,keypress(e),0,true,672230.400000006,672230.3000000119,665628.08,665631.6999999881,665645.125,672244.913,1,40,40,
sequence,flow.Sequence,8_39,2023-11-17T16:23:20.308Z,,,,,,,,,,,6585.175000011921,completion,,,,,,,high,high,,,,,,false,,,,,true,672230.5,672230.3000000119,665628.08,665631.599999994,665645.125,672244.913,1,40,,
stair_loop,flow.Loop,8,2023-11-17T16:23:20.308Z,,,,,,,,,,,218102.3500000119,completion,,,,,,,,,,,,,,false,,,,,true,672230.599999994,672230.3000000119,454111.356,454118.5,454127.95,672244.913,1,40,,
exp_instructions,html.Screen,9,2023-11-17T16:23:42.901Z,,,,,,,,,,,22577.587000000058,response,,,,,,,,,,,,,,,,continue,keypress(Space),,,694823.099999994,694822.5,672228.085,672230.599999994,672244.913,694844.939,,,,
trial,html.Screen,10_0_0,2023-11-17T16:23:57.547Z,,,,1,0.012810673904807,-0.00400964452501,,0.04,false,lh,14624.060999999987,response,-0.9464722688210522,0.7467969446649325,-1.0622878411544545,0.7779875773283346,0.7736651098743883,-1.0838287224022969,low,high,,ISIC_0064656.JPG,10,ISIC_5926550.JPG,25,false,0.16000000000000003,hh,keypress(i),0,false,709469.099999994,709469,694811.041,694823.400000006,694844.939,709478.255,4,500,1,
break,html.Screen,10_0_1,2023-11-17T16:23:57.547Z,,,,,,,,,,,NaN,,,,,,,,low,high,,,,,,false,,,,,false,709469.5,709469.400000006,,709469.1999999881,,709478.255,4,500,,
break_continue,html.Screen,10_0_2,2023-11-17T16:23:57.547Z,,,,,,,,,,,NaN,,,,,,,,low,high,,,,,,false,,,,,false,709469.6999999881,709469.599999994,,709469.5,,709478.255,4,500,,
sequence,flow.Sequence,10_0,2023-11-17T16:23:57.547Z,,,,,,,,,,,14624.660999994026,completion,,,,,,,low,high,,,,,,false,,,,,false,709469.8000000119,709469.599999994,694811.041,694823.3000000119,694844.939,709478.255,4,500,,
trial,html.Screen,10_1_0,2023-11-17T16:24:05.701Z,,,,1,-0.010035581303589,0.0100711721396864,,0.04,true,hl,8144.944999988074,response,0.781391003063482,0.7467969446649325,-1.0622878411544545,-0.9644960393010829,0.7736651098743883,-1.0838287224022969,high,low,,ISIC_0030592.JPG,10,ISIC_2087913.JPG,26,false,0.14,hl,keypress(j),0,false,717623.5,717623.1999999881,709461.148,709469.8000000119,709478.255,717628.357,4,500,2,
break,html.Screen,10_1_1,2023-11-17T16:24:05.702Z,,,,,,,,,,,NaN,,,,,,,,high,low,,,,,,false,,,,,false,717624.400000006,717624.1999999881,,717623.8000000119,,717628.357,4,500,,
break_continue,html.Screen,10_1_2,2023-11-17T16:24:05.703Z,,,,,,,,,,,NaN,,,,,,,,high,low,,,,,,false,,,,,false,717625.099999994,717624.8000000119,,717624.599999994,,717628.357,4,500,,
sequence,flow.Sequence,10_1,2023-11-17T16:24:05.703Z,,,,,,,,,,,8146.545000011916,completion,,,,,,,high,low,,,,,,false,,,,,false,717625.1999999881,717624.8000000119,709461.148,709469.8000000119,709478.255,717628.357,4,500,,
trial,html.Screen,10_2_0,2023-11-17T16:24:18.541Z,,,,1,-0.0321039635696159,-0.020496766286318,,0.04,true,ll,12834.24299999408,response,-0.9991910338212396,0.7467969446649325,-1.0622878411544545,-1.0085499824556403,0.7736651098743883,-1.0838287224022969,low,low,,ISIC_0058063.JPG,10,ISIC_7795549.JPG,25,false,0.12,ll,keypress(f),0,false,730462.6999999881,730462.599999994,717611.407,717625.5,717628.357,730478.481,4,500,3,
break,html.Screen,10_2_1,2023-11-17T16:24:18.542Z,,,,,,,,,,,NaN,,,,,,,,low,low,,,,,,false,,,,,false,730463,730463,,730462.8000000119,,730478.481,4,500,,
break_continue,html.Screen,10_2_2,2023-11-17T16:24:18.542Z,,,,,,,,,,,NaN,,,,,,,,low,low,,,,,,false,,,,,false,730463.1999999881,730463.099999994,,730463,,730478.481,4,500,,
sequence,flow.Sequence,10_2,2023-11-17T16:24:18.542Z,,,,,,,,,,,12834.74299999408,completion,,,,,,,low,low,,,,,,false,,,,,false,730463.3000000119,730463.099999994,717611.407,717625.400000006,717628.357,730478.481,4,500,,
trial,html.Screen,10_3_0,2023-11-17T16:24:23.414Z,,,,1,-0.0327772618698018,0.0056908372048728,,0.04,false,hl,4856.819000011892,response,0.7468996036626098,0.7467969446649325,-1.0622878411544545,-1.0079605779898853,0.7736651098743883,-1.0838287224022969,high,low,,ISIC_7897925.JPG,9,ISIC_5335139.JPG,26,false,0.14,hh,keypress(i),0,false,735335.5,735335.3000000119,730461.772,730463.3000000119,730478.481,735345.02,4,500,4,
break,html.Screen,10_3_1,2023-11-17T16:24:23.415Z,,,,,,,,,,,NaN,,,,,,,,high,low,,,,,,false,,,,,false,735336.3000000119,735336.099999994,,735335.8000000119,,735345.02,4,500,,
break_continue,html.Screen,10_3_2,2023-11-17T16:24:23.415Z,,,,,,,,,,,NaN,,,,,,,,high,low,,,,,,false,,,,,false,735336.8000000119,735336.6999999881,,735336.5,,735345.02,4,500,,
sequence,flow.Sequence,10_3,2023-11-17T16:24:23.416Z,,,,,,,,,,,4858.21899998805,completion,,,,,,,high,low,,,,,,false,,,,,false,735337.099999994,735336.6999999881,730461.772,730463.3000000119,730478.481,735345.02,4,500,,
trial,html.Screen,10_4_0,2023-11-17T16:24:28.822Z,,,,1,0.00126575685933,0.0325046559638838,,0.04,true,ll,5397.979999999981,response,-1.0581281450494728,0.7467969446649325,-1.0622878411544545,-1.133169116569424,0.7736651098743883,-1.0838287224022969,low,low,,ISIC_5682259.JPG,9,ISIC_5490352.JPG,25,false,0.12,ll,keypress(f),0,false,740743.1999999881,740743,735328.364,735337.1999999881,735345.02,740745.017,4,500,5,
break,html.Screen,10_4_1,2023-11-17T16:24:28.822Z,,,,,,,,,,,NaN,,,,,,,,low,low,,,,,,false,,,,,false,740743.6999999881,740743.599999994,,740743.3000000119,,740745.017,4,500,,
break_continue,html.Screen,10_4_2,2023-11-17T16:24:28.823Z,,,,,,,,,,,NaN,,,,,,,,low,low,,,,,,false,,,,,false,740744.1999999881,740744,,740743.900000006,,740745.017,4,500,,
sequence,flow.Sequence,10_4,2023-11-17T16:24:28.823Z,,,,,,,,,,,5398.979999999981,completion,,,,,,,low,low,,,,,,false,,,,,false,740744.3000000119,740744,735328.364,735337.1999999881,735345.02,740745.017,4,500,,
trial,html.Screen,10_5_0,2023-11-17T16:24:31.605Z,,,,1,0.00126575685933,0.0325046559638838,,0.04,true,lh,2781.4830000000075,response,-0.9087169856594104,0.7467969446649325,-1.0622878411544545,0.8835647084207277,0.7736651098743883,-1.0838287224022969,low,high,,ISIC_5682259.JPG,9,ISIC_0000349.JPG,25,false,0.16000000000000003,lh,keypress(e),0,false,743526.599999994,743526.5,740728.542,740744.5,740745.017,743528.318,4,500,6,
break,html.Screen,10_5_1,2023-11-17T16:24:31.605Z,,,,,,,,,,,NaN,,,,,,,,low,high,,,,,,false,,,,,false,743526.900000006,743526.8000000119,,743526.6999999881,,743528.318,4,500,,
break_continue,html.Screen,10_5_2,2023-11-17T16:24:31.606Z,,,,,,,,,,,NaN,,,,,,,,low,high,,,,,,false,,,,,false,743527,743527,,743527,,743528.318,4,500,,
sequence,flow.Sequence,10_5,2023-11-17T16:24:31.606Z,,,,,,,,,,,2781.9830000000075,completion,,,,,,,low,high,,,,,,false,,,,,false,743527.099999994,743527,740728.542,740744.400000006,740745.017,743528.318,4,500,,
trial,html.Screen,10_6_0,2023-11-17T16:24:37.205Z,,,,1,-0.0063515208248796,-0.0194177605767913,,0.04,false,ll,5598.08200000599,response,-0.9696118525781644,0.7467969446649325,-1.0622878411544545,-0.9712966348713286,0.7736651098743883,-1.0838287224022969,low,low,,ISIC_5281908.JPG,9,ISIC_7927525.JPG,25,false,0.12,lh,keypress(e),0,false,749126.400000006,749126.400000006,743511.65,743527.1999999881,743528.318,749128.319,4,500,7,
break,html.Screen,10_6_1,2023-11-17T16:24:37.205Z,,,,,,,,,,,NaN,,,,,,,,low,low,,,,,,false,,,,,false,749126.8000000119,749126.8000000119,,749126.599999994,,749128.319,4,500,,
break_continue,html.Screen,10_6_2,2023-11-17T16:24:37.206Z,,,,,,,,,,,NaN,,,,,,,,low,low,,,,,,false,,,,,false,749127,749126.900000006,,749126.8000000119,,749128.319,4,500,,
sequence,flow.Sequence,10_6,2023-11-17T16:24:37.206Z,,,,,,,,,,,5598.58200000599,completion,,,,,,,low,low,,,,,,false,,,,,false,749127.099999994,749126.900000006,743511.65,743527.099999994,743528.318,749128.319,4,500,,
trial,html.Screen,10_7_0,2023-11-17T16:24:45.742Z,,,,1,-0.0199897690678184,-0.0312486875504497,,0.04,false,hl,8534.780999994022,response,0.6707413499192771,0.7467969446649325,-1.0622878411544545,-1.176352590105879,0.7736651098743883,-1.0838287224022969,high,low,,ISIC_5482426.JPG,8,ISIC_0567814.JPG,26,false,0.14,hh,keypress(i),0,false,757663.400000006,757663.099999994,749111.591,749127.099999994,749128.319,757678.395,4,500,8,
break,html.Screen,10_7_1,2023-11-17T16:24:45.743Z,,,,,,,,,,,NaN,,,,,,,,high,low,,,,,,false,,,,,false,757664.3000000119,757664.099999994,,757663.6999999881,,757678.395,4,500,,
break_continue,html.Screen,10_7_2,2023-11-17T16:24:45.744Z,,,,,,,,,,,NaN,,,,,,,,high,low,,,,,,false,,,,,false,757664.900000006,757664.6999999881,,757664.599999994,,757678.395,4,500,,
sequence,flow.Sequence,10_7,2023-11-17T16:24:45.744Z,,,,,,,,,,,8536.380999988061,completion,,,,,,,high,low,,,,,,false,,,,,false,757665.1999999881,757664.6999999881,749111.591,749127.099999994,749128.319,757678.395,4,500,,
trial,html.Screen,10_8_0,2023-11-17T16:24:49.469Z,,,,1,-0.0051046740562181,0.0178832721027728,,0.04,true,lh,3712.1049999999814,response,-1.1264523937924051,0.7467969446649325,-1.0622878411544545,0.729579583367798,0.7736651098743883,-1.0838287224022969,low,high,,ISIC_9545819.JPG,10,ISIC_0032095.JPG,25,false,0.16000000000000003,lh,keypress(e),0,false,761390.599999994,761390.5,757661.712,757665.400000006,757678.395,761395.008,4,500,9,
break,html.Screen,10_8_1,2023-11-17T16:24:49.470Z,,,,,,,,,,,NaN,,,,,,,,low,high,,,,,,false,,,,,false,761391,761391,,761390.6999999881,,761395.008,4,500,,
break_continue,html.Screen,10_8_2,2023-11-17T16:24:49.470Z,,,,,,,,,,,NaN,,,,,,,,low,high,,,,,,false,,,,,false,761391.1999999881,761391.1999999881,,761391,,761395.008,4,500,,
sequence,flow.Sequence,10_8,2023-11-17T16:24:49.470Z,,,,,,,,,,,3712.8049999880604,completion,,,,,,,low,high,,,,,,false,,,,,false,761391.3000000119,761391.1999999881,757661.712,757665.400000006,757678.395,761395.008,4,500,,
trial,html.Screen,10_9_0,2023-11-17T16:24:54.533Z,,,,1,0.0399381815506136,0.0177751789152893,,0.04,true,hl,5059.591999994009,response,0.7761549898346118,0.7467969446649325,-1.0622878411544545,-1.0995228188562456,0.7736651098743883,-1.0838287224022969,high,low,,ISIC_3981425.JPG,9,ISIC_1835041.JPG,26,false,0.14,hl,keypress(j),0,false,766454.8000000119,766454.599999994,761378.397,761391.3000000119,761395.008,766461.673,4,500,10,
break,html.Screen,10_9_1,2023-11-17T16:24:54.534Z,,,,,,,,,,,NaN,,,,,,,,high,low,,,,,,false,,,,,false,766455.099999994,766455,,766454.900000006,,766461.673,4,500,,
break_continue,html.Screen,10_9_2,2023-11-17T16:24:54.534Z,,,,,,,,,,,NaN,,,,,,,,high,low,,,,,,false,,,,,false,766455.400000006,766455.3000000119,,766455.1999999881,,766461.673,4,500,,
sequence,flow.Sequence,10_9,2023-11-17T16:24:54.534Z,,,,,,,,,,,5060.29200001189,completion,,,,,,,high,low,,,,,,false,,,,,false,766455.400000006,766455.3000000119,761378.397,761391.3000000119,761395.008,766461.673,4,500,,
trial,html.Screen,10_10_0,2023-11-17T16:24:58.694Z,,,,1,0.0060918352854008,-0.029032683404407,,0.04,true,ll,4153.327000000048,response,-1.1638334638021437,0.7467969446649325,-1.0622878411544545,-1.0846635401396965,0.7736651098743883,-1.0838287224022969,low,low,,ISIC_8436194.JPG,9,ISIC_4718313.JPG,25,false,0.12,ll,keypress(f),0,false,770615.1999999881,770615,766444.882,766455.5,766461.673,770628.507,4,500,11,
break,html.Screen,10_10_1,2023-11-17T16:24:58.694Z,,,,,,,,,,,NaN,,,,,,,,low,low,,,,,,false,,,,,false,770615.8000000119,770615.6999999881,,770615.400000006,,770628.507,4,500,,
break_continue,html.Screen,10_10_2,2023-11-17T16:24:58.695Z,,,,,,,,,,,NaN,,,,,,,,low,low,,,,,,false,,,,,false,770616.099999994,770616,,770615.900000006,,770628.507,4,500,,
sequence,flow.Sequence,10_10,2023-11-17T16:24:58.695Z,,,,,,,,,,,4154.327000000048,completion,,,,,,,low,low,,,,,,false,,,,,false,770616.1999999881,770616,766444.882,766455.5,766461.673,770628.507,4,500,,
trial,html.Screen,10_11_0,2023-11-17T16:25:03.334Z,,,,1,-0.0199897690678184,-0.0312486875504497,,0.04,true,hh,4626.793000011938,response,0.7683530797100027,0.7467969446649325,-1.0622878411544545,0.830154015861423,0.7736651098743883,-1.0838287224022969,high,high,,ISIC_5482426.JPG,9,ISIC_0029092.JPG,60,false,0.1,hh,keypress(i),0,false,775255.599999994,775255.3000000119,770611.739,770616.400000006,770628.507,775261.685,4,500,12,
break,html.Screen,10_11_1,2023-11-17T16:25:03.335Z,,,,,,,,,,,NaN,,,,,,,,high,high,,,,,,false,,,,,false,775256.900000006,775256.3000000119,,775255.900000006,,775261.685,4,500,,
break_continue,html.Screen,10_11_2,2023-11-17T16:25:03.336Z,,,,,,,,,,,NaN,,,,,,,,high,high,,,,,,false,,,,,false,775257.400000006,775257.1999999881,,775257,,775261.685,4,500,,
sequence,flow.Sequence,10_11,2023-11-17T16:25:03.336Z,,,,,,,,,,,4628.692999988096,completion,,,,,,,high,high,,,,,,false,,,,,false,775257.599999994,775257.1999999881,770611.739,770616.3000000119,770628.507,775261.685,4,500,,
trial,html.Screen,10_12_0,2023-11-17T16:25:08.863Z,,,,1,0.0118555311043871,0.0087774532070196,,0.04,true,lh,5522.014999988023,response,-0.9394943755829636,0.7467969446649325,-1.0622878411544545,0.7928025019302636,0.7736651098743883,-1.0838287224022969,low,high,,ISIC_6488658.JPG,8,ISIC_0071550.JPG,25,false,0.16000000000000003,lh,keypress(e),0,false,780783.900000006,780783.6999999881,775244.972,775257.6999999881,775261.685,780795.181,4,500,13,
break,html.Screen,10_12_1,2023-11-17T16:25:08.864Z,,,,,,,,,,,NaN,,,,,,,,low,high,,,,,,false,,,,,false,780785.1999999881,780784.8000000119,,780784.3000000119,,780795.181,4,500,,
break_continue,html.Screen,10_12_2,2023-11-17T16:25:08.864Z,,,,,,,,,,,NaN,,,,,,,,low,high,,,,,,false,,,,,false,780785.599999994,780785.5,,780785.3000000119,,780795.181,4,500,,
sequence,flow.Sequence,10_12,2023-11-17T16:25:08.864Z,,,,,,,,,,,5523.814999999944,completion,,,,,,,low,high,,,,,,false,,,,,false,780785.599999994,780785.5,775244.972,775257.6999999881,775261.685,780795.181,4,500,,
trial,html.Screen,10_13_0,2023-11-17T16:25:11.510Z,,,,1,-0.0051046740562181,0.0178832721027728,,0.04,true,ll,2636.4189999940572,response,-1.1655508270784471,0.7467969446649325,-1.0622878411544545,-1.1162776063248168,0.7736651098743883,-1.0838287224022969,low,low,,ISIC_9545819.JPG,8,ISIC_5509946.JPG,25,false,0.12,ll,keypress(f),0,false,783431.8000000119,783431.599999994,780778.513,780785.6999999881,780795.181,783445.06,4,500,14,
break,html.Screen,10_13_1,2023-11-17T16:25:11.511Z,,,,,,,,,,,NaN,,,,,,,,low,low,,,,,,false,,,,,false,783432.6999999881,783432.5,,783432.099999994,,783445.06,4,500,,
break_continue,html.Screen,10_13_2,2023-11-17T16:25:11.512Z,,,,,,,,,,,NaN,,,,,,,,low,low,,,,,,false,,,,,false,783433.099999994,783432.900000006,,783432.6999999881,,783445.06,4,500,,
sequence,flow.Sequence,10_13,2023-11-17T16:25:11.512Z,,,,,,,,,,,2637.719000005978,completion,,,,,,,low,low,,,,,,false,,,,,false,783433.3000000119,783432.900000006,780778.513,780785.599999994,780795.181,783445.06,4,500,,
trial,html.Screen,10_14_0,2023-11-17T16:25:17.151Z,,,,1,-0.0189295602385628,-0.0128812415435153,,0.04,true,lh,5625.939999999944,response,-0.9087169856594104,0.7467969446649325,-1.0622878411544545,0.8835647084207277,0.7736651098743883,-1.0838287224022969,low,high,,ISIC_0010372.JPG,9,ISIC_0000349.JPG,25,false,0.16000000000000003,lh,keypress(e),0,false,789071.1999999881,789071,783428.463,783433.400000006,783445.06,789078.365,4,500,15,
break,html.Screen,10_14_1,2023-11-17T16:25:17.152Z,,,,,,,,,,,NaN,,,,,,,,low,high,,,,,,false,,,,,false,789071.8000000119,789071.6999999881,,789071.400000006,,789078.365,4,500,,
break_continue,html.Screen,10_14_2,2023-11-17T16:25:17.152Z,,,,,,,,,,,NaN,,,,,,,,low,high,,,,,,false,,,,,false,789072.099999994,789072,,789071.900000006,,789078.365,4,500,,
sequence,flow.Sequence,10_14,2023-11-17T16:25:17.152Z,,,,,,,,,,,5626.939999999944,completion,,,,,,,low,high,,,,,,false,,,,,false,789072.3000000119,789072,783428.463,783433.400000006,783445.06,789078.365,4,500,,
trial,html.Screen,10_15_0,2023-11-17T16:25:24.462Z,,,,1,0.00126575685933,0.0325046559638838,,0.04,false,hh,7304.234999994049,response,0.7112620697206866,0.7467969446649325,-1.0622878411544545,0.7071725768452852,0.7736651098743883,-1.0838287224022969,high,high,,ISIC_5682259.JPG,9,ISIC_0011315.JPG,60,false,0.1,lh,keypress(e),0,false,796382.6999999881,796382.599999994,789061.685,789072.5,789078.365,796395.072,4,500,16,
break,html.Screen,10_15_1,2023-11-17T16:25:24.463Z,,,,,,,,,,,NaN,,,,,,,,high,high,,,,,,false,,,,,false,796383.099999994,796383,,796382.900000006,,796395.072,4,500,,
break_continue,html.Screen,10_15_2,2023-11-17T16:25:24.463Z,,,,,,,,,,,NaN,,,,,,,,high,high,,,,,,false,,,,,false,796383.400000006,796383.3000000119,,796383.1999999881,,796395.072,4,500,,
sequence,flow.Sequence,10_15,2023-11-17T16:25:24.463Z,,,,,,,,,,,7304.93500001193,completion,,,,,,,high,high,,,,,,false,,,,,false,796383.400000006,796383.3000000119,789061.685,789072.400000006,789078.365,796395.072,4,500,,
trial,html.Screen,10_16_0,2023-11-17T16:25:25.480Z,,,,1,0.0166849894750452,-0.0371614812368835,,0.04,false,ll,1005.1279999880353,response,-1.004164099430695,0.7467969446649325,-1.0622878411544545,-1.0674669038247562,0.7736651098743883,-1.0838287224022969,low,low,,ISIC_6231450.JPG,8,ISIC_0541345.JPG,25,false,0.12,hl,keypress(j),0,false,797400.5,797400.1999999881,796378.366,796383.5,796395.072,797428.394,4,500,17,
break,html.Screen,10_16_1,2023-11-17T16:25:25.481Z,,,,,,,,,,,NaN,,,,,,,,low,low,,,,,,false,,,,,false,797401.400000006,797401.1999999881,,797400.8000000119,,797428.394,4,500,,
break_continue,html.Screen,10_16_2,2023-11-17T16:25:25.482Z,,,,,,,,,,,NaN,,,,,,,,low,low,,,,,,false,,,,,false,797401.900000006,797401.8000000119,,797401.599999994,,797428.394,4,500,,
sequence,flow.Sequence,10_16,2023-11-17T16:25:25.482Z,,,,,,,,,,,1006.7280000118772,completion,,,,,,,low,low,,,,,,false,,,,,false,797402.099999994,797401.8000000119,796378.366,796383.5,796395.072,797428.394,4,500,,
trial,html.Screen,10_17_0,2023-11-17T16:25:29.231Z,,,,1,-0.0327772618698018,0.0056908372048728,,0.04,false,lh,3722.40600001195,response,-1.2073182124516106,0.7467969446649325,-1.0622878411544545,0.6156475151888899,0.7736651098743883,-1.0838287224022969,low,high,,ISIC_7897925.JPG,9,ISIC_2214766.JPG,25,false,0.16000000000000003,hh,keypress(i),0,false,801151,801150.8000000119,797411.706,797402.3000000119,797428.394,801161.809,4,500,18,
break,html.Screen,10_17_1,2023-11-17T16:25:29.231Z,,,,,,,,,,,NaN,,,,,,,,low,high,,,,,,false,,,,,false,801151.5,801151.400000006,,801151.1999999881,,801161.809,4,500,,
break_continue,html.Screen,10_17_2,2023-11-17T16:25:29.232Z,,,,,,,,,,,NaN,,,,,,,,low,high,,,,,,false,,,,,false,801151.8000000119,801151.6999999881,,801151.599999994,,801161.809,4,500,,
sequence,flow.Sequence,10_17,2023-11-17T16:25:29.232Z,,,,,,,,,,,3723.305999988108,completion,,,,,,,low,high,,,,,,false,,,,,false,801151.900000006,801151.6999999881,797411.706,797402.3000000119,797428.394,801161.809,4,500,,
trial,html.Screen,10_18_0,2023-11-17T16:25:31.215Z,,,,1,0.0077673378094614,0.0021810768579373,,0.04,false,hh,1973.091000005952,response,0.6553170140786491,0.7467969446649325,-1.0622878411544545,0.8522701912038441,0.7736651098743883,-1.0838287224022969,high,high,,ISIC_0067621.JPG,9,ISIC_0012904.JPG,60,false,0.1,lh,keypress(e),0,false,803135,803134.900000006,801145.109,801151.900000006,801161.809,803145.097,4,500,19,
break,html.Screen,10_18_1,2023-11-17T16:25:31.215Z,,,,,,,,,,,NaN,,,,,,,,high,high,,,,,,false,,,,,false,803135.6999999881,803135.599999994,,803135.3000000119,,803145.097,4,500,,
break_continue,html.Screen,10_18_2,2023-11-17T16:25:31.216Z,,,,,,,,,,,NaN,,,,,,,,high,high,,,,,,false,,,,,false,803136,803135.900000006,,803135.8000000119,,803145.097,4,500,,
sequence,flow.Sequence,10_18,2023-11-17T16:25:31.216Z,,,,,,,,,,,1974.091000005952,completion,,,,,,,high,high,,,,,,false,,,,,false,803136.3000000119,803135.900000006,801145.109,801151.900000006,801161.809,803145.097,4,500,,
trial,html.Screen,10_19_0,2023-11-17T16:25:39.270Z,,,,1,-0.0127320821962457,0.0315308940184827,,0.04,false,lh,8045.502999994089,response,-1.2018448523268856,0.7467969446649325,-1.0622878411544545,0.8157731190790072,0.7736651098743883,-1.0838287224022969,low,high,,ISIC_8156101.JPG,10,ISIC_7662993.JPG,25,false,0.16000000000000003,hh,keypress(i),0,false,811190.6999999881,811190.599999994,803128.48,803136.3000000119,803145.097,811211.777,4,500,20,
break,html.Screen,10_19_1,2023-11-17T16:25:39.271Z,,,,,,,,,,,NaN,,,,,,,,low,high,,,,,,false,,,,,false,811191,811191,,811190.8000000119,,811211.777,4,500,,
break_continue,html.Screen,10_19_2,2023-11-17T16:25:39.271Z,,,,,,,,,,,NaN,,,,,,,,low,high,,,,,,false,,,,,false,811191.099999994,811191.099999994,,811191.099999994,,811211.777,4,500,,
sequence,flow.Sequence,10_19,2023-11-17T16:25:39.271Z,,,,,,,,,,,8046.002999994089,completion,,,,,,,low,high,,,,,,false,,,,,false,811191.1999999881,811191.099999994,803128.48,803136.3000000119,803145.097,811211.777,4,500,,
trial,html.Screen,10_20_0,2023-11-17T16:25:42.703Z,,,,1,-0.0086413421586899,-0.0360184993500958,,0.04,true,hh,3410.922999988077,response,0.7342675938746149,0.7467969446649325,-1.0622878411544545,0.8349586203937607,0.7736651098743883,-1.0838287224022969,high,high,,ISIC_0010767.JPG,9,ISIC_0000401.JPG,60,false,0.1,hh,keypress(i),0,false,814622.8000000119,814622.6999999881,811195.208,811191.3000000119,811211.777,814628.41,4,500,21,
break,html.Screen,10_20_1,2023-11-17T16:25:42.703Z,,,,,,,,,,,NaN,,,,,,,,high,high,,,,,,false,,,,,false,814623.099999994,814623.099999994,,814622.900000006,,814628.41,4,500,,
break_continue,html.Screen,10_20_2,2023-11-17T16:25:42.703Z,,,,,,,,,,,NaN,,,,,,,,high,high,,,,,,false,,,,,false,814623.3000000119,814623.1999999881,,814623.1999999881,,814628.41,4,500,,
sequence,flow.Sequence,10_20,2023-11-17T16:25:42.703Z,,,,,,,,,,,3411.422999988077,completion,,,,,,,high,high,,,,,,false,,,,,false,814623.400000006,814623.1999999881,811195.208,811191.1999999881,811211.777,814628.41,4,500,,
trial,html.Screen,10_21_0,2023-11-17T16:25:47.391Z,,,,1,-0.0367218428225813,0.0026956749740767,,0.04,true,hh,4682.390000011888,response,0.7334232575740642,0.7467969446649325,-1.0622878411544545,0.7193855906690156,0.7736651098743883,-1.0838287224022969,high,high,,ISIC_7212271.JPG,8,ISIC_0010409.JPG,60,false,0.1,hh,keypress(i),0,false,819310.900000006,819310.8000000119,814611.846,814623.5,814628.41,819329.161,4,500,22,
break,html.Screen,10_21_1,2023-11-17T16:25:47.391Z,,,,,,,,,,,NaN,,,,,,,,high,high,,,,,,false,,,,,false,819311.400000006,819311.3000000119,,819311.099999994,,819329.161,4,500,,
break_continue,html.Screen,10_21_2,2023-11-17T16:25:47.391Z,,,,,,,,,,,NaN,,,,,,,,high,high,,,,,,false,,,,,false,819311.6999999881,819311.599999994,,819311.5,,819329.161,4,500,,
sequence,flow.Sequence,10_21,2023-11-17T16:25:47.392Z,,,,,,,,,,,4683.189999994007,completion,,,,,,,high,high,,,,,,false,,,,,false,819311.900000006,819311.599999994,814611.846,814623.5,814628.41,819329.161,4,500,,
trial,html.Screen,10_22_0,2023-11-17T16:26:03.392Z,,,,1,0.012810673904807,-0.00400964452501,,0.04,,,16016.214000000036,timeout,-1.1432120973785689,0.7467969446649325,-1.0622878411544545,-0.973254467915268,0.7736651098743883,-1.0838287224022969,low,low,,ISIC_0064656.JPG,8,ISIC_2072219.JPG,25,false,0.12,,,0,false,835312.5,835312.3000000119,819294.944,819311.900000006,819329.161,835345.375,4,500,23,
break,html.Screen,10_22_1,2023-11-17T16:26:03.393Z,,,,,,,,,,,NaN,,,,,,,,low,low,,,,,,false,,,,,false,835313,835312.900000006,,835312.599999994,,835345.375,4,500,,
break_continue,html.Screen,10_22_2,2023-11-17T16:26:03.393Z,,,,,,,,,,,NaN,,,,,,,,low,low,,,,,,false,,,,,false,835313.1999999881,835313.099999994,,835313,,835345.375,4,500,,
sequence,flow.Sequence,10_22,2023-11-17T16:26:03.393Z,,,,,,,,,,,15983.938999994076,completion,,,,,,,low,low,,,,,,false,,,,,false,835313.400000006,835313.099999994,819294.944,819311.900000006,819329.161,835345.375,4,500,,
trial,html.Screen,10_23_0,2023-11-17T16:26:19.410Z,,,,1,-0.0127320821962457,0.0315308940184827,,0.04,,,16016.417999999947,timeout,-1.1264523937924051,0.7467969446649325,-1.0622878411544545,0.729579583367798,0.7736651098743883,-1.0838287224022969,low,high,,ISIC_8156101.JPG,9,ISIC_0032095.JPG,25,false,0.16000000000000003,,,0,false,851329,851328.8000000119,835328.517,835313.400000006,835345.375,851361.793,4,500,24,
break,html.Screen,10_23_1,2023-11-17T16:26:19.410Z,,,,,,,,,,,NaN,,,,,,,,low,high,,,,,,false,,,,,false,851329.400000006,851329.3000000119,,851329.099999994,,851361.793,4,500,,
break_continue,html.Screen,10_23_2,2023-11-17T16:26:19.410Z,,,,,,,,,,,NaN,,,,,,,,low,high,,,,,,false,,,,,false,851329.599999994,851329.5,,851329.400000006,,851361.793,4,500,,
sequence,flow.Sequence,10_23,2023-11-17T16:26:19.411Z,,,,,,,,,,,15984.125,completion,,,,,,,low,high,,,,,,false,,,,,false,851329.599999994,851329.5,835328.517,835313.400000006,835345.375,851361.793,4,500,,
trial,html.Screen,10_24_0,2023-11-17T16:26:33.119Z,,,,1,0.0071892445601978,-0.0246015408628738,,0.04,false,hh,13676.707000000053,response,0.744695719087225,0.7467969446649325,-1.0622878411544545,0.7863276284255195,0.7736651098743883,-1.0838287224022969,high,high,,ISIC_0014133.JPG,8,ISIC_0071869.JPG,60,false,0.1,hl,keypress(j),0,false,865038.599999994,865038.5,851345.168,851329.6999999881,851361.793,865045.152,4,500,25,
break,html.Screen,10_24_1,2023-11-17T16:26:33.120Z,,,,,,,,,,,NaN,,,,,,,,high,high,,,,,,false,,,,,false,865038.900000006,865038.8000000119,,865038.6999999881,,865045.152,4,500,,
break_continue,html.Screen,10_24_2,2023-11-17T16:26:33.120Z,,,,,,,,,,,NaN,,,,,,,,high,high,,,,,,false,,,,,false,865039.099999994,865039,,865039,,865045.152,4,500,,
sequence,flow.Sequence,10_24,2023-11-17T16:26:33.120Z,,,,,,,,,,,13677.207000000053,completion,,,,,,,high,high,,,,,,false,,,,,false,865039.099999994,865039,851345.168,851329.6999999881,851361.793,865045.152,4,500,,
trial,html.Screen,10_25_0,2023-11-17T16:26:40.424Z,,,,1,0.0399381815506136,0.0177751789152893,,0.04,true,lh,7298.148000011919,response,-0.9372133071132136,0.7467969446649325,-1.0622878411544545,0.619321681341393,0.7736651098743883,-1.0838287224022969,low,high,,ISIC_3981425.JPG,9,ISIC_6450034.JPG,25,false,0.16000000000000003,lh,keypress(e),0,false,872343.5,872343.3000000119,865028.479,865039.1999999881,865045.152,872362.891,4,500,26,
break,html.Screen,10_25_1,2023-11-17T16:26:40.425Z,,,,,,,,,,,NaN,,,,,,,,low,high,,,,,,false,,,,,false,872344.3000000119,872344.099999994,,872343.6999999881,,872362.891,4,500,,
break_continue,html.Screen,10_25_2,2023-11-17T16:26:40.426Z,,,,,,,,,,,NaN,,,,,,,,low,high,,,,,,false,,,,,false,872344.8000000119,872344.6999999881,,872344.5,,872362.891,4,500,,
sequence,flow.Sequence,10_25,2023-11-17T16:26:40.426Z,,,,,,,,,,,7299.547999988077,completion,,,,,,,low,high,,,,,,false,,,,,false,872345,872344.6999999881,865028.479,865039.1999999881,865045.152,872362.891,4,500,,
trial,html.Screen,10_26_0,2023-11-17T16:26:46.191Z,,,,1,0.0077673378094614,0.0021810768579373,,0.04,true,ll,5747.7089999940945,response,-1.011737552725394,0.7467969446649325,-1.0622878411544545,-1.0893360711742854,0.7736651098743883,-1.0838287224022969,low,low,,ISIC_0067621.JPG,9,ISIC_2998367.JPG,25,false,0.12,ll,keypress(f),0,false,878110.599999994,878110.599999994,872328.394,872345.1999999881,872362.891,878128.993,4,500,27,
break,html.Screen,10_26_1,2023-11-17T16:26:46.192Z,,,,,,,,,,,NaN,,,,,,,,low,low,,,,,,false,,,,,false,878110.900000006,878110.8000000119,,878110.6999999881,,878128.993,4,500,,
break_continue,html.Screen,10_26_2,2023-11-17T16:26:46.192Z,,,,,,,,,,,NaN,,,,,,,,low,low,,,,,,false,,,,,false,878111.099999994,878111.099999994,,878111.099999994,,878128.993,4,500,,
sequence,flow.Sequence,10_26,2023-11-17T16:26:46.192Z,,,,,,,,,,,5748.2089999940945,completion,,,,,,,low,low,,,,,,false,,,,,false,878111.1999999881,878111.099999994,872328.394,872345.1999999881,872362.891,878128.993,4,500,,
trial,html.Screen,10_27_0,2023-11-17T16:26:49.848Z,,,,1,-0.0361875505619981,0.0291457404567876,,0.04,true,lh,3637.7069999880623,response,-1.0140243022958364,0.7467969446649325,-1.0622878411544545,0.7084305941404812,0.7736651098743883,-1.0838287224022969,low,high,,ISIC_0027480.JPG,8,ISIC_0014946.JPG,25,false,0.16000000000000003,lh,keypress(e),0,false,881766.8000000119,881766.6999999881,878095.185,878111.1999999881,878128.993,881778.681,4,500,28,
break,html.Screen,10_27_1,2023-11-17T16:26:49.848Z,,,,,,,,,,,NaN,,,,,,,,low,high,,,,,,false,,,,,false,881767.099999994,881767,,881766.900000006,,881778.681,4,500,,
break_continue,html.Screen,10_27_2,2023-11-17T16:26:49.848Z,,,,,,,,,,,NaN,,,,,,,,low,high,,,,,,false,,,,,false,881767.3000000119,881767.1999999881,,881767.099999994,,881778.681,4,500,,
sequence,flow.Sequence,10_27,2023-11-17T16:26:49.848Z,,,,,,,,,,,3638.2069999880623,completion,,,,,,,low,high,,,,,,false,,,,,false,881767.3000000119,881767.1999999881,878095.185,878111.1999999881,878128.993,881778.681,4,500,,
trial,html.Screen,10_28_0,2023-11-17T16:26:57.984Z,,,,1,-0.0321039635696159,-0.020496766286318,,0.04,false,hh,8124.319000000018,response,0.6626619689522508,0.7467969446649325,-1.0622878411544545,0.7098328093963779,0.7736651098743883,-1.0838287224022969,high,high,,ISIC_0058063.JPG,8,ISIC_0010942.JPG,60,false,0.1,lh,keypress(e),0,false,889903.099999994,889903,881761.812,881767.400000006,881778.681,889911.841,4,500,29,
break,html.Screen,10_28_1,2023-11-17T16:26:57.984Z,,,,,,,,,,,NaN,,,,,,,,high,high,,,,,,false,,,,,false,889903.5,889903.400000006,,889903.3000000119,,889911.841,4,500,,
break_continue,html.Screen,10_28_2,2023-11-17T16:26:57.985Z,,,,,,,,,,,NaN,,,,,,,,high,high,,,,,,false,,,,,false,889903.8000000119,889903.6999999881,,889903.599999994,,889911.841,4,500,,
sequence,flow.Sequence,10_28,2023-11-17T16:26:57.985Z,,,,,,,,,,,8125.018999988097,completion,,,,,,,high,high,,,,,,false,,,,,false,889903.900000006,889903.6999999881,881761.812,881767.400000006,881778.681,889911.841,4,500,,
trial,html.Screen,10_29_0,2023-11-17T16:27:06.520Z,,,,1,0.0166849894750452,-0.0371614812368835,,0.04,true,lh,8527.559000005946,response,-0.9674279172871372,0.7467969446649325,-1.0622878411544545,0.7134300562904723,0.7736651098743883,-1.0838287224022969,low,high,,ISIC_6231450.JPG,8,ISIC_9130157.JPG,25,false,0.16000000000000003,lh,keypress(e),0,false,898439.599999994,898439.400000006,889895.126,889904,889911.841,898445.196,4,500,30,
break,html.Screen,10_29_1,2023-11-17T16:27:06.521Z,,,,,,,,,,,NaN,,,,,,,,low,high,,,,,,false,,,,,false,898440.400000006,898440.1999999881,,898439.900000006,,898445.196,4,500,,
break_continue,html.Screen,10_29_2,2023-11-17T16:27:06.522Z,,,,,,,,,,,NaN,,,,,,,,low,high,,,,,,false,,,,,false,898440.900000006,898440.6999999881,,898440.5,,898445.196,4,500,,
sequence,flow.Sequence,10_29,2023-11-17T16:27:06.522Z,,,,,,,,,,,8528.858999988064,completion,,,,,,,low,high,,,,,,false,,,,,false,898441,898440.6999999881,889895.126,889904,889911.841,898445.196,4,500,,
trial,html.Screen,10_30_0,2023-11-17T16:27:09.273Z,,,,1,0.0057914759495055,-0.018500200317654,,0.04,true,ll,2746.6040000119247,response,-1.0375203228848855,0.7467969446649325,-1.0622878411544545,-1.0256934713188917,0.7736651098743883,-1.0838287224022969,low,low,,ISIC_0058723.JPG,9,ISIC_4264600.JPG,25,false,0.12,ll,keypress(f),0,false,901192.099999994,901191.8000000119,898428.268,898441.1999999881,898445.196,901195.2,4,500,31,
break,html.Screen,10_30_1,2023-11-17T16:27:09.274Z,,,,,,,,,,,NaN,,,,,,,,low,low,,,,,,false,,,,,false,901192.900000006,901192.6999999881,,901192.3000000119,,901195.2,4,500,,
break_continue,html.Screen,10_30_2,2023-11-17T16:27:09.274Z,,,,,,,,,,,NaN,,,,,,,,low,low,,,,,,false,,,,,false,901193.5,901193.3000000119,,901193.099999994,,901195.2,4,500,,
sequence,flow.Sequence,10_30,2023-11-17T16:27:09.275Z,,,,,,,,,,,2748.1040000119247,completion,,,,,,,low,low,,,,,,false,,,,,false,901193.6999999881,901193.3000000119,898428.268,898441.1999999881,898445.196,901195.2,4,500,,
trial,html.Screen,10_31_0,2023-11-17T16:27:14.176Z,,,,1,0.0350697500805515,0.0166617848231997,,0.04,false,lh,4899.800000000047,response,-0.931876071706936,0.7467969446649325,-1.0622878411544545,0.7205780326045168,0.7736651098743883,-1.0838287224022969,low,high,,ISIC_0024423.JPG,8,ISIC_0032426.JPG,25,false,0.16000000000000003,hh,keypress(i),0,false,906095.1999999881,906095,901178.626,901193.8000000119,901195.2,906111.973,4,500,32,
break,html.Screen,10_31_1,2023-11-17T16:27:14.177Z,,,,,,,,,,,NaN,,,,,,,,low,high,,,,,,false,,,,,false,906095.8000000119,906095.6999999881,,906095.400000006,,906111.973,4,500,,
break_continue,html.Screen,10_31_2,2023-11-17T16:27:14.177Z,,,,,,,,,,,NaN,,,,,,,,low,high,,,,,,false,,,,,false,906096.099999994,906096,,906095.900000006,,906111.973,4,500,,
sequence,flow.Sequence,10_31,2023-11-17T16:27:14.177Z,,,,,,,,,,,4900.800000000047,completion,,,,,,,low,high,,,,,,false,,,,,false,906096.3000000119,906096,901178.626,901193.8000000119,901195.2,906111.973,4,500,,
trial,html.Screen,10_32_0,2023-11-17T16:27:18.041Z,,,,1,0.0057914759495055,-0.018500200317654,,0.04,false,hl,3847.327000011923,response,0.781391003063482,0.7467969446649325,-1.0622878411544545,-0.9644960393010829,0.7736651098743883,-1.0838287224022969,high,low,,ISIC_0058723.JPG,8,ISIC_2087913.JPG,26,false,0.14,ll,keypress(f),0,false,909959.5,909959.3000000119,906095.22,906096.400000006,906111.973,909961.936,4,500,33,
break,html.Screen,10_32_1,2023-11-17T16:27:18.042Z,,,,,,,,,,,NaN,,,,,,,,high,low,,,,,,false,,,,,false,909960.1999999881,909960,,909959.6999999881,,909961.936,4,500,,
break_continue,html.Screen,10_32_2,2023-11-17T16:27:18.043Z,,,,,,,,,,,NaN,,,,,,,,high,low,,,,,,false,,,,,false,909960.6999999881,909960.5,,909960.400000006,,909961.936,4,500,,
sequence,flow.Sequence,10_32,2023-11-17T16:27:18.043Z,,,,,,,,,,,3848.527000000002,completion,,,,,,,high,low,,,,,,false,,,,,false,909960.8000000119,909960.5,906095.22,906096.3000000119,906111.973,909961.936,4,500,,
trial,html.Screen,10_33_0,2023-11-17T16:27:22.434Z,,,,1,0.0057914759495055,-0.018500200317654,,0.04,false,hl,4389.564000000013,response,0.6971413872676647,0.7467969446649325,-1.0622878411544545,-1.040122402473425,0.7736651098743883,-1.0838287224022969,high,low,,ISIC_0058723.JPG,9,ISIC_8195528.JPG,26,false,0.14,hh,keypress(i),0,false,914351.8000000119,914351.5,909945.312,909961,909961.936,914361.872,4,500,34,
break,html.Screen,10_33_1,2023-11-17T16:27:22.434Z,,,,,,,,,,,NaN,,,,,,,,high,low,,,,,,false,,,,,false,914352.599999994,914352.3000000119,,914352,,914361.872,4,500,,
break_continue,html.Screen,10_33_2,2023-11-17T16:27:22.435Z,,,,,,,,,,,NaN,,,,,,,,high,low,,,,,,false,,,,,false,914353.099999994,914353,,914352.6999999881,,914361.872,4,500,,
sequence,flow.Sequence,10_33,2023-11-17T16:27:22.435Z,,,,,,,,,,,4391.064000000013,completion,,,,,,,high,low,,,,,,false,,,,,false,914353.3000000119,914353,909945.312,909960.900000006,909961.936,914361.872,4,500,,
trial,html.Screen,10_34_0,2023-11-17T16:27:24.977Z,,,,1,-0.0189295602385628,-0.0128812415435153,,0.04,false,lh,2533.0280000059865,response,-0.931876071706936,0.7467969446649325,-1.0622878411544545,0.7205780326045168,0.7736651098743883,-1.0838287224022969,low,high,,ISIC_0010372.JPG,9,ISIC_0032426.JPG,25,false,0.16000000000000003,ll,keypress(f),0,false,916895.1999999881,916894.900000006,914345.339,914353.5,914361.872,916911.914,4,500,35,
break,html.Screen,10_34_1,2023-11-17T16:27:24.978Z,,,,,,,,,,,NaN,,,,,,,,low,high,,,,,,false,,,,,false,916895.6999999881,916895.599999994,,916895.3000000119,,916911.914,4,500,,
break_continue,html.Screen,10_34_2,2023-11-17T16:27:24.978Z,,,,,,,,,,,NaN,,,,,,,,low,high,,,,,,false,,,,,false,916896.099999994,916896,,916895.8000000119,,916911.914,4,500,,
sequence,flow.Sequence,10_34,2023-11-17T16:27:24.978Z,,,,,,,,,,,2534.128000000026,completion,,,,,,,low,high,,,,,,false,,,,,false,916896.1999999881,916896,914345.339,914353.400000006,914361.872,916911.914,4,500,,
trial,html.Screen,10_35_0,2023-11-17T16:27:28.368Z,,,,1,-0.0321039635696159,-0.020496766286318,,0.04,true,hh,3374.4860000059707,response,0.7683530797100027,0.7467969446649325,-1.0622878411544545,0.830154015861423,0.7736651098743883,-1.0838287224022969,high,high,,ISIC_0058063.JPG,9,ISIC_0029092.JPG,60,false,0.1,hh,keypress(i),0,false,920286.5,920286.400000006,916895.181,916896.3000000119,916911.914,920295.238,4,500,36,
break,html.Screen,10_35_1,2023-11-17T16:27:28.369Z,,,,,,,,,,,NaN,,,,,,,,high,high,,,,,,false,,,,,false,920286.8000000119,920286.8000000119,,920286.599999994,,920295.238,4,500,,
break_continue,html.Screen,10_35_2,2023-11-17T16:27:28.369Z,,,,,,,,,,,NaN,,,,,,,,high,high,,,,,,false,,,,,false,920287,920287,,920286.900000006,,920295.238,4,500,,
sequence,flow.Sequence,10_35,2023-11-17T16:27:28.369Z,,,,,,,,,,,3375.0860000000102,completion,,,,,,,high,high,,,,,,false,,,,,false,920287.099999994,920287,916895.181,916896.3000000119,916911.914,920295.238,4,500,,
trial,html.Screen,10_36_0,2023-11-17T16:27:30.489Z,,,,1,-0.0127320821962457,0.0315308940184827,,0.04,false,lh,2111.8619999940274,response,-1.1343164084491792,0.7467969446649325,-1.0622878411544545,0.7599392888539781,0.7736651098743883,-1.0838287224022969,low,high,,ISIC_8156101.JPG,10,ISIC_0032265.JPG,25,false,0.16000000000000003,hl,keypress(j),0,false,922407.3000000119,922407.099999994,920278.708,920287.1999999881,920295.238,922411.897,4,500,37,
break,html.Screen,10_36_1,2023-11-17T16:27:30.490Z,,,,,,,,,,,NaN,,,,,,,,low,high,,,,,,false,,,,,false,922407.900000006,922407.8000000119,,922407.5,,922411.897,4,500,,
break_continue,html.Screen,10_36_2,2023-11-17T16:27:30.490Z,,,,,,,,,,,NaN,,,,,,,,low,high,,,,,,false,,,,,false,922408.3000000119,922408.1999999881,,922408,,922411.897,4,500,,
sequence,flow.Sequence,10_36,2023-11-17T16:27:30.490Z,,,,,,,,,,,2112.961999988067,completion,,,,,,,low,high,,,,,,false,,,,,false,922408.400000006,922408.1999999881,920278.708,920287.1999999881,920295.238,922411.897,4,500,,
trial,html.Screen,10_37_0,2023-11-17T16:27:35.154Z,,,,1,0.0399381815506136,0.0177751789152893,,0.04,false,ll,4659.802999988082,response,-1.1510001454240106,0.7467969446649325,-1.0622878411544545,-1.132540312667795,0.7736651098743883,-1.0838287224022969,low,low,,ISIC_3981425.JPG,8,ISIC_0009959.JPG,25,false,0.12,lh,keypress(e),0,false,927072,927071.6999999881,922395.193,922408.599999994,922411.897,927078.63,4,500,38,
break,html.Screen,10_37_1,2023-11-17T16:27:35.155Z,,,,,,,,,,,NaN,,,,,,,,low,low,,,,,,false,,,,,false,927072.8000000119,927072.599999994,,927072.1999999881,,927078.63,4,500,,
break_continue,html.Screen,10_37_2,2023-11-17T16:27:35.155Z,,,,,,,,,,,NaN,,,,,,,,low,low,,,,,,false,,,,,false,927073.3000000119,927073.099999994,,927072.900000006,,927078.63,4,500,,
sequence,flow.Sequence,10_37,2023-11-17T16:27:35.155Z,,,,,,,,,,,4661.202999994042,completion,,,,,,,low,low,,,,,,false,,,,,false,927073.400000006,927073.099999994,922395.193,922408.599999994,922411.897,927078.63,4,500,,
trial,html.Screen,10_38_0,2023-11-17T16:27:37.393Z,,,,1,-0.0189295602385628,-0.0128812415435153,,0.04,true,ll,2231.770000005956,response,-1.0831477774866454,0.7467969446649325,-1.0622878411544545,-1.0347343776726454,0.7736651098743883,-1.0838287224022969,low,low,,ISIC_0010372.JPG,8,ISIC_9475559.JPG,25,false,0.12,ll,keypress(f),0,false,929310.599999994,929310.400000006,927062.019,927073.599999994,927078.63,929329.949,4,500,39,
break,html.Screen,10_38_1,2023-11-17T16:27:37.393Z,,,,,,,,,,,NaN,,,,,,,,low,low,,,,,,false,,,,,false,929310.900000006,929310.900000006,,929310.6999999881,,929329.949,4,500,,
break_continue,html.Screen,10_38_2,2023-11-17T16:27:37.393Z,,,,,,,,,,,NaN,,,,,,,,low,low,,,,,,false,,,,,false,929311.1999999881,929311.1999999881,,929311.099999994,,929329.949,4,500,,
