sender,sender_type,sender_id,timestamp,meta,,age,blockNo,c1,c2,condition,control_tolerance,correct,correctResponse,duration,ended_on,f1,f1_high,f1_low,f2,f2_high,f2_low,feature_level1,feature_level2,gender,img_left,img_reveal,img_right,n_target_images,practice,range_tolerance,response,response_action,selection_duration,staircase,time_commit,time_end,time_render,time_run,time_show,time_switch,total_blocks,total_trials,trialNo,url
informed_consent,html.Screen,0,2023-11-17T22:16:55.660Z,"{""labjs_version"":""20.2.4"",""labjs_build"":{""flavor"":""development"",""commit"":""f5b4a49f956347addd546a832a3327688c2c0fef""},""location"":""https://labjs.felixhenninger.com/api/labjs_preview/index.html"",""userAgent"":""Mozilla/5.0 (Windows NT 10.0; Win64; x64) AppleWebKit/537.36 (KHTML, like Gecko) Chrome/119.0.0.0 Safari/537.36"",""platform"":""Win32"",""language"":""en-US"",""locale"":""en-US"",""timeZone"":""America/Chicago"",""timezoneOffset"":360,""screen_width"":1920,""screen_height"":1080,""scroll_width"":945,""scroll_height"":918,""window_innerWidth"":945,""window_innerHeight"":966,""devicePixelRatio"":1}",,,,,,,,,,13408.642,response,,,,,,,,,,,,,,,,consent,click button,,,13955.5,13947.5,522.188,721.8000000119209,538.858,13768.761,,,,{}
Demography form,html.Form,1,2023-11-17T22:17:05.654Z,,,19,,,,,,,,10180.438999988079,form submission,,,,,,,,,female,,,,,,,,,,,23949.30000001192,23949.19999998808,13752.224,13955.699999988079,13768.761,23778.988,,,,
Welcome,html.Screen,2,2023-11-17T22:17:07.061Z,,,,,,,"[""asym"",""col""]",,,,1576.4120000357616,response,,,,,,,,,,,,,,,,continue,click button,,,25356,25355.400000035763,23762.281,23949.400000035763,23778.988,25163.514,,,,
demo_instructions,html.Screen,3,2023-11-17T22:17:37.973Z,,,,,,,,,,,31103.986,response,,,,,,,,,,,,,,,,continue,click button,,,56268,56267.5,25147.061,25356.100000023842,25163.514,56094.457,,,,
trial,html.Screen,4_0_0,2023-11-17T22:17:51.299Z,,,,0,1.296989496412063,-1.1425074323097002,,,true,lh,13499.44300003576,response,-1.2615315960773072,1.2,-1.2,1.194084675079932,1.2,-1.2,low,high,,ISIC_6356803.JPG,,ISIC_0010044.JPG,29,true,0.3600000000000002,lh,keypress(e),100,false,69594,69593.90000003576,56061.29,56268.19999998808,56094.457,69424.69,1,16,1,
sequence,flow.Sequence,4_0,2023-11-17T22:17:51.299Z,,,,,,,,,,,13499.44300003576,completion,,,,,,,low,high,,,,,,true,,,,,false,69594.30000001192,69593.90000003576,56061.29,56268.19999998808,56094.457,69424.69,1,16,,
trial,html.Screen,4_1_0,2023-11-17T22:17:58.532Z,,,,0,1.0748728054622358,-1.2840853987892311,,,true,lh,7401.309999999998,response,-0.8494721812820843,1.2,-1.2,1.3435429139974266,1.2,-1.2,low,high,,ISIC_0059219.JPG,,ISIC_0033585.JPG,29,true,0.3600000000000002,lh,keypress(e),100,false,76826.19999998808,76826,69407.816,69594.40000003576,69424.69,76648.434,1,16,2,
sequence,flow.Sequence,4_1,2023-11-17T22:17:58.532Z,,,,,,,,,,,7401.309999999998,completion,,,,,,,low,high,,,,,,true,,,,,false,76826.40000003576,76826,69407.816,69594.40000003576,69424.69,76648.434,1,16,,
trial,html.Screen,4_2_0,2023-11-17T22:18:02.242Z,,,,0,1.055319394932912,-1.409116680310466,,,true,lh,3887.466000035769,response,-1.1235224875125256,1.2,-1.2,0.8641223012137988,1.2,-1.2,low,high,,ISIC_6398669.JPG,,ISIC_0033901.JPG,29,true,0.3600000000000002,lh,keypress(e),100,false,80536,80535.90000003576,76631.976,76826.60000002384,76648.434,80369.005,1,16,3,
sequence,flow.Sequence,4_2,2023-11-17T22:18:02.242Z,,,,,,,,,,,3887.466000035769,completion,,,,,,,low,high,,,,,,true,,,,,false,80536.19999998808,80535.90000003576,76631.976,76826.60000002384,76648.434,80369.005,1,16,,
trial,html.Screen,4_3_0,2023-11-17T22:18:05.298Z,,,,0,0.9225524349657857,-0.929746784178986,,,true,lh,3222.395000035758,response,-1.1235224875125256,1.2,-1.2,0.8641223012137988,1.2,-1.2,low,high,,ISIC_0011077.JPG,,ISIC_0033901.JPG,29,true,0.3600000000000002,lh,keypress(e),100,false,83591.60000002384,83591.40000003576,80352.115,80536.30000001192,80369.005,83421.98,1,16,4,
sequence,flow.Sequence,4_3,2023-11-17T22:18:05.298Z,,,,,,,,,,,3222.395000035758,completion,,,,,,,low,high,,,,,,true,,,,,false,83591.80000001192,83591.40000003576,80352.115,80536.30000001192,80369.005,83421.98,1,16,,
trial,html.Screen,4_4_0,2023-11-17T22:18:13.526Z,,,,0,1.152619213055059,1.2957497771092716,,,true,ll,8397.920000035767,response,-1.2029833962266836,1.2,-1.2,-0.9698119319380986,1.2,-1.2,low,low,,ISIC_0061915.JPG,,ISIC_6208107.JPG,127,true,0.3300000000000002,ll,keypress(f),100,false,91820.10000002384,91819.90000003576,83405.324,83591.90000003576,83421.98,91646.879,1,16,5,
sequence,flow.Sequence,4_4,2023-11-17T22:18:13.527Z,,,,,,,,,,,8397.920000035767,completion,,,,,,,low,low,,,,,,true,,,,,false,91820.5,91819.90000003576,83405.324,83591.80000001192,83421.98,91646.879,1,16,,
trial,html.Screen,4_5_0,2023-11-17T22:18:15.270Z,,,,0,1.1392234684115472,1.3198277407683998,,,true,ll,1916.3209999880783,response,-1.0878102877901663,1.2,-1.2,-1.3154097543539391,1.2,-1.2,low,low,,ISIC_0071875.JPG,,ISIC_1413242.JPG,25,true,0.15000000000000002,ll,keypress(f),100,false,93563.5,93563.19999998808,91630.054,91820.69999998808,91646.879,93398.594,1,16,6,
sequence,flow.Sequence,4_5,2023-11-17T22:18:15.270Z,,,,,,,,,,,1916.3209999880783,completion,,,,,,,low,low,,,,,,true,,,,,false,93563.80000001192,93563.19999998808,91630.054,91820.69999998808,91646.879,93398.594,1,16,,
trial,html.Screen,4_6_0,2023-11-17T22:18:17.348Z,,,,0,1.189469386514313,1.3008582067137853,,,true,ll,2243.0060000238445,response,-1.1604734171556077,1.2,-1.2,-1.0789312625280616,1.2,-1.2,low,low,,ISIC_0010644.JPG,,ISIC_3950753.JPG,25,true,0.15000000000000002,ll,keypress(f),100,false,95641.90000003576,95641.60000002384,93381.845,93564,93398.594,95467.465,1,16,7,
sequence,flow.Sequence,4_6,2023-11-17T22:18:17.348Z,,,,,,,,,,,2243.0060000238445,completion,,,,,,,low,low,,,,,,true,,,,,false,95642.30000001192,95641.60000002384,93381.845,93564,93398.594,95467.465,1,16,,
trial,html.Screen,4_7_0,2023-11-17T22:18:21.726Z,,,,0,1.2059606637811695,1.214966446488752,,,true,ll,4552.5350000000035,response,-1.2714351764931109,1.2,-1.2,-1.0785174776187512,1.2,-1.2,low,low,,ISIC_0013334.JPG,,ISIC_2454898.JPG,25,true,0.15000000000000002,ll,keypress(f),100,false,100020,100020,95450.548,95642.40000003576,95467.465,99854.982,1,16,8,
sequence,flow.Sequence,4_7,2023-11-17T22:18:21.726Z,,,,,,,,,,,4552.5350000000035,completion,,,,,,,low,low,,,,,,true,,,,,false,100020.19999998808,100020,95450.548,95642.40000003576,95467.465,99854.982,1,16,,
trial,html.Screen,4_8_0,2023-11-17T22:18:28.280Z,,,,0,-1.00615481805876,0.8428903771195875,,,true,hl,6718.517999999996,response,1.0822170028935367,1.2,-1.2,-1.1654796154432183,1.2,-1.2,high,low,,ISIC_0069970.JPG,,ISIC_7288818.JPG,26,true,0.3300000000000002,hl,keypress(j),100,false,106573.69999998808,106573.5,99838.288,100020.40000003576,99854.982,106411.653,1,16,9,
sequence,flow.Sequence,4_8,2023-11-17T22:18:28.280Z,,,,,,,,,,,6718.517999999996,completion,,,,,,,high,low,,,,,,true,,,,,false,106573.90000003576,106573.5,99838.288,100020.30000001192,99854.982,106411.653,1,16,,
trial,html.Screen,4_9_0,2023-11-17T22:18:31.547Z,,,,0,-1.225025174430573,0.8422679054456499,,,true,hl,3429.247000035757,response,1.0822170028935367,1.2,-1.2,-1.1654796154432183,1.2,-1.2,high,low,,ISIC_7503950.JPG,,ISIC_7288818.JPG,33,true,0.3600000000000002,hl,keypress(j),100,false,109840.90000003576,109840.90000003576,106394.843,106574,106411.653,109664.746,1,16,10,
sequence,flow.Sequence,4_9,2023-11-17T22:18:31.547Z,,,,,,,,,,,3429.247000035757,completion,,,,,,,high,low,,,,,,true,,,,,false,109841.10000002384,109840.90000003576,106394.843,106574,106411.653,109664.746,1,16,,
trial,html.Screen,4_10_0,2023-11-17T22:18:34.636Z,,,,0,-0.8479396253253069,1.011054319516718,,,true,hl,3265.45399998808,response,1.0345332538240786,1.2,-1.2,-1.4719115945084815,1.2,-1.2,high,low,,ISIC_0063521.JPG,,ISIC_0192490.JPG,33,true,0.3600000000000002,hl,keypress(j),100,false,112930.40000003576,112930.19999998808,109648.114,109841.10000002384,109664.746,112768.128,1,16,11,
sequence,flow.Sequence,4_10,2023-11-17T22:18:34.637Z,,,,,,,,,,,3265.45399998808,completion,,,,,,,high,low,,,,,,true,,,,,false,112930.69999998808,112930.19999998808,109648.114,109841.10000002384,109664.746,112768.128,1,16,,
trial,html.Screen,4_11_0,2023-11-17T22:18:36.431Z,,,,0,-1.225025174430573,0.8422679054456499,,,true,hl,1957.172000011924,response,1.155796217969438,1.2,-1.2,-1.1646564121743912,1.2,-1.2,high,low,,ISIC_7503950.JPG,,ISIC_2685523.JPG,33,true,0.3600000000000002,hl,keypress(j),100,false,114725.40000003576,114725.30000001192,112751.21,112930.90000003576,112768.128,114553.022,1,16,12,
sequence,flow.Sequence,4_11,2023-11-17T22:18:36.432Z,,,,,,,,,,,1957.172000011924,completion,,,,,,,high,low,,,,,,true,,,,,false,114725.5,114725.30000001192,112751.21,112930.90000003576,112768.128,114553.022,1,16,,
trial,html.Screen,4_12_0,2023-11-17T22:18:38.053Z,,,,0,-1.1217390688497193,-1.2276600934505035,,,true,hh,1793.4780000000028,response,0.8471355550006346,1.2,-1.2,0.9005344308932209,1.2,-1.2,high,high,,ISIC_0026344.JPG,,ISIC_0025744.JPG,249,true,0.3600000000000002,hh,keypress(i),100,false,116346.80000001192,116346.5,114536.404,114725.69999998808,114553.022,116171.437,1,16,13,
sequence,flow.Sequence,4_12,2023-11-17T22:18:38.053Z,,,,,,,,,,,1793.4780000000028,completion,,,,,,,high,high,,,,,,true,,,,,false,116347,116346.5,114536.404,114725.60000002384,114553.022,116171.437,1,16,,
trial,html.Screen,4_13_0,2023-11-17T22:18:41.023Z,,,,0,-1.0959058628476686,-1.2921331918483707,,,true,hh,3145.7629999880737,response,1.0762260610050776,1.2,-1.2,1.1184338818466155,1.2,-1.2,high,high,,ISIC_5920470.JPG,,ISIC_0058666.JPG,41,true,0.15000000000000002,hh,keypress(i),100,false,119317.40000003576,119317.19999998808,116154.661,116347.19999998808,116171.437,119140.934,1,16,14,
sequence,flow.Sequence,4_13,2023-11-17T22:18:41.024Z,,,,,,,,,,,3145.7629999880737,completion,,,,,,,high,high,,,,,,true,,,,,false,119317.60000002384,119317.19999998808,116154.661,116347.19999998808,116171.437,119140.934,1,16,,
trial,html.Screen,4_14_0,2023-11-17T22:18:43.782Z,,,,0,-1.073296525451802,-1.3454282740421717,,,true,hh,2935.066000000006,response,1.3271122559811526,1.2,-1.2,1.292001792497521,1.2,-1.2,high,high,,ISIC_5787312.JPG,,ISIC_0065181.JPG,41,true,0.15000000000000002,hh,keypress(i),100,false,122076.19999998808,122076,119124.249,119317.60000002384,119140.934,121910.409,1,16,15,
sequence,flow.Sequence,4_14,2023-11-17T22:18:43.782Z,,,,,,,,,,,2935.066000000006,completion,,,,,,,high,high,,,,,,true,,,,,false,122076.30000001192,122076,119124.249,119317.60000002384,119140.934,121910.409,1,16,,
trial,html.Screen,4_15_0,2023-11-17T22:18:45.375Z,,,,0,-1.073296525451802,-1.3454282740421717,,,true,hh,1758.2909999880794,response,1.194799101954455,1.2,-1.2,1.2071632388858642,1.2,-1.2,high,high,,ISIC_5787312.JPG,,ISIC_4347535.JPG,41,true,0.15000000000000002,hh,keypress(i),100,false,123668.90000003576,123668.69999998808,121893.824,122076.5,121910.409,123495.266,1,16,16,
sequence,flow.Sequence,4_15,2023-11-17T22:18:45.375Z,,,,,,,,,,,1758.2909999880794,completion,,,,,,,high,high,,,,,,true,,,,,false,123669,123668.69999998808,121893.824,122076.40000003576,121910.409,123495.266,1,16,,
demonstration_loop,flow.Loop,4,2023-11-17T22:18:45.375Z,,,,,,,,,,,67574.24299998808,completion,,,,,,,,,,,,,,true,,,,,false,123669.10000002384,123668.69999998808,56061.29,56268.19999998808,56094.457,123495.266,1,16,,
practice_instructions,html.Screen,5,2023-11-17T22:18:51.950Z,,,,,,,,,,,6740.433999988076,response,,,,,,,,,,,,,,,,continue,click button,,,130243.60000002384,130235.69999998808,123478.611,123669.19999998808,123495.266,130051.839,,,,
trial,html.Screen,6_0_0,2023-11-17T22:18:58.919Z,,,,1,-1.1305948371148624,-1.2802709447034604,,,true,hh,7160.660999999993,response,1.2040551955011098,1.2,-1.2,1.2664651062241792,1.2,-1.2,high,high,,ISIC_5648111.JPG,,ISIC_0068886.JPG,27,true,0.12,hh,keypress(i),0,false,137212.69999998808,137212.5,130035.394,130243.80000001192,130051.839,137025.504,1,40,1,
sequence,flow.Sequence,6_0,2023-11-17T22:18:58.919Z,,,,,,,,,,,7160.660999999993,completion,,,,,,,high,high,,,,,,true,,,,,false,137212.90000003576,137212.5,130035.394,130243.80000001192,130051.839,137025.504,1,40,,
trial,html.Screen,6_1_0,2023-11-17T22:19:03.927Z,,,,1,1.2055236989581275,1.1960893075698802,,,false,ll,5194.996000000014,response,-1.0959058628476686,1.2,-1.2,-1.2921331918483707,1.2,-1.2,low,low,,ISIC_0072393.JPG,,ISIC_5920470.JPG,25,true,0.15000000000000002,lh,keypress(e),0,false,142220.69999998808,142220.5,137008.803,137213,137025.504,142030.503,1,40,2,
sequence,flow.Sequence,6_1,2023-11-17T22:19:03.927Z,,,,,,,,,,,5194.996000000014,completion,,,,,,,low,low,,,,,,true,,,,,false,142220.90000003576,142220.5,137008.803,137213,137025.504,142030.503,1,40,,
trial,html.Screen,6_2_0,2023-11-17T22:19:08.007Z,,,,1,-1.1727618800748076,-1.0636787813411093,,,true,hh,4269.797000011924,response,1.1227373144244253,1.2,-1.2,1.1886610799377713,1.2,-1.2,high,high,,ISIC_9690371.JPG,,ISIC_0059506.JPG,27,true,0.12,hh,keypress(i),0,false,146300.5,146300.30000001192,142013.839,142221,142030.503,146118.049,1,40,3,
sequence,flow.Sequence,6_2,2023-11-17T22:19:08.007Z,,,,,,,,,,,4269.797000011924,completion,,,,,,,high,high,,,,,,true,,,,,false,146300.69999998808,146300.30000001192,142013.839,142221,142030.503,146118.049,1,40,,
trial,html.Screen,6_3_0,2023-11-17T22:19:10.431Z,,,,1,1.1711612520017805,1.191169949562454,,,false,ll,2606.3510000357637,response,-1.1655508270784471,1.2,-1.2,-1.1162776063248168,1.2,-1.2,low,low,,ISIC_0061936.JPG,,ISIC_5509946.JPG,25,true,0.15000000000000002,hl,keypress(j),0,false,148724.60000002384,148724.40000003576,146101.413,146300.80000001192,146118.049,148553.687,1,40,4,
sequence,flow.Sequence,6_3,2023-11-17T22:19:10.431Z,,,,,,,,,,,2606.3510000357637,completion,,,,,,,low,low,,,,,,true,,,,,false,148724.80000001192,148724.40000003576,146101.413,146300.69999998808,146118.049,148553.687,1,40,,
trial,html.Screen,6_4_0,2023-11-17T22:19:14.360Z,,,,1,0.8709576717420565,-1.2795156779072283,,,false,lh,4099.512999988074,response,-0.9013888878932071,1.2,-1.2,0.9328095253308732,1.2,-1.2,low,high,,ISIC_1925632.JPG,,ISIC_0068259.JPG,29,true,0.3600000000000002,ll,keypress(f),0,false,152653.40000003576,152653.19999998808,148520.36,148725.10000002384,148553.687,152474.29,1,40,5,
sequence,flow.Sequence,6_4,2023-11-17T22:19:14.360Z,,,,,,,,,,,4099.512999988074,completion,,,,,,,low,high,,,,,,true,,,,,false,152653.69999998808,152653.19999998808,148520.36,148725,148553.687,152474.29,1,40,,
trial,html.Screen,6_5_0,2023-11-17T22:19:17.535Z,,,,1,-0.8644465729542988,0.8679598285079457,,,false,hl,3354.1100000357546,response,1.0264463986917702,1.2,-1.2,-1.171271535505083,1.2,-1.2,high,low,,ISIC_6718969.JPG,,ISIC_7889838.JPG,26,true,0.3300000000000002,ll,keypress(f),0,false,155828.60000002384,155828.40000003576,152457.681,152653.90000003576,152474.29,155644.099,1,40,6,
sequence,flow.Sequence,6_5,2023-11-17T22:19:17.535Z,,,,,,,,,,,3354.1100000357546,completion,,,,,,,high,low,,,,,,true,,,,,false,155828.90000003576,155828.40000003576,152457.681,152653.80000001192,152474.29,155644.099,1,40,,
trial,html.Screen,6_6_0,2023-11-17T22:19:24.887Z,,,,1,-1.0143509683988825,1.0281980567462463,,,false,hl,7536.401000000013,response,1.0748728054622358,1.2,-1.2,-1.2840853987892311,1.2,-1.2,high,low,,ISIC_0062031.JPG,,ISIC_0059219.JPG,33,true,0.3600000000000002,hh,keypress(i),0,false,163180.60000002384,163180.5,155627.433,155828.90000003576,155644.099,163001.463,1,40,7,
sequence,flow.Sequence,6_6,2023-11-17T22:19:24.887Z,,,,,,,,,,,7536.401000000013,completion,,,,,,,high,low,,,,,,true,,,,,false,163180.90000003576,163180.5,155627.433,155828.90000003576,155644.099,163001.463,1,40,,
trial,html.Screen,6_7_0,2023-11-17T22:19:29.543Z,,,,1,1.296989496412063,-1.1425074323097002,,,false,lh,4834.73699998809,response,-1.1890109863264902,1.2,-1.2,0.8867825318561365,1.2,-1.2,low,high,,ISIC_6356803.JPG,,ISIC_0072576.JPG,29,true,0.3600000000000002,hl,keypress(j),0,false,167836.30000001192,167836.19999998808,162984.785,163181,163001.463,167656.146,1,40,8,
sequence,flow.Sequence,6_7,2023-11-17T22:19:29.543Z,,,,,,,,,,,4834.73699998809,completion,,,,,,,low,high,,,,,,true,,,,,false,167836.60000002384,167836.19999998808,162984.785,163180.90000003576,163001.463,167656.146,1,40,,
trial,html.Screen,6_8_0,2023-11-17T22:19:33.959Z,,,,1,-1.00615481805876,0.8428903771195875,,,false,hl,4596.454000023834,response,1.0700930503975157,1.2,-1.2,-0.923753102263735,1.2,-1.2,high,low,,ISIC_0069970.JPG,,ISIC_0000022.JPG,26,true,0.3300000000000002,ll,keypress(f),0,false,172252.69999998808,172252.60000002384,167639.574,167836.60000002384,167656.146,172078.57,1,40,9,
sequence,flow.Sequence,6_8,2023-11-17T22:19:33.959Z,,,,,,,,,,,4596.454000023834,completion,,,,,,,high,low,,,,,,true,,,,,false,172252.90000003576,172252.60000002384,167639.574,167836.60000002384,167656.146,172078.57,1,40,,
trial,html.Screen,6_9_0,2023-11-17T22:19:39.150Z,,,,1,1.089914260719518,1.1695563571046357,,,true,ll,5365.429999999993,response,-0.8962405503857854,1.2,-1.2,-1.1741471827707293,1.2,-1.2,low,low,,ISIC_0030695.JPG,,ISIC_9278685.JPG,157,true,0.3600000000000002,ll,keypress(f),0,false,177444.19999998808,177444,172043.799,172253.10000002384,172078.57,177265.724,1,40,10,
sequence,flow.Sequence,6_9,2023-11-17T22:19:39.151Z,,,,,,,,,,,5365.429999999993,completion,,,,,,,low,low,,,,,,true,,,,,false,177444.40000003576,177444,172043.799,172253.10000002384,172078.57,177265.724,1,40,,
trial,html.Screen,6_10_0,2023-11-17T22:19:44.024Z,,,,1,1.1392234684115472,1.3198277407683998,,,true,ll,5051.176000035775,response,-1.1642596483638106,1.2,-1.2,-1.091507924157762,1.2,-1.2,low,low,,ISIC_0071875.JPG,,ISIC_0765584.JPG,25,true,0.15000000000000002,ll,keypress(f),0,false,182317.30000001192,182316.90000003576,177249.125,177444.60000002384,177265.724,182137.294,1,40,11,
sequence,flow.Sequence,6_10,2023-11-17T22:19:44.024Z,,,,,,,,,,,5051.176000035775,completion,,,,,,,low,low,,,,,,true,,,,,false,182317.90000003576,182316.90000003576,177249.125,177444.5,177265.724,182137.294,1,40,,
trial,html.Screen,6_11_0,2023-11-17T22:19:47.606Z,,,,1,1.3034518282811869,1.0897657776277234,,,true,ll,3762.8060000238474,response,-1.1727618800748076,1.2,-1.2,-1.0636787813411093,1.2,-1.2,low,low,,ISIC_0071988.JPG,,ISIC_9690371.JPG,25,true,0.15000000000000002,ll,keypress(f),0,false,185900.19999998808,185900.10000002384,182120.672,182318.19999998808,182137.294,185725.586,1,40,12,
sequence,flow.Sequence,6_11,2023-11-17T22:19:47.607Z,,,,,,,,,,,3762.8060000238474,completion,,,,,,,low,low,,,,,,true,,,,,false,185900.30000001192,185900.10000002384,182120.672,182318.10000002384,182137.294,185725.586,1,40,,
trial,html.Screen,6_12_0,2023-11-17T22:19:52.335Z,,,,1,-1.1638334638021437,-1.0846635401396965,,,true,hh,4903.3140000357525,response,1.2055236989581275,1.2,-1.2,1.1960893075698802,1.2,-1.2,high,high,,ISIC_4718313.JPG,,ISIC_0072393.JPG,27,true,0.12,hh,keypress(i),0,false,190629.10000002384,190628.90000003576,185691.029,185900.40000003576,185725.586,190462.324,1,40,13,
sequence,flow.Sequence,6_12,2023-11-17T22:19:52.336Z,,,,,,,,,,,4903.3140000357525,completion,,,,,,,high,high,,,,,,true,,,,,false,190629.5,190628.90000003576,185691.029,185900.40000003576,185725.586,190462.324,1,40,,
trial,html.Screen,6_13_0,2023-11-17T22:19:56.087Z,,,,1,0.8787496315223856,-1.3680901203013998,,,true,lh,3917.9760000119277,response,-1.2838089642212804,1.2,-1.2,0.8550527900640753,1.2,-1.2,low,high,,ISIC_0023811.JPG,,ISIC_0034187.JPG,29,true,0.3600000000000002,lh,keypress(e),0,false,194380.40000003576,194380.30000001192,190428.96,190629.69999998808,190462.324,194199.573,1,40,14,
sequence,flow.Sequence,6_13,2023-11-17T22:19:56.087Z,,,,,,,,,,,3917.9760000119277,completion,,,,,,,low,high,,,,,,true,,,,,false,194380.5,194380.30000001192,190428.96,190629.60000002384,190462.324,194199.573,1,40,,
trial,html.Screen,6_14_0,2023-11-17T22:20:00.007Z,,,,1,1.2872758518949912,1.313723254903214,,,true,ll,4101.126999988075,response,-0.9191486333136276,1.2,-1.2,-1.080719641270871,1.2,-1.2,low,low,,ISIC_0064376.JPG,,ISIC_0663941.JPG,127,true,0.3300000000000002,ll,keypress(f),0,false,198300.90000003576,198300.69999998808,194182.638,194380.60000002384,194199.573,198119.929,1,40,15,
sequence,flow.Sequence,6_14,2023-11-17T22:20:00.008Z,,,,,,,,,,,4101.126999988075,completion,,,,,,,low,low,,,,,,true,,,,,false,198301.19999998808,198300.69999998808,194182.638,194380.5,194199.573,198119.929,1,40,,
trial,html.Screen,6_15_0,2023-11-17T22:20:02.559Z,,,,1,-1.064425982109969,0.958564243697126,,,true,hl,2732.2709999880753,response,1.0822170028935367,1.2,-1.2,-1.1654796154432183,1.2,-1.2,high,low,,ISIC_3203344.JPG,,ISIC_7288818.JPG,26,true,0.3300000000000002,hl,keypress(j),0,false,200852.40000003576,200852.19999998808,198103.257,198301.30000001192,198119.929,200672.58,1,40,16,
sequence,flow.Sequence,6_15,2023-11-17T22:20:02.559Z,,,,,,,,,,,2732.2709999880753,completion,,,,,,,high,low,,,,,,true,,,,,false,200852.5,200852.19999998808,198103.257,198301.30000001192,198119.929,200672.58,1,40,,
trial,html.Screen,6_16_0,2023-11-17T22:20:07.695Z,,,,1,0.9225524349657857,-0.929746784178986,,,true,lh,5316.119999988092,response,-1.00615481805876,1.2,-1.2,0.8428903771195875,1.2,-1.2,low,high,,ISIC_0011077.JPG,,ISIC_0069970.JPG,29,true,0.3600000000000002,lh,keypress(e),0,false,205988.90000003576,205988.69999998808,200656.043,200852.60000002384,200672.58,205811.004,1,40,17,
sequence,flow.Sequence,6_16,2023-11-17T22:20:07.696Z,,,,,,,,,,,5316.119999988092,completion,,,,,,,low,high,,,,,,true,,,,,false,205989.30000001192,205988.69999998808,200656.043,200852.60000002384,200672.58,205811.004,1,40,,
trial,html.Screen,6_17_0,2023-11-17T22:20:12.440Z,,,,1,-1.225025174430573,0.8422679054456499,,,false,hl,4922.296000011935,response,0.9670240379618178,1.2,-1.2,-1.1806404773220665,1.2,-1.2,high,low,,ISIC_7503950.JPG,,ISIC_0002288.JPG,26,true,0.3300000000000002,ll,keypress(f),0,false,210733.40000003576,210733.30000001192,205794.276,205989.30000001192,205811.004,210549.083,1,40,18,
sequence,flow.Sequence,6_17,2023-11-17T22:20:12.440Z,,,,,,,,,,,4922.296000011935,completion,,,,,,,high,low,,,,,,true,,,,,false,210733.60000002384,210733.30000001192,205794.276,205989.30000001192,205811.004,210549.083,1,40,,
trial,html.Screen,6_18_0,2023-11-17T22:20:20.511Z,,,,1,-1.4748095371445096,0.9579010801034902,,,true,hl,8255.717000011908,response,0.8787496315223856,1.2,-1.2,-1.3680901203013998,1.2,-1.2,high,low,,ISIC_0033216.JPG,,ISIC_0023811.JPG,33,true,0.3600000000000002,hl,keypress(j),0,false,218805.10000002384,218804.80000001192,210532.392,210733.60000002384,210549.083,218623.85,1,40,19,
sequence,flow.Sequence,6_18,2023-11-17T22:20:20.512Z,,,,,,,,,,,8255.717000011908,completion,,,,,,,high,low,,,,,,true,,,,,false,218805.30000001192,218804.80000001192,210532.392,210733.60000002384,210549.083,218623.85,1,40,,
trial,html.Screen,6_19_0,2023-11-17T22:20:23.959Z,,,,1,0.8787496315223856,-1.3680901203013998,,,true,lh,3628.450000011915,response,-0.8534691366511764,1.2,-1.2,1.276663727068437,1.2,-1.2,low,high,,ISIC_0023811.JPG,,ISIC_0056788.JPG,29,true,0.3600000000000002,lh,keypress(e),0,false,222252.5,222252.30000001192,218607.146,218805.40000003576,218623.85,222060.576,1,40,20,
sequence,flow.Sequence,6_19,2023-11-17T22:20:23.959Z,,,,,,,,,,,3628.450000011915,completion,,,,,,,low,high,,,,,,true,,,,,false,222252.60000002384,222252.30000001192,218607.146,218805.40000003576,218623.85,222060.576,1,40,,
trial,html.Screen,6_20_0,2023-11-17T22:20:28.215Z,,,,1,1.2704198237183777,-1.138121072015301,,,false,lh,4448.123999988078,response,-0.9013888878932071,1.2,-1.2,0.9328095253308732,1.2,-1.2,low,high,,ISIC_0501843.JPG,,ISIC_0068259.JPG,29,true,0.3600000000000002,ll,keypress(f),0,false,226508.90000003576,226508.69999998808,222043.992,222252.69999998808,222060.576,226331.689,1,40,21,
sequence,flow.Sequence,6_20,2023-11-17T22:20:28.216Z,,,,,,,,,,,4448.123999988078,completion,,,,,,,low,high,,,,,,true,,,,,false,226509.10000002384,226508.69999998808,222043.992,222252.69999998808,222060.576,226331.689,1,40,,
trial,html.Screen,6_21_0,2023-11-17T22:20:34.847Z,,,,1,1.1671212908494544,1.1286681796701683,,,false,ll,6808.911000023829,response,-1.299827929103008,1.2,-1.2,-0.912855253526266,1.2,-1.2,low,low,,ISIC_0065022.JPG,,ISIC_9760652.JPG,127,true,0.3300000000000002,hh,keypress(i),0,false,233140.69999998808,233140.60000002384,226314.861,226509.30000001192,226331.689,232954.861,1,40,22,
sequence,flow.Sequence,6_21,2023-11-17T22:20:34.847Z,,,,,,,,,,,6808.911000023829,completion,,,,,,,low,low,,,,,,true,,,,,false,233140.90000003576,233140.60000002384,226314.861,226509.19999998808,226331.689,232954.861,1,40,,
trial,html.Screen,6_22_0,2023-11-17T22:20:39.183Z,,,,1,-1.1638334638021437,-1.0846635401396965,,,true,hh,4521.138999999996,response,1.1671212908494544,1.2,-1.2,1.1286681796701683,1.2,-1.2,high,high,,ISIC_4718313.JPG,,ISIC_0065022.JPG,27,true,0.12,hh,keypress(i),0,false,237476.10000002384,237476,232938.258,233141,232954.861,237292.496,1,40,23,
sequence,flow.Sequence,6_22,2023-11-17T22:20:39.183Z,,,,,,,,,,,4521.138999999996,completion,,,,,,,high,high,,,,,,true,,,,,false,237476.19999998808,237476,232938.258,233140.90000003576,232954.861,237292.496,1,40,,
trial,html.Screen,6_23_0,2023-11-17T22:20:41.671Z,,,,1,0.9225524349657857,-0.929746784178986,,,true,lh,2671.804000011907,response,-1.064425982109969,1.2,-1.2,0.958564243697126,1.2,-1.2,low,high,,ISIC_0011077.JPG,,ISIC_3203344.JPG,29,true,0.3600000000000002,lh,keypress(e),0,false,239964.40000003576,239964.30000001192,237275.88,237476.30000001192,237292.496,239778.463,1,40,24,
sequence,flow.Sequence,6_23,2023-11-17T22:20:41.671Z,,,,,,,,,,,2671.804000011907,completion,,,,,,,low,high,,,,,,true,,,,,false,239964.5,239964.30000001192,237275.88,237476.30000001192,237292.496,239778.463,1,40,,
trial,html.Screen,6_24_0,2023-11-17T22:20:44.823Z,,,,1,1.250220052739973,1.2967258992731714,,,false,ll,3337.537000000011,response,-0.964746248973834,1.2,-1.2,-1.4692999715014148,1.2,-1.2,low,low,,ISIC_0031368.JPG,,ISIC_9896801.JPG,127,true,0.3300000000000002,hl,keypress(j),0,false,243116.19999998808,243116,239761.734,239964.5,239778.463,242931.47,1,40,25,
sequence,flow.Sequence,6_24,2023-11-17T22:20:44.823Z,,,,,,,,,,,3337.537000000011,completion,,,,,,,low,low,,,,,,true,,,,,false,243116.30000001192,243116,239761.734,239964.5,239778.463,242931.47,1,40,,
trial,html.Screen,6_25_0,2023-11-17T22:20:47.384Z,,,,1,1.3034518282811869,1.0897657776277234,,,false,ll,2745.529999999999,response,-1.1363600109870835,1.2,-1.2,-1.295816345369928,1.2,-1.2,low,low,,ISIC_0071988.JPG,,ISIC_0026141.JPG,25,true,0.15000000000000002,lh,keypress(e),0,false,245677.19999998808,245677,242914.768,243116.40000003576,242931.47,245517.573,1,40,26,
sequence,flow.Sequence,6_25,2023-11-17T22:20:47.384Z,,,,,,,,,,,2745.529999999999,completion,,,,,,,low,low,,,,,,true,,,,,false,245677.5,245677,242914.768,243116.30000001192,242931.47,245517.573,1,40,,
trial,html.Screen,6_26_0,2023-11-17T22:20:56.095Z,,,,1,-1.1363600109870835,-1.295816345369928,,,true,hh,8870.527000023838,response,1.1392234684115472,1.2,-1.2,1.3198277407683998,1.2,-1.2,high,high,,ISIC_0026141.JPG,,ISIC_0071875.JPG,27,true,0.12,hh,keypress(i),0,false,254388.19999998808,254388.10000002384,245500.878,245677.60000002384,245517.573,254209.448,1,40,27,
sequence,flow.Sequence,6_26,2023-11-17T22:20:56.095Z,,,,,,,,,,,8870.527000023838,completion,,,,,,,high,high,,,,,,true,,,,,false,254388.40000003576,254388.10000002384,245500.878,245677.5,245517.573,254209.448,1,40,,
trial,html.Screen,6_27_0,2023-11-17T22:21:00.335Z,,,,1,-1.0878102877901663,-1.3154097543539391,,,true,hh,4418.852000011917,response,1.1474466950560966,1.2,-1.2,1.173734476257662,1.2,-1.2,high,high,,ISIC_1413242.JPG,,ISIC_5216586.JPG,41,true,0.15000000000000002,hh,keypress(i),0,false,258628.40000003576,258628.30000001192,254192.824,254388.40000003576,254209.448,258447.003,1,40,28,
sequence,flow.Sequence,6_27,2023-11-17T22:21:00.335Z,,,,,,,,,,,4418.852000011917,completion,,,,,,,high,high,,,,,,true,,,,,false,258628.60000002384,258628.30000001192,254192.824,254388.40000003576,254209.448,258447.003,1,40,,
trial,html.Screen,6_28_0,2023-11-17T22:21:05.672Z,,,,1,-1.294521945180264,-1.3078626540563885,,,true,hh,5517.797000011924,response,1.2872758518949912,1.2,-1.2,1.313723254903214,1.2,-1.2,high,high,,ISIC_3601224.JPG,,ISIC_0064376.JPG,41,true,0.15000000000000002,hh,keypress(i),0,false,263964.90000003576,263964.8000000119,258430.359,258628.60000002384,258447.003,263785.718,1,40,29,
sequence,flow.Sequence,6_28,2023-11-17T22:21:05.672Z,,,,,,,,,,,5517.797000011924,completion,,,,,,,high,high,,,,,,true,,,,,false,263965.3000000119,263964.8000000119,258430.359,258628.60000002384,258447.003,263785.718,1,40,,
trial,html.Screen,6_29_0,2023-11-17T22:21:13.136Z,,,,1,1.1392234684115472,1.3198277407683998,,,true,ll,7643.481999988086,response,-1.1604734171556077,1.2,-1.2,-1.0789312625280616,1.2,-1.2,low,low,,ISIC_0071875.JPG,,ISIC_3950753.JPG,25,true,0.15000000000000002,ll,keypress(f),0,false,271429.40000003576,271429.1999999881,263768.899,263965.40000003576,263785.718,271259.84,1,40,30,
sequence,flow.Sequence,6_29,2023-11-17T22:21:13.136Z,,,,,,,,,,,7643.481999988086,completion,,,,,,,low,low,,,,,,true,,,,,false,271429.8000000119,271429.1999999881,263768.899,263965.3000000119,263785.718,271259.84,1,40,,
trial,html.Screen,6_30_0,2023-11-17T22:21:15.543Z,,,,1,1.1547137855907486,-1.0185275168641534,,,true,lh,2576.4600000118953,response,-0.9385447468573198,1.2,-1.2,1.2289860846064424,1.2,-1.2,low,high,,ISIC_7604870.JPG,,ISIC_0032780.JPG,29,true,0.3600000000000002,lh,keypress(e),0,false,273836.40000003576,273836.3000000119,271226.403,271429.90000003576,271259.84,273645.561,1,40,31,
sequence,flow.Sequence,6_30,2023-11-17T22:21:15.543Z,,,,,,,,,,,2576.4600000118953,completion,,,,,,,low,high,,,,,,true,,,,,false,273836.5,273836.3000000119,271226.403,271429.90000003576,271259.84,273645.561,1,40,,
trial,html.Screen,6_31_0,2023-11-17T22:21:17.888Z,,,,1,1.0961318727760048,-1.2134960228256146,,,true,lh,2535.638999988092,response,-1.2838089642212804,1.2,-1.2,0.8550527900640753,1.2,-1.2,low,high,,ISIC_9768421.JPG,,ISIC_0034187.JPG,29,true,0.3600000000000002,lh,keypress(e),0,false,276181.40000003576,276181.1999999881,273629.032,273836.60000002384,273645.561,275997.976,1,40,32,
sequence,flow.Sequence,6_31,2023-11-17T22:21:17.888Z,,,,,,,,,,,2535.638999988092,completion,,,,,,,low,high,,,,,,true,,,,,false,276181.6999999881,276181.1999999881,273629.032,273836.60000002384,273645.561,275997.976,1,40,,
trial,html.Screen,6_32_0,2023-11-17T22:21:23.623Z,,,,1,-1.1638334638021437,-1.0846635401396965,,,true,hh,5918.723999988055,response,1.1671212908494544,1.2,-1.2,1.1286681796701683,1.2,-1.2,high,high,,ISIC_4718313.JPG,,ISIC_0065022.JPG,211,true,0.3300000000000002,hh,keypress(i),0,false,281916.90000003576,281916.6999999881,275981.198,276181.90000003576,275997.976,281753.65,1,40,33,
sequence,flow.Sequence,6_32,2023-11-17T22:21:23.624Z,,,,,,,,,,,5918.723999988055,completion,,,,,,,high,high,,,,,,true,,,,,false,281917,281916.6999999881,275981.198,276181.8000000119,275997.976,281753.65,1,40,,
trial,html.Screen,6_33_0,2023-11-17T22:21:25.767Z,,,,1,-1.0003671514840182,0.8992716557663581,,,true,hl,2306.6500000118976,response,1.2704198237183777,1.2,-1.2,-1.138121072015301,1.2,-1.2,high,low,,ISIC_0061749.JPG,,ISIC_0501843.JPG,26,true,0.3300000000000002,hl,keypress(j),0,false,284060.3000000119,284060.3000000119,281720.291,281917.10000002384,281753.65,283872.467,1,40,34,
sequence,flow.Sequence,6_33,2023-11-17T22:21:25.767Z,,,,,,,,,,,2306.6500000118976,completion,,,,,,,high,low,,,,,,true,,,,,false,284060.5,284060.3000000119,281720.291,281917.10000002384,281753.65,283872.467,1,40,,
trial,html.Screen,6_34_0,2023-11-17T22:21:33.431Z,,,,1,-1.2838089642212804,0.8550527900640753,,,false,hl,7851.732999988075,response,0.8620516892494489,1.2,-1.2,-1.1108509340502866,1.2,-1.2,high,low,,ISIC_0034187.JPG,,ISIC_5557806.JPG,33,true,0.3600000000000002,hh,keypress(i),0,false,291724.3000000119,291724.1999999881,283856.028,284060.5,283872.467,291546.809,1,40,35,
sequence,flow.Sequence,6_34,2023-11-17T22:21:33.431Z,,,,,,,,,,,7851.732999988075,completion,,,,,,,high,low,,,,,,true,,,,,false,291724.5,291724.1999999881,283856.028,284060.5,283872.467,291546.809,1,40,,
trial,html.Screen,6_35_0,2023-11-17T22:21:40.008Z,,,,1,-1.3559315773956395,0.924768326187701,,,true,hl,6754.091000035754,response,1.0961318727760048,1.2,-1.2,-1.2134960228256146,1.2,-1.2,high,low,,ISIC_5101111.JPG,,ISIC_9768421.JPG,33,true,0.3600000000000002,hl,keypress(j),0,false,298301.10000002384,298300.90000003576,291530.078,291724.5,291546.809,298120.125,1,40,36,
sequence,flow.Sequence,6_35,2023-11-17T22:21:40.008Z,,,,,,,,,,,6754.091000035754,completion,,,,,,,high,low,,,,,,true,,,,,false,298301.3000000119,298300.90000003576,291530.078,291724.5,291546.809,298120.125,1,40,,
trial,html.Screen,6_36_0,2023-11-17T22:21:44.400Z,,,,1,-1.1642596483638106,-1.091507924157762,,,true,hh,4572.975000023842,response,1.0857873435995111,1.2,-1.2,0.8502716010726371,1.2,-1.2,high,high,,ISIC_0765584.JPG,,ISIC_2784664.JPG,249,true,0.3600000000000002,hh,keypress(i),0,false,302693.5,302693.10000002384,298103.481,298301.40000003576,298120.125,302541.16,1,40,37,
sequence,flow.Sequence,6_36,2023-11-17T22:21:44.401Z,,,,,,,,,,,4572.975000023842,completion,,,,,,,high,high,,,,,,true,,,,,false,302694.10000002384,302693.10000002384,298103.481,298301.3000000119,298120.125,302541.16,1,40,,
trial,html.Screen,6_37_0,2023-11-17T22:21:50.496Z,,,,1,-0.8779374983479176,0.9745548032823428,,,true,hl,6247.6400000119465,response,0.9670240379618178,1.2,-1.2,-1.1806404773220665,1.2,-1.2,high,low,,ISIC_2991354.JPG,,ISIC_0002288.JPG,26,true,0.3300000000000002,hl,keypress(j),0,false,308788.90000003576,308788.8000000119,302491.222,302694.5,302541.16,308597.262,1,40,38,
sequence,flow.Sequence,6_37,2023-11-17T22:21:50.496Z,,,,,,,,,,,6247.6400000119465,completion,,,,,,,high,low,,,,,,true,,,,,false,308789.3000000119,308788.8000000119,302491.222,302694.40000003576,302541.16,308597.262,1,40,,
trial,html.Screen,6_38_0,2023-11-17T22:21:56.287Z,,,,1,-1.1727618800748076,-1.0636787813411093,,,true,hh,5982.838000023854,response,1.2903533676556675,1.2,-1.2,1.003114283100952,1.2,-1.2,high,high,,ISIC_9690371.JPG,,ISIC_0046394.JPG,249,true,0.3600000000000002,hh,keypress(i),0,false,314580.10000002384,314580.10000002384,308580.558,308789.40000003576,308597.262,314403.015,1,40,39,
sequence,flow.Sequence,6_38,2023-11-17T22:21:56.287Z,,,,,,,,,,,5982.838000023854,completion,,,,,,,high,high,,,,,,true,,,,,false,314580.3000000119,314580.10000002384,308580.558,308789.3000000119,308597.262,314403.015,1,40,,
trial,html.Screen,6_39_0,2023-11-17T22:22:02.760Z,,,,1,1.1547137855907486,-1.0185275168641534,,,false,lh,6649.585000023828,response,-1.3559315773956395,1.2,-1.2,0.924768326187701,1.2,-1.2,low,high,,ISIC_7604870.JPG,,ISIC_5101111.JPG,29,true,0.3600000000000002,hh,keypress(i),0,false,321052.6999999881,321052.60000002384,314386.459,314580.3000000119,314403.015,320892.977,1,40,40,
sequence,flow.Sequence,6_39,2023-11-17T22:22:02.760Z,,,,,,,,,,,6649.585000023828,completion,,,,,,,low,high,,,,,,true,,,,,false,321052.90000003576,321052.60000002384,314386.459,314580.3000000119,314403.015,320892.977,1,40,,
practice_loop,flow.Loop,6,2023-11-17T22:22:02.760Z,,,,,,,,,,,191000.76100002383,completion,,,,,,,,,,,,,,true,,,,,false,321053,321052.60000002384,130035.394,130243.80000001192,130051.839,320892.977,1,40,,
stair_instructions,html.Screen,7,2023-11-17T22:22:06.935Z,,,,,,,,,,,4334.823000011907,response,,,,,,,,,,,,,,,,continue,click button,,,325228.3000000119,325227.8000000119,320876.143,321053,320892.977,325047.265,,,,
trial,html.Screen,8_0_0,2023-11-17T22:22:11.152Z,,,,2,0.0060934073440827,0.0279108145883031,,0.04,false,ll,4397.535000011907,response,-0.8966918590347848,1.2,-1.2,-1.078424090533439,1.2,-1.2,low,low,,ISIC_0032604.JPG,,ISIC_0034193.JPG,127,false,0.3300000000000002,lh,keypress(e),0,true,329444.90000003576,329444.8000000119,325030.444,325228.40000003576,325047.265,329284.798,1,40,1,
sequence,flow.Sequence,8_0,2023-11-17T22:22:11.152Z,,,,,,,,,,,4397.535000011907,completion,,,,,,,low,low,,,,,,false,,,,,true,329445,329444.8000000119,325030.444,325228.40000003576,325047.265,329284.798,1,40,,
trial,html.Screen,8_1_0,2023-11-17T22:22:13.791Z,,,,2,-0.0365981355399771,-0.0162670920008846,,0.04,false,hh,2799.602000035753,response,1.1715181192107684,1.15,-1.15,1.2251845559044463,1.15,-1.2,high,high,,ISIC_0982855.JPG,,ISIC_0011957.JPG,25,false,0.11,lh,keypress(e),0,true,332084.5,332084.40000003576,329269.329,329445.10000002384,329284.798,331903.862,1,40,2,
sequence,flow.Sequence,8_1,2023-11-17T22:22:13.791Z,,,,,,,,,,,2799.602000035753,completion,,,,,,,high,high,,,,,,false,,,,,true,332084.60000002384,332084.40000003576,329269.329,329445.10000002384,329284.798,331903.862,1,40,,
trial,html.Screen,8_2_0,2023-11-17T22:22:18.895Z,,,,2,-0.0189295602385628,-0.0128812415435153,,0.04,false,hl,5284.438000011898,response,1.0264463986917702,1.15,-1.15,-1.171271535505083,1.15,-1.15,high,low,,ISIC_0010372.JPG,,ISIC_7889838.JPG,25,false,0.28000000000000014,hh,keypress(i),0,true,337188.5,337188.3000000119,331887.308,332084.60000002384,331903.862,337009.03,1,40,3,
sequence,flow.Sequence,8_2,2023-11-17T22:22:18.895Z,,,,,,,,,,,5284.438000011898,completion,,,,,,,high,low,,,,,,false,,,,,true,337188.60000002384,337188.3000000119,331887.308,332084.60000002384,331903.862,337009.03,1,40,,
trial,html.Screen,8_3_0,2023-11-17T22:22:21.048Z,,,,2,0.0118555311043871,0.0087774532070196,,0.04,false,hh,2331.770000011893,response,1.1126049058422398,1.15,-1.15,1.2305421124063929,1.15,-1.15,high,high,,ISIC_6488658.JPG,,ISIC_0071536.JPG,25,false,0.11,hl,keypress(j),0,true,339341,339340.8000000119,336992.403,337188.8000000119,337009.03,339161.175,1,40,4,
sequence,flow.Sequence,8_3,2023-11-17T22:22:21.048Z,,,,,,,,,,,2331.770000011893,completion,,,,,,,high,high,,,,,,false,,,,,true,339341.3000000119,339340.8000000119,336992.403,337188.8000000119,337009.03,339161.175,1,40,,
trial,html.Screen,8_4_0,2023-11-17T22:22:25.744Z,,,,2,-0.0321039635696159,-0.020496766286318,,0.04,false,hl,4875.725000035774,response,0.8092423703106274,1.0195256522670049,-1.15,-1.3339880978442629,1.15,-1.15,high,low,,ISIC_0058063.JPG,,ISIC_8592235.JPG,25,false,0.2300000000000001,lh,keypress(e),0,true,344037.10000002384,344036.90000003576,339144.548,339341.5,339161.175,343849.17,1,40,5,
sequence,flow.Sequence,8_4,2023-11-17T22:22:25.744Z,,,,,,,,,,,4875.725000035774,completion,,,,,,,high,low,,,,,,false,,,,,true,344037.3000000119,344036.90000003576,339144.548,339341.40000003576,339161.175,343849.17,1,40,,
trial,html.Screen,8_5_0,2023-11-17T22:22:28.704Z,,,,2,-0.0051046740562181,0.0178832721027728,,0.04,false,ll,3147.930000023858,response,-1.2254777618346506,1.069525652267005,-1.15,-1.0356416330964822,1.15,-1.15,low,low,,ISIC_9545819.JPG,,ISIC_1054090.JPG,26,false,0.14,hl,keypress(j),0,true,346997.3000000119,346997.10000002384,343832.61,344037.40000003576,343849.17,346818.777,1,40,6,
sequence,flow.Sequence,8_5,2023-11-17T22:22:28.704Z,,,,,,,,,,,3147.930000023858,completion,,,,,,,low,low,,,,,,false,,,,,true,346997.5,346997.10000002384,343832.61,344037.40000003576,343849.17,346818.777,1,40,,
trial,html.Screen,8_6_0,2023-11-17T22:22:35.335Z,,,,2,0.00126575685933,0.0325046559638838,,0.04,false,hl,6809.623000035761,response,0.8620516892494489,1.069525652267005,-1.15,-1.1108509340502866,1.15,-1.15,high,low,,ISIC_5682259.JPG,,ISIC_5557806.JPG,25,false,0.2300000000000001,hh,keypress(i),0,true,353628.5,353628.40000003576,346802.201,346997.5,346818.777,353442.166,1,40,7,
sequence,flow.Sequence,8_6,2023-11-17T22:22:35.335Z,,,,,,,,,,,6809.623000035761,completion,,,,,,,high,low,,,,,,false,,,,,true,353628.5,353628.40000003576,346802.201,346997.5,346818.777,353442.166,1,40,,
trial,html.Screen,8_7_0,2023-11-17T22:22:39.128Z,,,,2,-0.0361875505619981,0.0291457404567876,,0.04,true,hh,3978.7340000357362,response,1.1474466950560966,1.069525652267005,-1.15,1.173734476257662,1.15,-1.15,high,high,,ISIC_0027480.JPG,,ISIC_5216586.JPG,25,false,0.1,hh,keypress(i),0,true,357421.10000002384,357420.90000003576,353425.292,353628.6999999881,353442.166,357229.252,1,40,8,
sequence,flow.Sequence,8_7,2023-11-17T22:22:39.128Z,,,,,,,,,,,3978.7340000357362,completion,,,,,,,high,high,,,,,,false,,,,,true,357421.3000000119,357420.90000003576,353425.292,353628.6999999881,353442.166,357229.252,1,40,,
trial,html.Screen,8_8_0,2023-11-17T22:22:41.135Z,,,,2,-0.0199897690678184,-0.0312486875504497,,0.04,true,hl,2199.0480000119423,response,1.296989496412063,1.1105905856568794,-1.15,-1.1425074323097002,1.15,-1.15,high,low,,ISIC_5482426.JPG,,ISIC_6356803.JPG,25,false,0.2500000000000001,hl,keypress(j),0,true,359428.40000003576,359428.3000000119,357212.619,357421.40000003576,357229.252,359247.931,1,40,9,
sequence,flow.Sequence,8_8,2023-11-17T22:22:41.135Z,,,,,,,,,,,2199.0480000119423,completion,,,,,,,high,low,,,,,,false,,,,,true,359428.60000002384,359428.3000000119,357212.619,357421.40000003576,357229.252,359247.931,1,40,,
trial,html.Screen,8_9_0,2023-11-17T22:22:45.168Z,,,,2,-0.0361875505619981,0.0291457404567876,,0.04,true,lh,4212.869000011939,response,-1.11329866545753,1.1105905856568794,-1.15,1.2155631217348757,1.15,-1.15,low,high,,ISIC_0027480.JPG,,ISIC_0032610.JPG,27,false,0.31000000000000016,lh,keypress(e),0,true,363461,363460.8000000119,359231.382,359428.60000002384,359247.931,363286.195,1,40,10,
sequence,flow.Sequence,8_9,2023-11-17T22:22:45.168Z,,,,,,,,,,,4212.869000011939,completion,,,,,,,low,high,,,,,,false,,,,,true,363461.1999999881,363460.8000000119,359231.382,359428.60000002384,359247.931,363286.195,1,40,,
trial,html.Screen,8_10_0,2023-11-17T22:22:48.367Z,,,,2,0.0050679133050021,0.0174815595031679,,0.04,false,lh,3374.205000035756,response,-1.2018448523268856,1.1105905856568794,-1.15,0.8157731190790072,1.0999999999999999,-1.15,low,high,,ISIC_9848743.JPG,,ISIC_7662993.JPG,26,false,0.29000000000000015,hh,keypress(i),0,true,366660.60000002384,366660.40000003576,363252.108,363461.3000000119,363286.195,366471.819,1,40,11,
sequence,flow.Sequence,8_10,2023-11-17T22:22:48.368Z,,,,,,,,,,,3374.205000035756,completion,,,,,,,low,high,,,,,,false,,,,,true,366660.8000000119,366660.40000003576,363252.108,363461.3000000119,363286.195,366471.819,1,40,,
trial,html.Screen,8_11_0,2023-11-17T22:22:50.344Z,,,,2,0.0166849894750452,-0.0371614812368835,,0.04,true,hl,2165.1809999999823,response,0.9046170303418553,1.1105905856568794,-1.15,-1.0063426986460375,1.0999999999999999,-1.15,high,low,,ISIC_6231450.JPG,,ISIC_0055759.JPG,25,false,0.2500000000000001,hl,keypress(j),0,true,368637.10000002384,368637,366455.209,366660.8000000119,366471.819,368457.177,1,40,12,
sequence,flow.Sequence,8_11,2023-11-17T22:22:50.344Z,,,,,,,,,,,2165.1809999999823,completion,,,,,,,high,low,,,,,,false,,,,,true,368637.3000000119,368637,366455.209,366660.8000000119,366471.819,368457.177,1,40,,
trial,html.Screen,8_12_0,2023-11-17T22:22:55.080Z,,,,2,-0.0321039635696159,-0.020496766286318,,0.04,true,hh,4915.923000023817,response,0.968832577506943,1.0605905856568794,-1.15,1.068698723750748,1.0999999999999999,-1.0999999999999999,high,high,,ISIC_0058063.JPG,,ISIC_0010962.JPG,29,false,0.1,hh,keypress(i),0,true,373373.1999999881,373373.10000002384,368440.537,368637.40000003576,368457.177,373195.301,1,40,13,
sequence,flow.Sequence,8_12,2023-11-17T22:22:55.080Z,,,,,,,,,,,4915.923000023817,completion,,,,,,,high,high,,,,,,false,,,,,true,373373.40000003576,373373.10000002384,368440.537,368637.3000000119,368457.177,373195.301,1,40,,
trial,html.Screen,8_13_0,2023-11-17T22:22:57.992Z,,,,2,0.0399381815506136,0.0177751789152893,,0.04,false,hh,3089.1990000000224,response,0.968832577506943,1.0605905856568794,-1.15,1.068698723750748,0.9687656506288453,-1.0999999999999999,high,high,,ISIC_3981425.JPG,,ISIC_0010962.JPG,42,false,0.1,lh,keypress(e),0,true,376284.6999999881,376284.5,373178.433,373373.5,373195.301,376098.113,1,40,14,
sequence,flow.Sequence,8_13,2023-11-17T22:22:57.992Z,,,,,,,,,,,3089.1990000000224,completion,,,,,,,high,high,,,,,,false,,,,,true,376284.8000000119,376284.5,373178.433,373373.5,373195.301,376098.113,1,40,,
trial,html.Screen,8_14_0,2023-11-17T22:23:00.288Z,,,,2,0.0057914759495055,-0.018500200317654,,0.04,true,lh,2482.2870000357507,response,-1.3559315773956395,1.1105905856568794,-1.15,0.924768326187701,0.9687656506288453,-1.0999999999999999,low,high,,ISIC_0058723.JPG,,ISIC_5101111.JPG,30,false,0.2500000000000001,lh,keypress(e),0,true,378580.5,378580.40000003576,376081.615,376285,376098.113,378400.583,1,40,15,
sequence,flow.Sequence,8_14,2023-11-17T22:23:00.288Z,,,,,,,,,,,2482.2870000357507,completion,,,,,,,low,high,,,,,,false,,,,,true,378580.6999999881,378580.40000003576,376081.615,376284.90000003576,376098.113,378400.583,1,40,,
trial,html.Screen,8_15_0,2023-11-17T22:23:02.047Z,,,,2,0.012020985739544,-0.0126097407389903,,0.04,false,ll,1939.616999988095,response,-1.2555541172897566,1.1105905856568794,-1.15,-1.0235056423601527,0.9187656506288453,-1.0999999999999999,low,low,,ISIC_0069379.JPG,,ISIC_1578399.JPG,26,false,0.13,lh,keypress(e),0,true,380340.3000000119,380340.1999999881,378383.814,378580.6999999881,378400.583,380152.176,1,40,16,
sequence,flow.Sequence,8_15,2023-11-17T22:23:02.047Z,,,,,,,,,,,1939.616999988095,completion,,,,,,,low,low,,,,,,false,,,,,true,380340.40000003576,380340.1999999881,378383.814,378580.6999999881,378400.583,380152.176,1,40,,
trial,html.Screen,8_16_0,2023-11-17T22:23:03.856Z,,,,2,-0.0199897690678184,-0.0312486875504497,,0.04,true,hl,1996.7240000357851,response,1.0961318727760048,1.1105905856568794,-1.205742847342698,-1.2134960228256146,0.9187656506288453,-1.15,high,low,,ISIC_5482426.JPG,,ISIC_9768421.JPG,25,false,0.2500000000000001,hl,keypress(j),0,true,382149,382148.90000003576,380135.539,380340.5,380152.176,381970.691,1,40,17,
sequence,flow.Sequence,8_16,2023-11-17T22:23:03.856Z,,,,,,,,,,,1996.7240000357851,completion,,,,,,,high,low,,,,,,false,,,,,true,382149.40000003576,382148.90000003576,380135.539,380340.40000003576,380152.176,381970.691,1,40,,
trial,html.Screen,8_17_0,2023-11-17T22:23:08.841Z,,,,2,0.0060918352854008,-0.029032683404407,,0.04,false,ll,5162.709000035771,response,-1.1217390688497193,1.1105905856568794,-1.155742847342698,-1.2276600934505035,0.9187656506288453,-1.15,low,low,,ISIC_8436194.JPG,,ISIC_0026344.JPG,25,false,0.14,hl,keypress(j),0,true,387133.6999999881,387133.40000003576,381954.033,382149.5,381970.691,386942.384,1,40,18,
sequence,flow.Sequence,8_17,2023-11-17T22:23:08.841Z,,,,,,,,,,,5162.709000035771,completion,,,,,,,low,low,,,,,,false,,,,,true,387134.10000002384,387133.40000003576,381954.033,382149.40000003576,381970.691,386942.384,1,40,,
trial,html.Screen,8_18_0,2023-11-17T22:23:11.184Z,,,,2,0.0050679133050021,0.0174815595031679,,0.04,false,ll,2534.61599999998,response,-1.1802887330422154,1.1105905856568794,-1.155742847342698,-1.0224375154810723,0.9187656506288453,-1.170578058138059,low,low,,ISIC_9848743.JPG,,ISIC_9225640.JPG,35,false,0.15000000000000002,hl,keypress(j),0,true,389477.10000002384,389477,386925.593,387134.1999999881,386942.384,389294.683,1,40,19,
sequence,flow.Sequence,8_18,2023-11-17T22:23:11.184Z,,,,,,,,,,,2534.61599999998,completion,,,,,,,low,low,,,,,,false,,,,,true,389477.40000003576,389477,386925.593,387134.1999999881,386942.384,389294.683,1,40,,
trial,html.Screen,8_19_0,2023-11-17T22:23:12.800Z,,,,2,0.012020985739544,-0.0126097407389903,,0.04,false,ll,1797.9170000238228,response,-1.1655508270784471,1.1105905856568794,-1.155742847342698,-1.1162776063248168,0.9187656506288453,-1.170578058138059,low,low,,ISIC_0069379.JPG,,ISIC_5509946.JPG,35,false,0.15000000000000002,hl,keypress(j),0,true,391092.6999999881,391092.60000002384,389278.082,389477.5,389294.683,390913.111,1,40,20,
sequence,flow.Sequence,8_19,2023-11-17T22:23:12.800Z,,,,,,,,,,,1797.9170000238228,completion,,,,,,,low,low,,,,,,false,,,,,true,391092.90000003576,391092.60000002384,389278.082,389477.5,389294.683,390913.111,1,40,,
trial,html.Screen,8_20_0,2023-11-17T22:23:17.032Z,,,,2,0.0158987717472563,0.0292472192292015,,0.04,false,lh,4411.588999988104,response,-1.0003671514840182,1.1105905856568794,-1.155742847342698,0.8992716557663581,0.9187656506288453,-1.0193575609029446,low,high,,ISIC_1366765.JPG,,ISIC_0061749.JPG,25,false,0.22000000000000008,hl,keypress(j),0,true,395324.90000003576,395324.6999999881,390896.217,391093.10000002384,390913.111,395133.809,1,40,21,
sequence,flow.Sequence,8_20,2023-11-17T22:23:17.032Z,,,,,,,,,,,4411.588999988104,completion,,,,,,,low,high,,,,,,false,,,,,true,395325.10000002384,395324.6999999881,390896.217,391093,390913.111,395133.809,1,40,,
trial,html.Screen,8_21_0,2023-11-17T22:23:19.009Z,,,,2,-0.0367218428225813,0.0026956749740767,,0.04,true,hl,2167.5910000357544,response,0.9212323139676136,1.1105905856568794,-1.155742847342698,-0.9882196642247332,0.9687656506288453,-1.0193575609029446,high,low,,ISIC_7212271.JPG,,ISIC_0014255.JPG,25,false,0.2400000000000001,hl,keypress(j),0,true,397301.60000002384,397301.40000003576,395117.102,395325.3000000119,395133.809,397119.21,1,40,22,
sequence,flow.Sequence,8_21,2023-11-17T22:23:19.009Z,,,,,,,,,,,2167.5910000357544,completion,,,,,,,high,low,,,,,,false,,,,,true,397302,397301.40000003576,395117.102,395325.1999999881,395133.809,397119.21,1,40,,
trial,html.Screen,8_22_0,2023-11-17T22:23:22.129Z,,,,2,0.012810673904807,-0.00400964452501,,0.04,false,hh,3302.0900000119,response,0.968832577506943,1.0605905856568794,-1.155742847342698,1.068698723750748,0.9687656506288453,-1.0193575609029446,high,high,,ISIC_0064656.JPG,,ISIC_0010962.JPG,42,false,0.1,lh,keypress(e),0,true,400421.60000002384,400421.3000000119,397102.473,397302.1999999881,397119.21,400238.924,1,40,23,
sequence,flow.Sequence,8_22,2023-11-17T22:23:22.129Z,,,,,,,,,,,3302.0900000119,completion,,,,,,,high,high,,,,,,false,,,,,true,400421.90000003576,400421.3000000119,397102.473,397302.10000002384,397119.21,400238.924,1,40,,
trial,html.Screen,8_23_0,2023-11-17T22:23:27.360Z,,,,2,0.0118555311043871,0.0087774532070196,,0.04,false,ll,5414.176000023843,response,-1.0831477774866454,1.1105905856568794,-1.155742847342698,-1.0347343776726454,0.9687656506288453,-1.0193575609029446,low,low,,ISIC_6488658.JPG,,ISIC_9475559.JPG,26,false,0.11,hl,keypress(j),0,true,405653.1999999881,405653.10000002384,400222.326,400422.10000002384,400238.924,405478.644,1,40,24,
sequence,flow.Sequence,8_23,2023-11-17T22:23:27.361Z,,,,,,,,,,,5414.176000023843,completion,,,,,,,low,low,,,,,,false,,,,,true,405653.5,405653.10000002384,400222.326,400422.10000002384,400238.924,405478.644,1,40,,
trial,html.Screen,8_24_0,2023-11-17T22:23:31.728Z,,,,2,0.012020985739544,-0.0126097407389903,,0.04,true,lh,4542.055999988108,response,-1.3515962101204746,1.1105905856568794,-1.155742847342698,0.8414583575292955,0.9687656506288453,-0.9693575609029446,low,high,,ISIC_0069379.JPG,,ISIC_0274382.JPG,28,false,0.2500000000000001,lh,keypress(e),0,true,410020.8000000119,410020.6999999881,405444.194,405653.60000002384,405478.644,409831.848,1,40,25,
sequence,flow.Sequence,8_24,2023-11-17T22:23:31.728Z,,,,,,,,,,,4542.055999988108,completion,,,,,,,low,high,,,,,,false,,,,,true,410020.90000003576,410020.6999999881,405444.194,405653.60000002384,405478.644,409831.848,1,40,,
trial,html.Screen,8_25_0,2023-11-17T22:23:34.848Z,,,,2,-0.0367218428225813,0.0026956749740767,,0.04,true,hh,3308.952000011923,response,1.023702319483283,1.1105905856568794,-1.155742847342698,0.8767219558395388,0.9187656506288453,-0.9693575609029446,high,high,,ISIC_7212271.JPG,,ISIC_0064986.JPG,40,false,0.1,hh,keypress(i),0,true,413140.90000003576,413140.8000000119,409815.152,410020.90000003576,409831.848,412951.675,1,40,26,
sequence,flow.Sequence,8_25,2023-11-17T22:23:34.848Z,,,,,,,,,,,3308.952000011923,completion,,,,,,,high,high,,,,,,false,,,,,true,413141.1999999881,413140.8000000119,409815.152,410020.90000003576,409831.848,412951.675,1,40,,
trial,html.Screen,8_26_0,2023-11-17T22:23:36.800Z,,,,2,-0.0063515208248796,-0.0194177605767913,,0.04,true,hl,2141.1250000119326,response,1.155796217969438,1.1105905856568794,-1.155742847342698,-1.1646564121743912,0.9187656506288453,-0.9693575609029446,high,low,,ISIC_5281908.JPG,,ISIC_2685523.JPG,25,false,0.21000000000000008,hl,keypress(j),0,true,415092.90000003576,415092.8000000119,412935.148,413141.3000000119,412951.675,414903.632,1,40,27,
sequence,flow.Sequence,8_26,2023-11-17T22:23:36.800Z,,,,,,,,,,,2141.1250000119326,completion,,,,,,,high,low,,,,,,false,,,,,true,415093.1999999881,415092.8000000119,412935.148,413141.3000000119,412951.675,414903.632,1,40,,
trial,html.Screen,8_27_0,2023-11-17T22:23:39.192Z,,,,2,0.0060934073440827,0.0279108145883031,,0.04,false,ll,2581.4680000238586,response,-1.2254777618346506,1.0605905856568794,-1.155742847342698,-1.0356416330964822,0.9187656506288453,-0.9693575609029446,low,low,,ISIC_0032604.JPG,,ISIC_1054090.JPG,29,false,0.11,hh,keypress(i),0,true,417485.1999999881,417485.10000002384,414887.033,415093.1999999881,414903.632,417306.098,1,40,28,
sequence,flow.Sequence,8_27,2023-11-17T22:23:39.193Z,,,,,,,,,,,2581.4680000238586,completion,,,,,,,low,low,,,,,,false,,,,,true,417485.5,417485.10000002384,414887.033,415093.1999999881,414903.632,417306.098,1,40,,
trial,html.Screen,8_28_0,2023-11-17T22:23:43.816Z,,,,2,-0.0327772618698018,0.0056908372048728,,0.04,false,hh,4803.101999988081,response,0.9654682925870932,1.0605905856568794,-1.155742847342698,0.82001873969981,0.9187656506288453,-1.0193575609029446,high,high,,ISIC_7897925.JPG,,ISIC_5737704.JPG,45,false,0.1,ll,keypress(f),0,true,422109.40000003576,422109.1999999881,417289.365,417485.6999999881,417306.098,421927.344,1,40,29,
sequence,flow.Sequence,8_28,2023-11-17T22:23:43.817Z,,,,,,,,,,,4803.101999988081,completion,,,,,,,high,high,,,,,,false,,,,,true,422109.8000000119,422109.1999999881,417289.365,417485.6999999881,417306.098,421927.344,1,40,,
trial,html.Screen,8_29_0,2023-11-17T22:23:46.912Z,,,,2,0.0118555311043871,0.0087774532070196,,0.04,true,lh,3277.1560000000172,response,-1.3411487193830047,1.1105905856568794,-1.155742847342698,1.198640448317381,0.9687656506288453,-1.0193575609029446,low,high,,ISIC_6488658.JPG,,ISIC_3093026.JPG,28,false,0.2500000000000001,lh,keypress(e),0,true,425204.5,425204.5,421910.688,422110,421927.344,425013.747,1,40,30,
sequence,flow.Sequence,8_29,2023-11-17T22:23:46.912Z,,,,,,,,,,,3277.1560000000172,completion,,,,,,,low,high,,,,,,false,,,,,true,425204.6999999881,425204.5,421910.688,422109.90000003576,421927.344,425013.747,1,40,,
trial,html.Screen,8_30_0,2023-11-17T22:23:51.760Z,,,,2,0.012020985739544,-0.0126097407389903,,0.04,false,lh,5039.253000000026,response,-0.9464722688210522,1.1105905856568794,-1.155742847342698,0.7779875773283346,0.9687656506288453,-1.0193575609029446,low,high,,ISIC_0069379.JPG,,ISIC_5926550.JPG,28,false,0.2500000000000001,ll,keypress(f),0,true,430053.10000002384,430053,424997.216,425204.90000003576,425013.747,429868.657,1,40,31,
sequence,flow.Sequence,8_30,2023-11-17T22:23:51.760Z,,,,,,,,,,,5039.253000000026,completion,,,,,,,low,high,,,,,,false,,,,,true,430053.40000003576,430053,424997.216,425204.8000000119,425013.747,429868.657,1,40,,
trial,html.Screen,8_31_0,2023-11-17T22:23:54.561Z,,,,2,0.012020985739544,-0.0126097407389903,,0.04,true,hh,2984.5429999880726,response,1.094624209823328,1.1105905856568794,-1.105742847342698,1.0544499428769605,1.0187656506288454,-1.0193575609029446,high,high,,ISIC_0069379.JPG,,ISIC_0055526.JPG,29,false,0.1,hh,keypress(i),0,true,432853.40000003576,432853.1999999881,429852.077,430053.5,429868.657,432671.569,1,40,32,
sequence,flow.Sequence,8_31,2023-11-17T22:23:54.561Z,,,,,,,,,,,2984.5429999880726,completion,,,,,,,high,high,,,,,,false,,,,,true,432853.6999999881,432853.1999999881,429852.077,430053.5,429868.657,432671.569,1,40,,
trial,html.Screen,8_32_0,2023-11-17T22:23:57.161Z,,,,2,0.00126575685933,0.0325046559638838,,0.04,false,ll,2781.6309999880614,response,-1.1513073368404492,1.1105905856568794,-1.105742847342698,-1.0485268550965705,1.0187656506288454,-1.0193575609029446,low,low,,ISIC_5682259.JPG,,ISIC_0030666.JPG,29,false,0.11,lh,keypress(e),0,true,435453.40000003576,435453.1999999881,432654.848,432853.90000003576,432671.569,435274.017,1,40,33,
sequence,flow.Sequence,8_32,2023-11-17T22:23:57.161Z,,,,,,,,,,,2781.6309999880614,completion,,,,,,,low,low,,,,,,false,,,,,true,435453.90000003576,435453.1999999881,432654.848,432853.8000000119,432671.569,435274.017,1,40,,
trial,html.Screen,8_33_0,2023-11-17T22:24:00.472Z,,,,2,0.0060918352854008,-0.029032683404407,,0.04,false,hl,3490.8830000357702,response,0.8709576717420565,1.1105905856568794,-1.105742847342698,-1.2795156779072283,1.0187656506288454,-1.0693575609029446,high,low,,ISIC_8436194.JPG,,ISIC_1925632.JPG,25,false,0.2500000000000001,hh,keypress(i),0,true,438765,438764.90000003576,435257.404,435454,435274.017,438577.339,1,40,34,
sequence,flow.Sequence,8_33,2023-11-17T22:24:00.472Z,,,,,,,,,,,3490.8830000357702,completion,,,,,,,high,low,,,,,,false,,,,,true,438765.1999999881,438764.90000003576,435257.404,435454,435274.017,438577.339,1,40,,
trial,html.Screen,8_34_0,2023-11-17T22:24:05.505Z,,,,2,0.0158987717472563,0.0292472192292015,,0.04,true,lh,5220.161000000022,response,-1.1235224875125256,1.0605905856568794,-1.105742847342698,0.8641223012137988,1.0187656506288454,-1.1193575609029447,low,high,,ISIC_1366765.JPG,,ISIC_0033901.JPG,27,false,0.2500000000000001,lh,keypress(e),0,true,443797.6999999881,443797.5,438560.611,438765.3000000119,438577.339,443615.687,1,40,35,
sequence,flow.Sequence,8_34,2023-11-17T22:24:05.505Z,,,,,,,,,,,5220.161000000022,completion,,,,,,,low,high,,,,,,false,,,,,true,443798,443797.5,438560.611,438765.1999999881,438577.339,443615.687,1,40,,
trial,html.Screen,8_35_0,2023-11-17T22:24:07.344Z,,,,2,-0.0365981355399771,-0.0162670920008846,,0.04,true,lh,2020.9130000238656,response,-1.1162273456306029,1.0605905856568794,-1.055742847342698,0.7890271955816722,0.9687656506288453,-1.1193575609029447,low,high,,ISIC_0982855.JPG,,ISIC_0011564.JPG,27,false,0.2300000000000001,lh,keypress(e),0,true,445636.6999999881,445636.60000002384,443598.968,443798.1999999881,443615.687,445450.871,1,40,36,
sequence,flow.Sequence,8_35,2023-11-17T22:24:07.344Z,,,,,,,,,,,2020.9130000238656,completion,,,,,,,low,high,,,,,,false,,,,,true,445636.90000003576,445636.60000002384,443598.968,443798.10000002384,443615.687,445450.871,1,40,,
trial,html.Screen,8_36_0,2023-11-17T22:24:11.416Z,,,,2,0.012810673904807,-0.00400964452501,,0.04,false,lh,4257.529000035778,response,-0.849847885203758,1.0605905856568794,-1.055742847342698,0.973447384095442,0.9687656506288453,-1.1193575609029447,low,high,,ISIC_0064656.JPG,,ISIC_9612228.JPG,27,false,0.2300000000000001,ll,keypress(f),0,true,449708.5,449708.40000003576,445434.26,445636.90000003576,445450.871,449521.67,1,40,37,
sequence,flow.Sequence,8_36,2023-11-17T22:24:11.416Z,,,,,,,,,,,4257.529000035778,completion,,,,,,,low,high,,,,,,false,,,,,true,449708.6999999881,449708.40000003576,445434.26,445636.90000003576,445450.871,449521.67,1,40,,
trial,html.Screen,8_37_0,2023-11-17T22:24:14.473Z,,,,2,0.00126575685933,0.0325046559638838,,0.04,true,hh,3243.630000011937,response,0.9858885614273278,1.0605905856568794,-1.005742847342698,1.050716657084935,1.0187656506288454,-1.1193575609029447,high,high,,ISIC_5682259.JPG,,ISIC_0055498.JPG,36,false,0.1,hh,keypress(i),0,true,452765.6999999881,452765.3000000119,449505.103,449708.6999999881,449521.67,452574.761,1,40,38,
sequence,flow.Sequence,8_37,2023-11-17T22:24:14.473Z,,,,,,,,,,,3243.630000011937,completion,,,,,,,high,high,,,,,,false,,,,,true,452766.10000002384,452765.3000000119,449505.103,449708.6999999881,449521.67,452574.761,1,40,,
trial,html.Screen,8_38_0,2023-11-17T22:24:16.704Z,,,,2,0.0399381815506136,0.0177751789152893,,0.04,false,ll,2421.8390000238433,response,-0.9133847107512522,1.0605905856568794,-1.005742847342698,-1.1467555629414397,1.0187656506288454,-1.1193575609029447,low,low,,ISIC_3981425.JPG,,ISIC_0032171.JPG,27,false,0.12,lh,keypress(e),0,true,454996.6999999881,454996.60000002384,452557.989,452766.1999999881,452574.761,454810.208,1,40,39,
sequence,flow.Sequence,8_38,2023-11-17T22:24:16.704Z,,,,,,,,,,,2421.8390000238433,completion,,,,,,,low,low,,,,,,false,,,,,true,454996.90000003576,454996.60000002384,452557.989,452766.1999999881,452574.761,454810.208,1,40,,
trial,html.Screen,8_39_0,2023-11-17T22:24:22.096Z,,,,2,0.012810673904807,-0.00400964452501,,0.04,false,hl,5578.491999988095,response,1.2043484010107477,1.0605905856568794,-1.005742847342698,-1.2178113180138233,1.0187656506288454,-1.1693575609029447,high,low,,ISIC_0064656.JPG,,ISIC_0011917.JPG,25,false,0.2400000000000001,hh,keypress(i),0,true,460388.90000003576,460388.6999999881,454793.736,454997,454810.208,460198.992,1,40,40,
sequence,flow.Sequence,8_39,2023-11-17T22:24:22.096Z,,,,,,,,,,,5578.491999988095,completion,,,,,,,high,low,,,,,,false,,,,,true,460389.1999999881,460388.6999999881,454793.736,454997,454810.208,460198.992,1,40,,
stair_loop,flow.Loop,8,2023-11-17T22:24:22.097Z,,,,,,,,,,,135341.43499998807,completion,,,,,,,,,,,,,,false,,,,,true,460389.3000000119,460388.6999999881,325030.444,325228.3000000119,325047.265,460198.992,1,40,,
exp_instructions,html.Screen,9,2023-11-17T22:24:25.872Z,,,,,,,,,,,3965.1080000238144,response,,,,,,,,,,,,,,,,continue,keypress(Space),,,464164.5,464164.10000002384,460182.256,460389.40000003576,460198.992,463986.148,,,,
trial,html.Screen,10_0_0,2023-11-17T22:24:38.049Z,,,,1,0.0118555311043871,0.0087774532070196,,0.04,true,hh,12355.252000035776,response,1.0282189783634048,1.0880905856568792,-1.1132428473426983,0.9341202222313458,0.9737656506288458,-1.0443575609029447,high,high,,ISIC_6488658.JPG,9,ISIC_0027238.JPG,40,false,0.1,hh,keypress(i),0,false,476341.60000002384,476341.40000003576,463969.539,464164.6999999881,463986.148,476164.943,4,500,1,
break,html.Screen,10_0_1,2023-11-17T22:24:38.050Z,,,,,,,,,,,NaN,,,,,,,,high,high,,,,,,false,,,,,false,476342.5,476342.1999999881,,476341.90000003576,,476164.943,4,500,,
break_continue,html.Screen,10_0_2,2023-11-17T22:24:38.050Z,,,,,,,,,,,NaN,,,,,,,,high,high,,,,,,false,,,,,false,476343.1999999881,476342.90000003576,,476342.6999999881,,476164.943,4,500,,
sequence,flow.Sequence,10_0,2023-11-17T22:24:38.051Z,,,,,,,,,,,12356.752000035776,completion,,,,,,,high,high,,,,,,false,,,,,false,476343.5,476342.90000003576,463969.539,464164.60000002384,463986.148,476164.943,4,500,,
trial,html.Screen,10_1_0,2023-11-17T22:24:40.952Z,,,,1,-0.0189295602385628,-0.0128812415435153,,0.04,false,hl,3079.7569999880507,response,1.2043484010107477,1.0880905856568792,-1.1132428473426983,-1.2178113180138233,0.9737656506288458,-1.0443575609029447,high,low,,ISIC_0010372.JPG,9,ISIC_0011917.JPG,28,false,0.2400000000000001,hh,keypress(i),0,false,479244.8000000119,479244.6999999881,476148.193,476343.5,476164.943,479068.141,4,500,2,
break,html.Screen,10_1_1,2023-11-17T22:24:40.952Z,,,,,,,,,,,NaN,,,,,,,,high,low,,,,,,false,,,,,false,479245.10000002384,479245.10000002384,,479244.90000003576,,479068.141,4,500,,
break_continue,html.Screen,10_1_2,2023-11-17T22:24:40.953Z,,,,,,,,,,,NaN,,,,,,,,high,low,,,,,,false,,,,,false,479245.3000000119,479245.3000000119,,479245.10000002384,,479068.141,4,500,,
sequence,flow.Sequence,10_1,2023-11-17T22:24:40.953Z,,,,,,,,,,,3080.3570000118925,completion,,,,,,,high,low,,,,,,false,,,,,false,479245.3000000119,479245.3000000119,476148.193,476343.5,476164.943,479068.141,4,500,,
trial,html.Screen,10_2_0,2023-11-17T22:24:43.104Z,,,,1,0.0023664502831079,0.0252784582169994,,0.04,true,hl,2328.7590000357595,response,0.8561946552009824,1.0880905856568792,-1.1132428473426983,-0.9282171889213044,0.9737656506288458,-1.0443575609029447,high,low,,ISIC_4156010.JPG,9,ISIC_3065032.JPG,28,false,0.2400000000000001,hl,keypress(j),0,false,481397.10000002384,481396.90000003576,479051.187,479245.40000003576,479068.141,481220.131,4,500,3,
break,html.Screen,10_2_1,2023-11-17T22:24:43.105Z,,,,,,,,,,,NaN,,,,,,,,high,low,,,,,,false,,,,,false,481397.6999999881,481397.60000002384,,481397.3000000119,,481220.131,4,500,,
break_continue,html.Screen,10_2_2,2023-11-17T22:24:43.105Z,,,,,,,,,,,NaN,,,,,,,,high,low,,,,,,false,,,,,false,481398,481397.8000000119,,481397.8000000119,,481220.131,4,500,,
sequence,flow.Sequence,10_2,2023-11-17T22:24:43.105Z,,,,,,,,,,,2329.6590000119177,completion,,,,,,,high,low,,,,,,false,,,,,false,481398.10000002384,481397.8000000119,479051.187,479245.40000003576,479068.141,481220.131,4,500,,
trial,html.Screen,10_3_0,2023-11-17T22:24:45.520Z,,,,1,0.0050679133050021,0.0174815595031679,,0.04,true,hl,2592.469000023848,response,1.2609895831255231,1.0880905856568792,-1.1132428473426983,-1.0687377724194886,0.9737656506288458,-1.0443575609029447,high,low,,ISIC_9848743.JPG,9,ISIC_1367610.JPG,28,false,0.2400000000000001,hl,keypress(j),0,false,483812.6999999881,483812.60000002384,481203.411,481398.1999999881,481220.131,483622.413,4,500,4,
break,html.Screen,10_3_1,2023-11-17T22:24:45.520Z,,,,,,,,,,,NaN,,,,,,,,high,low,,,,,,false,,,,,false,483813.10000002384,483812.90000003576,,483812.8000000119,,483622.413,4,500,,
break_continue,html.Screen,10_3_2,2023-11-17T22:24:45.520Z,,,,,,,,,,,NaN,,,,,,,,high,low,,,,,,false,,,,,false,483813.1999999881,483813.1999999881,,483813.10000002384,,483622.413,4,500,,
sequence,flow.Sequence,10_3,2023-11-17T22:24:45.521Z,,,,,,,,,,,2593.068999988085,completion,,,,,,,high,low,,,,,,false,,,,,false,483813.3000000119,483813.1999999881,481203.411,481398.1999999881,481220.131,483622.413,4,500,,
trial,html.Screen,10_4_0,2023-11-17T22:24:47.192Z,,,,1,0.0166849894750452,-0.0371614812368835,,0.04,false,ll,1862.5869999999995,response,-1.1655508270784471,1.0880905856568792,-1.1132428473426983,-1.1162776063248168,0.9737656506288458,-1.0443575609029447,low,low,,ISIC_6231450.JPG,9,ISIC_5509946.JPG,26,false,0.11,hl,keypress(j),0,false,485485.1999999881,485485,483605.662,483813.3000000119,483622.413,485307.633,4,500,5,
break,html.Screen,10_4_1,2023-11-17T22:24:47.193Z,,,,,,,,,,,NaN,,,,,,,,low,low,,,,,,false,,,,,false,485485.8000000119,485485.6999999881,,485485.3000000119,,485307.633,4,500,,
break_continue,html.Screen,10_4_2,2023-11-17T22:24:47.193Z,,,,,,,,,,,NaN,,,,,,,,low,low,,,,,,false,,,,,false,485486.10000002384,485486.10000002384,,485485.90000003576,,485307.633,4,500,,
sequence,flow.Sequence,10_4,2023-11-17T22:24:47.194Z,,,,,,,,,,,1863.6870000238414,completion,,,,,,,low,low,,,,,,false,,,,,false,485486.3000000119,485486.10000002384,483605.662,483813.3000000119,483622.413,485307.633,4,500,,
trial,html.Screen,10_5_0,2023-11-17T22:24:50.176Z,,,,1,-0.010035581303589,0.0100711721396864,,0.04,false,hl,3160.9670000238693,response,1.0700930503975157,1.0880905856568792,-1.1132428473426983,-0.923753102263735,0.9737656506288458,-1.0443575609029447,high,low,,ISIC_0030592.JPG,9,ISIC_0000022.JPG,28,false,0.2400000000000001,hh,keypress(i),0,false,488468.6999999881,488468.60000002384,485290.979,485486.40000003576,485307.633,488277.046,4,500,6,
break,html.Screen,10_5_1,2023-11-17T22:24:50.176Z,,,,,,,,,,,NaN,,,,,,,,high,low,,,,,,false,,,,,false,488469.10000002384,488469,,488468.8000000119,,488277.046,4,500,,
break_continue,html.Screen,10_5_2,2023-11-17T22:24:50.176Z,,,,,,,,,,,NaN,,,,,,,,high,low,,,,,,false,,,,,false,488469.1999999881,488469.10000002384,,488469.10000002384,,488277.046,4,500,,
sequence,flow.Sequence,10_5,2023-11-17T22:24:50.176Z,,,,,,,,,,,3161.4670000238693,completion,,,,,,,high,low,,,,,,false,,,,,false,488469.1999999881,488469.10000002384,485290.979,485486.40000003576,485307.633,488277.046,4,500,,
trial,html.Screen,10_6_0,2023-11-17T22:24:51.841Z,,,,1,-0.0199897690678184,-0.0312486875504497,,0.04,true,hh,1856.254000011948,response,1.109729032348591,1.0880905856568792,-1.1132428473426983,0.9587230726994566,0.9737656506288458,-1.0443575609029447,high,high,,ISIC_5482426.JPG,9,ISIC_0055289.JPG,40,false,0.1,hh,keypress(i),0,false,490133.5,490133.3000000119,488260.457,488469.1999999881,488277.046,489945.412,4,500,7,
break,html.Screen,10_6_1,2023-11-17T22:24:51.842Z,,,,,,,,,,,NaN,,,,,,,,high,high,,,,,,false,,,,,false,490134.5,490134.1999999881,,490133.90000003576,,489945.412,4,500,,
break_continue,html.Screen,10_6_2,2023-11-17T22:24:51.842Z,,,,,,,,,,,NaN,,,,,,,,high,high,,,,,,false,,,,,false,490135.10000002384,490134.90000003576,,490134.6999999881,,489945.412,4,500,,
sequence,flow.Sequence,10_6,2023-11-17T22:24:51.843Z,,,,,,,,,,,1857.8540000357898,completion,,,,,,,high,high,,,,,,false,,,,,false,490135.3000000119,490134.90000003576,488260.457,488469.1999999881,488277.046,489945.412,4,500,,
trial,html.Screen,10_7_0,2023-11-17T22:24:53.681Z,,,,1,-0.0365981355399771,-0.0162670920008846,,0.04,true,hl,2027.6880000238307,response,1.2704198237183777,1.0880905856568792,-1.1132428473426983,-1.138121072015301,0.9737656506288458,-1.0443575609029447,high,low,,ISIC_0982855.JPG,8,ISIC_0501843.JPG,28,false,0.2400000000000001,hl,keypress(j),0,false,491973.3000000119,491973.10000002384,489928.74,490135.5,489945.412,491797.785,4,500,8,
break,html.Screen,10_7_1,2023-11-17T22:24:53.681Z,,,,,,,,,,,NaN,,,,,,,,high,low,,,,,,false,,,,,false,491974,491973.8000000119,,491973.5,,491797.785,4,500,,
break_continue,html.Screen,10_7_2,2023-11-17T22:24:53.682Z,,,,,,,,,,,NaN,,,,,,,,high,low,,,,,,false,,,,,false,491974.40000003576,491974.1999999881,,491974.10000002384,,491797.785,4,500,,
sequence,flow.Sequence,10_7,2023-11-17T22:24:53.682Z,,,,,,,,,,,2028.787999988068,completion,,,,,,,high,low,,,,,,false,,,,,false,491974.5,491974.1999999881,489928.74,490135.40000003576,489945.412,491797.785,4,500,,
trial,html.Screen,10_8_0,2023-11-17T22:24:55.472Z,,,,1,0.0060934073440827,0.0279108145883031,,0.04,false,ll,1967.0150000119465,response,-1.0831477774866454,1.0880905856568792,-1.1132428473426983,-1.0347343776726454,0.9737656506288458,-1.0443575609029447,low,low,,ISIC_0032604.JPG,9,ISIC_9475559.JPG,26,false,0.11,hl,keypress(j),0,false,493764.90000003576,493764.8000000119,491764.141,491974.60000002384,491797.785,493582.416,4,500,9,
break,html.Screen,10_8_1,2023-11-17T22:24:55.473Z,,,,,,,,,,,NaN,,,,,,,,low,low,,,,,,false,,,,,false,493765.5,493765.40000003576,,493765.10000002384,,493582.416,4,500,,
break_continue,html.Screen,10_8_2,2023-11-17T22:24:55.473Z,,,,,,,,,,,NaN,,,,,,,,low,low,,,,,,false,,,,,false,493765.90000003576,493765.6999999881,,493765.6999999881,,493582.416,4,500,,
sequence,flow.Sequence,10_8,2023-11-17T22:24:55.473Z,,,,,,,,,,,1967.9149999881047,completion,,,,,,,low,low,,,,,,false,,,,,false,493766,493765.6999999881,491764.141,491974.60000002384,491797.785,493582.416,4,500,,
trial,html.Screen,10_9_0,2023-11-17T22:24:57.696Z,,,,1,0.0057914759495055,-0.018500200317654,,0.04,true,lh,2405.9840000357362,response,-0.8923602890201078,1.0880905856568792,-1.1132428473426983,0.8351700666074688,0.9737656506288458,-1.0443575609029447,low,high,,ISIC_0058723.JPG,9,ISIC_0033103.JPG,25,false,0.2400000000000001,lh,keypress(e),0,false,495988.5,495988.40000003576,493565.734,493766.1999999881,493582.416,495801.274,4,500,10,
break,html.Screen,10_9_1,2023-11-17T22:24:57.696Z,,,,,,,,,,,NaN,,,,,,,,low,high,,,,,,false,,,,,false,495988.90000003576,495988.8000000119,,495988.60000002384,,495801.274,4,500,,
break_continue,html.Screen,10_9_2,2023-11-17T22:24:57.696Z,,,,,,,,,,,NaN,,,,,,,,low,high,,,,,,false,,,,,false,495989,495988.90000003576,,495988.90000003576,,495801.274,4,500,,
sequence,flow.Sequence,10_9,2023-11-17T22:24:57.696Z,,,,,,,,,,,2406.4840000357362,completion,,,,,,,low,high,,,,,,false,,,,,false,495989.10000002384,495988.90000003576,493565.734,493766,493582.416,495801.274,4,500,,
trial,html.Screen,10_10_0,2023-11-17T22:24:59.457Z,,,,1,-0.0321039635696159,-0.020496766286318,,0.04,false,ll,1947.826000023866,response,-1.1655508270784471,1.0880905856568792,-1.1132428473426983,-1.1162776063248168,0.9737656506288458,-1.0443575609029447,low,low,,ISIC_0058063.JPG,9,ISIC_5509946.JPG,26,false,0.11,hl,keypress(j),0,false,497749.40000003576,497749.10000002384,495784.559,495989.10000002384,495801.274,497569.891,4,500,11,
break,html.Screen,10_10_1,2023-11-17T22:24:59.458Z,,,,,,,,,,,NaN,,,,,,,,low,low,,,,,,false,,,,,false,497750.1999999881,497750,,497749.60000002384,,497569.891,4,500,,
break_continue,html.Screen,10_10_2,2023-11-17T22:24:59.458Z,,,,,,,,,,,NaN,,,,,,,,low,low,,,,,,false,,,,,false,497750.6999999881,497750.60000002384,,497750.40000003576,,497569.891,4,500,,
sequence,flow.Sequence,10_10,2023-11-17T22:24:59.458Z,,,,,,,,,,,1949.326000023866,completion,,,,,,,low,low,,,,,,false,,,,,false,497750.90000003576,497750.60000002384,495784.559,495989.10000002384,495801.274,497569.891,4,500,,
trial,html.Screen,10_11_0,2023-11-17T22:25:05.281Z,,,,1,0.012810673904807,-0.00400964452501,,0.04,false,ll,6003.709000023839,response,-1.0375203228848855,1.0880905856568792,-1.1132428473426983,-1.0256934713188917,0.9737656506288458,-1.0443575609029447,low,low,,ISIC_0064656.JPG,9,ISIC_4264600.JPG,26,false,0.11,lh,keypress(e),0,false,503573.8000000119,503573.60000002384,497553.229,497751.10000002384,497569.891,503392.257,4,500,12,
break,html.Screen,10_11_1,2023-11-17T22:25:05.282Z,,,,,,,,,,,NaN,,,,,,,,low,low,,,,,,false,,,,,false,503574.8000000119,503574.5,,503574.10000002384,,503392.257,4,500,,
break_continue,html.Screen,10_11_2,2023-11-17T22:25:05.283Z,,,,,,,,,,,NaN,,,,,,,,low,low,,,,,,false,,,,,false,503575.1999999881,503575.10000002384,,503574.90000003576,,503392.257,4,500,,
sequence,flow.Sequence,10_11,2023-11-17T22:25:05.283Z,,,,,,,,,,,6005.209000023839,completion,,,,,,,low,low,,,,,,false,,,,,false,503575.40000003576,503575.10000002384,497553.229,497751.10000002384,497569.891,503392.257,4,500,,
trial,html.Screen,10_12_0,2023-11-17T22:25:09.120Z,,,,1,-0.0086413421586899,-0.0360184993500958,,0.04,false,hh,4020.6430000357796,response,1.0490239046679242,1.0880905856568792,-1.1132428473426983,0.8755566396204548,0.9737656506288458,-1.0443575609029447,high,high,,ISIC_0010767.JPG,8,ISIC_0071430.JPG,40,false,0.1,ll,keypress(f),0,false,507413.10000002384,507412.90000003576,503375.609,503575.60000002384,503392.257,507229.376,4,500,13,
break,html.Screen,10_12_1,2023-11-17T22:25:09.121Z,,,,,,,,,,,NaN,,,,,,,,high,high,,,,,,false,,,,,false,507413.60000002384,507413.5,,507413.3000000119,,507229.376,4,500,,
break_continue,html.Screen,10_12_2,2023-11-17T22:25:09.121Z,,,,,,,,,,,NaN,,,,,,,,high,high,,,,,,false,,,,,false,507413.8000000119,507413.8000000119,,507413.6999999881,,507229.376,4,500,,
sequence,flow.Sequence,10_12,2023-11-17T22:25:09.121Z,,,,,,,,,,,4021.5430000119377,completion,,,,,,,high,high,,,,,,false,,,,,false,507414,507413.8000000119,503375.609,503575.60000002384,503392.257,507229.376,4,500,,
trial,html.Screen,10_13_0,2023-11-17T22:25:14.073Z,,,,1,0.0050679133050021,0.0174815595031679,,0.04,false,hh,5136.124000000011,response,1.185875658992962,1.0880905856568792,-1.1132428473426983,0.9985976786538492,0.9737656506288458,-1.0443575609029447,high,high,,ISIC_9848743.JPG,9,ISIC_0011703.JPG,40,false,0.1,ll,keypress(f),0,false,512365.90000003576,512365.5,507212.892,507414.10000002384,507229.376,512184.355,4,500,14,
break,html.Screen,10_13_1,2023-11-17T22:25:14.075Z,,,,,,,,,,,NaN,,,,,,,,high,high,,,,,,false,,,,,false,512367.1999999881,512366.90000003576,,512366.3000000119,,512184.355,4,500,,
break_continue,html.Screen,10_13_2,2023-11-17T22:25:14.075Z,,,,,,,,,,,NaN,,,,,,,,high,high,,,,,,false,,,,,false,512368,512367.60000002384,,512367.40000003576,,512184.355,4,500,,
sequence,flow.Sequence,10_13,2023-11-17T22:25:14.076Z,,,,,,,,,,,5138.224000023853,completion,,,,,,,high,high,,,,,,false,,,,,false,512368.3000000119,512367.60000002384,507212.892,507414,507229.376,512184.355,4,500,,
trial,html.Screen,10_14_0,2023-11-17T22:25:18.833Z,,,,1,-0.010035581303589,0.0100711721396864,,0.04,false,hh,4941.045000035781,response,1.094624209823328,1.0880905856568792,-1.1132428473426983,1.0544499428769605,0.9737656506288458,-1.0443575609029447,high,high,,ISIC_0030592.JPG,9,ISIC_0055526.JPG,40,false,0.1,hl,keypress(j),0,false,517125.6999999881,517125.40000003576,512167.557,512368.60000002384,512184.355,516939.106,4,500,15,
break,html.Screen,10_14_1,2023-11-17T22:25:18.834Z,,,,,,,,,,,NaN,,,,,,,,high,high,,,,,,false,,,,,false,517126.5,517126.1999999881,,517125.90000003576,,516939.106,4,500,,
break_continue,html.Screen,10_14_2,2023-11-17T22:25:18.834Z,,,,,,,,,,,NaN,,,,,,,,high,high,,,,,,false,,,,,false,517127.10000002384,517126.90000003576,,517126.6999999881,,516939.106,4,500,,
sequence,flow.Sequence,10_14,2023-11-17T22:25:18.835Z,,,,,,,,,,,4942.545000035781,completion,,,,,,,high,high,,,,,,false,,,,,false,517127.3000000119,517126.90000003576,512167.557,512368.5,512184.355,516939.106,4,500,,
trial,html.Screen,10_15_0,2023-11-17T22:25:21.928Z,,,,1,0.0060934073440827,0.0279108145883031,,0.04,false,hh,3281.494000023813,response,1.0710981257723884,1.0880905856568792,-1.1132428473426983,0.9983143500894516,0.9737656506288458,-1.0443575609029447,high,high,,ISIC_0032604.JPG,9,ISIC_0026652.JPG,40,false,0.1,hl,keypress(j),0,false,520220.8000000119,520220.60000002384,516922.624,517127.5,516939.106,520042.275,4,500,16,
break,html.Screen,10_15_1,2023-11-17T22:25:21.929Z,,,,,,,,,,,NaN,,,,,,,,high,high,,,,,,false,,,,,false,520221.3000000119,520221.1999999881,,520220.90000003576,,520042.275,4,500,,
break_continue,html.Screen,10_15_2,2023-11-17T22:25:21.929Z,,,,,,,,,,,NaN,,,,,,,,high,high,,,,,,false,,,,,false,520221.60000002384,520221.5,,520221.40000003576,,520042.275,4,500,,
sequence,flow.Sequence,10_15,2023-11-17T22:25:21.929Z,,,,,,,,,,,3282.393999999971,completion,,,,,,,high,high,,,,,,false,,,,,false,520221.8000000119,520221.5,516922.624,517127.40000003576,516939.106,520042.275,4,500,,
trial,html.Screen,10_16_0,2023-11-17T22:25:23.873Z,,,,1,0.00126575685933,0.0325046559638838,,0.04,false,hh,2122.8250000238186,response,1.0007734170042946,1.0880905856568792,-1.1132428473426983,0.9394007494897862,0.9737656506288458,-1.0443575609029447,high,high,,ISIC_5682259.JPG,9,ISIC_0053791.JPG,40,false,0.1,hl,keypress(j),0,false,522165.5,522165.10000002384,520025.541,520221.90000003576,520042.275,521977.479,4,500,17,
break,html.Screen,10_16_1,2023-11-17T22:25:23.874Z,,,,,,,,,,,NaN,,,,,,,,high,high,,,,,,false,,,,,false,522166.40000003576,522166,,522165.8000000119,,521977.479,4,500,,
break_continue,html.Screen,10_16_2,2023-11-17T22:25:23.874Z,,,,,,,,,,,NaN,,,,,,,,high,high,,,,,,false,,,,,false,522166.90000003576,522166.6999999881,,522166.60000002384,,521977.479,4,500,,
sequence,flow.Sequence,10_16,2023-11-17T22:25:23.875Z,,,,,,,,,,,2124.424999988056,completion,,,,,,,high,high,,,,,,false,,,,,false,522167.10000002384,522166.6999999881,520025.541,520221.8000000119,520042.275,521977.479,4,500,,
trial,html.Screen,10_17_0,2023-11-17T22:25:30.601Z,,,,1,-0.0321039635696159,-0.020496766286318,,0.04,false,lh,6916.321000011929,response,-1.064425982109969,1.0880905856568792,-1.1132428473426983,0.958564243697126,0.9737656506288458,-1.0443575609029447,low,high,,ISIC_0058063.JPG,8,ISIC_3203344.JPG,25,false,0.2400000000000001,ll,keypress(f),0,false,528894.1000000238,528893.8000000119,521960.866,522167.3000000119,521977.479,528717.707,4,500,18,
break,html.Screen,10_17_1,2023-11-17T22:25:30.602Z,,,,,,,,,,,NaN,,,,,,,,low,high,,,,,,false,,,,,false,528895,528894.8000000119,,528894.4000000358,,528717.707,4,500,,
break_continue,html.Screen,10_17_2,2023-11-17T22:25:30.603Z,,,,,,,,,,,NaN,,,,,,,,low,high,,,,,,false,,,,,false,528895.6000000238,528895.5,,528895.1999999881,,528717.707,4,500,,
sequence,flow.Sequence,10_17,2023-11-17T22:25:30.603Z,,,,,,,,,,,6918.021000000008,completion,,,,,,,low,high,,,,,,false,,,,,false,528895.8000000119,528895.5,521960.866,522167.3000000119,521977.479,528717.707,4,500,,
trial,html.Screen,10_18_0,2023-11-17T22:25:33.985Z,,,,1,0.0023664502831079,0.0252784582169994,,0.04,true,hh,3559.6930000357097,response,1.12972273782631,1.0880905856568792,-1.1132428473426983,1.0374079095766835,0.9737656506288458,-1.0443575609029447,high,high,,ISIC_4156010.JPG,8,ISIC_0032396.JPG,40,false,0.1,hh,keypress(i),0,false,532277.6000000238,532277.4000000358,528700.865,528896,528717.707,532087.641,4,500,19,
break,html.Screen,10_18_1,2023-11-17T22:25:33.986Z,,,,,,,,,,,NaN,,,,,,,,high,high,,,,,,false,,,,,false,532278.6000000238,532278.3000000119,,532278,,532087.641,4,500,,
break_continue,html.Screen,10_18_2,2023-11-17T22:25:33.986Z,,,,,,,,,,,NaN,,,,,,,,high,high,,,,,,false,,,,,false,532279,532278.8000000119,,532278.6999999881,,532087.641,4,500,,
sequence,flow.Sequence,10_18,2023-11-17T22:25:33.987Z,,,,,,,,,,,3561.093000011868,completion,,,,,,,high,high,,,,,,false,,,,,false,532279.1999999881,532278.8000000119,528700.865,528895.9000000358,528717.707,532087.641,4,500,,
trial,html.Screen,10_19_0,2023-11-17T22:25:36.529Z,,,,1,-0.0361875505619981,0.0291457404567876,,0.04,true,lh,2734.058999988134,response,-1.1343164084491792,1.0880905856568792,-1.1132428473426983,0.7599392888539781,0.9737656506288458,-1.0443575609029447,low,high,,ISIC_0027480.JPG,10,ISIC_0032265.JPG,25,false,0.2400000000000001,lh,keypress(e),0,false,534822,534821.6999999881,532070.957,532279.4000000358,532087.641,534640.11,4,500,20,
break,html.Screen,10_19_1,2023-11-17T22:25:36.530Z,,,,,,,,,,,NaN,,,,,,,,low,high,,,,,,false,,,,,false,534822.5,534822.5,,534822.3000000119,,534640.11,4,500,,
break_continue,html.Screen,10_19_2,2023-11-17T22:25:36.530Z,,,,,,,,,,,NaN,,,,,,,,low,high,,,,,,false,,,,,false,534822.6999999881,534822.6999999881,,534822.6000000238,,534640.11,4,500,,
sequence,flow.Sequence,10_19,2023-11-17T22:25:36.530Z,,,,,,,,,,,2735.058999988134,completion,,,,,,,low,high,,,,,,false,,,,,false,534822.8000000119,534822.6999999881,532070.957,532279.4000000358,532087.641,534640.11,4,500,,
trial,html.Screen,10_20_0,2023-11-17T22:25:39.024Z,,,,1,-0.0086413421586899,-0.0360184993500958,,0.04,false,lh,2676.589999988093,response,-1.1501717278509027,1.0880905856568792,-1.1132428473426983,0.8228936373136835,0.9737656506288458,-1.0443575609029447,low,high,,ISIC_0010767.JPG,9,ISIC_8398000.JPG,25,false,0.2400000000000001,hh,keypress(i),0,false,537316.8000000119,537316.6999999881,534623.435,534822.9000000358,534640.11,537125.944,4,500,21,
break,html.Screen,10_20_1,2023-11-17T22:25:39.025Z,,,,,,,,,,,NaN,,,,,,,,low,high,,,,,,false,,,,,false,537317.1999999881,537317.1000000238,,537317,,537125.944,4,500,,
break_continue,html.Screen,10_20_2,2023-11-17T22:25:39.025Z,,,,,,,,,,,NaN,,,,,,,,low,high,,,,,,false,,,,,false,537317.3000000119,537317.3000000119,,537317.3000000119,,537125.944,4,500,,
sequence,flow.Sequence,10_20,2023-11-17T22:25:39.025Z,,,,,,,,,,,2677.190000011935,completion,,,,,,,low,high,,,,,,false,,,,,false,537317.5,537317.3000000119,534623.435,534822.9000000358,534640.11,537125.944,4,500,,
trial,html.Screen,10_21_0,2023-11-17T22:25:41.864Z,,,,1,-0.0361875505619981,0.0291457404567876,,0.04,true,hh,3030.8560000119032,response,1.0103956367534752,1.0880905856568792,-1.1132428473426983,0.9950817758087226,0.9737656506288458,-1.0443575609029447,high,high,,ISIC_0027480.JPG,9,ISIC_0025267.JPG,40,false,0.1,hh,keypress(i),0,false,540156.9000000358,540156.8000000119,537109.415,537317.5,537125.944,539978.829,4,500,22,
break,html.Screen,10_21_1,2023-11-17T22:25:41.865Z,,,,,,,,,,,NaN,,,,,,,,high,high,,,,,,false,,,,,false,540157.1999999881,540157.1000000238,,540157,,539978.829,4,500,,
break_continue,html.Screen,10_21_2,2023-11-17T22:25:41.865Z,,,,,,,,,,,NaN,,,,,,,,high,high,,,,,,false,,,,,false,540157.4000000358,540157.4000000358,,540157.3000000119,,539978.829,4,500,,
sequence,flow.Sequence,10_21,2023-11-17T22:25:41.865Z,,,,,,,,,,,3031.456000035745,completion,,,,,,,high,high,,,,,,false,,,,,false,540157.5,540157.4000000358,537109.415,537317.5,537125.944,539978.829,4,500,,
trial,html.Screen,10_22_0,2023-11-17T22:25:43.800Z,,,,1,-0.0086413421586899,-0.0360184993500958,,0.04,true,lh,2113.670999999973,response,-1.2615315960773072,1.0880905856568792,-1.1132428473426983,1.194084675079932,0.9737656506288458,-1.0443575609029447,low,high,,ISIC_0010767.JPG,10,ISIC_0010044.JPG,25,false,0.2400000000000001,lh,keypress(e),0,false,542092.6000000238,542092.5,539962.282,540157.6000000238,539978.829,541930.806,4,500,23,
break,html.Screen,10_22_1,2023-11-17T22:25:43.801Z,,,,,,,,,,,NaN,,,,,,,,low,high,,,,,,false,,,,,false,542093.3000000119,542093.1000000238,,542092.6999999881,,541930.806,4,500,,
break_continue,html.Screen,10_22_2,2023-11-17T22:25:43.801Z,,,,,,,,,,,NaN,,,,,,,,low,high,,,,,,false,,,,,false,542093.5,542093.4000000358,,542093.3000000119,,541930.806,4,500,,
sequence,flow.Sequence,10_22,2023-11-17T22:25:43.801Z,,,,,,,,,,,2114.571000035736,completion,,,,,,,low,high,,,,,,false,,,,,false,542093.6999999881,542093.4000000358,539962.282,540157.6000000238,539978.829,541930.806,4,500,,
trial,html.Screen,10_23_0,2023-11-17T22:25:48.088Z,,,,1,0.0071892445601978,-0.0246015408628738,,0.04,false,ll,4449.994000011939,response,-1.211212746138903,1.0880905856568792,-1.1132428473426983,-0.9514368385965256,0.9737656506288458,-1.0443575609029447,low,low,,ISIC_0014133.JPG,9,ISIC_0198331.JPG,26,false,0.11,hh,keypress(i),0,false,546380.9000000358,546380.8000000119,541914.121,542093.8000000119,541930.806,546201.889,4,500,24,
break,html.Screen,10_23_1,2023-11-17T22:25:48.089Z,,,,,,,,,,,NaN,,,,,,,,low,low,,,,,,false,,,,,false,546381.3000000119,546381.3000000119,,546381,,546201.889,4,500,,
break_continue,html.Screen,10_23_2,2023-11-17T22:25:48.089Z,,,,,,,,,,,NaN,,,,,,,,low,low,,,,,,false,,,,,false,546381.6000000238,546381.5,,546381.4000000358,,546201.889,4,500,,
sequence,flow.Sequence,10_23,2023-11-17T22:25:48.089Z,,,,,,,,,,,4450.694000000018,completion,,,,,,,low,low,,,,,,false,,,,,false,546381.6999999881,546381.5,541914.121,542093.8000000119,541930.806,546201.889,4,500,,
trial,html.Screen,10_24_0,2023-11-17T22:25:50.649Z,,,,1,0.0050679133050021,0.0174815595031679,,0.04,true,hh,2739.4110000119545,response,1.1618928077758934,1.0880905856568792,-1.1132428473426983,0.9630799724002608,0.9737656506288458,-1.0443575609029447,high,high,,ISIC_9848743.JPG,9,ISIC_0034076.JPG,40,false,0.1,hh,keypress(i),0,false,548941.5,548941.3000000119,546185.102,546381.6999999881,546201.889,548754.314,4,500,25,
break,html.Screen,10_24_1,2023-11-17T22:25:50.649Z,,,,,,,,,,,NaN,,,,,,,,high,high,,,,,,false,,,,,false,548942.1000000238,548942,,548941.6000000238,,548754.314,4,500,,
break_continue,html.Screen,10_24_2,2023-11-17T22:25:50.650Z,,,,,,,,,,,NaN,,,,,,,,high,high,,,,,,false,,,,,false,548942.5,548942.3000000119,,548942.1999999881,,548754.314,4,500,,
sequence,flow.Sequence,10_24,2023-11-17T22:25:50.650Z,,,,,,,,,,,2740.4110000119545,completion,,,,,,,high,high,,,,,,false,,,,,false,548942.6000000238,548942.3000000119,546185.102,546381.6999999881,546201.889,548754.314,4,500,,
trial,html.Screen,10_25_0,2023-11-17T22:25:53.360Z,,,,1,-0.0327772618698018,0.0056908372048728,,0.04,false,ll,2898.286000023829,response,-1.0730492496332733,1.0880905856568792,-1.1132428473426983,-1.0252626598876022,0.9737656506288458,-1.0443575609029447,low,low,,ISIC_7897925.JPG,8,ISIC_0007029.JPG,26,false,0.11,hh,keypress(i),0,false,551652.6999999881,551652.6000000238,548737.672,548942.6999999881,548754.314,551473.679,4,500,26,
break,html.Screen,10_25_1,2023-11-17T22:25:53.360Z,,,,,,,,,,,NaN,,,,,,,,low,low,,,,,,false,,,,,false,551653,551653,,551652.8000000119,,551473.679,4,500,,
break_continue,html.Screen,10_25_2,2023-11-17T22:25:53.361Z,,,,,,,,,,,NaN,,,,,,,,low,low,,,,,,false,,,,,false,551653.4000000358,551653.1999999881,,551653.1999999881,,551473.679,4,500,,
sequence,flow.Sequence,10_25,2023-11-17T22:25:53.361Z,,,,,,,,,,,2898.885999988066,completion,,,,,,,low,low,,,,,,false,,,,,false,551653.4000000358,551653.1999999881,548737.672,548942.6000000238,548754.314,551473.679,4,500,,
trial,html.Screen,10_26_0,2023-11-17T22:25:57.504Z,,,,1,0.0057914759495055,-0.018500200317654,,0.04,false,lh,4322.820999999996,response,-1.2018448523268856,1.0880905856568792,-1.1132428473426983,0.8157731190790072,0.9737656506288458,-1.0443575609029447,low,high,,ISIC_0058723.JPG,9,ISIC_7662993.JPG,25,false,0.2400000000000001,hh,keypress(i),0,false,555796.6000000238,555796.5,551457.066,551653.5,551473.679,555611.11,4,500,27,
break,html.Screen,10_26_1,2023-11-17T22:25:57.504Z,,,,,,,,,,,NaN,,,,,,,,low,high,,,,,,false,,,,,false,555796.9000000358,555796.8000000119,,555796.6999999881,,555611.11,4,500,,
break_continue,html.Screen,10_26_2,2023-11-17T22:25:57.505Z,,,,,,,,,,,NaN,,,,,,,,low,high,,,,,,false,,,,,false,555797.1000000238,555797,,555796.9000000358,,555611.11,4,500,,
sequence,flow.Sequence,10_26,2023-11-17T22:25:57.505Z,,,,,,,,,,,4323.320999999996,completion,,,,,,,low,high,,,,,,false,,,,,false,555797.1000000238,555797,551457.066,551653.4000000358,551473.679,555611.11,4,500,,
trial,html.Screen,10_27_0,2023-11-17T22:26:00.384Z,,,,1,-0.0063515208248796,-0.0194177605767913,,0.04,false,ll,3065.390000000014,response,-1.0831477774866454,1.0880905856568792,-1.1132428473426983,-1.0347343776726454,0.9737656506288458,-1.0443575609029447,low,low,,ISIC_5281908.JPG,9,ISIC_9475559.JPG,26,false,0.11,hl,keypress(j),0,false,558676.6000000238,558676.5,555594.525,555797.1000000238,555611.11,558497.361,4,500,28,
break,html.Screen,10_27_1,2023-11-17T22:26:00.385Z,,,,,,,,,,,NaN,,,,,,,,low,low,,,,,,false,,,,,false,558677,558676.8000000119,,558676.6999999881,,558497.361,4,500,,
break_continue,html.Screen,10_27_2,2023-11-17T22:26:00.385Z,,,,,,,,,,,NaN,,,,,,,,low,low,,,,,,false,,,,,false,558677.1999999881,558677.1000000238,,558677,,558497.361,4,500,,
sequence,flow.Sequence,10_27,2023-11-17T22:26:00.385Z,,,,,,,,,,,3065.990000023856,completion,,,,,,,low,low,,,,,,false,,,,,false,558677.1999999881,558677.1000000238,555594.525,555797.1000000238,555611.11,558497.361,4,500,,
trial,html.Screen,10_28_0,2023-11-17T22:26:02.593Z,,,,1,-0.0051046740562181,0.0178832721027728,,0.04,true,lh,2387.8389999880455,response,-0.9445114955578736,1.0880905856568792,-1.1132428473426983,1.0054210059625863,0.9737656506288458,-1.0443575609029447,low,high,,ISIC_9545819.JPG,9,ISIC_0033807.JPG,25,false,0.2400000000000001,lh,keypress(e),0,false,560885.3000000119,560885.1999999881,558480.729,558677.1999999881,558497.361,560699.573,4,500,29,
break,html.Screen,10_28_1,2023-11-17T22:26:02.594Z,,,,,,,,,,,NaN,,,,,,,,low,high,,,,,,false,,,,,false,560886,560885.9000000358,,560885.5,,560699.573,4,500,,
break_continue,html.Screen,10_28_2,2023-11-17T22:26:02.594Z,,,,,,,,,,,NaN,,,,,,,,low,high,,,,,,false,,,,,false,560886.3000000119,560886.1999999881,,560886.1000000238,,560699.573,4,500,,
sequence,flow.Sequence,10_28,2023-11-17T22:26:02.594Z,,,,,,,,,,,2388.8389999880455,completion,,,,,,,low,high,,,,,,false,,,,,false,560886.4000000358,560886.1999999881,558480.729,558677.1999999881,558497.361,560699.573,4,500,,
trial,html.Screen,10_29_0,2023-11-17T22:26:06.913Z,,,,1,-0.0189295602385628,-0.0128812415435153,,0.04,false,ll,4505.927000000025,response,-1.1513073368404492,1.0880905856568792,-1.1132428473426983,-1.0485268550965705,0.9737656506288458,-1.0443575609029447,low,low,,ISIC_0010372.JPG,9,ISIC_0030666.JPG,26,false,0.11,lh,keypress(e),0,false,565205.6000000238,565205.5,560682.83,560886.5,560699.573,565020.597,4,500,30,
break,html.Screen,10_29_1,2023-11-17T22:26:06.914Z,,,,,,,,,,,NaN,,,,,,,,low,low,,,,,,false,,,,,false,565206.3000000119,565206.1000000238,,565205.8000000119,,565020.597,4,500,,
break_continue,html.Screen,10_29_2,2023-11-17T22:26:06.914Z,,,,,,,,,,,NaN,,,,,,,,low,low,,,,,,false,,,,,false,565206.6999999881,565206.5,,565206.4000000358,,565020.597,4,500,,
sequence,flow.Sequence,10_29,2023-11-17T22:26:06.914Z,,,,,,,,,,,4506.927000000025,completion,,,,,,,low,low,,,,,,false,,,,,false,565206.8000000119,565206.5,560682.83,560886.5,560699.573,565020.597,4,500,,
trial,html.Screen,10_30_0,2023-11-17T22:26:11.616Z,,,,1,0.0071892445601978,-0.0246015408628738,,0.04,false,lh,4888.102999988128,response,-1.0481746483551846,1.0880905856568792,-1.1132428473426983,0.7465283499508132,0.9737656506288458,-1.0443575609029447,low,high,,ISIC_0014133.JPG,9,ISIC_0031248.JPG,25,false,0.2400000000000001,hh,keypress(i),0,false,569908.8000000119,569908.6999999881,565004.051,565207,565020.597,569725.236,4,500,31,
break,html.Screen,10_30_1,2023-11-17T22:26:11.617Z,,,,,,,,,,,NaN,,,,,,,,low,high,,,,,,false,,,,,false,569909,569909,,569908.9000000358,,569725.236,4,500,,
break_continue,html.Screen,10_30_2,2023-11-17T22:26:11.617Z,,,,,,,,,,,NaN,,,,,,,,low,high,,,,,,false,,,,,false,569909.3000000119,569909.1999999881,,569909.1000000238,,569725.236,4,500,,
sequence,flow.Sequence,10_30,2023-11-17T22:26:11.617Z,,,,,,,,,,,4888.602999988128,completion,,,,,,,low,high,,,,,,false,,,,,false,569909.4000000358,569909.1999999881,565004.051,565206.9000000358,565020.597,569725.236,4,500,,
trial,html.Screen,10_31_0,2023-11-17T22:26:13.657Z,,,,1,-0.0199897690678184,-0.0312486875504497,,0.04,false,hl,2224.0640000118874,response,0.8688859182707874,1.0880905856568792,-1.1132428473426983,-0.9566733172438716,0.9737656506288458,-1.0443575609029447,high,low,,ISIC_5482426.JPG,9,ISIC_0640770.JPG,28,false,0.2400000000000001,hh,keypress(i),0,false,571949.5,571949.3000000119,569708.581,569909.4000000358,569725.236,571760.637,4,500,32,
break,html.Screen,10_31_1,2023-11-17T22:26:13.658Z,,,,,,,,,,,NaN,,,,,,,,high,low,,,,,,false,,,,,false,571950.1999999881,571950.1000000238,,571949.8000000119,,571760.637,4,500,,
break_continue,html.Screen,10_31_2,2023-11-17T22:26:13.658Z,,,,,,,,,,,NaN,,,,,,,,high,low,,,,,,false,,,,,false,571950.6000000238,571950.4000000358,,571950.3000000119,,571760.637,4,500,,
sequence,flow.Sequence,10_31,2023-11-17T22:26:13.658Z,,,,,,,,,,,2225.1640000357293,completion,,,,,,,high,low,,,,,,false,,,,,false,571950.8000000119,571950.4000000358,569708.581,569909.4000000358,569725.236,571760.637,4,500,,
trial,html.Screen,10_32_0,2023-11-17T22:26:18.713Z,,,,1,-0.0367218428225813,0.0026956749740767,,0.04,true,hh,5244.763000035775,response,1.109729032348591,1.0880905856568792,-1.1132428473426983,0.9587230726994566,0.9737656506288458,-1.0443575609029447,high,high,,ISIC_7212271.JPG,9,ISIC_0055289.JPG,40,false,0.1,hh,keypress(i),0,false,577005.5,577005.4000000358,571744.01,571950.9000000358,571760.637,576815.729,4,500,33,
break,html.Screen,10_32_1,2023-11-17T22:26:18.714Z,,,,,,,,,,,NaN,,,,,,,,high,high,,,,,,false,,,,,false,577006.1999999881,577006.1000000238,,577005.8000000119,,576815.729,4,500,,
break_continue,html.Screen,10_32_2,2023-11-17T22:26:18.714Z,,,,,,,,,,,NaN,,,,,,,,high,high,,,,,,false,,,,,false,577006.6000000238,577006.5,,577006.4000000358,,576815.729,4,500,,
sequence,flow.Sequence,10_32,2023-11-17T22:26:18.714Z,,,,,,,,,,,5245.863000000012,completion,,,,,,,high,high,,,,,,false,,,,,false,577006.6999999881,577006.5,571744.01,571950.9000000358,571760.637,576815.729,4,500,,
trial,html.Screen,10_33_0,2023-11-17T22:26:20.921Z,,,,1,0.0060934073440827,0.0279108145883031,,0.04,true,hl,2397.0710000118706,response,0.9670240379618178,1.0880905856568792,-1.1132428473426983,-1.1806404773220665,0.9737656506288458,-1.0443575609029447,high,low,,ISIC_0032604.JPG,9,ISIC_0002288.JPG,28,false,0.2400000000000001,hl,keypress(j),0,false,579212.9000000358,579212.8000000119,576799.142,577006.9000000358,576815.729,579034.739,4,500,34,
break,html.Screen,10_33_1,2023-11-17T22:26:20.921Z,,,,,,,,,,,NaN,,,,,,,,high,low,,,,,,false,,,,,false,579213.3000000119,579213.1999999881,,579213,,579034.739,4,500,,
break_continue,html.Screen,10_33_2,2023-11-17T22:26:20.921Z,,,,,,,,,,,NaN,,,,,,,,high,low,,,,,,false,,,,,false,579213.5,579213.5,,579213.3000000119,,579034.739,4,500,,
sequence,flow.Sequence,10_33,2023-11-17T22:26:20.921Z,,,,,,,,,,,2397.7709999999497,completion,,,,,,,high,low,,,,,,false,,,,,false,579213.5,579213.5,576799.142,577006.9000000358,576815.729,579034.739,4,500,,
trial,html.Screen,10_34_0,2023-11-17T22:26:22.808Z,,,,1,-0.0361875505619981,0.0291457404567876,,0.04,true,hl,2065.960999988136,response,0.8588347582642082,1.0880905856568792,-1.1132428473426983,-0.8899503828496784,0.9737656506288458,-1.0443575609029447,high,low,,ISIC_0027480.JPG,8,ISIC_0174983.JPG,28,false,0.2400000000000001,hl,keypress(j),0,false,581100.8000000119,581100.6999999881,579017.999,579213.6999999881,579034.739,580919.851,4,500,35,
break,html.Screen,10_34_1,2023-11-17T22:26:22.809Z,,,,,,,,,,,NaN,,,,,,,,high,low,,,,,,false,,,,,false,581101.1000000238,581101,,581100.9000000358,,580919.851,4,500,,
break_continue,html.Screen,10_34_2,2023-11-17T22:26:22.809Z,,,,,,,,,,,NaN,,,,,,,,high,low,,,,,,false,,,,,false,581101.3000000119,581101.1999999881,,581101.1999999881,,580919.851,4,500,,
sequence,flow.Sequence,10_34,2023-11-17T22:26:22.809Z,,,,,,,,,,,2066.460999988136,completion,,,,,,,high,low,,,,,,false,,,,,false,581101.4000000358,581101.1999999881,579017.999,579213.6000000238,579034.739,580919.851,4,500,,
trial,html.Screen,10_35_0,2023-11-17T22:26:24.536Z,,,,1,0.0377791839943904,-0.0227626648172468,,0.04,true,lh,1908.5490000357386,response,-1.2615315960773072,1.0880905856568792,-1.1132428473426983,1.194084675079932,0.9737656506288458,-1.0443575609029447,low,high,,ISIC_7167479.JPG,9,ISIC_0010044.JPG,25,false,0.2400000000000001,lh,keypress(e),0,false,582828.5,582828.4000000358,580903.232,581101.4000000358,580919.851,582638.177,4,500,36,
break,html.Screen,10_35_1,2023-11-17T22:26:24.536Z,,,,,,,,,,,NaN,,,,,,,,low,high,,,,,,false,,,,,false,582828.8000000119,582828.6999999881,,582828.6000000238,,582638.177,4,500,,
break_continue,html.Screen,10_35_2,2023-11-17T22:26:24.537Z,,,,,,,,,,,NaN,,,,,,,,low,high,,,,,,false,,,,,false,582829,582828.9000000358,,582828.8000000119,,582638.177,4,500,,
sequence,flow.Sequence,10_35,2023-11-17T22:26:24.537Z,,,,,,,,,,,1909.0490000357386,completion,,,,,,,low,high,,,,,,false,,,,,false,582829,582828.9000000358,580903.232,581101.4000000358,580919.851,582638.177,4,500,,
trial,html.Screen,10_36_0,2023-11-17T22:26:27.432Z,,,,1,-0.0365981355399771,-0.0162670920008846,,0.04,false,ll,3086.322999999975,response,-1.211212746138903,1.0880905856568792,-1.1132428473426983,-0.9514368385965256,0.9737656506288458,-1.0443575609029447,low,low,,ISIC_0982855.JPG,9,ISIC_0198331.JPG,26,false,0.11,hh,keypress(i),0,false,585724.6000000238,585724.5,582621.672,582829.1000000238,582638.177,585541.097,4,500,37,
break,html.Screen,10_36_1,2023-11-17T22:26:27.432Z,,,,,,,,,,,NaN,,,,,,,,low,low,,,,,,false,,,,,false,585724.9000000358,585724.9000000358,,585724.8000000119,,585541.097,4,500,,
break_continue,html.Screen,10_36_2,2023-11-17T22:26:27.433Z,,,,,,,,,,,NaN,,,,,,,,low,low,,,,,,false,,,,,false,585725.1000000238,585725.1000000238,,585725,,585541.097,4,500,,
sequence,flow.Sequence,10_36,2023-11-17T22:26:27.433Z,,,,,,,,,,,3086.9230000238167,completion,,,,,,,low,low,,,,,,false,,,,,false,585725.1999999881,585725.1000000238,582621.672,582829.1000000238,582638.177,585541.097,4,500,,
trial,html.Screen,10_37_0,2023-11-17T22:26:29.409Z,,,,1,0.0050679133050021,0.0174815595031679,,0.04,true,hl,2160.503000023891,response,1.0748728054622358,1.0880905856568792,-1.1132428473426983,-1.2840853987892311,0.9737656506288458,-1.0443575609029447,high,low,,ISIC_9848743.JPG,9,ISIC_0059219.JPG,28,false,0.2400000000000001,hl,keypress(j),0,false,587701.9000000358,587701.6000000238,585524.425,585725.1999999881,585541.097,587509.797,4,500,38,
break,html.Screen,10_37_1,2023-11-17T22:26:29.410Z,,,,,,,,,,,NaN,,,,,,,,high,low,,,,,,false,,,,,false,587702.6000000238,587702.4000000358,,587702.1000000238,,587509.797,4,500,,
break_continue,html.Screen,10_37_2,2023-11-17T22:26:29.411Z,,,,,,,,,,,NaN,,,,,,,,high,low,,,,,,false,,,,,false,587703.1000000238,587702.9000000358,,587702.8000000119,,587509.797,4,500,,
sequence,flow.Sequence,10_37,2023-11-17T22:26:29.411Z,,,,,,,,,,,2161.803000035812,completion,,,,,,,high,low,,,,,,false,,,,,false,587703.3000000119,587702.9000000358,585524.425,585725.1999999881,585541.097,587509.797,4,500,,
