sender,sender_type,sender_id,timestamp,meta,,age,blockNo,c1,c2,condition,control_tolerance,correct,correctResponse,duration,ended_on,f1,f1_high,f1_low,f2,f2_high,f2_low,feature_level1,feature_level2,gender,img_left,img_reveal,img_right,n_target_images,practice,range_tolerance,response,response_action,selection_duration,staircase,time_commit,time_end,time_render,time_run,time_show,time_switch,total_blocks,total_trials,trialNo,url
informed_consent,html.Screen,0,2023-11-17T20:31:02.525Z,"{""labjs_version"":""20.2.4"",""labjs_build"":{""flavor"":""development"",""commit"":""f5b4a49f956347addd546a832a3327688c2c0fef""},""location"":""https://labjs.felixhenninger.com/api/labjs_preview/index.html"",""userAgent"":""Mozilla/5.0 (Windows NT 10.0; Win64; x64) AppleWebKit/537.36 (KHTML, like Gecko) Chrome/119.0.0.0 Safari/537.36"",""platform"":""Win32"",""language"":""en-US"",""locale"":""en-US"",""timeZone"":""America/Chicago"",""timezoneOffset"":360,""screen_width"":1680,""screen_height"":1050,""scroll_width"":825,""scroll_height"":888,""window_innerWidth"":825,""window_innerHeight"":936,""devicePixelRatio"":1}",,,,,,,,,,19107.727999952316,response,,,,,,,,,,,,,,,,consent,click button,,,19835.599999904633,19827.799999952316,703.362,932.1999999284744,720.072,19640.471,,,,{}
Demography form,html.Form,1,2023-11-17T20:31:18.606Z,,,19,,,,,,,,16276.128999904631,form submission,,,,,,,,,female,,,,,,,,,,,35916.799999952316,35916.59999990463,19623.556,19835.799999952316,19640.471,35704.805,,,,
Welcome,html.Screen,2,2023-11-17T20:31:35.934Z,,,,,,,"[""asym"",""bor""]",,,,17538.994999952316,response,,,,,,,,,,,,,,,,continue,click button,,,53244.299999952316,53243.799999952316,35688.319,35916.799999952316,35704.805,53038.463,,,,
demo_instructions,html.Screen,3,2023-11-17T20:31:45.190Z,,,,,,,,,,,9461.336999952313,response,,,,,,,,,,,,,,,,continue,click button,,,62500.299999952316,62499.799999952316,53021.934,53244.39999997616,53038.463,62306.546,,,,
trial,html.Screen,4_0_0,2023-11-17T20:31:55.510Z,,,,0,1.4092385398614515,-1.3046237992197836,,,true,lh,10514.153999928472,response,-0.9454713230140772,1.2,-1.2,0.9245167441969216,1.2,-1.2,low,high,,ISIC_7254359.JPG,,ISIC_9101055.JPG,26,true,0.3600000000000002,lh,keypress(e),100,false,72820.79999995232,72820.69999992847,62273.357,62500.59999990463,62306.546,72626.628,1,16,1,
sequence,flow.Sequence,4_0,2023-11-17T20:31:55.511Z,,,,,,,,,,,10514.153999928472,completion,,,,,,,low,high,,,,,,true,,,,,false,72821.09999990463,72820.69999992847,62273.357,62500.5,62306.546,72626.628,1,16,,
trial,html.Screen,4_1_0,2023-11-17T20:31:57.896Z,,,,0,1.0213365328004047,-1.088524359911891,,,true,lh,2579.4719999046356,response,-0.8487429103619056,1.2,-1.2,0.9778257804233036,1.2,-1.2,low,high,,ISIC_5434229.JPG,,ISIC_4554863.JPG,33,true,0.42000000000000026,lh,keypress(e),100,false,75206.29999995232,75206.09999990463,72609.916,72821.19999992847,72626.628,75014.763,1,16,2,
sequence,flow.Sequence,4_1,2023-11-17T20:31:57.896Z,,,,,,,,,,,2579.4719999046356,completion,,,,,,,low,high,,,,,,true,,,,,false,75206.39999997616,75206.09999990463,72609.916,72821.09999990463,72626.628,75014.763,1,16,,
trial,html.Screen,4_2_0,2023-11-17T20:32:02.152Z,,,,0,0.7998855902596425,-1.1518579145663017,,,true,lh,4447.636999976152,response,-1.2364994561934892,1.2,-1.2,0.9174173651516624,1.2,-1.2,low,high,,ISIC_0025061.JPG,,ISIC_3481133.JPG,33,true,0.42000000000000026,lh,keypress(e),100,false,79462.5,79462.39999997616,74997.916,75206.5,75014.763,79273.016,1,16,3,
sequence,flow.Sequence,4_2,2023-11-17T20:32:02.152Z,,,,,,,,,,,4447.636999976152,completion,,,,,,,low,high,,,,,,true,,,,,false,79462.69999992847,79462.39999997616,74997.916,75206.39999997616,75014.763,79273.016,1,16,,
trial,html.Screen,4_3_0,2023-11-17T20:32:04.472Z,,,,0,0.8200962008791046,-0.7936051642828523,,,true,lh,2509.0839999046293,response,-0.9696118525781644,1.2,-1.2,0.9244148283103414,1.2,-1.2,low,high,,ISIC_0027031.JPG,,ISIC_7927525.JPG,33,true,0.42000000000000026,lh,keypress(e),100,false,81782.29999995232,81782.09999990463,79256.201,79462.79999995232,79273.016,81594.196,1,16,4,
sequence,flow.Sequence,4_3,2023-11-17T20:32:04.472Z,,,,,,,,,,,2509.0839999046293,completion,,,,,,,low,high,,,,,,true,,,,,false,81782.5,81782.09999990463,79256.201,79462.79999995232,79273.016,81594.196,1,16,,
trial,html.Screen,4_4_0,2023-11-17T20:32:07.467Z,,,,0,1.1253220985777015,1.108725659461368,,,true,ll,3183.4039999046363,response,-0.8005752697082944,1.2,-1.2,-0.8062281749376046,1.2,-1.2,low,low,,ISIC_0054954.JPG,,ISIC_0031104.JPG,253,true,0.42000000000000026,ll,keypress(f),100,false,84777.79999995232,84777.59999990463,81577.505,81782.69999992847,81594.196,84583.412,1,16,5,
sequence,flow.Sequence,4_4,2023-11-17T20:32:07.467Z,,,,,,,,,,,3183.4039999046363,completion,,,,,,,low,low,,,,,,true,,,,,false,84777.89999997616,84777.59999990463,81577.505,81782.59999990463,81594.196,84583.412,1,16,,
trial,html.Screen,4_5_0,2023-11-17T20:32:09.204Z,,,,0,1.242586748440878,1.1207933200172129,,,true,ll,1930.7879999284778,response,-1.2711018615747949,1.2,-1.2,-1.1042234044781618,1.2,-1.2,low,low,,ISIC_0013073.JPG,,ISIC_8603734.JPG,26,true,0.15000000000000002,ll,keypress(f),100,false,86514.5,86514.19999992847,84566.473,84778,84583.412,86319.945,1,16,6,
sequence,flow.Sequence,4_5,2023-11-17T20:32:09.205Z,,,,,,,,,,,1930.7879999284778,completion,,,,,,,low,low,,,,,,true,,,,,false,86515,86514.19999992847,84566.473,84778,84583.412,86319.945,1,16,,
trial,html.Screen,4_6_0,2023-11-17T20:32:11.138Z,,,,0,1.2923059965680113,1.222688159093534,,,true,ll,2128.1549999046256,response,-1.2706447584800626,1.2,-1.2,-1.0903308007916603,1.2,-1.2,low,low,,ISIC_0072175.JPG,,ISIC_9425937.JPG,26,true,0.15000000000000002,ll,keypress(f),100,false,88448.29999995232,88448.09999990463,86303.287,86515.19999992847,86319.945,88257.047,1,16,7,
sequence,flow.Sequence,4_6,2023-11-17T20:32:11.138Z,,,,,,,,,,,2128.1549999046256,completion,,,,,,,low,low,,,,,,true,,,,,false,88448.59999990463,88448.09999990463,86303.287,86515.19999992847,86319.945,88257.047,1,16,,
trial,html.Screen,4_7_0,2023-11-17T20:32:12.730Z,,,,0,1.242586748440878,1.1207933200172129,,,true,ll,1783.2529999523103,response,-1.241406480986552,1.2,-1.2,-1.081912821786771,1.2,-1.2,low,low,,ISIC_0013073.JPG,,ISIC_4223155.JPG,26,true,0.15000000000000002,ll,keypress(f),100,false,90040.5,90040.29999995232,88240.344,88448.79999995232,88257.047,89843.419,1,16,8,
sequence,flow.Sequence,4_7,2023-11-17T20:32:12.730Z,,,,,,,,,,,1783.2529999523103,completion,,,,,,,low,low,,,,,,true,,,,,false,90040.69999992847,90040.29999995232,88240.344,88448.69999992847,88257.047,89843.419,1,16,,
trial,html.Screen,4_8_0,2023-11-17T20:32:14.872Z,,,,0,-0.9696118525781644,0.9244148283103414,,,true,hl,2339.0810000000056,response,1.0022829373011404,1.2,-1.2,-0.8311726972863814,1.2,-1.2,high,low,,ISIC_7927525.JPG,,ISIC_0033287.JPG,27,true,0.42000000000000026,hl,keypress(j),100,false,92182.69999992847,92182.5,89826.953,90040.89999997616,89843.419,91997.651,1,16,9,
sequence,flow.Sequence,4_8,2023-11-17T20:32:14.872Z,,,,,,,,,,,2339.0810000000056,completion,,,,,,,high,low,,,,,,true,,,,,false,92182.89999997616,92182.5,89826.953,90040.89999997616,89843.419,91997.651,1,16,,
trial,html.Screen,4_9_0,2023-11-17T20:32:16.313Z,,,,0,-0.991282840649944,0.9397921099839784,,,true,hl,1625.349000000002,response,0.9235571765207048,1.2,-1.2,-1.0008081653938232,1.2,-1.2,high,low,,ISIC_0000463.JPG,,ISIC_8796632.JPG,27,true,0.42000000000000026,hl,keypress(j),100,false,93623.09999990463,93623,91980.946,92182.89999997616,91997.651,93433.72,1,16,10,
sequence,flow.Sequence,4_9,2023-11-17T20:32:16.313Z,,,,,,,,,,,1625.349000000002,completion,,,,,,,high,low,,,,,,true,,,,,false,93623.29999995232,93623,91980.946,92182.89999997616,91997.651,93433.72,1,16,,
trial,html.Screen,4_10_0,2023-11-17T20:32:17.938Z,,,,0,-0.8534691366511764,1.03975580494588,,,true,hl,1814.2799999999988,response,0.8035152873995188,1.2,-1.2,-0.82868450251632,1.2,-1.2,high,low,,ISIC_0056788.JPG,,ISIC_0010671.JPG,27,true,0.42000000000000026,hl,keypress(j),100,false,95248.09999990463,95248,93417.091,93623.29999995232,93433.72,95053.509,1,16,11,
sequence,flow.Sequence,4_10,2023-11-17T20:32:17.938Z,,,,,,,,,,,1814.2799999999988,completion,,,,,,,high,low,,,,,,true,,,,,false,95248.29999995232,95248,93417.091,93623.29999995232,93433.72,95053.509,1,16,,
trial,html.Screen,4_11_0,2023-11-17T20:32:19.492Z,,,,0,-0.9433720631499012,1.0582071940347648,,,true,hl,1748.4909999999945,response,1.0264463986917702,1.2,-1.2,-1.2804054832904397,1.2,-1.2,high,low,,ISIC_4890201.JPG,,ISIC_7889838.JPG,27,true,0.42000000000000026,hl,keypress(j),100,false,96802.19999992847,96802,95036.843,95248.29999995232,95053.509,96606.584,1,16,12,
sequence,flow.Sequence,4_11,2023-11-17T20:32:19.492Z,,,,,,,,,,,1748.4909999999945,completion,,,,,,,high,low,,,,,,true,,,,,false,96802.5,96802,95036.843,95248.29999995232,95053.509,96606.584,1,16,,
trial,html.Screen,4_12_0,2023-11-17T20:32:21.036Z,,,,0,-1.2024083555600384,-1.149077673153018,,,true,hh,1739.6159999284719,response,1.2181031651370575,1.2,-1.2,1.2158573487067317,1.2,-1.2,high,high,,ISIC_3566243.JPG,,ISIC_7242312.JPG,245,true,0.3600000000000002,hh,keypress(i),100,false,98346.29999995232,98346.19999992847,96589.938,96802.59999990463,96606.584,98159.747,1,16,13,
sequence,flow.Sequence,4_12,2023-11-17T20:32:21.036Z,,,,,,,,,,,1739.6159999284719,completion,,,,,,,high,high,,,,,,true,,,,,false,98346.5,98346.19999992847,96589.938,96802.5,96606.584,98159.747,1,16,,
trial,html.Screen,4_13_0,2023-11-17T20:32:22.641Z,,,,0,-1.0858641668099058,-1.1638942560200525,,,true,hh,1791.1529999761551,response,1.1783311757907324,1.2,-1.2,1.0915173513546716,1.2,-1.2,high,high,,ISIC_5439597.JPG,,ISIC_8241457.JPG,53,true,0.15000000000000002,hh,keypress(i),100,false,99951,99950.89999997616,98143.176,98346.59999990463,98159.747,99762.838,1,16,14,
sequence,flow.Sequence,4_13,2023-11-17T20:32:22.641Z,,,,,,,,,,,1791.1529999761551,completion,,,,,,,high,high,,,,,,true,,,,,false,99951.29999995232,99950.89999997616,98143.176,98346.59999990463,98159.747,99762.838,1,16,,
trial,html.Screen,4_14_0,2023-11-17T20:32:24.071Z,,,,0,-1.0870240111136478,-1.332340670965917,,,true,hh,1618.5619999761548,response,1.2493792664822851,1.2,-1.2,1.1336008561684745,1.2,-1.2,high,high,,ISIC_0000660.JPG,,ISIC_0061475.JPG,53,true,0.15000000000000002,hh,keypress(i),100,false,101381.79999995232,101381.39999997616,99746.14,99951.29999995232,99762.838,101199.031,1,16,15,
sequence,flow.Sequence,4_14,2023-11-17T20:32:24.072Z,,,,,,,,,,,1618.5619999761548,completion,,,,,,,high,high,,,,,,true,,,,,false,101382.39999997616,101381.39999997616,99746.14,99951.29999995232,99762.838,101199.031,1,16,,
trial,html.Screen,4_15_0,2023-11-17T20:32:26.186Z,,,,0,-1.2503149164557643,-1.0796591227570405,,,true,hh,2297.6689999284717,response,1.0700930503975157,1.2,-1.2,1.2020012168275056,1.2,-1.2,high,high,,ISIC_2466892.JPG,,ISIC_0000022.JPG,53,true,0.15000000000000002,hh,keypress(i),100,false,103496.89999997616,103496.69999992847,101182.232,101382.79999995232,101199.031,103302.927,1,16,16,
sequence,flow.Sequence,4_15,2023-11-17T20:32:26.187Z,,,,,,,,,,,2297.6689999284717,completion,,,,,,,high,high,,,,,,true,,,,,false,103497.09999990463,103496.69999992847,101182.232,101382.69999992847,101199.031,103302.927,1,16,,
demonstration_loop,flow.Loop,4,2023-11-17T20:32:26.187Z,,,,,,,,,,,41190.15399992847,completion,,,,,,,,,,,,,,true,,,,,false,103497.19999992847,103496.69999992847,62273.357,62500.5,62306.546,103302.927,1,16,,
practice_instructions,html.Screen,5,2023-11-17T20:32:31.566Z,,,,,,,,,,,5564.87299995232,response,,,,,,,,,,,,,,,,continue,click button,,,108876.19999992847,108867.79999995232,103286.251,103497.19999992847,103302.927,108663.371,,,,
trial,html.Screen,6_0_0,2023-11-17T20:32:39.351Z,,,,1,1.2750452296609045,1.1682369131232675,,,false,ll,7997.328999928475,response,-1.3189473926989124,1.2,-1.2,-1.0770264364718942,1.2,-1.2,low,low,,ISIC_0066399.JPG,,ISIC_6093728.JPG,26,true,0.15000000000000002,lh,keypress(e),0,false,116660.89999997616,116660.69999992847,108646.63,108876.19999992847,108663.371,116478.57,1,40,1,
sequence,flow.Sequence,6_0,2023-11-17T20:32:39.351Z,,,,,,,,,,,7997.328999928475,completion,,,,,,,low,low,,,,,,true,,,,,false,116661.19999992847,116660.69999992847,108646.63,108876.19999992847,108663.371,116478.57,1,40,,
trial,html.Screen,6_1_0,2023-11-17T20:32:49.167Z,,,,1,0.8655167308525522,-0.9298580423306444,,,false,lh,9997.929999999993,response,-1.2075172235545184,1.2,-1.2,0.9116724966267612,1.2,-1.2,low,high,,ISIC_4603706.JPG,,ISIC_0024235.JPG,26,true,0.3600000000000002,hl,keypress(j),0,false,126476.59999990463,126476.5,116461.873,116661.29999995232,116478.57,126282.195,1,40,2,
sequence,flow.Sequence,6_1,2023-11-17T20:32:49.167Z,,,,,,,,,,,9997.929999999993,completion,,,,,,,low,high,,,,,,true,,,,,false,126476.69999992847,126476.5,116461.873,116661.19999992847,116478.57,126282.195,1,40,,
trial,html.Screen,6_2_0,2023-11-17T20:32:59.047Z,,,,1,1.0164576835546473,-0.8120626538423016,,,false,lh,10074.904999904626,response,-0.7836356408583546,1.2,-1.2,1.1197925594706428,1.2,-1.2,low,high,,ISIC_6002694.JPG,,ISIC_0024961.JPG,33,true,0.42000000000000026,hh,keypress(i),0,false,136357.39999997616,136357.09999990463,126247.713,126476.79999995232,126282.195,136150.162,1,40,3,
sequence,flow.Sequence,6_2,2023-11-17T20:32:59.048Z,,,,,,,,,,,10074.904999904626,completion,,,,,,,low,high,,,,,,true,,,,,false,136357.79999995232,136357.09999990463,126247.713,126476.79999995232,126282.195,136150.162,1,40,,
trial,html.Screen,6_3_0,2023-11-17T20:33:06.774Z,,,,1,1.2071341803968807,1.235960269089932,,,false,ll,7934.137999952305,response,-1.1920465299859582,1.2,-1.2,-0.9548921292696696,1.2,-1.2,low,low,,ISIC_0058174.JPG,,ISIC_5566396.JPG,253,true,0.42000000000000026,lh,keypress(e),0,false,144084.39999997616,144084.29999995232,136133.602,136358,136150.162,143898.547,1,40,4,
sequence,flow.Sequence,6_3,2023-11-17T20:33:06.775Z,,,,,,,,,,,7934.137999952305,completion,,,,,,,low,low,,,,,,true,,,,,false,144084.59999990463,144084.29999995232,136133.602,136358,136150.162,143898.547,1,40,,
trial,html.Screen,6_4_0,2023-11-17T20:33:19.575Z,,,,1,-1.1181734135756094,0.944560381774994,,,true,hl,12986.252999952325,response,0.7809949855371787,1.2,-1.2,-0.8493861117004308,1.2,-1.2,high,low,,ISIC_9688534.JPG,,ISIC_7450481.JPG,27,true,0.42000000000000026,hl,keypress(j),0,false,156884.89999997616,156884.79999995232,143865.304,144084.69999992847,143898.547,156691.346,1,40,5,
sequence,flow.Sequence,6_4,2023-11-17T20:33:19.575Z,,,,,,,,,,,12986.252999952325,completion,,,,,,,high,low,,,,,,true,,,,,false,156885.19999992847,156884.79999995232,143865.304,144084.69999992847,143898.547,156691.346,1,40,,
trial,html.Screen,6_5_0,2023-11-17T20:33:26.262Z,,,,1,-0.879102500583965,1.0933081951979773,,,false,hl,6880.65400000001,response,1.0115965332688306,1.2,-1.2,-0.8282633603842442,1.2,-1.2,high,low,,ISIC_0046223.JPG,,ISIC_1069587.JPG,27,true,0.42000000000000026,hh,keypress(i),0,false,163572.19999992847,163572,156656.832,156885.29999995232,156691.346,163369.769,1,40,6,
sequence,flow.Sequence,6_5,2023-11-17T20:33:26.262Z,,,,,,,,,,,6880.65400000001,completion,,,,,,,high,low,,,,,,true,,,,,false,163572.39999997616,163572,156656.832,156885.29999995232,156691.346,163369.769,1,40,,
trial,html.Screen,6_6_0,2023-11-17T20:33:32.975Z,,,,1,-1.3411179702686655,-1.255103311449152,,,false,hh,6914.530999952316,response,0.8412335938415739,1.2,-1.2,1.3827079577591244,1.2,-1.2,high,high,,ISIC_5611010.JPG,,ISIC_0028655.JPG,245,true,0.3600000000000002,ll,keypress(f),0,false,170284.39999997616,170284.29999995232,163353.12,163572.39999997616,163369.769,170099.492,1,40,7,
sequence,flow.Sequence,6_6,2023-11-17T20:33:32.975Z,,,,,,,,,,,6914.530999952316,completion,,,,,,,high,high,,,,,,true,,,,,false,170284.59999990463,170284.29999995232,163353.12,163572.39999997616,163369.769,170099.492,1,40,,
trial,html.Screen,6_7_0,2023-11-17T20:33:43.479Z,,,,1,-1.0751036484083878,1.143906455483852,,,false,hl,10688.607999904634,response,1.0213365328004047,1.2,-1.2,-1.088524359911891,1.2,-1.2,high,low,,ISIC_0064406.JPG,,ISIC_5434229.JPG,27,true,0.42000000000000026,hh,keypress(i),0,false,180788.19999992847,180788.09999990463,170066.257,170284.69999992847,170099.492,180586.691,1,40,8,
sequence,flow.Sequence,6_7,2023-11-17T20:33:43.479Z,,,,,,,,,,,10688.607999904634,completion,,,,,,,high,low,,,,,,true,,,,,false,180788.29999995232,180788.09999990463,170066.257,170284.69999992847,170099.492,180586.691,1,40,,
trial,html.Screen,6_8_0,2023-11-17T20:33:49.943Z,,,,1,1.185875658992962,1.2635548590325487,,,true,ll,6665.908999904641,response,-1.435795807813916,1.2,-1.2,-1.2137719707563364,1.2,-1.2,low,low,,ISIC_0011703.JPG,,ISIC_0025579.JPG,179,true,0.3600000000000002,ll,keypress(f),0,false,187252.79999995232,187252.59999990463,180569.789,180788.39999997616,180586.691,187082.556,1,40,9,
sequence,flow.Sequence,6_8,2023-11-17T20:33:49.944Z,,,,,,,,,,,6665.908999904641,completion,,,,,,,low,low,,,,,,true,,,,,false,187253.19999992847,187252.59999990463,180569.789,180788.39999997616,180586.691,187082.556,1,40,,
trial,html.Screen,6_9_0,2023-11-17T20:33:58.615Z,,,,1,0.8816288864119318,-0.801867301188093,,,true,lh,8842.043999904621,response,-1.0865333402803938,1.2,-1.2,1.0542635307358266,1.2,-1.2,low,high,,ISIC_9196783.JPG,,ISIC_0034006.JPG,26,true,0.3600000000000002,lh,keypress(e),0,false,195924.69999992847,195924.59999990463,187032.499,187253.29999995232,187082.556,195732.701,1,40,10,
sequence,flow.Sequence,6_9,2023-11-17T20:33:58.615Z,,,,,,,,,,,8842.043999904621,completion,,,,,,,low,high,,,,,,true,,,,,false,195924.79999995232,195924.59999990463,187032.499,187253.29999995232,187082.556,195732.701,1,40,,
trial,html.Screen,6_10_0,2023-11-17T20:34:08.471Z,,,,1,-0.8487429103619056,0.9778257804233036,,,false,hl,10047.798999999999,response,0.8947611078712571,1.2,-1.2,-0.8960964505004638,1.2,-1.2,high,low,,ISIC_4554863.JPG,,ISIC_6441128.JPG,27,true,0.42000000000000026,lh,keypress(e),0,false,205780.59999990463,205780.5,195699.441,195924.89999997616,195732.701,205586.532,1,40,11,
sequence,flow.Sequence,6_10,2023-11-17T20:34:08.471Z,,,,,,,,,,,10047.798999999999,completion,,,,,,,high,low,,,,,,true,,,,,false,205780.79999995232,205780.5,195699.441,195924.89999997616,195732.701,205586.532,1,40,,
trial,html.Screen,6_11_0,2023-11-17T20:34:17.095Z,,,,1,-1.057008495826831,-1.1278122585028287,,,false,hh,8818.26799995231,response,0.8575434403995947,1.2,-1.2,1.303262084433942,1.2,-1.2,high,high,,ISIC_2819798.JPG,,ISIC_0064563.JPG,245,true,0.3600000000000002,ll,keypress(f),0,false,214405,214404.79999995232,205551.977,205781,205586.532,214201.939,1,40,12,
sequence,flow.Sequence,6_11,2023-11-17T20:34:17.096Z,,,,,,,,,,,8818.26799995231,completion,,,,,,,high,high,,,,,,true,,,,,false,214405.29999995232,214404.79999995232,205551.977,205780.89999997616,205586.532,214201.939,1,40,,
trial,html.Screen,6_12_0,2023-11-17T20:34:28.439Z,,,,1,1.1383813631375823,1.1319312220332556,,,false,ll,11546.560999999987,response,-1.057008495826831,1.2,-1.2,-1.1278122585028287,1.2,-1.2,low,low,,ISIC_6227397.JPG,,ISIC_2819798.JPG,26,true,0.15000000000000002,hl,keypress(j),0,false,225748.69999992847,225748.5,214185.371,214405.5,214201.939,225557.366,1,40,13,
sequence,flow.Sequence,6_12,2023-11-17T20:34:28.439Z,,,,,,,,,,,11546.560999999987,completion,,,,,,,low,low,,,,,,true,,,,,false,225749.09999990463,225748.5,214185.371,214405.39999997616,214201.939,225557.366,1,40,,
trial,html.Screen,6_13_0,2023-11-17T20:34:44.249Z,,,,1,-0.858338058340649,0.9540612223480284,,,,,15797.39499999999,timeout,0.9873794329144926,1.2,-1.2,-0.7991077882008257,1.2,-1.2,high,low,,ISIC_8922893.JPG,,ISIC_0013498.JPG,27,true,0.42000000000000026,,,0,false,241558.19999992847,241558.09999990463,225523.978,225749.29999995232,225557.366,241354.761,1,40,14,
sequence,flow.Sequence,6_13,2023-11-17T20:34:44.249Z,,,,,,,,,,,16000.733999904623,completion,,,,,,,high,low,,,,,,true,,,,,false,241558.39999997616,241558.09999990463,225523.978,225749.29999995232,225557.366,241354.761,1,40,,
trial,html.Screen,6_14_0,2023-11-17T20:34:49.448Z,,,,1,1.2249552940807693,1.1723015116910682,,,true,ll,5402.1389999761595,response,-0.9612329482175124,1.2,-1.2,-0.8723650867900061,1.2,-1.2,low,low,,ISIC_0055251.JPG,,ISIC_4563766.JPG,179,true,0.3600000000000002,ll,keypress(f),0,false,246757.19999992847,246756.89999997616,241338.319,241558.5,241354.761,246564.882,1,40,15,
sequence,flow.Sequence,6_14,2023-11-17T20:34:49.448Z,,,,,,,,,,,5402.1389999761595,completion,,,,,,,low,low,,,,,,true,,,,,false,246757.5,246756.89999997616,241338.319,241558.5,241354.761,246564.882,1,40,,
trial,html.Screen,6_15_0,2023-11-17T20:34:56.856Z,,,,1,-0.8809306963311293,0.8614910030038974,,,false,hl,7600.017999976146,response,1.0264463986917702,1.2,-1.2,-1.2804054832904397,1.2,-1.2,high,low,,ISIC_0013731.JPG,,ISIC_7889838.JPG,27,true,0.42000000000000026,lh,keypress(e),0,false,254165.09999990463,254164.89999997616,246531.561,246757.59999990463,246564.882,253962.595,1,40,16,
sequence,flow.Sequence,6_15,2023-11-17T20:34:56.856Z,,,,,,,,,,,7600.017999976146,completion,,,,,,,high,low,,,,,,true,,,,,false,254165.5,254164.89999997616,246531.561,246757.5,246564.882,253962.595,1,40,,
trial,html.Screen,6_16_0,2023-11-17T20:35:00.358Z,,,,1,-1.1653123206802332,-1.2976858999596654,,,true,hh,3705.304999976157,response,1.4649428578096495,1.2,-1.2,1.1067521641107156,1.2,-1.2,high,high,,ISIC_0071508.JPG,,ISIC_0024427.JPG,245,true,0.3600000000000002,hh,keypress(i),0,false,257668,257667.89999997616,253946.084,254165.69999992847,253962.595,257469.439,1,40,17,
sequence,flow.Sequence,6_16,2023-11-17T20:35:00.359Z,,,,,,,,,,,3705.304999976157,completion,,,,,,,high,high,,,,,,true,,,,,false,257668.09999990463,257667.89999997616,253946.084,254165.59999990463,253962.595,257469.439,1,40,,
trial,html.Screen,6_17_0,2023-11-17T20:35:03.239Z,,,,1,1.0022829373011404,-0.8311726972863814,,,true,lh,3078.960999976145,response,-1.0026266089287914,1.2,-1.2,1.0913275913920335,1.2,-1.2,low,high,,ISIC_0033287.JPG,,ISIC_0033520.JPG,26,true,0.3600000000000002,lh,keypress(e),0,false,260548.59999990463,260548.39999997616,257452.832,257668.09999990463,257469.439,260341.68,1,40,18,
sequence,flow.Sequence,6_17,2023-11-17T20:35:03.239Z,,,,,,,,,,,3078.960999976145,completion,,,,,,,low,high,,,,,,true,,,,,false,260548.79999995232,260548.39999997616,257452.832,257668.09999990463,257469.439,260341.68,1,40,,
trial,html.Screen,6_18_0,2023-11-17T20:35:06.679Z,,,,1,-1.2331439637486756,0.9691143900156988,,,true,hl,3646.9199999046396,response,0.9873794329144926,1.2,-1.2,-0.7991077882008257,1.2,-1.2,high,low,,ISIC_7877488.JPG,,ISIC_0013498.JPG,27,true,0.42000000000000026,hl,keypress(j),0,false,263988.89999997616,263988.59999990463,260325.139,260548.89999997616,260341.68,263781.708,1,40,19,
sequence,flow.Sequence,6_18,2023-11-17T20:35:06.680Z,,,,,,,,,,,3646.9199999046396,completion,,,,,,,high,low,,,,,,true,,,,,false,263989.1999999285,263988.59999990463,260325.139,260548.89999997616,260341.68,263781.708,1,40,,
trial,html.Screen,6_19_0,2023-11-17T20:35:11.679Z,,,,1,-1.201100953917304,-1.1751492358160105,,,true,hh,5207.191999976174,response,0.944747903577834,1.2,-1.2,1.2864399389701904,1.2,-1.2,high,high,,ISIC_0647224.JPG,,ISIC_0010886.JPG,245,true,0.3600000000000002,hh,keypress(i),0,false,268989,268988.89999997616,263765.204,263989.2999999523,263781.708,268791.504,1,40,20,
sequence,flow.Sequence,6_19,2023-11-17T20:35:11.680Z,,,,,,,,,,,5207.191999976174,completion,,,,,,,high,high,,,,,,true,,,,,false,268989.2999999523,268988.89999997616,263765.204,263989.2999999523,263781.708,268791.504,1,40,,
trial,html.Screen,6_20_0,2023-11-17T20:35:17.727Z,,,,1,-1.1653123206802332,-1.2976858999596654,,,false,hh,6244.495999999985,response,1.0698162624196283,1.2,-1.2,1.219634566983089,1.2,-1.2,high,high,,ISIC_0071508.JPG,,ISIC_0030552.JPG,53,true,0.15000000000000002,hl,keypress(j),0,false,275036.09999990463,275036,268774.785,268989.39999997616,268791.504,274836.557,1,40,21,
sequence,flow.Sequence,6_20,2023-11-17T20:35:17.727Z,,,,,,,,,,,6244.495999999985,completion,,,,,,,high,high,,,,,,true,,,,,false,275036.2999999523,275036,268774.785,268989.39999997616,268791.504,274836.557,1,40,,
trial,html.Screen,6_21_0,2023-11-17T20:35:21.119Z,,,,1,-1.0717785279820962,-1.1267239445830604,,,true,hh,3591.9430000000284,response,1.188743606919222,1.2,-1.2,1.0980226451001782,1.2,-1.2,high,high,,ISIC_9948815.JPG,,ISIC_0060481.JPG,53,true,0.15000000000000002,hh,keypress(i),0,false,278428.7999999523,278428.5,274819.797,275036.2999999523,274836.557,278226.703,1,40,22,
sequence,flow.Sequence,6_21,2023-11-17T20:35:21.120Z,,,,,,,,,,,3591.9430000000284,completion,,,,,,,high,high,,,,,,true,,,,,false,278429.09999990463,278428.5,274819.797,275036.2999999523,274836.557,278226.703,1,40,,
trial,html.Screen,6_22_0,2023-11-17T20:35:23.215Z,,,,1,1.101346104814838,1.1225813067473052,,,true,ll,2297.596999952337,response,-1.0959058628476686,1.2,-1.2,-1.1684835186766898,1.2,-1.2,low,low,,ISIC_8175453.JPG,,ISIC_5920470.JPG,26,true,0.15000000000000002,ll,keypress(f),0,false,280524.39999997616,280524.2999999523,278209.896,278429.2999999523,278226.703,280313.831,1,40,23,
sequence,flow.Sequence,6_22,2023-11-17T20:35:23.215Z,,,,,,,,,,,2297.596999952337,completion,,,,,,,low,low,,,,,,true,,,,,false,280524.5,280524.2999999523,278209.896,278429.2999999523,278226.703,280313.831,1,40,,
trial,html.Screen,6_23_0,2023-11-17T20:35:26.198Z,,,,1,1.29026082950341,1.144672688339213,,,true,ll,3193.868999928469,response,-1.0858641668099058,1.2,-1.2,-1.1638942560200525,1.2,-1.2,low,low,,ISIC_0054317.JPG,,ISIC_5439597.JPG,26,true,0.15000000000000002,ll,keypress(f),0,false,283507.7999999523,283507.6999999285,280297.309,280524.59999990463,280313.831,283319.734,1,40,24,
sequence,flow.Sequence,6_23,2023-11-17T20:35:26.198Z,,,,,,,,,,,3193.868999928469,completion,,,,,,,low,low,,,,,,true,,,,,false,283508,283507.6999999285,280297.309,280524.59999990463,280313.831,283319.734,1,40,,
trial,html.Screen,6_24_0,2023-11-17T20:35:29.839Z,,,,1,-1.4747161152848791,0.847048591307387,,,true,hl,3828.0659999523195,response,0.7998855902596425,1.2,-1.2,-1.1518579145663017,1.2,-1.2,high,low,,ISIC_0016092.JPG,,ISIC_0025061.JPG,27,true,0.42000000000000026,hl,keypress(j),0,false,287147.89999997616,287147.7999999523,283286.277,283508,283319.734,286943.405,1,40,25,
sequence,flow.Sequence,6_24,2023-11-17T20:35:29.839Z,,,,,,,,,,,3828.0659999523195,completion,,,,,,,high,low,,,,,,true,,,,,false,287148,287147.7999999523,283286.277,283508,283319.734,286943.405,1,40,,
trial,html.Screen,6_25_0,2023-11-17T20:35:32.631Z,,,,1,-1.331700944308701,0.9395196143259436,,,true,hl,2997.094999999972,response,0.8816288864119318,1.2,-1.2,-0.801867301188093,1.2,-1.2,high,low,,ISIC_1668831.JPG,,ISIC_9196783.JPG,27,true,0.42000000000000026,hl,keypress(j),0,false,289940.59999990463,289940.5,286926.705,287148.09999990463,286943.405,289732.197,1,40,26,
sequence,flow.Sequence,6_25,2023-11-17T20:35:32.632Z,,,,,,,,,,,2997.094999999972,completion,,,,,,,high,low,,,,,,true,,,,,false,289940.89999997616,289940.5,286926.705,287148.09999990463,286943.405,289732.197,1,40,,
trial,html.Screen,6_26_0,2023-11-17T20:35:35.711Z,,,,1,0.7870237732709365,-0.9172955251119376,,,true,lh,3288.3030000000144,response,-0.9696118525781644,1.2,-1.2,0.9244148283103414,1.2,-1.2,low,high,,ISIC_0057716.JPG,,ISIC_7927525.JPG,26,true,0.3600000000000002,lh,keypress(e),0,false,293020.59999990463,293020.5,289715.537,289941,289732.197,292821.496,1,40,27,
sequence,flow.Sequence,6_26,2023-11-17T20:35:35.711Z,,,,,,,,,,,3288.3030000000144,completion,,,,,,,low,high,,,,,,true,,,,,false,293020.7999999523,293020.5,289715.537,289940.89999997616,289732.197,292821.496,1,40,,
trial,html.Screen,6_27_0,2023-11-17T20:35:39.254Z,,,,1,0.948927472020595,-1.0660437155921598,,,true,lh,3742.20399992849,response,-0.9696118525781644,1.2,-1.2,0.9244148283103414,1.2,-1.2,low,high,,ISIC_5808758.JPG,,ISIC_7927525.JPG,33,true,0.42000000000000026,lh,keypress(e),0,false,296563.7999999523,296563.6999999285,292804.948,293020.89999997616,292821.496,296361.739,1,40,28,
sequence,flow.Sequence,6_27,2023-11-17T20:35:39.255Z,,,,,,,,,,,3742.20399992849,completion,,,,,,,low,high,,,,,,true,,,,,false,296563.89999997616,296563.6999999285,292804.948,293020.89999997616,292821.496,296361.739,1,40,,
trial,html.Screen,6_28_0,2023-11-17T20:35:41.911Z,,,,1,1.276222161935671,-0.9657780821973284,,,true,lh,2858.560999952315,response,-1.0656673213158945,1.2,-1.2,0.8082541692781954,1.2,-1.2,low,high,,ISIC_6710411.JPG,,ISIC_0033985.JPG,33,true,0.42000000000000026,lh,keypress(e),0,false,299220.5,299220.2999999523,296345.263,296563.89999997616,296361.739,299016.886,1,40,29,
sequence,flow.Sequence,6_28,2023-11-17T20:35:41.911Z,,,,,,,,,,,2858.560999952315,completion,,,,,,,low,high,,,,,,true,,,,,false,299220.7999999523,299220.2999999523,296345.263,296563.89999997616,296361.739,299016.886,1,40,,
trial,html.Screen,6_29_0,2023-11-17T20:35:46.431Z,,,,1,0.809764442462202,-1.005337148078696,,,true,lh,4723.0139999761595,response,-1.1181734135756094,1.2,-1.2,0.944560381774994,1.2,-1.2,low,high,,ISIC_2379379.JPG,,ISIC_9688534.JPG,33,true,0.42000000000000026,lh,keypress(e),0,false,303740,303739.89999997616,299000.406,299220.89999997616,299016.886,303542.355,1,40,30,
sequence,flow.Sequence,6_29,2023-11-17T20:35:46.431Z,,,,,,,,,,,4723.0139999761595,completion,,,,,,,low,high,,,,,,true,,,,,false,303740.09999990463,303739.89999997616,299000.406,299220.89999997616,299016.886,303542.355,1,40,,
trial,html.Screen,6_30_0,2023-11-17T20:35:51.703Z,,,,1,-1.020990671779317,1.0116513850520903,,,true,hl,5470.044999976177,response,0.8092423703106274,1.2,-1.2,-1.1870093485714288,1.2,-1.2,high,low,,ISIC_0011995.JPG,,ISIC_8592235.JPG,27,true,0.42000000000000026,hl,keypress(j),0,false,309012.5,309012.39999997616,303525.762,303740.1999999285,303542.355,308802.602,1,40,31,
sequence,flow.Sequence,6_30,2023-11-17T20:35:51.703Z,,,,,,,,,,,5470.044999976177,completion,,,,,,,high,low,,,,,,true,,,,,false,309012.7999999523,309012.39999997616,303525.762,303740.1999999285,303542.355,308802.602,1,40,,
trial,html.Screen,6_31_0,2023-11-17T20:35:54.039Z,,,,1,-1.2503149164557643,-1.0796591227570405,,,true,hh,2545.697999952303,response,0.9787884514439864,1.2,-1.2,1.139528725910855,1.2,-1.2,high,high,,ISIC_2466892.JPG,,ISIC_0032726.JPG,245,true,0.3600000000000002,hh,keypress(i),0,false,311348.5,311348.2999999523,308785.924,309012.89999997616,308802.602,311140.476,1,40,32,
sequence,flow.Sequence,6_31,2023-11-17T20:35:54.039Z,,,,,,,,,,,2545.697999952303,completion,,,,,,,high,high,,,,,,true,,,,,false,311348.6999999285,311348.2999999523,308785.924,309012.7999999523,308802.602,311140.476,1,40,,
trial,html.Screen,6_32_0,2023-11-17T20:35:58.623Z,,,,1,1.1877026569952844,1.1604367569896263,,,true,ll,4791.623999904608,response,-1.1137763092539212,1.2,-1.2,-1.1599906701455132,1.2,-1.2,low,low,,ISIC_0064589.JPG,,ISIC_5413788.JPG,26,true,0.15000000000000002,ll,keypress(f),0,false,315932.2999999523,315932.09999990463,311123.949,311348.7999999523,311140.476,315732.846,1,40,33,
sequence,flow.Sequence,6_32,2023-11-17T20:35:58.623Z,,,,,,,,,,,4791.623999904608,completion,,,,,,,low,low,,,,,,true,,,,,false,315932.39999997616,315932.09999990463,311123.949,311348.7999999523,311140.476,315732.846,1,40,,
trial,html.Screen,6_33_0,2023-11-17T20:36:04.335Z,,,,1,-1.057008495826831,-1.1278122585028287,,,true,hh,5911.15399999998,response,1.272699544571422,1.2,-1.2,1.12917997553565,1.2,-1.2,high,high,,ISIC_2819798.JPG,,ISIC_0012057.JPG,30,true,0.1,hh,keypress(i),0,false,321644.09999990463,321644,315716.22,315932.39999997616,315732.846,321444.033,1,40,34,
sequence,flow.Sequence,6_33,2023-11-17T20:36:04.335Z,,,,,,,,,,,5911.15399999998,completion,,,,,,,high,high,,,,,,true,,,,,false,321644.2999999523,321644,315716.22,315932.39999997616,315732.846,321444.033,1,40,,
trial,html.Screen,6_34_0,2023-11-17T20:36:09.527Z,,,,1,1.247270138097585,1.1704704713504994,,,true,ll,5392.366999976162,response,-1.201100953917304,1.2,-1.2,-1.1751492358160105,1.2,-1.2,low,low,,ISIC_0065774.JPG,,ISIC_0647224.JPG,26,true,0.15000000000000002,ll,keypress(f),0,false,326836.7999999523,326836.39999997616,321427.1,321644.39999997616,321444.033,326637.357,1,40,35,
sequence,flow.Sequence,6_34,2023-11-17T20:36:09.528Z,,,,,,,,,,,5392.366999976162,completion,,,,,,,low,low,,,,,,true,,,,,false,326837.2999999523,326836.39999997616,321427.1,321644.39999997616,321444.033,326637.357,1,40,,
trial,html.Screen,6_35_0,2023-11-17T20:36:12.111Z,,,,1,1.126264390089724,1.271896565050952,,,true,ll,2782.7429999046144,response,-1.1137763092539212,1.2,-1.2,-1.1599906701455132,1.2,-1.2,low,low,,ISIC_1520897.JPG,,ISIC_5413788.JPG,26,true,0.15000000000000002,ll,keypress(f),0,false,329420.09999990463,329420.09999990463,326620.699,326837.5,326637.357,329208.952,1,40,36,
sequence,flow.Sequence,6_35,2023-11-17T20:36:12.111Z,,,,,,,,,,,2782.7429999046144,completion,,,,,,,low,low,,,,,,true,,,,,false,329420.2999999523,329420.09999990463,326620.699,326837.39999997616,326637.357,329208.952,1,40,,
trial,html.Screen,6_36_0,2023-11-17T20:36:14.247Z,,,,1,-1.0717785279820962,-1.1267239445830604,,,true,hh,2347.54800000001,response,1.2750452296609045,1.2,-1.2,1.1682369131232675,1.2,-1.2,high,high,,ISIC_9948815.JPG,,ISIC_0066399.JPG,30,true,0.1,hh,keypress(i),0,false,331556.6999999285,331556.5,329192.265,329420.2999999523,329208.952,331379.853,1,40,37,
sequence,flow.Sequence,6_36,2023-11-17T20:36:14.248Z,,,,,,,,,,,2347.54800000001,completion,,,,,,,high,high,,,,,,true,,,,,false,331556.89999997616,331556.5,329192.265,329420.2999999523,329208.952,331379.853,1,40,,
trial,html.Screen,6_37_0,2023-11-17T20:36:17.190Z,,,,1,0.8816288864119318,-0.801867301188093,,,true,lh,3119.8469999284716,response,-0.879102500583965,1.2,-1.2,1.0933081951979773,1.2,-1.2,low,high,,ISIC_9196783.JPG,,ISIC_0046223.JPG,26,true,0.3600000000000002,lh,keypress(e),0,false,334499.7999999523,334499.6999999285,331329.96,331557.09999990463,331379.853,334302.27,1,40,38,
sequence,flow.Sequence,6_37,2023-11-17T20:36:17.191Z,,,,,,,,,,,3119.8469999284716,completion,,,,,,,low,high,,,,,,true,,,,,false,334500,334499.6999999285,331329.96,331557,331379.853,334302.27,1,40,,
trial,html.Screen,6_38_0,2023-11-17T20:36:22.095Z,,,,1,0.9235571765207048,-1.0008081653938232,,,true,lh,5102.1299999761395,response,-1.4747161152848791,1.2,-1.2,0.847048591307387,1.2,-1.2,low,high,,ISIC_8796632.JPG,,ISIC_0016092.JPG,33,true,0.42000000000000026,lh,keypress(e),0,false,339404.59999990463,339404.39999997616,334285.634,334500,334302.27,339195.065,1,40,39,
sequence,flow.Sequence,6_38,2023-11-17T20:36:22.095Z,,,,,,,,,,,5102.1299999761395,completion,,,,,,,low,high,,,,,,true,,,,,false,339404.7999999523,339404.39999997616,334285.634,334500,334302.27,339195.065,1,40,,
trial,html.Screen,6_39_0,2023-11-17T20:36:24.607Z,,,,1,-1.2706447584800626,-1.0903308007916603,,,true,hh,2721.234999952314,response,0.8019171574297028,1.2,-1.2,1.0925160607978373,1.2,-1.2,high,high,,ISIC_9425937.JPG,,ISIC_0010925.JPG,339,true,0.42000000000000026,hh,keypress(i),0,false,341916.5,341916.2999999523,339178.319,339404.89999997616,339195.065,341716.817,1,40,40,
sequence,flow.Sequence,6_39,2023-11-17T20:36:24.607Z,,,,,,,,,,,2721.234999952314,completion,,,,,,,high,high,,,,,,true,,,,,false,341916.7999999523,341916.2999999523,339178.319,339404.7999999523,339195.065,341716.817,1,40,,
practice_loop,flow.Loop,6,2023-11-17T20:36:24.608Z,,,,,,,,,,,233252.92899995233,completion,,,,,,,,,,,,,,true,,,,,false,341917,341916.2999999523,108646.63,108876.19999992847,108663.371,341716.817,1,40,,
stair_instructions,html.Screen,7,2023-11-17T20:36:28.119Z,,,,,,,,,,,3710.683000000019,response,,,,,,,,,,,,,,,,continue,click button,,,345428,345427.5,341700.089,341917.09999990463,341716.817,345223.432,,,,
trial,html.Screen,8_0_0,2023-11-17T20:36:34.767Z,,,,2,-0.0134764727102299,-0.0033499036460912,,0.05,true,ll,6852.767999928503,response,-1.2711018615747949,1.2,-1.2,-1.1042234044781618,1.2,-1.2,low,low,,ISIC_0009998.JPG,,ISIC_8603734.JPG,26,false,0.15000000000000002,ll,keypress(f),0,true,352076.2999999523,352076.1999999285,345206.841,345428.1999999285,345223.432,351886.55,1,40,1,
sequence,flow.Sequence,8_0,2023-11-17T20:36:34.767Z,,,,,,,,,,,6852.767999928503,completion,,,,,,,low,low,,,,,,false,,,,,true,352076.39999997616,352076.1999999285,345206.841,345428.1999999285,345223.432,351886.55,1,40,,
trial,html.Screen,8_1_0,2023-11-17T20:36:39.047Z,,,,2,0.0329095507339554,-0.0382899749693245,,0.05,true,ll,4469.749999952328,response,-1.0717785279820962,1.15,-1.15,-1.1267239445830604,1.15,-1.15,low,low,,ISIC_8812781.JPG,,ISIC_9948815.JPG,30,false,0.13,ll,keypress(f),0,true,356356.5,356356.2999999523,351869.692,352076.5,351886.55,356162.056,1,40,2,
sequence,flow.Sequence,8_1,2023-11-17T20:36:39.047Z,,,,,,,,,,,4469.749999952328,completion,,,,,,,low,low,,,,,,false,,,,,true,356356.6999999285,356356.2999999523,351869.692,352076.39999997616,351886.55,356162.056,1,40,,
trial,html.Screen,8_2_0,2023-11-17T20:36:44.735Z,,,,2,0.0450282431170921,,,0.05,false,hl,5882.04399990465,response,0.9873794329144926,1.15,-1.065473674530611,-0.7991077882008257,1.15,-1.065473674530611,high,low,,ISIC_1805163.JPG,,ISIC_0013498.JPG,28,false,0.3600000000000002,hh,keypress(i),0,true,362044.1999999285,362044.09999990463,356128.087,356356.89999997616,356162.056,361839.108,1,40,3,
sequence,flow.Sequence,8_2,2023-11-17T20:36:44.735Z,,,,,,,,,,,5882.04399990465,completion,,,,,,,high,low,,,,,,false,,,,,true,362044.2999999523,362044.09999990463,356128.087,356356.7999999523,356162.056,361839.108,1,40,,
trial,html.Screen,8_3_0,2023-11-17T20:36:50.295Z,,,,2,0.0329095507339554,-0.0382899749693245,,0.05,false,hl,5765.391999999993,response,0.8092423703106274,1.15,-1.065473674530611,-1.1870093485714288,1.15,-1.115473674530611,high,low,,ISIC_8812781.JPG,,ISIC_8592235.JPG,29,false,0.3700000000000002,ll,keypress(f),0,true,367604.59999990463,367604.5,361822.508,362044.5,361839.108,367399.919,1,40,4,
sequence,flow.Sequence,8_3,2023-11-17T20:36:50.296Z,,,,,,,,,,,5765.391999999993,completion,,,,,,,high,low,,,,,,false,,,,,true,367604.7999999523,367604.5,361822.508,362044.5,361839.108,367399.919,1,40,,
trial,html.Screen,8_4_0,2023-11-17T20:36:55.143Z,,,,2,-0.0277178575053843,0.0395587463147856,,0.05,false,lh,5052.380999952322,response,-1.0026266089287914,1.15,-1.065473674530611,1.0913275913920335,1.15,-1.115473674530611,low,high,,ISIC_0010807.JPG,,ISIC_0033520.JPG,26,false,0.29000000000000015,ll,keypress(f),0,true,372452.39999997616,372452.2999999523,367383.375,367604.89999997616,367399.919,372259.348,1,40,5,
sequence,flow.Sequence,8_4,2023-11-17T20:36:55.143Z,,,,,,,,,,,5052.380999952322,completion,,,,,,,low,high,,,,,,false,,,,,true,372452.59999990463,372452.2999999523,367383.375,367604.89999997616,367399.919,372259.348,1,40,,
trial,html.Screen,8_5_0,2023-11-17T20:37:01.263Z,,,,2,0.0389988030702649,0.0143212271490256,,0.05,true,lh,6312.851999928476,response,-1.020990671779317,1.15,-1.065473674530611,1.0116513850520903,1.15,-1.115473674530611,low,high,,ISIC_0064669.JPG,,ISIC_0011995.JPG,26,false,0.29000000000000015,lh,keypress(e),0,true,378572.2999999523,378572.1999999285,372226.061,372452.6999999285,372259.348,378371.227,1,40,6,
sequence,flow.Sequence,8_5,2023-11-17T20:37:01.263Z,,,,,,,,,,,6312.851999928476,completion,,,,,,,low,high,,,,,,false,,,,,true,378572.59999990463,378572.1999999285,372226.061,372452.6999999285,372259.348,378371.227,1,40,,
trial,html.Screen,8_6_0,2023-11-17T20:37:08.199Z,,,,2,-0.0051189696037511,0.0396625911332438,,0.05,false,hl,7136.872999904619,response,0.8947611078712571,1.15,-1.015473674530611,-0.8960964505004638,1.15,-1.115473674530611,high,low,,ISIC_9742891.JPG,,ISIC_6441128.JPG,29,false,0.3700000000000002,ll,keypress(f),0,true,385508.1999999285,385508.09999990463,378354.725,378572.59999990463,378371.227,385301.376,1,40,7,
sequence,flow.Sequence,8_6,2023-11-17T20:37:08.199Z,,,,,,,,,,,7136.872999904619,completion,,,,,,,high,low,,,,,,false,,,,,true,385508.39999997616,385508.09999990463,378354.725,378572.59999990463,378371.227,385301.376,1,40,,
trial,html.Screen,8_7_0,2023-11-17T20:37:17.431Z,,,,2,-0.0112310719058792,0.0469047359904117,,0.05,false,lh,9438.423999952327,response,-1.2075172235545184,1.15,-1.015473674530611,0.9116724966267612,1.15,-1.065473674530611,low,high,,ISIC_0068184.JPG,,ISIC_0024235.JPG,25,false,0.2600000000000001,hl,keypress(j),0,true,394739.7999999523,394739.7999999523,385284.863,385508.39999997616,385301.376,394536.073,1,40,8,
sequence,flow.Sequence,8_7,2023-11-17T20:37:17.431Z,,,,,,,,,,,9438.423999952327,completion,,,,,,,low,high,,,,,,false,,,,,true,394739.89999997616,394739.7999999523,385284.863,385508.39999997616,385301.376,394536.073,1,40,,
trial,html.Screen,8_8_0,2023-11-17T20:37:23.015Z,,,,2,0.039728379742806,-0.0228701131373768,,0.05,true,ll,5787.826999976183,response,-1.0650525146668357,1.15,-1.065473674530611,-0.9852293825146712,1.15,-1.065473674530611,low,low,,ISIC_0054073.JPG,,ISIC_6642608.JPG,30,false,0.1,ll,keypress(f),0,true,400324.09999990463,400323.89999997616,394519.49,394740,394536.073,400113.516,1,40,9,
sequence,flow.Sequence,8_8,2023-11-17T20:37:23.015Z,,,,,,,,,,,5787.826999976183,completion,,,,,,,low,low,,,,,,false,,,,,true,400324.2999999523,400323.89999997616,394519.49,394740,394536.073,400113.516,1,40,,
trial,html.Screen,8_9_0,2023-11-17T20:37:27.447Z,,,,2,-0.0188047466661863,0.0288346930436979,,0.05,true,ll,4642.483999999997,response,-1.0909285203537074,1.15,-1.065473674530611,-1.013890238726642,1.15,-1.065473674530611,low,low,,ISIC_0014157.JPG,,ISIC_0033799.JPG,30,false,0.1,ll,keypress(f),0,true,404756.09999990463,404756,400096.813,400324.2999999523,400113.516,404555.486,1,40,10,
sequence,flow.Sequence,8_9,2023-11-17T20:37:27.447Z,,,,,,,,,,,4642.483999999997,completion,,,,,,,low,low,,,,,,false,,,,,true,404756.1999999285,404756,400096.813,400324.2999999523,400113.516,404555.486,1,40,,
trial,html.Screen,8_10_0,2023-11-17T20:37:32.759Z,,,,2,0.0085520978188085,-0.0464691161264081,,0.05,false,hl,5512.813999952341,response,1.0213365328004047,1.15,-0.9495598106206565,-1.088524359911891,1.15,-0.9495598106206565,high,low,,ISIC_0758797.JPG,,ISIC_5434229.JPG,25,false,0.31000000000000016,hh,keypress(i),0,true,410068.5,410068.2999999523,404538.922,404756.2999999523,404555.486,409865.84,1,40,11,
sequence,flow.Sequence,8_10,2023-11-17T20:37:32.760Z,,,,,,,,,,,5512.813999952341,completion,,,,,,,high,low,,,,,,false,,,,,true,410068.6999999285,410068.2999999523,404538.922,404756.1999999285,404555.486,409865.84,1,40,,
trial,html.Screen,8_11_0,2023-11-17T20:37:40.495Z,,,,2,-0.013431314305098,0.0140597582944232,,0.05,true,hl,7938.159999999974,response,1.276222161935671,1.15,-0.9495598106206565,-0.9657780821973284,1.15,-0.9995598106206566,high,low,,ISIC_0069617.JPG,,ISIC_6710411.JPG,26,false,0.3200000000000002,hl,keypress(j),0,true,417804.09999990463,417804,409849.298,410068.89999997616,409865.84,417597.528,1,40,12,
sequence,flow.Sequence,8_11,2023-11-17T20:37:40.495Z,,,,,,,,,,,7938.159999999974,completion,,,,,,,high,low,,,,,,false,,,,,true,417804.2999999523,417804,409849.298,410068.7999999523,409865.84,417597.528,1,40,,
trial,html.Screen,8_12_0,2023-11-17T20:37:45.215Z,,,,2,0.0217698886732706,-0.0410870915161425,,0.05,false,lh,4926.472000000009,response,-1.0026266089287914,1.0999999999999999,-0.9495598106206565,1.0913275913920335,1.15,-0.9995598106206566,low,high,,ISIC_0072173.JPG,,ISIC_0033520.JPG,25,false,0.2400000000000001,ll,keypress(f),0,true,422524.09999990463,422524,417580.934,417804.2999999523,417597.528,422323.474,1,40,13,
sequence,flow.Sequence,8_12,2023-11-17T20:37:45.215Z,,,,,,,,,,,4926.472000000009,completion,,,,,,,low,high,,,,,,false,,,,,true,422524.1999999285,422524,417580.934,417804.2999999523,417597.528,422323.474,1,40,,
trial,html.Screen,8_13_0,2023-11-17T20:38:01.011Z,,,,2,-0.0051189696037511,0.0396625911332438,,0.05,,,15797.319000000018,timeout,1.082730232773217,1.0999999999999999,-0.9495598106206565,1.2594580992890123,1.15,-0.9995598106206566,high,high,,ISIC_9742891.JPG,,ISIC_0011933.JPG,30,false,0.11,,,0,true,438320.59999990463,438320.39999997616,422306.818,422524.2999999523,422323.474,438120.793,1,40,14,
sequence,flow.Sequence,8_13,2023-11-17T20:38:01.012Z,,,,,,,,,,,15996.92599997617,completion,,,,,,,high,high,,,,,,false,,,,,true,438320.89999997616,438320.39999997616,422306.818,422524.2999999523,422323.474,438120.793,1,40,,
trial,html.Screen,8_14_0,2023-11-17T20:38:05.128Z,,,,2,0.0329095507339554,-0.0382899749693245,,0.05,true,ll,4315.906999928469,response,-0.8859261802814055,1.0999999999999999,-0.9495598106206565,-0.9191342361964594,1.15,-0.9995598106206566,low,low,,ISIC_8812781.JPG,,ISIC_0029395.JPG,39,false,0.1,ll,keypress(f),0,true,442436.7999999523,442436.6999999285,438104.3,438321,438120.793,442228.767,1,40,15,
sequence,flow.Sequence,8_14,2023-11-17T20:38:05.128Z,,,,,,,,,,,4315.906999928469,completion,,,,,,,low,low,,,,,,false,,,,,true,442437.1999999285,442436.6999999285,438104.3,438320.89999997616,438120.793,442228.767,1,40,,
trial,html.Screen,8_15_0,2023-11-17T20:38:10.367Z,,,,2,0.0057914759495055,0.0074667911845194,,0.05,false,hh,5447.33299990464,response,1.2015106101917423,1.0999999999999999,-0.9108804225626254,1.071085024260525,1.15,-0.9108804225626254,high,high,,ISIC_0058723.JPG,,ISIC_0072496.JPG,30,false,0.11,lh,keypress(e),0,true,447676.39999997616,447676.09999990463,442212.057,442437.2999999523,442228.767,447472.314,1,40,16,
sequence,flow.Sequence,8_15,2023-11-17T20:38:10.368Z,,,,,,,,,,,5447.33299990464,completion,,,,,,,high,high,,,,,,false,,,,,true,447676.59999990463,447676.09999990463,442212.057,442437.2999999523,442228.767,447472.314,1,40,,
trial,html.Screen,8_16_0,2023-11-17T20:38:14.239Z,,,,2,-0.0245376145053177,0.0436993426328401,,0.05,false,hh,4075.585999976145,response,1.0910404089869363,1.15,-0.9108804225626254,1.119702461098404,1.15,-0.9108804225626254,high,high,,ISIC_0056444.JPG,,ISIC_0067097.JPG,27,false,0.1,ll,keypress(f),0,true,451548,451547.89999997616,447455.765,447676.7999999523,447472.314,451346.648,1,40,17,
sequence,flow.Sequence,8_16,2023-11-17T20:38:14.239Z,,,,,,,,,,,4075.585999976145,completion,,,,,,,high,high,,,,,,false,,,,,true,451548.1999999285,451547.89999997616,447455.765,447676.6999999285,447472.314,451346.648,1,40,,
trial,html.Screen,8_17_0,2023-11-17T20:38:22.079Z,,,,2,-0.0362376068089956,-0.047825070846155,,0.05,false,hh,8041.65199995233,response,1.1346217981791904,1.15,-0.9108804225626254,1.1555132168806113,1.15,-0.9108804225626254,high,high,,ISIC_6985114.JPG,,ISIC_0032771.JPG,27,false,0.1,hl,keypress(j),0,true,459388.39999997616,459388.2999999523,451329.937,451548.2999999523,451346.648,459178.396,1,40,18,
sequence,flow.Sequence,8_17,2023-11-17T20:38:22.079Z,,,,,,,,,,,8041.65199995233,completion,,,,,,,high,high,,,,,,false,,,,,true,459388.5,459388.2999999523,451329.937,451548.2999999523,451346.648,459178.396,1,40,,
trial,html.Screen,8_18_0,2023-11-17T20:38:26.375Z,,,,2,0.0116094682222121,-0.0258434522530318,,0.05,false,hh,4506.00399997615,response,1.1346217981791904,1.15,-0.9108804225626254,1.1555132168806113,1.15,-0.9108804225626254,high,high,,ISIC_9239632.JPG,,ISIC_0032771.JPG,27,false,0.1,hl,keypress(j),0,true,463684.5,463684.39999997616,459161.739,459388.59999990463,459178.396,463486.775,1,40,19,
sequence,flow.Sequence,8_18,2023-11-17T20:38:26.376Z,,,,,,,,,,,4506.00399997615,completion,,,,,,,high,high,,,,,,false,,,,,true,463684.7999999523,463684.39999997616,459161.739,459388.59999990463,459178.396,463486.775,1,40,,
trial,html.Screen,8_19_0,2023-11-17T20:38:30.249Z,,,,2,-0.0362376068089956,-0.047825070846155,,0.05,false,hl,4069.3249999046093,response,1.2429840165564423,1.0846217981791904,-0.9108804225626254,-0.7308963943423881,1.15,-0.9108804225626254,high,low,,ISIC_6985114.JPG,,ISIC_1264576.JPG,26,false,0.2500000000000001,hh,keypress(i),0,true,467556.1999999285,467556.09999990463,463470.168,463684.89999997616,463486.775,467361.668,1,40,20,
sequence,flow.Sequence,8_19,2023-11-17T20:38:30.249Z,,,,,,,,,,,4069.3249999046093,completion,,,,,,,high,low,,,,,,false,,,,,true,467556.39999997616,467556.09999990463,463470.168,463684.89999997616,463486.775,467361.668,1,40,,
trial,html.Screen,8_20_0,2023-11-17T20:38:34.161Z,,,,2,-0.0051189696037511,0.0396625911332438,,0.05,false,lh,4106.631999952311,response,-0.879102500583965,1.0846217981791904,-0.9108804225626254,1.0933081951979773,1.15,-0.9608804225626254,low,high,,ISIC_9742891.JPG,,ISIC_0046223.JPG,27,false,0.22000000000000008,ll,keypress(f),0,true,471468.39999997616,471468.2999999523,467327.766,467556.39999997616,467361.668,471268.665,1,40,21,
sequence,flow.Sequence,8_20,2023-11-17T20:38:34.161Z,,,,,,,,,,,4106.631999952311,completion,,,,,,,low,high,,,,,,false,,,,,true,471468.5,471468.2999999523,467327.766,467556.39999997616,467361.668,471268.665,1,40,,
trial,html.Screen,8_21_0,2023-11-17T20:38:36.536Z,,,,2,-0.0245376145053177,0.0436993426328401,,0.05,true,ll,2574.9349999046535,response,-0.9684792294535484,1.0846217981791904,-0.9108804225626254,-0.9741930282015964,1.15,-0.9608804225626254,low,low,,ISIC_0056444.JPG,,ISIC_3372750.JPG,38,false,0.1,ll,keypress(f),0,true,473843.7999999523,473843.59999990463,471251.918,471468.6999999285,471268.665,473639.841,1,40,22,
sequence,flow.Sequence,8_21,2023-11-17T20:38:36.536Z,,,,,,,,,,,2574.9349999046535,completion,,,,,,,low,low,,,,,,false,,,,,true,473843.89999997616,473843.59999990463,471251.918,471468.6999999285,471268.665,473639.841,1,40,,
trial,html.Screen,8_22_0,2023-11-17T20:38:38.377Z,,,,2,-0.0245376145053177,0.0436993426328401,,0.05,false,lh,2044.8589999284595,response,-0.7401156491866404,1.0846217981791904,-0.9213361288275723,0.94165594025755,1.15,-0.9608804225626254,low,high,,ISIC_0056444.JPG,,ISIC_0072429.JPG,25,false,0.22000000000000008,ll,keypress(f),0,true,475684.89999997616,475684.6999999285,473623.264,473843.89999997616,473639.841,475476.753,1,40,23,
sequence,flow.Sequence,8_22,2023-11-17T20:38:38.378Z,,,,,,,,,,,2044.8589999284595,completion,,,,,,,low,high,,,,,,false,,,,,true,475685.1999999285,475684.6999999285,473623.264,473843.89999997616,473639.841,475476.753,1,40,,
trial,html.Screen,8_23_0,2023-11-17T20:38:45.144Z,,,,2,-0.0348234368746005,0.0236866303880924,,0.05,true,lh,6975.146999976132,response,-1.1181734135756094,1.0846217981791904,-0.9213361288275723,0.944560381774994,1.15,-0.9608804225626254,low,high,,ISIC_0011099.JPG,,ISIC_9688534.JPG,25,false,0.22000000000000008,lh,keypress(e),0,true,482452,482451.89999997616,475460.146,475685.39999997616,475476.753,482257.873,1,40,24,
sequence,flow.Sequence,8_23,2023-11-17T20:38:45.145Z,,,,,,,,,,,6975.146999976132,completion,,,,,,,low,high,,,,,,false,,,,,true,482452.1999999285,482451.89999997616,475460.146,475685.39999997616,475476.753,482257.873,1,40,,
trial,html.Screen,8_24_0,2023-11-17T20:38:51.728Z,,,,2,0.0389988030702649,0.0143212271490256,,0.05,false,ll,6777.826999928453,response,-0.8689515664606163,1.0846217981791904,-0.8713361288275723,-1.0538817435713148,1.15,-0.9608804225626254,low,low,,ISIC_0064669.JPG,,ISIC_7333928.JPG,40,false,0.1,hh,keypress(i),0,true,489035.7999999523,489035.6999999285,482223.306,482452.1999999285,482257.873,488836.081,1,40,25,
sequence,flow.Sequence,8_24,2023-11-17T20:38:51.728Z,,,,,,,,,,,6777.826999928453,completion,,,,,,,low,low,,,,,,false,,,,,true,489036,489035.6999999285,482223.306,482452.1999999285,482257.873,488836.081,1,40,,
trial,html.Screen,8_25_0,2023-11-17T20:38:58.673Z,,,,2,-0.0097091270150747,0.0417921315885292,,0.05,false,lh,7144.718999952311,response,-1.020990671779317,1.0846217981791904,-0.9213361288275723,1.0116513850520903,1.15,-1.0108804225626253,low,high,,ISIC_3967213.JPG,,ISIC_0011995.JPG,25,false,0.22000000000000008,ll,keypress(f),0,true,495981,495980.7999999523,488819.556,489036,488836.081,495782.898,1,40,26,
sequence,flow.Sequence,8_25,2023-11-17T20:38:58.674Z,,,,,,,,,,,7144.718999952311,completion,,,,,,,low,high,,,,,,false,,,,,true,495981.2999999523,495980.7999999523,488819.556,489036,488836.081,495782.898,1,40,,
trial,html.Screen,8_26_0,2023-11-17T20:39:06.129Z,,,,2,0.0389988030702649,0.0143212271490256,,0.05,true,lh,7653.201999904646,response,-0.858338058340649,1.0846217981791904,-0.9213361288275723,0.9540612223480284,1.15,-1.0108804225626253,low,high,,ISIC_0064669.JPG,,ISIC_8922893.JPG,25,false,0.22000000000000008,lh,keypress(e),0,true,503436.1999999285,503436.09999990463,495766.25,495981.5,495782.898,503247.457,1,40,27,
sequence,flow.Sequence,8_26,2023-11-17T20:39:06.129Z,,,,,,,,,,,7653.201999904646,completion,,,,,,,low,high,,,,,,false,,,,,true,503436.2999999523,503436.09999990463,495766.25,495981.5,495782.898,503247.457,1,40,,
trial,html.Screen,8_27_0,2023-11-17T20:39:10.881Z,,,,2,0.0329095507339554,-0.0382899749693245,,0.05,false,hh,4940.842999952321,response,1.0377676235641546,1.0846217981791904,-0.8713361288275723,1.0836906473836847,1.15,-1.0108804225626253,high,high,,ISIC_8812781.JPG,,ISIC_0010540.JPG,30,false,0.11,lh,keypress(e),0,true,508188.39999997616,508188.2999999523,503214.021,503436.39999997616,503247.457,507989.974,1,40,28,
sequence,flow.Sequence,8_27,2023-11-17T20:39:10.881Z,,,,,,,,,,,4940.842999952321,completion,,,,,,,high,high,,,,,,false,,,,,true,508188.5,508188.2999999523,503214.021,503436.39999997616,503247.457,507989.974,1,40,,
trial,html.Screen,8_28_0,2023-11-17T20:39:15.273Z,,,,2,-0.0245376145053177,0.0436993426328401,,0.05,false,hl,4590.125999904645,response,0.9014321140874824,1.1346217981791904,-0.8713361288275723,-0.7062038626894745,0.9688759348658564,-1.0108804225626253,high,low,,ISIC_0056444.JPG,,ISIC_3654454.JPG,31,false,0.3300000000000002,ll,keypress(f),0,true,512580.2999999523,512580.09999990463,507973.477,508188.6999999285,507989.974,512381.957,1,40,29,
sequence,flow.Sequence,8_28,2023-11-17T20:39:15.273Z,,,,,,,,,,,4590.125999904645,completion,,,,,,,high,low,,,,,,false,,,,,true,512580.59999990463,512580.09999990463,507973.477,508188.59999990463,507989.974,512381.957,1,40,,
trial,html.Screen,8_29_0,2023-11-17T20:39:18.409Z,,,,2,-0.0134764727102299,-0.0033499036460912,,0.05,false,ll,3334.8429999523214,response,-0.7870373375006504,1.1846217981791904,-0.8713361288275723,-1.0385104284303668,0.9688759348658564,-1.0108804225626253,low,low,,ISIC_0009998.JPG,,ISIC_0002162.JPG,40,false,0.1,hh,keypress(i),0,true,515717.09999990463,515716.7999999523,512365.359,512580.7999999523,512381.957,515521.411,1,40,30,
sequence,flow.Sequence,8_29,2023-11-17T20:39:18.410Z,,,,,,,,,,,3334.8429999523214,completion,,,,,,,low,low,,,,,,false,,,,,true,515717.5,515716.7999999523,512365.359,512580.7999999523,512381.957,515521.411,1,40,,
trial,html.Screen,8_30_0,2023-11-17T20:39:25.610Z,,,,2,0.0057914759495055,0.0074667911845194,,0.05,false,ll,7395.588999999978,response,-0.9840050049609405,1.1846217981791904,-0.9213361288275723,-1.160746324899676,0.9688759348658564,-1.0608804225626254,low,low,,ISIC_0058723.JPG,,ISIC_8651053.JPG,34,false,0.1,lh,keypress(e),0,true,522917.1999999285,522917,515504.806,515717.6999999285,515521.411,522718.661,1,40,31,
sequence,flow.Sequence,8_30,2023-11-17T20:39:25.610Z,,,,,,,,,,,7395.588999999978,completion,,,,,,,low,low,,,,,,false,,,,,true,522917.39999997616,522917,515504.806,515717.59999990463,515521.411,522718.661,1,40,,
trial,html.Screen,8_31_0,2023-11-17T20:39:29.772Z,,,,2,0.0329095507339554,-0.0382899749693245,,0.05,false,hl,4357.138999952294,response,0.7998855902596425,1.1846217981791904,-0.9213361288275723,-1.1518579145663017,0.9688759348658564,-1.1108804225626254,high,low,,ISIC_8812781.JPG,,ISIC_0025061.JPG,25,false,0.39000000000000024,ll,keypress(f),0,true,527075.8999999762,527075.7999999523,522701.953,522917.5,522718.661,526876.783,1,40,32,
sequence,flow.Sequence,8_31,2023-11-17T20:39:29.772Z,,,,,,,,,,,4357.138999952294,completion,,,,,,,high,low,,,,,,false,,,,,true,527076.0999999046,527075.7999999523,522701.953,522917.5,522718.661,526876.783,1,40,,
trial,html.Screen,8_32_0,2023-11-17T20:39:38.628Z,,,,2,0.0027483411352856,0.0100996915276271,,0.05,false,hh,9055.516999952262,response,1.2093854735946803,1.1846217981791904,-0.9213361288275723,0.9302843940316656,0.9688759348658564,-1.1108804225626254,high,high,,ISIC_7364041.JPG,,ISIC_0058158.JPG,26,false,0.1,lh,keypress(e),0,true,535932.5,535932.2999999523,526860.065,527076.1999999285,526876.783,535727.287,1,40,33,
sequence,flow.Sequence,8_32,2023-11-17T20:39:38.629Z,,,,,,,,,,,9055.516999952262,completion,,,,,,,high,high,,,,,,false,,,,,true,535932.5999999046,535932.2999999523,526860.065,527076.1999999285,526876.783,535727.287,1,40,,
trial,html.Screen,8_33_0,2023-11-17T20:39:44.980Z,,,,2,-0.0245376145053177,0.0436993426328401,,0.05,false,hh,6556.812999904621,response,1.1694564451910658,1.1846217981791904,-0.9213361288275723,0.9864553897205228,0.9688759348658564,-1.1108804225626254,high,high,,ISIC_0056444.JPG,,ISIC_0054334.JPG,26,false,0.1,hl,keypress(j),0,true,542284.2999999523,542284.0999999046,535710.626,535932.7999999523,535727.287,542089.66,1,40,34,
sequence,flow.Sequence,8_33,2023-11-17T20:39:44.980Z,,,,,,,,,,,6556.812999904621,completion,,,,,,,high,high,,,,,,false,,,,,true,542284.5,542284.0999999046,535710.626,535932.7999999523,535727.287,542089.66,1,40,,
trial,html.Screen,8_34_0,2023-11-17T20:39:51.284Z,,,,2,-0.0134764727102299,-0.0033499036460912,,0.05,true,hl,6498.539999928442,response,1.0122398223568725,1.1846217981791904,-0.9213361288275723,-0.7505228537454216,1.0188759348658565,-1.1108804225626254,high,low,,ISIC_0009998.JPG,,ISIC_0033802.JPG,25,false,0.39000000000000024,hl,keypress(j),0,true,548588.2999999523,548588.1999999285,542056.428,542284.5999999046,542089.66,548385.288,1,40,35,
sequence,flow.Sequence,8_34,2023-11-17T20:39:51.284Z,,,,,,,,,,,6498.539999928442,completion,,,,,,,high,low,,,,,,false,,,,,true,548588.2999999523,548588.1999999285,542056.428,542284.5,542089.66,548385.288,1,40,,
trial,html.Screen,8_35_0,2023-11-17T20:39:57.413Z,,,,2,0.0450282431170921,,,0.05,false,ll,6331.212000000058,response,-0.9449111496440944,1.1346217981791904,-0.9213361288275723,-1.0105459531634893,1.0188759348658565,-1.0608804225626254,low,low,,ISIC_1805163.JPG,,ISIC_0679494.JPG,34,false,0.1,lh,keypress(e),0,true,554716.7999999523,554716.5,548368.486,548588.3999999762,548385.288,554513.808,1,40,36,
sequence,flow.Sequence,8_35,2023-11-17T20:39:57.413Z,,,,,,,,,,,6331.212000000058,completion,,,,,,,low,low,,,,,,false,,,,,true,554717.1999999285,554716.5,548368.486,548588.3999999762,548385.288,554513.808,1,40,,
trial,html.Screen,8_36_0,2023-11-17T20:40:00.508Z,,,,2,-0.000047919190197942736,-0.0462652940855003,,0.05,true,hh,3298.192000000039,response,1.0774704182387804,1.1346217981791904,-0.8713361288275723,1.0186619444121927,1.0188759348658565,-1.1108804225626254,high,high,,ISIC_0011507.JPG,,ISIC_0066564.JPG,31,false,0.1,hh,keypress(i),0,true,557812.1999999285,557812,554497.057,554717.2999999523,554513.808,557603.164,1,40,37,
sequence,flow.Sequence,8_36,2023-11-17T20:40:00.508Z,,,,,,,,,,,3298.192000000039,completion,,,,,,,high,high,,,,,,false,,,,,true,557812.2999999523,557812,554497.057,554717.2999999523,554513.808,557603.164,1,40,,
trial,html.Screen,8_37_0,2023-11-17T20:40:03.484Z,,,,2,-0.0134764727102299,-0.0033499036460912,,0.05,false,lh,3184.8360000000102,response,-0.7401156491866404,1.1346217981791904,-0.8713361288275723,0.94165594025755,1.0188759348658565,-1.1108804225626254,low,high,,ISIC_0009998.JPG,,ISIC_0072429.JPG,26,false,0.17000000000000004,ll,keypress(f),0,true,560788.0999999046,560788,557586.438,557812.5,557603.164,560593.318,1,40,38,
sequence,flow.Sequence,8_37,2023-11-17T20:40:03.484Z,,,,,,,,,,,3184.8360000000102,completion,,,,,,,low,high,,,,,,false,,,,,true,560788.0999999046,560788,557586.438,557812.5,557603.164,560593.318,1,40,,
trial,html.Screen,8_38_0,2023-11-17T20:40:07.293Z,,,,2,-0.0245376145053177,0.0436993426328401,,0.05,false,hl,4003.081999976188,response,0.7870237732709365,1.1346217981791904,-0.8713361288275723,-0.9172955251119376,1.0688759348658565,-1.1108804225626254,high,low,,ISIC_0056444.JPG,,ISIC_0057716.JPG,25,false,0.3500000000000002,ll,keypress(f),0,true,564596.5999999046,564596.3999999762,560559.107,560788.1999999285,560593.318,564399.857,1,40,39,
sequence,flow.Sequence,8_38,2023-11-17T20:40:07.293Z,,,,,,,,,,,4003.081999976188,completion,,,,,,,high,low,,,,,,false,,,,,true,564596.7999999523,564596.3999999762,560559.107,560788.1999999285,560593.318,564399.857,1,40,,
trial,html.Screen,8_39_0,2023-11-17T20:40:16.532Z,,,,2,-0.0348234368746005,0.0236866303880924,,0.05,false,hh,9436.342999928514,response,1.2169050727663315,1.1846217981791904,-0.8713361288275723,1.1067845563421794,1.0688759348658565,-1.1108804225626254,high,high,,ISIC_0011099.JPG,,ISIC_7016261.JPG,34,false,0.1,hl,keypress(j),0,true,573836.2999999523,573836.1999999285,564383.068,564597,564399.857,573634.392,1,40,40,
sequence,flow.Sequence,8_39,2023-11-17T20:40:16.533Z,,,,,,,,,,,9436.342999928514,completion,,,,,,,high,high,,,,,,false,,,,,true,573836.5999999046,573836.1999999285,564383.068,564597,564399.857,573634.392,1,40,,
stair_loop,flow.Loop,8,2023-11-17T20:40:16.533Z,,,,,,,,,,,228612.7679999285,completion,,,,,,,,,,,,,,false,,,,,true,573836.6999999285,573836.1999999285,345206.841,345428.1999999285,345223.432,573634.392,1,40,,
exp_instructions,html.Screen,9,2023-11-17T20:40:24.476Z,,,,,,,,,,,8145.007999976166,response,,,,,,,,,,,,,,,,continue,keypress(Space),,,581779.7999999523,581779.3999999762,573617.776,573836.6999999285,573634.392,581583.174,,,,
trial,html.Screen,10_0_0,2023-11-17T20:40:27.324Z,,,,1,0.0107854985447517,0.0478010417136109,,0.05,true,ll,3044.826000000001,response,-0.9358725198038064,1.1321217981791902,-0.9002905582010777,-0.9938776615596308,1.061325560919514,-1.0433804225626253,low,low,,ISIC_0010500.JPG,9,ISIC_3365692.JPG,34,false,0.1,ll,keypress(f),0,false,584628.0999999046,584628,581566.484,581780,581583.174,584422.046,4,500,1,
break,html.Screen,10_0_1,2023-11-17T20:40:27.325Z,,,,,,,,,,,NaN,,,,,,,,low,low,,,,,,false,,,,,false,584628.5,584628.2999999523,,584628.1999999285,,584422.046,4,500,,
break_continue,html.Screen,10_0_2,2023-11-17T20:40:27.325Z,,,,,,,,,,,NaN,,,,,,,,low,low,,,,,,false,,,,,false,584628.5999999046,584628.5999999046,,584628.5999999046,,584422.046,4,500,,
sequence,flow.Sequence,10_0,2023-11-17T20:40:27.325Z,,,,,,,,,,,3045.4259999046335,completion,,,,,,,low,low,,,,,,false,,,,,false,584628.6999999285,584628.5999999046,581566.484,581780,581583.174,584422.046,4,500,,
trial,html.Screen,10_1_0,2023-11-17T20:40:31.168Z,,,,1,-0.0113873532168551,-0.0054999201556291,,0.05,true,ll,4046.1539999285014,response,-0.9449111496440944,1.1321217981791902,-0.9002905582010777,-1.0105459531634893,1.061325560919514,-1.0433804225626253,low,low,,ISIC_8812621.JPG,9,ISIC_0679494.JPG,34,false,0.1,ll,keypress(f),0,false,588468.2999999523,588468.1999999285,584405.423,584628.7999999523,584422.046,588262.784,4,500,2,
break,html.Screen,10_1_1,2023-11-17T20:40:31.169Z,,,,,,,,,,,NaN,,,,,,,,low,low,,,,,,false,,,,,false,588468.7999999523,588468.6999999285,,588468.3999999762,,588262.784,4,500,,
break_continue,html.Screen,10_1_2,2023-11-17T20:40:31.169Z,,,,,,,,,,,NaN,,,,,,,,low,low,,,,,,false,,,,,false,588469.0999999046,588469,,588468.8999999762,,588262.784,4,500,,
sequence,flow.Sequence,10_1,2023-11-17T20:40:31.169Z,,,,,,,,,,,4046.954000000027,completion,,,,,,,low,low,,,,,,false,,,,,false,588469.2999999523,588469,584405.423,584628.7999999523,584422.046,588262.784,4,500,,
trial,html.Screen,10_2_0,2023-11-17T20:40:35.160Z,,,,1,-0.0112310719058792,0.0469047359904117,,0.05,true,ll,4197.716000000015,response,-0.8854665385930431,1.1321217981791902,-0.9002905582010777,-1.0235331176078744,1.061325560919514,-1.0433804225626253,low,low,,ISIC_0068184.JPG,9,ISIC_0026889.JPG,34,false,0.1,ll,keypress(f),0,false,592460.6999999285,592460.5,588246.305,588469.3999999762,588262.784,592253.904,4,500,3,
break,html.Screen,10_2_1,2023-11-17T20:40:35.161Z,,,,,,,,,,,NaN,,,,,,,,low,low,,,,,,false,,,,,false,592461.3999999762,592461.1999999285,,592460.8999999762,,592253.904,4,500,,
break_continue,html.Screen,10_2_2,2023-11-17T20:40:35.162Z,,,,,,,,,,,NaN,,,,,,,,low,low,,,,,,false,,,,,false,592461.7999999523,592461.5999999046,,592461.5,,592253.904,4,500,,
sequence,flow.Sequence,10_2,2023-11-17T20:40:35.162Z,,,,,,,,,,,4198.8159999046475,completion,,,,,,,low,low,,,,,,false,,,,,false,592462,592461.5999999046,588246.305,588469.3999999762,588262.784,592253.904,4,500,,
trial,html.Screen,10_3_0,2023-11-17T20:40:41.512Z,,,,1,0.0456515796420274,-0.0273567130070961,,0.05,true,lh,6558.495999976178,response,-0.8579451262594331,1.1321217981791902,-0.9002905582010777,0.9633172970727744,1.061325560919514,-1.0433804225626253,low,high,,ISIC_0068610.JPG,8,ISIC_0067172.JPG,26,false,0.20000000000000007,lh,keypress(e),0,false,598812.5,598812.3999999762,592237.136,592462.0999999046,592253.904,598616.299,4,500,4,
break,html.Screen,10_3_1,2023-11-17T20:40:41.513Z,,,,,,,,,,,NaN,,,,,,,,low,high,,,,,,false,,,,,false,598813.1999999285,598813.0999999046,,598812.7999999523,,598616.299,4,500,,
break_continue,html.Screen,10_3_2,2023-11-17T20:40:41.513Z,,,,,,,,,,,NaN,,,,,,,,low,high,,,,,,false,,,,,false,598813.5999999046,598813.5,,598813.3999999762,,598616.299,4,500,,
sequence,flow.Sequence,10_3,2023-11-17T20:40:41.514Z,,,,,,,,,,,6559.59600000002,completion,,,,,,,low,high,,,,,,false,,,,,false,598813.7999999523,598813.5,592237.136,592462,592253.904,598616.299,4,500,,
trial,html.Screen,10_4_0,2023-11-17T20:40:48.855Z,,,,1,-0.0051189696037511,0.0396625911332438,,0.05,true,lh,7539.3009999046335,response,-0.858338058340649,1.1321217981791902,-0.9002905582010777,0.9540612223480284,1.061325560919514,-1.0433804225626253,low,high,,ISIC_9742891.JPG,9,ISIC_8922893.JPG,26,false,0.20000000000000007,lh,keypress(e),0,false,606155.6999999285,606155.5999999046,598599.747,598813.8999999762,598616.299,605947.173,4,500,5,
break,html.Screen,10_4_1,2023-11-17T20:40:48.856Z,,,,,,,,,,,NaN,,,,,,,,low,high,,,,,,false,,,,,false,606156,606155.8999999762,,606155.7999999523,,605947.173,4,500,,
break_continue,html.Screen,10_4_2,2023-11-17T20:40:48.856Z,,,,,,,,,,,NaN,,,,,,,,low,high,,,,,,false,,,,,false,606156.1999999285,606156.0999999046,,606156,,605947.173,4,500,,
sequence,flow.Sequence,10_4,2023-11-17T20:40:48.856Z,,,,,,,,,,,7539.8009999046335,completion,,,,,,,low,high,,,,,,false,,,,,false,606156.2999999523,606156.0999999046,598599.747,598813.8999999762,598616.299,605947.173,4,500,,
trial,html.Screen,10_5_0,2023-11-17T20:40:52.120Z,,,,1,-0.013431314305098,0.0140597582944232,,0.05,true,hh,3472.6269999523647,response,1.135372722680314,1.1321217981791902,-0.9002905582010777,1.0926414044454305,1.061325560919514,-1.0433804225626253,high,high,,ISIC_0069617.JPG,9,ISIC_2355513.JPG,32,false,0.1,hh,keypress(i),0,false,609419.8999999762,609419.7999999523,605930.625,606156.2999999523,605947.173,609220.442,4,500,6,
break,html.Screen,10_5_1,2023-11-17T20:40:52.120Z,,,,,,,,,,,NaN,,,,,,,,high,high,,,,,,false,,,,,false,609420.2999999523,609420.1999999285,,609420,,609220.442,4,500,,
break_continue,html.Screen,10_5_2,2023-11-17T20:40:52.120Z,,,,,,,,,,,NaN,,,,,,,,high,high,,,,,,false,,,,,false,609420.3999999762,609420.2999999523,,609420.2999999523,,609220.442,4,500,,
sequence,flow.Sequence,10_5,2023-11-17T20:40:52.120Z,,,,,,,,,,,3473.1269999523647,completion,,,,,,,high,high,,,,,,false,,,,,false,609420.3999999762,609420.2999999523,605930.625,606156.2999999523,605947.173,609220.442,4,500,,
trial,html.Screen,10_6_0,2023-11-17T20:40:56.655Z,,,,1,-0.0188047466661863,0.0288346930436979,,0.05,false,hh,4734.957999976119,response,1.2169050727663315,1.1321217981791902,-0.9002905582010777,1.1067845563421794,1.061325560919514,-1.0433804225626253,high,high,,ISIC_0014157.JPG,8,ISIC_7016261.JPG,32,false,0.1,hl,keypress(j),0,false,613955.5,613955.3999999762,609203.607,609420.5,609220.442,613745.653,4,500,7,
break,html.Screen,10_6_1,2023-11-17T20:40:56.656Z,,,,,,,,,,,NaN,,,,,,,,high,high,,,,,,false,,,,,false,613955.7999999523,613955.6999999285,,613955.5999999046,,613745.653,4,500,,
break_continue,html.Screen,10_6_2,2023-11-17T20:40:56.656Z,,,,,,,,,,,NaN,,,,,,,,high,high,,,,,,false,,,,,false,613956,613955.8999999762,,613955.7999999523,,613745.653,4,500,,
sequence,flow.Sequence,10_6,2023-11-17T20:40:56.656Z,,,,,,,,,,,4735.457999976119,completion,,,,,,,high,high,,,,,,false,,,,,false,613956,613955.8999999762,609203.607,609420.5,609220.442,613745.653,4,500,,
trial,html.Screen,10_7_0,2023-11-17T20:41:01.704Z,,,,1,0.0329095507339554,-0.0382899749693245,,0.05,false,hh,5258.146999952267,response,1.0491289899026992,1.1321217981791902,-0.9002905582010777,1.058683139801412,1.061325560919514,-1.0433804225626253,high,high,,ISIC_8812781.JPG,9,ISIC_0010866.JPG,32,false,0.1,ll,keypress(f),0,false,619004,619003.7999999523,613729.156,613956.0999999046,613745.653,618805.511,4,500,8,
break,html.Screen,10_7_1,2023-11-17T20:41:01.704Z,,,,,,,,,,,NaN,,,,,,,,high,high,,,,,,false,,,,,false,619004.5,619004.2999999523,,619004.0999999046,,618805.511,4,500,,
break_continue,html.Screen,10_7_2,2023-11-17T20:41:01.704Z,,,,,,,,,,,NaN,,,,,,,,high,high,,,,,,false,,,,,false,619004.6999999285,619004.5999999046,,619004.5,,618805.511,4,500,,
sequence,flow.Sequence,10_7,2023-11-17T20:41:01.705Z,,,,,,,,,,,5258.946999904583,completion,,,,,,,high,high,,,,,,false,,,,,false,619004.8999999762,619004.5999999046,613729.156,613956.0999999046,613745.653,618805.511,4,500,,
trial,html.Screen,10_8_0,2023-11-17T20:41:06.216Z,,,,1,-0.0277178575053843,0.0395587463147856,,0.05,false,lh,4710.388999976101,response,-0.7306047092126615,1.1321217981791902,-0.9002905582010777,0.9725548307155644,1.061325560919514,-1.0433804225626253,low,high,,ISIC_0010807.JPG,9,ISIC_0065469.JPG,26,false,0.20000000000000007,ll,keypress(f),0,false,623516,623515.8999999762,618788.917,619004.8999999762,618805.511,623314.256,4,500,9,
break,html.Screen,10_8_1,2023-11-17T20:41:06.216Z,,,,,,,,,,,NaN,,,,,,,,low,high,,,,,,false,,,,,false,623516.2999999523,623516.1999999285,,623516,,623314.256,4,500,,
break_continue,html.Screen,10_8_2,2023-11-17T20:41:06.216Z,,,,,,,,,,,NaN,,,,,,,,low,high,,,,,,false,,,,,false,623516.3999999762,623516.3999999762,,623516.2999999523,,623314.256,4,500,,
sequence,flow.Sequence,10_8,2023-11-17T20:41:06.216Z,,,,,,,,,,,4710.888999976101,completion,,,,,,,low,high,,,,,,false,,,,,false,623516.5,623516.3999999762,618788.917,619004.8999999762,618805.511,623314.256,4,500,,
trial,html.Screen,10_9_0,2023-11-17T20:41:10.967Z,,,,1,,-0.0264544974620926,,0.05,false,lh,4953.243999999948,response,-1.0751036484083878,1.1321217981791902,-0.9002905582010777,1.143906455483852,1.061325560919514,-1.0433804225626253,low,high,,ISIC_0056991.JPG,9,ISIC_0064406.JPG,26,false,0.20000000000000007,hh,keypress(i),0,false,628267.5999999046,628267.5,623297.771,623516.5999999046,623314.256,628056.832,4,500,10,
break,html.Screen,10_9_1,2023-11-17T20:41:10.968Z,,,,,,,,,,,NaN,,,,,,,,low,high,,,,,,false,,,,,false,628267.8999999762,628267.7999999523,,628267.6999999285,,628056.832,4,500,,
break_continue,html.Screen,10_9_2,2023-11-17T20:41:10.968Z,,,,,,,,,,,NaN,,,,,,,,low,high,,,,,,false,,,,,false,628268,628268,,628267.8999999762,,628056.832,4,500,,
sequence,flow.Sequence,10_9,2023-11-17T20:41:10.968Z,,,,,,,,,,,4953.743999999948,completion,,,,,,,low,high,,,,,,false,,,,,false,628268.0999999046,628268,623297.771,623516.5999999046,623314.256,628056.832,4,500,,
trial,html.Screen,10_10_0,2023-11-17T20:41:18.864Z,,,,1,-0.0113873532168551,-0.0054999201556291,,0.05,false,hh,8107.167999999947,response,1.1253220985777015,1.1321217981791902,-0.9002905582010777,1.108725659461368,1.061325560919514,-1.0433804225626253,high,high,,ISIC_8812621.JPG,8,ISIC_0054954.JPG,32,false,0.1,lh,keypress(e),0,false,636164.0999999046,636164,628040.114,628268.0999999046,628056.832,635955.519,4,500,11,
break,html.Screen,10_10_1,2023-11-17T20:41:18.864Z,,,,,,,,,,,NaN,,,,,,,,high,high,,,,,,false,,,,,false,636164.5,636164.3999999762,,636164.2999999523,,635955.519,4,500,,
break_continue,html.Screen,10_10_2,2023-11-17T20:41:18.864Z,,,,,,,,,,,NaN,,,,,,,,high,high,,,,,,false,,,,,false,636164.6999999285,636164.5999999046,,636164.5,,635955.519,4,500,,
sequence,flow.Sequence,10_10,2023-11-17T20:41:18.865Z,,,,,,,,,,,8107.7679999045795,completion,,,,,,,high,high,,,,,,false,,,,,false,636164.7999999523,636164.5999999046,628040.114,628268.0999999046,628056.832,635955.519,4,500,,
trial,html.Screen,10_11_0,2023-11-17T20:41:24.208Z,,,,1,0.0107854985447517,0.0478010417136109,,0.05,true,ll,5552.280999952345,response,-0.8854665385930431,1.1321217981791902,-0.9002905582010777,-1.0235331176078744,1.061325560919514,-1.0433804225626253,low,low,,ISIC_0010500.JPG,8,ISIC_0026889.JPG,34,false,0.1,ll,keypress(f),0,false,641507.8999999762,641507.7999999523,635938.889,636164.8999999762,635955.519,641299.249,4,500,12,
break,html.Screen,10_11_1,2023-11-17T20:41:24.208Z,,,,,,,,,,,NaN,,,,,,,,low,low,,,,,,false,,,,,false,641508.1999999285,641508.1999999285,,641508,,641299.249,4,500,,
break_continue,html.Screen,10_11_2,2023-11-17T20:41:24.208Z,,,,,,,,,,,NaN,,,,,,,,low,low,,,,,,false,,,,,false,641508.3999999762,641508.2999999523,,641508.1999999285,,641299.249,4,500,,
sequence,flow.Sequence,10_11,2023-11-17T20:41:24.208Z,,,,,,,,,,,5552.780999952345,completion,,,,,,,low,low,,,,,,false,,,,,false,641508.3999999762,641508.2999999523,635938.889,636164.7999999523,635955.519,641299.249,4,500,,
trial,html.Screen,10_12_0,2023-11-17T20:41:30.572Z,,,,1,0.039728379742806,-0.0228701131373768,,0.05,false,hl,6568.950999928522,response,1.0164576835546473,1.1321217981791902,-0.9002905582010777,-0.8120626538423016,1.061325560919514,-1.0433804225626253,high,low,,ISIC_0054073.JPG,9,ISIC_6002694.JPG,29,false,0.3400000000000002,hh,keypress(i),0,false,647868.3999999762,647868.1999999285,641282.71,641508.5999999046,641299.249,647661.629,4,500,13,
break,html.Screen,10_12_1,2023-11-17T20:41:30.572Z,,,,,,,,,,,NaN,,,,,,,,high,low,,,,,,false,,,,,false,647868.6999999285,647868.5999999046,,647868.3999999762,,647661.629,4,500,,
break_continue,html.Screen,10_12_2,2023-11-17T20:41:30.572Z,,,,,,,,,,,NaN,,,,,,,,high,low,,,,,,false,,,,,false,647868.7999999523,647868.7999999523,,647868.6999999285,,647661.629,4,500,,
sequence,flow.Sequence,10_12,2023-11-17T20:41:30.572Z,,,,,,,,,,,6569.550999952364,completion,,,,,,,high,low,,,,,,false,,,,,false,647869,647868.7999999523,641282.71,641508.5,641299.249,647661.629,4,500,,
trial,html.Screen,10_13_0,2023-11-17T20:41:38.028Z,,,,1,-0.0245376145053177,0.0436993426328401,,0.05,true,hl,7662.371000000043,response,0.8092423703106274,1.1321217981791902,-0.9002905582010777,-1.1870093485714288,1.061325560919514,-1.0433804225626253,high,low,,ISIC_0056444.JPG,9,ISIC_8592235.JPG,29,false,0.3400000000000002,hl,keypress(j),0,false,655324.0999999046,655324,647644.917,647869,647661.629,655126.161,4,500,14,
break,html.Screen,10_13_1,2023-11-17T20:41:38.028Z,,,,,,,,,,,NaN,,,,,,,,high,low,,,,,,false,,,,,false,655324.6999999285,655324.5,,655324.1999999285,,655126.161,4,500,,
break_continue,html.Screen,10_13_2,2023-11-17T20:41:38.028Z,,,,,,,,,,,NaN,,,,,,,,high,low,,,,,,false,,,,,false,655324.8999999762,655324.7999999523,,655324.6999999285,,655126.161,4,500,,
sequence,flow.Sequence,10_13,2023-11-17T20:41:38.029Z,,,,,,,,,,,7663.170999952359,completion,,,,,,,high,low,,,,,,false,,,,,false,655325,655324.7999999523,647644.917,647869,647661.629,655126.161,4,500,,
trial,html.Screen,10_14_0,2023-11-17T20:41:43.500Z,,,,1,0.0070725527271049,0.0049995141077508,,0.05,false,ll,5670.038999928511,response,-0.8689515664606163,1.1321217981791902,-0.9002905582010777,-1.0538817435713148,1.061325560919514,-1.0433804225626253,low,low,,ISIC_6124481.JPG,9,ISIC_7333928.JPG,34,false,0.1,lh,keypress(e),0,false,660796.3999999762,660796.1999999285,655109.495,655325.1999999285,655126.161,660586.782,4,500,15,
break,html.Screen,10_14_1,2023-11-17T20:41:43.500Z,,,,,,,,,,,NaN,,,,,,,,low,low,,,,,,false,,,,,false,660797,660796.7999999523,,660796.5999999046,,660586.782,4,500,,
break_continue,html.Screen,10_14_2,2023-11-17T20:41:43.501Z,,,,,,,,,,,NaN,,,,,,,,low,low,,,,,,false,,,,,false,660797.1999999285,660797.0999999046,,660797,,660586.782,4,500,,
sequence,flow.Sequence,10_14,2023-11-17T20:41:43.501Z,,,,,,,,,,,5670.938999904669,completion,,,,,,,low,low,,,,,,false,,,,,false,660797.3999999762,660797.0999999046,655109.495,655325.0999999046,655126.161,660586.782,4,500,,
trial,html.Screen,10_15_0,2023-11-17T20:41:47.467Z,,,,1,-0.0134764727102299,-0.0033499036460912,,0.05,false,lh,4176.917999928468,response,-0.858338058340649,1.1321217981791902,-0.9002905582010777,0.9540612223480284,1.061325560919514,-1.0433804225626253,low,high,,ISIC_0009998.JPG,9,ISIC_8922893.JPG,26,false,0.20000000000000007,ll,keypress(f),0,false,664763.7999999523,664763.6999999285,660570.251,660797.5,660586.782,664561.232,4,500,16,
break,html.Screen,10_15_1,2023-11-17T20:41:47.468Z,,,,,,,,,,,NaN,,,,,,,,low,high,,,,,,false,,,,,false,664764.1999999285,664764.0999999046,,664763.8999999762,,664561.232,4,500,,
break_continue,html.Screen,10_15_2,2023-11-17T20:41:47.468Z,,,,,,,,,,,NaN,,,,,,,,low,high,,,,,,false,,,,,false,664764.2999999523,664764.1999999285,,664764.1999999285,,664561.232,4,500,,
sequence,flow.Sequence,10_15,2023-11-17T20:41:47.468Z,,,,,,,,,,,4177.417999928468,completion,,,,,,,low,high,,,,,,false,,,,,false,664764.2999999523,664764.1999999285,660570.251,660797.5,660586.782,664561.232,4,500,,
trial,html.Screen,10_16_0,2023-11-17T20:41:53.836Z,,,,1,0.0217698886732706,-0.0410870915161425,,0.05,false,ll,6570.867999904673,response,-0.8307811717009963,1.1321217981791902,-0.9002905582010777,-1.098625259321624,1.061325560919514,-1.0433804225626253,low,low,,ISIC_0072173.JPG,8,ISIC_8257549.JPG,34,false,0.1,hh,keypress(i),0,false,671132.1999999285,671132.0999999046,664544.6,664764.3999999762,664561.232,670940.249,4,500,17,
break,html.Screen,10_16_1,2023-11-17T20:41:53.836Z,,,,,,,,,,,NaN,,,,,,,,low,low,,,,,,false,,,,,false,671132.6999999285,671132.5999999046,,671132.3999999762,,670940.249,4,500,,
break_continue,html.Screen,10_16_2,2023-11-17T20:41:53.837Z,,,,,,,,,,,NaN,,,,,,,,low,low,,,,,,false,,,,,false,671133.0999999046,671133,,671132.8999999762,,670940.249,4,500,,
sequence,flow.Sequence,10_16,2023-11-17T20:41:53.837Z,,,,,,,,,,,6571.76800000004,completion,,,,,,,low,low,,,,,,false,,,,,false,671133.1999999285,671133,664544.6,664764.2999999523,664561.232,670940.249,4,500,,
trial,html.Screen,10_17_0,2023-11-17T20:42:00.764Z,,,,1,0.0116094682222121,-0.0258434522530318,,0.05,false,hl,7119.7510000000475,response,1.0645919307156395,1.1321217981791902,-0.9002905582010777,-0.7087706688259032,1.061325560919514,-1.0433804225626253,high,low,,ISIC_9239632.JPG,9,ISIC_0031575.JPG,29,false,0.3400000000000002,lh,keypress(e),0,false,678060.1999999285,678060,670906.988,671133.2999999523,670940.249,677853.67,4,500,18,
break,html.Screen,10_17_1,2023-11-17T20:42:00.764Z,,,,,,,,,,,NaN,,,,,,,,high,low,,,,,,false,,,,,false,678060.5999999046,678060.5999999046,,678060.2999999523,,677853.67,4,500,,
break_continue,html.Screen,10_17_2,2023-11-17T20:42:00.764Z,,,,,,,,,,,NaN,,,,,,,,high,low,,,,,,false,,,,,false,678061,678060.8999999762,,678060.7999999523,,677853.67,4,500,,
sequence,flow.Sequence,10_17,2023-11-17T20:42:00.765Z,,,,,,,,,,,7120.650999976206,completion,,,,,,,high,low,,,,,,false,,,,,false,678061.0999999046,678060.8999999762,670906.988,671133.2999999523,670940.249,677853.67,4,500,,
trial,html.Screen,10_18_0,2023-11-17T20:42:04.588Z,,,,1,0.0057914759495055,0.0074667911845194,,0.05,false,lh,4030.5299999284325,response,-0.706802912822355,1.1321217981791902,-0.9002905582010777,1.168911077628813,1.061325560919514,-1.0433804225626253,low,high,,ISIC_0058723.JPG,8,ISIC_7358691.JPG,26,false,0.20000000000000007,hh,keypress(i),0,false,681884.1999999285,681884.1999999285,677837.205,678061.1999999285,677853.67,681677.765,4,500,19,
break,html.Screen,10_18_1,2023-11-17T20:42:04.588Z,,,,,,,,,,,NaN,,,,,,,,low,high,,,,,,false,,,,,false,681884.8999999762,681884.7999999523,,681884.5,,681677.765,4,500,,
break_continue,html.Screen,10_18_2,2023-11-17T20:42:04.589Z,,,,,,,,,,,NaN,,,,,,,,low,high,,,,,,false,,,,,false,681885.1999999285,681885.0999999046,,681885,,681677.765,4,500,,
sequence,flow.Sequence,10_18,2023-11-17T20:42:04.589Z,,,,,,,,,,,4031.4299999045907,completion,,,,,,,low,high,,,,,,false,,,,,false,681885.2999999523,681885.0999999046,677837.205,678061.0999999046,677853.67,681677.765,4,500,,
trial,html.Screen,10_19_0,2023-11-17T20:42:12.219Z,,,,1,-0.000047919190197942736,-0.0462652940855003,,0.05,true,hh,7837.834999904619,response,1.135372722680314,1.1321217981791902,-0.9002905582010777,1.0926414044454305,1.061325560919514,-1.0433804225626253,high,high,,ISIC_0011507.JPG,9,ISIC_2355513.JPG,32,false,0.1,hh,keypress(i),0,false,689515.6999999285,689515.5999999046,681661.274,681885.5,681677.765,689309.273,4,500,20,
break,html.Screen,10_19_1,2023-11-17T20:42:12.219Z,,,,,,,,,,,NaN,,,,,,,,high,high,,,,,,false,,,,,false,689516,689515.8999999762,,689515.7999999523,,689309.273,4,500,,
break_continue,html.Screen,10_19_2,2023-11-17T20:42:12.220Z,,,,,,,,,,,NaN,,,,,,,,high,high,,,,,,false,,,,,false,689516.1999999285,689516.0999999046,,689516,,689309.273,4,500,,
sequence,flow.Sequence,10_19,2023-11-17T20:42:12.220Z,,,,,,,,,,,7838.334999904619,completion,,,,,,,high,high,,,,,,false,,,,,false,689516.2999999523,689516.0999999046,681661.274,681885.3999999762,681677.765,689309.273,4,500,,
trial,html.Screen,10_20_0,2023-11-17T20:42:21.859Z,,,,1,-0.013431314305098,0.0140597582944232,,0.05,false,lh,9846.526999952272,response,-0.8809306963311293,1.1321217981791902,-0.9002905582010777,0.8614910030038974,1.061325560919514,-1.0433804225626253,low,high,,ISIC_0069617.JPG,9,ISIC_0013731.JPG,26,false,0.20000000000000007,hl,keypress(j),0,false,699155.8999999762,699155.7999999523,689292.594,689516.2999999523,689309.273,698944.691,4,500,21,
break,html.Screen,10_20_1,2023-11-17T20:42:21.860Z,,,,,,,,,,,NaN,,,,,,,,low,high,,,,,,false,,,,,false,699156.1999999285,699156.0999999046,,699156,,698944.691,4,500,,
break_continue,html.Screen,10_20_2,2023-11-17T20:42:21.860Z,,,,,,,,,,,NaN,,,,,,,,low,high,,,,,,false,,,,,false,699156.2999999523,699156.1999999285,,699156.1999999285,,698944.691,4,500,,
sequence,flow.Sequence,10_20,2023-11-17T20:42:21.860Z,,,,,,,,,,,9846.92699992843,completion,,,,,,,low,high,,,,,,false,,,,,false,699156.2999999523,699156.1999999285,689292.594,689516.2999999523,689309.273,698944.691,4,500,,
trial,html.Screen,10_21_0,2023-11-17T20:42:27.731Z,,,,1,,-0.0264544974620926,,0.05,true,lh,6083.108999952325,response,-0.858338058340649,1.1321217981791902,-0.9002905582010777,0.9540612223480284,1.061325560919514,-1.0433804225626253,low,high,,ISIC_0056991.JPG,8,ISIC_8922893.JPG,26,false,0.20000000000000007,lh,keypress(e),0,false,705027.8999999762,705027.7999999523,698927.954,699156.3999999762,698944.691,704822.801,4,500,22,
break,html.Screen,10_21_1,2023-11-17T20:42:27.732Z,,,,,,,,,,,NaN,,,,,,,,low,high,,,,,,false,,,,,false,705028.2999999523,705028.1999999285,,705028,,704822.801,4,500,,
break_continue,html.Screen,10_21_2,2023-11-17T20:42:27.732Z,,,,,,,,,,,NaN,,,,,,,,low,high,,,,,,false,,,,,false,705028.3999999762,705028.3999999762,,705028.2999999523,,704822.801,4,500,,
sequence,flow.Sequence,10_21,2023-11-17T20:42:27.732Z,,,,,,,,,,,6083.7089999761665,completion,,,,,,,low,high,,,,,,false,,,,,false,705028.5,705028.3999999762,698927.954,699156.3999999762,698944.691,704822.801,4,500,,
trial,html.Screen,10_22_0,2023-11-17T20:42:33.343Z,,,,1,-0.0362376068089956,-0.047825070846155,,0.05,false,lh,5813.0989999761805,response,-1.0751036484083878,1.1321217981791902,-0.9002905582010777,1.143906455483852,1.061325560919514,-1.0433804225626253,low,high,,ISIC_6985114.JPG,9,ISIC_0064406.JPG,26,false,0.20000000000000007,ll,keypress(f),0,false,710636,710635.8999999762,704806.186,705028.5999999046,704822.801,710433.783,4,500,23,
break,html.Screen,10_22_1,2023-11-17T20:42:33.343Z,,,,,,,,,,,NaN,,,,,,,,low,high,,,,,,false,,,,,false,710636.2999999523,710636.1999999285,,710636.0999999046,,710433.783,4,500,,
break_continue,html.Screen,10_22_2,2023-11-17T20:42:33.344Z,,,,,,,,,,,NaN,,,,,,,,low,high,,,,,,false,,,,,false,710636.5,710636.3999999762,,710636.2999999523,,710433.783,4,500,,
sequence,flow.Sequence,10_22,2023-11-17T20:42:33.344Z,,,,,,,,,,,5813.5989999761805,completion,,,,,,,low,high,,,,,,false,,,,,false,710636.5,710636.3999999762,704806.186,705028.5999999046,704822.801,710433.783,4,500,,
trial,html.Screen,10_23_0,2023-11-17T20:42:36.368Z,,,,1,-0.0348234368746005,0.0236866303880924,,0.05,true,ll,3226.616999976104,response,-0.9102336581208296,1.1321217981791902,-0.9002905582010777,-1.0305113346799688,1.061325560919514,-1.0433804225626253,low,low,,ISIC_0011099.JPG,8,ISIC_0068530.JPG,34,false,0.1,ll,keypress(f),0,false,713660.5,713660.3999999762,710417.028,710636.5999999046,710433.783,713456.361,4,500,24,
break,html.Screen,10_23_1,2023-11-17T20:42:36.368Z,,,,,,,,,,,NaN,,,,,,,,low,low,,,,,,false,,,,,false,713660.6999999285,713660.6999999285,,713660.5,,713456.361,4,500,,
break_continue,html.Screen,10_23_2,2023-11-17T20:42:36.368Z,,,,,,,,,,,NaN,,,,,,,,low,low,,,,,,false,,,,,false,713660.8999999762,713660.8999999762,,713660.7999999523,,713456.361,4,500,,
sequence,flow.Sequence,10_23,2023-11-17T20:42:36.368Z,,,,,,,,,,,3227.116999976104,completion,,,,,,,low,low,,,,,,false,,,,,false,713661,713660.8999999762,710417.028,710636.5999999046,710433.783,713456.361,4,500,,
trial,html.Screen,10_24_0,2023-11-17T20:42:42.543Z,,,,1,-0.0277178575053843,0.0395587463147856,,0.05,false,hh,6379.738999904599,response,1.2040551955011098,1.1321217981791902,-0.9002905582010777,1.001135039205613,1.061325560919514,-1.0433804225626253,high,high,,ISIC_0010807.JPG,8,ISIC_0068886.JPG,32,false,0.1,lh,keypress(e),0,false,719836.2999999523,719836.0999999046,713439.723,713661,713456.361,719634.948,4,500,25,
break,html.Screen,10_24_1,2023-11-17T20:42:42.544Z,,,,,,,,,,,NaN,,,,,,,,high,high,,,,,,false,,,,,false,719836.8999999762,719836.7999999523,,719836.5,,719634.948,4,500,,
break_continue,html.Screen,10_24_2,2023-11-17T20:42:42.544Z,,,,,,,,,,,NaN,,,,,,,,high,high,,,,,,false,,,,,false,719837.1999999285,719837.0999999046,,719837,,719634.948,4,500,,
sequence,flow.Sequence,10_24,2023-11-17T20:42:42.545Z,,,,,,,,,,,6380.738999904599,completion,,,,,,,high,high,,,,,,false,,,,,false,719837.3999999762,719837.0999999046,713439.723,713661,713456.361,719634.948,4,500,,
trial,html.Screen,10_25_0,2023-11-17T20:42:48.959Z,,,,1,0.007397293189458,0.0174716772037504,,0.05,false,lh,6616.7519999285,response,-1.0865333402803938,1.1321217981791902,-0.9002905582010777,1.0542635307358266,1.061325560919514,-1.0433804225626253,low,high,,ISIC_0056226.JPG,8,ISIC_0034006.JPG,26,false,0.20000000000000007,ll,keypress(f),0,false,726251.7999999523,726251.6999999285,719618.427,719837.5,719634.948,726047.42,4,500,26,
break,html.Screen,10_25_1,2023-11-17T20:42:48.959Z,,,,,,,,,,,NaN,,,,,,,,low,high,,,,,,false,,,,,false,726252.1999999285,726252.1999999285,,726251.8999999762,,726047.42,4,500,,
break_continue,html.Screen,10_25_2,2023-11-17T20:42:48.960Z,,,,,,,,,,,NaN,,,,,,,,low,high,,,,,,false,,,,,false,726252.5,726252.3999999762,,726252.2999999523,,726047.42,4,500,,
sequence,flow.Sequence,10_25,2023-11-17T20:42:48.960Z,,,,,,,,,,,6617.451999976183,completion,,,,,,,low,high,,,,,,false,,,,,false,726252.5999999046,726252.3999999762,719618.427,719837.5,719634.948,726047.42,4,500,,
trial,html.Screen,10_26_0,2023-11-17T20:42:52.559Z,,,,1,0.0217698886732706,-0.0410870915161425,,0.05,true,ll,3804.2799999284325,response,-0.8755959065262388,1.1321217981791902,-0.9002905582010777,-1.093284184366194,1.061325560919514,-1.0433804225626253,low,low,,ISIC_0072173.JPG,9,ISIC_8096177.JPG,34,false,0.1,ll,keypress(f),0,false,729851.8999999762,729851.6999999285,726030.745,726252.6999999285,726047.42,729654.681,4,500,27,
break,html.Screen,10_26_1,2023-11-17T20:42:52.559Z,,,,,,,,,,,NaN,,,,,,,,low,low,,,,,,false,,,,,false,729852.2999999523,729852.1999999285,,729852,,729654.681,4,500,,
break_continue,html.Screen,10_26_2,2023-11-17T20:42:52.560Z,,,,,,,,,,,NaN,,,,,,,,low,low,,,,,,false,,,,,false,729852.5,729852.3999999762,,729852.2999999523,,729654.681,4,500,,
sequence,flow.Sequence,10_26,2023-11-17T20:42:52.560Z,,,,,,,,,,,3804.9799999761162,completion,,,,,,,low,low,,,,,,false,,,,,false,729852.5,729852.3999999762,726030.745,726252.5999999046,726047.42,729654.681,4,500,,
trial,html.Screen,10_27_0,2023-11-17T20:43:02.056Z,,,,1,-0.0362376068089956,-0.047825070846155,,0.05,false,ll,9694.118999952334,response,-0.8150954316817084,1.1321217981791902,-0.9002905582010777,-1.1100289789666156,1.061325560919514,-1.0433804225626253,low,low,,ISIC_6985114.JPG,9,ISIC_0026552.JPG,34,false,0.1,hl,keypress(j),0,false,739349.0999999046,739348.7999999523,729637.921,729852.5999999046,729654.681,739139.565,4,500,28,
break,html.Screen,10_27_1,2023-11-17T20:43:02.057Z,,,,,,,,,,,NaN,,,,,,,,low,low,,,,,,false,,,,,false,739350,739349.6999999285,,739349.3999999762,,739139.565,4,500,,
break_continue,html.Screen,10_27_2,2023-11-17T20:43:02.058Z,,,,,,,,,,,NaN,,,,,,,,low,low,,,,,,false,,,,,false,739350.5999999046,739350.3999999762,,739350.2999999523,,739139.565,4,500,,
sequence,flow.Sequence,10_27,2023-11-17T20:43:02.058Z,,,,,,,,,,,9695.718999976176,completion,,,,,,,low,low,,,,,,false,,,,,false,739350.7999999523,739350.3999999762,729637.921,729852.5999999046,729654.681,739139.565,4,500,,
trial,html.Screen,10_28_0,2023-11-17T20:43:06.247Z,,,,1,0.0389988030702649,0.0143212271490256,,0.05,false,ll,4399.834999976214,response,-0.9191486333136276,1.1321217981791902,-0.9002905582010777,-1.001866590114321,1.061325560919514,-1.0433804225626253,low,low,,ISIC_0064669.JPG,8,ISIC_0663941.JPG,34,false,0.1,hh,keypress(i),0,false,743539.3999999762,743539.3999999762,739122.892,739351.0999999046,739139.565,743331.029,4,500,29,
break,html.Screen,10_28_1,2023-11-17T20:43:06.247Z,,,,,,,,,,,NaN,,,,,,,,low,low,,,,,,false,,,,,false,743539.6999999285,743539.6999999285,,743539.5,,743331.029,4,500,,
break_continue,html.Screen,10_28_2,2023-11-17T20:43:06.247Z,,,,,,,,,,,NaN,,,,,,,,low,low,,,,,,false,,,,,false,743539.8999999762,743539.7999999523,,743539.7999999523,,743331.029,4,500,,
sequence,flow.Sequence,10_28,2023-11-17T20:43:06.247Z,,,,,,,,,,,4400.234999952372,completion,,,,,,,low,low,,,,,,false,,,,,false,743540,743539.7999999523,739122.892,739351,739139.565,743331.029,4,500,,
trial,html.Screen,10_29_0,2023-11-17T20:43:08.416Z,,,,1,-0.0348234368746005,0.0236866303880924,,0.05,false,ll,2377.4710000000196,response,-0.8318514901182542,1.1321217981791902,-0.9002905582010777,-0.9538458994523976,1.061325560919514,-1.0433804225626253,low,low,,ISIC_0011099.JPG,9,ISIC_3161477.JPG,34,false,0.1,hh,keypress(i),0,false,745708.6999999285,745708.5,743314.279,743540.0999999046,743331.029,745501.94,4,500,30,
break,html.Screen,10_29_1,2023-11-17T20:43:08.417Z,,,,,,,,,,,NaN,,,,,,,,low,low,,,,,,false,,,,,false,745709.5999999046,745709.3999999762,,745709.0999999046,,745501.94,4,500,,
break_continue,html.Screen,10_29_2,2023-11-17T20:43:08.417Z,,,,,,,,,,,NaN,,,,,,,,low,low,,,,,,false,,,,,false,745710.0999999046,745709.8999999762,,745709.6999999285,,745501.94,4,500,,
sequence,flow.Sequence,10_29,2023-11-17T20:43:08.417Z,,,,,,,,,,,2378.8709999761777,completion,,,,,,,low,low,,,,,,false,,,,,false,745710.2999999523,745709.8999999762,743314.279,743540.0999999046,743331.029,745501.94,4,500,,
trial,html.Screen,10_30_0,2023-11-17T20:43:16.344Z,,,,1,-0.0134764727102299,-0.0033499036460912,,0.05,false,hh,8134.359999952372,response,1.2302725726010482,1.1321217981791902,-0.9002905582010777,0.9842039527726018,1.061325560919514,-1.0433804225626253,high,high,,ISIC_0009998.JPG,9,ISIC_0054329.JPG,32,false,0.1,hl,keypress(j),0,false,753636.3999999762,753636.2999999523,745485.208,745710.5,745501.94,753433.993,4,500,31,
break,html.Screen,10_30_1,2023-11-17T20:43:16.344Z,,,,,,,,,,,NaN,,,,,,,,high,high,,,,,,false,,,,,false,753636.8999999762,753636.8999999762,,753636.5999999046,,753433.993,4,500,,
break_continue,html.Screen,10_30_2,2023-11-17T20:43:16.344Z,,,,,,,,,,,NaN,,,,,,,,high,high,,,,,,false,,,,,false,753637.2999999523,753637.1999999285,,753637.0999999046,,753433.993,4,500,,
sequence,flow.Sequence,10_30,2023-11-17T20:43:16.345Z,,,,,,,,,,,8135.25999992853,completion,,,,,,,high,high,,,,,,false,,,,,false,753637.3999999762,753637.1999999285,745485.208,745710.5,745501.94,753433.993,4,500,,
trial,html.Screen,10_31_0,2023-11-17T20:43:23.151Z,,,,1,-0.000047919190197942736,-0.0462652940855003,,0.05,false,hh,7009.3069999522995,response,1.1346217981791904,1.1321217981791902,-0.9002905582010777,1.1555132168806113,1.061325560919514,-1.0433804225626253,high,high,,ISIC_0011507.JPG,9,ISIC_0032771.JPG,32,false,0.1,lh,keypress(e),0,false,760443.3999999762,760443.2999999523,753417.468,753637.5,753433.993,760247.368,4,500,32,
break,html.Screen,10_31_1,2023-11-17T20:43:23.151Z,,,,,,,,,,,NaN,,,,,,,,high,high,,,,,,false,,,,,false,760443.5999999046,760443.5999999046,,760443.5,,760247.368,4,500,,
break_continue,html.Screen,10_31_2,2023-11-17T20:43:23.151Z,,,,,,,,,,,NaN,,,,,,,,high,high,,,,,,false,,,,,false,760443.8999999762,760443.7999999523,,760443.7999999523,,760247.368,4,500,,
sequence,flow.Sequence,10_31,2023-11-17T20:43:23.151Z,,,,,,,,,,,7009.8069999522995,completion,,,,,,,high,high,,,,,,false,,,,,false,760443.8999999762,760443.7999999523,753417.468,753637.5,753433.993,760247.368,4,500,,
trial,html.Screen,10_32_0,2023-11-17T20:43:27.159Z,,,,1,-0.0159061451859594,-0.0296598845560212,,0.05,false,ll,4204.331999928458,response,-0.8671772321064484,1.1321217981791902,-0.9002905582010777,-1.0212529379514277,1.061325560919514,-1.0433804225626253,low,low,,ISIC_0072564.JPG,8,ISIC_0004352.JPG,34,false,0.1,hh,keypress(i),0,false,764451.8999999762,764451.6999999285,760230.529,760443.8999999762,760247.368,764255.113,4,500,33,
break,html.Screen,10_32_1,2023-11-17T20:43:27.159Z,,,,,,,,,,,NaN,,,,,,,,low,low,,,,,,false,,,,,false,764452.3999999762,764452.1999999285,,764452,,764255.113,4,500,,
break_continue,html.Screen,10_32_2,2023-11-17T20:43:27.160Z,,,,,,,,,,,NaN,,,,,,,,low,low,,,,,,false,,,,,false,764452.5,764452.5,,764452.3999999762,,764255.113,4,500,,
sequence,flow.Sequence,10_32,2023-11-17T20:43:27.160Z,,,,,,,,,,,4205.131999999983,completion,,,,,,,low,low,,,,,,false,,,,,false,764452.5999999046,764452.5,760230.529,760443.8999999762,760247.368,764255.113,4,500,,
trial,html.Screen,10_33_0,2023-11-17T20:43:30.954Z,,,,1,-0.0134764727102299,-0.0033499036460912,,0.05,false,lh,3988.5869999284623,response,-1.0865333402803938,1.1321217981791902,-0.9002905582010777,1.0542635307358266,1.061325560919514,-1.0433804225626253,low,high,,ISIC_0009998.JPG,10,ISIC_0034006.JPG,26,false,0.20000000000000007,ll,keypress(f),0,false,768243.8999999762,768243.6999999285,764238.364,764452.6999999285,764255.113,768045.846,4,500,34,
break,html.Screen,10_33_1,2023-11-17T20:43:30.955Z,,,,,,,,,,,NaN,,,,,,,,low,high,,,,,,false,,,,,false,768244.3999999762,768244.1999999285,,768244,,768045.846,4,500,,
break_continue,html.Screen,10_33_2,2023-11-17T20:43:30.955Z,,,,,,,,,,,NaN,,,,,,,,low,high,,,,,,false,,,,,false,768244.5999999046,768244.5,,768244.5,,768045.846,4,500,,
sequence,flow.Sequence,10_33,2023-11-17T20:43:30.955Z,,,,,,,,,,,3989.386999999988,completion,,,,,,,low,high,,,,,,false,,,,,false,768244.6999999285,768244.5,764238.364,764452.6999999285,764255.113,768045.846,4,500,,
trial,html.Screen,10_34_0,2023-11-17T20:43:36.563Z,,,,1,0.0057914759495055,0.0074667911845194,,0.05,false,lh,5806.15399999998,response,-1.0026266089287914,1.1321217981791902,-0.9002905582010777,1.0913275913920335,1.061325560919514,-1.0433804225626253,low,high,,ISIC_0058723.JPG,9,ISIC_0033520.JPG,26,false,0.20000000000000007,hl,keypress(j),0,false,773852.0999999046,773852,768029.157,768244.8999999762,768045.846,773657.525,4,500,35,
break,html.Screen,10_34_1,2023-11-17T20:43:36.563Z,,,,,,,,,,,NaN,,,,,,,,low,high,,,,,,false,,,,,false,773852.7999999523,773852.6999999285,,773852.3999999762,,773657.525,4,500,,
break_continue,html.Screen,10_34_2,2023-11-17T20:43:36.564Z,,,,,,,,,,,NaN,,,,,,,,low,high,,,,,,false,,,,,false,773853.0999999046,773853,,773852.8999999762,,773657.525,4,500,,
sequence,flow.Sequence,10_34,2023-11-17T20:43:36.564Z,,,,,,,,,,,5807.15399999998,completion,,,,,,,low,high,,,,,,false,,,,,false,773853.2999999523,773853,768029.157,768244.7999999523,768045.846,773657.525,4,500,,
trial,html.Screen,10_35_0,2023-11-17T20:43:40.771Z,,,,1,-0.0277178575053843,0.0395587463147856,,0.05,true,lh,4402.474999999977,response,-0.8979276789594874,1.1321217981791902,-0.9002905582010777,0.925374811016654,1.061325560919514,-1.0433804225626253,low,high,,ISIC_0010807.JPG,9,ISIC_4208361.JPG,26,false,0.20000000000000007,lh,keypress(e),0,false,778060.1999999285,778060,773623.415,773853.3999999762,773657.525,777866.076,4,500,36,
break,html.Screen,10_35_1,2023-11-17T20:43:40.771Z,,,,,,,,,,,NaN,,,,,,,,low,high,,,,,,false,,,,,false,778060.5,778060.3999999762,,778060.2999999523,,777866.076,4,500,,
break_continue,html.Screen,10_35_2,2023-11-17T20:43:40.771Z,,,,,,,,,,,NaN,,,,,,,,low,high,,,,,,false,,,,,false,778060.6999999285,778060.6999999285,,778060.5999999046,,777866.076,4,500,,
sequence,flow.Sequence,10_35,2023-11-17T20:43:40.771Z,,,,,,,,,,,4403.174999928451,completion,,,,,,,low,high,,,,,,false,,,,,false,778060.7999999523,778060.6999999285,773623.415,773853.3999999762,773657.525,777866.076,4,500,,
trial,html.Screen,10_36_0,2023-11-17T20:43:47.587Z,,,,1,-0.0362376068089956,-0.047825070846155,,0.05,false,lh,7010.423999999999,response,-0.869932994914832,1.1321217981791902,-0.9002905582010777,0.8880533324432531,1.061325560919514,-1.0433804225626253,low,high,,ISIC_6985114.JPG,9,ISIC_8617084.JPG,26,false,0.20000000000000007,hl,keypress(j),0,false,784876.5999999046,784876.5,777831.512,778061,777866.076,784678.094,4,500,37,
break,html.Screen,10_36_1,2023-11-17T20:43:47.588Z,,,,,,,,,,,NaN,,,,,,,,low,high,,,,,,false,,,,,false,784877.3999999762,784877.1999999285,,784876.8999999762,,784678.094,4,500,,
break_continue,html.Screen,10_36_2,2023-11-17T20:43:47.588Z,,,,,,,,,,,NaN,,,,,,,,low,high,,,,,,false,,,,,false,784877.8999999762,784877.7999999523,,784877.5999999046,,784678.094,4,500,,
sequence,flow.Sequence,10_36,2023-11-17T20:43:47.589Z,,,,,,,,,,,7011.723999952315,completion,,,,,,,low,high,,,,,,false,,,,,false,784878.0999999046,784877.7999999523,777831.512,778060.8999999762,777866.076,784678.094,4,500,,
trial,html.Screen,10_37_0,2023-11-17T20:43:54.066Z,,,,1,-0.0051189696037511,0.0396625911332438,,0.05,false,lh,6677.605999928433,response,-0.7784583866003763,1.1321217981791902,-0.9002905582010777,0.9641514808986528,1.061325560919514,-1.0433804225626253,low,high,,ISIC_9742891.JPG,9,ISIC_0011924.JPG,26,false,0.20000000000000007,ll,keypress(f),0,false,791355.7999999523,791355.6999999285,784661.539,784878.2999999523,784678.094,791157.601,4,500,38,
break,html.Screen,10_37_1,2023-11-17T20:43:54.067Z,,,,,,,,,,,NaN,,,,,,,,low,high,,,,,,false,,,,,false,791356.0999999046,791356.0999999046,,791355.8999999762,,791157.601,4,500,,
break_continue,html.Screen,10_37_2,2023-11-17T20:43:54.067Z,,,,,,,,,,,NaN,,,,,,,,low,high,,,,,,false,,,,,false,791356.1999999285,791356.1999999285,,791356.0999999046,,791157.601,4,500,,
sequence,flow.Sequence,10_37,2023-11-17T20:43:54.067Z,,,,,,,,,,,6678.105999928433,completion,,,,,,,low,high,,,,,,false,,,,,false,791356.2999999523,791356.1999999285,784661.539,784878.2999999523,784678.094,791157.601,4,500,,
trial,html.Screen,10_38_0,2023-11-17T20:43:59.211Z,,,,1,0.0116094682222121,-0.0258434522530318,,0.05,true,hh,5342.398999999976,response,1.0351900568634125,1.1321217981791902,-0.9002905582010777,1.060448537312289,1.061325560919514,-1.0433804225626253,high,high,,ISIC_9239632.JPG,9,ISIC_4377208.JPG,32,false,0.1,hh,keypress(i),0,false,796500.1999999285,796500,791140.891,791356.3999999762,791157.601,796300.689,4,500,39,
break,html.Screen,10_38_1,2023-11-17T20:43:59.211Z,,,,,,,,,,,NaN,,,,,,,,high,high,,,,,,false,,,,,false,796500.7999999523,796500.6999999285,,796500.3999999762,,796300.689,4,500,,
break_continue,html.Screen,10_38_2,2023-11-17T20:43:59.212Z,,,,,,,,,,,NaN,,,,,,,,high,high,,,,,,false,,,,,false,796501.2999999523,796501.0999999046,,796500.8999999762,,796300.689,4,500,,
