sender,sender_type,sender_id,timestamp,meta,,age,blockNo,c1,c2,condition,control_tolerance,correct,correctResponse,duration,ended_on,f1,f1_high,f1_low,f2,f2_high,f2_low,feature_level1,feature_level2,gender,img_left,img_reveal,img_right,n_target_images,practice,range_tolerance,response,response_action,selection_duration,staircase,time_commit,time_end,time_render,time_run,time_show,time_switch,total_blocks,total_trials,trialNo,url
informed_consent,html.Screen,0,2023-11-17T16:45:04.197Z,"{""labjs_version"":""20.2.4"",""labjs_build"":{""flavor"":""development"",""commit"":""f5b4a49f956347addd546a832a3327688c2c0fef""},""location"":""https://labjs.felixhenninger.com/api/labjs_preview/index.html"",""userAgent"":""Mozilla/5.0 (Windows NT 10.0; Win64; x64) AppleWebKit/537.36 (KHTML, like Gecko) Chrome/119.0.0.0 Safari/537.36"",""platform"":""Win32"",""language"":""en-US"",""locale"":""en-US"",""timeZone"":""America/Chicago"",""timezoneOffset"":360,""screen_width"":1680,""screen_height"":1050,""scroll_width"":825,""scroll_height"":888,""window_innerWidth"":825,""window_innerHeight"":936,""devicePixelRatio"":1}",,,,,,,,,,114635.71100004768,response,,,,,,,,,,,,,,,,consent,click button,,,115318.39999997616,115309.20000004768,656.795,644.7000000476837,673.489,115329.775,,,,{}
Demography form,html.Form,1,2023-11-17T16:45:16.654Z,,,19,,,,,,,,12445.325000023848,form submission,,,,,,,,,female,,,,,,,,,,,127775.10000002384,127775.10000002384,115313.01,115318.70000004768,115329.775,127787.389,,,,
Welcome,html.Screen,2,2023-11-17T16:46:16.716Z,,,,,,,"[""asym"",""col""]",,,,60049.711000023846,response,,,,,,,,,,,,,,,,continue,click button,,,187837.60000002384,187837.10000002384,127770.6,127775.20000004768,127787.389,187854.333,,,,
demo_instructions,html.Screen,3,2023-11-17T16:48:44.829Z,,,,,,,,,,,148094.76700002383,response,,,,,,,,,,,,,,,,continue,click button,,,335949.60000002384,335949.10000002384,187837.378,187837.79999995232,187854.333,335975.499,,,,
trial,html.Screen,4_0_0,2023-11-17T16:48:59.845Z,,,,0,0.8787496315223856,-1.3680901203013998,,,true,lh,14990.101000023831,response,-1.11329866545753,1.2,-1.2,1.2155631217348757,1.2,-1.2,low,high,,ISIC_0023811.JPG,,ISIC_0032610.JPG,29,true,0.3600000000000002,lh,keypress(e),100,false,350965.7999999523,350965.60000002384,335958.811,335949.7000000477,335975.499,350988.015,1,16,1,
sequence,flow.Sequence,4_0,2023-11-17T16:48:59.845Z,,,,,,,,,,,14990.101000023831,completion,,,,,,,low,high,,,,,,true,,,,,false,350966.2000000477,350965.60000002384,335958.811,335949.7000000477,335975.499,350988.015,1,16,,
trial,html.Screen,4_1_0,2023-11-17T16:49:06.575Z,,,,0,0.9212323139676136,-0.9882196642247332,,,true,lh,6707.484999999986,response,-0.9385447468573198,1.2,-1.2,1.2289860846064424,1.2,-1.2,low,high,,ISIC_0014255.JPG,,ISIC_0032780.JPG,29,true,0.3600000000000002,lh,keypress(e),100,false,357695.7000000477,357695.5,350971.354,350966.39999997616,350988.015,357718.037,1,16,2,
sequence,flow.Sequence,4_1,2023-11-17T16:49:06.575Z,,,,,,,,,,,6707.484999999986,completion,,,,,,,low,high,,,,,,true,,,,,false,357695.89999997616,357695.5,350971.354,350966.2999999523,350988.015,357718.037,1,16,,
trial,html.Screen,4_2_0,2023-11-17T16:49:11.373Z,,,,0,1.0700930503975157,-0.923753102263735,,,true,lh,4775.862999976147,response,-0.9445114955578736,1.2,-1.2,1.0054210059625863,1.2,-1.2,low,high,,ISIC_0000022.JPG,,ISIC_0033807.JPG,29,true,0.3600000000000002,lh,keypress(e),100,false,362494.10000002384,362493.89999997616,357701.109,357696,357718.037,362510.599,1,16,3,
sequence,flow.Sequence,4_2,2023-11-17T16:49:11.373Z,,,,,,,,,,,4775.862999976147,completion,,,,,,,low,high,,,,,,true,,,,,false,362494.39999997616,362493.89999997616,357701.109,357695.89999997616,357718.037,362510.599,1,16,,
trial,html.Screen,4_3_0,2023-11-17T16:49:14.971Z,,,,0,1.1547137855907486,-1.0185275168641534,,,true,lh,3580.9010000000126,response,-1.064425982109969,1.2,-1.2,0.958564243697126,1.2,-1.2,low,high,,ISIC_7604870.JPG,,ISIC_3203344.JPG,29,true,0.3600000000000002,lh,keypress(e),100,false,366091.60000002384,366091.5,362493.828,362494.5,362510.599,366117.562,1,16,4,
sequence,flow.Sequence,4_3,2023-11-17T16:49:14.971Z,,,,,,,,,,,3580.9010000000126,completion,,,,,,,low,high,,,,,,true,,,,,false,366091.7999999523,366091.5,362493.828,362494.5,362510.599,366117.562,1,16,,
trial,html.Screen,4_4_0,2023-11-17T16:49:22.591Z,,,,0,1.1392234684115472,1.3198277407683998,,,true,ll,7593.938000000024,response,-1.1432120973785689,1.2,-1.2,-0.973254467915268,1.2,-1.2,low,low,,ISIC_0071875.JPG,,ISIC_2072219.JPG,127,true,0.3300000000000002,ll,keypress(f),100,false,373711.60000002384,373711.5,366101.013,366091.89999997616,366117.562,373732.271,1,16,5,
sequence,flow.Sequence,4_4,2023-11-17T16:49:22.591Z,,,,,,,,,,,7593.938000000024,completion,,,,,,,low,low,,,,,,true,,,,,false,373711.7999999523,373711.5,366101.013,366091.89999997616,366117.562,373732.271,1,16,,
trial,html.Screen,4_5_0,2023-11-17T16:49:26.342Z,,,,0,1.2315945866020412,1.13226141421557,,,true,ll,3730.5289999523084,response,-1.3045229691102764,1.2,-1.2,-1.1781544075681951,1.2,-1.2,low,low,,ISIC_0033595.JPG,,ISIC_6148533.JPG,25,true,0.15000000000000002,ll,keypress(f),100,false,377463,377462.7999999523,373715.557,373711.89999997616,373732.271,377489.791,1,16,6,
sequence,flow.Sequence,4_5,2023-11-17T16:49:26.342Z,,,,,,,,,,,3730.5289999523084,completion,,,,,,,low,low,,,,,,true,,,,,false,377463.10000002384,377462.7999999523,373715.557,373711.89999997616,373732.271,377489.791,1,16,,
trial,html.Screen,4_6_0,2023-11-17T16:49:33.661Z,,,,0,1.3034518282811869,1.0897657776277234,,,true,ll,7291.50899995229,response,-1.0959058628476686,1.2,-1.2,-1.2921331918483707,1.2,-1.2,low,low,,ISIC_0071988.JPG,,ISIC_5920470.JPG,25,true,0.15000000000000002,ll,keypress(f),100,false,384781.5,384781.2999999523,377473.048,377463.2999999523,377489.791,384803.781,1,16,7,
sequence,flow.Sequence,4_6,2023-11-17T16:49:33.662Z,,,,,,,,,,,7291.50899995229,completion,,,,,,,low,low,,,,,,true,,,,,false,384781.7999999523,384781.2999999523,377473.048,377463.2000000477,377489.791,384803.781,1,16,,
trial,html.Screen,4_7_0,2023-11-17T16:49:38.726Z,,,,0,1.1783311757907324,1.266840220031473,,,true,ll,5041.718999999983,response,-1.3045229691102764,1.2,-1.2,-1.1781544075681951,1.2,-1.2,low,low,,ISIC_8241457.JPG,,ISIC_6148533.JPG,25,true,0.15000000000000002,ll,keypress(f),100,false,389845.7000000477,389845.5,384787.076,384781.89999997616,384803.781,389863.628,1,16,8,
sequence,flow.Sequence,4_7,2023-11-17T16:49:38.726Z,,,,,,,,,,,5041.718999999983,completion,,,,,,,low,low,,,,,,true,,,,,false,389846,389845.5,384787.076,384781.89999997616,384803.781,389863.628,1,16,,
trial,html.Screen,4_8_0,2023-11-17T16:49:49.408Z,,,,0,-0.8534691366511764,1.276663727068437,,,true,hl,10663.871999999974,response,1.1547137855907486,1.2,-1.2,-1.0185275168641534,1.2,-1.2,high,low,,ISIC_0056788.JPG,,ISIC_7604870.JPG,26,true,0.3300000000000002,hl,keypress(j),100,false,400527.7999999523,400527.5,389846.933,389846,389863.628,400551.152,1,16,9,
sequence,flow.Sequence,4_8,2023-11-17T16:49:49.408Z,,,,,,,,,,,10663.871999999974,completion,,,,,,,high,low,,,,,,true,,,,,false,400528,400527.5,389846.933,389846,389863.628,400551.152,1,16,,
trial,html.Screen,4_9_0,2023-11-17T16:49:54.052Z,,,,0,-0.8479396253253069,1.011054319516718,,,true,hl,4621.247999976156,response,0.9046170303418553,1.2,-1.2,-1.0063426986460375,1.2,-1.2,high,low,,ISIC_0063521.JPG,,ISIC_0055759.JPG,33,true,0.3600000000000002,hl,keypress(j),100,false,405172.60000002384,405172.39999997616,400534.375,400528.2000000477,400551.152,405193.441,1,16,10,
sequence,flow.Sequence,4_9,2023-11-17T16:49:54.053Z,,,,,,,,,,,4621.247999976156,completion,,,,,,,high,low,,,,,,true,,,,,false,405172.89999997616,405172.39999997616,400534.375,400528.10000002384,400551.152,405193.441,1,16,,
trial,html.Screen,4_10_0,2023-11-17T16:49:59.226Z,,,,0,-0.8779374983479176,0.9745548032823428,,,true,hl,5152.358999952325,response,0.887838744955182,1.2,-1.2,-1.3716210719758812,1.2,-1.2,high,low,,ISIC_2991354.JPG,,ISIC_1488727.JPG,33,true,0.3600000000000002,hl,keypress(j),100,false,410345.89999997616,410345.7999999523,405176.753,405173,405193.441,410370.428,1,16,11,
sequence,flow.Sequence,4_10,2023-11-17T16:49:59.226Z,,,,,,,,,,,5152.358999952325,completion,,,,,,,high,low,,,,,,true,,,,,false,410346.10000002384,410345.7999999523,405176.753,405172.89999997616,405193.441,410370.428,1,16,,
trial,html.Screen,4_11_0,2023-11-17T16:50:07.533Z,,,,0,-0.9039158082670506,1.0517562064343149,,,true,hl,8282.871999952302,response,0.9873794329144926,1.2,-1.2,-0.9500689037516484,1.2,-1.2,high,low,,ISIC_0015411.JPG,,ISIC_0013498.JPG,33,true,0.3600000000000002,hl,keypress(j),100,false,418653.5,418653.2999999523,410353.512,410346.2999999523,410370.428,418669.906,1,16,12,
sequence,flow.Sequence,4_11,2023-11-17T16:50:07.534Z,,,,,,,,,,,8282.871999952302,completion,,,,,,,high,low,,,,,,true,,,,,false,418653.7000000477,418653.2999999523,410353.512,410346.2000000477,410370.428,418669.906,1,16,,
trial,html.Screen,4_12_0,2023-11-17T16:50:12.118Z,,,,0,-1.0581281450494728,-1.133169116569424,,,true,hh,4568.2940000476665,response,1.0491289899026992,1.2,-1.2,1.5215061912609664,1.2,-1.2,high,high,,ISIC_5490352.JPG,,ISIC_0010866.JPG,249,true,0.3600000000000002,hh,keypress(i),100,false,423238.2999999523,423238.2000000477,418653.092,418653.7999999523,418669.906,423262.064,1,16,13,
sequence,flow.Sequence,4_12,2023-11-17T16:50:12.118Z,,,,,,,,,,,4568.2940000476665,completion,,,,,,,high,high,,,,,,true,,,,,false,423238.7000000477,423238.2000000477,418653.092,418653.7999999523,418669.906,423262.064,1,16,,
trial,html.Screen,4_13_0,2023-11-17T16:50:15.842Z,,,,0,-1.1655508270784471,-1.1162776063248168,,,true,hh,3700.1360000476707,response,1.089914260719518,1.2,-1.2,1.1695563571046357,1.2,-1.2,high,high,,ISIC_5509946.JPG,,ISIC_0030695.JPG,41,true,0.15000000000000002,hh,keypress(i),100,false,426962.39999997616,426962.2000000477,423245.22,423238.7000000477,423262.064,426986.041,1,16,14,
sequence,flow.Sequence,4_13,2023-11-17T16:50:15.842Z,,,,,,,,,,,3700.1360000476707,completion,,,,,,,high,high,,,,,,true,,,,,false,426962.7000000477,426962.2000000477,423245.22,423238.7000000477,423262.064,426986.041,1,16,,
trial,html.Screen,4_14_0,2023-11-17T16:50:18.683Z,,,,0,-1.294521945180264,-1.3078626540563885,,,true,hh,2817.159000047657,response,1.1320017221158485,1.2,-1.2,1.065213496692536,1.2,-1.2,high,high,,ISIC_3601224.JPG,,ISIC_0030597.JPG,41,true,0.15000000000000002,hh,keypress(i),100,false,429803.2999999523,429803.2000000477,426969.165,426962.7999999523,426986.041,429824.922,1,16,15,
sequence,flow.Sequence,4_14,2023-11-17T16:50:18.683Z,,,,,,,,,,,2817.159000047657,completion,,,,,,,high,high,,,,,,true,,,,,false,429803.60000002384,429803.2000000477,426969.165,426962.7000000477,426986.041,429824.922,1,16,,
trial,html.Screen,4_15_0,2023-11-17T16:50:24.788Z,,,,0,-1.1727618800748076,-1.0636787813411093,,,true,hh,6083.0779999999795,response,1.2040551955011098,1.2,-1.2,1.2664651062241792,1.2,-1.2,high,high,,ISIC_9690371.JPG,,ISIC_0068886.JPG,41,true,0.15000000000000002,hh,keypress(i),100,false,435908.2000000477,435908,429808.024,429803.7000000477,429824.922,435936.577,1,16,16,
sequence,flow.Sequence,4_15,2023-11-17T16:50:24.788Z,,,,,,,,,,,6083.0779999999795,completion,,,,,,,high,high,,,,,,true,,,,,false,435908.5,435908,429808.024,429803.60000002384,429824.922,435936.577,1,16,,
demonstration_loop,flow.Loop,4,2023-11-17T16:50:24.789Z,,,,,,,,,,,99932.50099999999,completion,,,,,,,,,,,,,,true,,,,,false,435908.7000000477,435908,335958.811,335949.7000000477,335975.499,435936.577,1,16,,
practice_instructions,html.Screen,5,2023-11-17T16:50:46.710Z,,,,,,,,,,,21884.222999952326,response,,,,,,,,,,,,,,,,continue,click button,,,457828.39999997616,457820.7999999523,435919.922,435908.7999999523,435936.577,457845.911,,,,
trial,html.Screen,6_0_0,2023-11-17T16:50:56.022Z,,,,1,-1.1217390688497193,-1.2276600934505035,,,true,hh,9286.888999952294,response,1.2289750544294995,1.2,-1.2,1.3003764624334877,1.2,-1.2,high,high,,ISIC_0026344.JPG,,ISIC_0054167.JPG,27,true,0.12,hh,keypress(i),0,false,467140.2000000477,467132.7999999523,457829.144,457828.5,457845.911,467147.245,1,40,1,
sequence,flow.Sequence,6_0,2023-11-17T16:50:56.022Z,,,,,,,,,,,9286.888999952294,completion,,,,,,,high,high,,,,,,true,,,,,false,467140.2999999523,467132.7999999523,457829.144,457828.5,457845.911,467147.245,1,40,,
trial,html.Screen,6_1_0,2023-11-17T16:50:59.535Z,,,,1,-1.204229955025689,-1.0874249761617445,,,true,hh,3506.554999952321,response,1.2015106101917423,1.2,-1.2,1.3393124611420348,1.2,-1.2,high,high,,ISIC_0056930.JPG,,ISIC_0072496.JPG,41,true,0.15000000000000002,hh,keypress(i),0,false,470654,470653.7999999523,467130.623,467140.39999997616,467147.245,470670.781,1,40,2,
sequence,flow.Sequence,6_1,2023-11-17T16:50:59.536Z,,,,,,,,,,,3506.554999952321,completion,,,,,,,high,high,,,,,,true,,,,,false,470654.2000000477,470653.7999999523,467130.623,467140.39999997616,467147.245,470670.781,1,40,,
trial,html.Screen,6_2_0,2023-11-17T16:51:07.255Z,,,,1,1.2704198237183777,-1.138121072015301,,,false,lh,7702.618999976141,response,-1.4727776799485246,1.2,-1.2,0.8779113138076752,1.2,-1.2,low,high,,ISIC_0501843.JPG,,ISIC_0033074.JPG,29,true,0.3600000000000002,hh,keypress(i),0,false,478373.5,478373.39999997616,470654.228,470654.2999999523,470670.781,478385.937,1,40,3,
sequence,flow.Sequence,6_2,2023-11-17T16:51:07.255Z,,,,,,,,,,,7702.618999976141,completion,,,,,,,low,high,,,,,,true,,,,,false,478373.7000000477,478373.39999997616,470654.228,470654.2999999523,470670.781,478385.937,1,40,,
trial,html.Screen,6_3_0,2023-11-17T16:51:12.672Z,,,,1,1.152619213055059,1.2957497771092716,,,true,ll,5404.063000000024,response,-0.894033318100927,1.2,-1.2,-0.9842451068179496,1.2,-1.2,low,low,,ISIC_0061915.JPG,,ISIC_0015298.JPG,127,true,0.3300000000000002,ll,keypress(f),0,false,483790.2000000477,483790,478369.163,478373.7000000477,478385.937,483813.001,1,40,4,
sequence,flow.Sequence,6_3,2023-11-17T16:51:12.672Z,,,,,,,,,,,5404.063000000024,completion,,,,,,,low,low,,,,,,true,,,,,false,483790.60000002384,483790,478369.163,478373.7000000477,478385.937,483813.001,1,40,,
trial,html.Screen,6_4_0,2023-11-17T16:51:16.943Z,,,,1,0.9046170303418553,-1.0063426986460375,,,true,lh,4248.398999976169,response,-0.9445114955578736,1.2,-1.2,1.0054210059625863,1.2,-1.2,low,high,,ISIC_0055759.JPG,,ISIC_0033807.JPG,29,true,0.3600000000000002,lh,keypress(e),0,false,488061.60000002384,488061.39999997616,483779.756,483790.60000002384,483813.001,488071.527,1,40,5,
sequence,flow.Sequence,6_4,2023-11-17T16:51:16.943Z,,,,,,,,,,,4248.398999976169,completion,,,,,,,low,high,,,,,,true,,,,,false,488061.60000002384,488061.39999997616,483779.756,483790.60000002384,483813.001,488071.527,1,40,,
trial,html.Screen,6_5_0,2023-11-17T16:51:23.655Z,,,,1,1.2289750544294995,1.3003764624334877,,,true,ll,6702.173000047682,response,-1.267387686712545,1.2,-1.2,-0.9124690562312904,1.2,-1.2,low,low,,ISIC_0054167.JPG,,ISIC_4544879.JPG,127,true,0.3300000000000002,ll,keypress(f),0,false,494773.89999997616,494773.7000000477,488054.743,488061.7999999523,488071.527,494784.317,1,40,6,
sequence,flow.Sequence,6_5,2023-11-17T16:51:23.656Z,,,,,,,,,,,6702.173000047682,completion,,,,,,,low,low,,,,,,true,,,,,false,494774.2000000477,494773.7000000477,488054.743,488061.7000000477,488071.527,494784.317,1,40,,
trial,html.Screen,6_6_0,2023-11-17T16:51:29.503Z,,,,1,1.1894733304494307,1.1169761866204877,,,true,ll,5837.283000023861,response,-1.1990772227054871,1.2,-1.2,-1.1224329926844498,1.2,-1.2,low,low,,ISIC_0033813.JPG,,ISIC_3425388.JPG,25,true,0.15000000000000002,ll,keypress(f),0,false,500621.7999999523,500621.60000002384,494767.72,494774.2999999523,494784.317,500629.015,1,40,7,
sequence,flow.Sequence,6_6,2023-11-17T16:51:29.504Z,,,,,,,,,,,5837.283000023861,completion,,,,,,,low,low,,,,,,true,,,,,false,500622.10000002384,500621.60000002384,494767.72,494774.2999999523,494784.317,500629.015,1,40,,
trial,html.Screen,6_7_0,2023-11-17T16:51:32.810Z,,,,1,1.1671212908494544,1.1286681796701683,,,true,ll,3297.1850000476697,response,-1.0885984639975343,1.2,-1.2,-1.2042618719491294,1.2,-1.2,low,low,,ISIC_0065022.JPG,,ISIC_0012740.JPG,25,true,0.15000000000000002,ll,keypress(f),0,false,503926.39999997616,503926.2000000477,500612.532,500622.2999999523,500629.015,503952.171,1,40,8,
sequence,flow.Sequence,6_7,2023-11-17T16:51:32.811Z,,,,,,,,,,,3297.1850000476697,completion,,,,,,,low,low,,,,,,true,,,,,false,503926.7999999523,503926.2000000477,500612.532,500622.2000000477,500629.015,503952.171,1,40,,
trial,html.Screen,6_8_0,2023-11-17T16:51:36.578Z,,,,1,1.0961318727760048,-1.2134960228256146,,,true,lh,3741.829000000027,response,-0.9039158082670506,1.2,-1.2,1.0517562064343149,1.2,-1.2,low,high,,ISIC_9768421.JPG,,ISIC_0015411.JPG,29,true,0.3600000000000002,lh,keypress(e),0,false,507694.10000002384,507694,503918.809,503927,503952.171,507709.72,1,40,9,
sequence,flow.Sequence,6_8,2023-11-17T16:51:36.578Z,,,,,,,,,,,3741.829000000027,completion,,,,,,,low,high,,,,,,true,,,,,false,507694.39999997616,507694,503918.809,503927,503952.171,507709.72,1,40,,
trial,html.Screen,6_9_0,2023-11-17T16:51:40.425Z,,,,1,-1.212030980680325,-1.139863018685685,,,true,hh,3831.38000002387,response,0.985420189652684,1.2,-1.2,0.8921028806662099,1.2,-1.2,high,high,,ISIC_0008510.JPG,,ISIC_0014982.JPG,211,true,0.3300000000000002,hh,keypress(i),0,false,511541.10000002384,511541.10000002384,507692.743,507694.5,507709.72,511550.243,1,40,10,
sequence,flow.Sequence,6_9,2023-11-17T16:51:40.425Z,,,,,,,,,,,3831.38000002387,completion,,,,,,,high,high,,,,,,true,,,,,false,511541.2999999523,511541.10000002384,507692.743,507694.5,507709.72,511550.243,1,40,,
trial,html.Screen,6_10_0,2023-11-17T16:51:43.754Z,,,,1,-1.2714351764931109,-1.0785174776187512,,,true,hh,3319.7569999999832,response,1.3271122559811526,1.2,-1.2,1.292001792497521,1.2,-1.2,high,high,,ISIC_2454898.JPG,,ISIC_0065181.JPG,41,true,0.15000000000000002,hh,keypress(i),0,false,514870.2999999523,514870,511533.814,511541.2999999523,511550.243,514890.097,1,40,11,
sequence,flow.Sequence,6_10,2023-11-17T16:51:43.754Z,,,,,,,,,,,3319.7569999999832,completion,,,,,,,high,high,,,,,,true,,,,,false,514870.60000002384,514870,511533.814,511541.2999999523,511550.243,514890.097,1,40,,
trial,html.Screen,6_11_0,2023-11-17T16:51:47.410Z,,,,1,1.0961318727760048,-1.2134960228256146,,,true,lh,3636.3029999761493,response,-1.3559315773956395,1.2,-1.2,0.924768326187701,1.2,-1.2,low,high,,ISIC_9768421.JPG,,ISIC_5101111.JPG,29,true,0.3600000000000002,lh,keypress(e),0,false,518526.60000002384,518526.39999997616,514856.704,514870.7000000477,514890.097,518530.546,1,40,12,
sequence,flow.Sequence,6_11,2023-11-17T16:51:47.411Z,,,,,,,,,,,3636.3029999761493,completion,,,,,,,low,high,,,,,,true,,,,,false,518527,518526.39999997616,514856.704,514870.7000000477,514890.097,518530.546,1,40,,
trial,html.Screen,6_12_0,2023-11-17T16:51:53.090Z,,,,1,-0.8779374983479176,0.9745548032823428,,,true,hl,5675.054000023869,response,0.9670240379618178,1.2,-1.2,-1.1806404773220665,1.2,-1.2,high,low,,ISIC_2991354.JPG,,ISIC_0002288.JPG,26,true,0.3300000000000002,hl,keypress(j),0,false,524205.7999999523,524205.60000002384,518513.941,518527.2000000477,518530.546,524208.255,1,40,13,
sequence,flow.Sequence,6_12,2023-11-17T16:51:53.090Z,,,,,,,,,,,5675.054000023869,completion,,,,,,,high,low,,,,,,true,,,,,false,524206,524205.60000002384,518513.941,518527.2000000477,518530.546,524208.255,1,40,,
trial,html.Screen,6_13_0,2023-11-17T16:51:56.954Z,,,,1,-1.1235224875125256,0.8641223012137988,,,true,hl,3861.7449999999953,response,1.052305774554686,1.2,-1.2,-1.3940181224717798,1.2,-1.2,high,low,,ISIC_0033901.JPG,,ISIC_4175400.JPG,33,true,0.3600000000000002,hl,keypress(j),0,false,528070.1000000238,528070,524191.5,524206.10000002384,524208.255,528082.479,1,40,14,
sequence,flow.Sequence,6_13,2023-11-17T16:51:56.954Z,,,,,,,,,,,3861.7449999999953,completion,,,,,,,high,low,,,,,,true,,,,,false,528070.3999999762,528070,524191.5,524206.10000002384,524208.255,528082.479,1,40,,
trial,html.Screen,6_14_0,2023-11-17T16:52:00.993Z,,,,1,-1.1990772227054871,-1.1224329926844498,,,true,hh,4026.7210000476334,response,1.018568530854085,1.2,-1.2,1.1850528225859975,1.2,-1.2,high,high,,ISIC_3425388.JPG,,ISIC_0057180.JPG,249,true,0.3600000000000002,hh,keypress(i),0,false,532109.2999999523,532109.2000000477,528065.825,528070.6000000238,528082.479,532123.861,1,40,15,
sequence,flow.Sequence,6_14,2023-11-17T16:52:00.993Z,,,,,,,,,,,4026.7210000476334,completion,,,,,,,high,high,,,,,,true,,,,,false,532109.3999999762,532109.2000000477,528065.825,528070.6000000238,528082.479,532123.861,1,40,,
trial,html.Screen,6_15_0,2023-11-17T16:52:07.586Z,,,,1,1.089914260719518,1.1695563571046357,,,true,ll,6577.6389999999665,response,-1.1510001454240106,1.2,-1.2,-1.132540312667795,1.2,-1.2,low,low,,ISIC_0030695.JPG,,ISIC_0009959.JPG,25,true,0.15000000000000002,ll,keypress(f),0,false,538701.7000000477,538701.5,532107.109,532109.5,532123.861,538721.034,1,40,16,
sequence,flow.Sequence,6_15,2023-11-17T16:52:07.586Z,,,,,,,,,,,6577.6389999999665,completion,,,,,,,low,low,,,,,,true,,,,,false,538702.1000000238,538701.5,532107.109,532109.5,532123.861,538721.034,1,40,,
trial,html.Screen,6_16_0,2023-11-17T16:52:11.937Z,,,,1,-1.1217390688497193,-1.2276600934505035,,,true,hh,4332.265999952331,response,1.2040551955011098,1.2,-1.2,1.2664651062241792,1.2,-1.2,high,high,,ISIC_0026344.JPG,,ISIC_0068886.JPG,27,true,0.12,hh,keypress(i),0,false,543053.3999999762,543053.2999999523,538686.514,538702.1000000238,538721.034,543061.545,1,40,17,
sequence,flow.Sequence,6_16,2023-11-17T16:52:11.937Z,,,,,,,,,,,4332.265999952331,completion,,,,,,,high,high,,,,,,true,,,,,false,543053.6000000238,543053.2999999523,538686.514,538702.1000000238,538721.034,543061.545,1,40,,
trial,html.Screen,6_17_0,2023-11-17T16:52:27.818Z,,,,1,0.9566823908868002,-0.9602125665128364,,,true,lh,15872.254999952274,response,-0.9445114955578736,1.2,-1.2,1.0054210059625863,1.2,-1.2,low,high,,ISIC_0056784.JPG,,ISIC_0033807.JPG,29,true,0.3600000000000002,lh,keypress(e),0,false,558934,558933.7999999523,543045.066,543053.6000000238,543061.545,558959.337,1,40,18,
sequence,flow.Sequence,6_17,2023-11-17T16:52:27.818Z,,,,,,,,,,,15872.254999952274,completion,,,,,,,low,high,,,,,,true,,,,,false,558934.1000000238,558933.7999999523,543045.066,543053.6000000238,543061.545,558959.337,1,40,,
trial,html.Screen,6_18_0,2023-11-17T16:52:32.788Z,,,,1,1.2059606637811695,1.214966446488752,,,true,ll,4942.263000023784,response,-1.4076170529882488,1.2,-1.2,-1.2895723530339247,1.2,-1.2,low,low,,ISIC_0013334.JPG,,ISIC_8545097.JPG,127,true,0.3300000000000002,ll,keypress(f),0,false,563901.7999999523,563901.6000000238,558942.575,558934.2000000477,558959.337,563935.506,1,40,19,
sequence,flow.Sequence,6_18,2023-11-17T16:52:32.788Z,,,,,,,,,,,4942.263000023784,completion,,,,,,,low,low,,,,,,true,,,,,false,563902.1000000238,563901.6000000238,558942.575,558934.2000000477,558959.337,563935.506,1,40,,
trial,html.Screen,6_19_0,2023-11-17T16:52:37.883Z,,,,1,1.155796217969438,-1.1646564121743912,,,true,lh,5061.793999952264,response,-1.0003671514840182,1.2,-1.2,0.8992716557663581,1.2,-1.2,low,high,,ISIC_2685523.JPG,,ISIC_0061749.JPG,29,true,0.3600000000000002,lh,keypress(e),0,false,568997.3999999762,568997.2999999523,563902.233,563902.2000000477,563935.506,569012.199,1,40,20,
sequence,flow.Sequence,6_19,2023-11-17T16:52:37.883Z,,,,,,,,,,,5061.793999952264,completion,,,,,,,low,high,,,,,,true,,,,,false,568997.6000000238,568997.2999999523,563902.233,563902.1000000238,563935.506,569012.199,1,40,,
trial,html.Screen,6_20_0,2023-11-17T16:52:42.491Z,,,,1,1.1783311757907324,1.266840220031473,,,true,ll,4593.200999976136,response,-1.1638334638021437,1.2,-1.2,-1.0846635401396965,1.2,-1.2,low,low,,ISIC_8241457.JPG,,ISIC_4718313.JPG,127,true,0.3300000000000002,ll,keypress(f),0,false,573605.6000000238,573605.3999999762,568995.551,568997.6000000238,569012.199,573620.986,1,40,21,
sequence,flow.Sequence,6_20,2023-11-17T16:52:42.492Z,,,,,,,,,,,4593.200999976136,completion,,,,,,,low,low,,,,,,true,,,,,false,573605.7000000477,573605.3999999762,568995.551,568997.6000000238,569012.199,573620.986,1,40,,
trial,html.Screen,6_21_0,2023-11-17T16:52:51.747Z,,,,1,1.055319394932912,-1.409116680310466,,,true,lh,9240.413999976125,response,-1.3515962101204746,1.2,-1.2,0.8414583575292955,1.2,-1.2,low,high,,ISIC_6398669.JPG,,ISIC_0274382.JPG,29,true,0.3600000000000002,lh,keypress(e),0,false,582861.3999999762,582861.3999999762,573604.517,573605.8999999762,573620.986,582872.305,1,40,22,
sequence,flow.Sequence,6_21,2023-11-17T16:52:51.748Z,,,,,,,,,,,9240.413999976125,completion,,,,,,,low,high,,,,,,true,,,,,false,582861.7000000477,582861.3999999762,573604.517,573605.7000000477,573620.986,582872.305,1,40,,
trial,html.Screen,6_22_0,2023-11-17T16:52:55.140Z,,,,1,-0.9445114955578736,1.0054210059625863,,,true,hl,3381.594999976107,response,0.9225524349657857,1.2,-1.2,-0.929746784178986,1.2,-1.2,high,low,,ISIC_0033807.JPG,,ISIC_0011077.JPG,26,true,0.3300000000000002,hl,keypress(j),0,false,586254.1000000238,586253.8999999762,582855.735,582861.7000000477,582872.305,586262.23,1,40,23,
sequence,flow.Sequence,6_22,2023-11-17T16:52:55.140Z,,,,,,,,,,,3381.594999976107,completion,,,,,,,high,low,,,,,,true,,,,,false,586254.6000000238,586253.8999999762,582855.735,582861.7000000477,582872.305,586262.23,1,40,,
trial,html.Screen,6_23_0,2023-11-17T16:52:58.052Z,,,,1,1.2232482867978696,1.2451219760556858,,,true,ll,2903.1699999761768,response,-1.1569583426015195,1.2,-1.2,-1.02258614327008,1.2,-1.2,low,low,,ISIC_0030889.JPG,,ISIC_5705973.JPG,157,true,0.3600000000000002,ll,keypress(f),0,false,589165.6000000238,589165.3999999762,586245.605,586254.7000000477,586262.23,589184.616,1,40,24,
sequence,flow.Sequence,6_23,2023-11-17T16:52:58.052Z,,,,,,,,,,,2903.1699999761768,completion,,,,,,,low,low,,,,,,true,,,,,false,589165.7999999523,589165.3999999762,586245.605,586254.6000000238,586262.23,589184.616,1,40,,
trial,html.Screen,6_24_0,2023-11-17T16:52:59.716Z,,,,1,-1.0143509683988825,1.0281980567462463,,,true,hl,1645.0840000476455,response,1.0700930503975157,1.2,-1.2,-0.923753102263735,1.2,-1.2,high,low,,ISIC_0062031.JPG,,ISIC_0000022.JPG,26,true,0.3300000000000002,hl,keypress(j),0,false,590829.8999999762,590829.7000000477,589151.168,589165.8999999762,589184.616,590837.861,1,40,25,
sequence,flow.Sequence,6_24,2023-11-17T16:52:59.716Z,,,,,,,,,,,1645.0840000476455,completion,,,,,,,high,low,,,,,,true,,,,,false,590830.2000000477,590829.7000000477,589151.168,589165.8999999762,589184.616,590837.861,1,40,,
trial,html.Screen,6_25_0,2023-11-17T16:53:01.307Z,,,,1,-1.1890109863264902,0.8867825318561365,,,true,hl,1583.4389999522828,response,0.8561946552009824,1.2,-1.2,-0.9282171889213044,1.2,-1.2,high,low,,ISIC_0072576.JPG,,ISIC_3065032.JPG,33,true,0.3600000000000002,hl,keypress(j),0,false,592421.5,592421.2999999523,590821.181,590830.2999999523,590837.861,592440.929,1,40,26,
sequence,flow.Sequence,6_25,2023-11-17T16:53:01.308Z,,,,,,,,,,,1583.4389999522828,completion,,,,,,,high,low,,,,,,true,,,,,false,592421.7000000477,592421.2999999523,590821.181,590830.2999999523,590837.861,592440.929,1,40,,
trial,html.Screen,6_26_0,2023-11-17T16:53:02.667Z,,,,1,1.1592423187534993,-1.067128884093211,,,true,lh,1340.27100004768,response,-1.1224745971429997,1.2,-1.2,0.8423270217438888,1.2,-1.2,low,high,,ISIC_6854940.JPG,,ISIC_0057032.JPG,29,true,0.3600000000000002,lh,keypress(e),0,false,593781.2999999523,593781.2000000477,592407.572,592421.8999999762,592440.929,593793.55,1,40,27,
sequence,flow.Sequence,6_26,2023-11-17T16:53:02.667Z,,,,,,,,,,,1340.27100004768,completion,,,,,,,low,high,,,,,,true,,,,,false,593781.5,593781.2000000477,592407.572,592421.8999999762,592440.929,593793.55,1,40,,
trial,html.Screen,6_27_0,2023-11-17T16:53:05.699Z,,,,1,-1.1890109863264902,0.8867825318561365,,,true,hl,3019.7499999522697,response,1.0822170028935367,1.2,-1.2,-1.1654796154432183,1.2,-1.2,high,low,,ISIC_0072576.JPG,,ISIC_7288818.JPG,26,true,0.3300000000000002,hl,keypress(j),0,false,596813.3999999762,596813.2999999523,593777.097,593781.5,593793.55,596816.094,1,40,28,
sequence,flow.Sequence,6_27,2023-11-17T16:53:05.699Z,,,,,,,,,,,3019.7499999522697,completion,,,,,,,high,low,,,,,,true,,,,,false,596813.5,596813.2999999523,593777.097,593781.5,593793.55,596816.094,1,40,,
trial,html.Screen,6_28_0,2023-11-17T16:53:07.796Z,,,,1,-1.2714351764931109,-1.0785174776187512,,,true,hh,2093.805999976117,response,1.0088070132449485,1.2,-1.2,0.9026684221154396,1.2,-1.2,high,high,,ISIC_2454898.JPG,,ISIC_0059314.JPG,249,true,0.3600000000000002,hh,keypress(i),0,false,598910.2000000477,598909.8999999762,596799.409,596813.6000000238,596816.094,598920.216,1,40,29,
sequence,flow.Sequence,6_28,2023-11-17T16:53:07.796Z,,,,,,,,,,,2093.805999976117,completion,,,,,,,high,high,,,,,,true,,,,,false,598910.5,598909.8999999762,596799.409,596813.6000000238,596816.094,598920.216,1,40,,
trial,html.Screen,6_29_0,2023-11-17T16:53:09.299Z,,,,1,-0.8591294258188253,0.870797302150167,,,true,hl,1493.0839999523014,response,1.155796217969438,1.2,-1.2,-1.1646564121743912,1.2,-1.2,high,low,,ISIC_0055841.JPG,,ISIC_2685523.JPG,26,true,0.3300000000000002,hl,keypress(j),0,false,600413.3999999762,600413.2999999523,598903.744,598910.7000000477,598920.216,600423.302,1,40,30,
sequence,flow.Sequence,6_29,2023-11-17T16:53:09.299Z,,,,,,,,,,,1493.0839999523014,completion,,,,,,,high,low,,,,,,true,,,,,false,600413.5,600413.2999999523,598903.744,598910.7000000477,598920.216,600423.302,1,40,,
trial,html.Screen,6_30_0,2023-11-17T16:53:10.739Z,,,,1,1.1671212908494544,1.1286681796701683,,,true,ll,1429.7980000238167,response,-0.9512444996401545,1.2,-1.2,-0.9046053086219094,1.2,-1.2,low,low,,ISIC_0065022.JPG,,ISIC_0059170.JPG,157,true,0.3600000000000002,ll,keypress(f),0,false,601853.1000000238,601853.1000000238,600406.55,600413.5,600423.302,601859.228,1,40,31,
sequence,flow.Sequence,6_30,2023-11-17T16:53:10.739Z,,,,,,,,,,,1429.7980000238167,completion,,,,,,,low,low,,,,,,true,,,,,false,601853.2000000477,601853.1000000238,600406.55,600413.5,600423.302,601859.228,1,40,,
trial,html.Screen,6_31_0,2023-11-17T16:53:12.347Z,,,,1,-0.8479396253253069,1.011054319516718,,,true,hl,1602.0719999523135,response,1.0264463986917702,1.2,-1.2,-1.171271535505083,1.2,-1.2,high,low,,ISIC_0063521.JPG,,ISIC_7889838.JPG,26,true,0.3300000000000002,hl,keypress(j),0,false,603461.5,603461.2999999523,601842.767,601853.2999999523,601859.228,603479.493,1,40,32,
sequence,flow.Sequence,6_31,2023-11-17T16:53:12.348Z,,,,,,,,,,,1602.0719999523135,completion,,,,,,,high,low,,,,,,true,,,,,false,603461.7000000477,603461.2999999523,601842.767,601853.2999999523,601859.228,603479.493,1,40,,
trial,html.Screen,6_32_0,2023-11-17T16:53:14.196Z,,,,1,1.238264833797662,1.176099940770289,,,true,ll,1830.107000023825,response,-0.9487751044258608,1.2,-1.2,-0.9230722071334148,1.2,-1.2,low,low,,ISIC_0032861.JPG,,ISIC_4568084.JPG,157,true,0.3600000000000002,ll,keypress(f),0,false,605309.7000000477,605309.6000000238,603445.787,603461.7000000477,603479.493,605332.681,1,40,33,
sequence,flow.Sequence,6_32,2023-11-17T16:53:14.196Z,,,,,,,,,,,1830.107000023825,completion,,,,,,,low,low,,,,,,true,,,,,false,605310,605309.6000000238,603445.787,603461.7000000477,603479.493,605332.681,1,40,,
trial,html.Screen,6_33_0,2023-11-17T16:53:15.475Z,,,,1,1.155796217969438,-1.1646564121743912,,,true,lh,1256.4190000238596,response,-1.1235224875125256,1.2,-1.2,0.8641223012137988,1.2,-1.2,low,high,,ISIC_2685523.JPG,,ISIC_0033901.JPG,29,true,0.3600000000000002,lh,keypress(e),0,false,606589.2000000477,606589.1000000238,605299.436,605310.1000000238,605332.681,606601.814,1,40,34,
sequence,flow.Sequence,6_33,2023-11-17T16:53:15.475Z,,,,,,,,,,,1256.4190000238596,completion,,,,,,,low,high,,,,,,true,,,,,false,606589.2999999523,606589.1000000238,605299.436,605310.1000000238,605332.681,606601.814,1,40,,
trial,html.Screen,6_34_0,2023-11-17T16:53:17.212Z,,,,1,1.0748728054622358,-1.2840853987892311,,,true,lh,1723.685999999987,response,-1.411763789273233,1.2,-1.2,1.0057734478347988,1.2,-1.2,low,high,,ISIC_0059219.JPG,,ISIC_0027235.JPG,29,true,0.3600000000000002,lh,keypress(e),0,false,608325.7000000477,608325.5,606585.35,606589.2999999523,606601.814,608338.573,1,40,35,
sequence,flow.Sequence,6_34,2023-11-17T16:53:17.212Z,,,,,,,,,,,1723.685999999987,completion,,,,,,,low,high,,,,,,true,,,,,false,608326,608325.5,606585.35,606589.2999999523,606601.814,608338.573,1,40,,
trial,html.Screen,6_35_0,2023-11-17T16:53:18.948Z,,,,1,-1.2200968917423711,-1.3183466064109373,,,true,hh,1722.9270000000251,response,0.9009408285331614,1.2,-1.2,0.8985422901220989,1.2,-1.2,high,high,,ISIC_3624318.JPG,,ISIC_0033834.JPG,211,true,0.3300000000000002,hh,keypress(i),0,false,610061.7000000477,610061.5,608321.938,608326,608338.573,610091.939,1,40,36,
sequence,flow.Sequence,6_35,2023-11-17T16:53:18.948Z,,,,,,,,,,,1722.9270000000251,completion,,,,,,,high,high,,,,,,true,,,,,false,610061.8999999762,610061.5,608321.938,608326,608338.573,610091.939,1,40,,
trial,html.Screen,6_36_0,2023-11-17T16:53:20.532Z,,,,1,-0.9087169856594104,0.8835647084207277,,,true,hl,1554.2610000476707,response,1.2043484010107477,1.2,-1.2,-1.2178113180138233,1.2,-1.2,high,low,,ISIC_0000349.JPG,,ISIC_0011917.JPG,26,true,0.3300000000000002,hl,keypress(j),0,false,611646.5,611646.2000000477,610058.74,610062,610091.939,611661.728,1,40,37,
sequence,flow.Sequence,6_36,2023-11-17T16:53:20.533Z,,,,,,,,,,,1554.2610000476707,completion,,,,,,,high,low,,,,,,true,,,,,false,611646.8999999762,611646.2000000477,610058.74,610062,610091.939,611661.728,1,40,,
trial,html.Screen,6_37_0,2023-11-17T16:53:22.155Z,,,,1,-1.3471772753257971,-1.055978100098093,,,true,hh,1607.372000023839,response,1.2015106101917423,1.2,-1.2,1.3393124611420348,1.2,-1.2,high,high,,ISIC_2077116.JPG,,ISIC_0072496.JPG,249,true,0.3600000000000002,hh,keypress(i),0,false,613269.2999999523,613269.1000000238,611645.012,611647,611661.728,613281.452,1,40,38,
sequence,flow.Sequence,6_37,2023-11-17T16:53:22.155Z,,,,,,,,,,,1607.372000023839,completion,,,,,,,high,high,,,,,,true,,,,,false,613269.5,613269.1000000238,611645.012,611647,611661.728,613281.452,1,40,,
trial,html.Screen,6_38_0,2023-11-17T16:53:23.948Z,,,,1,-1.1727618800748076,-1.0636787813411093,,,true,hh,1780.2480000476353,response,1.1227373144244253,1.2,-1.2,1.1886610799377713,1.2,-1.2,high,high,,ISIC_9690371.JPG,,ISIC_0059506.JPG,41,true,0.15000000000000002,hh,keypress(i),0,false,615061.8999999762,615061.7000000477,613265.009,613269.5,613281.452,615084.984,1,40,39,
sequence,flow.Sequence,6_38,2023-11-17T16:53:23.948Z,,,,,,,,,,,1780.2480000476353,completion,,,,,,,high,high,,,,,,true,,,,,false,615062.2000000477,615061.7000000477,613265.009,613269.5,613281.452,615084.984,1,40,,
trial,html.Screen,6_39_0,2023-11-17T16:53:25.524Z,,,,1,-0.849847885203758,0.973447384095442,,,true,hl,1552.9159999761032,response,1.0822170028935367,1.2,-1.2,-1.1654796154432183,1.2,-1.2,high,low,,ISIC_9612228.JPG,,ISIC_7288818.JPG,26,true,0.3300000000000002,hl,keypress(j),0,false,616638.1000000238,616637.8999999762,615051.768,615062.3999999762,615084.984,616654.731,1,40,40,
sequence,flow.Sequence,6_39,2023-11-17T16:53:25.524Z,,,,,,,,,,,1552.9159999761032,completion,,,,,,,high,low,,,,,,true,,,,,false,616638.3999999762,616637.8999999762,615051.768,615062.2999999523,615084.984,616654.731,1,40,,
practice_loop,flow.Loop,6,2023-11-17T16:53:25.525Z,,,,,,,,,,,158791.98899997614,completion,,,,,,,,,,,,,,true,,,,,false,616638.7000000477,616637.8999999762,457829.144,457828.5,457845.911,616654.731,1,40,,
stair_instructions,html.Screen,7,2023-11-17T16:53:35.741Z,,,,,,,,,,,10197.969000047655,response,,,,,,,,,,,,,,,,continue,click button,,,626853.1000000238,626852.7000000477,616638.213,616638.7999999523,616654.731,626874.834,,,,
trial,html.Screen,8_0_0,2023-11-17T16:53:51.756Z,,,,2,0.0050679133050021,0.0174815595031679,,0.04,,,16014.228000000003,timeout,-1.1890109863264902,1.2,-1.2,0.8867825318561365,1.2,-1.2,low,high,,ISIC_9848743.JPG,,ISIC_0072576.JPG,29,false,0.3600000000000002,,,0,true,642868.3999999762,642868.2999999523,626857.86,626853.2000000477,626874.834,642889.062,1,40,1,
sequence,flow.Sequence,8_0,2023-11-17T16:53:51.757Z,,,,,,,,,,,15993.465999952285,completion,,,,,,,low,high,,,,,,false,,,,,true,642868.6000000238,642868.2999999523,626857.86,626853.2000000477,626874.834,642889.062,1,40,,
trial,html.Screen,8_1_0,2023-11-17T16:54:01.070Z,,,,2,-0.0051046740562181,0.0178832721027728,,0.04,false,lh,9292.538000023807,response,-0.9087169856594104,1.2,-1.2,0.8835647084207277,1.2,-1.2,low,high,,ISIC_9545819.JPG,,ISIC_0000349.JPG,29,false,0.3600000000000002,hh,keypress(i),0,true,652181.7000000477,652181.6000000238,642872.365,642868.7000000477,642889.062,652207.283,1,40,2,
sequence,flow.Sequence,8_1,2023-11-17T16:54:01.070Z,,,,,,,,,,,9292.538000023807,completion,,,,,,,low,high,,,,,,false,,,,,true,652181.7999999523,652181.6000000238,642872.365,642868.7000000477,642889.062,652207.283,1,40,,
trial,html.Screen,8_2_0,2023-11-17T16:54:04.293Z,,,,2,-0.0189295602385628,-0.0128812415435153,,0.04,true,hh,3197.817000023788,response,1.1474466950560966,1.15,-1.2,1.173734476257662,1.15,-1.15,high,high,,ISIC_0010372.JPG,,ISIC_5216586.JPG,25,false,0.11,hh,keypress(i),0,true,655405.2999999523,655405.1000000238,652190.714,652181.8999999762,652207.283,655413.509,1,40,3,
sequence,flow.Sequence,8_2,2023-11-17T16:54:04.293Z,,,,,,,,,,,3197.817000023788,completion,,,,,,,high,high,,,,,,false,,,,,true,655405.3999999762,655405.1000000238,652190.714,652181.8999999762,652207.283,655413.509,1,40,,
trial,html.Screen,8_3_0,2023-11-17T16:54:07.558Z,,,,2,0.00126575685933,0.0325046559638838,,0.04,true,hh,3256.09100002388,response,1.089914260719518,1.15,-1.15,1.1695563571046357,1.1105905856568794,-1.15,high,high,,ISIC_5682259.JPG,,ISIC_0030695.JPG,26,false,0.11,hh,keypress(i),0,true,658669.7999999523,658669.6000000238,655396.934,655405.5,655413.509,658686.724,1,40,4,
sequence,flow.Sequence,8_3,2023-11-17T16:54:07.558Z,,,,,,,,,,,3256.09100002388,completion,,,,,,,high,high,,,,,,false,,,,,true,658670.1000000238,658669.6000000238,655396.934,655405.5,655413.509,658686.724,1,40,,
trial,html.Screen,8_4_0,2023-11-17T16:54:12.118Z,,,,2,-0.0189295602385628,-0.0128812415435153,,0.04,false,hh,4542.775999999954,response,1.0098789684902802,1.079735308912077,-1.15,1.152593747486636,1.1105905856568794,-1.15,high,high,,ISIC_0010372.JPG,,ISIC_0061491.JPG,28,false,0.1,hl,keypress(j),0,true,663229.5,663229.5,658669.851,658670.1000000238,658686.724,663245.534,1,40,5,
sequence,flow.Sequence,8_4,2023-11-17T16:54:12.118Z,,,,,,,,,,,4542.775999999954,completion,,,,,,,high,high,,,,,,false,,,,,true,663229.7000000477,663229.5,658669.851,658670.1000000238,658686.724,663245.534,1,40,,
trial,html.Screen,8_5_0,2023-11-17T16:54:15.270Z,,,,2,-0.0063515208248796,-0.0194177605767913,,0.04,true,ll,3135.966000000015,response,-1.1305948371148624,1.079735308912077,-1.15,-1.2802709447034604,1.1605905856568794,-1.15,low,low,,ISIC_5281908.JPG,,ISIC_5648111.JPG,26,false,0.14,ll,keypress(f),0,true,666381.6000000238,666381.5,663228.574,663229.7999999523,663245.534,666384.754,1,40,6,
sequence,flow.Sequence,8_5,2023-11-17T16:54:15.270Z,,,,,,,,,,,3135.966000000015,completion,,,,,,,low,low,,,,,,false,,,,,true,666381.7999999523,666381.5,663228.574,663229.7999999523,663245.534,666384.754,1,40,,
trial,html.Screen,8_6_0,2023-11-17T16:54:17.751Z,,,,2,0.00126575685933,0.0325046559638838,,0.04,false,ll,2477.8460000238847,response,-1.2555541172897566,1.079735308912077,-1.15,-1.0235056423601527,1.1605905856568794,-1.15,low,low,,ISIC_5682259.JPG,,ISIC_1578399.JPG,26,false,0.14,lh,keypress(e),0,true,668862.8999999762,668862.6000000238,666368.256,666381.8999999762,666384.754,668872.914,1,40,7,
sequence,flow.Sequence,8_6,2023-11-17T16:54:17.751Z,,,,,,,,,,,2477.8460000238847,completion,,,,,,,low,low,,,,,,false,,,,,true,668863.2999999523,668862.6000000238,666368.256,666381.8999999762,666384.754,668872.914,1,40,,
trial,html.Screen,8_7_0,2023-11-17T16:54:22.646Z,,,,2,-0.0367218428225813,0.0026956749740767,,0.04,false,lh,4885.186000023852,response,-1.1890109863264902,1.079735308912077,-1.1679125309966083,0.8867825318561365,1.1605905856568794,-1.15,low,high,,ISIC_7212271.JPG,,ISIC_0072576.JPG,29,false,0.3200000000000002,ll,keypress(f),0,true,673758.2999999523,673758.1000000238,668856.33,668863.5,668872.914,673765.829,1,40,8,
sequence,flow.Sequence,8_7,2023-11-17T16:54:22.647Z,,,,,,,,,,,4885.186000023852,completion,,,,,,,low,high,,,,,,false,,,,,true,673758.7000000477,673758.1000000238,668856.33,668863.5,668872.914,673765.829,1,40,,
trial,html.Screen,8_8_0,2023-11-17T16:54:28.454Z,,,,2,0.0071892445601978,-0.0246015408628738,,0.04,false,hh,5799.570999976131,response,1.042500842905652,1.079735308912077,-1.1679125309966083,1.083053464502593,1.1605905856568794,-1.15,high,high,,ISIC_0014133.JPG,,ISIC_0071135.JPG,31,false,0.11,hl,keypress(j),0,true,679565.6000000238,679565.3999999762,673749.063,673758.7999999523,673765.829,679577.081,1,40,9,
sequence,flow.Sequence,8_8,2023-11-17T16:54:28.454Z,,,,,,,,,,,5799.570999976131,completion,,,,,,,high,high,,,,,,false,,,,,true,679565.7000000477,679565.3999999762,673749.063,673758.7999999523,673765.829,679577.081,1,40,,
trial,html.Screen,8_9_0,2023-11-17T16:54:31.518Z,,,,2,-0.0321039635696159,-0.020496766286318,,0.04,false,lh,3052.5190000238363,response,-1.2615315960773072,1.0297353089120769,-1.1679125309966083,1.194084675079932,1.1605905856568794,-1.15,low,high,,ISIC_0058063.JPG,,ISIC_0010044.JPG,29,false,0.3200000000000002,ll,keypress(f),0,true,682629.7999999523,682629.6000000238,679560.442,679565.7999999523,679577.081,682633.05,1,40,10,
sequence,flow.Sequence,8_9,2023-11-17T16:54:31.518Z,,,,,,,,,,,3052.5190000238363,completion,,,,,,,low,high,,,,,,false,,,,,true,682630.1000000238,682629.6000000238,679560.442,679565.7999999523,679577.081,682633.05,1,40,,
trial,html.Screen,8_10_0,2023-11-17T16:54:35.077Z,,,,2,-0.0327772618698018,0.0056908372048728,,0.04,true,ll,3556.3499999761116,response,-1.2254777618346506,1.0297353089120769,-1.1752712912018988,-1.0356416330964822,1.1605905856568794,-1.15,low,low,,ISIC_7897925.JPG,,ISIC_1054090.JPG,27,false,0.14,ll,keypress(f),0,true,686189.5,686189.3999999762,682616.508,682630.1000000238,682633.05,686206.838,1,40,11,
sequence,flow.Sequence,8_10,2023-11-17T16:54:35.078Z,,,,,,,,,,,3556.3499999761116,completion,,,,,,,low,low,,,,,,false,,,,,true,686189.5,686189.3999999762,682616.508,682630.1000000238,682633.05,686206.838,1,40,,
trial,html.Screen,8_11_0,2023-11-17T16:54:37.015Z,,,,2,-0.0051046740562181,0.0178832721027728,,0.04,false,hl,1918.5619999761693,response,0.8561946552009824,1.0297353089120769,-1.1752712912018988,-0.9282171889213044,1.1605905856568794,-1.15,high,low,,ISIC_9545819.JPG,,ISIC_3065032.JPG,25,false,0.2300000000000001,ll,keypress(f),0,true,688125.6000000238,688125.3999999762,686173.358,686189.6000000238,686206.838,688144.114,1,40,12,
sequence,flow.Sequence,8_11,2023-11-17T16:54:37.016Z,,,,,,,,,,,1918.5619999761693,completion,,,,,,,high,low,,,,,,false,,,,,true,688125.7000000477,688125.3999999762,686173.358,686189.6000000238,686206.838,688144.114,1,40,,
trial,html.Screen,8_12_0,2023-11-17T16:54:41.439Z,,,,2,-0.0199897690678184,-0.0312486875504497,,0.04,true,hh,4405.185999952373,response,1.1126049058422398,1.079735308912077,-1.1752712912018988,1.2305421124063929,1.1605905856568794,-0.9319294110088933,high,high,,ISIC_5482426.JPG,,ISIC_0071536.JPG,31,false,0.11,hh,keypress(i),0,true,692549.3999999762,692549.2999999523,688110.323,688125.7999999523,688144.114,692552.293,1,40,13,
sequence,flow.Sequence,8_12,2023-11-17T16:54:41.439Z,,,,,,,,,,,4405.185999952373,completion,,,,,,,high,high,,,,,,false,,,,,true,692549.5,692549.2999999523,688110.323,688125.7999999523,688144.114,692552.293,1,40,,
trial,html.Screen,8_13_0,2023-11-17T16:54:44.407Z,,,,2,0.0158987717472563,0.0292472192292015,,0.04,false,hl,2964.6069999762112,response,0.9235571765207048,1.079735308912077,-1.1752712912018988,-0.7832040253954599,1.1605905856568794,-0.9319294110088933,high,low,,ISIC_1366765.JPG,,ISIC_8796632.JPG,25,false,0.21000000000000008,ll,keypress(f),0,true,695517.1000000238,695516.8999999762,692535.725,692549.6000000238,692552.293,695524.781,1,40,14,
sequence,flow.Sequence,8_13,2023-11-17T16:54:44.407Z,,,,,,,,,,,2964.6069999762112,completion,,,,,,,high,low,,,,,,false,,,,,true,695517.2000000477,695516.8999999762,692535.725,692549.5,692552.293,695524.781,1,40,,
trial,html.Screen,8_14_0,2023-11-17T16:54:47.672Z,,,,2,-0.0051046740562181,0.0178832721027728,,0.04,true,hh,3257.0189999523573,response,1.089914260719518,1.129735308912077,-1.1752712912018988,1.1695563571046357,1.1605905856568794,-0.9319294110088933,high,high,,ISIC_9545819.JPG,,ISIC_0030695.JPG,30,false,0.11,hh,keypress(i),0,true,698782,698781.7999999523,695508.082,695517.2000000477,695524.781,698797.986,1,40,15,
sequence,flow.Sequence,8_14,2023-11-17T16:54:47.672Z,,,,,,,,,,,3257.0189999523573,completion,,,,,,,high,high,,,,,,false,,,,,true,698782.2000000477,698781.7999999523,695508.082,695517.2000000477,695524.781,698797.986,1,40,,
trial,html.Screen,8_15_0,2023-11-17T16:54:50.191Z,,,,2,0.0118555311043871,0.0087774532070196,,0.04,true,ll,2503.3139999522828,response,-1.1569583426015195,1.129735308912077,-1.1752712912018988,-1.02258614327008,1.079735308912077,-0.9319294110088933,low,low,,ISIC_6488658.JPG,,ISIC_5705973.JPG,26,false,0.1,ll,keypress(f),0,true,701301.5,701301.2999999523,698781.053,698782.3999999762,698797.986,701320.565,1,40,16,
sequence,flow.Sequence,8_15,2023-11-17T16:54:50.191Z,,,,,,,,,,,2503.3139999522828,completion,,,,,,,low,low,,,,,,false,,,,,true,701301.6000000238,701301.2999999523,698781.053,698782.2999999523,698797.986,701320.565,1,40,,
trial,html.Screen,8_16_0,2023-11-17T16:54:54.823Z,,,,2,-0.0365981355399771,-0.0162670920008846,,0.04,true,lh,4612.834999976214,response,-1.1235224875125256,1.129735308912077,-1.1252712912018987,0.8641223012137988,1.079735308912077,-0.8819294110088932,low,high,,ISIC_0982855.JPG,,ISIC_0033901.JPG,26,false,0.27000000000000013,lh,keypress(e),0,true,705933.5,705933.3999999762,701286.099,701301.7999999523,701320.565,705945.237,1,40,17,
sequence,flow.Sequence,8_16,2023-11-17T16:54:54.823Z,,,,,,,,,,,4612.834999976214,completion,,,,,,,low,high,,,,,,false,,,,,true,705933.7000000477,705933.3999999762,701286.099,701301.7000000477,701320.565,705945.237,1,40,,
trial,html.Screen,8_17_0,2023-11-17T16:54:57.936Z,,,,2,-0.0086413421586899,-0.0360184993500958,,0.04,true,hh,3100.463000047719,response,1.12972273782631,1.129735308912077,-1.1252712912018987,1.0374079095766835,1.079735308912077,-0.8819294110088932,high,high,,ISIC_0010767.JPG,,ISIC_0032396.JPG,30,false,0.11,hh,keypress(i),0,true,709045.8999999762,709045.7000000477,705928.506,705933.7999999523,705945.237,709051.097,1,40,18,
sequence,flow.Sequence,8_17,2023-11-17T16:54:57.936Z,,,,,,,,,,,3100.463000047719,completion,,,,,,,high,high,,,,,,false,,,,,true,709046.2000000477,709045.7000000477,705928.506,705933.7000000477,705945.237,709051.097,1,40,,
trial,html.Screen,8_18_0,2023-11-17T16:55:00.319Z,,,,2,0.0060934073440827,0.0279108145883031,,0.04,true,ll,2378.4030000000494,response,-1.0898945321709264,0.9007651053952411,-1.1252712912018987,-0.7906355354392193,0.9007651053952411,-0.8819294110088932,low,low,,ISIC_0032604.JPG,,ISIC_5392118.JPG,29,false,0.1,ll,keypress(f),0,true,711429.6000000238,711429.5,709034.491,709046.2999999523,709051.097,711439.052,1,40,19,
sequence,flow.Sequence,8_18,2023-11-17T16:55:00.320Z,,,,,,,,,,,2378.4030000000494,completion,,,,,,,low,low,,,,,,false,,,,,true,711429.7000000477,711429.5,709034.491,709046.2999999523,709051.097,711439.052,1,40,,
trial,html.Screen,8_19_0,2023-11-17T16:55:03.783Z,,,,2,0.0060934073440827,0.0279108145883031,,0.04,true,hl,3453.947999999975,response,0.7468996036626098,0.9007651053952411,-0.8902650338050728,-1.0079605779898853,0.9007651053952411,-0.8819294110088932,high,low,,ISIC_0032604.JPG,,ISIC_5335139.JPG,29,false,0.16000000000000003,hl,keypress(j),0,true,714893.1000000238,714893,711422.292,711429.7999999523,711439.052,714895.758,1,40,20,
sequence,flow.Sequence,8_19,2023-11-17T16:55:03.783Z,,,,,,,,,,,3453.947999999975,completion,,,,,,,high,low,,,,,,false,,,,,true,714893.2999999523,714893,711422.292,711429.7999999523,711439.052,714895.758,1,40,,
trial,html.Screen,8_20_0,2023-11-17T16:55:10.440Z,,,,2,-0.0051046740562181,0.0178832721027728,,0.04,true,lh,6654.141999976127,response,-0.7555963738331037,0.9007651053952411,-0.8902650338050728,0.8728259922218632,0.9007651053952411,-0.8319294110088932,low,high,,ISIC_9545819.JPG,,ISIC_3060248.JPG,26,false,0.16000000000000003,lh,keypress(e),0,true,721550.1000000238,721549.8999999762,714879.034,714893.2999999523,714895.758,721558.723,1,40,21,
sequence,flow.Sequence,8_20,2023-11-17T16:55:10.440Z,,,,,,,,,,,6654.141999976127,completion,,,,,,,low,high,,,,,,false,,,,,true,721550.5,721549.8999999762,714879.034,714893.2999999523,714895.758,721558.723,1,40,,
trial,html.Screen,8_21_0,2023-11-17T16:55:15.975Z,,,,2,-0.0199897690678184,-0.0312486875504497,,0.04,true,hl,5526.67699997616,response,0.8407642478899736,0.9007651053952411,-0.8902650338050728,-0.9542322753334054,0.9007651053952411,-0.8319294110088932,high,low,,ISIC_5482426.JPG,,ISIC_9090822.JPG,28,false,0.14,hl,keypress(j),0,true,727085.5,727085.3999999762,721542.198,721550.7000000477,721558.723,727103.794,1,40,22,
sequence,flow.Sequence,8_21,2023-11-17T16:55:15.975Z,,,,,,,,,,,5526.67699997616,completion,,,,,,,high,low,,,,,,false,,,,,true,727085.7000000477,727085.3999999762,721542.198,721550.6000000238,721558.723,727103.794,1,40,,
trial,html.Screen,8_22_0,2023-11-17T16:55:21.960Z,,,,2,-0.0199897690678184,-0.0312486875504497,,0.04,true,lh,5965.906000047689,response,-0.7555963738331037,0.8507651053952411,-0.8902650338050728,0.8728259922218632,0.9007651053952411,-0.8319294110088932,low,high,,ISIC_5482426.JPG,,ISIC_3060248.JPG,26,false,0.16000000000000003,lh,keypress(e),0,true,733069.8999999762,733069.7000000477,727069.62,727085.7000000477,727103.794,733081.201,1,40,23,
sequence,flow.Sequence,8_22,2023-11-17T16:55:21.960Z,,,,,,,,,,,5965.906000047689,completion,,,,,,,low,high,,,,,,false,,,,,true,733070.1000000238,733069.7000000477,727069.62,727085.7000000477,727103.794,733081.201,1,40,,
trial,html.Screen,8_23_0,2023-11-17T16:55:25.160Z,,,,2,-0.0367218428225813,0.0026956749740767,,0.04,false,ll,3188.798999999999,response,-0.8867858784567559,0.8507651053952411,-0.8402650338050728,-0.8318206308101198,0.8507651053952411,-0.8319294110088932,low,low,,ISIC_7212271.JPG,,ISIC_0032494.JPG,57,false,0.1,lh,keypress(e),0,true,736270.2000000477,736270,733064.58,733070.2000000477,733081.201,736287.535,1,40,24,
sequence,flow.Sequence,8_23,2023-11-17T16:55:25.160Z,,,,,,,,,,,3188.798999999999,completion,,,,,,,low,low,,,,,,false,,,,,true,736270.6000000238,736270,733064.58,733070.2000000477,733081.201,736287.535,1,40,,
trial,html.Screen,8_24_0,2023-11-17T16:55:28.095Z,,,,2,0.0023664502831079,0.0252784582169994,,0.04,false,ll,2917.2649999522837,response,-0.7540852601934345,0.8507651053952411,-0.8402650338050728,-0.8837864902869942,0.8507651053952411,-0.8819294110088932,low,low,,ISIC_4156010.JPG,,ISIC_4332846.JPG,52,false,0.1,hl,keypress(j),0,true,739204.8999999762,739204.7999999523,736270.817,736270.7999999523,736287.535,739209.718,1,40,25,
sequence,flow.Sequence,8_24,2023-11-17T16:55:28.095Z,,,,,,,,,,,2917.2649999522837,completion,,,,,,,low,low,,,,,,false,,,,,true,739205.1000000238,739204.7999999523,736270.817,736270.7999999523,736287.535,739209.718,1,40,,
trial,html.Screen,8_25_0,2023-11-17T16:55:32.623Z,,,,2,0.00126575685933,0.0325046559638838,,0.04,true,hh,4523.181999976165,response,0.8471355550006346,0.8507651053952411,-0.8902650338050728,0.9005344308932209,0.8507651053952411,-0.8819294110088932,high,high,,ISIC_5682259.JPG,,ISIC_0025744.JPG,53,false,0.1,hh,keypress(i),0,true,743733,743732.8999999762,739193.261,739205.1000000238,739209.718,743735.181,1,40,26,
sequence,flow.Sequence,8_25,2023-11-17T16:55:32.623Z,,,,,,,,,,,4523.181999976165,completion,,,,,,,high,high,,,,,,false,,,,,true,743733.1000000238,743732.8999999762,739193.261,739205.1000000238,739209.718,743735.181,1,40,,
trial,html.Screen,8_26_0,2023-11-17T16:55:37.801Z,,,,2,-0.0321039635696159,-0.020496766286318,,0.04,false,lh,5174.519000047701,response,-0.7622914383475332,0.8507651053952411,-0.8902650338050728,0.8883896910883083,0.8507651053952411,-0.8819294110088932,low,high,,ISIC_0058063.JPG,,ISIC_0032005.JPG,26,false,0.15000000000000002,ll,keypress(f),0,true,748909.7999999523,748909.7000000477,743718.549,743733.2000000477,743735.181,748911.949,1,40,27,
sequence,flow.Sequence,8_26,2023-11-17T16:55:37.801Z,,,,,,,,,,,5174.519000047701,completion,,,,,,,low,high,,,,,,false,,,,,true,748910,748909.7000000477,743718.549,743733.2000000477,743735.181,748911.949,1,40,,
trial,html.Screen,8_27_0,2023-11-17T16:55:42.272Z,,,,2,0.0060918352854008,-0.029032683404407,,0.04,false,hh,4468.950999976136,response,0.781123788799864,0.8507651053952411,-0.8902650338050728,0.985661787434149,0.9007651053952411,-0.8819294110088932,high,high,,ISIC_8436194.JPG,,ISIC_0027694.JPG,53,false,0.1,hl,keypress(j),0,true,753381,753380.8999999762,748895.443,748910.2000000477,748911.949,753387.271,1,40,28,
sequence,flow.Sequence,8_27,2023-11-17T16:55:42.272Z,,,,,,,,,,,4468.950999976136,completion,,,,,,,high,high,,,,,,false,,,,,true,753381.1000000238,753380.8999999762,748895.443,748910.1000000238,748911.949,753387.271,1,40,,
trial,html.Screen,8_28_0,2023-11-17T16:55:47.585Z,,,,2,-0.0199897690678184,-0.0312486875504497,,0.04,false,hl,5306.528999952367,response,0.6950368296080096,0.800765105395241,-0.8902650338050728,-0.8845542489673555,0.9507651053952412,-0.8819294110088932,high,low,,ISIC_5482426.JPG,,ISIC_0975874.JPG,32,false,0.13,hh,keypress(i),0,true,758694.1000000238,758693.7999999523,753370.61,753381.2000000477,753387.271,758697.642,1,40,29,
sequence,flow.Sequence,8_28,2023-11-17T16:55:47.585Z,,,,,,,,,,,5306.528999952367,completion,,,,,,,high,low,,,,,,false,,,,,true,758694.2999999523,758693.7999999523,753370.61,753381.2000000477,753387.271,758697.642,1,40,,
trial,html.Screen,8_29_0,2023-11-17T16:55:53.145Z,,,,2,0.0166849894750452,-0.0371614812368835,,0.04,false,hl,5556.558000047691,response,0.6950368296080096,0.800765105395241,-0.8902650338050728,-0.8845542489673555,0.9507651053952412,-0.9319294110088933,high,low,,ISIC_6231450.JPG,,ISIC_0975874.JPG,25,false,0.13,ll,keypress(f),0,true,764254.5,764254.2000000477,758680.95,758694.3999999762,758697.642,764258.485,1,40,30,
sequence,flow.Sequence,8_29,2023-11-17T16:55:53.146Z,,,,,,,,,,,5556.558000047691,completion,,,,,,,high,low,,,,,,false,,,,,true,764255,764254.2000000477,758680.95,758694.3999999762,758697.642,764258.485,1,40,,
trial,html.Screen,8_30_0,2023-11-17T16:55:55.480Z,,,,2,0.0350697500805515,0.0166617848231997,,0.04,true,ll,2330.3149999523303,response,-0.8093178584833343,0.8507651053952411,-0.8902650338050728,-1.0139833925057518,0.9507651053952412,-0.9319294110088933,low,low,,ISIC_0024423.JPG,,ISIC_6171084.JPG,35,false,0.1,ll,keypress(f),0,true,766588.7999999523,766588.7999999523,764241.813,764255.2000000477,764258.485,766596.286,1,40,31,
sequence,flow.Sequence,8_30,2023-11-17T16:55:55.480Z,,,,,,,,,,,2330.3149999523303,completion,,,,,,,low,low,,,,,,false,,,,,true,766588.8999999762,766588.7999999523,764241.813,764255.1000000238,764258.485,766596.286,1,40,,
trial,html.Screen,8_31_0,2023-11-17T16:56:04.240Z,,,,2,-0.0361875505619981,0.0291457404567876,,0.04,true,hh,8752.91400004772,response,0.9106525024234248,0.8507651053952411,-0.8992688207365536,1.0361692964751965,0.9507651053952412,-0.8992688207365536,high,high,,ISIC_0027480.JPG,,ISIC_0058676.JPG,47,false,0.1,hh,keypress(i),0,true,775349.2999999523,775349.2000000477,766579.665,766589,766596.286,775363.342,1,40,32,
sequence,flow.Sequence,8_31,2023-11-17T16:56:04.240Z,,,,,,,,,,,8752.91400004772,completion,,,,,,,high,high,,,,,,false,,,,,true,775349.6000000238,775349.2000000477,766579.665,766589,766596.286,775363.342,1,40,,
trial,html.Screen,8_32_0,2023-11-17T16:56:07.744Z,,,,2,-0.0063515208248796,-0.0194177605767913,,0.04,true,lh,3489.557999976212,response,-0.9039158082670506,0.8507651053952411,-0.8992688207365536,1.0517562064343149,0.9507651053952412,-0.8992688207365536,low,high,,ISIC_5281908.JPG,,ISIC_0015411.JPG,25,false,0.16000000000000003,lh,keypress(e),0,true,778853,778852.8999999762,775346.7,775349.7000000477,775363.342,778870.156,1,40,33,
sequence,flow.Sequence,8_32,2023-11-17T16:56:07.744Z,,,,,,,,,,,3489.557999976212,completion,,,,,,,low,high,,,,,,false,,,,,true,778853.1000000238,778852.8999999762,775346.7,775349.7000000477,775363.342,778870.156,1,40,,
trial,html.Screen,8_33_0,2023-11-17T16:56:10.184Z,,,,2,0.0166849894750452,-0.0371614812368835,,0.04,true,ll,2422.944000023883,response,-0.831295474746028,0.8507651053952411,-0.8992688207365536,-0.9721089662087676,0.9007651053952411,-0.8992688207365536,low,low,,ISIC_6231450.JPG,,ISIC_0760740.JPG,42,false,0.1,ll,keypress(f),0,true,781293.2000000477,781293.1000000238,778836.762,778853.2000000477,778870.156,781308.515,1,40,34,
sequence,flow.Sequence,8_33,2023-11-17T16:56:10.184Z,,,,,,,,,,,2422.944000023883,completion,,,,,,,low,low,,,,,,false,,,,,true,781293.3999999762,781293.1000000238,778836.762,778853.1000000238,778870.156,781308.515,1,40,,
trial,html.Screen,8_34_0,2023-11-17T16:56:12.760Z,,,,2,-0.0327772618698018,0.0056908372048728,,0.04,true,hl,2560.984999999986,response,0.9225524349657857,0.8507651053952411,-0.8517022204773979,-0.929746784178986,0.9007651053952411,-0.8992688207365536,high,low,,ISIC_7897925.JPG,,ISIC_0011077.JPG,27,false,0.14,hl,keypress(j),0,true,783869.6000000238,783869.5,781291.531,781293.3999999762,781308.515,783879.971,1,40,35,
sequence,flow.Sequence,8_34,2023-11-17T16:56:12.761Z,,,,,,,,,,,2560.984999999986,completion,,,,,,,high,low,,,,,,false,,,,,true,783869.7999999523,783869.5,781291.531,781293.3999999762,781308.515,783879.971,1,40,,
trial,html.Screen,8_35_0,2023-11-17T16:56:18.904Z,,,,2,0.012020985739544,-0.0126097407389903,,0.04,false,hl,6133.129000023822,response,0.7184694103740017,0.800765105395241,-0.8517022204773979,-0.8981519261719684,0.9007651053952411,-0.9009278751938767,high,low,,ISIC_0069379.JPG,,ISIC_8579259.JPG,29,false,0.13,ll,keypress(f),0,true,790013.2000000477,790013.1000000238,783863.428,783869.8999999762,783879.971,790025.217,1,40,36,
sequence,flow.Sequence,8_35,2023-11-17T16:56:18.904Z,,,,,,,,,,,6133.129000023822,completion,,,,,,,high,low,,,,,,false,,,,,true,790013.2999999523,790013.1000000238,783863.428,783869.8999999762,783879.971,790025.217,1,40,,
trial,html.Screen,8_36_0,2023-11-17T16:56:22.841Z,,,,2,-0.0367218428225813,0.0026956749740767,,0.04,false,lh,3924.283000000054,response,-0.7622914383475332,0.8507651053952411,-0.8517022204773979,0.8883896910883083,0.9007651053952411,-0.9009278751938767,low,high,,ISIC_7212271.JPG,,ISIC_0032005.JPG,27,false,0.14,hh,keypress(i),0,true,793949.7999999523,793949.5,790008.619,790013.3999999762,790025.217,793966.417,1,40,37,
sequence,flow.Sequence,8_36,2023-11-17T16:56:22.841Z,,,,,,,,,,,3924.283000000054,completion,,,,,,,low,high,,,,,,false,,,,,true,793950,793949.5,790008.619,790013.3999999762,790025.217,793966.417,1,40,,
trial,html.Screen,8_37_0,2023-11-17T16:56:35.176Z,,,,2,0.0166849894750452,-0.0371614812368835,,0.04,false,ll,12318.783000047668,response,-0.8382616284209584,0.8507651053952411,-0.9017022204773979,-0.9132548085712324,0.9007651053952411,-0.9009278751938767,low,low,,ISIC_6231450.JPG,,ISIC_0007740.JPG,42,false,0.1,lh,keypress(e),0,true,806285.2999999523,806285.2000000477,793949.62,793950.1000000238,793966.417,806290.174,1,40,38,
sequence,flow.Sequence,8_37,2023-11-17T16:56:35.176Z,,,,,,,,,,,12318.783000047668,completion,,,,,,,low,low,,,,,,false,,,,,true,806285.3999999762,806285.2000000477,793949.62,793950.1000000238,793966.417,806290.174,1,40,,
trial,html.Screen,8_38_0,2023-11-17T16:56:40.906Z,,,,2,-0.0086413421586899,-0.0360184993500958,,0.04,false,hl,5723.725999976159,response,0.7427462594865504,0.8507651053952411,-0.9017022204773979,-0.8227092439521284,0.9007651053952411,-0.9509278751938768,high,low,,ISIC_0010767.JPG,,ISIC_2681497.JPG,25,false,0.15000000000000002,lh,keypress(e),0,true,812014.1000000238,812013.8999999762,806273.383,806285.5,806290.174,812034.719,1,40,39,
sequence,flow.Sequence,8_38,2023-11-17T16:56:40.906Z,,,,,,,,,,,5723.725999976159,completion,,,,,,,high,low,,,,,,false,,,,,true,812014.5,812013.8999999762,806273.383,806285.5,806290.174,812034.719,1,40,,
trial,html.Screen,8_39_0,2023-11-17T16:56:45.705Z,,,,2,0.0377791839943904,-0.0227626648172468,,0.04,true,hl,4778.280999999959,response,0.8087127179888679,0.9007651053952411,-0.9017022204773979,-0.8480635840272462,0.9007651053952411,-1.0009278751938768,high,low,,ISIC_7167479.JPG,,ISIC_3941147.JPG,25,false,0.17000000000000004,hl,keypress(j),0,true,816813.2000000477,816813,812001.267,812014.7000000477,812034.719,816827.322,1,40,40,
sequence,flow.Sequence,8_39,2023-11-17T16:56:45.705Z,,,,,,,,,,,4778.280999999959,completion,,,,,,,high,low,,,,,,false,,,,,true,816813.2999999523,816813,812001.267,812014.6000000238,812034.719,816827.322,1,40,,
stair_loop,flow.Loop,8,2023-11-17T16:56:45.705Z,,,,,,,,,,,189938.16599999997,completion,,,,,,,,,,,,,,false,,,,,true,816813.5,816813,626857.86,626853.2000000477,626874.834,816827.322,1,40,,
exp_instructions,html.Screen,9,2023-11-17T16:57:03.345Z,,,,,,,,,,,17625.577999976114,response,,,,,,,,,,,,,,,,continue,keypress(Space),,,834453.3999999762,834452.8999999762,816810.831,816813.5,816827.322,834461.581,,,,
trial,html.Screen,10_0_0,2023-11-17T16:57:19.343Z,,,,1,0.0399381815506136,0.0177751789152893,,0.04,,,16014.548999999999,timeout,-0.8070820195894357,0.8507651053952413,-0.8825467578464924,0.8958120092147633,0.903265105395241,-0.892646909000671,low,high,,ISIC_3981425.JPG,8,ISIC_0060585.JPG,25,false,0.15000000000000002,,,0,false,850451.2000000477,850451,834444.788,834453.6000000238,834461.581,850476.13,4,500,1,
break,html.Screen,10_0_1,2023-11-17T16:57:19.343Z,,,,,,,,,,,NaN,,,,,,,,low,high,,,,,,false,,,,,false,850451.7000000477,850451.5,,850451.2999999523,,850476.13,4,500,,
break_continue,html.Screen,10_0_2,2023-11-17T16:57:19.344Z,,,,,,,,,,,NaN,,,,,,,,low,high,,,,,,false,,,,,false,850451.8999999762,850451.7999999523,,850451.7000000477,,850476.13,4,500,,
sequence,flow.Sequence,10_0,2023-11-17T16:57:19.344Z,,,,,,,,,,,15990.21899995231,completion,,,,,,,low,high,,,,,,false,,,,,false,850452,850451.7999999523,834444.788,834453.6000000238,834461.581,850476.13,4,500,,
trial,html.Screen,10_1_0,2023-11-17T16:57:24.025Z,,,,1,-0.010035581303589,0.0100711721396864,,0.04,false,lh,4657.2699999761535,response,-0.7785184841253222,0.8507651053952413,-0.8825467578464924,0.8564302235174217,0.903265105395241,-0.892646909000671,low,high,,ISIC_0030592.JPG,9,ISIC_6529073.JPG,25,false,0.15000000000000002,ll,keypress(f),0,false,855133.6000000238,855133.3999999762,850459.416,850452.1000000238,850476.13,855135.19,4,500,2,
break,html.Screen,10_1_1,2023-11-17T16:57:24.026Z,,,,,,,,,,,NaN,,,,,,,,low,high,,,,,,false,,,,,false,855134.2000000477,855134,,855133.7999999523,,855135.19,4,500,,
break_continue,html.Screen,10_1_2,2023-11-17T16:57:24.026Z,,,,,,,,,,,NaN,,,,,,,,low,high,,,,,,false,,,,,false,855134.6000000238,855134.5,,855134.3999999762,,855135.19,4,500,,
sequence,flow.Sequence,10_1,2023-11-17T16:57:24.026Z,,,,,,,,,,,4658.369999999995,completion,,,,,,,low,high,,,,,,false,,,,,false,855134.7999999523,855134.5,850459.416,850452.1000000238,850476.13,855135.19,4,500,,
trial,html.Screen,10_2_0,2023-11-17T16:57:28.856Z,,,,1,0.0077673378094614,0.0021810768579373,,0.04,false,ll,4829.51000004774,response,-0.926039388599084,0.8507651053952413,-0.8825467578464924,-0.8602997106237449,0.903265105395241,-0.892646909000671,low,low,,ISIC_0067621.JPG,9,ISIC_5563553.JPG,45,false,0.1,hh,keypress(i),0,false,859964.7999999523,859964.7000000477,855118.532,855134.8999999762,855135.19,859977.908,4,500,3,
break,html.Screen,10_2_1,2023-11-17T16:57:28.857Z,,,,,,,,,,,NaN,,,,,,,,low,low,,,,,,false,,,,,false,859965.1000000238,859965,,859964.8999999762,,859977.908,4,500,,
break_continue,html.Screen,10_2_2,2023-11-17T16:57:28.857Z,,,,,,,,,,,NaN,,,,,,,,low,low,,,,,,false,,,,,false,859965.2999999523,859965.2000000477,,859965.1000000238,,859977.908,4,500,,
sequence,flow.Sequence,10_2,2023-11-17T16:57:28.857Z,,,,,,,,,,,4830.01000004774,completion,,,,,,,low,low,,,,,,false,,,,,false,859965.2999999523,859965.2000000477,855118.532,855134.8999999762,855135.19,859977.908,4,500,,
trial,html.Screen,10_3_0,2023-11-17T16:57:32.609Z,,,,1,-0.0189295602385628,-0.0128812415435153,,0.04,false,hl,3739.091999999946,response,0.9873794329144926,0.8507651053952413,-0.8825467578464924,-0.9500689037516484,0.903265105395241,-0.892646909000671,high,low,,ISIC_0010372.JPG,9,ISIC_0013498.JPG,27,false,0.14,lh,keypress(e),0,false,863717.2000000477,863717,859961.311,859965.3999999762,859977.908,863736.659,4,500,4,
break,html.Screen,10_3_1,2023-11-17T16:57:32.609Z,,,,,,,,,,,NaN,,,,,,,,high,low,,,,,,false,,,,,false,863717.7000000477,863717.6000000238,,863717.3999999762,,863736.659,4,500,,
break_continue,html.Screen,10_3_2,2023-11-17T16:57:32.610Z,,,,,,,,,,,NaN,,,,,,,,high,low,,,,,,false,,,,,false,863718.1000000238,863717.8999999762,,863717.7999999523,,863736.659,4,500,,
sequence,flow.Sequence,10_3,2023-11-17T16:57:32.610Z,,,,,,,,,,,3739.991999976104,completion,,,,,,,high,low,,,,,,false,,,,,false,863718.1000000238,863717.8999999762,859961.311,859965.3999999762,859977.908,863736.659,4,500,,
trial,html.Screen,10_4_0,2023-11-17T16:57:35.066Z,,,,1,0.0077673378094614,0.0021810768579373,,0.04,true,ll,2437.240999976173,response,-0.8278249532658066,0.8507651053952413,-0.8825467578464924,-0.806779532079123,0.903265105395241,-0.892646909000671,low,low,,ISIC_0067621.JPG,10,ISIC_4114269.JPG,45,false,0.1,ll,keypress(f),0,false,866174.2000000477,866173.8999999762,863701.946,863718.2000000477,863736.659,866190.169,4,500,5,
break,html.Screen,10_4_1,2023-11-17T16:57:35.067Z,,,,,,,,,,,NaN,,,,,,,,low,low,,,,,,false,,,,,false,866175.1000000238,866174.7999999523,,866174.5,,866190.169,4,500,,
break_continue,html.Screen,10_4_2,2023-11-17T16:57:35.067Z,,,,,,,,,,,NaN,,,,,,,,low,low,,,,,,false,,,,,false,866175.6000000238,866175.3999999762,,866175.2999999523,,866190.169,4,500,,
sequence,flow.Sequence,10_4,2023-11-17T16:57:35.068Z,,,,,,,,,,,2438.740999976173,completion,,,,,,,low,low,,,,,,false,,,,,false,866175.8999999762,866175.3999999762,863701.946,863718.2000000477,863736.659,866190.169,4,500,,
trial,html.Screen,10_5_0,2023-11-17T16:57:38.658Z,,,,1,-0.0365981355399771,-0.0162670920008846,,0.04,true,lh,3575.3310000000056,response,-0.9039158082670506,0.8507651053952413,-0.8825467578464924,1.0517562064343149,0.903265105395241,-0.892646909000671,low,high,,ISIC_0982855.JPG,9,ISIC_0015411.JPG,25,false,0.15000000000000002,lh,keypress(e),0,false,869765.7999999523,869765.5,866173.452,866176,866190.169,869780.314,4,500,6,
break,html.Screen,10_5_1,2023-11-17T16:57:38.659Z,,,,,,,,,,,NaN,,,,,,,,low,high,,,,,,false,,,,,false,869766.5,869766.3999999762,,869766,,869780.314,4,500,,
break_continue,html.Screen,10_5_2,2023-11-17T16:57:38.659Z,,,,,,,,,,,NaN,,,,,,,,low,high,,,,,,false,,,,,false,869766.8999999762,869766.7000000477,,869766.7000000477,,869780.314,4,500,,
sequence,flow.Sequence,10_5,2023-11-17T16:57:38.660Z,,,,,,,,,,,3576.5310000476893,completion,,,,,,,low,high,,,,,,false,,,,,false,869767.1000000238,869766.7000000477,866173.452,866176,866190.169,869780.314,4,500,,
trial,html.Screen,10_6_0,2023-11-17T16:57:41.490Z,,,,1,0.00126575685933,0.0325046559638838,,0.04,true,lh,2816.685999999987,response,-0.8644465729542988,0.8507651053952413,-0.8825467578464924,0.8679598285079457,0.903265105395241,-0.892646909000671,low,high,,ISIC_5682259.JPG,10,ISIC_6718969.JPG,25,false,0.15000000000000002,lh,keypress(e),0,false,872597.1000000238,872597,869763.817,869767.2000000477,869780.314,872602.454,4,500,7,
break,html.Screen,10_6_1,2023-11-17T16:57:41.490Z,,,,,,,,,,,NaN,,,,,,,,low,high,,,,,,false,,,,,false,872597.5,872597.3999999762,,872597.2999999523,,872602.454,4,500,,
break_continue,html.Screen,10_6_2,2023-11-17T16:57:41.490Z,,,,,,,,,,,NaN,,,,,,,,low,high,,,,,,false,,,,,false,872597.7000000477,872597.6000000238,,872597.5,,872602.454,4,500,,
sequence,flow.Sequence,10_6,2023-11-17T16:57:41.490Z,,,,,,,,,,,2817.286000023829,completion,,,,,,,low,high,,,,,,false,,,,,false,872597.7000000477,872597.6000000238,869763.817,869767.2000000477,869780.314,872602.454,4,500,,
trial,html.Screen,10_7_0,2023-11-17T16:57:45.042Z,,,,1,0.0060918352854008,-0.029032683404407,,0.04,true,ll,3546.7460000476567,response,-0.9658792885069516,0.8507651053952413,-0.8825467578464924,-0.916173605730014,0.903265105395241,-0.892646909000671,low,low,,ISIC_8436194.JPG,8,ISIC_8979275.JPG,45,false,0.1,ll,keypress(f),0,false,876149.2999999523,876149.2000000477,872585.932,872597.7999999523,872602.454,876176.345,4,500,8,
break,html.Screen,10_7_1,2023-11-17T16:57:45.042Z,,,,,,,,,,,NaN,,,,,,,,low,low,,,,,,false,,,,,false,876149.8999999762,876149.7999999523,,876149.5,,876176.345,4,500,,
break_continue,html.Screen,10_7_2,2023-11-17T16:57:45.043Z,,,,,,,,,,,NaN,,,,,,,,low,low,,,,,,false,,,,,false,876150.2000000477,876150.1000000238,,876150,,876176.345,4,500,,
sequence,flow.Sequence,10_7,2023-11-17T16:57:45.043Z,,,,,,,,,,,3547.646000023815,completion,,,,,,,low,low,,,,,,false,,,,,false,876150.2000000477,876150.1000000238,872585.932,872597.7999999523,872602.454,876176.345,4,500,,
trial,html.Screen,10_8_0,2023-11-17T16:57:47.530Z,,,,1,0.0060934073440827,0.0279108145883031,,0.04,false,hh,2461.25500002387,response,0.913652449364318,0.8507651053952413,-0.8825467578464924,0.9917659814487484,0.903265105395241,-0.892646909000671,high,high,,ISIC_0032604.JPG,9,ISIC_0032233.JPG,51,false,0.1,ll,keypress(f),0,false,878637.8999999762,878637.6000000238,876159.522,876150.2000000477,876176.345,878647.584,4,500,9,
break,html.Screen,10_8_1,2023-11-17T16:57:47.531Z,,,,,,,,,,,NaN,,,,,,,,high,high,,,,,,false,,,,,false,878638.5,878638.2999999523,,878638.1000000238,,878647.584,4,500,,
break_continue,html.Screen,10_8_2,2023-11-17T16:57:47.531Z,,,,,,,,,,,NaN,,,,,,,,high,high,,,,,,false,,,,,false,878639,878638.7999999523,,878638.7000000477,,878647.584,4,500,,
sequence,flow.Sequence,10_8,2023-11-17T16:57:47.532Z,,,,,,,,,,,2462.454999952344,completion,,,,,,,high,high,,,,,,false,,,,,false,878639.1000000238,878638.7999999523,876159.522,876150.2000000477,876176.345,878647.584,4,500,,
trial,html.Screen,10_9_0,2023-11-17T16:57:49.810Z,,,,1,0.0158987717472563,0.0292472192292015,,0.04,false,ll,2269.9159999999683,response,-0.8867858784567559,0.8507651053952413,-0.8825467578464924,-0.8318206308101198,0.903265105395241,-0.892646909000671,low,low,,ISIC_1366765.JPG,10,ISIC_0032494.JPG,45,false,0.1,lh,keypress(e),0,false,880917.7000000477,880917.5,878631.013,878639.2000000477,878647.584,880936.705,4,500,10,
break,html.Screen,10_9_1,2023-11-17T16:57:49.811Z,,,,,,,,,,,NaN,,,,,,,,low,low,,,,,,false,,,,,false,880918.2999999523,880918.2000000477,,880917.8999999762,,880936.705,4,500,,
break_continue,html.Screen,10_9_2,2023-11-17T16:57:49.811Z,,,,,,,,,,,NaN,,,,,,,,low,low,,,,,,false,,,,,false,880918.7000000477,880918.6000000238,,880918.5,,880936.705,4,500,,
sequence,flow.Sequence,10_9,2023-11-17T16:57:49.811Z,,,,,,,,,,,2271.01600002381,completion,,,,,,,low,low,,,,,,false,,,,,false,880918.8999999762,880918.6000000238,878631.013,878639.2000000477,878647.584,880936.705,4,500,,
trial,html.Screen,10_10_0,2023-11-17T16:57:54.938Z,,,,1,-0.0361875505619981,0.0291457404567876,,0.04,true,ll,5108.295000000042,response,-0.8140661970625187,0.8507651053952413,-0.8825467578464924,-0.9400174940212648,0.903265105395241,-0.892646909000671,low,low,,ISIC_0027480.JPG,9,ISIC_0000957.JPG,45,false,0.1,ll,keypress(f),0,false,886045.1000000238,886045,880902.068,880919,880936.705,886062.144,4,500,11,
break,html.Screen,10_10_1,2023-11-17T16:57:54.938Z,,,,,,,,,,,NaN,,,,,,,,low,low,,,,,,false,,,,,false,886045.5,886045.3999999762,,886045.2999999523,,886062.144,4,500,,
break_continue,html.Screen,10_10_2,2023-11-17T16:57:54.938Z,,,,,,,,,,,NaN,,,,,,,,low,low,,,,,,false,,,,,false,886045.6000000238,886045.6000000238,,886045.6000000238,,886062.144,4,500,,
sequence,flow.Sequence,10_10,2023-11-17T16:57:54.938Z,,,,,,,,,,,5108.895000023884,completion,,,,,,,low,low,,,,,,false,,,,,false,886045.7000000477,886045.6000000238,880902.068,880919,880936.705,886062.144,4,500,,
trial,html.Screen,10_11_0,2023-11-17T16:58:00.802Z,,,,1,0.0166849894750452,-0.0371614812368835,,0.04,false,hl,5846.956000023871,response,0.9448560599810628,0.8507651053952413,-0.8825467578464924,-0.9099421612683488,0.903265105395241,-0.892646909000671,high,low,,ISIC_6231450.JPG,8,ISIC_9684318.JPG,27,false,0.14,ll,keypress(f),0,false,891909.2999999523,891909.1000000238,886045.27,886045.7000000477,886062.144,891923.567,4,500,12,
break,html.Screen,10_11_1,2023-11-17T16:58:00.802Z,,,,,,,,,,,NaN,,,,,,,,high,low,,,,,,false,,,,,false,891909.7000000477,891909.6000000238,,891909.3999999762,,891923.567,4,500,,
break_continue,html.Screen,10_11_2,2023-11-17T16:58:00.802Z,,,,,,,,,,,NaN,,,,,,,,high,low,,,,,,false,,,,,false,891910,891909.8999999762,,891909.7000000477,,891923.567,4,500,,
sequence,flow.Sequence,10_11,2023-11-17T16:58:00.803Z,,,,,,,,,,,5847.755999976187,completion,,,,,,,high,low,,,,,,false,,,,,false,891910,891909.8999999762,886045.27,886045.7000000477,886062.144,891923.567,4,500,,
trial,html.Screen,10_12_0,2023-11-17T16:58:04.730Z,,,,1,0.012020985739544,-0.0126097407389903,,0.04,true,hh,3913.932999999961,response,0.903200901040808,0.8507651053952413,-0.8825467578464924,0.8884252535933715,0.903265105395241,-0.892646909000671,high,high,,ISIC_0069379.JPG,8,ISIC_0065260.JPG,51,false,0.1,hh,keypress(i),0,false,895837.6000000238,895837.5,891906.892,891910.2000000477,891923.567,895847.705,4,500,13,
break,html.Screen,10_12_1,2023-11-17T16:58:04.731Z,,,,,,,,,,,NaN,,,,,,,,high,high,,,,,,false,,,,,false,895838.1000000238,895837.8999999762,,895837.7000000477,,895847.705,4,500,,
break_continue,html.Screen,10_12_2,2023-11-17T16:58:04.731Z,,,,,,,,,,,NaN,,,,,,,,high,high,,,,,,false,,,,,false,895838.3999999762,895838.2999999523,,895838.2000000477,,895847.705,4,500,,
sequence,flow.Sequence,10_12,2023-11-17T16:58:04.731Z,,,,,,,,,,,3914.732999952277,completion,,,,,,,high,high,,,,,,false,,,,,false,895838.5,895838.2999999523,891906.892,891910.1000000238,891923.567,895847.705,4,500,,
trial,html.Screen,10_13_0,2023-11-17T16:58:08.538Z,,,,1,-0.0365981355399771,-0.0162670920008846,,0.04,false,ll,3797.9950000477256,response,-0.967434313906551,0.8507651053952413,-0.8825467578464924,-0.9078292667476092,0.903265105395241,-0.892646909000671,low,low,,ISIC_0982855.JPG,9,ISIC_0011668.JPG,45,false,0.1,lh,keypress(e),0,false,899646,899645.7000000477,895831.014,895838.6000000238,895847.705,899655.092,4,500,14,
break,html.Screen,10_13_1,2023-11-17T16:58:08.539Z,,,,,,,,,,,NaN,,,,,,,,low,low,,,,,,false,,,,,false,899646.7999999523,899646.5,,899646.2000000477,,899655.092,4,500,,
break_continue,html.Screen,10_13_2,2023-11-17T16:58:08.540Z,,,,,,,,,,,NaN,,,,,,,,low,low,,,,,,false,,,,,false,899647.3999999762,899647.2000000477,,899647,,899655.092,4,500,,
sequence,flow.Sequence,10_13,2023-11-17T16:58:08.540Z,,,,,,,,,,,3799.4950000477256,completion,,,,,,,low,low,,,,,,false,,,,,false,899647.6000000238,899647.2000000477,895831.014,895838.6000000238,895847.705,899655.092,4,500,,
trial,html.Screen,10_14_0,2023-11-17T16:58:12.618Z,,,,1,0.0060934073440827,0.0279108145883031,,0.04,true,lh,4070.307999976212,response,-0.9394943755829636,0.8507651053952413,-0.8825467578464924,0.7928025019302636,0.903265105395241,-0.892646909000671,low,high,,ISIC_0032604.JPG,10,ISIC_0071550.JPG,25,false,0.15000000000000002,lh,keypress(e),0,false,903725.6000000238,903725.3999999762,899638.554,899647.7999999523,899655.092,903729.675,4,500,15,
break,html.Screen,10_14_1,2023-11-17T16:58:12.619Z,,,,,,,,,,,NaN,,,,,,,,low,high,,,,,,false,,,,,false,903726.1000000238,903725.8999999762,,903725.7000000477,,903729.675,4,500,,
break_continue,html.Screen,10_14_2,2023-11-17T16:58:12.619Z,,,,,,,,,,,NaN,,,,,,,,low,high,,,,,,false,,,,,false,903726.2999999523,903726.2000000477,,903726.1000000238,,903729.675,4,500,,
sequence,flow.Sequence,10_14,2023-11-17T16:58:12.619Z,,,,,,,,,,,4071.1080000477377,completion,,,,,,,low,high,,,,,,false,,,,,false,903726.3999999762,903726.2000000477,899638.554,899647.7000000477,899655.092,903729.675,4,500,,
trial,html.Screen,10_15_0,2023-11-17T16:58:16.410Z,,,,1,0.0023664502831079,0.0252784582169994,,0.04,false,ll,3787.7249999761116,response,-0.7914346928019095,0.8507651053952413,-0.8825467578464924,-0.9448806246145584,0.903265105395241,-0.892646909000671,low,low,,ISIC_4156010.JPG,9,ISIC_9646599.JPG,45,false,0.1,hh,keypress(i),0,false,907517.5,907517.3999999762,903713.197,903726.6000000238,903729.675,907520.365,4,500,16,
break,html.Screen,10_15_1,2023-11-17T16:58:16.410Z,,,,,,,,,,,NaN,,,,,,,,low,low,,,,,,false,,,,,false,907517.7999999523,907517.7999999523,,907517.6000000238,,907520.365,4,500,,
break_continue,html.Screen,10_15_2,2023-11-17T16:58:16.411Z,,,,,,,,,,,NaN,,,,,,,,low,low,,,,,,false,,,,,false,907518.1000000238,907518,,907517.8999999762,,907520.365,4,500,,
sequence,flow.Sequence,10_15,2023-11-17T16:58:16.411Z,,,,,,,,,,,3788.3249999999534,completion,,,,,,,low,low,,,,,,false,,,,,false,907518.1000000238,907518,903713.197,903726.5,903729.675,907520.365,4,500,,
trial,html.Screen,10_16_0,2023-11-17T16:58:19.713Z,,,,1,0.012810673904807,-0.00400964452501,,0.04,true,hl,3300.4349999523256,response,0.9448560599810628,0.8507651053952413,-0.8825467578464924,-0.9099421612683488,0.903265105395241,-0.892646909000671,high,low,,ISIC_0064656.JPG,9,ISIC_9684318.JPG,27,false,0.14,hl,keypress(j),0,false,910820.8999999762,910820.7999999523,907503.763,907518.2999999523,907520.365,910826.818,4,500,17,
break,html.Screen,10_16_1,2023-11-17T16:58:19.714Z,,,,,,,,,,,NaN,,,,,,,,high,low,,,,,,false,,,,,false,910821.2999999523,910821.2000000477,,910821,,910826.818,4,500,,
break_continue,html.Screen,10_16_2,2023-11-17T16:58:19.714Z,,,,,,,,,,,NaN,,,,,,,,high,low,,,,,,false,,,,,false,910821.3999999762,910821.3999999762,,910821.2999999523,,910826.818,4,500,,
sequence,flow.Sequence,10_16,2023-11-17T16:58:19.714Z,,,,,,,,,,,3301.0349999761675,completion,,,,,,,high,low,,,,,,false,,,,,false,910821.5,910821.3999999762,907503.763,907518.2000000477,907520.365,910826.818,4,500,,
trial,html.Screen,10_17_0,2023-11-17T16:58:24.930Z,,,,1,0.012810673904807,-0.00400964452501,,0.04,false,lh,5210.481999952346,response,-0.8644465729542988,0.8507651053952413,-0.8825467578464924,0.8679598285079457,0.903265105395241,-0.892646909000671,low,high,,ISIC_0064656.JPG,9,ISIC_6718969.JPG,25,false,0.15000000000000002,hl,keypress(j),0,false,916037.3999999762,916037.2999999523,910810.255,910821.6000000238,910826.818,916053.792,4,500,18,
break,html.Screen,10_17_1,2023-11-17T16:58:24.930Z,,,,,,,,,,,NaN,,,,,,,,low,high,,,,,,false,,,,,false,916037.8999999762,916037.7000000477,,916037.6000000238,,916053.792,4,500,,
break_continue,html.Screen,10_17_2,2023-11-17T16:58:24.931Z,,,,,,,,,,,NaN,,,,,,,,low,high,,,,,,false,,,,,false,916038.1000000238,916038.1000000238,,916037.8999999762,,916053.792,4,500,,
sequence,flow.Sequence,10_17,2023-11-17T16:58:24.931Z,,,,,,,,,,,5211.282000023872,completion,,,,,,,low,high,,,,,,false,,,,,false,916038.2000000477,916038.1000000238,910810.255,910821.5,910826.818,916053.792,4,500,,
trial,html.Screen,10_18_0,2023-11-17T16:58:27.321Z,,,,1,0.012810673904807,-0.00400964452501,,0.04,true,hl,2375.0079999523005,response,0.8688859182707874,0.8507651053952413,-0.8825467578464924,-0.9566733172438716,0.903265105395241,-0.892646909000671,high,low,,ISIC_0064656.JPG,9,ISIC_0640770.JPG,27,false,0.14,hl,keypress(j),0,false,918428.8999999762,918428.7999999523,916037.064,916038.2999999523,916053.792,918441.611,4,500,19,
break,html.Screen,10_18_1,2023-11-17T16:58:27.322Z,,,,,,,,,,,NaN,,,,,,,,high,low,,,,,,false,,,,,false,918429.1000000238,918429.1000000238,,918429,,918441.611,4,500,,
break_continue,html.Screen,10_18_2,2023-11-17T16:58:27.322Z,,,,,,,,,,,NaN,,,,,,,,high,low,,,,,,false,,,,,false,918429.3999999762,918429.2999999523,,918429.2000000477,,918441.611,4,500,,
sequence,flow.Sequence,10_18,2023-11-17T16:58:27.322Z,,,,,,,,,,,2375.5079999523005,completion,,,,,,,high,low,,,,,,false,,,,,false,918429.3999999762,918429.2999999523,916037.064,916038.2999999523,916053.792,918441.611,4,500,,
trial,html.Screen,10_19_0,2023-11-17T16:58:30.154Z,,,,1,-0.0361875505619981,0.0291457404567876,,0.04,true,ll,2820.08900004765,response,-0.831295474746028,0.8507651053952413,-0.8825467578464924,-0.9721089662087676,0.903265105395241,-0.892646909000671,low,low,,ISIC_0027480.JPG,9,ISIC_0760740.JPG,45,false,0.1,ll,keypress(f),0,false,921261.8999999762,921261.7000000477,918425.193,918429.3999999762,918441.611,921263.83,4,500,20,
break,html.Screen,10_19_1,2023-11-17T16:58:30.155Z,,,,,,,,,,,NaN,,,,,,,,low,low,,,,,,false,,,,,false,921262.7000000477,921262.5,,921262.1000000238,,921263.83,4,500,,
break_continue,html.Screen,10_19_2,2023-11-17T16:58:30.156Z,,,,,,,,,,,NaN,,,,,,,,low,low,,,,,,false,,,,,false,921263.2000000477,921263,,921262.8999999762,,921263.83,4,500,,
sequence,flow.Sequence,10_19,2023-11-17T16:58:30.156Z,,,,,,,,,,,2821.3889999999665,completion,,,,,,,low,low,,,,,,false,,,,,false,921263.3999999762,921263,918425.193,918429.3999999762,918441.611,921263.83,4,500,,
trial,html.Screen,10_20_0,2023-11-17T16:58:34.370Z,,,,1,-0.0327772618698018,0.0056908372048728,,0.04,true,hh,4213.170000000042,response,0.9009408285331614,0.8507651053952413,-0.8825467578464924,0.8985422901220989,0.903265105395241,-0.892646909000671,high,high,,ISIC_7897925.JPG,9,ISIC_0033834.JPG,51,false,0.1,hh,keypress(i),0,false,925477.1000000238,925477,921247.323,921263.5,921263.83,925488.817,4,500,21,
break,html.Screen,10_20_1,2023-11-17T16:58:34.370Z,,,,,,,,,,,NaN,,,,,,,,high,high,,,,,,false,,,,,false,925477.5,925477.3999999762,,925477.2999999523,,925488.817,4,500,,
break_continue,html.Screen,10_20_2,2023-11-17T16:58:34.370Z,,,,,,,,,,,NaN,,,,,,,,high,high,,,,,,false,,,,,false,925477.7000000477,925477.7000000477,,925477.5,,925488.817,4,500,,
sequence,flow.Sequence,10_20,2023-11-17T16:58:34.370Z,,,,,,,,,,,4213.870000047726,completion,,,,,,,high,high,,,,,,false,,,,,false,925477.8999999762,925477.7000000477,921247.323,921263.5,921263.83,925488.817,4,500,,
trial,html.Screen,10_21_0,2023-11-17T16:58:39.299Z,,,,1,0.00126575685933,0.0325046559638838,,0.04,true,hh,4916.482999952277,response,0.7998473707897232,0.8507651053952413,-0.8825467578464924,0.89794677837575,0.903265105395241,-0.892646909000671,high,high,,ISIC_5682259.JPG,10,ISIC_0061685.JPG,51,false,0.1,hh,keypress(i),0,false,930405.2999999523,930405.2999999523,925472.051,925478,925488.817,930414.897,4,500,22,
break,html.Screen,10_21_1,2023-11-17T16:58:39.299Z,,,,,,,,,,,NaN,,,,,,,,high,high,,,,,,false,,,,,false,930405.7999999523,930405.7000000477,,930405.6000000238,,930414.897,4,500,,
break_continue,html.Screen,10_21_2,2023-11-17T16:58:39.299Z,,,,,,,,,,,NaN,,,,,,,,high,high,,,,,,false,,,,,false,930406.1000000238,930406,,930405.8999999762,,930414.897,4,500,,
sequence,flow.Sequence,10_21,2023-11-17T16:58:39.300Z,,,,,,,,,,,4917.182999999961,completion,,,,,,,high,high,,,,,,false,,,,,false,930406.2000000477,930406,925472.051,925478,925488.817,930414.897,4,500,,
trial,html.Screen,10_22_0,2023-11-17T16:58:42.851Z,,,,1,-0.0365981355399771,-0.0162670920008846,,0.04,false,lh,3542.603000000003,response,-0.8644465729542988,0.8507651053952413,-0.8825467578464924,0.8679598285079457,0.903265105395241,-0.892646909000671,low,high,,ISIC_0982855.JPG,10,ISIC_6718969.JPG,25,false,0.15000000000000002,hh,keypress(i),0,false,933957.7000000477,933957.5,930398.366,930406.2000000477,930414.897,933971.938,4,500,23,
break,html.Screen,10_22_1,2023-11-17T16:58:42.852Z,,,,,,,,,,,NaN,,,,,,,,low,high,,,,,,false,,,,,false,933958.2000000477,933958.1000000238,,933957.8999999762,,933971.938,4,500,,
break_continue,html.Screen,10_22_2,2023-11-17T16:58:42.852Z,,,,,,,,,,,NaN,,,,,,,,low,high,,,,,,false,,,,,false,933958.7000000477,933958.6000000238,,933958.3999999762,,933971.938,4,500,,
sequence,flow.Sequence,10_22,2023-11-17T16:58:42.852Z,,,,,,,,,,,3543.7030000238447,completion,,,,,,,low,high,,,,,,false,,,,,false,933958.7999999523,933958.6000000238,930398.366,930406.2000000477,930414.897,933971.938,4,500,,
trial,html.Screen,10_23_0,2023-11-17T16:58:49.555Z,,,,1,0.0071892445601978,-0.0246015408628738,,0.04,false,hl,6689.861999952351,response,0.9448560599810628,0.8507651053952413,-0.8825467578464924,-0.9099421612683488,0.903265105395241,-0.892646909000671,high,low,,ISIC_0014133.JPG,8,ISIC_9684318.JPG,27,false,0.14,ll,keypress(f),0,false,940662.1000000238,940661.7999999523,933955.083,933958.8999999762,933971.938,940668.185,4,500,24,
break,html.Screen,10_23_1,2023-11-17T16:58:49.556Z,,,,,,,,,,,NaN,,,,,,,,high,low,,,,,,false,,,,,false,940662.7999999523,940662.7000000477,,940662.2999999523,,940668.185,4,500,,
break_continue,html.Screen,10_23_2,2023-11-17T16:58:49.557Z,,,,,,,,,,,NaN,,,,,,,,high,low,,,,,,false,,,,,false,940663.3999999762,940663.2999999523,,940663.1000000238,,940668.185,4,500,,
sequence,flow.Sequence,10_23,2023-11-17T16:58:49.557Z,,,,,,,,,,,6691.361999952351,completion,,,,,,,high,low,,,,,,false,,,,,false,940663.6000000238,940663.2999999523,933955.083,933958.7999999523,933971.938,940668.185,4,500,,
trial,html.Screen,10_24_0,2023-11-17T16:58:53.690Z,,,,1,0.012020985739544,-0.0126097407389903,,0.04,false,lh,4128.814999999944,response,-1.00615481805876,0.8507651053952413,-0.8825467578464924,0.8428903771195875,0.903265105395241,-0.892646909000671,low,high,,ISIC_0069379.JPG,9,ISIC_0069970.JPG,25,false,0.15000000000000002,hh,keypress(i),0,false,944797.1000000238,944797,940651.682,940663.7999999523,940668.185,944809.734,4,500,25,
break,html.Screen,10_24_1,2023-11-17T16:58:53.691Z,,,,,,,,,,,NaN,,,,,,,,low,high,,,,,,false,,,,,false,944797.3999999762,944797.2999999523,,944797.2999999523,,944809.734,4,500,,
break_continue,html.Screen,10_24_2,2023-11-17T16:58:53.691Z,,,,,,,,,,,NaN,,,,,,,,low,high,,,,,,false,,,,,false,944797.6000000238,944797.6000000238,,944797.5,,944809.734,4,500,,
sequence,flow.Sequence,10_24,2023-11-17T16:58:53.691Z,,,,,,,,,,,4129.415000023786,completion,,,,,,,low,high,,,,,,false,,,,,false,944797.7000000477,944797.6000000238,940651.682,940663.7999999523,940668.185,944809.734,4,500,,
trial,html.Screen,10_25_0,2023-11-17T16:58:59.475Z,,,,1,0.0071892445601978,-0.0246015408628738,,0.04,false,hl,5771.265999999945,response,0.8407642478899736,0.8507651053952413,-0.8825467578464924,-0.9542322753334054,0.903265105395241,-0.892646909000671,high,low,,ISIC_0014133.JPG,9,ISIC_9090822.JPG,27,false,0.14,ll,keypress(f),0,false,950581.1000000238,950581,944792.875,944797.7999999523,944809.734,950604.174,4,500,26,
break,html.Screen,10_25_1,2023-11-17T16:58:59.475Z,,,,,,,,,,,NaN,,,,,,,,high,low,,,,,,false,,,,,false,950581.5,950581.5,,950581.2999999523,,950604.174,4,500,,
break_continue,html.Screen,10_25_2,2023-11-17T16:58:59.475Z,,,,,,,,,,,NaN,,,,,,,,high,low,,,,,,false,,,,,false,950581.7000000477,950581.6000000238,,950581.6000000238,,950604.174,4,500,,
sequence,flow.Sequence,10_25,2023-11-17T16:58:59.475Z,,,,,,,,,,,5771.866000023787,completion,,,,,,,high,low,,,,,,false,,,,,false,950581.7999999523,950581.6000000238,944792.875,944797.7999999523,944809.734,950604.174,4,500,,
trial,html.Screen,10_26_0,2023-11-17T16:59:03.571Z,,,,1,-0.0199897690678184,-0.0312486875504497,,0.04,true,hh,4073.0260000476846,response,0.9303292478996148,0.8507651053952413,-0.8825467578464924,0.8099604275482958,0.903265105395241,-0.892646909000671,high,high,,ISIC_5482426.JPG,9,ISIC_0068580.JPG,51,false,0.1,hh,keypress(i),0,false,954677.3999999762,954677.2000000477,950587.492,950581.8999999762,950604.174,954695.492,4,500,27,
break,html.Screen,10_26_1,2023-11-17T16:59:03.571Z,,,,,,,,,,,NaN,,,,,,,,high,high,,,,,,false,,,,,false,954677.7000000477,954677.7000000477,,954677.5,,954695.492,4,500,,
break_continue,html.Screen,10_26_2,2023-11-17T16:59:03.571Z,,,,,,,,,,,NaN,,,,,,,,high,high,,,,,,false,,,,,false,954678,954677.8999999762,,954677.7999999523,,954695.492,4,500,,
sequence,flow.Sequence,10_26,2023-11-17T16:59:03.571Z,,,,,,,,,,,4073.725999976159,completion,,,,,,,high,high,,,,,,false,,,,,false,954678,954677.8999999762,950587.492,950581.8999999762,950604.174,954695.492,4,500,,
trial,html.Screen,10_27_0,2023-11-17T16:59:06.194Z,,,,1,-0.0361875505619981,0.0291457404567876,,0.04,true,ll,2605.407999976189,response,-0.8682932893841188,0.8507651053952413,-0.8825467578464924,-0.949897846123557,0.903265105395241,-0.892646909000671,low,low,,ISIC_0027480.JPG,9,ISIC_0033229.JPG,45,false,0.1,ll,keypress(f),0,false,957301,957300.8999999762,954678.787,954678.2000000477,954695.492,957317.357,4,500,28,
break,html.Screen,10_27_1,2023-11-17T16:59:06.195Z,,,,,,,,,,,NaN,,,,,,,,low,low,,,,,,false,,,,,false,957301.2999999523,957301.2999999523,,957301.1000000238,,957317.357,4,500,,
break_continue,html.Screen,10_27_2,2023-11-17T16:59:06.195Z,,,,,,,,,,,NaN,,,,,,,,low,low,,,,,,false,,,,,false,957301.5,957301.3999999762,,957301.3999999762,,957317.357,4,500,,
sequence,flow.Sequence,10_27,2023-11-17T16:59:06.195Z,,,,,,,,,,,2605.907999976189,completion,,,,,,,low,low,,,,,,false,,,,,false,957301.5,957301.3999999762,954678.787,954678.1000000238,954695.492,957317.357,4,500,,
trial,html.Screen,10_28_0,2023-11-17T16:59:09.795Z,,,,1,0.0057914759495055,-0.018500200317654,,0.04,true,hh,3583.9429999523563,response,0.8588110989287362,0.8507651053952413,-0.8825467578464924,0.8116693976180469,0.903265105395241,-0.892646909000671,high,high,,ISIC_0058723.JPG,9,ISIC_0066878.JPG,51,false,0.1,hh,keypress(i),0,false,960901.3999999762,960901.2999999523,957300.732,957301.6000000238,957317.357,960907.566,4,500,29,
break,html.Screen,10_28_1,2023-11-17T16:59:09.795Z,,,,,,,,,,,NaN,,,,,,,,high,high,,,,,,false,,,,,false,960901.7999999523,960901.7000000477,,960901.5,,960907.566,4,500,,
break_continue,html.Screen,10_28_2,2023-11-17T16:59:09.795Z,,,,,,,,,,,NaN,,,,,,,,high,high,,,,,,false,,,,,false,960902,960902,,960901.8999999762,,960907.566,4,500,,
sequence,flow.Sequence,10_28,2023-11-17T16:59:09.796Z,,,,,,,,,,,3584.64300000004,completion,,,,,,,high,high,,,,,,false,,,,,false,960902.2000000477,960902,957300.732,957301.5,957317.357,960907.566,4,500,,
trial,html.Screen,10_29_0,2023-11-17T16:59:13.603Z,,,,1,0.0377791839943904,-0.0227626648172468,,0.04,false,lh,3801.5340000238502,response,-1.0143509683988825,0.8507651053952413,-0.8825467578464924,1.0281980567462463,0.903265105395241,-0.892646909000671,low,high,,ISIC_7167479.JPG,9,ISIC_0062031.JPG,25,false,0.15000000000000002,hh,keypress(i),0,false,964709.2000000477,964709.1000000238,960890.945,960902.2000000477,960907.566,964714.936,4,500,30,
break,html.Screen,10_29_1,2023-11-17T16:59:13.603Z,,,,,,,,,,,NaN,,,,,,,,low,high,,,,,,false,,,,,false,964709.3999999762,964709.3999999762,,964709.2999999523,,964714.936,4,500,,
break_continue,html.Screen,10_29_2,2023-11-17T16:59:13.603Z,,,,,,,,,,,NaN,,,,,,,,low,high,,,,,,false,,,,,false,964709.6000000238,964709.6000000238,,964709.5,,964714.936,4,500,,
sequence,flow.Sequence,10_29,2023-11-17T16:59:13.603Z,,,,,,,,,,,3802.0340000238502,completion,,,,,,,low,high,,,,,,false,,,,,false,964709.7000000477,964709.6000000238,960890.945,960902.2000000477,960907.566,964714.936,4,500,,
trial,html.Screen,10_30_0,2023-11-17T16:59:17.643Z,,,,1,0.0060918352854008,-0.029032683404407,,0.04,true,hl,4034.2640000476968,response,0.9235571765207048,0.8507651053952413,-0.8825467578464924,-0.7832040253954599,0.903265105395241,-0.892646909000671,high,low,,ISIC_8436194.JPG,8,ISIC_8796632.JPG,27,false,0.14,hl,keypress(j),0,false,968749.2999999523,968749.2000000477,964698.387,964709.7000000477,964714.936,968756.168,4,500,31,
break,html.Screen,10_30_1,2023-11-17T16:59:17.643Z,,,,,,,,,,,NaN,,,,,,,,high,low,,,,,,false,,,,,false,968750,968749.7999999523,,968749.6000000238,,968756.168,4,500,,
break_continue,html.Screen,10_30_2,2023-11-17T16:59:17.644Z,,,,,,,,,,,NaN,,,,,,,,high,low,,,,,,false,,,,,false,968750.2000000477,968750.1000000238,,968750,,968756.168,4,500,,
sequence,flow.Sequence,10_30,2023-11-17T16:59:17.644Z,,,,,,,,,,,4035.164000023855,completion,,,,,,,high,low,,,,,,false,,,,,false,968750.3999999762,968750.1000000238,964698.387,964709.7000000477,964714.936,968756.168,4,500,,
trial,html.Screen,10_31_0,2023-11-17T16:59:20.203Z,,,,1,-0.0086413421586899,-0.0360184993500958,,0.04,true,hl,2553.532000047737,response,0.9235571765207048,0.8507651053952413,-0.8825467578464924,-0.7832040253954599,0.903265105395241,-0.892646909000671,high,low,,ISIC_0010767.JPG,9,ISIC_8796632.JPG,27,false,0.14,hl,keypress(j),0,false,971309.7999999523,971309.7000000477,968739.657,968750.5,968756.168,971329.25,4,500,32,
break,html.Screen,10_31_1,2023-11-17T16:59:20.204Z,,,,,,,,,,,NaN,,,,,,,,high,low,,,,,,false,,,,,false,971310.6000000238,971310.5,,971310,,971329.25,4,500,,
break_continue,html.Screen,10_31_2,2023-11-17T16:59:20.204Z,,,,,,,,,,,NaN,,,,,,,,high,low,,,,,,false,,,,,false,971311.1000000238,971310.8999999762,,971310.7000000477,,971329.25,4,500,,
sequence,flow.Sequence,10_31,2023-11-17T16:59:20.205Z,,,,,,,,,,,2554.7319999762112,completion,,,,,,,high,low,,,,,,false,,,,,false,971311.2000000477,971310.8999999762,968739.657,968750.5,968756.168,971329.25,4,500,,
trial,html.Screen,10_32_0,2023-11-17T16:59:23.027Z,,,,1,0.0166849894750452,-0.0371614812368835,,0.04,false,ll,2804.5499999523163,response,-0.8017757615489182,0.8507651053952413,-0.8825467578464924,-0.8187931329618445,0.903265105395241,-0.892646909000671,low,low,,ISIC_6231450.JPG,9,ISIC_0029024.JPG,45,false,0.1,hl,keypress(j),0,false,974134,974133.7999999523,971294.439,971311.2000000477,971329.25,974150.136,4,500,33,
break,html.Screen,10_32_1,2023-11-17T16:59:23.028Z,,,,,,,,,,,NaN,,,,,,,,low,low,,,,,,false,,,,,false,974134.8999999762,974134.7000000477,,974134.2999999523,,974150.136,4,500,,
break_continue,html.Screen,10_32_2,2023-11-17T16:59:23.029Z,,,,,,,,,,,NaN,,,,,,,,low,low,,,,,,false,,,,,false,974135.2999999523,974135.1000000238,,974135,,974150.136,4,500,,
sequence,flow.Sequence,10_32,2023-11-17T16:59:23.029Z,,,,,,,,,,,2805.850000023842,completion,,,,,,,low,low,,,,,,false,,,,,false,974135.5,974135.1000000238,971294.439,971311.2000000477,971329.25,974150.136,4,500,,
trial,html.Screen,10_33_0,2023-11-17T16:59:25.395Z,,,,1,0.0118555311043871,0.0087774532070196,,0.04,false,hh,2351.064000047627,response,0.8223148058609743,0.8507651053952413,-0.8825467578464924,0.8873094399918428,0.903265105395241,-0.892646909000671,high,high,,ISIC_6488658.JPG,9,ISIC_0011356.JPG,51,false,0.1,hl,keypress(j),0,false,976501.2999999523,976501.2000000477,974133.264,974135.7000000477,974150.136,976504.524,4,500,34,
break,html.Screen,10_33_1,2023-11-17T16:59:25.395Z,,,,,,,,,,,NaN,,,,,,,,high,high,,,,,,false,,,,,false,976501.6000000238,976501.6000000238,,976501.3999999762,,976504.524,4,500,,
break_continue,html.Screen,10_33_2,2023-11-17T16:59:25.395Z,,,,,,,,,,,NaN,,,,,,,,high,high,,,,,,false,,,,,false,976501.7999999523,976501.7000000477,,976501.7000000477,,976504.524,4,500,,
sequence,flow.Sequence,10_33,2023-11-17T16:59:25.395Z,,,,,,,,,,,2351.564000047627,completion,,,,,,,high,high,,,,,,false,,,,,false,976501.7999999523,976501.7000000477,974133.264,974135.6000000238,974150.136,976504.524,4,500,,
trial,html.Screen,10_34_0,2023-11-17T16:59:30.203Z,,,,1,-0.0127320821962457,0.0315308940184827,,0.04,true,ll,4804.576000023866,response,-0.8653812021405652,0.8507651053952413,-0.8825467578464924,-0.8152936881018393,0.903265105395241,-0.892646909000671,low,low,,ISIC_8156101.JPG,8,ISIC_4631711.JPG,45,false,0.1,ll,keypress(f),0,false,981309.2999999523,981309.1000000238,976487.93,976501.8999999762,976504.524,981330.755,4,500,35,
break,html.Screen,10_34_1,2023-11-17T16:59:30.203Z,,,,,,,,,,,NaN,,,,,,,,low,low,,,,,,false,,,,,false,981309.7999999523,981309.6000000238,,981309.5,,981330.755,4,500,,
break_continue,html.Screen,10_34_2,2023-11-17T16:59:30.203Z,,,,,,,,,,,NaN,,,,,,,,low,low,,,,,,false,,,,,false,981310,981309.8999999762,,981309.7999999523,,981330.755,4,500,,
sequence,flow.Sequence,10_34,2023-11-17T16:59:30.203Z,,,,,,,,,,,4805.375999976182,completion,,,,,,,low,low,,,,,,false,,,,,false,981310.1000000238,981309.8999999762,976487.93,976501.8999999762,976504.524,981330.755,4,500,,
trial,html.Screen,10_35_0,2023-11-17T16:59:33.859Z,,,,1,0.0399381815506136,0.0177751789152893,,0.04,true,hh,3634.945000047679,response,0.850984647884985,0.8507651053952413,-0.8825467578464924,0.8368364447246962,0.903265105395241,-0.892646909000671,high,high,,ISIC_3981425.JPG,9,ISIC_0062005.JPG,51,false,0.1,hh,keypress(i),0,false,984966,984965.7000000477,981313.882,981310.2000000477,981330.755,984971.065,4,500,36,
break,html.Screen,10_35_1,2023-11-17T16:59:33.860Z,,,,,,,,,,,NaN,,,,,,,,high,high,,,,,,false,,,,,false,984966.7000000477,984966.6000000238,,984966.2999999523,,984971.065,4,500,,
break_continue,html.Screen,10_35_2,2023-11-17T16:59:33.861Z,,,,,,,,,,,NaN,,,,,,,,high,high,,,,,,false,,,,,false,984967.3999999762,984967.2000000477,,984967,,984971.065,4,500,,
sequence,flow.Sequence,10_35,2023-11-17T16:59:33.861Z,,,,,,,,,,,3636.445000047679,completion,,,,,,,high,high,,,,,,false,,,,,false,984967.6000000238,984967.2000000477,981313.882,981310.1000000238,981330.755,984971.065,4,500,,
trial,html.Screen,10_36_0,2023-11-17T16:59:38.307Z,,,,1,-0.0063515208248796,-0.0194177605767913,,0.04,false,ll,4441.63500004774,response,-0.8278249532658066,0.8507651053952413,-0.8825467578464924,-0.806779532079123,0.903265105395241,-0.892646909000671,low,low,,ISIC_5281908.JPG,8,ISIC_4114269.JPG,45,false,0.1,lh,keypress(e),0,false,989412.7999999523,989412.7000000477,984954.381,984967.7999999523,984971.065,989429.664,4,500,37,
break,html.Screen,10_36_1,2023-11-17T16:59:38.307Z,,,,,,,,,,,NaN,,,,,,,,low,low,,,,,,false,,,,,false,989413.1000000238,989413,,989412.8999999762,,989429.664,4,500,,
break_continue,html.Screen,10_36_2,2023-11-17T16:59:38.307Z,,,,,,,,,,,NaN,,,,,,,,low,low,,,,,,false,,,,,false,989413.2999999523,989413.2999999523,,989413.1000000238,,989429.664,4,500,,
sequence,flow.Sequence,10_36,2023-11-17T16:59:38.308Z,,,,,,,,,,,4442.234999952372,completion,,,,,,,low,low,,,,,,false,,,,,false,989413.2999999523,989413.2999999523,984954.381,984967.7000000477,984971.065,989429.664,4,500,,
trial,html.Screen,10_37_0,2023-11-17T16:59:42.909Z,,,,1,0.0350697500805515,0.0166617848231997,,0.04,false,hh,4584.436000023852,response,0.891534074006073,0.8507651053952413,-0.8825467578464924,0.9584950302233712,0.903265105395241,-0.892646909000671,high,high,,ISIC_0024423.JPG,9,ISIC_0060559.JPG,51,false,0.1,hl,keypress(j),0,false,994014.3999999762,994014.1000000238,989412.978,989413.3999999762,989429.664,994021.911,4,500,38,
break,html.Screen,10_37_1,2023-11-17T16:59:42.910Z,,,,,,,,,,,NaN,,,,,,,,high,high,,,,,,false,,,,,false,994015.5,994015.2000000477,,994014.7000000477,,994021.911,4,500,,
break_continue,html.Screen,10_37_2,2023-11-17T16:59:42.910Z,,,,,,,,,,,NaN,,,,,,,,high,high,,,,,,false,,,,,false,994016.2999999523,994016,,994015.7999999523,,994021.911,4,500,,
sequence,flow.Sequence,10_37,2023-11-17T16:59:42.911Z,,,,,,,,,,,4586.33600000001,completion,,,,,,,high,high,,,,,,false,,,,,false,994016.5,994016,989412.978,989413.3999999762,989429.664,994021.911,4,500,,
trial,html.Screen,10_38_0,2023-11-17T16:59:46.396Z,,,,1,-0.0365981355399771,-0.0162670920008846,,0.04,true,ll,3479.78900004772,response,-0.9204445772182712,0.8507651053952413,-0.8825467578464924,-0.927445785309251,0.903265105395241,-0.892646909000671,low,low,,ISIC_0982855.JPG,9,ISIC_7839741.JPG,45,false,0.1,ll,keypress(f),0,false,997501.7999999523,997501.7000000477,994005.422,994016.6000000238,994021.911,997512.109,4,500,39,
break,html.Screen,10_38_1,2023-11-17T16:59:46.397Z,,,,,,,,,,,NaN,,,,,,,,low,low,,,,,,false,,,,,false,997502.5,997502.3999999762,,997502.1000000238,,997512.109,4,500,,
