sender,sender_type,sender_id,timestamp,meta,,age,blockNo,c1,c2,condition,control_tolerance,correct,correctResponse,duration,ended_on,f1,f1_high,f1_low,f2,f2_high,f2_low,feature_level1,feature_level2,gender,img_left,img_reveal,img_right,n_target_images,practice,range_tolerance,response,response_action,selection_duration,staircase,time_commit,time_end,time_render,time_run,time_show,time_switch,total_blocks,total_trials,trialNo,url
informed_consent,html.Screen,0,2023-11-17T20:31:55.913Z,"{""labjs_version"":""20.2.4"",""labjs_build"":{""flavor"":""development"",""commit"":""f5b4a49f956347addd546a832a3327688c2c0fef""},""location"":""https://labjs.felixhenninger.com/api/labjs_preview/index.html"",""userAgent"":""Mozilla/5.0 (Windows NT 10.0; Win64; x64) AppleWebKit/537.36 (KHTML, like Gecko) Chrome/119.0.0.0 Safari/537.36"",""platform"":""Win32"",""language"":""en-US"",""locale"":""en-US"",""timeZone"":""America/Chicago"",""timezoneOffset"":360,""screen_width"":1920,""screen_height"":1080,""scroll_width"":945,""scroll_height"":918,""window_innerWidth"":945,""window_innerHeight"":966,""devicePixelRatio"":1}",,,,,,,,,,40412.134999904636,response,,,,,,,,,,,,,,,,consent,click button,,,40840,40833.59999990463,404.77,420.5,421.465,40838.087,,,,{}
Demography form,html.Form,1,2023-11-17T20:32:01.640Z,,,19,,,,,,,,5728.712999952317,form submission,,,,,,,,,male,,,,,,,,,,,46567,46566.799999952316,40821.889,40840.09999990463,40838.087,46571.429,,,,
Welcome,html.Screen,2,2023-11-17T20:32:19.732Z,,,,,,,"[""bor"",""col""]",,,,18086.071000000004,response,,,,,,,,,,,,,,,,continue,click button,,,64658.199999928474,64657.5,46554.718,46567,46571.429,64671.844,,,,
demo_instructions,html.Screen,3,2023-11-17T20:32:45.532Z,,,,,,,,,,,25785.656000000003,response,,,,,,,,,,,,,,,,continue,click button,,,90458.29999995232,90457.5,64654.923,64658.299999952316,64671.844,90471.364,,,,
trial,html.Screen,4_0_0,2023-11-17T20:32:52.419Z,,,,0,0.9138670886161264,-0.8414121478342018,,,true,lh,6874.435999952315,response,-1.0329549150636406,1.2,-1.2,1.01584100839286,1.2,-1.2,low,high,,ISIC_6709052.JPG,,ISIC_0054670.JPG,26,true,0.4500000000000003,lh,keypress(e),100,false,97346,97345.79999995232,90454.915,90458.39999997616,90471.364,97371.536,1,16,1,
sequence,flow.Sequence,4_0,2023-11-17T20:32:52.420Z,,,,,,,,,,,6874.435999952315,completion,,,,,,,low,high,,,,,,true,,,,,false,97346.19999992847,97345.79999995232,90454.915,90458.39999997616,90471.364,97371.536,1,16,,
trial,html.Screen,4_1_0,2023-11-17T20:32:57.870Z,,,,0,0.9633172970727744,-0.8472659344792351,,,true,lh,5425.2639999523235,response,-1.058275612142778,1.2,-1.2,0.7824898568540655,1.2,-1.2,low,high,,ISIC_0067172.JPG,,ISIC_4906385.JPG,26,true,0.4500000000000003,lh,keypress(e),100,false,102797,102796.79999995232,97354.724,97346.29999995232,97371.536,102821.474,1,16,2,
sequence,flow.Sequence,4_1,2023-11-17T20:32:57.871Z,,,,,,,,,,,5425.2639999523235,completion,,,,,,,low,high,,,,,,true,,,,,false,102797.09999990463,102796.79999995232,97354.724,97346.29999995232,97371.536,102821.474,1,16,,
trial,html.Screen,4_2_0,2023-11-17T20:33:03.834Z,,,,0,0.90812608370647,-1.2720026872926935,,,true,lh,5939.225999928472,response,-0.8828738626295417,1.2,-1.2,0.8288177599439582,1.2,-1.2,low,high,,ISIC_0450295.JPG,,ISIC_0056041.JPG,26,true,0.4500000000000003,lh,keypress(e),100,false,108760.79999995232,108760.69999992847,102804.736,102797.09999990463,102821.474,108788.075,1,16,3,
sequence,flow.Sequence,4_2,2023-11-17T20:33:03.834Z,,,,,,,,,,,5939.225999928472,completion,,,,,,,low,high,,,,,,true,,,,,false,108761,108760.69999992847,102804.736,102797.09999990463,102821.474,108788.075,1,16,,
trial,html.Screen,4_3_0,2023-11-17T20:33:09.830Z,,,,0,1.045301444872812,-1.0872560254441277,,,true,lh,5968.425000000003,response,-1.0887164761389951,1.2,-1.2,1.5357518752548716,1.2,-1.2,low,high,,ISIC_4507700.JPG,,ISIC_0028127.JPG,26,true,0.4500000000000003,lh,keypress(e),100,false,114756.59999990463,114756.5,108771.406,108761,108788.075,114788.499,1,16,4,
sequence,flow.Sequence,4_3,2023-11-17T20:33:09.830Z,,,,,,,,,,,5968.425000000003,completion,,,,,,,low,high,,,,,,true,,,,,false,114756.59999990463,114756.5,108771.406,108761,108788.075,114788.499,1,16,,
trial,html.Screen,4_4_0,2023-11-17T20:33:14.507Z,,,,0,1.0773466327271526,1.1601445610079184,,,true,ll,4644.501000000004,response,-0.940974390526586,1.2,-1.2,-0.8027264864579817,1.2,-1.2,low,low,,ISIC_0055169.JPG,,ISIC_0032341.JPG,203,true,0.40000000000000024,ll,keypress(f),100,false,119433.09999990463,119433,114771.644,114756.69999992847,114788.499,119454.715,1,16,5,
sequence,flow.Sequence,4_4,2023-11-17T20:33:14.507Z,,,,,,,,,,,4644.501000000004,completion,,,,,,,low,low,,,,,,true,,,,,false,119433.29999995232,119433,114771.644,114756.69999992847,114788.499,119454.715,1,16,,
trial,html.Screen,4_5_0,2023-11-17T20:33:18.174Z,,,,0,1.1243896694621007,1.1772340944704969,,,true,ll,3645.884999904636,response,-1.077278111180185,1.2,-1.2,-1.1530533996184025,1.2,-1.2,low,low,,ISIC_0062765.JPG,,ISIC_9525136.JPG,25,true,0.14,ll,keypress(f),100,false,123100.59999990463,123100.59999990463,119438.135,119433.29999995232,119454.715,123121.429,1,16,6,
sequence,flow.Sequence,4_5,2023-11-17T20:33:18.174Z,,,,,,,,,,,3645.884999904636,completion,,,,,,,low,low,,,,,,true,,,,,false,123100.69999992847,123100.59999990463,119438.135,119433.29999995232,119454.715,123121.429,1,16,,
trial,html.Screen,4_6_0,2023-11-17T20:33:21.681Z,,,,0,1.0773466327271526,1.1601445610079184,,,true,ll,3485.670999904629,response,-1.1409143352872226,1.2,-1.2,-1.1323007949069106,1.2,-1.2,low,low,,ISIC_0055169.JPG,,ISIC_0030291.JPG,25,true,0.14,ll,keypress(f),100,false,126607.29999995232,126607.09999990463,123104.917,123100.79999995232,123121.429,126638.499,1,16,7,
sequence,flow.Sequence,4_6,2023-11-17T20:33:21.681Z,,,,,,,,,,,3485.670999904629,completion,,,,,,,low,low,,,,,,true,,,,,false,126607.5,126607.09999990463,123104.917,123100.79999995232,123121.429,126638.499,1,16,,
trial,html.Screen,4_7_0,2023-11-17T20:33:24.230Z,,,,0,1.14454137020797,1.1082302786512033,,,true,ll,2517.30099995232,response,-1.2219550761700546,1.2,-1.2,-1.2809901875733454,1.2,-1.2,low,low,,ISIC_0065128.JPG,,ISIC_6463417.JPG,25,true,0.14,ll,keypress(f),100,false,129155.89999997616,129155.79999995232,126621.461,126607.59999990463,126638.499,129188.496,1,16,8,
sequence,flow.Sequence,4_7,2023-11-17T20:33:24.230Z,,,,,,,,,,,2517.30099995232,completion,,,,,,,low,low,,,,,,true,,,,,false,129156,129155.79999995232,126621.461,126607.59999990463,126638.499,129188.496,1,16,,
trial,html.Screen,4_8_0,2023-11-17T20:33:27.914Z,,,,0,-0.8513427412482127,0.9295303568095064,,,true,hl,3651.303999952317,response,1.0153439398566937,1.2,-1.2,-0.93001438372942,1.2,-1.2,high,low,,ISIC_0034164.JPG,,ISIC_8211214.JPG,27,true,0.40000000000000024,hl,keypress(j),100,false,132840,132839.79999995232,129171.391,129156,129188.496,132871.373,1,16,9,
sequence,flow.Sequence,4_8,2023-11-17T20:33:27.914Z,,,,,,,,,,,3651.303999952317,completion,,,,,,,high,low,,,,,,true,,,,,false,132840.19999992847,132839.79999995232,129171.391,129156,129188.496,132871.373,1,16,,
trial,html.Screen,4_9_0,2023-11-17T20:33:31.897Z,,,,0,-1.058275612142778,0.7824898568540655,,,true,hl,3951.2269999046403,response,0.7714570894008278,1.2,-1.2,-0.9113656554657036,1.2,-1.2,high,low,,ISIC_4906385.JPG,,ISIC_4529092.JPG,40,true,0.4500000000000003,hl,keypress(j),100,false,136822.89999997616,136822.59999990463,132854.883,132840.19999992847,132871.373,136854.816,1,16,10,
sequence,flow.Sequence,4_9,2023-11-17T20:33:31.897Z,,,,,,,,,,,3951.2269999046403,completion,,,,,,,high,low,,,,,,true,,,,,false,136823,136822.59999990463,132854.883,132840.19999992847,132871.373,136854.816,1,16,,
trial,html.Screen,4_10_0,2023-11-17T20:33:34.599Z,,,,0,-0.8513427412482127,0.9295303568095064,,,true,hl,2670.4839999523247,response,0.8350129142228142,1.2,-1.2,-0.8172547818270586,1.2,-1.2,high,low,,ISIC_0034164.JPG,,ISIC_0301568.JPG,40,true,0.4500000000000003,hl,keypress(j),100,false,139525.5,139525.29999995232,136838.494,136823.09999990463,136854.816,139554.675,1,16,11,
sequence,flow.Sequence,4_10,2023-11-17T20:33:34.599Z,,,,,,,,,,,2670.4839999523247,completion,,,,,,,high,low,,,,,,true,,,,,false,139525.59999990463,139525.29999995232,136838.494,136823.09999990463,136854.816,139554.675,1,16,,
trial,html.Screen,4_11_0,2023-11-17T20:33:36.611Z,,,,0,-0.9754077946987664,1.1821868813141057,,,true,hl,1982.124999952328,response,0.8350129142228142,1.2,-1.2,-0.8172547818270586,1.2,-1.2,high,low,,ISIC_0024317.JPG,,ISIC_0301568.JPG,40,true,0.4500000000000003,hl,keypress(j),100,false,141537,141536.79999995232,139538.074,139525.59999990463,139554.675,141554.729,1,16,12,
sequence,flow.Sequence,4_11,2023-11-17T20:33:36.611Z,,,,,,,,,,,1982.124999952328,completion,,,,,,,high,low,,,,,,true,,,,,false,141537.09999990463,141536.79999995232,139538.074,139525.59999990463,139554.675,141554.729,1,16,,
trial,html.Screen,4_12_0,2023-11-17T20:33:40.455Z,,,,0,-1.252716660627398,-1.183977080937476,,,true,hh,3826.670999976166,response,0.9783041799594244,1.2,-1.2,0.7939492667783195,1.2,-1.2,high,high,,ISIC_0034194.JPG,,ISIC_0060446.JPG,359,true,0.4500000000000003,hh,keypress(i),100,false,145381.39999997616,145381.39999997616,141538.023,141537.19999992847,141554.729,145404.923,1,16,13,
sequence,flow.Sequence,4_12,2023-11-17T20:33:40.455Z,,,,,,,,,,,3826.670999976166,completion,,,,,,,high,high,,,,,,true,,,,,false,145381.59999990463,145381.39999997616,141538.023,141537.19999992847,141554.729,145404.923,1,16,,
trial,html.Screen,4_13_0,2023-11-17T20:33:43.067Z,,,,0,-1.2253191093367526,-1.241905252673026,,,true,hh,2587.676999904623,response,1.14454137020797,1.2,-1.2,1.1082302786512033,1.2,-1.2,high,high,,ISIC_1195689.JPG,,ISIC_0065128.JPG,40,true,0.14,hh,keypress(i),100,false,147992.69999992847,147992.59999990463,145388.485,145381.59999990463,145404.923,148021.581,1,16,14,
sequence,flow.Sequence,4_13,2023-11-17T20:33:43.067Z,,,,,,,,,,,2587.676999904623,completion,,,,,,,high,high,,,,,,true,,,,,false,147992.79999995232,147992.59999990463,145388.485,145381.59999990463,145404.923,148021.581,1,16,,
trial,html.Screen,4_14_0,2023-11-17T20:33:45.454Z,,,,0,-1.274752206258116,-1.2988509166163749,,,true,hh,2358.518999904627,response,1.1117876838408909,1.2,-1.2,1.2957497771092716,1.2,-1.2,high,high,,ISIC_6704623.JPG,,ISIC_0061915.JPG,40,true,0.14,hh,keypress(i),100,false,150380.19999992847,150380.09999990463,148004.872,147992.89999997616,148021.581,150404.847,1,16,15,
sequence,flow.Sequence,4_14,2023-11-17T20:33:45.454Z,,,,,,,,,,,2358.518999904627,completion,,,,,,,high,high,,,,,,true,,,,,false,150380.39999997616,150380.09999990463,148004.872,147992.89999997616,148021.581,150404.847,1,16,,
trial,html.Screen,4_15_0,2023-11-17T20:33:47.601Z,,,,0,-1.1989130276493527,-1.2666195460149832,,,true,hh,2122.2529999046237,response,1.1936751736668425,1.2,-1.2,1.2584308630745344,1.2,-1.2,high,high,,ISIC_0031705.JPG,,ISIC_0061265.JPG,40,true,0.14,hh,keypress(i),100,false,152527.19999992847,152527.09999990463,150388.146,150380.39999997616,150404.847,152554.945,1,16,16,
sequence,flow.Sequence,4_15,2023-11-17T20:33:47.601Z,,,,,,,,,,,2122.2529999046237,completion,,,,,,,high,high,,,,,,true,,,,,false,152527.29999995232,152527.09999990463,150388.146,150380.39999997616,150404.847,152554.945,1,16,,
demonstration_loop,flow.Loop,4,2023-11-17T20:33:47.601Z,,,,,,,,,,,62055.73599990463,completion,,,,,,,,,,,,,,true,,,,,false,152527.39999997616,152527.09999990463,90454.915,90458.39999997616,90471.364,152554.945,1,16,,
practice_instructions,html.Screen,5,2023-11-17T20:33:51.580Z,,,,,,,,,,,3950.6549999046256,response,,,,,,,,,,,,,,,,continue,click button,,,156506.59999990463,156505.59999990463,152538.488,152527.39999997616,152554.945,156538.479,,,,
trial,html.Screen,6_0_0,2023-11-17T20:33:57.957Z,,,,1,1.0116417541846066,-1.033442916947398,,,true,lh,6344.021000000008,response,-1.075512775389519,1.2,-1.2,1.0454702683049502,1.2,-1.2,low,high,,ISIC_0031389.JPG,,ISIC_0033603.JPG,26,true,0.4500000000000003,lh,keypress(e),0,false,162882.69999992847,162882.5,156521.371,156506.69999992847,156538.479,162887.984,1,40,1,
sequence,flow.Sequence,6_0,2023-11-17T20:33:57.957Z,,,,,,,,,,,6344.021000000008,completion,,,,,,,low,high,,,,,,true,,,,,false,162882.89999997616,162882.5,156521.371,156506.69999992847,156538.479,162887.984,1,40,,
trial,html.Screen,6_1_0,2023-11-17T20:34:03.941Z,,,,1,-1.2724293858920366,-1.149360738769835,,,true,hh,5979.016000000003,response,0.9506660770270554,1.2,-1.2,0.8543483016673109,1.2,-1.2,high,high,,ISIC_1264725.JPG,,ISIC_0053469.JPG,288,true,0.40000000000000024,hh,keypress(i),0,false,168867.09999990463,168867,162871.583,162882.89999997616,162887.984,168871.297,1,40,2,
sequence,flow.Sequence,6_1,2023-11-17T20:34:03.941Z,,,,,,,,,,,5979.016000000003,completion,,,,,,,high,high,,,,,,true,,,,,false,168867.19999992847,168867,162871.583,162882.89999997616,162887.984,168871.297,1,40,,
trial,html.Screen,6_2_0,2023-11-17T20:34:09.861Z,,,,1,-1.2578167348825195,0.8371819698254004,,,true,hl,5916.002999952325,response,0.9662688541319592,1.2,-1.2,-0.929746784178986,1.2,-1.2,high,low,,ISIC_9613570.JPG,,ISIC_0011077.JPG,27,true,0.40000000000000024,hl,keypress(j),0,false,174787.29999995232,174787.29999995232,168854.915,168867.19999992847,168871.297,174805.114,1,40,3,
sequence,flow.Sequence,6_2,2023-11-17T20:34:09.861Z,,,,,,,,,,,5916.002999952325,completion,,,,,,,high,low,,,,,,true,,,,,false,174787.5,174787.29999995232,168854.915,168867.19999992847,168871.297,174805.114,1,40,,
trial,html.Screen,6_3_0,2023-11-17T20:34:20.101Z,,,,1,-1.077278111180185,-1.1530533996184025,,,true,hh,10222.185999952315,response,0.7950276358398455,1.2,-1.2,1.087838988516297,1.2,-1.2,high,high,,ISIC_9525136.JPG,,ISIC_0032019.JPG,359,true,0.4500000000000003,hh,keypress(i),0,false,185027.29999995232,185027.29999995232,174771.583,174787.59999990463,174805.114,185038.012,1,40,4,
sequence,flow.Sequence,6_3,2023-11-17T20:34:20.101Z,,,,,,,,,,,10222.185999952315,completion,,,,,,,high,high,,,,,,true,,,,,false,185027.39999997616,185027.29999995232,174771.583,174787.59999990463,174805.114,185038.012,1,40,,
trial,html.Screen,6_4_0,2023-11-17T20:34:24.869Z,,,,1,0.9544693251394116,-1.0727539917203766,,,true,lh,4757.1879999284865,response,-0.7882758084023446,1.2,-1.2,0.8296405881378283,1.2,-1.2,low,high,,ISIC_0055147.JPG,,ISIC_0065882.JPG,26,true,0.4500000000000003,lh,keypress(e),0,false,189795.29999995232,189795.19999992847,185021.185,185027.5,185038.012,189804.644,1,40,5,
sequence,flow.Sequence,6_4,2023-11-17T20:34:24.869Z,,,,,,,,,,,4757.1879999284865,completion,,,,,,,low,high,,,,,,true,,,,,false,189795.39999997616,189795.19999992847,185021.185,185027.5,185038.012,189804.644,1,40,,
trial,html.Screen,6_5_0,2023-11-17T20:34:28.853Z,,,,1,1.0116417541846066,-1.033442916947398,,,true,lh,3974.4559999046323,response,-0.8110121381849364,1.2,-1.2,0.7563142141851558,1.2,-1.2,low,high,,ISIC_0031389.JPG,,ISIC_0033605.JPG,26,true,0.4500000000000003,lh,keypress(e),0,false,193779.19999992847,193779.09999990463,189788.276,189795.39999997616,189804.644,193787.97,1,40,6,
sequence,flow.Sequence,6_5,2023-11-17T20:34:28.853Z,,,,,,,,,,,3974.4559999046323,completion,,,,,,,low,high,,,,,,true,,,,,false,193779.39999997616,193779.09999990463,189788.276,189795.39999997616,189804.644,193787.97,1,40,,
trial,html.Screen,6_6_0,2023-11-17T20:34:34.517Z,,,,1,-1.199471562817528,0.8631260534979347,,,true,hl,5654.729999928473,response,1.0116417541846066,1.2,-1.2,-1.033442916947398,1.2,-1.2,high,low,,ISIC_0030754.JPG,,ISIC_0031389.JPG,27,true,0.40000000000000024,hl,keypress(j),0,false,199442.89999997616,199442.69999992847,193771.208,193779.39999997616,193787.97,199454.641,1,40,7,
sequence,flow.Sequence,6_6,2023-11-17T20:34:34.517Z,,,,,,,,,,,5654.729999928473,completion,,,,,,,high,low,,,,,,true,,,,,false,199442.89999997616,199442.69999992847,193771.208,193779.39999997616,193787.97,199454.641,1,40,,
trial,html.Screen,6_7_0,2023-11-17T20:34:40.628Z,,,,1,-0.7883321712536753,1.0011430756825364,,,true,hl,6099.858999999997,response,1.2020012168275056,1.2,-1.2,-0.923753102263735,1.2,-1.2,high,low,,ISIC_9828853.JPG,,ISIC_0000022.JPG,40,true,0.4500000000000003,hl,keypress(j),0,false,205554.59999990463,205554.5,199437.985,199443,199454.641,205571.332,1,40,8,
sequence,flow.Sequence,6_7,2023-11-17T20:34:40.628Z,,,,,,,,,,,6099.858999999997,completion,,,,,,,high,low,,,,,,true,,,,,false,205554.69999992847,205554.5,199437.985,199443,199454.641,205571.332,1,40,,
trial,html.Screen,6_8_0,2023-11-17T20:34:52.773Z,,,,1,0.9244148283103414,-0.9712966348713286,,,true,lh,12127.668000000005,response,-1.199471562817528,1.2,-1.2,0.8631260534979347,1.2,-1.2,low,high,,ISIC_7927525.JPG,,ISIC_0030754.JPG,26,true,0.4500000000000003,lh,keypress(e),0,false,217699.09999990463,217699,205554.91,205554.79999995232,205571.332,217704.625,1,40,9,
sequence,flow.Sequence,6_8,2023-11-17T20:34:52.773Z,,,,,,,,,,,12127.668000000005,completion,,,,,,,low,high,,,,,,true,,,,,false,217699.09999990463,217699,205554.91,205554.79999995232,205571.332,217704.625,1,40,,
trial,html.Screen,6_9_0,2023-11-17T20:34:55.957Z,,,,1,-1.0453124399868816,0.8986747280184286,,,true,hl,3178.274999976158,response,0.90812608370647,1.2,-1.2,-1.2720026872926935,1.2,-1.2,high,low,,ISIC_0013967.JPG,,ISIC_0450295.JPG,27,true,0.40000000000000024,hl,keypress(j),0,false,220883,220882.89999997616,217687.618,217699.19999992847,217704.625,220887.949,1,40,10,
sequence,flow.Sequence,6_9,2023-11-17T20:34:55.957Z,,,,,,,,,,,3178.274999976158,completion,,,,,,,high,low,,,,,,true,,,,,false,220883.09999990463,220882.89999997616,217687.618,217699.09999990463,217704.625,220887.949,1,40,,
trial,html.Screen,6_10_0,2023-11-17T20:34:57.349Z,,,,1,1.0788024398087033,-0.9911875460374616,,,true,lh,1387.1509999046393,response,-0.8830264383952469,1.2,-1.2,0.8635562538060516,1.2,-1.2,low,high,,ISIC_5951430.JPG,,ISIC_0032258.JPG,26,true,0.4500000000000003,lh,keypress(e),0,false,222275.19999992847,222275.09999990463,220871.672,220883.09999990463,220887.949,222288.43,1,40,11,
sequence,flow.Sequence,6_10,2023-11-17T20:34:57.349Z,,,,,,,,,,,1387.1509999046393,completion,,,,,,,low,high,,,,,,true,,,,,false,222275.29999995232,222275.09999990463,220871.672,220883.09999990463,220887.949,222288.43,1,40,,
trial,html.Screen,6_11_0,2023-11-17T20:34:58.404Z,,,,1,-1.1989130276493527,-1.2666195460149832,,,true,hh,1041.9699999761651,response,0.9766645409582418,1.2,-1.2,1.086167902767275,1.2,-1.2,high,high,,ISIC_0031705.JPG,,ISIC_0011526.JPG,288,true,0.40000000000000024,hh,keypress(i),0,false,223330.5,223330.39999997616,222271.751,222275.29999995232,222288.43,223355.093,1,40,12,
sequence,flow.Sequence,6_11,2023-11-17T20:34:58.404Z,,,,,,,,,,,1041.9699999761651,completion,,,,,,,high,high,,,,,,true,,,,,false,223330.59999990463,223330.39999997616,222271.751,222275.29999995232,222288.43,223355.093,1,40,,
trial,html.Screen,6_12_0,2023-11-17T20:35:00.276Z,,,,1,1.1117876838408909,1.2957497771092716,,,true,ll,1847.506999904639,response,-1.160746324899676,1.2,-1.2,-1.1927876559115576,1.2,-1.2,low,low,,ISIC_0061915.JPG,,ISIC_8651053.JPG,25,true,0.14,ll,keypress(f),0,false,225202.59999990463,225202.59999990463,223338.146,223330.69999992847,223355.093,225204.636,1,40,13,
sequence,flow.Sequence,6_12,2023-11-17T20:35:00.277Z,,,,,,,,,,,1847.506999904639,completion,,,,,,,low,low,,,,,,true,,,,,false,225202.79999995232,225202.59999990463,223338.146,223330.69999992847,223355.093,225204.636,1,40,,
trial,html.Screen,6_13_0,2023-11-17T20:35:02.229Z,,,,1,0.9244148283103414,-0.9712966348713286,,,true,lh,1950.463999904634,response,-1.058275612142778,1.2,-1.2,0.7824898568540655,1.2,-1.2,low,high,,ISIC_7927525.JPG,,ISIC_4906385.JPG,26,true,0.4500000000000003,lh,keypress(e),0,false,227155.09999990463,227155.09999990463,225188.026,225202.79999995232,225204.636,227171.765,1,40,14,
sequence,flow.Sequence,6_13,2023-11-17T20:35:02.229Z,,,,,,,,,,,1950.463999904634,completion,,,,,,,low,high,,,,,,true,,,,,false,227155.29999995232,227155.09999990463,225188.026,225202.79999995232,225204.636,227171.765,1,40,,
trial,html.Screen,6_14_0,2023-11-17T20:35:05.077Z,,,,1,1.1392972253022884,1.208510423375335,,,true,ll,2830.8349999046186,response,-1.274417010249866,1.2,-1.2,-1.0725495669014795,1.2,-1.2,low,low,,ISIC_0046526.JPG,,ISIC_8849004.JPG,203,true,0.40000000000000024,ll,keypress(f),0,false,230002.69999992847,230002.59999990463,227155.065,227155.29999995232,227171.765,230004.624,1,40,15,
sequence,flow.Sequence,6_14,2023-11-17T20:35:05.077Z,,,,,,,,,,,2830.8349999046186,completion,,,,,,,low,low,,,,,,true,,,,,false,230002.89999997616,230002.59999990463,227155.065,227155.29999995232,227171.765,230004.624,1,40,,
trial,html.Screen,6_15_0,2023-11-17T20:35:10.853Z,,,,1,1.0915173513546716,1.266840220031473,,,true,ll,5774.375999999989,response,-1.2946277435220357,1.2,-1.2,-1.255157480204324,1.2,-1.2,low,low,,ISIC_8241457.JPG,,ISIC_1870309.JPG,25,true,0.14,ll,keypress(f),0,false,235779.09999990463,235779,229988.139,230002.89999997616,230004.624,235787.957,1,40,16,
sequence,flow.Sequence,6_15,2023-11-17T20:35:10.853Z,,,,,,,,,,,5774.375999999989,completion,,,,,,,low,low,,,,,,true,,,,,false,235779.29999995232,235779,229988.139,230002.89999997616,230004.624,235787.957,1,40,,
trial,html.Screen,6_16_0,2023-11-17T20:35:15.237Z,,,,1,-0.9754077946987664,1.1821868813141057,,,true,hl,4374.942999976163,response,1.2594580992890123,1.2,-1.2,-0.8833175387485132,1.2,-1.2,high,low,,ISIC_0024317.JPG,,ISIC_0011933.JPG,27,true,0.40000000000000024,hl,keypress(j),0,false,240163,240162.89999997616,235771.622,235779.29999995232,235787.957,240171.476,1,40,17,
sequence,flow.Sequence,6_16,2023-11-17T20:35:15.237Z,,,,,,,,,,,4374.942999976163,completion,,,,,,,high,low,,,,,,true,,,,,false,240163,240162.89999997616,235771.622,235779.29999995232,235787.957,240171.476,1,40,,
trial,html.Screen,6_17_0,2023-11-17T20:35:18.101Z,,,,1,1.2033647433750492,1.0718012192341555,,,true,ll,2855.6239999046375,response,-0.8153135636447707,1.2,-1.2,-0.9269022323245946,1.2,-1.2,low,low,,ISIC_0061606.JPG,,ISIC_5239607.JPG,265,true,0.4500000000000003,ll,keypress(f),0,false,243027.19999992847,243027.09999990463,240154.97,240163.09999990463,240171.476,243037.974,1,40,18,
sequence,flow.Sequence,6_17,2023-11-17T20:35:18.101Z,,,,,,,,,,,2855.6239999046375,completion,,,,,,,low,low,,,,,,true,,,,,false,243027.29999995232,243027.09999990463,240154.97,240163.09999990463,240171.476,243037.974,1,40,,
trial,html.Screen,6_18_0,2023-11-17T20:35:22.805Z,,,,1,-0.7883321712536753,1.0011430756825364,,,true,hl,4693.225999928487,response,0.8443403196524287,1.2,-1.2,-0.8858525429102605,1.2,-1.2,high,low,,ISIC_9828853.JPG,,ISIC_8777813.JPG,27,true,0.40000000000000024,hl,keypress(j),0,false,247731.29999995232,247731.19999992847,243021.692,243027.29999995232,243037.974,247738.113,1,40,19,
sequence,flow.Sequence,6_18,2023-11-17T20:35:22.805Z,,,,,,,,,,,4693.225999928487,completion,,,,,,,high,low,,,,,,true,,,,,false,247731.39999997616,247731.19999992847,243021.692,243027.29999995232,243037.974,247738.113,1,40,,
trial,html.Screen,6_19_0,2023-11-17T20:35:28.709Z,,,,1,1.1117876838408909,1.2957497771092716,,,true,ll,5896.9869999046205,response,-0.785584495352475,1.2,-1.2,-1.042144559030568,1.2,-1.2,low,low,,ISIC_0061915.JPG,,ISIC_0004099.JPG,265,true,0.4500000000000003,ll,keypress(f),0,false,253635.09999990463,253635.09999990463,247721.609,247731.5,247738.113,253637.939,1,40,20,
sequence,flow.Sequence,6_19,2023-11-17T20:35:28.709Z,,,,,,,,,,,5896.9869999046205,completion,,,,,,,low,low,,,,,,true,,,,,false,253635.29999995232,253635.09999990463,247721.609,247731.5,247738.113,253637.939,1,40,,
trial,html.Screen,6_20_0,2023-11-17T20:35:32.613Z,,,,1,-1.0887164761389951,1.5357518752548716,,,true,hl,3900.8609999523032,response,0.9089402323867112,1.2,-1.2,-0.8034544077281132,1.2,-1.2,high,low,,ISIC_0028127.JPG,,ISIC_3585381.JPG,27,true,0.40000000000000024,hl,keypress(j),0,false,257538.89999997616,257538.79999995232,253621.553,253635.29999995232,253637.939,257554.723,1,40,21,
sequence,flow.Sequence,6_20,2023-11-17T20:35:32.613Z,,,,,,,,,,,3900.8609999523032,completion,,,,,,,high,low,,,,,,true,,,,,false,257539,257538.79999995232,253621.553,253635.29999995232,253637.939,257554.723,1,40,,
trial,html.Screen,6_21_0,2023-11-17T20:35:35.493Z,,,,1,1.2081146885025262,-1.195668832085049,,,true,lh,2864.17699997616,response,-0.8513427412482127,1.2,-1.2,0.9295303568095064,1.2,-1.2,low,high,,ISIC_7369690.JPG,,ISIC_0034164.JPG,26,true,0.4500000000000003,lh,keypress(e),0,false,260419,260418.89999997616,257537.857,257539,257554.723,260421.32,1,40,22,
sequence,flow.Sequence,6_21,2023-11-17T20:35:35.493Z,,,,,,,,,,,2864.17699997616,completion,,,,,,,low,high,,,,,,true,,,,,false,260419.19999992847,260418.89999997616,257537.857,257539,257554.723,260421.32,1,40,,
trial,html.Screen,6_22_0,2023-11-17T20:35:49.781Z,,,,1,-1.1870093485714288,-1.3339880978442629,,,true,hh,14285.679999999993,response,1.219634566983089,1.2,-1.2,1.0648460966097275,1.2,-1.2,high,high,,ISIC_8592235.JPG,,ISIC_0030552.JPG,288,true,0.40000000000000024,hh,keypress(i),0,false,274707,274707,260404.947,260419.19999992847,260421.32,274721.274,1,40,23,
sequence,flow.Sequence,6_22,2023-11-17T20:35:49.781Z,,,,,,,,,,,14285.679999999993,completion,,,,,,,high,high,,,,,,true,,,,,false,274707.1999999285,274707,260404.947,260419.19999992847,260421.32,274721.274,1,40,,
trial,html.Screen,6_23_0,2023-11-17T20:35:53.236Z,,,,1,-1.2804054832904397,-1.171271535505083,,,true,hh,3441.1259999761824,response,1.0605529903237636,1.2,-1.2,1.1183115777058938,1.2,-1.2,high,high,,ISIC_7889838.JPG,,ISIC_0011365.JPG,40,true,0.14,hh,keypress(i),0,false,278162.59999990463,278162.39999997616,274704.593,274707.2999999523,274721.274,278171.254,1,40,24,
sequence,flow.Sequence,6_23,2023-11-17T20:35:53.236Z,,,,,,,,,,,3441.1259999761824,completion,,,,,,,high,high,,,,,,true,,,,,false,278162.6999999285,278162.39999997616,274704.593,274707.1999999285,274721.274,278171.254,1,40,,
trial,html.Screen,6_24_0,2023-11-17T20:35:56.020Z,,,,1,0.8500530224490773,-1.0893360711742854,,,true,lh,2775.045999952301,response,-0.8110121381849364,1.2,-1.2,0.7563142141851558,1.2,-1.2,low,high,,ISIC_2998367.JPG,,ISIC_0033605.JPG,26,true,0.4500000000000003,lh,keypress(e),0,false,280946.39999997616,280946.2999999523,278154.737,278162.7999999523,278171.254,280954.596,1,40,25,
sequence,flow.Sequence,6_24,2023-11-17T20:35:56.020Z,,,,,,,,,,,2775.045999952301,completion,,,,,,,low,high,,,,,,true,,,,,false,280946.59999990463,280946.2999999523,278154.737,278162.6999999285,278171.254,280954.596,1,40,,
trial,html.Screen,6_25_0,2023-11-17T20:35:58.981Z,,,,1,-0.8830264383952469,0.8635562538060516,,,true,hl,2952.603999928455,response,0.8443403196524287,1.2,-1.2,-0.8858525429102605,1.2,-1.2,high,low,,ISIC_0032258.JPG,,ISIC_8777813.JPG,27,true,0.40000000000000024,hl,keypress(j),0,false,283907.2999999523,283907.1999999285,280938.026,280946.59999990463,280954.596,283921.5,1,40,26,
sequence,flow.Sequence,6_25,2023-11-17T20:35:58.981Z,,,,,,,,,,,2952.603999928455,completion,,,,,,,high,low,,,,,,true,,,,,false,283907.39999997616,283907.1999999285,280938.026,280946.59999990463,280954.596,283921.5,1,40,,
trial,html.Screen,6_26_0,2023-11-17T20:36:03.973Z,,,,1,-1.2946277435220357,-1.255157480204324,,,true,hh,4977.599999904633,response,1.3876053446140826,1.2,-1.2,1.003456017014458,1.2,-1.2,high,high,,ISIC_1870309.JPG,,ISIC_0031795.JPG,359,true,0.4500000000000003,hh,keypress(i),0,false,288899.09999990463,288899.09999990463,283904.953,283907.39999997616,283921.5,288904.66,1,40,27,
sequence,flow.Sequence,6_26,2023-11-17T20:36:03.973Z,,,,,,,,,,,4977.599999904633,completion,,,,,,,high,high,,,,,,true,,,,,false,288899.2999999523,288899.09999990463,283904.953,283907.39999997616,283921.5,288904.66,1,40,,
trial,html.Screen,6_27_0,2023-11-17T20:36:08.949Z,,,,1,0.8067116931297591,-1.215898074058027,,,true,lh,4970.340000000026,response,-0.989300717252516,1.2,-1.2,0.7908280206937478,1.2,-1.2,low,high,,ISIC_1457687.JPG,,ISIC_6416533.JPG,26,true,0.4500000000000003,lh,keypress(e),0,false,293875.09999990463,293875,288887.781,288899.2999999523,288904.66,293887.917,1,40,28,
sequence,flow.Sequence,6_27,2023-11-17T20:36:08.949Z,,,,,,,,,,,4970.340000000026,completion,,,,,,,low,high,,,,,,true,,,,,false,293875.2999999523,293875,288887.781,288899.2999999523,288904.66,293887.917,1,40,,
trial,html.Screen,6_28_0,2023-11-17T20:36:12.213Z,,,,1,0.8544507134472948,-0.9244388608707323,,,true,lh,3250.9829999761423,response,-0.8513427412482127,1.2,-1.2,0.9295303568095064,1.2,-1.2,low,high,,ISIC_3565564.JPG,,ISIC_0034164.JPG,26,true,0.4500000000000003,lh,keypress(e),0,false,297139.09999990463,297138.89999997616,293871.336,293875.2999999523,293887.917,297154.784,1,40,29,
sequence,flow.Sequence,6_28,2023-11-17T20:36:12.213Z,,,,,,,,,,,3250.9829999761423,completion,,,,,,,low,high,,,,,,true,,,,,false,297139.1999999285,297138.89999997616,293871.336,293875.2999999523,293887.917,297154.784,1,40,,
trial,html.Screen,6_29_0,2023-11-17T20:36:16.725Z,,,,1,1.2033647433750492,1.0718012192341555,,,true,ll,4496.015999952331,response,-1.2724293858920366,1.2,-1.2,-1.149360738769835,1.2,-1.2,low,low,,ISIC_0061606.JPG,,ISIC_1264725.JPG,203,true,0.40000000000000024,ll,keypress(f),0,false,301650.89999997616,301650.7999999523,297138.04,297139.2999999523,297154.784,301654.576,1,40,30,
sequence,flow.Sequence,6_29,2023-11-17T20:36:16.725Z,,,,,,,,,,,4496.015999952331,completion,,,,,,,low,low,,,,,,true,,,,,false,301651,301650.7999999523,297138.04,297139.1999999285,297154.784,301654.576,1,40,,
trial,html.Screen,6_30_0,2023-11-17T20:36:21.253Z,,,,1,1.266079261381142,1.312161506160336,,,true,ll,4524.323999976157,response,-1.160746324899676,1.2,-1.2,-1.1927876559115576,1.2,-1.2,low,low,,ISIC_0065449.JPG,,ISIC_8651053.JPG,25,true,0.14,ll,keypress(f),0,false,306179.09999990463,306178.89999997616,301638.25,301651.09999990463,301654.576,306187.908,1,40,31,
sequence,flow.Sequence,6_30,2023-11-17T20:36:21.253Z,,,,,,,,,,,4524.323999976157,completion,,,,,,,low,low,,,,,,true,,,,,false,306179.1999999285,306178.89999997616,301638.25,301651.09999990463,301654.576,306187.908,1,40,,
trial,html.Screen,6_31_0,2023-11-17T20:36:28.981Z,,,,1,-1.2578167348825195,0.8371819698254004,,,true,hl,7718.791999928479,response,1.0685314915436992,1.2,-1.2,-0.8203833713472237,1.2,-1.2,high,low,,ISIC_9613570.JPG,,ISIC_0029374.JPG,27,true,0.40000000000000024,hl,keypress(j),0,false,313906.7999999523,313906.6999999285,306171.516,306179.1999999285,306187.908,313921.236,1,40,32,
sequence,flow.Sequence,6_31,2023-11-17T20:36:28.981Z,,,,,,,,,,,7718.791999928479,completion,,,,,,,high,low,,,,,,true,,,,,false,313906.89999997616,313906.6999999285,306171.516,306179.1999999285,306187.908,313921.236,1,40,,
trial,html.Screen,6_32_0,2023-11-17T20:36:31.813Z,,,,1,-0.8513427412482127,0.9295303568095064,,,true,hl,2817.7640000000247,response,0.8544507134472948,1.2,-1.2,-0.9244388608707323,1.2,-1.2,high,low,,ISIC_0034164.JPG,,ISIC_3565564.JPG,40,true,0.4500000000000003,hl,keypress(j),0,false,316739.1999999285,316739,313904.727,313907,313921.236,316755.034,1,40,33,
sequence,flow.Sequence,6_32,2023-11-17T20:36:31.813Z,,,,,,,,,,,2817.7640000000247,completion,,,,,,,high,low,,,,,,true,,,,,false,316739.1999999285,316739,313904.727,313907,313921.236,316755.034,1,40,,
trial,html.Screen,6_33_0,2023-11-17T20:36:34.101Z,,,,1,-1.2600330864275875,-1.0958628838888655,,,true,hh,2271.865999976173,response,0.9740596249572724,1.2,-1.2,0.915332132320829,1.2,-1.2,high,high,,ISIC_0026996.JPG,,ISIC_9053910.JPG,359,true,0.4500000000000003,hh,keypress(i),0,false,319027,319026.89999997616,316737.883,316739.1999999285,316755.034,319037.955,1,40,34,
sequence,flow.Sequence,6_33,2023-11-17T20:36:34.101Z,,,,,,,,,,,2271.865999976173,completion,,,,,,,high,high,,,,,,true,,,,,false,319027.09999990463,319026.89999997616,316737.883,316739.1999999285,316755.034,319037.955,1,40,,
trial,html.Screen,6_34_0,2023-11-17T20:36:41.237Z,,,,1,-1.077278111180185,-1.1530533996184025,,,true,hh,7125.444999976142,response,1.219634566983089,1.2,-1.2,1.0648460966097275,1.2,-1.2,high,high,,ISIC_9525136.JPG,,ISIC_0030552.JPG,40,true,0.14,hh,keypress(i),0,false,326163.5,326163.39999997616,319021.38,319027.09999990463,319037.955,326171.347,1,40,35,
sequence,flow.Sequence,6_34,2023-11-17T20:36:41.237Z,,,,,,,,,,,7125.444999976142,completion,,,,,,,high,high,,,,,,true,,,,,false,326163.59999990463,326163.39999997616,319021.38,319027.09999990463,319037.955,326171.347,1,40,,
trial,html.Screen,6_35_0,2023-11-17T20:36:45.636Z,,,,1,-1.160746324899676,-1.1927876559115576,,,true,hh,4390.952999952307,response,1.1392972253022884,1.2,-1.2,1.208510423375335,1.2,-1.2,high,high,,ISIC_8651053.JPG,,ISIC_0046526.JPG,40,true,0.14,hh,keypress(i),0,false,330562.5,330562.2999999523,326154.386,326163.59999990463,326171.347,330571.419,1,40,36,
sequence,flow.Sequence,6_35,2023-11-17T20:36:45.636Z,,,,,,,,,,,4390.952999952307,completion,,,,,,,high,high,,,,,,true,,,,,false,330562.59999990463,330562.2999999523,326154.386,326163.59999990463,326171.347,330571.419,1,40,,
trial,html.Screen,6_36_0,2023-11-17T20:36:50.228Z,,,,1,-1.0659165756604234,-1.0867497316848906,,,true,hh,4582.78099992848,response,1.0769708994456726,1.2,-1.2,1.2196503533725178,1.2,-1.2,high,high,,ISIC_5807608.JPG,,ISIC_0063824.JPG,40,true,0.14,hh,keypress(i),0,false,335154.2999999523,335154.1999999285,330554.897,330562.59999990463,330571.419,335171.181,1,40,37,
sequence,flow.Sequence,6_36,2023-11-17T20:36:50.228Z,,,,,,,,,,,4582.78099992848,completion,,,,,,,high,high,,,,,,true,,,,,false,335154.39999997616,335154.1999999285,330554.897,330562.59999990463,330571.419,335171.181,1,40,,
trial,html.Screen,6_37_0,2023-11-17T20:36:56.452Z,,,,1,1.136677654701082,1.2647850993872314,,,false,ll,6207.118999952334,response,-1.109799097093339,1.2,-1.2,-1.091507924157762,1.2,-1.2,low,low,,ISIC_0015436.JPG,,ISIC_0765584.JPG,25,true,0.14,hl,keypress(j),0,false,341378.2999999523,341378.2999999523,335154.587,335154.5,335171.181,341387.906,1,40,38,
sequence,flow.Sequence,6_37,2023-11-17T20:36:56.452Z,,,,,,,,,,,6207.118999952334,completion,,,,,,,low,low,,,,,,true,,,,,false,341378.39999997616,341378.2999999523,335154.587,335154.5,335171.181,341387.906,1,40,,
trial,html.Screen,6_38_0,2023-11-17T20:37:03.396Z,,,,1,1.0849202097813322,1.0851127310415287,,,true,ll,6934.493999976141,response,-1.2246024683501224,1.2,-1.2,-1.2904526351590244,1.2,-1.2,low,low,,ISIC_0010289.JPG,,ISIC_4730066.JPG,25,true,0.14,ll,keypress(f),0,false,348322.5,348322.39999997616,341371.505,341378.39999997616,341387.906,348338.346,1,40,39,
sequence,flow.Sequence,6_38,2023-11-17T20:37:03.396Z,,,,,,,,,,,6934.493999976141,completion,,,,,,,low,low,,,,,,true,,,,,false,348322.59999990463,348322.39999997616,341371.505,341378.39999997616,341387.906,348338.346,1,40,,
trial,html.Screen,6_39_0,2023-11-17T20:37:07.396Z,,,,1,1.082709423673037,1.1184338818466155,,,true,ll,3983.9539999522967,response,-1.1870093485714288,1.2,-1.2,-1.3339880978442629,1.2,-1.2,low,low,,ISIC_0058666.JPG,,ISIC_8592235.JPG,25,true,0.14,ll,keypress(f),0,false,352322.39999997616,352322.2999999523,348321.03,348322.6999999285,348338.346,352338.348,1,40,40,
sequence,flow.Sequence,6_39,2023-11-17T20:37:07.396Z,,,,,,,,,,,3983.9539999522967,completion,,,,,,,low,low,,,,,,true,,,,,false,352322.59999990463,352322.2999999523,348321.03,348322.6999999285,348338.346,352338.348,1,40,,
practice_loop,flow.Loop,6,2023-11-17T20:37:07.396Z,,,,,,,,,,,195783.82099995232,completion,,,,,,,,,,,,,,true,,,,,false,352322.59999990463,352322.2999999523,156521.371,156506.69999992847,156538.479,352338.348,1,40,,
stair_instructions,html.Screen,7,2023-11-17T20:37:10.739Z,,,,,,,,,,,3326.55199997616,response,,,,,,,,,,,,,,,,continue,click button,,,355665.5,355664.89999997616,352321.149,352322.59999990463,352338.348,355671.212,,,,
trial,html.Screen,8_0_0,2023-11-17T20:37:14.917Z,,,,2,-0.0286056110007553,-0.036125199756515,,0.04,false,hl,4171.387999904633,response,0.9244148283103414,1.2,-1.2,-0.9712966348713286,1.2,-1.2,high,low,,ISIC_6535558.JPG,,ISIC_7927525.JPG,27,false,0.40000000000000024,ll,keypress(f),0,true,359842.7999999523,359842.59999990463,355655,355665.6999999285,355671.212,359854.721,1,40,1,
sequence,flow.Sequence,8_0,2023-11-17T20:37:14.917Z,,,,,,,,,,,4171.387999904633,completion,,,,,,,high,low,,,,,,false,,,,,true,359842.89999997616,359842.59999990463,355655,355665.6999999285,355671.212,359854.721,1,40,,
trial,html.Screen,8_1_0,2023-11-17T20:37:19.076Z,,,,2,-0.0200295718112167,-0.0155559071275806,,0.04,true,hl,4147.578999952297,response,1.0685314915436992,1.2,-1.15,-0.8203833713472237,1.15,-1.15,high,low,,ISIC_0061343.JPG,,ISIC_0029374.JPG,26,false,0.3700000000000002,hl,keypress(j),0,true,364002.2999999523,364002.2999999523,359837.922,359842.89999997616,359854.721,364004.53,1,40,2,
sequence,flow.Sequence,8_1,2023-11-17T20:37:19.076Z,,,,,,,,,,,4147.578999952297,completion,,,,,,,high,low,,,,,,false,,,,,true,364002.5,364002.2999999523,359837.922,359842.89999997616,359854.721,364004.53,1,40,,
trial,html.Screen,8_2_0,2023-11-17T20:37:23.413Z,,,,2,0.0241900387072296,-0.0339955304424736,,0.04,false,ll,4334.469999999972,response,-1.1409143352872226,1.15,-1.15,-1.1323007949069106,1.15,-1.0999999999999999,low,low,,ISIC_0010789.JPG,,ISIC_0030291.JPG,27,false,0.13,hl,keypress(j),0,true,368339,368339,363987.77,364002.5,364004.53,368355.009,1,40,3,
sequence,flow.Sequence,8_2,2023-11-17T20:37:23.413Z,,,,,,,,,,,4334.469999999972,completion,,,,,,,low,low,,,,,,false,,,,,true,368339.1999999285,368339,363987.77,364002.5,364004.53,368355.009,1,40,,
trial,html.Screen,8_3_0,2023-11-17T20:37:26.645Z,,,,2,0.0074667911845194,-0.018500200317654,,0.04,true,hh,3215.99099999998,response,1.082709423673037,1.15,-1.15,1.1184338818466155,1.15,-1.0999999999999999,high,high,,ISIC_0058723.JPG,,ISIC_0058666.JPG,27,false,0.1,hh,keypress(i),0,true,371571.09999990463,371571,368338.186,368339.1999999285,368355.009,371588,1,40,4,
sequence,flow.Sequence,8_3,2023-11-17T20:37:26.645Z,,,,,,,,,,,3215.99099999998,completion,,,,,,,high,high,,,,,,false,,,,,true,371571.2999999523,371571,368338.186,368339.1999999285,368355.009,371588,1,40,,
trial,html.Screen,8_4_0,2023-11-17T20:37:30.405Z,,,,2,-0.0258224118104549,0.0029364553353019,,0.04,false,ll,3743.2999999523163,response,-1.252716660627398,1.0505716527598261,-1.15,-1.183977080937476,1.15,-1.0999999999999999,low,low,,ISIC_8325226.JPG,,ISIC_0034194.JPG,27,false,0.13,lh,keypress(e),0,true,375331.2999999523,375331.2999999523,371571.306,371571.2999999523,371588,375337.875,1,40,5,
sequence,flow.Sequence,8_4,2023-11-17T20:37:30.405Z,,,,,,,,,,,3743.2999999523163,completion,,,,,,,low,low,,,,,,false,,,,,true,375331.5,375331.2999999523,371571.306,371571.2999999523,371588,375337.875,1,40,,
trial,html.Screen,8_5_0,2023-11-17T20:37:33.701Z,,,,2,0.0198696495649504,-0.0387952353063878,,0.04,false,lh,3289.024999976158,response,-0.7991459998473059,1.0505716527598261,-1.15,1.0280788723474688,1.15,-1.15,low,high,,ISIC_6735970.JPG,,ISIC_7951202.JPG,26,false,0.40000000000000024,hh,keypress(i),0,true,378627,378626.89999997616,375321.273,375331.5,375337.875,378638.045,1,40,6,
sequence,flow.Sequence,8_5,2023-11-17T20:37:33.701Z,,,,,,,,,,,3289.024999976158,completion,,,,,,,low,high,,,,,,false,,,,,true,378627,378626.89999997616,375321.273,375331.5,375337.875,378638.045,1,40,,
trial,html.Screen,8_6_0,2023-11-17T20:37:36.948Z,,,,2,0.0374659946425444,0.0086043094957617,,0.04,true,hl,3236.2549999523326,response,0.9617893983965208,1.0505716527598261,-1.15,-0.9453006131304652,1.0999999999999999,-1.15,high,low,,ISIC_0033051.JPG,,ISIC_4229473.JPG,26,false,0.31000000000000016,hl,keypress(j),0,true,381874.5,381874.2999999523,378621.586,378627,378638.045,381887.927,1,40,7,
sequence,flow.Sequence,8_6,2023-11-17T20:37:36.949Z,,,,,,,,,,,3236.2549999523326,completion,,,,,,,high,low,,,,,,false,,,,,true,381874.59999990463,381874.2999999523,378621.586,378627,378638.045,381887.927,1,40,,
trial,html.Screen,8_7_0,2023-11-17T20:37:42.485Z,,,,2,-0.0118382036798625,-0.0300588245877227,,0.04,false,hl,5523.372999952291,response,0.9662688541319592,1.0505716527598261,-1.15,-0.929746784178986,1.0999999999999999,-1.15,high,low,,ISIC_4748605.JPG,,ISIC_0011077.JPG,26,false,0.31000000000000016,hh,keypress(i),0,true,387411.39999997616,387411.2999999523,381871.573,381874.6999999285,381887.927,387421.312,1,40,8,
sequence,flow.Sequence,8_7,2023-11-17T20:37:42.485Z,,,,,,,,,,,5523.372999952291,completion,,,,,,,high,low,,,,,,false,,,,,true,387411.5,387411.2999999523,381871.573,381874.6999999285,381887.927,387421.312,1,40,,
trial,html.Screen,8_8_0,2023-11-17T20:37:45.988Z,,,,2,0.0198696495649504,-0.0387952353063878,,0.04,true,hh,3493.087999976182,response,1.082709423673037,1.000571652759826,-1.15,1.1184338818466155,1.0999999999999999,-1.15,high,high,,ISIC_6735970.JPG,,ISIC_0058666.JPG,46,false,0.1,hh,keypress(i),0,true,390914.39999997616,390914.39999997616,387404.405,387411.5,387421.312,390921.182,1,40,9,
sequence,flow.Sequence,8_8,2023-11-17T20:37:45.988Z,,,,,,,,,,,3493.087999976182,completion,,,,,,,high,high,,,,,,false,,,,,true,390914.5,390914.39999997616,387404.405,387411.5,387421.312,390921.182,1,40,,
trial,html.Screen,8_9_0,2023-11-17T20:37:50.629Z,,,,2,0.0374659946425444,0.0086043094957617,,0.04,true,hl,4633.617999952345,response,0.8544507134472948,1.000571652759826,-1.15,-0.9244388608707323,1.0999999999999999,-1.15,high,low,,ISIC_0033051.JPG,,ISIC_3565564.JPG,27,false,0.30000000000000016,hl,keypress(j),0,true,395554.89999997616,395554.7999999523,390904.414,390914.59999990463,390921.182,395571.34,1,40,10,
sequence,flow.Sequence,8_9,2023-11-17T20:37:50.629Z,,,,,,,,,,,4633.617999952345,completion,,,,,,,high,low,,,,,,false,,,,,true,395555.09999990463,395554.7999999523,390904.414,390914.59999990463,390921.182,395571.34,1,40,,
trial,html.Screen,8_10_0,2023-11-17T20:37:56.549Z,,,,2,0.0388181790775959,-0.0049623405709465,,0.04,false,hl,5903.859999928449,response,0.6709937791656728,0.950571652759826,-1.15,-1.0908783428179298,1.0999999999999999,-1.15,high,low,,ISIC_0061880.JPG,,ISIC_0028903.JPG,28,false,0.28000000000000014,lh,keypress(e),0,true,401475.39999997616,401475.1999999285,395554.845,395555.09999990463,395571.34,401488.318,1,40,11,
sequence,flow.Sequence,8_10,2023-11-17T20:37:56.549Z,,,,,,,,,,,5903.859999928449,completion,,,,,,,high,low,,,,,,false,,,,,true,401475.39999997616,401475.1999999285,395554.845,395555.09999990463,395571.34,401488.318,1,40,,
trial,html.Screen,8_11_0,2023-11-17T20:37:59.893Z,,,,2,0.0074667911845194,-0.018500200317654,,0.04,true,hh,3330.5819999761297,response,0.9985175466432205,1.000571652759826,-1.15,1.1132725606321277,1.0999999999999999,-1.15,high,high,,ISIC_0058723.JPG,,ISIC_0034002.JPG,46,false,0.1,hh,keypress(i),0,true,404819.09999990463,404818.89999997616,401471.463,401475.5,401488.318,404821.169,1,40,12,
sequence,flow.Sequence,8_11,2023-11-17T20:37:59.893Z,,,,,,,,,,,3330.5819999761297,completion,,,,,,,high,high,,,,,,false,,,,,true,404819.09999990463,404818.89999997616,401471.463,401475.39999997616,401488.318,404821.169,1,40,,
trial,html.Screen,8_12_0,2023-11-17T20:38:03.525Z,,,,2,-0.0220026381002083,0.0170756452911772,,0.04,false,lh,3629.8310000000056,response,-1.075512775389519,1.000571652759826,-1.15,1.0454702683049502,1.005895053637674,-1.15,low,high,,ISIC_5347806.JPG,,ISIC_0033603.JPG,27,false,0.31000000000000016,hh,keypress(i),0,true,408451.09999990463,408451,404804.448,404819.2999999523,404821.169,408454.482,1,40,13,
sequence,flow.Sequence,8_12,2023-11-17T20:38:03.525Z,,,,,,,,,,,3629.8310000000056,completion,,,,,,,low,high,,,,,,false,,,,,true,408451.09999990463,408451,404804.448,404819.2999999523,404821.169,408454.482,1,40,,
trial,html.Screen,8_13_0,2023-11-17T20:38:11.141Z,,,,2,0.0199950873045219,0.0172506388509166,,0.04,false,hh,7612.517999999982,response,1.0470212693307346,1.000571652759826,-1.15,1.097091139433204,1.005895053637674,-1.15,high,high,,ISIC_0029906.JPG,,ISIC_0068234.JPG,38,false,0.1,hl,keypress(j),0,true,416067.09999990463,416067,408437.858,408451.1999999285,408454.482,416071.164,1,40,14,
sequence,flow.Sequence,8_13,2023-11-17T20:38:11.141Z,,,,,,,,,,,7612.517999999982,completion,,,,,,,high,high,,,,,,false,,,,,true,416067.1999999285,416067,408437.858,408451.1999999285,408454.482,416071.164,1,40,,
trial,html.Screen,8_14_0,2023-11-17T20:38:15.269Z,,,,2,-0.0367744112927588,-0.0324865661712824,,0.04,false,ll,4123.83600000001,response,-1.2219550761700546,0.9962457688178423,-1.15,-1.2809901875733454,1.055895053637674,-1.15,low,low,,ISIC_4523565.JPG,,ISIC_6463417.JPG,27,false,0.14,hl,keypress(j),0,true,420195,420195,416054.733,416067.2999999523,416071.164,420204.551,1,40,15,
sequence,flow.Sequence,8_14,2023-11-17T20:38:15.269Z,,,,,,,,,,,4123.83600000001,completion,,,,,,,low,low,,,,,,false,,,,,true,420195.1999999285,420195,416054.733,416067.2999999523,416071.164,420204.551,1,40,,
trial,html.Screen,8_15_0,2023-11-17T20:38:23.797Z,,,,2,-0.0308384937406319,0.0038396364323947,,0.04,false,hl,8517.949000000022,response,1.0153439398566937,0.9962457688178423,-1.15,-0.93001438372942,1.055895053637674,-1.15,high,low,,ISIC_0029825.JPG,,ISIC_8211214.JPG,25,false,0.29000000000000015,hh,keypress(i),0,true,428722.59999990463,428722.5,420187.954,420195.1999999285,420204.551,428738.037,1,40,16,
sequence,flow.Sequence,8_15,2023-11-17T20:38:23.797Z,,,,,,,,,,,8517.949000000022,completion,,,,,,,high,low,,,,,,false,,,,,true,428722.6999999285,428722.5,420187.954,420195.1999999285,420204.551,428738.037,1,40,,
trial,html.Screen,8_16_0,2023-11-17T20:38:27.205Z,,,,2,0.0164027439304477,-0.0082910758715273,,0.04,true,lh,3392.362999976147,response,-0.8830264383952469,0.9962457688178423,-1.15,0.8635562538060516,1.055895053637674,-1.15,low,high,,ISIC_7381224.JPG,,ISIC_0032258.JPG,28,false,0.3500000000000002,lh,keypress(e),0,true,432130.59999990463,432130.39999997616,428721.348,428722.7999999523,428738.037,432137.809,1,40,17,
sequence,flow.Sequence,8_16,2023-11-17T20:38:27.205Z,,,,,,,,,,,3392.362999976147,completion,,,,,,,low,high,,,,,,false,,,,,true,432130.6999999285,432130.39999997616,428721.348,428722.6999999285,428738.037,432137.809,1,40,,
trial,html.Screen,8_17_0,2023-11-17T20:38:29.573Z,,,,2,-0.0258224118104549,0.0029364553353019,,0.04,true,lh,2361.290999904624,response,-0.8830264383952469,0.9962457688178423,-1.15,0.8635562538060516,1.055895053637674,-1.15,low,high,,ISIC_8325226.JPG,,ISIC_0032258.JPG,28,false,0.3500000000000002,lh,keypress(e),0,true,434499.2999999523,434499.09999990463,432121.269,432130.6999999285,432137.809,434504.488,1,40,18,
sequence,flow.Sequence,8_17,2023-11-17T20:38:29.573Z,,,,,,,,,,,2361.290999904624,completion,,,,,,,low,high,,,,,,false,,,,,true,434499.2999999523,434499.09999990463,432121.269,432130.6999999285,432137.809,434504.488,1,40,,
trial,html.Screen,8_18_0,2023-11-17T20:38:41.557Z,,,,2,-0.0009714874637896,0.0174815595031679,,0.04,false,lh,11978.011999999988,response,-0.8828738626295417,0.9962457688178423,-1.0999999999999999,0.8288177599439582,0.8135562538060516,-1.15,low,high,,ISIC_9848743.JPG,,ISIC_0056041.JPG,26,false,0.22000000000000008,hl,keypress(j),0,true,446482.59999990463,446482.5,434488.229,434499.39999997616,434504.488,446487.831,1,40,19,
sequence,flow.Sequence,8_18,2023-11-17T20:38:41.557Z,,,,,,,,,,,11978.011999999988,completion,,,,,,,low,high,,,,,,false,,,,,true,446482.7999999523,446482.5,434488.229,434499.39999997616,434504.488,446487.831,1,40,,
trial,html.Screen,8_19_0,2023-11-17T20:38:46.596Z,,,,2,0.0074667911845194,-0.018500200317654,,0.04,false,ll,5034.368999928469,response,-1.2724293858920366,0.9962457688178423,-1.15,-1.149360738769835,0.8635562538060516,-1.15,low,low,,ISIC_0058723.JPG,,ISIC_1264725.JPG,27,false,0.14,hh,keypress(i),0,true,451522.2999999523,451522.1999999285,446471.203,446482.7999999523,446487.831,451538.283,1,40,20,
sequence,flow.Sequence,8_19,2023-11-17T20:38:46.596Z,,,,,,,,,,,5034.368999928469,completion,,,,,,,low,low,,,,,,false,,,,,true,451522.39999997616,451522.1999999285,446471.203,446482.7999999523,446487.831,451538.283,1,40,,
trial,html.Screen,8_20_0,2023-11-17T20:38:50.517Z,,,,2,-0.0367744112927588,-0.0324865661712824,,0.04,true,lh,3904.717000000004,response,-1.058275612142778,0.9962457688178423,-1.15,0.7824898568540655,0.8635562538060516,-1.15,low,high,,ISIC_4523565.JPG,,ISIC_4906385.JPG,27,false,0.27000000000000013,lh,keypress(e),0,true,455443,455443,451521.14,451522.5,451538.283,455454.659,1,40,21,
sequence,flow.Sequence,8_20,2023-11-17T20:38:50.517Z,,,,,,,,,,,3904.717000000004,completion,,,,,,,low,high,,,,,,false,,,,,true,455443.1999999285,455443,451521.14,451522.5,451538.283,455454.659,1,40,,
trial,html.Screen,8_21_0,2023-11-17T20:38:55.957Z,,,,2,-0.0257631352671967,-0.0202837002774028,,0.04,true,lh,5428.240999976173,response,-0.989300717252516,0.9962457688178423,-1.15,0.7908280206937478,0.8635562538060516,-1.15,low,high,,ISIC_0032797.JPG,,ISIC_6416533.JPG,27,false,0.27000000000000013,lh,keypress(e),0,true,460882.89999997616,460882.89999997616,455438.189,455443.1999999285,455454.659,460887.801,1,40,22,
sequence,flow.Sequence,8_21,2023-11-17T20:38:55.957Z,,,,,,,,,,,5428.240999976173,completion,,,,,,,low,high,,,,,,false,,,,,true,460883,460882.89999997616,455438.189,455443.1999999285,455454.659,460887.801,1,40,,
trial,html.Screen,8_22_0,2023-11-17T20:39:00.613Z,,,,2,-0.0367744112927588,-0.0324865661712824,,0.04,true,hh,4650.998999952339,response,1.0638242779565084,0.9962457688178423,-1.0999999999999999,0.8353119112834058,0.7366589387739066,-1.15,high,high,,ISIC_4523565.JPG,,ISIC_2071966.JPG,44,false,0.1,hh,keypress(i),0,true,465538.89999997616,465538.7999999523,460871.482,460883.09999990463,460887.801,465554.704,1,40,23,
sequence,flow.Sequence,8_22,2023-11-17T20:39:00.613Z,,,,,,,,,,,4650.998999952339,completion,,,,,,,high,high,,,,,,false,,,,,true,465539,465538.7999999523,460871.482,460883.09999990463,460887.801,465554.704,1,40,,
trial,html.Screen,8_23_0,2023-11-17T20:39:03.653Z,,,,2,,0.0102871556606504,,0.04,false,hl,3023.8959999046056,response,0.9544693251394116,0.899568094619957,-1.0999999999999999,-1.0727539917203766,0.7366589387739066,-1.15,high,low,,ISIC_1805163.JPG,,ISIC_0055147.JPG,31,false,0.2500000000000001,lh,keypress(e),0,true,468578.6999999285,468578.59999990463,465537.707,465539.09999990463,465554.704,468587.832,1,40,24,
sequence,flow.Sequence,8_23,2023-11-17T20:39:03.653Z,,,,,,,,,,,3023.8959999046056,completion,,,,,,,high,low,,,,,,false,,,,,true,468578.7999999523,468578.59999990463,465537.707,465539,465554.704,468587.832,1,40,,
trial,html.Screen,8_24_0,2023-11-17T20:39:14.853Z,,,,2,0.0164027439304477,-0.0082910758715273,,0.04,false,hl,11191.267999904638,response,1.045301444872812,0.9495680946199571,-1.0999999999999999,-1.0872560254441277,0.7366589387739066,-1.15,high,low,,ISIC_7381224.JPG,,ISIC_4507700.JPG,28,false,0.28000000000000014,hh,keypress(i),0,true,479779.09999990463,479779.09999990463,468571.285,468578.7999999523,468587.832,479787.907,1,40,25,
sequence,flow.Sequence,8_24,2023-11-17T20:39:14.853Z,,,,,,,,,,,11191.267999904638,completion,,,,,,,high,low,,,,,,false,,,,,true,479779.2999999523,479779.09999990463,468571.285,468578.7999999523,468587.832,479787.907,1,40,,
trial,html.Screen,8_25_0,2023-11-17T20:39:17.765Z,,,,2,-0.0257631352671967,-0.0202837002774028,,0.04,true,hh,2902.692999904626,response,0.9486555750998196,0.9495680946199571,-1.0999999999999999,0.7476193313791517,0.7366589387739066,-1.15,high,high,,ISIC_0032797.JPG,,ISIC_0029744.JPG,45,false,0.1,hh,keypress(i),0,true,482690.6999999285,482690.59999990463,479770.938,479779.2999999523,479787.907,482704.932,1,40,26,
sequence,flow.Sequence,8_25,2023-11-17T20:39:17.765Z,,,,,,,,,,,2902.692999904626,completion,,,,,,,high,high,,,,,,false,,,,,true,482690.6999999285,482690.59999990463,479770.938,479779.2999999523,479787.907,482704.932,1,40,,
trial,html.Screen,8_26_0,2023-11-17T20:39:22.213Z,,,,2,-0.0220026381002083,0.0170756452911772,,0.04,false,hh,4433.967999976187,response,0.8303988931124209,0.8464603881259818,-1.0999999999999999,0.7584196520116688,0.8464603881259818,-1.15,high,high,,ISIC_5347806.JPG,,ISIC_0011484.JPG,55,false,0.1,hl,keypress(j),0,true,487139,487138.89999997616,482687.793,482690.7999999523,482704.932,487154.932,1,40,27,
sequence,flow.Sequence,8_26,2023-11-17T20:39:22.213Z,,,,,,,,,,,4433.967999976187,completion,,,,,,,high,high,,,,,,false,,,,,true,487139.09999990463,487138.89999997616,482687.793,482690.7999999523,482704.932,487154.932,1,40,,
trial,html.Screen,8_27_0,2023-11-17T20:39:25.477Z,,,,2,-0.0258224118104549,0.0029364553353019,,0.04,true,hh,3247.4679999761865,response,0.9340146106918494,0.8464603881259818,-1.0999999999999999,0.8683758859171238,0.8964603881259818,-1.15,high,high,,ISIC_8325226.JPG,,ISIC_0065204.JPG,48,false,0.1,hh,keypress(i),0,true,490402.5,490402.39999997616,487138.137,487139.09999990463,487154.932,490404.449,1,40,28,
sequence,flow.Sequence,8_27,2023-11-17T20:39:25.477Z,,,,,,,,,,,3247.4679999761865,completion,,,,,,,high,high,,,,,,false,,,,,true,490402.59999990463,490402.39999997616,487138.137,487139.09999990463,487154.932,490404.449,1,40,,
trial,html.Screen,8_28_0,2023-11-17T20:39:30.981Z,,,,2,-0.0367744112927588,-0.0324865661712824,,0.04,true,ll,5502.250999928452,response,-1.160746324899676,0.8511952483044866,-1.0999999999999999,-1.1927876559115576,0.8964603881259818,-1.15,low,low,,ISIC_4523565.JPG,,ISIC_8651053.JPG,27,false,0.14,ll,keypress(f),0,true,495906.7999999523,495906.6999999285,490387.76,490402.6999999285,490404.449,495921.32,1,40,29,
sequence,flow.Sequence,8_28,2023-11-17T20:39:30.981Z,,,,,,,,,,,5502.250999928452,completion,,,,,,,low,low,,,,,,false,,,,,true,495906.89999997616,495906.6999999285,490387.76,490402.6999999285,490404.449,495921.32,1,40,,
trial,html.Screen,8_29_0,2023-11-17T20:39:34.165Z,,,,2,-0.0076984477620101,-0.0069458408496562,,0.04,true,ll,3169.579999976151,response,-1.1018283884093611,0.8511952483044866,-1.0999999999999999,-1.053767307212406,0.8964603881259818,-1.15,low,low,,ISIC_0000434.JPG,,ISIC_6785249.JPG,27,false,0.14,ll,keypress(f),0,true,499090.89999997616,499090.89999997616,495904.474,495906.89999997616,495921.32,499104.671,1,40,30,
sequence,flow.Sequence,8_29,2023-11-17T20:39:34.165Z,,,,,,,,,,,3169.579999976151,completion,,,,,,,low,low,,,,,,false,,,,,true,499091,499090.89999997616,495904.474,495906.89999997616,495921.32,499104.671,1,40,,
trial,html.Screen,8_30_0,2023-11-17T20:39:41.845Z,,,,2,-0.0283578106329894,0.0088840758711548,,0.04,false,ll,7666.329000000027,response,-0.9786113496628154,0.8511952483044866,-1.0732774815619817,-1.040122402473425,0.8964603881259818,-1.0732774815619817,low,low,,ISIC_0060707.JPG,,ISIC_8195528.JPG,25,false,0.1,hl,keypress(j),0,true,506771.09999990463,506771,499088.188,499091.09999990463,499104.671,506787.959,1,40,31,
sequence,flow.Sequence,8_30,2023-11-17T20:39:41.845Z,,,,,,,,,,,7666.329000000027,completion,,,,,,,low,low,,,,,,false,,,,,true,506771.2999999523,506771,499088.188,499091.09999990463,499104.671,506787.959,1,40,,
trial,html.Screen,8_31_0,2023-11-17T20:39:46.533Z,,,,2,-0.0119001144851157,0.0063430114540141,,0.04,true,hh,4670.940999976185,response,0.9159664042920548,0.8511952483044866,-1.1232774815619817,0.96519839238634,0.8964603881259818,-1.0732774815619817,high,high,,ISIC_0003822.JPG,,ISIC_0053617.JPG,47,false,0.1,hh,keypress(i),0,true,511459,511458.89999997616,506771.328,506771.2999999523,506787.959,511471.269,1,40,32,
sequence,flow.Sequence,8_31,2023-11-17T20:39:46.533Z,,,,,,,,,,,4670.940999976185,completion,,,,,,,high,high,,,,,,false,,,,,true,511459.09999990463,511458.89999997616,506771.328,506771.2999999523,506787.959,511471.269,1,40,,
trial,html.Screen,8_32_0,2023-11-17T20:39:52.629Z,,,,2,0.0198696495649504,-0.0387952353063878,,0.04,false,lh,6083.731000000029,response,-1.0453124399868816,0.8511952483044866,-1.1232774815619817,0.8986747280184286,0.8905823983391974,-1.0732774815619817,low,high,,ISIC_6735970.JPG,,ISIC_0013967.JPG,25,false,0.2500000000000001,ll,keypress(f),0,true,517555.1999999285,517555,511454.849,511459.1999999285,511471.269,517571.278,1,40,33,
sequence,flow.Sequence,8_32,2023-11-17T20:39:52.629Z,,,,,,,,,,,6083.731000000029,completion,,,,,,,low,high,,,,,,false,,,,,true,517555.1999999285,517555,511454.849,511459.1999999285,511471.269,517571.278,1,40,,
trial,html.Screen,8_33_0,2023-11-17T20:40:00.708Z,,,,2,0.0388181790775959,-0.0049623405709465,,0.04,true,lh,8062.921999928483,response,-1.075512775389519,0.8511952483044866,-1.1232774815619817,1.0454702683049502,0.9405823983391974,-1.0732774815619817,low,high,,ISIC_0061880.JPG,,ISIC_0033603.JPG,25,false,0.27000000000000013,lh,keypress(e),0,true,525634.2999999523,525634.1999999285,517554.726,517555.2999999523,517571.278,525637.741,1,40,34,
sequence,flow.Sequence,8_33,2023-11-17T20:40:00.708Z,,,,,,,,,,,8062.921999928483,completion,,,,,,,low,high,,,,,,false,,,,,true,525634.5,525634.1999999285,517554.726,517555.2999999523,517571.278,525637.741,1,40,,
trial,html.Screen,8_34_0,2023-11-17T20:40:07.493Z,,,,2,0.039520186367207,0.0377961575607372,,0.04,true,ll,6781.258999999962,response,-1.0943527860463682,0.8511952483044866,-1.0732774815619817,-1.124481746658104,0.9405823983391974,-1.0732774815619817,low,low,,ISIC_6356149.JPG,,ISIC_0438136.JPG,25,false,0.1,ll,keypress(f),0,true,532419,532419,525621.298,525634.5,525637.741,532421.118,1,40,35,
sequence,flow.Sequence,8_34,2023-11-17T20:40:07.493Z,,,,,,,,,,,6781.258999999962,completion,,,,,,,low,low,,,,,,false,,,,,true,532419.0999999046,532419,525621.298,525634.5,525637.741,532421.118,1,40,,
trial,html.Screen,8_35_0,2023-11-17T20:40:14.533Z,,,,2,-0.0308384937406319,0.0038396364323947,,0.04,true,ll,7037.781999976141,response,-1.0777929856705222,0.8511952483044866,-1.0732774815619817,-1.0139833925057518,0.9405823983391974,-1.059417266352236,low,low,,ISIC_0029825.JPG,,ISIC_6171084.JPG,29,false,0.11,ll,keypress(f),0,true,539459.0999999046,539458.8999999762,532404.716,532419.1999999285,532421.118,539471.147,1,40,36,
sequence,flow.Sequence,8_35,2023-11-17T20:40:14.533Z,,,,,,,,,,,7037.781999976141,completion,,,,,,,low,low,,,,,,false,,,,,true,539459.0999999046,539458.8999999762,532404.716,532419.1999999285,532421.118,539471.147,1,40,,
trial,html.Screen,8_36_0,2023-11-17T20:40:18.611Z,,,,2,-0.0044063257337227,-0.0172548282859886,,0.04,false,lh,4065.853000000003,response,-0.8075741539776473,0.8511952483044866,-0.9958881890881368,0.7326891894107508,0.9405823983391974,-1.059417266352236,low,high,,ISIC_7413786.JPG,,ISIC_3428523.JPG,25,false,0.2300000000000001,ll,keypress(f),0,true,543537.0999999046,543537,539454.433,539459.0999999046,539471.147,543555.711,1,40,37,
sequence,flow.Sequence,8_36,2023-11-17T20:40:18.611Z,,,,,,,,,,,4065.853000000003,completion,,,,,,,low,high,,,,,,false,,,,,true,543537.1999999285,543537,539454.433,539459.0999999046,539471.147,543555.711,1,40,,
trial,html.Screen,8_37_0,2023-11-17T20:40:23.733Z,,,,2,0.0199950873045219,0.0172506388509166,,0.04,false,hl,5103.188999976148,response,1.045301444872812,0.8511952483044866,-0.9958881890881368,-1.0872560254441277,0.9905823983391975,-1.059417266352236,high,low,,ISIC_0029906.JPG,,ISIC_4507700.JPG,29,false,0.20000000000000007,lh,keypress(e),0,true,548659,548658.8999999762,543521.408,543537.1999999285,543555.711,548671.28,1,40,38,
sequence,flow.Sequence,8_37,2023-11-17T20:40:23.733Z,,,,,,,,,,,5103.188999976148,completion,,,,,,,high,low,,,,,,false,,,,,true,548659.0999999046,548658.8999999762,543521.408,543537.1999999285,543555.711,548671.28,1,40,,
trial,html.Screen,8_38_0,2023-11-17T20:40:28.916Z,,,,2,-0.0283578106329894,0.0088840758711548,,0.04,true,hh,5171.019999952288,response,0.8481980365756594,0.9011952483044866,-0.9958881890881368,0.9581202232187236,0.9905823983391975,-1.1094172663522361,high,high,,ISIC_0060707.JPG,,ISIC_0031784.JPG,41,false,0.1,hh,keypress(i),0,true,553842.3999999762,553842.2999999523,548654.292,548659.0999999046,548671.28,553854.505,1,40,39,
sequence,flow.Sequence,8_38,2023-11-17T20:40:28.917Z,,,,,,,,,,,5171.019999952288,completion,,,,,,,high,high,,,,,,false,,,,,true,553842.5,553842.2999999523,548654.292,548659.0999999046,548671.28,553854.505,1,40,,
trial,html.Screen,8_39_0,2023-11-17T20:40:35.973Z,,,,2,-0.0220026381002083,0.0170756452911772,,0.04,true,ll,7044.19499992847,response,-0.9798314852960236,0.9011952483044866,-0.9958881890881368,-1.167024525807191,0.9905823983391975,-1.1094172663522361,low,low,,ISIC_5347806.JPG,,ISIC_4341261.JPG,28,false,0.11,ll,keypress(f),0,true,560898.7999999523,560898.6999999285,553838.096,553842.5,553854.505,560904.402,1,40,40,
sequence,flow.Sequence,8_39,2023-11-17T20:40:35.973Z,,,,,,,,,,,7044.19499992847,completion,,,,,,,low,low,,,,,,false,,,,,true,560898.8999999762,560898.6999999285,553838.096,553842.5,553854.505,560904.402,1,40,,
stair_loop,flow.Loop,8,2023-11-17T20:40:35.973Z,,,,,,,,,,,205227.48799992847,completion,,,,,,,,,,,,,,false,,,,,true,560899.0999999046,560898.6999999285,355655,355665.59999990463,355671.212,560904.402,1,40,,
exp_instructions,html.Screen,9,2023-11-17T20:40:50.468Z,,,,,,,,,,,14489.097999999998,response,,,,,,,,,,,,,,,,continue,keypress(Space),,,575393.8999999762,575393.5,560887.984,560899.0999999046,560904.402,575404.407,,,,
trial,html.Screen,10_0_0,2023-11-17T20:41:00.756Z,,,,1,-0.0286056110007553,-0.036125199756515,,0.04,true,lh,10277.89299995231,response,-1.075512775389519,0.8897352673109602,-1.083660882286222,1.0454702683049502,0.88135848890886,-1.1131736869785545,low,high,,ISIC_6535558.JPG,9,ISIC_0033603.JPG,31,false,0.2400000000000001,lh,keypress(e),0,false,585682.3999999762,585682.2999999523,575387.641,575394.1999999285,575404.407,585687.742,4,500,1,
break,html.Screen,10_0_1,2023-11-17T20:41:00.757Z,,,,,,,,,,,NaN,,,,,,,,low,high,,,,,,false,,,,,false,585682.6999999285,585682.6999999285,,585682.5,,585687.742,4,500,,
break_continue,html.Screen,10_0_2,2023-11-17T20:41:00.757Z,,,,,,,,,,,NaN,,,,,,,,low,high,,,,,,false,,,,,false,585683,585682.8999999762,,585682.8999999762,,585687.742,4,500,,
sequence,flow.Sequence,10_0,2023-11-17T20:41:00.757Z,,,,,,,,,,,10278.492999976152,completion,,,,,,,low,high,,,,,,false,,,,,false,585683.0999999046,585682.8999999762,575387.641,575394.1999999285,575404.407,585687.742,4,500,,
trial,html.Screen,10_1_0,2023-11-17T20:41:11.157Z,,,,1,,0.0102871556606504,,0.04,true,lh,10394.957999928505,response,-0.9237241143561707,0.8897352673109602,-1.083660882286222,0.7102087839245512,0.88135848890886,-1.1131736869785545,low,high,,ISIC_1805163.JPG,8,ISIC_0058661.JPG,31,false,0.2400000000000001,lh,keypress(e),0,false,596082.8999999762,596082.6999999285,585670.83,585683.0999999046,585687.742,596087.701,4,500,2,
break,html.Screen,10_1_1,2023-11-17T20:41:11.157Z,,,,,,,,,,,NaN,,,,,,,,low,high,,,,,,false,,,,,false,596083.0999999046,596083.0999999046,,596083,,596087.701,4,500,,
break_continue,html.Screen,10_1_2,2023-11-17T20:41:11.157Z,,,,,,,,,,,NaN,,,,,,,,low,high,,,,,,false,,,,,false,596083.3999999762,596083.2999999523,,596083.1999999285,,596087.701,4,500,,
sequence,flow.Sequence,10_1,2023-11-17T20:41:11.157Z,,,,,,,,,,,10395.557999952347,completion,,,,,,,low,high,,,,,,false,,,,,false,596083.3999999762,596083.2999999523,585670.83,585683.0999999046,585687.742,596087.701,4,500,,
trial,html.Screen,10_2_0,2023-11-17T20:41:14.741Z,,,,1,0.0374659946425444,0.0086043094957617,,0.04,true,hh,3578.9989999284735,response,0.8706540396413559,0.8897352673109602,-1.083660882286222,0.8221719983776423,0.88135848890886,-1.1131736869785545,high,high,,ISIC_0033051.JPG,10,ISIC_0067953.JPG,50,false,0.1,hh,keypress(i),0,false,599666.6999999285,599666.6999999285,596071.494,596083.5,596087.701,599671.075,4,500,3,
break,html.Screen,10_2_1,2023-11-17T20:41:14.741Z,,,,,,,,,,,NaN,,,,,,,,high,high,,,,,,false,,,,,false,599667,599667,,599666.7999999523,,599671.075,4,500,,
break_continue,html.Screen,10_2_2,2023-11-17T20:41:14.741Z,,,,,,,,,,,NaN,,,,,,,,high,high,,,,,,false,,,,,false,599667.1999999285,599667.0999999046,,599667,,599671.075,4,500,,
sequence,flow.Sequence,10_2,2023-11-17T20:41:14.741Z,,,,,,,,,,,3579.3989999046316,completion,,,,,,,high,high,,,,,,false,,,,,false,599667.2999999523,599667.0999999046,596071.494,596083.3999999762,596087.701,599671.075,4,500,,
trial,html.Screen,10_3_0,2023-11-17T20:41:19.013Z,,,,1,0.0388334549081915,-0.0303399972963369,,0.04,true,hh,4267.724999952363,response,0.8179322126045343,0.8897352673109602,-1.083660882286222,0.9445915945560848,0.88135848890886,-1.1131736869785545,high,high,,ISIC_4961708.JPG,8,ISIC_0056364.JPG,50,false,0.1,hh,keypress(i),0,false,603939,603938.7999999523,599654.319,599667.2999999523,599671.075,603954.857,4,500,4,
break,html.Screen,10_3_1,2023-11-17T20:41:19.013Z,,,,,,,,,,,NaN,,,,,,,,high,high,,,,,,false,,,,,false,603939.1999999285,603939.1999999285,,603939,,603954.857,4,500,,
break_continue,html.Screen,10_3_2,2023-11-17T20:41:19.014Z,,,,,,,,,,,NaN,,,,,,,,high,high,,,,,,false,,,,,false,603939.5,603939.3999999762,,603939.1999999285,,603954.857,4,500,,
sequence,flow.Sequence,10_3,2023-11-17T20:41:19.014Z,,,,,,,,,,,4268.324999976205,completion,,,,,,,high,high,,,,,,false,,,,,false,603939.5,603939.3999999762,599654.319,599667.2999999523,599671.075,603954.857,4,500,,
trial,html.Screen,10_4_0,2023-11-17T20:41:24.469Z,,,,1,0.0088741920055285,0.0058246074740588,,0.04,false,ll,5439.942999952356,response,-1.0067659067144603,0.8897352673109602,-1.083660882286222,-1.1702231398575993,0.88135848890886,-1.1131736869785545,low,low,,ISIC_4136663.JPG,9,ISIC_0064784.JPG,25,false,0.13,lh,keypress(e),0,false,609394.8999999762,609394.7999999523,603938.084,603939.5999999046,603954.857,609404.385,4,500,5,
break,html.Screen,10_4_1,2023-11-17T20:41:24.469Z,,,,,,,,,,,NaN,,,,,,,,low,low,,,,,,false,,,,,false,609395.1999999285,609395.0999999046,,609395,,609404.385,4,500,,
break_continue,html.Screen,10_4_2,2023-11-17T20:41:24.469Z,,,,,,,,,,,NaN,,,,,,,,low,low,,,,,,false,,,,,false,609395.3999999762,609395.2999999523,,609395.1999999285,,609404.385,4,500,,
sequence,flow.Sequence,10_4,2023-11-17T20:41:24.469Z,,,,,,,,,,,5440.442999952356,completion,,,,,,,low,low,,,,,,false,,,,,false,609395.5,609395.2999999523,603938.084,603939.5,603954.857,609404.385,4,500,,
trial,html.Screen,10_5_0,2023-11-17T20:41:29.893Z,,,,1,-0.0009714874637896,0.0174815595031679,,0.04,false,lh,5414.214999904623,response,-1.0453124399868816,0.8897352673109602,-1.083660882286222,0.8986747280184286,0.88135848890886,-1.1131736869785545,low,high,,ISIC_9848743.JPG,9,ISIC_0013967.JPG,31,false,0.2400000000000001,ll,keypress(f),0,false,614818.6999999285,614818.5999999046,609388.053,609395.5,609404.385,614821.024,4,500,6,
break,html.Screen,10_5_1,2023-11-17T20:41:29.893Z,,,,,,,,,,,NaN,,,,,,,,low,high,,,,,,false,,,,,false,614819.0999999046,614819,,614818.7999999523,,614821.024,4,500,,
break_continue,html.Screen,10_5_2,2023-11-17T20:41:29.893Z,,,,,,,,,,,NaN,,,,,,,,low,high,,,,,,false,,,,,false,614819.2999999523,614819.0999999046,,614819.0999999046,,614821.024,4,500,,
sequence,flow.Sequence,10_5,2023-11-17T20:41:29.893Z,,,,,,,,,,,5414.714999904623,completion,,,,,,,low,high,,,,,,false,,,,,false,614819.3999999762,614819.0999999046,609388.053,609395.5,609404.385,614821.024,4,500,,
trial,html.Screen,10_6_0,2023-11-17T20:41:35.109Z,,,,1,0.0199950873045219,0.0172506388509166,,0.04,false,ll,5213.875999976182,response,-1.0107375180488247,0.8897352673109602,-1.083660882286222,-1.2079382542709534,0.88135848890886,-1.1131736869785545,low,low,,ISIC_0029906.JPG,9,ISIC_0025602.JPG,25,false,0.13,hh,keypress(i),0,false,620035,620034.8999999762,614804.8,614819.3999999762,614821.024,620037.681,4,500,7,
break,html.Screen,10_6_1,2023-11-17T20:41:35.109Z,,,,,,,,,,,NaN,,,,,,,,low,low,,,,,,false,,,,,false,620035.1999999285,620035.1999999285,,620035,,620037.681,4,500,,
break_continue,html.Screen,10_6_2,2023-11-17T20:41:35.109Z,,,,,,,,,,,NaN,,,,,,,,low,low,,,,,,false,,,,,false,620035.5,620035.3999999762,,620035.2999999523,,620037.681,4,500,,
sequence,flow.Sequence,10_6,2023-11-17T20:41:35.109Z,,,,,,,,,,,5214.375999976182,completion,,,,,,,low,low,,,,,,false,,,,,false,620035.5999999046,620035.3999999762,614804.8,614819.3999999762,614821.024,620037.681,4,500,,
trial,html.Screen,10_7_0,2023-11-17T20:41:40.452Z,,,,1,-0.0009714874637896,0.0174815595031679,,0.04,false,ll,5339.91899990465,response,-1.1409143352872226,0.8897352673109602,-1.083660882286222,-1.1323007949069106,0.88135848890886,-1.1131736869785545,low,low,,ISIC_9848743.JPG,9,ISIC_0030291.JPG,25,false,0.13,hl,keypress(j),0,false,625377.7999999523,625377.5999999046,620021.22,620035.5999999046,620037.681,625387.732,4,500,8,
break,html.Screen,10_7_1,2023-11-17T20:41:40.452Z,,,,,,,,,,,NaN,,,,,,,,low,low,,,,,,false,,,,,false,625378.0999999046,625377.8999999762,,625377.7999999523,,625387.732,4,500,,
break_continue,html.Screen,10_7_2,2023-11-17T20:41:40.452Z,,,,,,,,,,,NaN,,,,,,,,low,low,,,,,,false,,,,,false,625378.1999999285,625378.0999999046,,625378.0999999046,,625387.732,4,500,,
sequence,flow.Sequence,10_7,2023-11-17T20:41:40.452Z,,,,,,,,,,,5340.41899990465,completion,,,,,,,low,low,,,,,,false,,,,,false,625378.2999999523,625378.0999999046,620021.22,620035.5999999046,620037.681,625387.732,4,500,,
trial,html.Screen,10_8_0,2023-11-17T20:41:45.845Z,,,,1,-0.0286056110007553,-0.036125199756515,,0.04,true,ll,5383.26800000004,response,-1.077278111180185,0.8897352673109602,-1.083660882286222,-1.1530533996184025,0.88135848890886,-1.1131736869785545,low,low,,ISIC_6535558.JPG,8,ISIC_9525136.JPG,25,false,0.13,ll,keypress(f),0,false,630771.0999999046,630771,625371.013,625378.2999999523,625387.732,630788.185,4,500,9,
break,html.Screen,10_8_1,2023-11-17T20:41:45.845Z,,,,,,,,,,,NaN,,,,,,,,low,low,,,,,,false,,,,,false,630771.2999999523,630771.2999999523,,630771.1999999285,,630788.185,4,500,,
break_continue,html.Screen,10_8_2,2023-11-17T20:41:45.845Z,,,,,,,,,,,NaN,,,,,,,,low,low,,,,,,false,,,,,false,630771.5999999046,630771.3999999762,,630771.3999999762,,630788.185,4,500,,
sequence,flow.Sequence,10_8,2023-11-17T20:41:45.845Z,,,,,,,,,,,5383.667999976198,completion,,,,,,,low,low,,,,,,false,,,,,false,630771.5999999046,630771.3999999762,625371.013,625378.2999999523,625387.732,630788.185,4,500,,
trial,html.Screen,10_9_0,2023-11-17T20:41:54.805Z,,,,1,0.001445457736793,0.0165307427449982,,0.04,true,hl,8942.714999976102,response,0.9662688541319592,0.8897352673109602,-1.083660882286222,-0.929746784178986,0.88135848890886,-1.1131736869785545,high,low,,ISIC_0027350.JPG,9,ISIC_0011077.JPG,27,false,0.2300000000000001,hl,keypress(j),0,false,639731,639730.8999999762,630770.979,630771.5999999046,630788.185,639737.682,4,500,10,
break,html.Screen,10_9_1,2023-11-17T20:41:54.805Z,,,,,,,,,,,NaN,,,,,,,,high,low,,,,,,false,,,,,false,639731.5999999046,639731.3999999762,,639731,,639737.682,4,500,,
break_continue,html.Screen,10_9_2,2023-11-17T20:41:54.806Z,,,,,,,,,,,NaN,,,,,,,,high,low,,,,,,false,,,,,false,639731.7999999523,639731.6999999285,,639731.5999999046,,639737.682,4,500,,
sequence,flow.Sequence,10_9,2023-11-17T20:41:54.806Z,,,,,,,,,,,8943.514999928419,completion,,,,,,,high,low,,,,,,false,,,,,false,639731.8999999762,639731.6999999285,630770.979,630771.5999999046,630788.185,639737.682,4,500,,
trial,html.Screen,10_10_0,2023-11-17T20:42:05.044Z,,,,1,0.0374659946425444,0.0086043094957617,,0.04,false,ll,10232.617999952286,response,-1.1018283884093611,0.8897352673109602,-1.083660882286222,-1.053767307212406,0.88135848890886,-1.1131736869785545,low,low,,ISIC_0033051.JPG,10,ISIC_6785249.JPG,25,false,0.13,hh,keypress(i),0,false,649970.5,649970.2999999523,639721.278,639731.8999999762,639737.682,649988.123,4,500,11,
break,html.Screen,10_10_1,2023-11-17T20:42:05.045Z,,,,,,,,,,,NaN,,,,,,,,low,low,,,,,,false,,,,,false,649970.6999999285,649970.5999999046,,649970.5,,649988.123,4,500,,
break_continue,html.Screen,10_10_2,2023-11-17T20:42:05.045Z,,,,,,,,,,,NaN,,,,,,,,low,low,,,,,,false,,,,,false,649971,649970.8999999762,,649970.7999999523,,649988.123,4,500,,
sequence,flow.Sequence,10_10,2023-11-17T20:42:05.045Z,,,,,,,,,,,10233.217999976128,completion,,,,,,,low,low,,,,,,false,,,,,false,649971.0999999046,649970.8999999762,639721.278,639731.8999999762,639737.682,649988.123,4,500,,
trial,html.Screen,10_11_0,2023-11-17T20:42:14.293Z,,,,1,-0.0367744112927588,-0.0324865661712824,,0.04,false,hl,9230.876999999979,response,0.6616334713363664,0.8897352673109602,-1.083660882286222,-1.2806277136291266,0.88135848890886,-1.1131736869785545,high,low,,ISIC_4523565.JPG,8,ISIC_7236842.JPG,27,false,0.2300000000000001,ll,keypress(f),0,false,659219.0999999046,659219,649954.487,649971.0999999046,649988.123,659221.026,4,500,12,
break,html.Screen,10_11_1,2023-11-17T20:42:14.293Z,,,,,,,,,,,NaN,,,,,,,,high,low,,,,,,false,,,,,false,659219.3999999762,659219.2999999523,,659219.1999999285,,659221.026,4,500,,
break_continue,html.Screen,10_11_2,2023-11-17T20:42:14.293Z,,,,,,,,,,,NaN,,,,,,,,high,low,,,,,,false,,,,,false,659219.5999999046,659219.5,,659219.3999999762,,659221.026,4,500,,
sequence,flow.Sequence,10_11,2023-11-17T20:42:14.294Z,,,,,,,,,,,9231.376999999979,completion,,,,,,,high,low,,,,,,false,,,,,false,659219.6999999285,659219.5,649954.487,649971.0999999046,649988.123,659221.026,4,500,,
trial,html.Screen,10_12_0,2023-11-17T20:42:17.733Z,,,,1,0.0109416414475118,0.005246498750811,,0.04,true,ll,3437.9740000000456,response,-1.160746324899676,0.8897352673109602,-1.083660882286222,-1.1927876559115576,0.88135848890886,-1.1131736869785545,low,low,,ISIC_0064279.JPG,9,ISIC_8651053.JPG,25,false,0.13,ll,keypress(f),0,false,662659.0999999046,662659,659204.23,659219.6999999285,659221.026,662671.264,4,500,13,
break,html.Screen,10_12_1,2023-11-17T20:42:17.733Z,,,,,,,,,,,NaN,,,,,,,,low,low,,,,,,false,,,,,false,662659.3999999762,662659.2999999523,,662659.1999999285,,662671.264,4,500,,
break_continue,html.Screen,10_12_2,2023-11-17T20:42:17.733Z,,,,,,,,,,,NaN,,,,,,,,low,low,,,,,,false,,,,,false,662659.5999999046,662659.5,,662659.3999999762,,662671.264,4,500,,
sequence,flow.Sequence,10_12,2023-11-17T20:42:17.734Z,,,,,,,,,,,3438.4740000000456,completion,,,,,,,low,low,,,,,,false,,,,,false,662659.5999999046,662659.5,659204.23,659219.6999999285,659221.026,662671.264,4,500,,
trial,html.Screen,10_13_0,2023-11-17T20:42:23.573Z,,,,1,0.0088741920055285,0.0058246074740588,,0.04,false,hl,5826.935999928508,response,1.0153439398566937,0.8897352673109602,-1.083660882286222,-0.93001438372942,0.88135848890886,-1.1131736869785545,high,low,,ISIC_4136663.JPG,9,ISIC_8211214.JPG,27,false,0.2300000000000001,lh,keypress(e),0,false,668498.3999999762,668498.1999999285,662654.723,662659.6999999285,662671.264,668504.338,4,500,14,
break,html.Screen,10_13_1,2023-11-17T20:42:23.573Z,,,,,,,,,,,NaN,,,,,,,,high,low,,,,,,false,,,,,false,668498.5999999046,668498.5,,668498.3999999762,,668504.338,4,500,,
break_continue,html.Screen,10_13_2,2023-11-17T20:42:23.573Z,,,,,,,,,,,NaN,,,,,,,,high,low,,,,,,false,,,,,false,668498.7999999523,668498.6999999285,,668498.5999999046,,668504.338,4,500,,
sequence,flow.Sequence,10_13,2023-11-17T20:42:23.573Z,,,,,,,,,,,5827.435999928508,completion,,,,,,,high,low,,,,,,false,,,,,false,668498.8999999762,668498.6999999285,662654.723,662659.6999999285,662671.264,668504.338,4,500,,
trial,html.Screen,10_14_0,2023-11-17T20:42:27.205Z,,,,1,0.0088741920055285,0.0058246074740588,,0.04,false,ll,3626.5619999761693,response,-1.0943527860463682,0.8897352673109602,-1.083660882286222,-1.124481746658104,0.88135848890886,-1.1131736869785545,low,low,,ISIC_4136663.JPG,10,ISIC_0438136.JPG,25,false,0.13,lh,keypress(e),0,false,672131,672130.8999999762,668487.962,668499,668504.338,672137.787,4,500,15,
break,html.Screen,10_14_1,2023-11-17T20:42:27.205Z,,,,,,,,,,,NaN,,,,,,,,low,low,,,,,,false,,,,,false,672131.2999999523,672131.1999999285,,672131.0999999046,,672137.787,4,500,,
break_continue,html.Screen,10_14_2,2023-11-17T20:42:27.206Z,,,,,,,,,,,NaN,,,,,,,,low,low,,,,,,false,,,,,false,672131.5,672131.3999999762,,672131.3999999762,,672137.787,4,500,,
sequence,flow.Sequence,10_14,2023-11-17T20:42:27.206Z,,,,,,,,,,,3627.0619999761693,completion,,,,,,,low,low,,,,,,false,,,,,false,672131.5999999046,672131.3999999762,668487.962,668498.8999999762,668504.338,672137.787,4,500,,
trial,html.Screen,10_15_0,2023-11-17T20:42:33.845Z,,,,1,,0.0102871556606504,,0.04,false,ll,6633.112999976147,response,-0.9798314852960236,0.8897352673109602,-1.083660882286222,-1.167024525807191,0.88135848890886,-1.1131736869785545,low,low,,ISIC_1805163.JPG,10,ISIC_4341261.JPG,25,false,0.13,hh,keypress(i),0,false,678771,678770.8999999762,672121.397,672131.6999999285,672137.787,678788.148,4,500,16,
break,html.Screen,10_15_1,2023-11-17T20:42:33.845Z,,,,,,,,,,,NaN,,,,,,,,low,low,,,,,,false,,,,,false,678771.2999999523,678771.2999999523,,678771.0999999046,,678788.148,4,500,,
break_continue,html.Screen,10_15_2,2023-11-17T20:42:33.846Z,,,,,,,,,,,NaN,,,,,,,,low,low,,,,,,false,,,,,false,678771.5999999046,678771.5,,678771.3999999762,,678788.148,4,500,,
sequence,flow.Sequence,10_15,2023-11-17T20:42:33.846Z,,,,,,,,,,,6633.712999999989,completion,,,,,,,low,low,,,,,,false,,,,,false,678771.5999999046,678771.5,672121.397,672131.6999999285,672137.787,678788.148,4,500,,
trial,html.Screen,10_16_0,2023-11-17T20:42:37.029Z,,,,1,0.0374659946425444,0.0086043094957617,,0.04,false,hl,3166.6519999522716,response,0.9244148283103414,0.8897352673109602,-1.083660882286222,-0.9712966348713286,0.88135848890886,-1.1131736869785545,high,low,,ISIC_0033051.JPG,9,ISIC_7927525.JPG,27,false,0.2300000000000001,hh,keypress(i),0,false,681954.8999999762,681954.7999999523,678771.254,678771.6999999285,678788.148,681971.117,4,500,17,
break,html.Screen,10_16_1,2023-11-17T20:42:37.029Z,,,,,,,,,,,NaN,,,,,,,,high,low,,,,,,false,,,,,false,681955.1999999285,681955.0999999046,,681955,,681971.117,4,500,,
break_continue,html.Screen,10_16_2,2023-11-17T20:42:37.030Z,,,,,,,,,,,NaN,,,,,,,,high,low,,,,,,false,,,,,false,681955.3999999762,681955.2999999523,,681955.1999999285,,681971.117,4,500,,
sequence,flow.Sequence,10_16,2023-11-17T20:42:37.030Z,,,,,,,,,,,3167.1519999522716,completion,,,,,,,high,low,,,,,,false,,,,,false,681955.5999999046,681955.2999999523,678771.254,678771.5999999046,678788.148,681971.117,4,500,,
trial,html.Screen,10_17_0,2023-11-17T20:42:40.981Z,,,,1,-0.0286056110007553,-0.036125199756515,,0.04,true,ll,3935.4829999046633,response,-1.160746324899676,0.8897352673109602,-1.083660882286222,-1.1927876559115576,0.88135848890886,-1.1131736869785545,low,low,,ISIC_6535558.JPG,9,ISIC_8651053.JPG,25,false,0.13,ll,keypress(f),0,false,685906.7999999523,685906.5999999046,681954.362,681955.5999999046,681971.117,685921.222,4,500,18,
break,html.Screen,10_17_1,2023-11-17T20:42:40.981Z,,,,,,,,,,,NaN,,,,,,,,low,low,,,,,,false,,,,,false,685907.0999999046,685907,,685906.7999999523,,685921.222,4,500,,
break_continue,html.Screen,10_17_2,2023-11-17T20:42:40.981Z,,,,,,,,,,,NaN,,,,,,,,low,low,,,,,,false,,,,,false,685907.2999999523,685907.1999999285,,685907.0999999046,,685921.222,4,500,,
sequence,flow.Sequence,10_17,2023-11-17T20:42:40.982Z,,,,,,,,,,,3936.082999928505,completion,,,,,,,low,low,,,,,,false,,,,,false,685907.3999999762,685907.1999999285,681954.362,681955.5999999046,681971.117,685921.222,4,500,,
trial,html.Screen,10_18_0,2023-11-17T20:42:48.869Z,,,,1,-0.0118382036798625,-0.0300588245877227,,0.04,true,lh,7873.877999904682,response,-1.058275612142778,0.8897352673109602,-1.083660882286222,0.7824898568540655,0.88135848890886,-1.1131736869785545,low,high,,ISIC_4748605.JPG,9,ISIC_4906385.JPG,31,false,0.2400000000000001,lh,keypress(e),0,false,693795.1999999285,693795.0999999046,685904.662,685907.3999999762,685921.222,693804.306,4,500,19,
break,html.Screen,10_18_1,2023-11-17T20:42:48.870Z,,,,,,,,,,,NaN,,,,,,,,low,high,,,,,,false,,,,,false,693795.3999999762,693795.3999999762,,693795.1999999285,,693804.306,4,500,,
break_continue,html.Screen,10_18_2,2023-11-17T20:42:48.870Z,,,,,,,,,,,NaN,,,,,,,,low,high,,,,,,false,,,,,false,693795.6999999285,693795.5999999046,,693795.5,,693804.306,4,500,,
sequence,flow.Sequence,10_18,2023-11-17T20:42:48.870Z,,,,,,,,,,,7874.377999904682,completion,,,,,,,low,high,,,,,,false,,,,,false,693795.6999999285,693795.5999999046,685904.662,685907.3999999762,685921.222,693804.306,4,500,,
trial,html.Screen,10_19_0,2023-11-17T20:42:54.709Z,,,,1,-0.0258224118104549,0.0029364553353019,,0.04,true,lh,5830.593999976176,response,-0.8719231363109603,0.8897352673109602,-1.083660882286222,0.7704280220140033,0.88135848890886,-1.1131736869785545,low,high,,ISIC_8325226.JPG,8,ISIC_0029453.JPG,31,false,0.2400000000000001,lh,keypress(e),0,false,699635,699634.8999999762,693787.784,693795.6999999285,693804.306,699637.662,4,500,20,
break,html.Screen,10_19_1,2023-11-17T20:42:54.709Z,,,,,,,,,,,NaN,,,,,,,,low,high,,,,,,false,,,,,false,699635.1999999285,699635.1999999285,,699635.0999999046,,699637.662,4,500,,
break_continue,html.Screen,10_19_2,2023-11-17T20:42:54.710Z,,,,,,,,,,,NaN,,,,,,,,low,high,,,,,,false,,,,,false,699635.5,699635.2999999523,,699635.2999999523,,699637.662,4,500,,
sequence,flow.Sequence,10_19,2023-11-17T20:42:54.710Z,,,,,,,,,,,5830.993999952334,completion,,,,,,,low,high,,,,,,false,,,,,false,699635.5999999046,699635.2999999523,693787.784,693795.6999999285,693804.306,699637.662,4,500,,
trial,html.Screen,10_20_0,2023-11-17T20:43:09.349Z,,,,1,-0.0076984477620101,-0.0069458408496562,,0.04,true,lh,14637.137999952305,response,-1.0794043929240107,0.8897352673109602,-1.083660882286222,0.6422352972056817,0.88135848890886,-1.1131736869785545,low,high,,ISIC_0000434.JPG,8,ISIC_2106823.JPG,31,false,0.2400000000000001,lh,keypress(e),0,false,714275,714274.7999999523,699620.817,699635.5999999046,699637.662,714287.791,4,500,21,
break,html.Screen,10_20_1,2023-11-17T20:43:09.349Z,,,,,,,,,,,NaN,,,,,,,,low,high,,,,,,false,,,,,false,714275.1999999285,714275.1999999285,,714275,,714287.791,4,500,,
break_continue,html.Screen,10_20_2,2023-11-17T20:43:09.350Z,,,,,,,,,,,NaN,,,,,,,,low,high,,,,,,false,,,,,false,714275.3999999762,714275.2999999523,,714275.2999999523,,714287.791,4,500,,
sequence,flow.Sequence,10_20,2023-11-17T20:43:09.350Z,,,,,,,,,,,14637.637999952305,completion,,,,,,,low,high,,,,,,false,,,,,false,714275.5,714275.2999999523,699620.817,699635.5999999046,699637.662,714287.791,4,500,,
trial,html.Screen,10_21_0,2023-11-17T20:43:15.317Z,,,,1,-0.0118382036798625,-0.0300588245877227,,0.04,false,hl,5954.908999928506,response,0.8443403196524287,0.8897352673109602,-1.083660882286222,-0.8858525429102605,0.88135848890886,-1.1131736869785545,high,low,,ISIC_4748605.JPG,9,ISIC_8777813.JPG,27,false,0.2300000000000001,lh,keypress(e),0,false,720242.7999999523,720242.6999999285,714271.257,714275.5,714287.791,720254.401,4,500,22,
break,html.Screen,10_21_1,2023-11-17T20:43:15.317Z,,,,,,,,,,,NaN,,,,,,,,high,low,,,,,,false,,,,,false,720243.0999999046,720243.0999999046,,720243,,720254.401,4,500,,
break_continue,html.Screen,10_21_2,2023-11-17T20:43:15.318Z,,,,,,,,,,,NaN,,,,,,,,high,low,,,,,,false,,,,,false,720243.3999999762,720243.2999999523,,720243.1999999285,,720254.401,4,500,,
sequence,flow.Sequence,10_21,2023-11-17T20:43:15.318Z,,,,,,,,,,,5955.508999952348,completion,,,,,,,high,low,,,,,,false,,,,,false,720243.3999999762,720243.2999999523,714271.257,714275.5,714287.791,720254.401,4,500,,
trial,html.Screen,10_22_0,2023-11-17T20:43:18.853Z,,,,1,-0.0257631352671967,-0.0202837002774028,,0.04,true,lh,3524.29899992852,response,-1.1711869602302662,0.8897352673109602,-1.083660882286222,0.7434626355969514,0.88135848890886,-1.1131736869785545,low,high,,ISIC_0032797.JPG,8,ISIC_0059052.JPG,31,false,0.2400000000000001,lh,keypress(e),0,false,723778.7999999523,723778.6999999285,720237.49,720243.5,720254.401,723787.688,4,500,23,
break,html.Screen,10_22_1,2023-11-17T20:43:18.853Z,,,,,,,,,,,NaN,,,,,,,,low,high,,,,,,false,,,,,false,723779.0999999046,723779,,723779,,723787.688,4,500,,
break_continue,html.Screen,10_22_2,2023-11-17T20:43:18.854Z,,,,,,,,,,,NaN,,,,,,,,low,high,,,,,,false,,,,,false,723779.2999999523,723779.1999999285,,723779.0999999046,,723787.688,4,500,,
sequence,flow.Sequence,10_22,2023-11-17T20:43:18.854Z,,,,,,,,,,,3524.79899992852,completion,,,,,,,low,high,,,,,,false,,,,,false,723779.3999999762,723779.1999999285,720237.49,720243.5,720254.401,723787.688,4,500,,
trial,html.Screen,10_23_0,2023-11-17T20:43:23.445Z,,,,1,0.0388181790775959,-0.0049623405709465,,0.04,true,ll,4583.211999976193,response,-0.9832288967264424,0.8897352673109602,-1.083660882286222,-1.0898586098590013,0.88135848890886,-1.1131736869785545,low,low,,ISIC_0061880.JPG,8,ISIC_2724529.JPG,25,false,0.13,ll,keypress(f),0,false,728371,728370.8999999762,723770.941,723779.3999999762,723787.688,728387.858,4,500,24,
break,html.Screen,10_23_1,2023-11-17T20:43:23.446Z,,,,,,,,,,,NaN,,,,,,,,low,low,,,,,,false,,,,,false,728371.3999999762,728371.3999999762,,728371,,728387.858,4,500,,
break_continue,html.Screen,10_23_2,2023-11-17T20:43:23.446Z,,,,,,,,,,,NaN,,,,,,,,low,low,,,,,,false,,,,,false,728371.6999999285,728371.5999999046,,728371.5,,728387.858,4,500,,
sequence,flow.Sequence,10_23,2023-11-17T20:43:23.446Z,,,,,,,,,,,4583.911999904667,completion,,,,,,,low,low,,,,,,false,,,,,false,728371.6999999285,728371.5999999046,723770.941,723779.3999999762,723787.688,728387.858,4,500,,
trial,html.Screen,10_24_0,2023-11-17T20:43:27.844Z,,,,1,-0.0308384937406319,0.0038396364323947,,0.04,true,hh,4382.341999928467,response,0.9159664042920548,0.8897352673109602,-1.083660882286222,0.96519839238634,0.88135848890886,-1.1131736869785545,high,high,,ISIC_0029825.JPG,9,ISIC_0053617.JPG,50,false,0.1,hh,keypress(i),0,false,732770.1999999285,732770.1999999285,728370.867,728371.6999999285,728387.858,732788.131,4,500,25,
break,html.Screen,10_24_1,2023-11-17T20:43:27.845Z,,,,,,,,,,,NaN,,,,,,,,high,high,,,,,,false,,,,,false,732770.5,732770.3999999762,,732770.2999999523,,732788.131,4,500,,
break_continue,html.Screen,10_24_2,2023-11-17T20:43:27.845Z,,,,,,,,,,,NaN,,,,,,,,high,high,,,,,,false,,,,,false,732770.6999999285,732770.5999999046,,732770.5,,732788.131,4,500,,
sequence,flow.Sequence,10_24,2023-11-17T20:43:27.845Z,,,,,,,,,,,4382.741999904625,completion,,,,,,,high,high,,,,,,false,,,,,false,732770.6999999285,732770.5999999046,728370.867,728371.6999999285,728387.858,732788.131,4,500,,
trial,html.Screen,10_25_0,2023-11-17T20:43:33.557Z,,,,1,0.0088741920055285,0.0058246074740588,,0.04,false,ll,5694.368999999948,response,-1.0107375180488247,0.8897352673109602,-1.083660882286222,-1.2079382542709534,0.88135848890886,-1.1131736869785545,low,low,,ISIC_4136663.JPG,8,ISIC_0025602.JPG,25,false,0.13,lh,keypress(e),0,false,738482.5,738482.5,732754.296,732770.7999999523,732788.131,738487.639,4,500,26,
break,html.Screen,10_25_1,2023-11-17T20:43:33.557Z,,,,,,,,,,,NaN,,,,,,,,low,low,,,,,,false,,,,,false,738482.7999999523,738482.6999999285,,738482.5999999046,,738487.639,4,500,,
break_continue,html.Screen,10_25_2,2023-11-17T20:43:33.557Z,,,,,,,,,,,NaN,,,,,,,,low,low,,,,,,false,,,,,false,738483,738482.8999999762,,738482.7999999523,,738487.639,4,500,,
sequence,flow.Sequence,10_25,2023-11-17T20:43:33.557Z,,,,,,,,,,,5694.768999976106,completion,,,,,,,low,low,,,,,,false,,,,,false,738483.0999999046,738482.8999999762,732754.296,732770.7999999523,732788.131,738487.639,4,500,,
trial,html.Screen,10_26_0,2023-11-17T20:43:37.077Z,,,,1,0.0388181790775959,-0.0049623405709465,,0.04,false,ll,3514.560999928508,response,-1.1055382068806878,0.8897352673109602,-1.083660882286222,-1.0166010471189206,0.88135848890886,-1.1131736869785545,low,low,,ISIC_0061880.JPG,8,ISIC_5420979.JPG,25,false,0.13,lh,keypress(e),0,false,742002.2999999523,742002.1999999285,738471.426,738483.0999999046,738487.639,742004.293,4,500,27,
break,html.Screen,10_26_1,2023-11-17T20:43:37.077Z,,,,,,,,,,,NaN,,,,,,,,low,low,,,,,,false,,,,,false,742002.6999999285,742002.5,,742002.3999999762,,742004.293,4,500,,
break_continue,html.Screen,10_26_2,2023-11-17T20:43:37.077Z,,,,,,,,,,,NaN,,,,,,,,low,low,,,,,,false,,,,,false,742002.7999999523,742002.7999999523,,742002.6999999285,,742004.293,4,500,,
sequence,flow.Sequence,10_26,2023-11-17T20:43:37.077Z,,,,,,,,,,,3515.16099995235,completion,,,,,,,low,low,,,,,,false,,,,,false,742002.8999999762,742002.7999999523,738471.426,738483.0999999046,738487.639,742004.293,4,500,,
trial,html.Screen,10_27_0,2023-11-17T20:43:44.389Z,,,,1,0.0074667911845194,-0.018500200317654,,0.04,false,lh,7310.606999976211,response,-0.8719231363109603,0.8897352673109602,-1.083660882286222,0.7704280220140033,0.88135848890886,-1.1131736869785545,low,high,,ISIC_0058723.JPG,8,ISIC_0029453.JPG,31,false,0.2400000000000001,hh,keypress(i),0,false,749314.8999999762,749314.8999999762,741987.78,742002.8999999762,742004.293,749320.961,4,500,28,
break,html.Screen,10_27_1,2023-11-17T20:43:44.389Z,,,,,,,,,,,NaN,,,,,,,,low,high,,,,,,false,,,,,false,749315.0999999046,749315.0999999046,,749315,,749320.961,4,500,,
break_continue,html.Screen,10_27_2,2023-11-17T20:43:44.390Z,,,,,,,,,,,NaN,,,,,,,,low,high,,,,,,false,,,,,false,749315.3999999762,749315.3999999762,,749315.1999999285,,749320.961,4,500,,
sequence,flow.Sequence,10_27,2023-11-17T20:43:44.390Z,,,,,,,,,,,7311.106999976211,completion,,,,,,,low,high,,,,,,false,,,,,false,749315.3999999762,749315.3999999762,741987.78,742002.8999999762,742004.293,749320.961,4,500,,
trial,html.Screen,10_28_0,2023-11-17T20:43:50.949Z,,,,1,-0.0367744112927588,-0.0324865661712824,,0.04,true,lh,6553.338999952306,response,-0.989300717252516,0.8897352673109602,-1.083660882286222,0.7908280206937478,0.88135848890886,-1.1131736869785545,low,high,,ISIC_4523565.JPG,9,ISIC_6416533.JPG,31,false,0.2400000000000001,lh,keypress(e),0,false,755874.3999999762,755874.2999999523,749304.389,749315.5,749320.961,755887.78,4,500,29,
break,html.Screen,10_28_1,2023-11-17T20:43:50.949Z,,,,,,,,,,,NaN,,,,,,,,low,high,,,,,,false,,,,,false,755874.6999999285,755874.6999999285,,755874.5,,755887.78,4,500,,
break_continue,html.Screen,10_28_2,2023-11-17T20:43:50.949Z,,,,,,,,,,,NaN,,,,,,,,low,high,,,,,,false,,,,,false,755874.8999999762,755874.7999999523,,755874.7999999523,,755887.78,4,500,,
sequence,flow.Sequence,10_28,2023-11-17T20:43:50.949Z,,,,,,,,,,,6553.838999952306,completion,,,,,,,low,high,,,,,,false,,,,,false,755875,755874.7999999523,749304.389,749315.3999999762,749320.961,755887.78,4,500,,
trial,html.Screen,10_29_0,2023-11-17T20:44:03.957Z,,,,1,0.0388334549081915,-0.0303399972963369,,0.04,false,hl,12994.719999999972,response,0.8443403196524287,0.8897352673109602,-1.083660882286222,-0.8858525429102605,0.88135848890886,-1.1131736869785545,high,low,,ISIC_4961708.JPG,8,ISIC_8777813.JPG,27,false,0.2300000000000001,lh,keypress(e),0,false,768882.5,768882.5,755870.994,755875,755887.78,768887.626,4,500,30,
break,html.Screen,10_29_1,2023-11-17T20:44:03.957Z,,,,,,,,,,,NaN,,,,,,,,high,low,,,,,,false,,,,,false,768882.7999999523,768882.6999999285,,768882.5999999046,,768887.626,4,500,,
break_continue,html.Screen,10_29_2,2023-11-17T20:44:03.957Z,,,,,,,,,,,NaN,,,,,,,,high,low,,,,,,false,,,,,false,768883.0999999046,768883,,768882.8999999762,,768887.626,4,500,,
sequence,flow.Sequence,10_29,2023-11-17T20:44:03.957Z,,,,,,,,,,,12995.219999999972,completion,,,,,,,high,low,,,,,,false,,,,,false,768883.0999999046,768883,755870.994,755875,755887.78,768887.626,4,500,,
trial,html.Screen,10_30_0,2023-11-17T20:44:15.189Z,,,,1,-0.0367706518941078,0.0161069838272154,,0.04,true,ll,11227.473999904585,response,-1.109799097093339,0.8897352673109602,-1.083660882286222,-1.091507924157762,0.88135848890886,-1.1131736869785545,low,low,,ISIC_0033419.JPG,9,ISIC_0765584.JPG,25,false,0.13,ll,keypress(f),0,false,780115.1999999285,780115.0999999046,768871.297,768883.1999999285,768887.626,780120.977,4,500,31,
break,html.Screen,10_30_1,2023-11-17T20:44:15.190Z,,,,,,,,,,,NaN,,,,,,,,low,low,,,,,,false,,,,,false,780115.5,780115.3999999762,,780115.2999999523,,780120.977,4,500,,
break_continue,html.Screen,10_30_2,2023-11-17T20:44:15.190Z,,,,,,,,,,,NaN,,,,,,,,low,low,,,,,,false,,,,,false,780115.7999999523,780115.6999999285,,780115.5999999046,,780120.977,4,500,,
sequence,flow.Sequence,10_30,2023-11-17T20:44:15.190Z,,,,,,,,,,,11228.073999928427,completion,,,,,,,low,low,,,,,,false,,,,,false,780115.8999999762,780115.6999999285,768871.297,768883.0999999046,768887.626,780120.977,4,500,,
trial,html.Screen,10_31_0,2023-11-17T20:44:20.981Z,,,,1,-0.0009714874637896,0.0174815595031679,,0.04,true,lh,5785.622999904677,response,-1.0329549150636406,0.8897352673109602,-1.083660882286222,1.01584100839286,0.88135848890886,-1.1131736869785545,low,high,,ISIC_9848743.JPG,9,ISIC_0054670.JPG,31,false,0.2400000000000001,lh,keypress(e),0,false,785906.7999999523,785906.5999999046,780104.414,780115.8999999762,780120.977,785921.182,4,500,32,
break,html.Screen,10_31_1,2023-11-17T20:44:20.981Z,,,,,,,,,,,NaN,,,,,,,,low,high,,,,,,false,,,,,false,785907.0999999046,785907,,785906.8999999762,,785921.182,4,500,,
break_continue,html.Screen,10_31_2,2023-11-17T20:44:20.982Z,,,,,,,,,,,NaN,,,,,,,,low,high,,,,,,false,,,,,false,785907.2999999523,785907.1999999285,,785907.0999999046,,785921.182,4,500,,
sequence,flow.Sequence,10_31,2023-11-17T20:44:20.982Z,,,,,,,,,,,5786.222999928519,completion,,,,,,,low,high,,,,,,false,,,,,false,785907.3999999762,785907.1999999285,780104.414,780115.8999999762,780120.977,785921.182,4,500,,
trial,html.Screen,10_32_0,2023-11-17T20:44:25.237Z,,,,1,0.0074667911845194,-0.018500200317654,,0.04,false,hl,4241.717999976128,response,0.9662688541319592,0.8897352673109602,-1.083660882286222,-0.929746784178986,0.88135848890886,-1.1131736869785545,high,low,,ISIC_0058723.JPG,9,ISIC_0011077.JPG,27,false,0.2300000000000001,hh,keypress(i),0,false,790163.0999999046,790162.8999999762,785904.137,785907.3999999762,785921.182,790171.055,4,500,33,
break,html.Screen,10_32_1,2023-11-17T20:44:25.238Z,,,,,,,,,,,NaN,,,,,,,,high,low,,,,,,false,,,,,false,790163.2999999523,790163.1999999285,,790163.0999999046,,790171.055,4,500,,
break_continue,html.Screen,10_32_2,2023-11-17T20:44:25.238Z,,,,,,,,,,,NaN,,,,,,,,high,low,,,,,,false,,,,,false,790163.5999999046,790163.3999999762,,790163.2999999523,,790171.055,4,500,,
sequence,flow.Sequence,10_32,2023-11-17T20:44:25.238Z,,,,,,,,,,,4242.217999976128,completion,,,,,,,high,low,,,,,,false,,,,,false,790163.5999999046,790163.3999999762,785904.137,785907.3999999762,785921.182,790171.055,4,500,,
trial,html.Screen,10_33_0,2023-11-17T20:44:28.213Z,,,,1,0.0198696495649504,-0.0387952353063878,,0.04,true,hh,2967.844999976107,response,0.9159664042920548,0.8897352673109602,-1.083660882286222,0.96519839238634,0.88135848890886,-1.1131736869785545,high,high,,ISIC_6735970.JPG,9,ISIC_0053617.JPG,50,false,0.1,hh,keypress(i),0,false,793139,793138.8999999762,790154.287,790163.6999999285,790171.055,793154.741,4,500,34,
break,html.Screen,10_33_1,2023-11-17T20:44:28.213Z,,,,,,,,,,,NaN,,,,,,,,high,high,,,,,,false,,,,,false,793139.1999999285,793139.1999999285,,793139,,793154.741,4,500,,
break_continue,html.Screen,10_33_2,2023-11-17T20:44:28.214Z,,,,,,,,,,,NaN,,,,,,,,high,high,,,,,,false,,,,,false,793139.5,793139.3999999762,,793139.1999999285,,793154.741,4,500,,
sequence,flow.Sequence,10_33,2023-11-17T20:44:28.214Z,,,,,,,,,,,2968.344999976107,completion,,,,,,,high,high,,,,,,false,,,,,false,793139.5,793139.3999999762,790154.287,790163.6999999285,790171.055,793154.741,4,500,,
trial,html.Screen,10_34_0,2023-11-17T20:44:31.461Z,,,,1,0.0388334549081915,-0.0303399972963369,,0.04,true,hh,3231.4589999284362,response,0.8724853443422199,0.8897352673109602,-1.083660882286222,0.9014790323337478,0.88135848890886,-1.1131736869785545,high,high,,ISIC_4961708.JPG,9,ISIC_6278273.JPG,50,false,0.1,hh,keypress(i),0,false,796386.2999999523,796386.1999999285,793138.009,793139.5999999046,793154.741,796404.705,4,500,35,
break,html.Screen,10_34_1,2023-11-17T20:44:31.461Z,,,,,,,,,,,NaN,,,,,,,,high,high,,,,,,false,,,,,false,796386.5999999046,796386.5,,796386.3999999762,,796404.705,4,500,,
break_continue,html.Screen,10_34_2,2023-11-17T20:44:31.461Z,,,,,,,,,,,NaN,,,,,,,,high,high,,,,,,false,,,,,false,796386.7999999523,796386.5999999046,,796386.5999999046,,796404.705,4,500,,
sequence,flow.Sequence,10_34,2023-11-17T20:44:31.461Z,,,,,,,,,,,3231.8589999045944,completion,,,,,,,high,high,,,,,,false,,,,,false,796386.8999999762,796386.5999999046,793138.009,793139.5999999046,793154.741,796404.705,4,500,,
trial,html.Screen,10_35_0,2023-11-17T20:44:35.317Z,,,,1,-0.0119001144851157,0.0063430114540141,,0.04,false,hl,3837.9949999285163,response,1.0116417541846066,0.8897352673109602,-1.083660882286222,-1.033442916947398,0.88135848890886,-1.1131736869785545,high,low,,ISIC_0003822.JPG,8,ISIC_0031389.JPG,27,false,0.2300000000000001,hh,keypress(i),0,false,800242.7999999523,800242.6999999285,796371.379,796386.8999999762,796404.705,800254.734,4,500,36,
break,html.Screen,10_35_1,2023-11-17T20:44:35.317Z,,,,,,,,,,,NaN,,,,,,,,high,low,,,,,,false,,,,,false,800243.0999999046,800243,,800242.7999999523,,800254.734,4,500,,
break_continue,html.Screen,10_35_2,2023-11-17T20:44:35.318Z,,,,,,,,,,,NaN,,,,,,,,high,low,,,,,,false,,,,,false,800243.2999999523,800243.1999999285,,800243.1999999285,,800254.734,4,500,,
sequence,flow.Sequence,10_35,2023-11-17T20:44:35.318Z,,,,,,,,,,,3838.4949999285163,completion,,,,,,,high,low,,,,,,false,,,,,false,800243.3999999762,800243.1999999285,796371.379,796386.8999999762,796404.705,800254.734,4,500,,
trial,html.Screen,10_36_0,2023-11-17T20:44:40.757Z,,,,1,0.0065172941585523,-0.0118857043117315,,0.04,true,ll,5427.665999976103,response,-1.0122348575830964,0.8897352673109602,-1.083660882286222,-1.007833368115011,0.88135848890886,-1.1131736869785545,low,low,,ISIC_6119202.JPG,9,ISIC_8145260.JPG,25,false,0.13,ll,keypress(f),0,false,805682.5999999046,805682.3999999762,800238.048,800243.3999999762,800254.734,805687.588,4,500,37,
break,html.Screen,10_36_1,2023-11-17T20:44:40.757Z,,,,,,,,,,,NaN,,,,,,,,low,low,,,,,,false,,,,,false,805682.8999999762,805682.7999999523,,805682.6999999285,,805687.588,4,500,,
break_continue,html.Screen,10_36_2,2023-11-17T20:44:40.757Z,,,,,,,,,,,NaN,,,,,,,,low,low,,,,,,false,,,,,false,805683.0999999046,805683,,805683,,805687.588,4,500,,
sequence,flow.Sequence,10_36,2023-11-17T20:44:40.757Z,,,,,,,,,,,5428.265999999945,completion,,,,,,,low,low,,,,,,false,,,,,false,805683.0999999046,805683,800238.048,800243.3999999762,800254.734,805687.588,4,500,,
trial,html.Screen,10_37_0,2023-11-17T20:44:44.037Z,,,,1,-0.0200295718112167,-0.0155559071275806,,0.04,true,hh,3274.912000000011,response,0.7960221520457809,0.8897352673109602,-1.083660882286222,0.9397522689480928,0.88135848890886,-1.1131736869785545,high,high,,ISIC_0061343.JPG,8,ISIC_1200192.JPG,50,false,0.1,hh,keypress(i),0,false,808962.5999999046,808962.5,805670.998,805683.1999999285,805687.588,808971.099,4,500,38,
break,html.Screen,10_37_1,2023-11-17T20:44:44.037Z,,,,,,,,,,,NaN,,,,,,,,high,high,,,,,,false,,,,,false,808962.7999999523,808962.7999999523,,808962.5999999046,,808971.099,4,500,,
break_continue,html.Screen,10_37_2,2023-11-17T20:44:44.037Z,,,,,,,,,,,NaN,,,,,,,,high,high,,,,,,false,,,,,false,808963.0999999046,808962.8999999762,,808962.7999999523,,808971.099,4,500,,
sequence,flow.Sequence,10_37,2023-11-17T20:44:44.037Z,,,,,,,,,,,3275.3119999761693,completion,,,,,,,high,high,,,,,,false,,,,,false,808963.0999999046,808962.8999999762,805670.998,805683.1999999285,805687.588,808971.099,4,500,,
trial,html.Screen,10_38_0,2023-11-17T20:44:47.989Z,,,,1,0.0088741920055285,0.0058246074740588,,0.04,false,hh,3943.7009999522706,response,0.8161945839077875,0.8897352673109602,-1.083660882286222,0.8847883487572158,0.88135848890886,-1.1131736869785545,high,high,,ISIC_4136663.JPG,9,ISIC_0058496.JPG,50,false,0.1,lh,keypress(e),0,false,812914.8999999762,812914.7999999523,808954.352,808963.0999999046,808971.099,812921.212,4,500,39,
break,html.Screen,10_38_1,2023-11-17T20:44:47.989Z,,,,,,,,,,,NaN,,,,,,,,high,high,,,,,,false,,,,,false,812915.0999999046,812915.0999999046,,812914.8999999762,,812921.212,4,500,,
break_continue,html.Screen,10_38_2,2023-11-17T20:44:47.990Z,,,,,,,,,,,NaN,,,,,,,,high,high,,,,,,false,,,,,false,812915.2999999523,812915.1999999285,,812915.0999999046,,812921.212,4,500,,
sequence,flow.Sequence,10_38,2023-11-17T20:44:47.990Z,,,,,,,,,,,3944.100999928429,completion,,,,,,,high,high,,,,,,false,,,,,false,812915.3999999762,812915.1999999285,808954.352,808963.0999999046,808971.099,812921.212,4,500,,
