sender,sender_type,sender_id,timestamp,meta,,age,blockNo,c1,c2,condition,control_tolerance,correct,correctResponse,duration,ended_on,f1,f1_high,f1_low,f2,f2_high,f2_low,feature_level1,feature_level2,gender,img_left,img_reveal,img_right,n_target_images,practice,range_tolerance,response,response_action,selection_duration,staircase,time_commit,time_end,time_render,time_run,time_show,time_switch,total_blocks,total_trials,trialNo,url
informed_consent,html.Screen,0,2023-11-17T18:28:01.033Z,"{""labjs_version"":""20.2.4"",""labjs_build"":{""flavor"":""development"",""commit"":""f5b4a49f956347addd546a832a3327688c2c0fef""},""location"":""https://labjs.felixhenninger.com/api/labjs_preview/index.html"",""userAgent"":""Mozilla/5.0 (Windows NT 10.0; Win64; x64) AppleWebKit/537.36 (KHTML, like Gecko) Chrome/119.0.0.0 Safari/537.36"",""platform"":""Win32"",""language"":""en-US"",""locale"":""en-US"",""timeZone"":""America/Chicago"",""timezoneOffset"":360,""screen_width"":1920,""screen_height"":1080,""scroll_width"":945,""scroll_height"":918,""window_innerWidth"":945,""window_innerHeight"":966,""devicePixelRatio"":1}",,,,,,,,,,20973.49899996424,response,,,,,,,,,,,,,,,,consent,click button,,,21695.80000001192,21687.099999964237,696.941,690,713.601,21713.685,,,,{}
Demography form,html.Form,1,2023-11-17T18:28:08.825Z,,,18,,,,,,,,7774.214999976157,form submission,,,,,,,,,female,,,,,,,,,,,29488,29487.899999976158,21696.986,21696,21713.685,29496.995,,,,
Welcome,html.Screen,2,2023-11-17T18:28:55.642Z,,,,,,,"[""asym"",""col""]",,,,46806.10499996424,response,,,,,,,,,,,,,,,,continue,click button,,,76303.69999998808,76303.09999996424,29480.35,29488.099999964237,29496.995,76313.787,,,,
demo_instructions,html.Screen,3,2023-11-17T18:30:08.281Z,,,,,,,,,,,72629.41299998808,response,,,,,,,,,,,,,,,,continue,click button,,,148943.69999998808,148943.19999998808,76297.298,76303.89999997616,76313.787,148963.811,,,,
trial,html.Screen,4_0_0,2023-11-17T18:30:38.787Z,,,,0,1.2043484010107477,-1.2178113180138233,,,true,lh,30485.689000000013,response,-0.8479396253253069,1.2,-1.2,1.011054319516718,1.2,-1.2,low,high,,ISIC_0011917.JPG,,ISIC_0063521.JPG,29,true,0.3600000000000002,lh,keypress(e),100,false,179449.69999998808,179449.5,148930.48,148943.89999997616,148963.811,179480.531,1,16,1,
sequence,flow.Sequence,4_0,2023-11-17T18:30:38.787Z,,,,,,,,,,,30485.689000000013,completion,,,,,,,low,high,,,,,,true,,,,,false,179450.09999996424,179449.5,148930.48,148943.89999997616,148963.811,179480.531,1,16,,
trial,html.Screen,4_1_0,2023-11-17T18:30:53.626Z,,,,0,1.155796217969438,-1.1646564121743912,,,true,lh,14808.269000011933,response,-1.1224745971429997,1.2,-1.2,0.8423270217438888,1.2,-1.2,low,high,,ISIC_2685523.JPG,,ISIC_0057032.JPG,29,true,0.3600000000000002,lh,keypress(e),100,false,194288.89999997616,194288.80000001192,179463.891,179450.19999998808,179480.531,194313.885,1,16,2,
sequence,flow.Sequence,4_1,2023-11-17T18:30:53.627Z,,,,,,,,,,,14808.269000011933,completion,,,,,,,low,high,,,,,,true,,,,,false,194289.19999998808,194288.80000001192,179463.891,179450.19999998808,179480.531,194313.885,1,16,,
trial,html.Screen,4_2_0,2023-11-17T18:30:58.698Z,,,,0,1.1547137855907486,-1.0185275168641534,,,true,lh,5046.81499998807,response,-0.8479396253253069,1.2,-1.2,1.011054319516718,1.2,-1.2,low,high,,ISIC_7604870.JPG,,ISIC_0063521.JPG,29,true,0.3600000000000002,lh,keypress(e),100,false,199360.80000001192,199360.69999998808,194297.212,194289.30000001192,194313.885,199380.551,1,16,3,
sequence,flow.Sequence,4_2,2023-11-17T18:30:58.699Z,,,,,,,,,,,5046.81499998807,completion,,,,,,,low,high,,,,,,true,,,,,false,199361,199360.69999998808,194297.212,194289.30000001192,194313.885,199380.551,1,16,,
trial,html.Screen,4_3_0,2023-11-17T18:31:02.248Z,,,,0,1.1547137855907486,-1.0185275168641534,,,true,lh,3530.0489999642305,response,-1.411763789273233,1.2,-1.2,1.0057734478347988,1.2,-1.2,low,high,,ISIC_7604870.JPG,,ISIC_0027235.JPG,29,true,0.3600000000000002,lh,keypress(e),100,false,202910.80000001192,202910.59999996424,199363.883,199361,199380.551,202930.616,1,16,4,
sequence,flow.Sequence,4_3,2023-11-17T18:31:02.249Z,,,,,,,,,,,3530.0489999642305,completion,,,,,,,low,high,,,,,,true,,,,,false,202911.19999998808,202910.59999996424,199363.883,199361,199380.551,202930.616,1,16,,
trial,html.Screen,4_4_0,2023-11-17T18:31:19.295Z,,,,0,1.2435042401134029,1.2939710463315144,,,true,ll,17026.983999964228,response,-1.0730492496332733,1.2,-1.2,-1.0252626598876022,1.2,-1.2,low,low,,ISIC_0056119.JPG,,ISIC_0007029.JPG,127,true,0.3300000000000002,ll,keypress(f),100,false,219957.59999996424,219957.59999996424,202913.883,202911.30000001192,202930.616,219980.597,1,16,5,
sequence,flow.Sequence,4_4,2023-11-17T18:31:19.295Z,,,,,,,,,,,17026.983999964228,completion,,,,,,,low,low,,,,,,true,,,,,false,219957.80000001192,219957.59999996424,202913.883,202911.30000001192,202930.616,219980.597,1,16,,
trial,html.Screen,4_5_0,2023-11-17T18:31:24.677Z,,,,0,1.1474466950560966,1.173734476257662,,,true,ll,5358.802999976149,response,-1.3471772753257971,1.2,-1.2,-1.055978100098093,1.2,-1.2,low,low,,ISIC_5216586.JPG,,ISIC_2077116.JPG,25,true,0.15000000000000002,ll,keypress(f),100,false,225339.5,225339.39999997616,219963.931,219957.89999997616,219980.597,225363.889,1,16,6,
sequence,flow.Sequence,4_5,2023-11-17T18:31:24.677Z,,,,,,,,,,,5358.802999976149,completion,,,,,,,low,low,,,,,,true,,,,,false,225339.59999996424,225339.39999997616,219963.931,219957.80000001192,219980.597,225363.889,1,16,,
trial,html.Screen,4_6_0,2023-11-17T18:31:30.668Z,,,,0,1.3034518282811869,1.0897657776277234,,,true,ll,5966.010999976163,response,-1.0581281450494728,1.2,-1.2,-1.133169116569424,1.2,-1.2,low,low,,ISIC_0071988.JPG,,ISIC_5490352.JPG,25,true,0.15000000000000002,ll,keypress(f),100,false,231330.09999996424,231329.89999997616,225347.248,225339.69999998808,225363.889,231347.288,1,16,7,
sequence,flow.Sequence,4_6,2023-11-17T18:31:30.668Z,,,,,,,,,,,5966.010999976163,completion,,,,,,,low,low,,,,,,true,,,,,false,231330.30000001192,231329.89999997616,225347.248,225339.69999998808,225363.889,231347.288,1,16,,
trial,html.Screen,4_7_0,2023-11-17T18:31:36.595Z,,,,0,1.1671212908494544,1.1286681796701683,,,true,ll,5910.0120000119205,response,-1.1638334638021437,1.2,-1.2,-1.0846635401396965,1.2,-1.2,low,low,,ISIC_0065022.JPG,,ISIC_4718313.JPG,25,true,0.15000000000000002,ll,keypress(f),100,false,237257.30000001192,237257.30000001192,231330.657,231330.39999997616,231347.288,237280.551,1,16,8,
sequence,flow.Sequence,4_7,2023-11-17T18:31:36.595Z,,,,,,,,,,,5910.0120000119205,completion,,,,,,,low,low,,,,,,true,,,,,false,237257.5,237257.30000001192,231330.657,231330.39999997616,231347.288,237280.551,1,16,,
trial,html.Screen,4_8_0,2023-11-17T18:31:43.081Z,,,,0,-0.9445114955578736,1.0054210059625863,,,false,hl,6462.848999976151,response,1.2704198237183777,1.2,-1.2,-1.138121072015301,1.2,-1.2,high,low,,ISIC_0033807.JPG,,ISIC_0501843.JPG,26,true,0.3300000000000002,hh,keypress(i),100,false,243743.5,243743.39999997616,237263.955,237257.5,237280.551,243763.927,1,16,9,
sequence,flow.Sequence,4_8,2023-11-17T18:31:43.081Z,,,,,,,,,,,6462.848999976151,completion,,,,,,,high,low,,,,,,true,,,,,false,243743.80000001192,243743.39999997616,237263.955,237257.5,237280.551,243763.927,1,16,,
trial,html.Screen,4_9_0,2023-11-17T18:31:46.979Z,,,,0,-1.3515962101204746,0.8414583575292955,,,false,hl,3877.472999976162,response,0.9670240379618178,1.2,-1.2,-1.1806404773220665,1.2,-1.2,high,low,,ISIC_0274382.JPG,,ISIC_0002288.JPG,33,true,0.3600000000000002,hh,keypress(i),100,false,247641.5,247641.39999997616,243747.277,243744,243763.927,247663.971,1,16,10,
sequence,flow.Sequence,4_9,2023-11-17T18:31:46.979Z,,,,,,,,,,,3877.472999976162,completion,,,,,,,high,low,,,,,,true,,,,,false,247641.69999998808,247641.39999997616,243747.277,243744,243763.927,247663.971,1,16,,
trial,html.Screen,4_10_0,2023-11-17T18:31:50.391Z,,,,0,-0.8644465729542988,0.8679598285079457,,,false,hl,3388.7289999880886,response,0.8709576717420565,1.2,-1.2,-1.2795156779072283,1.2,-1.2,high,low,,ISIC_6718969.JPG,,ISIC_1925632.JPG,33,true,0.3600000000000002,hh,keypress(i),100,false,251052.89999997616,251052.69999998808,247647.29,247641.80000001192,247663.971,251080.578,1,16,11,
sequence,flow.Sequence,4_10,2023-11-17T18:31:50.391Z,,,,,,,,,,,3388.7289999880886,completion,,,,,,,high,low,,,,,,true,,,,,false,251053.39999997616,251052.69999998808,247647.29,247641.80000001192,247663.971,251080.578,1,16,,
trial,html.Screen,4_11_0,2023-11-17T18:32:09.508Z,,,,0,-1.3559315773956395,0.924768326187701,,,true,hl,19088.62199998807,response,1.296989496412063,1.2,-1.2,-1.1425074323097002,1.2,-1.2,high,low,,ISIC_5101111.JPG,,ISIC_6356803.JPG,33,true,0.3600000000000002,hl,keypress(j),100,false,270169.39999997616,270169.1999999881,251063.973,251053.5,251080.578,270197.309,1,16,12,
sequence,flow.Sequence,4_11,2023-11-17T18:32:09.508Z,,,,,,,,,,,19088.62199998807,completion,,,,,,,high,low,,,,,,true,,,,,false,270169.6999999881,270169.1999999881,251063.973,251053.39999997616,251080.578,270197.309,1,16,,
trial,html.Screen,4_12_0,2023-11-17T18:32:22.767Z,,,,0,-1.1642596483638106,-1.091507924157762,,,true,hh,13231.09099997615,response,1.078286816527963,1.2,-1.2,1.1255116193013075,1.2,-1.2,high,high,,ISIC_0765584.JPG,,ISIC_0066213.JPG,249,true,0.3600000000000002,hh,keypress(i),100,false,283428.5,283428.39999997616,270180.709,270169.89999997616,270197.309,283447.387,1,16,13,
sequence,flow.Sequence,4_12,2023-11-17T18:32:22.767Z,,,,,,,,,,,13231.09099997615,completion,,,,,,,high,high,,,,,,true,,,,,false,283428.8000000119,283428.39999997616,270180.709,270169.89999997616,270197.309,283447.387,1,16,,
trial,html.Screen,4_13_0,2023-11-17T18:32:27.095Z,,,,0,-1.1642596483638106,-1.091507924157762,,,true,hh,4309.212999964249,response,1.1126049058422398,1.2,-1.2,1.2305421124063929,1.2,-1.2,high,high,,ISIC_0765584.JPG,,ISIC_0071536.JPG,41,true,0.15000000000000002,hh,keypress(i),100,false,287756.89999997616,287756.59999996424,283430.682,283428.8000000119,283447.387,287780.687,1,16,14,
sequence,flow.Sequence,4_13,2023-11-17T18:32:27.096Z,,,,,,,,,,,4309.212999964249,completion,,,,,,,high,high,,,,,,true,,,,,false,287757.39999997616,287756.59999996424,283430.682,283428.8000000119,283447.387,287780.687,1,16,,
trial,html.Screen,4_14_0,2023-11-17T18:32:31.396Z,,,,0,-1.1168199061753437,-1.212287319329914,,,true,hh,4276.613000011945,response,1.1407514641016443,1.2,-1.2,1.280017651202714,1.2,-1.2,high,high,,ISIC_5919355.JPG,,ISIC_0072507.JPG,41,true,0.15000000000000002,hh,keypress(i),100,false,292057.39999997616,292057.3000000119,287764.043,287757.5,287780.687,292080.691,1,16,15,
sequence,flow.Sequence,4_14,2023-11-17T18:32:31.396Z,,,,,,,,,,,4276.613000011945,completion,,,,,,,high,high,,,,,,true,,,,,false,292057.59999996424,292057.3000000119,287764.043,287757.39999997616,287780.687,292080.691,1,16,,
trial,html.Screen,4_15_0,2023-11-17T18:32:35.049Z,,,,0,-1.0581281450494728,-1.133169116569424,,,true,hh,3629.6090000119293,response,1.2040551955011098,1.2,-1.2,1.2664651062241792,1.2,-1.2,high,high,,ISIC_5490352.JPG,,ISIC_0068886.JPG,41,true,0.15000000000000002,hh,keypress(i),100,false,295710.5,295710.3000000119,292064.181,292057.59999996424,292080.691,295730.927,1,16,16,
sequence,flow.Sequence,4_15,2023-11-17T18:32:35.049Z,,,,,,,,,,,3629.6090000119293,completion,,,,,,,high,high,,,,,,true,,,,,false,295710.6999999881,295710.3000000119,292064.181,292057.59999996424,292080.691,295730.927,1,16,,
demonstration_loop,flow.Loop,4,2023-11-17T18:32:35.049Z,,,,,,,,,,,146746.48900001193,completion,,,,,,,,,,,,,,true,,,,,false,295710.89999997616,295710.3000000119,148930.48,148943.89999997616,148963.811,295730.927,1,16,,
practice_instructions,html.Screen,5,2023-11-17T18:32:58.034Z,,,,,,,,,,,22956.272999988054,response,,,,,,,,,,,,,,,,continue,click button,,,318695.3000000119,318687.1999999881,295714.048,295710.89999997616,295730.927,318714.043,,,,
trial,html.Screen,6_0_0,2023-11-17T18:33:12.331Z,,,,1,1.0264463986917702,-1.171271535505083,,,true,lh,14278.156999988074,response,-1.4727776799485246,1.2,-1.2,0.8779113138076752,1.2,-1.2,low,high,,ISIC_7889838.JPG,,ISIC_0033074.JPG,29,true,0.3600000000000002,lh,keypress(e),0,false,332992.3000000119,332992.1999999881,318680.935,318695.39999997616,318714.043,333014.098,1,40,1,
sequence,flow.Sequence,6_0,2023-11-17T18:33:12.331Z,,,,,,,,,,,14278.156999988074,completion,,,,,,,low,high,,,,,,true,,,,,false,332992.5,332992.1999999881,318680.935,318695.39999997616,318714.043,333014.098,1,40,,
trial,html.Screen,6_1_0,2023-11-17T18:33:21.026Z,,,,1,1.089914260719518,1.1695563571046357,,,true,ll,8673.702000011923,response,-1.2697143823582573,1.2,-1.2,-0.9945790725150012,1.2,-1.2,low,low,,ISIC_0030695.JPG,,ISIC_8909545.JPG,127,true,0.3300000000000002,ll,keypress(f),0,false,341688,341687.8000000119,332997.373,332992.5,333014.098,341697.375,1,40,2,
sequence,flow.Sequence,6_1,2023-11-17T18:33:21.027Z,,,,,,,,,,,8673.702000011923,completion,,,,,,,low,low,,,,,,true,,,,,false,341688.1999999881,341687.8000000119,332997.373,332992.5,333014.098,341697.375,1,40,,
trial,html.Screen,6_2_0,2023-11-17T18:33:25.746Z,,,,1,1.2059606637811695,1.214966446488752,,,true,ll,4710.524999976158,response,-1.1727618800748076,1.2,-1.2,-1.0636787813411093,1.2,-1.2,low,low,,ISIC_0013334.JPG,,ISIC_9690371.JPG,25,true,0.15000000000000002,ll,keypress(f),0,false,346407.89999997616,346407.89999997616,341680.669,341688.3000000119,341697.375,346414.048,1,40,3,
sequence,flow.Sequence,6_2,2023-11-17T18:33:25.747Z,,,,,,,,,,,4710.524999976158,completion,,,,,,,low,low,,,,,,true,,,,,false,346408.09999996424,346407.89999997616,341680.669,341688.3000000119,341697.375,346414.048,1,40,,
trial,html.Screen,6_3_0,2023-11-17T18:33:36.170Z,,,,1,0.887838744955182,-1.3716210719758812,,,true,lh,10417.65199998807,response,-1.0143509683988825,1.2,-1.2,1.0281980567462463,1.2,-1.2,low,high,,ISIC_1488727.JPG,,ISIC_0062031.JPG,29,true,0.3600000000000002,lh,keypress(e),0,false,356831.8000000119,356831.6999999881,346397.292,346408.09999996424,346414.048,356847.408,1,40,4,
sequence,flow.Sequence,6_3,2023-11-17T18:33:36.170Z,,,,,,,,,,,10417.65199998807,completion,,,,,,,low,high,,,,,,true,,,,,false,356831.89999997616,356831.6999999881,346397.292,346408.09999996424,346414.048,356847.408,1,40,,
trial,html.Screen,6_4_0,2023-11-17T18:33:50.019Z,,,,1,-1.00615481805876,0.8428903771195875,,,true,hl,13832.991999976162,response,1.055319394932912,1.2,-1.2,-1.409116680310466,1.2,-1.2,high,low,,ISIC_0069970.JPG,,ISIC_6398669.JPG,26,true,0.3300000000000002,hl,keypress(j),0,false,370680.59999996424,370680.39999997616,356830.364,356831.89999997616,356847.408,370697.473,1,40,5,
sequence,flow.Sequence,6_4,2023-11-17T18:33:50.019Z,,,,,,,,,,,13832.991999976162,completion,,,,,,,high,low,,,,,,true,,,,,false,370680.8000000119,370680.39999997616,356830.364,356831.89999997616,356847.408,370697.473,1,40,,
trial,html.Screen,6_5_0,2023-11-17T18:33:58.060Z,,,,1,-0.8644465729542988,0.8679598285079457,,,true,hl,8023.126999964239,response,0.9046170303418553,1.2,-1.2,-1.0063426986460375,1.2,-1.2,high,low,,ISIC_6718969.JPG,,ISIC_0055759.JPG,33,true,0.3600000000000002,hl,keypress(j),0,false,378720.89999997616,378720.59999996424,370680.443,370681,370697.473,378747.488,1,40,6,
sequence,flow.Sequence,6_5,2023-11-17T18:33:58.060Z,,,,,,,,,,,8023.126999964239,completion,,,,,,,high,low,,,,,,true,,,,,false,378721.1999999881,378720.59999996424,370680.443,370680.89999997616,370697.473,378747.488,1,40,,
trial,html.Screen,6_6_0,2023-11-17T18:34:02.156Z,,,,1,1.0748728054622358,-1.2840853987892311,,,true,lh,4069.011999999988,response,-1.2838089642212804,1.2,-1.2,0.8550527900640753,1.2,-1.2,low,high,,ISIC_0059219.JPG,,ISIC_0034187.JPG,29,true,0.3600000000000002,lh,keypress(e),0,false,382816.6999999881,382816.5,378713.814,378721.39999997616,378747.488,382830.825,1,40,7,
sequence,flow.Sequence,6_6,2023-11-17T18:34:02.156Z,,,,,,,,,,,4069.011999999988,completion,,,,,,,low,high,,,,,,true,,,,,false,382817,382816.5,378713.814,378721.39999997616,378747.488,382830.825,1,40,,
trial,html.Screen,6_7_0,2023-11-17T18:34:07.274Z,,,,1,0.9873794329144926,-0.9500689037516484,,,true,lh,5104.5749999761465,response,-1.411763789273233,1.2,-1.2,1.0057734478347988,1.2,-1.2,low,high,,ISIC_0013498.JPG,,ISIC_0027235.JPG,29,true,0.3600000000000002,lh,keypress(e),0,false,387935.59999996424,387935.39999997616,382814.056,382817.1999999881,382830.825,387947.469,1,40,8,
sequence,flow.Sequence,6_7,2023-11-17T18:34:07.275Z,,,,,,,,,,,5104.5749999761465,completion,,,,,,,low,high,,,,,,true,,,,,false,387935.6999999881,387935.39999997616,382814.056,382817.1999999881,382830.825,387947.469,1,40,,
trial,html.Screen,6_8_0,2023-11-17T18:34:14.132Z,,,,1,-1.4748095371445096,0.9579010801034902,,,true,hl,6845.331000011938,response,1.055319394932912,1.2,-1.2,-1.409116680310466,1.2,-1.2,high,low,,ISIC_0033216.JPG,,ISIC_6398669.JPG,26,true,0.3300000000000002,hl,keypress(j),0,false,394793.09999996424,394792.8000000119,387930.764,387935.6999999881,387947.469,394814.165,1,40,9,
sequence,flow.Sequence,6_8,2023-11-17T18:34:14.132Z,,,,,,,,,,,6845.331000011938,completion,,,,,,,high,low,,,,,,true,,,,,false,394793.39999997616,394792.8000000119,387930.764,387935.6999999881,387947.469,394814.165,1,40,,
trial,html.Screen,6_9_0,2023-11-17T18:34:22.923Z,,,,1,-1.064425982109969,0.958564243697126,,,true,hl,8770.135000011942,response,1.2463522959513311,1.2,-1.2,-0.8691422647859491,1.2,-1.2,high,low,,ISIC_3203344.JPG,,ISIC_0057192.JPG,33,true,0.3600000000000002,hl,keypress(j),0,false,403584.39999997616,403584.3000000119,394780.782,394793.5,394814.165,403597.481,1,40,10,
sequence,flow.Sequence,6_9,2023-11-17T18:34:22.924Z,,,,,,,,,,,8770.135000011942,completion,,,,,,,high,low,,,,,,true,,,,,false,403584.6999999881,403584.3000000119,394780.782,394793.5,394814.165,403597.481,1,40,,
trial,html.Screen,6_10_0,2023-11-17T18:34:25.811Z,,,,1,-1.2838089642212804,0.8550527900640753,,,true,hl,2874.1189999642083,response,1.052305774554686,1.2,-1.2,-1.3940181224717798,1.2,-1.2,high,low,,ISIC_0034187.JPG,,ISIC_4175400.JPG,33,true,0.3600000000000002,hl,keypress(j),0,false,406471.6999999881,406471.59999996424,403580.589,403584.6999999881,403597.481,406480.799,1,40,11,
sequence,flow.Sequence,6_10,2023-11-17T18:34:25.811Z,,,,,,,,,,,2874.1189999642083,completion,,,,,,,high,low,,,,,,true,,,,,false,406471.8000000119,406471.59999996424,403580.589,403584.6999999881,403597.481,406480.799,1,40,,
trial,html.Screen,6_11_0,2023-11-17T18:34:37.972Z,,,,1,0.8709576717420565,-1.2795156779072283,,,true,lh,12151.90099998808,response,-1.0003671514840182,1.2,-1.2,0.8992716557663581,1.2,-1.2,low,high,,ISIC_1925632.JPG,,ISIC_0061749.JPG,29,true,0.3600000000000002,lh,keypress(e),0,false,418632.89999997616,418632.6999999881,406464.158,406471.89999997616,406480.799,418647.604,1,40,12,
sequence,flow.Sequence,6_11,2023-11-17T18:34:37.972Z,,,,,,,,,,,12151.90099998808,completion,,,,,,,low,high,,,,,,true,,,,,false,418633.3000000119,418632.6999999881,406464.158,406471.89999997616,406480.799,418647.604,1,40,,
trial,html.Screen,6_12_0,2023-11-17T18:34:50.796Z,,,,1,1.2059606637811695,1.214966446488752,,,true,ll,12809.295999976166,response,-0.9487751044258608,1.2,-1.2,-0.9230722071334148,1.2,-1.2,low,low,,ISIC_0013334.JPG,,ISIC_4568084.JPG,127,true,0.3300000000000002,ll,keypress(f),0,false,431457.3000000119,431456.89999997616,418630.492,418633.5,418647.604,431480.864,1,40,13,
sequence,flow.Sequence,6_12,2023-11-17T18:34:50.797Z,,,,,,,,,,,12809.295999976166,completion,,,,,,,low,low,,,,,,true,,,,,false,431457.59999996424,431456.89999997616,418630.492,418633.5,418647.604,431480.864,1,40,,
trial,html.Screen,6_13_0,2023-11-17T18:34:56.426Z,,,,1,-1.2838089642212804,0.8550527900640753,,,true,hl,5606.535999976157,response,0.887838744955182,1.2,-1.2,-1.3716210719758812,1.2,-1.2,high,low,,ISIC_0034187.JPG,,ISIC_1488727.JPG,26,true,0.3300000000000002,hl,keypress(j),0,false,437087.5,437087.39999997616,431447.078,431457.89999997616,431480.864,437097.612,1,40,14,
sequence,flow.Sequence,6_13,2023-11-17T18:34:56.426Z,,,,,,,,,,,5606.535999976157,completion,,,,,,,high,low,,,,,,true,,,,,false,437087.59999996424,437087.39999997616,431447.078,431457.8000000119,431480.864,437097.612,1,40,,
trial,html.Screen,6_14_0,2023-11-17T18:35:07.324Z,,,,1,-1.1604734171556077,-1.0789312625280616,,,true,hh,10886.787999976135,response,1.150547408535662,1.2,-1.2,0.8583307645354866,1.2,-1.2,high,high,,ISIC_3950753.JPG,,ISIC_0072568.JPG,249,true,0.3600000000000002,hh,keypress(i),0,false,447984.59999996424,447984.39999997616,437080.714,437087.59999996424,437097.612,447997.517,1,40,15,
sequence,flow.Sequence,6_14,2023-11-17T18:35:07.324Z,,,,,,,,,,,10886.787999976135,completion,,,,,,,high,high,,,,,,true,,,,,false,447984.8000000119,447984.39999997616,437080.714,437087.59999996424,437097.612,447997.517,1,40,,
trial,html.Screen,6_15_0,2023-11-17T18:35:12.051Z,,,,1,-1.225025174430573,0.8422679054456499,,,true,hl,4714.582999964245,response,1.0961318727760048,1.2,-1.2,-1.2134960228256146,1.2,-1.2,high,low,,ISIC_7503950.JPG,,ISIC_9768421.JPG,26,true,0.3300000000000002,hl,keypress(j),0,false,452712.1999999881,452712.09999996424,447980.607,447985,447997.517,452730.89,1,40,16,
sequence,flow.Sequence,6_15,2023-11-17T18:35:12.051Z,,,,,,,,,,,4714.582999964245,completion,,,,,,,high,low,,,,,,true,,,,,false,452712.5,452712.09999996424,447980.607,447984.89999997616,447997.517,452730.89,1,40,,
trial,html.Screen,6_16_0,2023-11-17T18:35:16.923Z,,,,1,1.155796217969438,-1.1646564121743912,,,true,lh,4853.309999988065,response,-0.8644465729542988,1.2,-1.2,0.8679598285079457,1.2,-1.2,low,high,,ISIC_2685523.JPG,,ISIC_6718969.JPG,29,true,0.3600000000000002,lh,keypress(e),0,false,457584.39999997616,457584.1999999881,452697.612,452712.5,452730.89,457597.58,1,40,17,
sequence,flow.Sequence,6_16,2023-11-17T18:35:16.924Z,,,,,,,,,,,4853.309999988065,completion,,,,,,,low,high,,,,,,true,,,,,false,457584.59999996424,457584.1999999881,452697.612,452712.5,452730.89,457597.58,1,40,,
trial,html.Screen,6_17_0,2023-11-17T18:35:30.781Z,,,,1,0.8709576717420565,-1.2795156779072283,,,true,lh,13843.519999964221,response,-0.8644465729542988,1.2,-1.2,0.8679598285079457,1.2,-1.2,low,high,,ISIC_1925632.JPG,,ISIC_6718969.JPG,29,true,0.3600000000000002,lh,keypress(e),0,false,471441.5,471441.09999996424,457580.776,457584.6999999881,457597.58,471447.565,1,40,18,
sequence,flow.Sequence,6_17,2023-11-17T18:35:30.781Z,,,,,,,,,,,13843.519999964221,completion,,,,,,,low,high,,,,,,true,,,,,false,471442.1999999881,471441.09999996424,457580.776,457584.6999999881,457597.58,471447.565,1,40,,
trial,html.Screen,6_18_0,2023-11-17T18:35:37.251Z,,,,1,-1.1604734171556077,-1.0789312625280616,,,true,hh,6464.134999988077,response,1.0917349644156236,1.2,-1.2,0.9202593988538142,1.2,-1.2,high,high,,ISIC_3950753.JPG,,ISIC_0034059.JPG,211,true,0.3300000000000002,hh,keypress(i),0,false,477911.8000000119,477911.6999999881,471430.511,471442.5,471447.565,477930.914,1,40,19,
sequence,flow.Sequence,6_18,2023-11-17T18:35:37.251Z,,,,,,,,,,,6464.134999988077,completion,,,,,,,high,high,,,,,,true,,,,,false,477911.89999997616,477911.6999999881,471430.511,471442.5,471447.565,477930.914,1,40,,
trial,html.Screen,6_19_0,2023-11-17T18:35:45.867Z,,,,1,1.082730232773217,-0.8833175387485132,,,true,lh,8597.185999964247,response,-1.1224745971429997,1.2,-1.2,0.8423270217438888,1.2,-1.2,low,high,,ISIC_0011933.JPG,,ISIC_0057032.JPG,29,true,0.3600000000000002,lh,keypress(e),0,false,486528.1999999881,486528.09999996424,477897.487,477912,477930.914,486530.951,1,40,20,
sequence,flow.Sequence,6_19,2023-11-17T18:35:45.867Z,,,,,,,,,,,8597.185999964247,completion,,,,,,,low,high,,,,,,true,,,,,false,486528.39999997616,486528.09999996424,477897.487,477912,477930.914,486530.951,1,40,,
trial,html.Screen,6_20_0,2023-11-17T18:35:54.764Z,,,,1,1.2435042401134029,1.2939710463315144,,,true,ll,8893.548999999999,response,-0.9371720357162444,1.2,-1.2,-0.9507421943628228,1.2,-1.2,low,low,,ISIC_0056119.JPG,,ISIC_3730327.JPG,127,true,0.3300000000000002,ll,keypress(f),0,false,495424.59999996424,495424.5,486514.037,486528.5,486530.951,495430.993,1,40,21,
sequence,flow.Sequence,6_20,2023-11-17T18:35:54.764Z,,,,,,,,,,,8893.548999999999,completion,,,,,,,low,low,,,,,,true,,,,,false,495425,495424.5,486514.037,486528.5,486530.951,495430.993,1,40,,
trial,html.Screen,6_21_0,2023-11-17T18:36:00.243Z,,,,1,-1.1655508270784471,-1.1162776063248168,,,true,hh,5472.906999976141,response,1.2289750544294995,1.2,-1.2,1.3003764624334877,1.2,-1.2,high,high,,ISIC_5509946.JPG,,ISIC_0054167.JPG,27,true,0.12,hh,keypress(i),0,false,500904,500903.89999997616,495414.04,495425.09999996424,495430.993,500914.244,1,40,22,
sequence,flow.Sequence,6_21,2023-11-17T18:36:00.243Z,,,,,,,,,,,5472.906999976141,completion,,,,,,,high,high,,,,,,true,,,,,false,500904.1999999881,500903.89999997616,495414.04,495425,495430.993,500914.244,1,40,,
trial,html.Screen,6_22_0,2023-11-17T18:36:06.011Z,,,,1,1.2232482867978696,1.2451219760556858,,,true,ll,5757.355999964231,response,-1.073296525451802,1.2,-1.2,-1.3454282740421717,1.2,-1.2,low,low,,ISIC_0030889.JPG,,ISIC_5787312.JPG,25,true,0.15000000000000002,ll,keypress(f),0,false,506671.6999999881,506671.59999996424,500897.546,500904.3000000119,500914.244,506680.911,1,40,23,
sequence,flow.Sequence,6_22,2023-11-17T18:36:06.011Z,,,,,,,,,,,5757.355999964231,completion,,,,,,,low,low,,,,,,true,,,,,false,506672,506671.59999996424,500897.546,500904.3000000119,500914.244,506680.911,1,40,,
trial,html.Screen,6_23_0,2023-11-17T18:36:12.891Z,,,,1,-1.3045229691102764,-1.1781544075681951,,,true,hh,6871.088999999978,response,1.2315945866020412,1.2,-1.2,1.13226141421557,1.2,-1.2,high,high,,ISIC_6148533.JPG,,ISIC_0033595.JPG,27,true,0.12,hh,keypress(i),0,false,513552.09999996424,513552,506664.101,506672.09999996424,506680.911,513564.294,1,40,24,
sequence,flow.Sequence,6_23,2023-11-17T18:36:12.891Z,,,,,,,,,,,6871.088999999978,completion,,,,,,,high,high,,,,,,true,,,,,false,513552.3000000119,513552,506664.101,506672.09999996424,506680.911,513564.294,1,40,,
trial,html.Screen,6_24_0,2023-11-17T18:36:20.387Z,,,,1,0.9873794329144926,-0.9500689037516484,,,true,lh,7483.805999964243,response,-1.1235224875125256,1.2,-1.2,0.8641223012137988,1.2,-1.2,low,high,,ISIC_0013498.JPG,,ISIC_0033901.JPG,29,true,0.3600000000000002,lh,keypress(e),0,false,521048.1999999881,521048.09999996424,513547.629,513552.39999997616,513564.294,521064.459,1,40,25,
sequence,flow.Sequence,6_24,2023-11-17T18:36:20.388Z,,,,,,,,,,,7483.805999964243,completion,,,,,,,low,high,,,,,,true,,,,,false,521048.5,521048.09999996424,513547.629,513552.39999997616,513564.294,521064.459,1,40,,
trial,html.Screen,6_25_0,2023-11-17T18:36:26.260Z,,,,1,1.1715181192107684,1.2251845559044463,,,true,ll,5856.140999964264,response,-1.4076170529882488,1.2,-1.2,-1.2895723530339247,1.2,-1.2,low,low,,ISIC_0011957.JPG,,ISIC_8545097.JPG,127,true,0.3300000000000002,ll,keypress(f),0,false,526920.8000000119,526920.5999999642,521047.385,521048.59999996424,521064.459,526930.959,1,40,26,
sequence,flow.Sequence,6_25,2023-11-17T18:36:26.260Z,,,,,,,,,,,5856.140999964264,completion,,,,,,,low,low,,,,,,true,,,,,false,526921.1999999881,526920.5999999642,521047.385,521048.59999996424,521064.459,526930.959,1,40,,
trial,html.Screen,6_26_0,2023-11-17T18:36:32.635Z,,,,1,-1.1890109863264902,0.8867825318561365,,,false,hl,6365.040999999968,response,0.9225524349657857,1.2,-1.2,-0.929746784178986,1.2,-1.2,high,low,,ISIC_0072576.JPG,,ISIC_0011077.JPG,26,true,0.3300000000000002,hh,keypress(i),0,false,533296.0999999642,533296,526914.282,526921.3999999762,526930.959,533315.454,1,40,27,
sequence,flow.Sequence,6_26,2023-11-17T18:36:32.636Z,,,,,,,,,,,6365.040999999968,completion,,,,,,,high,low,,,,,,true,,,,,false,533296.3000000119,533296,526914.282,526921.3000000119,526930.959,533315.454,1,40,,
trial,html.Screen,6_27_0,2023-11-17T18:36:48.638Z,,,,1,-1.0885984639975343,-1.2042618719491294,,,,,16032.33600000001,timeout,1.2872758518949912,1.2,-1.2,1.313723254903214,1.2,-1.2,high,high,,ISIC_0012740.JPG,,ISIC_0064376.JPG,249,true,0.3600000000000002,,,0,false,549298.5999999642,549298.3999999762,533280.796,533296.3000000119,533315.454,549347.79,1,40,28,
sequence,flow.Sequence,6_27,2023-11-17T18:36:48.638Z,,,,,,,,,,,15982.945999976131,completion,,,,,,,high,high,,,,,,true,,,,,false,549299,549298.3999999762,533280.796,533296.3000000119,533315.454,549347.79,1,40,,
trial,html.Screen,6_28_0,2023-11-17T18:36:55.860Z,,,,1,-1.2615315960773072,1.194084675079932,,,true,hl,7172.510000011884,response,1.2609895831255231,1.2,-1.2,-1.0687377724194886,1.2,-1.2,high,low,,ISIC_0010044.JPG,,ISIC_1367610.JPG,26,true,0.3300000000000002,hl,keypress(j),0,false,556520.3999999762,556520.3000000119,549331.014,549299.0999999642,549347.79,556531,1,40,29,
sequence,flow.Sequence,6_28,2023-11-17T18:36:55.860Z,,,,,,,,,,,7172.510000011884,completion,,,,,,,high,low,,,,,,true,,,,,false,556520.6999999881,556520.3000000119,549331.014,549299.0999999642,549347.79,556531,1,40,,
trial,html.Screen,6_29_0,2023-11-17T18:37:02.587Z,,,,1,-1.1510001454240106,-1.132540312667795,,,true,hh,6716.599999964237,response,0.918811733700349,1.2,-1.2,0.8487727309970138,1.2,-1.2,high,high,,ISIC_0009959.JPG,,ISIC_0028152.JPG,249,true,0.3600000000000002,hh,keypress(i),0,false,563247.8000000119,563247.5999999642,556514.285,556520.8000000119,556531,563264.363,1,40,30,
sequence,flow.Sequence,6_29,2023-11-17T18:37:02.587Z,,,,,,,,,,,6716.599999964237,completion,,,,,,,high,high,,,,,,true,,,,,false,563247.8999999762,563247.5999999642,556514.285,556520.6999999881,556531,563264.363,1,40,,
trial,html.Screen,6_30_0,2023-11-17T18:37:08.635Z,,,,1,-0.9385447468573198,1.2289860846064424,,,true,hl,6031.536999976146,response,0.887838744955182,1.2,-1.2,-1.3716210719758812,1.2,-1.2,high,low,,ISIC_0032780.JPG,,ISIC_1488727.JPG,26,true,0.3300000000000002,hl,keypress(j),0,false,569296,569295.8999999762,563247.698,563247.8999999762,563264.363,569297.7,1,40,31,
sequence,flow.Sequence,6_30,2023-11-17T18:37:08.635Z,,,,,,,,,,,6031.536999976146,completion,,,,,,,high,low,,,,,,true,,,,,false,569296.0999999642,569295.8999999762,563247.698,563247.8999999762,563264.363,569297.7,1,40,,
trial,html.Screen,6_31_0,2023-11-17T18:37:15.163Z,,,,1,1.2055236989581275,1.1960893075698802,,,true,ll,6525.999999988126,response,-0.9584046290108544,1.2,-1.2,-1.2089382903602173,1.2,-1.2,low,low,,ISIC_0072393.JPG,,ISIC_4874581.JPG,157,true,0.3600000000000002,ll,keypress(f),0,false,575823.8000000119,575823.6999999881,569280.985,569296.0999999642,569297.7,575831.043,1,40,32,
sequence,flow.Sequence,6_31,2023-11-17T18:37:15.163Z,,,,,,,,,,,6525.999999988126,completion,,,,,,,low,low,,,,,,true,,,,,false,575824,575823.6999999881,569280.985,569296.0999999642,569297.7,575831.043,1,40,,
trial,html.Screen,6_32_0,2023-11-17T18:37:20.772Z,,,,1,1.0748728054622358,-1.2840853987892311,,,true,lh,5601.656999988132,response,-0.8534691366511764,1.2,-1.2,1.276663727068437,1.2,-1.2,low,high,,ISIC_0059219.JPG,,ISIC_0056788.JPG,29,true,0.3600000000000002,lh,keypress(e),0,false,581432.8999999762,581432.6999999881,575814.189,575824.0999999642,575831.043,581447.776,1,40,33,
sequence,flow.Sequence,6_32,2023-11-17T18:37:20.773Z,,,,,,,,,,,5601.656999988132,completion,,,,,,,low,high,,,,,,true,,,,,false,581433.1999999881,581432.6999999881,575814.189,575824.0999999642,575831.043,581447.776,1,40,,
trial,html.Screen,6_33_0,2023-11-17T18:37:26.213Z,,,,1,1.189469386514313,1.3008582067137853,,,true,ll,5425.123999976204,response,-1.011737552725394,1.2,-1.2,-1.0893360711742854,1.2,-1.2,low,low,,ISIC_0010644.JPG,,ISIC_2998367.JPG,127,true,0.3300000000000002,ll,keypress(f),0,false,586873.1999999881,586872.8999999762,581430.933,581433.3999999762,581447.776,586881.116,1,40,34,
sequence,flow.Sequence,6_33,2023-11-17T18:37:26.213Z,,,,,,,,,,,5425.123999976204,completion,,,,,,,low,low,,,,,,true,,,,,false,586873.5,586872.8999999762,581430.933,581433.3000000119,581447.776,586881.116,1,40,,
trial,html.Screen,6_34_0,2023-11-17T18:37:33.212Z,,,,1,-1.1604734171556077,-1.0789312625280616,,,true,hh,6991.583999988041,response,1.3132505134129506,1.2,-1.2,1.0949928516457437,1.2,-1.2,high,high,,ISIC_3950753.JPG,,ISIC_0066935.JPG,27,true,0.12,hh,keypress(i),0,false,593872.8000000119,593872.6999999881,586864.362,586873.6999999881,586881.116,593881.129,1,40,35,
sequence,flow.Sequence,6_34,2023-11-17T18:37:33.213Z,,,,,,,,,,,6991.583999988041,completion,,,,,,,high,high,,,,,,true,,,,,false,593873.1999999881,593872.6999999881,586864.362,586873.6999999881,586881.116,593881.129,1,40,,
trial,html.Screen,6_35_0,2023-11-17T18:37:37.124Z,,,,1,-1.1642596483638106,-1.091507924157762,,,true,hh,3903.070999988122,response,1.152619213055059,1.2,-1.2,1.2957497771092716,1.2,-1.2,high,high,,ISIC_0765584.JPG,,ISIC_0061915.JPG,41,true,0.15000000000000002,hh,keypress(i),0,false,597784.3000000119,597784.1999999881,593864.221,593873.3999999762,593881.129,597797.769,1,40,36,
sequence,flow.Sequence,6_35,2023-11-17T18:37:37.124Z,,,,,,,,,,,3903.070999988122,completion,,,,,,,high,high,,,,,,true,,,,,false,597784.5999999642,597784.1999999881,593864.221,593873.3000000119,593881.129,597797.769,1,40,,
trial,html.Screen,6_36_0,2023-11-17T18:37:40.260Z,,,,1,-1.0581281450494728,-1.133169116569424,,,true,hh,3122.53100001195,response,1.3271122559811526,1.2,-1.2,1.292001792497521,1.2,-1.2,high,high,,ISIC_5490352.JPG,,ISIC_0065181.JPG,41,true,0.15000000000000002,hh,keypress(i),0,false,600920.5,600920.3000000119,597780.969,597784.5999999642,597797.769,600931.133,1,40,37,
sequence,flow.Sequence,6_36,2023-11-17T18:37:40.260Z,,,,,,,,,,,3122.53100001195,completion,,,,,,,high,high,,,,,,true,,,,,false,600920.6999999881,600920.3000000119,597780.969,597784.5999999642,597797.769,600931.133,1,40,,
trial,html.Screen,6_37_0,2023-11-17T18:37:46.108Z,,,,1,1.2232482867978696,1.2451219760556858,,,true,ll,5836.866999999969,response,-1.1642596483638106,1.2,-1.2,-1.091507924157762,1.2,-1.2,low,low,,ISIC_0030889.JPG,,ISIC_0765584.JPG,25,true,0.15000000000000002,ll,keypress(f),0,false,606768.1999999881,606768,600914.335,600920.8000000119,600931.133,606781.093,1,40,38,
sequence,flow.Sequence,6_37,2023-11-17T18:37:46.108Z,,,,,,,,,,,5836.866999999969,completion,,,,,,,low,low,,,,,,true,,,,,false,606768.3999999762,606768,600914.335,600920.8000000119,600931.133,606781.093,1,40,,
trial,html.Screen,6_38_0,2023-11-17T18:37:50.715Z,,,,1,1.3034518282811869,1.0897657776277234,,,true,ll,4594.806999976165,response,-1.0581281450494728,1.2,-1.2,-1.133169116569424,1.2,-1.2,low,low,,ISIC_0071988.JPG,,ISIC_5490352.JPG,25,true,0.15000000000000002,ll,keypress(f),0,false,611376,611375.8999999762,606764.277,606768.5,606781.093,611381.095,1,40,39,
sequence,flow.Sequence,6_38,2023-11-17T18:37:50.716Z,,,,,,,,,,,4594.806999976165,completion,,,,,,,low,low,,,,,,true,,,,,false,611376.1999999881,611375.8999999762,606764.277,606768.5,606781.093,611381.095,1,40,,
trial,html.Screen,6_39_0,2023-11-17T18:37:56.779Z,,,,1,-1.294521945180264,-1.3078626540563885,,,true,hh,6058.705000011949,response,1.1392234684115472,1.2,-1.2,1.3198277407683998,1.2,-1.2,high,high,,ISIC_3601224.JPG,,ISIC_0071875.JPG,27,true,0.12,hh,keypress(i),0,false,617439.8999999762,617439.8000000119,611364.397,611376.1999999881,611381.095,617447.736,1,40,40,
sequence,flow.Sequence,6_39,2023-11-17T18:37:56.780Z,,,,,,,,,,,6058.705000011949,completion,,,,,,,high,high,,,,,,true,,,,,false,617440.0999999642,617439.8000000119,611364.397,611376.1999999881,611381.095,617447.736,1,40,,
practice_loop,flow.Loop,6,2023-11-17T18:37:56.780Z,,,,,,,,,,,298725.7570000119,completion,,,,,,,,,,,,,,true,,,,,false,617440.0999999642,617439.8000000119,318680.935,318695.39999997616,318714.043,617447.736,1,40,,
stair_instructions,html.Screen,7,2023-11-17T18:37:59.051Z,,,,,,,,,,,2263.5640000118874,response,,,,,,,,,,,,,,,,continue,click button,,,619711.8000000119,619711.3000000119,617430.908,617440.0999999642,617447.736,619731.119,,,,
trial,html.Screen,8_0_0,2023-11-17T18:38:10.719Z,,,,2,0.0118555311043871,0.0087774532070196,,0.04,false,hl,11647.881000000052,response,1.0264463986917702,1.2,-1.2,-1.171271535505083,1.2,-1.2,high,low,,ISIC_6488658.JPG,,ISIC_7889838.JPG,26,false,0.3300000000000002,ll,keypress(f),0,true,631379.5,631379,619714.464,619711.8000000119,619731.119,631397.81,1,40,1,
sequence,flow.Sequence,8_0,2023-11-17T18:38:10.720Z,,,,,,,,,,,11647.881000000052,completion,,,,,,,high,low,,,,,,false,,,,,true,631380.1999999881,631379,619714.464,619711.8000000119,619731.119,631397.81,1,40,,
trial,html.Screen,8_1_0,2023-11-17T18:38:18.380Z,,,,2,-0.0367218428225813,0.0026956749740767,,0.04,false,hh,7642.189999999944,response,1.2383563585964383,1.2,-1.15,1.0364354388740975,1.15,-1.15,high,high,,ISIC_7212271.JPG,,ISIC_0027622.JPG,25,false,0.12,lh,keypress(e),0,true,639040.1999999881,639040,631381.198,631380.5,631397.81,639047.808,1,40,2,
sequence,flow.Sequence,8_1,2023-11-17T18:38:18.380Z,,,,,,,,,,,7642.189999999944,completion,,,,,,,high,high,,,,,,false,,,,,true,639040.3999999762,639040,631381.198,631380.5,631397.81,639047.808,1,40,,
trial,html.Screen,8_2_0,2023-11-17T18:38:27.172Z,,,,2,0.0060934073440827,0.0279108145883031,,0.04,false,hh,8784.291999964276,response,1.1715181192107684,1.2,-1.15,1.2251845559044463,1.15,-1.15,high,high,,ISIC_0032604.JPG,,ISIC_0011957.JPG,25,false,0.12,ll,keypress(f),0,true,647832.0999999642,647832.0999999642,639030.974,639040.5,639047.808,647847.861,1,40,3,
sequence,flow.Sequence,8_2,2023-11-17T18:38:27.172Z,,,,,,,,,,,8784.291999964276,completion,,,,,,,high,high,,,,,,false,,,,,true,647832.3000000119,647832.0999999642,639030.974,639040.3999999762,639047.808,647847.861,1,40,,
trial,html.Screen,8_3_0,2023-11-17T18:38:31.700Z,,,,2,0.0060934073440827,0.0279108145883031,,0.04,false,hl,4512.3389999880455,response,0.8709576717420565,1.2,-1.15,-1.2795156779072283,1.15,-1.15,high,low,,ISIC_0032604.JPG,,ISIC_1925632.JPG,28,false,0.3300000000000002,ll,keypress(f),0,true,652360.3000000119,652360.1999999881,647830.852,647832.3000000119,647847.861,652364.455,1,40,4,
sequence,flow.Sequence,8_3,2023-11-17T18:38:31.700Z,,,,,,,,,,,4512.3389999880455,completion,,,,,,,high,low,,,,,,false,,,,,true,652360.3999999762,652360.1999999881,647830.852,647832.3000000119,647847.861,652364.455,1,40,,
trial,html.Screen,8_4_0,2023-11-17T18:38:37.756Z,,,,2,-0.0127320821962457,0.0315308940184827,,0.04,false,hh,6051.9449999762,response,1.2974483548597415,1.2,-1.15,1.2071506593281005,1.15,-1.0999999999999999,high,high,,ISIC_8156101.JPG,,ISIC_0011007.JPG,25,false,0.12,ll,keypress(f),0,true,658416.5999999642,658416.3999999762,652347.824,652360.5,652364.455,658431.159,1,40,5,
sequence,flow.Sequence,8_4,2023-11-17T18:38:37.756Z,,,,,,,,,,,6051.9449999762,completion,,,,,,,high,high,,,,,,false,,,,,true,658416.8000000119,658416.3999999762,652347.824,652360.5,652364.455,658431.159,1,40,,
trial,html.Screen,8_5_0,2023-11-17T18:38:50.932Z,,,,2,-0.0189295602385628,-0.0128812415435153,,0.04,true,lh,13161.540999988094,response,-1.1235224875125256,1.2,-1.15,0.8641223012137988,1.15,-1.0999999999999999,low,high,,ISIC_0010372.JPG,,ISIC_0033901.JPG,27,false,0.31000000000000016,lh,keypress(e),0,true,671592.8999999762,671592.6999999881,658414.288,658417,658431.159,671597.838,1,40,6,
sequence,flow.Sequence,8_5,2023-11-17T18:38:50.933Z,,,,,,,,,,,13161.540999988094,completion,,,,,,,low,high,,,,,,false,,,,,true,671593.1999999881,671592.6999999881,658414.288,658416.8999999762,658431.159,671597.838,1,40,,
trial,html.Screen,8_6_0,2023-11-17T18:39:00.757Z,,,,2,-0.0321039635696159,-0.020496766286318,,0.04,false,hh,9818.761999964248,response,1.0474638406367112,1.15,-1.15,1.2142897533079478,1.15,-1.0999999999999999,high,high,,ISIC_0058063.JPG,,ISIC_0025277.JPG,25,false,0.11,hl,keypress(j),0,true,681416.8000000119,681416.5999999642,671580.738,671593.3000000119,671597.838,681431.246,1,40,7,
sequence,flow.Sequence,8_6,2023-11-17T18:39:00.757Z,,,,,,,,,,,9818.761999964248,completion,,,,,,,high,high,,,,,,false,,,,,true,681417.1999999881,681416.5999999642,671580.738,671593.3000000119,671597.838,681431.246,1,40,,
trial,html.Screen,8_7_0,2023-11-17T18:39:05.235Z,,,,2,-0.010035581303589,0.0100711721396864,,0.04,true,hl,4464.353999964194,response,1.2704198237183777,1.15,-1.15,-1.138121072015301,1.15,-1.0999999999999999,high,low,,ISIC_0030592.JPG,,ISIC_0501843.JPG,25,false,0.28000000000000014,hl,keypress(j),0,true,685895.5999999642,685895.5999999642,681414.174,681417.3999999762,681431.246,685897.845,1,40,8,
sequence,flow.Sequence,8_7,2023-11-17T18:39:05.235Z,,,,,,,,,,,4464.353999964194,completion,,,,,,,high,low,,,,,,false,,,,,true,685895.6999999881,685895.5999999642,681414.174,681417.3000000119,681431.246,685897.845,1,40,,
trial,html.Screen,8_8_0,2023-11-17T18:39:13.740Z,,,,2,-0.0051046740562181,0.0178832721027728,,0.04,false,lh,8502.155000000028,response,-0.9385447468573198,1.0999999999999999,-1.15,1.2289860846064424,1.15,-1.0999999999999999,low,high,,ISIC_9545819.JPG,,ISIC_0032780.JPG,27,false,0.31000000000000016,ll,keypress(f),0,true,694400.1999999881,694400,685881.202,685895.8000000119,685897.845,694414.699,1,40,9,
sequence,flow.Sequence,8_8,2023-11-17T18:39:13.740Z,,,,,,,,,,,8502.155000000028,completion,,,,,,,low,high,,,,,,false,,,,,true,694400.3999999762,694400,685881.202,685895.6999999881,685897.845,694414.699,1,40,,
trial,html.Screen,8_9_0,2023-11-17T18:39:22.772Z,,,,2,0.0023664502831079,0.0252784582169994,,0.04,true,hh,9017.900999964215,response,1.1227373144244253,1.0999999999999999,-0.9883329094363102,1.1886610799377713,1.15,-1.0999999999999999,high,high,,ISIC_4156010.JPG,,ISIC_0059506.JPG,29,false,0.11,hh,keypress(i),0,true,703432.8000000119,703432.5999999642,694397.677,694400.5,694414.699,703447.896,1,40,10,
sequence,flow.Sequence,8_9,2023-11-17T18:39:22.773Z,,,,,,,,,,,9017.900999964215,completion,,,,,,,high,high,,,,,,false,,,,,true,703433.0999999642,703432.5999999642,694397.677,694400.5,694414.699,703447.896,1,40,,
trial,html.Screen,8_10_0,2023-11-17T18:39:28.220Z,,,,2,-0.0327772618698018,0.0056908372048728,,0.04,true,lh,5432.404000011971,response,-1.2615315960773072,1.0999999999999999,-0.9883329094363102,1.194084675079932,1.15,-1.0999999999999999,low,high,,ISIC_7897925.JPG,,ISIC_0010044.JPG,29,false,0.28000000000000014,lh,keypress(e),0,true,708880.3999999762,708880.3000000119,703431.035,703433.3000000119,703447.896,708898.032,1,40,11,
sequence,flow.Sequence,8_10,2023-11-17T18:39:28.220Z,,,,,,,,,,,5432.404000011971,completion,,,,,,,low,high,,,,,,false,,,,,true,708880.6999999881,708880.3000000119,703431.035,703433.3000000119,703447.896,708898.032,1,40,,
trial,html.Screen,8_11_0,2023-11-17T18:39:36.076Z,,,,2,0.0158987717472563,0.0292472192292015,,0.04,false,lh,7838.268000011914,response,-1.0143509683988825,1.0999999999999999,-0.9883329094363102,1.0281980567462463,1.0999999999999999,-1.0999999999999999,low,high,,ISIC_1366765.JPG,,ISIC_0062031.JPG,25,false,0.2400000000000001,hh,keypress(i),0,true,716736.5,716736.3000000119,708864.58,708880.6999999881,708898.032,716747.956,1,40,12,
sequence,flow.Sequence,8_11,2023-11-17T18:39:36.076Z,,,,,,,,,,,7838.268000011914,completion,,,,,,,low,high,,,,,,false,,,,,true,716736.6999999881,716736.3000000119,708864.58,708880.6999999881,708898.032,716747.956,1,40,,
trial,html.Screen,8_12_0,2023-11-17T18:39:42.493Z,,,,2,-0.0321039635696159,-0.020496766286318,,0.04,false,lh,6405.143999964232,response,-0.8494721812820843,1.0999999999999999,-1.0383329094363103,1.3435429139974266,1.0999999999999999,-1.0999999999999999,low,high,,ISIC_0058063.JPG,,ISIC_0033585.JPG,25,false,0.2500000000000001,ll,keypress(f),0,true,723153.3000000119,723153.0999999642,716730.971,716736.8999999762,716747.956,723164.613,1,40,13,
sequence,flow.Sequence,8_12,2023-11-17T18:39:42.493Z,,,,,,,,,,,6405.143999964232,completion,,,,,,,low,high,,,,,,false,,,,,true,723153.8000000119,723153.0999999642,716730.971,716736.8999999762,716747.956,723164.613,1,40,,
trial,html.Screen,8_13_0,2023-11-17T18:39:48.061Z,,,,2,0.0023664502831079,0.0252784582169994,,0.04,true,hh,5556.687000011909,response,1.0441672988386008,1.0999999999999999,-1.0383329094363103,1.108916716139547,1.15,-1.0999999999999999,high,high,,ISIC_4156010.JPG,,ISIC_0063243.JPG,29,false,0.11,hh,keypress(i),0,true,728721.5999999642,728721.3000000119,723147.878,723153.8999999762,723164.613,728731.229,1,40,14,
sequence,flow.Sequence,8_13,2023-11-17T18:39:48.062Z,,,,,,,,,,,5556.687000011909,completion,,,,,,,high,high,,,,,,false,,,,,true,728722,728721.3000000119,723147.878,723153.8999999762,723164.613,728731.229,1,40,,
trial,html.Screen,8_14_0,2023-11-17T18:39:54.572Z,,,,2,-0.0189295602385628,-0.0128812415435153,,0.04,false,hl,6501.071000011871,response,0.9670240379618178,1.0265420074890739,-1.0383329094363103,-1.1806404773220665,1.15,-1.0999999999999999,high,low,,ISIC_0010372.JPG,,ISIC_0002288.JPG,25,false,0.2300000000000001,ll,keypress(f),0,true,735232.3999999762,735232.3000000119,728714.421,728722.1999999881,728731.229,735248.105,1,40,15,
sequence,flow.Sequence,8_14,2023-11-17T18:39:54.572Z,,,,,,,,,,,6501.071000011871,completion,,,,,,,high,low,,,,,,false,,,,,true,735232.5999999642,735232.3000000119,728714.421,728722.1999999881,728731.229,735248.105,1,40,,
trial,html.Screen,8_15_0,2023-11-17T18:40:01.876Z,,,,2,0.0071892445601978,-0.0246015408628738,,0.04,true,hh,7287.794999976177,response,0.9926496793263212,1.076542007489074,-1.0383329094363103,1.0520809837712837,1.15,-1.0499999999999998,high,high,,ISIC_0014133.JPG,,ISIC_0062686.JPG,26,false,0.1,hh,keypress(i),0,true,742536.0999999642,742535.8999999762,735231.171,735232.8000000119,735248.105,742547.968,1,40,16,
sequence,flow.Sequence,8_15,2023-11-17T18:40:01.877Z,,,,,,,,,,,7287.794999976177,completion,,,,,,,high,high,,,,,,false,,,,,true,742536.3000000119,742535.8999999762,735231.171,735232.8000000119,735248.105,742547.968,1,40,,
trial,html.Screen,8_16_0,2023-11-17T18:40:07.685Z,,,,2,-0.0189295602385628,-0.0128812415435153,,0.04,true,ll,5796.832000011927,response,-1.0375203228848855,1.076542007489074,-1.0383329094363103,-1.0256934713188917,0.9723653315488023,-1.0499999999999998,low,low,,ISIC_0010372.JPG,,ISIC_4264600.JPG,33,false,0.13,ll,keypress(f),0,true,748345,748344.8000000119,742530.993,742536.3999999762,742547.968,748347.999,1,40,17,
sequence,flow.Sequence,8_16,2023-11-17T18:40:07.686Z,,,,,,,,,,,5796.832000011927,completion,,,,,,,low,low,,,,,,false,,,,,true,748345.5,748344.8000000119,742530.993,742536.3000000119,742547.968,748347.999,1,40,,
trial,html.Screen,8_17_0,2023-11-17T18:40:12.884Z,,,,2,-0.0063515208248796,-0.0194177605767913,,0.04,false,ll,5195.801000011968,response,-0.9991910338212396,1.076542007489074,-0.9816068971018885,-1.0085499824556403,0.9723653315488023,-1.0499999999999998,low,low,,ISIC_5281908.JPG,,ISIC_7795549.JPG,30,false,0.12,hl,keypress(j),0,true,753543.8999999762,753543.8000000119,748331.203,748345.6999999881,748347.999,753547.986,1,40,18,
sequence,flow.Sequence,8_17,2023-11-17T18:40:12.884Z,,,,,,,,,,,5195.801000011968,completion,,,,,,,low,low,,,,,,false,,,,,true,753544,753543.8000000119,748331.203,748345.5999999642,748347.999,753547.986,1,40,,
trial,html.Screen,8_18_0,2023-11-17T18:40:18.037Z,,,,2,0.0060934073440827,0.0279108145883031,,0.04,false,ll,5148.613999964204,response,-1.09666761087476,1.076542007489074,-1.0316068971018886,-0.9917482735105084,0.9723653315488023,-0.9671217268872658,low,low,,ISIC_0032604.JPG,,ISIC_0071754.JPG,28,false,0.11,hh,keypress(i),0,true,758696.8999999762,758696.5999999642,753531.325,753544.0999999642,753547.986,758714.673,1,40,19,
sequence,flow.Sequence,8_18,2023-11-17T18:40:18.037Z,,,,,,,,,,,5148.613999964204,completion,,,,,,,low,low,,,,,,false,,,,,true,758697.3000000119,758696.5999999642,753531.325,753544.0999999642,753547.986,758714.673,1,40,,
trial,html.Screen,8_19_0,2023-11-17T18:40:25.452Z,,,,2,0.0060918352854008,-0.029032683404407,,0.04,true,hl,7397.226999976207,response,1.0088376543442317,1.076542007489074,-1.0816068971018886,-0.8023075994977575,0.9723653315488023,-1.0171217268872659,high,low,,ISIC_8436194.JPG,,ISIC_7619234.JPG,25,false,0.22000000000000008,hl,keypress(j),0,true,766112.0999999642,766111.8999999762,758681.338,758697.5,758714.673,766114.637,1,40,20,
sequence,flow.Sequence,8_19,2023-11-17T18:40:25.452Z,,,,,,,,,,,7397.226999976207,completion,,,,,,,high,low,,,,,,false,,,,,true,766112.1999999881,766111.8999999762,758681.338,758697.3999999762,758714.673,766114.637,1,40,,
trial,html.Screen,8_20_0,2023-11-17T18:40:32.796Z,,,,2,0.0071892445601978,-0.0246015408628738,,0.04,true,hl,7341.26299997617,response,1.0088376543442317,1.0265420074890739,-1.0816068971018886,-0.8023075994977575,0.9723653315488023,-1.0171217268872659,high,low,,ISIC_0014133.JPG,,ISIC_7619234.JPG,27,false,0.22000000000000008,hl,keypress(j),0,true,773456.0999999642,773455.8999999762,766097.806,766112.3000000119,766114.637,773464.658,1,40,21,
sequence,flow.Sequence,8_20,2023-11-17T18:40:32.796Z,,,,,,,,,,,7341.26299997617,completion,,,,,,,high,low,,,,,,false,,,,,true,773456.0999999642,773455.8999999762,766097.806,766112.3000000119,766114.637,773464.658,1,40,,
trial,html.Screen,8_21_0,2023-11-17T18:40:37.573Z,,,,2,0.0050679133050021,0.0174815595031679,,0.04,true,ll,4768.241999976104,response,-1.1432120973785689,1.0265420074890739,-1.0816068971018886,-0.973254467915268,0.9723653315488023,-0.9671217268872658,low,low,,ISIC_9848743.JPG,,ISIC_2072219.JPG,27,false,0.11,ll,keypress(f),0,true,778233.1999999881,778232.8999999762,773447.719,773456.1999999881,773464.658,778248.004,1,40,22,
sequence,flow.Sequence,8_21,2023-11-17T18:40:37.574Z,,,,,,,,,,,4768.241999976104,completion,,,,,,,low,low,,,,,,false,,,,,true,778233.5,778232.8999999762,773447.719,773456.1999999881,773464.658,778248.004,1,40,,
trial,html.Screen,8_22_0,2023-11-17T18:40:41.349Z,,,,2,-0.0063515208248796,-0.0194177605767913,,0.04,true,hh,3760.09599996428,response,1.0007734170042946,1.0265420074890739,-1.0816068971018886,0.9394007494897862,0.9723653315488023,-0.9671217268872658,high,high,,ISIC_5281908.JPG,,ISIC_0053791.JPG,42,false,0.1,hh,keypress(i),0,true,782008.3000000119,782008.0999999642,778231.181,778233.6999999881,778248.004,782014.659,1,40,23,
sequence,flow.Sequence,8_22,2023-11-17T18:40:41.349Z,,,,,,,,,,,3760.09599996428,completion,,,,,,,high,high,,,,,,false,,,,,true,782008.5999999642,782008.0999999642,778231.181,778233.6999999881,778248.004,782014.659,1,40,,
trial,html.Screen,8_23_0,2023-11-17T18:40:47.005Z,,,,2,0.0071892445601978,-0.0246015408628738,,0.04,true,ll,5649.940999964252,response,-1.1063796153389187,0.9200870832470404,-1.0816068971018886,-0.8605921333200546,0.9723653315488023,-0.9671217268872658,low,low,,ISIC_0014133.JPG,,ISIC_0064071.JPG,27,false,0.11,ll,keypress(f),0,true,787665,787664.5999999642,781997.926,782008.6999999881,782014.659,787681.308,1,40,24,
sequence,flow.Sequence,8_23,2023-11-17T18:40:47.005Z,,,,,,,,,,,5649.940999964252,completion,,,,,,,low,low,,,,,,false,,,,,true,787665.3000000119,787664.5999999642,781997.926,782008.5999999642,782014.659,787681.308,1,40,,
trial,html.Screen,8_24_0,2023-11-17T18:40:51.485Z,,,,2,0.0166849894750452,-0.0371614812368835,,0.04,true,lh,4463.49200001196,response,-0.8129823105338526,0.9200870832470404,-1.0316068971018886,0.9655386457143784,0.9723653315488023,-0.9171217268872658,low,high,,ISIC_6231450.JPG,,ISIC_8268025.JPG,27,false,0.22000000000000008,lh,keypress(e),0,true,792145.0999999642,792144.8000000119,787664.486,787665.5,787681.308,792148.007,1,40,25,
sequence,flow.Sequence,8_24,2023-11-17T18:40:51.486Z,,,,,,,,,,,4463.49200001196,completion,,,,,,,low,high,,,,,,false,,,,,true,792145.3000000119,792144.8000000119,787664.486,787665.3999999762,787681.308,792148.007,1,40,,
trial,html.Screen,8_25_0,2023-11-17T18:40:57.109Z,,,,2,0.0023664502831079,0.0252784582169994,,0.04,false,ll,5619.892999976175,response,-1.0433307945145347,0.9200870832470404,-1.0316068971018886,-0.8328447549795016,0.9223653315488023,-0.9171217268872658,low,low,,ISIC_4156010.JPG,,ISIC_9104843.JPG,30,false,0.11,hl,keypress(j),0,true,797768.1999999881,797767.8999999762,792131.186,792145.5,792148.007,797781.433,1,40,26,
sequence,flow.Sequence,8_25,2023-11-17T18:40:57.110Z,,,,,,,,,,,5619.892999976175,completion,,,,,,,low,low,,,,,,false,,,,,true,797768.3999999762,797767.8999999762,792131.186,792145.3999999762,792148.007,797781.433,1,40,,
trial,html.Screen,8_26_0,2023-11-17T18:41:03.821Z,,,,2,0.0166849894750452,-0.0371614812368835,,0.04,true,hh,6698.36700001196,response,1.000067575413479,0.9200870832470404,-1.0816068971018886,0.963498103069642,0.9223653315488023,-0.9171217268872658,high,high,,ISIC_6231450.JPG,,ISIC_0061531.JPG,47,false,0.1,hh,keypress(i),0,true,804479.8999999762,804479.8000000119,797764.504,797768.3999999762,797781.433,804499.251,1,40,27,
sequence,flow.Sequence,8_26,2023-11-17T18:41:03.821Z,,,,,,,,,,,6698.36700001196,completion,,,,,,,high,high,,,,,,false,,,,,true,804480.0999999642,804479.8000000119,797764.504,797768.3999999762,797781.433,804499.251,1,40,,
trial,html.Screen,8_27_0,2023-11-17T18:41:08.909Z,,,,2,-0.0321039635696159,-0.020496766286318,,0.04,false,lh,5068.549000011873,response,-1.1343164084491792,0.9200870832470404,-1.0816068971018886,0.7599392888539781,0.9223653315488023,-0.9171217268872658,low,high,,ISIC_0058063.JPG,,ISIC_0032265.JPG,27,false,0.21000000000000008,ll,keypress(f),0,true,809567.8999999762,809567.8000000119,804464.666,804480.0999999642,804499.251,809581.366,1,40,28,
sequence,flow.Sequence,8_27,2023-11-17T18:41:08.909Z,,,,,,,,,,,5068.549000011873,completion,,,,,,,low,high,,,,,,false,,,,,true,809568,809567.8000000119,804464.666,804480.0999999642,804499.251,809581.366,1,40,,
trial,html.Screen,8_28_0,2023-11-17T18:41:14.814Z,,,,2,0.012810673904807,-0.00400964452501,,0.04,true,hl,5891.233999964199,response,0.7705174182595537,0.9200870832470404,-1.0816068971018886,-1.085710894474977,0.9723653315488023,-0.9171217268872658,high,low,,ISIC_0064656.JPG,,ISIC_0013644.JPG,26,false,0.17000000000000004,hl,keypress(j),0,true,815472.8999999762,815472.5999999642,809564.525,809568.0999999642,809581.366,815481.375,1,40,29,
sequence,flow.Sequence,8_28,2023-11-17T18:41:14.814Z,,,,,,,,,,,5891.233999964199,completion,,,,,,,high,low,,,,,,false,,,,,true,815473.1999999881,815472.5999999642,809564.525,809568,809581.366,815481.375,1,40,,
trial,html.Screen,8_29_0,2023-11-17T18:41:18.814Z,,,,2,0.0118555311043871,0.0087774532070196,,0.04,true,lh,3991.224999964237,response,-0.9039158082670506,0.8700870832470403,-1.0816068971018886,1.0517562064343149,0.9723653315488023,-1.060013651462078,low,high,,ISIC_6488658.JPG,,ISIC_0015411.JPG,25,false,0.2300000000000001,lh,keypress(e),0,true,819473,819472.5999999642,815464.616,815473.3000000119,815481.375,819481.442,1,40,30,
sequence,flow.Sequence,8_29,2023-11-17T18:41:18.815Z,,,,,,,,,,,3991.224999964237,completion,,,,,,,low,high,,,,,,false,,,,,true,819473.3999999762,819472.5999999642,815464.616,815473.3000000119,815481.375,819481.442,1,40,,
trial,html.Screen,8_30_0,2023-11-17T18:41:23.301Z,,,,2,-0.0189295602385628,-0.0128812415435153,,0.04,true,lh,4478.457999976119,response,-1.064425982109969,0.8700870832470403,-1.0316068971018886,0.958564243697126,0.9723653315488023,-1.060013651462078,low,high,,ISIC_0010372.JPG,,ISIC_3203344.JPG,27,false,0.22000000000000008,lh,keypress(e),0,true,823960,823959.8999999762,819464.851,819473.5999999642,819481.442,823964.729,1,40,31,
sequence,flow.Sequence,8_30,2023-11-17T18:41:23.301Z,,,,,,,,,,,4478.457999976119,completion,,,,,,,low,high,,,,,,false,,,,,true,823960.1999999881,823959.8999999762,819464.851,819473.5999999642,819481.442,823964.729,1,40,,
trial,html.Screen,8_31_0,2023-11-17T18:41:36.029Z,,,,2,0.00126575685933,0.0325046559638838,,0.04,true,hl,12723.07100001187,response,0.8561946552009824,0.8700870832470403,-1.0316068971018886,-0.9282171889213044,0.9223653315488023,-1.060013651462078,high,low,,ISIC_5682259.JPG,,ISIC_3065032.JPG,25,false,0.17000000000000004,hl,keypress(j),0,true,836687.8999999762,836687.8000000119,823948.022,823960.3000000119,823964.729,836698.024,1,40,32,
sequence,flow.Sequence,8_31,2023-11-17T18:41:36.029Z,,,,,,,,,,,12723.07100001187,completion,,,,,,,high,low,,,,,,false,,,,,true,836688,836687.8000000119,823948.022,823960.3000000119,823964.729,836698.024,1,40,,
trial,html.Screen,8_32_0,2023-11-17T18:41:40.581Z,,,,2,-0.0327772618698018,0.0056908372048728,,0.04,false,ll,4541.776000011945,response,-1.0730492496332733,0.8700870832470403,-1.0316068971018886,-1.0252626598876022,0.9223653315488023,-1.060013651462078,low,low,,ISIC_7897925.JPG,,ISIC_0007029.JPG,27,false,0.13,hl,keypress(j),0,true,841239.8999999762,841239.8000000119,836680.924,836688.0999999642,836698.024,841248.081,1,40,33,
sequence,flow.Sequence,8_32,2023-11-17T18:41:40.581Z,,,,,,,,,,,4541.776000011945,completion,,,,,,,low,low,,,,,,false,,,,,true,841240,841239.8000000119,836680.924,836688,836698.024,841248.081,1,40,,
trial,html.Screen,8_33_0,2023-11-17T18:41:46.854Z,,,,2,0.012810673904807,-0.00400964452501,,0.04,false,ll,6264.318999976153,response,-1.0437497612294713,0.8700870832470403,-1.0816068971018886,-0.93059645456522,0.9223653315488023,-0.9267399244044533,low,low,,ISIC_0064656.JPG,,ISIC_0032357.JPG,25,false,0.1,hl,keypress(j),0,true,847512.5999999642,847512.3999999762,841231.425,841240.0999999642,841248.081,847514.778,1,40,34,
sequence,flow.Sequence,8_33,2023-11-17T18:41:46.854Z,,,,,,,,,,,6264.318999976153,completion,,,,,,,low,low,,,,,,false,,,,,true,847512.8999999762,847512.3999999762,841231.425,841240.0999999642,841248.081,847514.778,1,40,,
trial,html.Screen,8_34_0,2023-11-17T18:41:52.245Z,,,,2,0.0060918352854008,-0.029032683404407,,0.04,true,ll,5388.92199998803,response,-1.0668742262335038,0.8700870832470403,-1.1316068971018887,-0.9013677148468237,0.9223653315488023,-0.9267399244044533,low,low,,ISIC_8436194.JPG,,ISIC_1658623.JPG,28,false,0.1,ll,keypress(f),0,true,852903.8000000119,852903.6999999881,847498.098,847513,847514.778,852914.749,1,40,35,
sequence,flow.Sequence,8_34,2023-11-17T18:41:52.245Z,,,,,,,,,,,5388.92199998803,completion,,,,,,,low,low,,,,,,false,,,,,true,852904,852903.6999999881,847498.098,847513,847514.778,852914.749,1,40,,
trial,html.Screen,8_35_0,2023-11-17T18:42:00.222Z,,,,2,-0.0189295602385628,-0.0128812415435153,,0.04,false,hh,7965.150999976206,response,0.8751568783563604,0.8700870832470403,-1.1316068971018887,0.8649242672115863,0.9223653315488023,-0.9341209705401636,high,high,,ISIC_0010372.JPG,,ISIC_0027742.JPG,49,false,0.1,lh,keypress(e),0,true,860880,860879.8999999762,852897.914,852904,852914.749,860881.424,1,40,36,
sequence,flow.Sequence,8_35,2023-11-17T18:42:00.222Z,,,,,,,,,,,7965.150999976206,completion,,,,,,,high,high,,,,,,false,,,,,true,860880.0999999642,860879.8999999762,852897.914,852904,852914.749,860881.424,1,40,,
trial,html.Screen,8_36_0,2023-11-17T18:42:04.783Z,,,,2,0.0050679133050021,0.0174815595031679,,0.04,true,ll,4559.376000011922,response,-1.1119564877278971,0.9200870832470404,-1.1316068971018887,-0.9546609075308709,0.9223653315488023,-0.9341209705401636,low,low,,ISIC_9848743.JPG,,ISIC_0056110.JPG,33,false,0.11,ll,keypress(f),0,true,865441,865440.8000000119,860864.493,860880.1999999881,860881.424,865448.126,1,40,37,
sequence,flow.Sequence,8_36,2023-11-17T18:42:04.783Z,,,,,,,,,,,4559.376000011922,completion,,,,,,,low,low,,,,,,false,,,,,true,865441.3000000119,865440.8000000119,860864.493,860880.0999999642,860881.424,865448.126,1,40,,
trial,html.Screen,8_37_0,2023-11-17T18:42:12.231Z,,,,2,0.0350697500805515,0.0166617848231997,,0.04,false,lh,7440.073999988032,response,-1.0003671514840182,0.9200870832470404,-0.9833086976293839,0.8992716557663581,0.9223653315488023,-0.9341209705401636,low,high,,ISIC_0024423.JPG,,ISIC_0061749.JPG,27,false,0.18000000000000005,hh,keypress(i),0,true,872888.3999999762,872888.1999999881,865431.457,865441.5,865448.126,872898.094,1,40,38,
sequence,flow.Sequence,8_37,2023-11-17T18:42:12.231Z,,,,,,,,,,,7440.073999988032,completion,,,,,,,low,high,,,,,,false,,,,,true,872888.6999999881,872888.1999999881,865431.457,865441.3999999762,865448.126,872898.094,1,40,,
trial,html.Screen,8_38_0,2023-11-17T18:42:16.695Z,,,,2,-0.0051046740562181,0.0178832721027728,,0.04,true,hl,4454.20600001188,response,1.085089185942698,0.9200870832470404,-1.033308697629384,-0.7657798385266591,0.8723653315488022,-0.9341209705401636,high,low,,ISIC_9545819.JPG,,ISIC_2283628.JPG,27,false,0.17000000000000004,hl,keypress(j),0,true,877352.5,877352.3000000119,872881.343,872888.6999999881,872898.094,877364.85,1,40,39,
sequence,flow.Sequence,8_38,2023-11-17T18:42:16.695Z,,,,,,,,,,,4454.20600001188,completion,,,,,,,high,low,,,,,,false,,,,,true,877352.8000000119,877352.3000000119,872881.343,872888.6999999881,872898.094,877364.85,1,40,,
trial,html.Screen,8_39_0,2023-11-17T18:42:25.687Z,,,,2,0.0060934073440827,0.0279108145883031,,0.04,false,hl,8979.450000011944,response,0.9142125020682068,0.9200870832470404,-1.033308697629384,-0.7276522964385869,0.8723653315488022,-0.8841209705401636,high,low,,ISIC_0032604.JPG,,ISIC_9566964.JPG,27,false,0.16000000000000003,ll,keypress(f),0,true,886344.5,886344.3000000119,877348.09,877353,877364.85,886348.158,1,40,40,
sequence,flow.Sequence,8_39,2023-11-17T18:42:25.687Z,,,,,,,,,,,8979.450000011944,completion,,,,,,,high,low,,,,,,false,,,,,true,886344.8000000119,886344.3000000119,877348.09,877352.8999999762,877364.85,886348.158,1,40,,
stair_loop,flow.Loop,8,2023-11-17T18:42:25.687Z,,,,,,,,,,,266613.181000012,completion,,,,,,,,,,,,,,false,,,,,true,886345.0999999642,886344.3000000119,619714.464,619711.8000000119,619731.119,886348.158,1,40,,
exp_instructions,html.Screen,9,2023-11-17T18:42:37.374Z,,,,,,,,,,,11683.441999964183,response,,,,,,,,,,,,,,,,continue,keypress(Space),,,898032,898031.5999999642,886331.313,886345.0999999642,886348.158,898048.149,,,,
trial,html.Screen,10_0_0,2023-11-17T18:42:42.878Z,,,,1,0.00126575685933,0.0325046559638838,,0.04,true,lh,5487.550999988103,response,-0.9013888878932071,0.9185553218833455,-1.0668621671810128,0.9328095253308732,0.9373653315488024,-0.9609117424671716,low,high,,ISIC_5682259.JPG,9,ISIC_0068259.JPG,25,false,0.21000000000000008,lh,keypress(e),0,false,903535.8000000119,903535.6999999881,898031.119,898032.1999999881,898048.149,903548.139,4,500,1,
break,html.Screen,10_0_1,2023-11-17T18:42:42.878Z,,,,,,,,,,,NaN,,,,,,,,low,high,,,,,,false,,,,,false,903536.1999999881,903536.0999999642,,903535.8999999762,,903548.139,4,500,,
break_continue,html.Screen,10_0_2,2023-11-17T18:42:42.879Z,,,,,,,,,,,NaN,,,,,,,,low,high,,,,,,false,,,,,false,903536.5,903536.3000000119,,903536.3000000119,,903548.139,4,500,,
sequence,flow.Sequence,10_0,2023-11-17T18:42:42.879Z,,,,,,,,,,,5488.151000011945,completion,,,,,,,low,high,,,,,,false,,,,,false,903536.5999999642,903536.3000000119,898031.119,898032.1999999881,898048.149,903548.139,4,500,,
trial,html.Screen,10_1_0,2023-11-17T18:42:48.110Z,,,,1,0.0060918352854008,-0.029032683404407,,0.04,false,lh,5219.960999964271,response,-1.1224745971429997,0.9185553218833455,-1.0668621671810128,0.8423270217438888,0.9373653315488024,-0.9609117424671716,low,high,,ISIC_8436194.JPG,9,ISIC_0057032.JPG,25,false,0.21000000000000008,hh,keypress(i),0,false,908768.0999999642,908768.0999999642,903531.457,903536.6999999881,903548.139,908781.563,4,500,2,
break,html.Screen,10_1_1,2023-11-17T18:42:48.111Z,,,,,,,,,,,NaN,,,,,,,,low,high,,,,,,false,,,,,false,908768.6999999881,908768.5999999642,,908768.3000000119,,908781.563,4,500,,
break_continue,html.Screen,10_1_2,2023-11-17T18:42:48.111Z,,,,,,,,,,,NaN,,,,,,,,low,high,,,,,,false,,,,,false,908768.8999999762,908768.8000000119,,908768.6999999881,,908781.563,4,500,,
sequence,flow.Sequence,10_1,2023-11-17T18:42:48.111Z,,,,,,,,,,,5220.6610000119545,completion,,,,,,,low,high,,,,,,false,,,,,false,908769,908768.8000000119,903531.457,903536.6999999881,903548.139,908781.563,4,500,,
trial,html.Screen,10_2_0,2023-11-17T18:42:51.759Z,,,,1,-0.0327772618698018,0.0056908372048728,,0.04,false,ll,3635.0369999642717,response,-1.1569583426015195,0.9185553218833455,-1.0668621671810128,-1.02258614327008,0.9373653315488024,-0.9609117424671716,low,low,,ISIC_7897925.JPG,9,ISIC_5705973.JPG,29,false,0.11,hl,keypress(j),0,false,912416.8000000119,912416.5999999642,908764.879,908769.0999999642,908781.563,912431.526,4,500,3,
break,html.Screen,10_2_1,2023-11-17T18:42:51.760Z,,,,,,,,,,,NaN,,,,,,,,low,low,,,,,,false,,,,,false,912417.5,912417.3999999762,,912417,,912431.526,4,500,,
break_continue,html.Screen,10_2_2,2023-11-17T18:42:51.760Z,,,,,,,,,,,NaN,,,,,,,,low,low,,,,,,false,,,,,false,912418,912417.8999999762,,912417.6999999881,,912431.526,4,500,,
sequence,flow.Sequence,10_2,2023-11-17T18:42:51.760Z,,,,,,,,,,,3636.3369999761926,completion,,,,,,,low,low,,,,,,false,,,,,false,912418.3000000119,912417.8999999762,908764.879,908769.0999999642,908781.563,912431.526,4,500,,
trial,html.Screen,10_3_0,2023-11-17T18:43:00.271Z,,,,1,0.0399381815506136,0.0177751789152893,,0.04,true,hl,8496.474000000046,response,0.8688859182707874,0.9185553218833455,-1.0668621671810128,-0.9566733172438716,0.9373653315488024,-0.9609117424671716,high,low,,ISIC_3981425.JPG,9,ISIC_0640770.JPG,26,false,0.17000000000000004,hl,keypress(j),0,false,920928.0999999642,920928,912414.859,912418.3999999762,912431.526,920931.497,4,500,4,
break,html.Screen,10_3_1,2023-11-17T18:43:00.272Z,,,,,,,,,,,NaN,,,,,,,,high,low,,,,,,false,,,,,false,920928.3999999762,920928.3999999762,,920928.1999999881,,920931.497,4,500,,
break_continue,html.Screen,10_3_2,2023-11-17T18:43:00.272Z,,,,,,,,,,,NaN,,,,,,,,high,low,,,,,,false,,,,,false,920928.8000000119,920928.6999999881,,920928.5999999642,,920931.497,4,500,,
sequence,flow.Sequence,10_3,2023-11-17T18:43:00.272Z,,,,,,,,,,,8497.173999988125,completion,,,,,,,high,low,,,,,,false,,,,,false,920928.8000000119,920928.6999999881,912414.859,912418.3000000119,912431.526,920931.497,4,500,,
trial,html.Screen,10_4_0,2023-11-17T18:43:04.744Z,,,,1,0.0023664502831079,0.0252784582169994,,0.04,true,hh,4468.602999964263,response,0.8628696237203484,0.9185553218833455,-1.0668621671810128,0.9684635118197058,0.9373653315488024,-0.9609117424671716,high,high,,ISIC_4156010.JPG,9,ISIC_0015132.JPG,45,false,0.1,hh,keypress(i),0,false,925400.3000000119,925400.0999999642,920914.747,920928.8999999762,920931.497,925414.928,4,500,5,
break,html.Screen,10_4_1,2023-11-17T18:43:04.744Z,,,,,,,,,,,NaN,,,,,,,,high,high,,,,,,false,,,,,false,925400.8000000119,925400.6999999881,,925400.5,,925414.928,4,500,,
break_continue,html.Screen,10_4_2,2023-11-17T18:43:04.744Z,,,,,,,,,,,NaN,,,,,,,,high,high,,,,,,false,,,,,false,925401.3000000119,925401.1999999881,,925401,,925414.928,4,500,,
sequence,flow.Sequence,10_4,2023-11-17T18:43:04.745Z,,,,,,,,,,,4469.702999988105,completion,,,,,,,high,high,,,,,,false,,,,,false,925401.3000000119,925401.1999999881,920914.747,920928.8999999762,920931.497,925414.928,4,500,,
trial,html.Screen,10_5_0,2023-11-17T18:43:08.408Z,,,,1,0.012810673904807,-0.00400964452501,,0.04,false,lh,3649.3720000119647,response,-0.8644465729542988,0.9185553218833455,-1.0668621671810128,0.8679598285079457,0.9373653315488024,-0.9609117424671716,low,high,,ISIC_0064656.JPG,9,ISIC_6718969.JPG,25,false,0.21000000000000008,ll,keypress(f),0,false,929064.3000000119,929064.3000000119,925398.193,925401.5,925414.928,929081.667,4,500,6,
break,html.Screen,10_5_1,2023-11-17T18:43:08.408Z,,,,,,,,,,,NaN,,,,,,,,low,high,,,,,,false,,,,,false,929065,929064.8000000119,,929064.5,,929081.667,4,500,,
break_continue,html.Screen,10_5_2,2023-11-17T18:43:08.409Z,,,,,,,,,,,NaN,,,,,,,,low,high,,,,,,false,,,,,false,929065.3000000119,929065.1999999881,,929065.0999999642,,929081.667,4,500,,
sequence,flow.Sequence,10_5,2023-11-17T18:43:08.409Z,,,,,,,,,,,3650.271999988123,completion,,,,,,,low,high,,,,,,false,,,,,false,929065.5,929065.1999999881,925398.193,925401.3999999762,925414.928,929081.667,4,500,,
trial,html.Screen,10_6_0,2023-11-17T18:43:12.528Z,,,,1,0.012020985739544,-0.0126097407389903,,0.04,true,hh,4103.232999976142,response,0.985420189652684,0.9185553218833455,-1.0668621671810128,0.8921028806662099,0.9373653315488024,-0.9609117424671716,high,high,,ISIC_0069379.JPG,9,ISIC_0014982.JPG,45,false,0.1,hh,keypress(i),0,false,933185.1999999881,933184.8999999762,929064.843,929065.5999999642,929081.667,933198.267,4,500,7,
break,html.Screen,10_6_1,2023-11-17T18:43:12.530Z,,,,,,,,,,,NaN,,,,,,,,high,high,,,,,,false,,,,,false,933186.3000000119,933186,,933185.5,,933198.267,4,500,,
break_continue,html.Screen,10_6_2,2023-11-17T18:43:12.530Z,,,,,,,,,,,NaN,,,,,,,,high,high,,,,,,false,,,,,false,933186.8999999762,933186.6999999881,,933186.3999999762,,933198.267,4,500,,
sequence,flow.Sequence,10_6,2023-11-17T18:43:12.530Z,,,,,,,,,,,4105.032999988063,completion,,,,,,,high,high,,,,,,false,,,,,false,933187.1999999881,933186.6999999881,929064.843,929065.5999999642,929081.667,933198.267,4,500,,
trial,html.Screen,10_7_0,2023-11-17T18:43:19.104Z,,,,1,0.0060934073440827,0.0279108145883031,,0.04,true,ll,6562.132999976166,response,-1.0901635293704552,0.9185553218833455,-1.0668621671810128,-1.0348352814358883,0.9373653315488024,-0.9609117424671716,low,low,,ISIC_0032604.JPG,9,ISIC_7583134.JPG,29,false,0.11,ll,keypress(f),0,false,939760.5,939760.3999999762,933181.563,933187.3000000119,933198.267,939764.884,4,500,8,
break,html.Screen,10_7_1,2023-11-17T18:43:19.105Z,,,,,,,,,,,NaN,,,,,,,,low,low,,,,,,false,,,,,false,939761.1999999881,939761.1999999881,,939760.6999999881,,939764.884,4,500,,
break_continue,html.Screen,10_7_2,2023-11-17T18:43:19.105Z,,,,,,,,,,,NaN,,,,,,,,low,low,,,,,,false,,,,,false,939761.6999999881,939761.5999999642,,939761.3999999762,,939764.884,4,500,,
sequence,flow.Sequence,10_7,2023-11-17T18:43:19.105Z,,,,,,,,,,,6563.332999964245,completion,,,,,,,low,low,,,,,,false,,,,,false,939761.8999999762,939761.5999999642,933181.563,933187.3000000119,933198.267,939764.884,4,500,,
trial,html.Screen,10_8_0,2023-11-17T18:43:28.455Z,,,,1,-0.0327772618698018,0.0056908372048728,,0.04,false,lh,9347.215999964275,response,-1.2018448523268856,0.9185553218833455,-1.0668621671810128,0.8157731190790072,0.9373653315488024,-0.9609117424671716,low,high,,ISIC_7897925.JPG,9,ISIC_7662993.JPG,25,false,0.21000000000000008,hh,keypress(i),0,false,949112.1999999881,949112.0999999642,939748.393,939762.0999999642,939764.884,949114.862,4,500,9,
break,html.Screen,10_8_1,2023-11-17T18:43:28.456Z,,,,,,,,,,,NaN,,,,,,,,low,high,,,,,,false,,,,,false,949112.5,949112.3999999762,,949112.1999999881,,949114.862,4,500,,
break_continue,html.Screen,10_8_2,2023-11-17T18:43:28.456Z,,,,,,,,,,,NaN,,,,,,,,low,high,,,,,,false,,,,,false,949112.6999999881,949112.5999999642,,949112.5,,949114.862,4,500,,
sequence,flow.Sequence,10_8,2023-11-17T18:43:28.456Z,,,,,,,,,,,9347.715999964275,completion,,,,,,,low,high,,,,,,false,,,,,false,949112.8000000119,949112.5999999642,939748.393,939762.0999999642,939764.884,949114.862,4,500,,
trial,html.Screen,10_9_0,2023-11-17T18:43:37.400Z,,,,1,-0.0199897690678184,-0.0312486875504497,,0.04,false,hl,8941.438000011956,response,0.9566823908868002,0.9185553218833455,-1.0668621671810128,-0.9602125665128364,0.9373653315488024,-0.9609117424671716,high,low,,ISIC_5482426.JPG,9,ISIC_0056784.JPG,26,false,0.17000000000000004,hh,keypress(i),0,false,958056.3999999762,958056.3000000119,949097.992,949112.8999999762,949114.862,958064.902,4,500,10,
break,html.Screen,10_9_1,2023-11-17T18:43:37.400Z,,,,,,,,,,,NaN,,,,,,,,high,low,,,,,,false,,,,,false,958056.8999999762,958056.8999999762,,958056.6999999881,,958064.902,4,500,,
break_continue,html.Screen,10_9_2,2023-11-17T18:43:37.401Z,,,,,,,,,,,NaN,,,,,,,,high,low,,,,,,false,,,,,false,958057.3000000119,958057.3000000119,,958057.0999999642,,958064.902,4,500,,
sequence,flow.Sequence,10_9,2023-11-17T18:43:37.401Z,,,,,,,,,,,8942.438000011956,completion,,,,,,,high,low,,,,,,false,,,,,false,958057.3999999762,958057.3000000119,949097.992,949112.8000000119,949114.862,958064.902,4,500,,
trial,html.Screen,10_10_0,2023-11-17T18:43:42.808Z,,,,1,0.0077673378094614,0.0021810768579373,,0.04,false,lh,5399.297999988077,response,-1.1343164084491792,0.9185553218833455,-1.0668621671810128,0.7599392888539781,0.9373653315488024,-0.9609117424671716,low,high,,ISIC_0067621.JPG,8,ISIC_0032265.JPG,25,false,0.21000000000000008,ll,keypress(f),0,false,963464.3000000119,963464.1999999881,958048,958057.5999999642,958064.902,963482.411,4,500,11,
break,html.Screen,10_10_1,2023-11-17T18:43:42.808Z,,,,,,,,,,,NaN,,,,,,,,low,high,,,,,,false,,,,,false,963464.5999999642,963464.5999999642,,963464.3999999762,,963482.411,4,500,,
break_continue,html.Screen,10_10_2,2023-11-17T18:43:42.808Z,,,,,,,,,,,NaN,,,,,,,,low,high,,,,,,false,,,,,false,963464.8999999762,963464.8999999762,,963464.8000000119,,963482.411,4,500,,
sequence,flow.Sequence,10_10,2023-11-17T18:43:42.808Z,,,,,,,,,,,5399.997999976156,completion,,,,,,,low,high,,,,,,false,,,,,false,963465.0999999642,963464.8999999762,958048,958057.5,958064.902,963482.411,4,500,,
trial,html.Screen,10_11_0,2023-11-17T18:43:51.703Z,,,,1,-0.0361875505619981,0.0291457404567876,,0.04,true,hh,8877.688999964274,response,0.8984767404401109,0.9185553218833455,-1.0668621671810128,1.0289479104867394,0.9373653315488024,-0.9609117424671716,high,high,,ISIC_0027480.JPG,9,ISIC_0011458.JPG,45,false,0.1,hh,keypress(i),0,false,972360.0999999642,972360.0999999642,963448.079,963465.0999999642,963482.411,972364.923,4,500,12,
break,html.Screen,10_11_1,2023-11-17T18:43:51.704Z,,,,,,,,,,,NaN,,,,,,,,high,high,,,,,,false,,,,,false,972360.5,972360.3999999762,,972360.3000000119,,972364.923,4,500,,
break_continue,html.Screen,10_11_2,2023-11-17T18:43:51.704Z,,,,,,,,,,,NaN,,,,,,,,high,high,,,,,,false,,,,,false,972360.6999999881,972360.6999999881,,972360.5999999642,,972364.923,4,500,,
sequence,flow.Sequence,10_11,2023-11-17T18:43:51.704Z,,,,,,,,,,,8878.288999988115,completion,,,,,,,high,high,,,,,,false,,,,,false,972360.8999999762,972360.6999999881,963448.079,963465.0999999642,963482.411,972364.923,4,500,,
trial,html.Screen,10_12_0,2023-11-17T18:43:55.672Z,,,,1,-0.0127320821962457,0.0315308940184827,,0.04,true,hh,3963.9769999762066,response,0.8970039097647139,0.9185553218833455,-1.0668621671810128,0.9775899280745278,0.9373653315488024,-0.9609117424671716,high,high,,ISIC_8156101.JPG,9,ISIC_0024449.JPG,45,false,0.1,hh,keypress(i),0,false,976329,976328.8999999762,972348.311,972360.8999999762,972364.923,976331.643,4,500,13,
break,html.Screen,10_12_1,2023-11-17T18:43:55.673Z,,,,,,,,,,,NaN,,,,,,,,high,high,,,,,,false,,,,,false,976329.8000000119,976329.6999999881,,976329.3000000119,,976331.643,4,500,,
break_continue,html.Screen,10_12_2,2023-11-17T18:43:55.674Z,,,,,,,,,,,NaN,,,,,,,,high,high,,,,,,false,,,,,false,976330.3999999762,976330.3000000119,,976330.0999999642,,976331.643,4,500,,
sequence,flow.Sequence,10_12,2023-11-17T18:43:55.674Z,,,,,,,,,,,3965.3770000119694,completion,,,,,,,high,high,,,,,,false,,,,,false,976330.5999999642,976330.3000000119,972348.311,972360.8999999762,972364.923,976331.643,4,500,,
trial,html.Screen,10_13_0,2023-11-17T18:44:01.448Z,,,,1,-0.010035581303589,0.0100711721396864,,0.04,true,hl,5772.35699999996,response,0.9448560599810628,0.9185553218833455,-1.0668621671810128,-0.9099421612683488,0.9373653315488024,-0.9609117424671716,high,low,,ISIC_0030592.JPG,9,ISIC_9684318.JPG,26,false,0.17000000000000004,hl,keypress(j),0,false,982104.0999999642,982104,976314.88,976330.8000000119,976331.643,982114.893,4,500,14,
break,html.Screen,10_13_1,2023-11-17T18:44:01.449Z,,,,,,,,,,,NaN,,,,,,,,high,low,,,,,,false,,,,,false,982104.5,982104.5,,982104.1999999881,,982114.893,4,500,,
break_continue,html.Screen,10_13_2,2023-11-17T18:44:01.449Z,,,,,,,,,,,NaN,,,,,,,,high,low,,,,,,false,,,,,false,982104.8000000119,982104.8000000119,,982104.5999999642,,982114.893,4,500,,
sequence,flow.Sequence,10_13,2023-11-17T18:44:01.449Z,,,,,,,,,,,5773.157000011881,completion,,,,,,,high,low,,,,,,false,,,,,false,982104.8999999762,982104.8000000119,976314.88,976330.6999999881,976331.643,982114.893,4,500,,
trial,html.Screen,10_14_0,2023-11-17T18:44:06.080Z,,,,1,0.0023664502831079,0.0252784582169994,,0.04,true,hl,4621.10699999996,response,0.7877592509894734,0.9185553218833455,-1.0668621671810128,-1.1264694181779615,0.9373653315488024,-0.9609117424671716,high,low,,ISIC_4156010.JPG,9,ISIC_9058340.JPG,26,false,0.17000000000000004,hl,keypress(j),0,false,986736.1999999881,986736,982098.076,982104.8999999762,982114.893,986748.298,4,500,15,
break,html.Screen,10_14_1,2023-11-17T18:44:06.081Z,,,,,,,,,,,NaN,,,,,,,,high,low,,,,,,false,,,,,false,986736.6999999881,986736.5,,986736.3000000119,,986748.298,4,500,,
break_continue,html.Screen,10_14_2,2023-11-17T18:44:06.081Z,,,,,,,,,,,NaN,,,,,,,,high,low,,,,,,false,,,,,false,986736.8999999762,986736.8999999762,,986736.6999999881,,986748.298,4,500,,
sequence,flow.Sequence,10_14,2023-11-17T18:44:06.081Z,,,,,,,,,,,4622.006999976118,completion,,,,,,,high,low,,,,,,false,,,,,false,986737.0999999642,986736.8999999762,982098.076,982104.8999999762,982114.893,986748.298,4,500,,
trial,html.Screen,10_15_0,2023-11-17T18:44:12.080Z,,,,1,0.0118555311043871,0.0087774532070196,,0.04,true,hl,5987.502000011969,response,0.8588347582642082,0.9185553218833455,-1.0668621671810128,-0.8899503828496784,0.9373653315488024,-0.9609117424671716,high,low,,ISIC_6488658.JPG,9,ISIC_0174983.JPG,26,false,0.17000000000000004,hl,keypress(j),0,false,992735.8999999762,992735.8000000119,986731.628,986737.1999999881,986748.298,992748.419,4,500,16,
break,html.Screen,10_15_1,2023-11-17T18:44:12.081Z,,,,,,,,,,,NaN,,,,,,,,high,low,,,,,,false,,,,,false,992736.1999999881,992736.1999999881,,992736,,992748.419,4,500,,
break_continue,html.Screen,10_15_2,2023-11-17T18:44:12.081Z,,,,,,,,,,,NaN,,,,,,,,high,low,,,,,,false,,,,,false,992736.5999999642,992736.5,,992736.3999999762,,992748.419,4,500,,
sequence,flow.Sequence,10_15,2023-11-17T18:44:12.081Z,,,,,,,,,,,5988.202000000048,completion,,,,,,,high,low,,,,,,false,,,,,false,992736.5999999642,992736.5,986731.628,986737.0999999642,986748.298,992748.419,4,500,,
trial,html.Screen,10_16_0,2023-11-17T18:44:22.554Z,,,,1,-0.0365981355399771,-0.0162670920008846,,0.04,true,ll,10460.881000011927,response,-1.0064329161780483,0.9185553218833455,-1.0668621671810128,-1.0631481857644678,0.9373653315488024,-0.9609117424671716,low,low,,ISIC_0982855.JPG,8,ISIC_0033137.JPG,29,false,0.11,ll,keypress(f),0,false,1003209.6999999881,1003209.3000000119,992731.838,992736.6999999881,992748.419,1003214.937,4,500,17,
break,html.Screen,10_16_1,2023-11-17T18:44:22.555Z,,,,,,,,,,,NaN,,,,,,,,low,low,,,,,,false,,,,,false,1003210.8999999762,1003210.6999999881,,1003210.0999999642,,1003214.937,4,500,,
break_continue,html.Screen,10_16_2,2023-11-17T18:44:22.556Z,,,,,,,,,,,NaN,,,,,,,,low,low,,,,,,false,,,,,false,1003211.5,1003211.3000000119,,1003211.0999999642,,1003214.937,4,500,,
sequence,flow.Sequence,10_16,2023-11-17T18:44:22.556Z,,,,,,,,,,,10462.881000011927,completion,,,,,,,low,low,,,,,,false,,,,,false,1003211.8000000119,1003211.3000000119,992731.838,992736.5999999642,992748.419,1003214.937,4,500,,
trial,html.Screen,10_17_0,2023-11-17T18:44:29.569Z,,,,1,0.0377791839943904,-0.0227626648172468,,0.04,false,hl,7009.3630000118865,response,0.8015753713975186,0.9185553218833455,-1.0668621671810128,-1.0067065355978264,0.9373653315488024,-0.9609117424671716,high,low,,ISIC_7167479.JPG,9,ISIC_0002119.JPG,26,false,0.17000000000000004,ll,keypress(f),0,false,1010224.5,1010224.3000000119,1003198.521,1003212,1003214.937,1010231.652,4,500,18,
break,html.Screen,10_17_1,2023-11-17T18:44:29.569Z,,,,,,,,,,,NaN,,,,,,,,high,low,,,,,,false,,,,,false,1010225.0999999642,1010224.8999999762,,1010224.6999999881,,1010231.652,4,500,,
break_continue,html.Screen,10_17_2,2023-11-17T18:44:29.570Z,,,,,,,,,,,NaN,,,,,,,,high,low,,,,,,false,,,,,false,1010225.5,1010225.3000000119,,1010225.1999999881,,1010231.652,4,500,,
sequence,flow.Sequence,10_17,2023-11-17T18:44:29.570Z,,,,,,,,,,,7010.3630000118865,completion,,,,,,,high,low,,,,,,false,,,,,false,1010225.5999999642,1010225.3000000119,1003198.521,1003211.8999999762,1003214.937,1010231.652,4,500,,
trial,html.Screen,10_18_0,2023-11-17T18:44:40.112Z,,,,1,-0.0361875505619981,0.0291457404567876,,0.04,true,hl,10536.148000011919,response,1.0088376543442317,0.9185553218833455,-1.0668621671810128,-0.8023075994977575,0.9373653315488024,-0.9609117424671716,high,low,,ISIC_0027480.JPG,10,ISIC_7619234.JPG,26,false,0.17000000000000004,hl,keypress(j),0,false,1020767.8999999762,1020767.8000000119,1010214.954,1010225.6999999881,1010231.652,1020781.627,4,500,19,
break,html.Screen,10_18_1,2023-11-17T18:44:40.113Z,,,,,,,,,,,NaN,,,,,,,,high,low,,,,,,false,,,,,false,1020768.3000000119,1020768.3000000119,,1020768,,1020781.627,4,500,,
break_continue,html.Screen,10_18_2,2023-11-17T18:44:40.113Z,,,,,,,,,,,NaN,,,,,,,,high,low,,,,,,false,,,,,false,1020768.5999999642,1020768.5,,1020768.3999999762,,1020781.627,4,500,,
sequence,flow.Sequence,10_18,2023-11-17T18:44:40.113Z,,,,,,,,,,,10536.847999999998,completion,,,,,,,high,low,,,,,,false,,,,,false,1020768.6999999881,1020768.5,1010214.954,1010225.6999999881,1010231.652,1020781.627,4,500,,
trial,html.Screen,10_19_0,2023-11-17T18:44:43.785Z,,,,1,0.0118555311043871,0.0087774532070196,,0.04,true,hl,3658.8730000000214,response,0.7761549898346118,0.9185553218833455,-1.0668621671810128,-1.0995228188562456,0.9373653315488024,-0.9609117424671716,high,low,,ISIC_6488658.JPG,10,ISIC_1835041.JPG,26,false,0.17000000000000004,hl,keypress(j),0,false,1024440.6999999881,1024440.5,1020764.976,1020768.8000000119,1020781.627,1024448.319,4,500,20,
break,html.Screen,10_19_1,2023-11-17T18:44:43.786Z,,,,,,,,,,,NaN,,,,,,,,high,low,,,,,,false,,,,,false,1024441.3000000119,1024441.1999999881,,1024441,,1024448.319,4,500,,
break_continue,html.Screen,10_19_2,2023-11-17T18:44:43.786Z,,,,,,,,,,,NaN,,,,,,,,high,low,,,,,,false,,,,,false,1024441.6999999881,1024441.5999999642,,1024441.5,,1024448.319,4,500,,
sequence,flow.Sequence,10_19,2023-11-17T18:44:43.786Z,,,,,,,,,,,3659.9729999642586,completion,,,,,,,high,low,,,,,,false,,,,,false,1024442,1024441.5999999642,1020764.976,1020768.8000000119,1020781.627,1024448.319,4,500,,
trial,html.Screen,10_20_0,2023-11-17T18:44:47.984Z,,,,1,0.012020985739544,-0.0126097407389903,,0.04,false,lh,4191.58099997614,response,-0.9039158082670506,0.9185553218833455,-1.0668621671810128,1.0517562064343149,0.9373653315488024,-0.9609117424671716,low,high,,ISIC_0069379.JPG,9,ISIC_0015411.JPG,25,false,0.21000000000000008,ll,keypress(f),0,false,1028640.0999999642,1028639.8999999762,1024431.629,1024442.0999999642,1024448.319,1028648.317,4,500,21,
break,html.Screen,10_20_1,2023-11-17T18:44:47.985Z,,,,,,,,,,,NaN,,,,,,,,low,high,,,,,,false,,,,,false,1028640.5,1028640.3999999762,,1028640.1999999881,,1028648.317,4,500,,
break_continue,html.Screen,10_20_2,2023-11-17T18:44:47.985Z,,,,,,,,,,,NaN,,,,,,,,low,high,,,,,,false,,,,,false,1028640.5999999642,1028640.5999999642,,1028640.5,,1028648.317,4,500,,
sequence,flow.Sequence,10_20,2023-11-17T18:44:47.985Z,,,,,,,,,,,4192.2809999642195,completion,,,,,,,low,high,,,,,,false,,,,,false,1028640.8000000119,1028640.5999999642,1024431.629,1024442.0999999642,1024448.319,1028648.317,4,500,,
trial,html.Screen,10_21_0,2023-11-17T18:44:51.329Z,,,,1,-0.0086413421586899,-0.0360184993500958,,0.04,true,hh,3335.983000011882,response,0.9009408285331614,0.9185553218833455,-1.0668621671810128,0.8985422901220989,0.9373653315488024,-0.9609117424671716,high,high,,ISIC_0010767.JPG,9,ISIC_0033834.JPG,45,false,0.1,hh,keypress(i),0,false,1031984.5,1031984.3000000119,1028631.538,1028640.8000000119,1028648.317,1031998.392,4,500,22,
break,html.Screen,10_21_1,2023-11-17T18:44:51.329Z,,,,,,,,,,,NaN,,,,,,,,high,high,,,,,,false,,,,,false,1031985,1031984.8999999762,,1031984.5999999642,,1031998.392,4,500,,
break_continue,html.Screen,10_21_2,2023-11-17T18:44:51.330Z,,,,,,,,,,,NaN,,,,,,,,high,high,,,,,,false,,,,,false,1031985.5999999642,1031985.5,,1031985.3999999762,,1031998.392,4,500,,
sequence,flow.Sequence,10_21,2023-11-17T18:44:51.330Z,,,,,,,,,,,3337.182999999961,completion,,,,,,,high,high,,,,,,false,,,,,false,1031985.8000000119,1031985.5,1028631.538,1028640.8000000119,1028648.317,1031998.392,4,500,,
trial,html.Screen,10_22_0,2023-11-17T18:44:57.114Z,,,,1,0.0377791839943904,-0.0227626648172468,,0.04,false,ll,5770.007999976166,response,-1.0275060871969903,0.9185553218833455,-1.0668621671810128,-0.9101747326852082,0.9373653315488024,-0.9609117424671716,low,low,,ISIC_7167479.JPG,9,ISIC_9155028.JPG,29,false,0.11,lh,keypress(e),0,false,1037768.5999999642,1037768.3999999762,1031981.76,1031985.8999999762,1031998.392,1037781.763,4,500,23,
break,html.Screen,10_22_1,2023-11-17T18:44:57.114Z,,,,,,,,,,,NaN,,,,,,,,low,low,,,,,,false,,,,,false,1037769.3000000119,1037769.1999999881,,1037768.8000000119,,1037781.763,4,500,,
break_continue,html.Screen,10_22_2,2023-11-17T18:44:57.115Z,,,,,,,,,,,NaN,,,,,,,,low,low,,,,,,false,,,,,false,1037769.6999999881,1037769.5,,1037769.5,,1037781.763,4,500,,
sequence,flow.Sequence,10_22,2023-11-17T18:44:57.115Z,,,,,,,,,,,5771.108000000007,completion,,,,,,,low,low,,,,,,false,,,,,false,1037769.8999999762,1037769.5,1031981.76,1031985.8999999762,1031998.392,1037781.763,4,500,,
trial,html.Screen,10_23_0,2023-11-17T18:45:01.281Z,,,,1,-0.0127320821962457,0.0315308940184827,,0.04,true,hh,4154.236999999965,response,0.985420189652684,0.9185553218833455,-1.0668621671810128,0.8921028806662099,0.9373653315488024,-0.9609117424671716,high,high,,ISIC_8156101.JPG,9,ISIC_0014982.JPG,45,false,0.1,hh,keypress(i),0,false,1041936,1041936,1037765.1,1037770,1037781.763,1041965.088,4,500,24,
break,html.Screen,10_23_1,2023-11-17T18:45:01.282Z,,,,,,,,,,,NaN,,,,,,,,high,high,,,,,,false,,,,,false,1041936.5,1041936.3999999762,,1041936.0999999642,,1041965.088,4,500,,
break_continue,html.Screen,10_23_2,2023-11-17T18:45:01.282Z,,,,,,,,,,,NaN,,,,,,,,high,high,,,,,,false,,,,,false,1041936.6999999881,1041936.6999999881,,1041936.5999999642,,1041965.088,4,500,,
sequence,flow.Sequence,10_23,2023-11-17T18:45:01.282Z,,,,,,,,,,,4154.936999988044,completion,,,,,,,high,high,,,,,,false,,,,,false,1041936.8000000119,1041936.6999999881,1037765.1,1037769.8999999762,1037781.763,1041965.088,4,500,,
trial,html.Screen,10_24_0,2023-11-17T18:45:09.731Z,,,,1,-0.0127320821962457,0.0315308940184827,,0.04,false,ll,8420.011999964248,response,-0.9658792885069516,0.9185553218833455,-1.0668621671810128,-0.916173605730014,0.9373653315488024,-0.9609117424671716,low,low,,ISIC_8156101.JPG,9,ISIC_8979275.JPG,29,false,0.11,hh,keypress(i),0,false,1050385.3999999762,1050385.0999999642,1041948.508,1041936.8999999762,1041965.088,1050398.422,4,500,25,
break,html.Screen,10_24_1,2023-11-17T18:45:09.732Z,,,,,,,,,,,NaN,,,,,,,,low,low,,,,,,false,,,,,false,1050386.5,1050386.300000012,,1050385.800000012,,1050398.422,4,500,,
break_continue,html.Screen,10_24_2,2023-11-17T18:45:09.732Z,,,,,,,,,,,NaN,,,,,,,,low,low,,,,,,false,,,,,false,1050387,1050386.800000012,,1050386.5999999642,,1050398.422,4,500,,
sequence,flow.Sequence,10_24,2023-11-17T18:45:09.732Z,,,,,,,,,,,8421.712000011932,completion,,,,,,,low,low,,,,,,false,,,,,false,1050387.199999988,1050386.800000012,1041948.508,1041936.8999999762,1041965.088,1050398.422,4,500,,
trial,html.Screen,10_25_0,2023-11-17T18:45:15.098Z,,,,1,-0.0189295602385628,-0.0128812415435153,,0.04,true,ll,5353.8780000119,response,-1.1727618800748076,0.9185553218833455,-1.0668621671810128,-1.0636787813411093,0.9373653315488024,-0.9609117424671716,low,low,,ISIC_0010372.JPG,9,ISIC_9690371.JPG,29,false,0.11,ll,keypress(f),0,false,1055752.5,1055752.300000012,1050381.56,1050387.300000012,1050398.422,1055765.049,4,500,26,
break,html.Screen,10_25_1,2023-11-17T18:45:15.098Z,,,,,,,,,,,NaN,,,,,,,,low,low,,,,,,false,,,,,false,1055753.0999999642,1055753,,1055752.699999988,,1055765.049,4,500,,
break_continue,html.Screen,10_25_2,2023-11-17T18:45:15.099Z,,,,,,,,,,,NaN,,,,,,,,low,low,,,,,,false,,,,,false,1055753.5,1055753.300000012,,1055753.300000012,,1055765.049,4,500,,
sequence,flow.Sequence,10_25,2023-11-17T18:45:15.099Z,,,,,,,,,,,5354.8780000119,completion,,,,,,,low,low,,,,,,false,,,,,false,1055753.5999999642,1055753.300000012,1050381.56,1050387.199999988,1050398.422,1055765.049,4,500,,
trial,html.Screen,10_26_0,2023-11-17T18:45:20.051Z,,,,1,0.0118555311043871,0.0087774532070196,,0.04,false,hl,4940.350999976043,response,0.8407642478899736,0.9185553218833455,-1.0668621671810128,-0.9542322753334054,0.9373653315488024,-0.9609117424671716,high,low,,ISIC_6488658.JPG,9,ISIC_9090822.JPG,26,false,0.17000000000000004,hh,keypress(i),0,false,1060705.699999988,1060705.3999999762,1055748.391,1055753.800000012,1055765.049,1060715.018,4,500,27,
break,html.Screen,10_26_1,2023-11-17T18:45:20.052Z,,,,,,,,,,,NaN,,,,,,,,high,low,,,,,,false,,,,,false,1060706.800000012,1060706.5,,1060706,,1060715.018,4,500,,
break_continue,html.Screen,10_26_2,2023-11-17T18:45:20.053Z,,,,,,,,,,,NaN,,,,,,,,high,low,,,,,,false,,,,,false,1060707.3999999762,1060707.199999988,,1060707,,1060715.018,4,500,,
sequence,flow.Sequence,10_26,2023-11-17T18:45:20.053Z,,,,,,,,,,,4942.150999987964,completion,,,,,,,high,low,,,,,,false,,,,,false,1060707.699999988,1060707.199999988,1055748.391,1055753.699999988,1055765.049,1060715.018,4,500,,
trial,html.Screen,10_27_0,2023-11-17T18:45:24.434Z,,,,1,-0.0051046740562181,0.0178832721027728,,0.04,true,lh,4373.782000011997,response,-0.9087169856594104,0.9185553218833455,-1.0668621671810128,0.8835647084207277,0.9373653315488024,-0.9609117424671716,low,high,,ISIC_9545819.JPG,10,ISIC_0000349.JPG,25,false,0.21000000000000008,lh,keypress(e),0,false,1065089.0999999642,1065088.800000012,1060698.471,1060707.8999999762,1060715.018,1065098.438,4,500,28,
break,html.Screen,10_27_1,2023-11-17T18:45:24.435Z,,,,,,,,,,,NaN,,,,,,,,low,high,,,,,,false,,,,,false,1065090,1065089.699999988,,1065089.3999999762,,1065098.438,4,500,,
break_continue,html.Screen,10_27_2,2023-11-17T18:45:24.436Z,,,,,,,,,,,NaN,,,,,,,,low,high,,,,,,false,,,,,false,1065090.5999999642,1065090.300000012,,1065090.199999988,,1065098.438,4,500,,
sequence,flow.Sequence,10_27,2023-11-17T18:45:24.436Z,,,,,,,,,,,4375.282000011997,completion,,,,,,,low,high,,,,,,false,,,,,false,1065090.800000012,1065090.300000012,1060698.471,1060707.800000012,1060715.018,1065098.438,4,500,,
trial,html.Screen,10_28_0,2023-11-17T18:45:30.697Z,,,,1,-0.010035581303589,0.0100711721396864,,0.04,false,hh,6253.561999999918,response,0.913652449364318,0.9185553218833455,-1.0668621671810128,0.9917659814487484,0.9373653315488024,-0.9609117424671716,high,high,,ISIC_0030592.JPG,9,ISIC_0032233.JPG,45,false,0.1,hl,keypress(j),0,false,1071352.0999999642,1071352,1065081.784,1065090.8999999762,1065098.438,1071365.077,4,500,29,
break,html.Screen,10_28_1,2023-11-17T18:45:30.698Z,,,,,,,,,,,NaN,,,,,,,,high,high,,,,,,false,,,,,false,1071352.5,1071352.3999999762,,1071352.300000012,,1071365.077,4,500,,
break_continue,html.Screen,10_28_2,2023-11-17T18:45:30.698Z,,,,,,,,,,,NaN,,,,,,,,high,high,,,,,,false,,,,,false,1071352.5999999642,1071352.5999999642,,1071352.5999999642,,1071365.077,4,500,,
sequence,flow.Sequence,10_28,2023-11-17T18:45:30.698Z,,,,,,,,,,,6254.161999964155,completion,,,,,,,high,high,,,,,,false,,,,,false,1071352.800000012,1071352.5999999642,1065081.784,1065090.800000012,1065098.438,1071365.077,4,500,,
trial,html.Screen,10_29_0,2023-11-17T18:45:34.641Z,,,,1,0.0023664502831079,0.0252784582169994,,0.04,true,hl,3930.8229999761097,response,0.8087127179888679,0.9185553218833455,-1.0668621671810128,-0.8480635840272462,0.9373653315488024,-0.9609117424671716,high,low,,ISIC_4156010.JPG,9,ISIC_3941147.JPG,26,false,0.17000000000000004,hl,keypress(j),0,false,1075296,1075295.8999999762,1071348.36,1071352.800000012,1071365.077,1075298.382,4,500,30,
break,html.Screen,10_29_1,2023-11-17T18:45:34.642Z,,,,,,,,,,,NaN,,,,,,,,high,low,,,,,,false,,,,,false,1075296.3999999762,1075296.300000012,,1075296.0999999642,,1075298.382,4,500,,
break_continue,html.Screen,10_29_2,2023-11-17T18:45:34.642Z,,,,,,,,,,,NaN,,,,,,,,high,low,,,,,,false,,,,,false,1075296.5999999642,1075296.5,,1075296.5,,1075298.382,4,500,,
sequence,flow.Sequence,10_29,2023-11-17T18:45:34.642Z,,,,,,,,,,,3931.4229999999516,completion,,,,,,,high,low,,,,,,false,,,,,false,1075296.699999988,1075296.5,1071348.36,1071352.800000012,1071365.077,1075298.382,4,500,,
trial,html.Screen,10_30_0,2023-11-17T18:45:38.482Z,,,,1,0.0350697500805515,0.0166617848231997,,0.04,false,ll,3837.9180000119377,response,-0.9597587651037712,0.9185553218833455,-1.0668621671810128,-0.8860066980618031,0.9373653315488024,-0.9609117424671716,low,low,,ISIC_0024423.JPG,9,ISIC_7534592.JPG,29,false,0.11,hl,keypress(j),0,false,1079136.3999999762,1079136.300000012,1075281.817,1075296.699999988,1075298.382,1079148.54,4,500,31,
break,html.Screen,10_30_1,2023-11-17T18:45:38.482Z,,,,,,,,,,,NaN,,,,,,,,low,low,,,,,,false,,,,,false,1079137,1079136.8999999762,,1079136.5999999642,,1079148.54,4,500,,
break_continue,html.Screen,10_30_2,2023-11-17T18:45:38.482Z,,,,,,,,,,,NaN,,,,,,,,low,low,,,,,,false,,,,,false,1079137.0999999642,1079137,,1079137,,1079148.54,4,500,,
sequence,flow.Sequence,10_30,2023-11-17T18:45:38.482Z,,,,,,,,,,,3838.6180000000168,completion,,,,,,,low,low,,,,,,false,,,,,false,1079137.199999988,1079137,1075281.817,1075296.699999988,1075298.382,1079148.54,4,500,,
trial,html.Screen,10_31_0,2023-11-17T18:45:48.417Z,,,,1,0.0057914759495055,-0.018500200317654,,0.04,true,hh,9923.459999999963,response,0.918811733700349,0.9185553218833455,-1.0668621671810128,0.8487727309970138,0.9373653315488024,-0.9609117424671716,high,high,,ISIC_0058723.JPG,9,ISIC_0028152.JPG,45,false,0.1,hh,keypress(i),0,false,1089072.199999988,1089072,1079131.689,1079137.199999988,1079148.54,1089098.444,4,500,32,
break,html.Screen,10_31_1,2023-11-17T18:45:48.418Z,,,,,,,,,,,NaN,,,,,,,,high,high,,,,,,false,,,,,false,1089072.699999988,1089072.5999999642,,1089072.3999999762,,1089098.444,4,500,,
break_continue,html.Screen,10_31_2,2023-11-17T18:45:48.418Z,,,,,,,,,,,NaN,,,,,,,,high,high,,,,,,false,,,,,false,1089073,1089072.800000012,,1089072.800000012,,1089098.444,4,500,,
sequence,flow.Sequence,10_31,2023-11-17T18:45:48.418Z,,,,,,,,,,,9924.260000011884,completion,,,,,,,high,high,,,,,,false,,,,,false,1089073.0999999642,1089072.800000012,1079131.689,1079137.199999988,1079148.54,1089098.444,4,500,,
trial,html.Screen,10_32_0,2023-11-17T18:45:54.322Z,,,,1,-0.0127320821962457,0.0315308940184827,,0.04,false,lh,5878.35600001202,response,-1.1501717278509027,0.9185553218833455,-1.0668621671810128,0.8228936373136835,0.9373653315488024,-0.9609117424671716,low,high,,ISIC_8156101.JPG,9,ISIC_8398000.JPG,25,false,0.21000000000000008,hh,keypress(i),0,false,1094977,1094976.800000012,1089081.762,1089073.199999988,1089098.444,1094981.72,4,500,33,
break,html.Screen,10_32_1,2023-11-17T18:45:54.323Z,,,,,,,,,,,NaN,,,,,,,,low,high,,,,,,false,,,,,false,1094977.800000012,1094977.5999999642,,1094977.199999988,,1094981.72,4,500,,
break_continue,html.Screen,10_32_2,2023-11-17T18:45:54.323Z,,,,,,,,,,,NaN,,,,,,,,low,high,,,,,,false,,,,,false,1094978.300000012,1094978.0999999642,,1094978,,1094981.72,4,500,,
sequence,flow.Sequence,10_32,2023-11-17T18:45:54.324Z,,,,,,,,,,,5879.655999964336,completion,,,,,,,low,high,,,,,,false,,,,,false,1094978.5999999642,1094978.0999999642,1089081.762,1089073.0999999642,1089098.444,1094981.72,4,500,,
trial,html.Screen,10_33_0,2023-11-17T18:46:05.314Z,,,,1,-0.0327772618698018,0.0056908372048728,,0.04,false,ll,10986.080000011949,response,-1.0103403743290518,0.9185553218833455,-1.0668621671810128,-0.8700511901947987,0.9373653315488024,-0.9609117424671716,low,low,,ISIC_7897925.JPG,9,ISIC_1254469.JPG,29,false,0.11,hl,keypress(j),0,false,1105968,1105967.800000012,1094964.975,1094978.5999999642,1094981.72,1105981.731,4,500,34,
break,html.Screen,10_33_1,2023-11-17T18:46:05.314Z,,,,,,,,,,,NaN,,,,,,,,low,low,,,,,,false,,,,,false,1105968.3999999762,1105968.300000012,,1105968.0999999642,,1105981.731,4,500,,
break_continue,html.Screen,10_33_2,2023-11-17T18:46:05.314Z,,,,,,,,,,,NaN,,,,,,,,low,low,,,,,,false,,,,,false,1105968.5999999642,1105968.5,,1105968.3999999762,,1105981.731,4,500,,
sequence,flow.Sequence,10_33,2023-11-17T18:46:05.314Z,,,,,,,,,,,10986.780000000028,completion,,,,,,,low,low,,,,,,false,,,,,false,1105968.5999999642,1105968.5,1094964.975,1094978.5999999642,1094981.72,1105981.731,4,500,,
trial,html.Screen,10_34_0,2023-11-17T18:46:09.963Z,,,,1,0.0071892445601978,-0.0246015408628738,,0.04,true,ll,4635.168999976246,response,-1.1513073368404492,0.9185553218833455,-1.0668621671810128,-1.0485268550965705,0.9373653315488024,-0.9609117424671716,low,low,,ISIC_0014133.JPG,8,ISIC_0030666.JPG,29,false,0.11,ll,keypress(f),0,false,1110617.0999999642,1110616.8999999762,1105965.189,1105968.5999999642,1105981.731,1110631.795,4,500,35,
break,html.Screen,10_34_1,2023-11-17T18:46:09.964Z,,,,,,,,,,,NaN,,,,,,,,low,low,,,,,,false,,,,,false,1110618,1110617.800000012,,1110617.300000012,,1110631.795,4,500,,
break_continue,html.Screen,10_34_2,2023-11-17T18:46:09.964Z,,,,,,,,,,,NaN,,,,,,,,low,low,,,,,,false,,,,,false,1110618.5,1110618.3999999762,,1110618.199999988,,1110631.795,4,500,,
sequence,flow.Sequence,10_34,2023-11-17T18:46:09.965Z,,,,,,,,,,,4636.668999976246,completion,,,,,,,low,low,,,,,,false,,,,,false,1110618.699999988,1110618.3999999762,1105965.189,1105968.5999999642,1105981.731,1110631.795,4,500,,
trial,html.Screen,10_35_0,2023-11-17T18:46:14.338Z,,,,1,0.00126575685933,0.0325046559638838,,0.04,true,lh,4359.904999988154,response,-1.1224745971429997,0.9185553218833455,-1.0668621671810128,0.8423270217438888,0.9373653315488024,-0.9609117424671716,low,high,,ISIC_5682259.JPG,8,ISIC_0057032.JPG,25,false,0.21000000000000008,lh,keypress(e),0,false,1114991.800000012,1114991.699999988,1110614.96,1110618.8999999762,1110631.795,1114998.437,4,500,36,
break,html.Screen,10_35_1,2023-11-17T18:46:14.338Z,,,,,,,,,,,NaN,,,,,,,,low,high,,,,,,false,,,,,false,1114992.199999988,1114992,,1114991.8999999762,,1114998.437,4,500,,
break_continue,html.Screen,10_35_2,2023-11-17T18:46:14.338Z,,,,,,,,,,,NaN,,,,,,,,low,high,,,,,,false,,,,,false,1114992.3999999762,1114992.300000012,,1114992.199999988,,1114998.437,4,500,,
sequence,flow.Sequence,10_35,2023-11-17T18:46:14.338Z,,,,,,,,,,,4360.505000011995,completion,,,,,,,low,high,,,,,,false,,,,,false,1114992.3999999762,1114992.300000012,1110614.96,1110618.800000012,1110631.795,1114998.437,4,500,,
trial,html.Screen,10_36_0,2023-11-17T18:46:19.235Z,,,,1,-0.0199897690678184,-0.0312486875504497,,0.04,false,hl,4890.063000000082,response,1.0700930503975157,0.9185553218833455,-1.0668621671810128,-0.923753102263735,0.9373653315488024,-0.9609117424671716,high,low,,ISIC_5482426.JPG,10,ISIC_0000022.JPG,26,false,0.17000000000000004,lh,keypress(e),0,false,1119888.5999999642,1119888.5,1114981.83,1114992.3999999762,1114998.437,1119898.505,4,500,37,
break,html.Screen,10_36_1,2023-11-17T18:46:19.235Z,,,,,,,,,,,NaN,,,,,,,,high,low,,,,,,false,,,,,false,1119889.199999988,1119889.0999999642,,1119888.800000012,,1119898.505,4,500,,
break_continue,html.Screen,10_36_2,2023-11-17T18:46:19.235Z,,,,,,,,,,,NaN,,,,,,,,high,low,,,,,,false,,,,,false,1119889.5,1119889.300000012,,1119889.300000012,,1119898.505,4,500,,
sequence,flow.Sequence,10_36,2023-11-17T18:46:19.235Z,,,,,,,,,,,4890.863000012003,completion,,,,,,,high,low,,,,,,false,,,,,false,1119889.5999999642,1119889.300000012,1114981.83,1114992.3999999762,1114998.437,1119898.505,4,500,,
trial,html.Screen,10_37_0,2023-11-17T18:46:25.090Z,,,,1,0.0071892445601978,-0.0246015408628738,,0.04,true,hh,5845.39499997627,response,0.8970039097647139,0.9185553218833455,-1.0668621671810128,0.9775899280745278,0.9373653315488024,-0.9609117424671716,high,high,,ISIC_0014133.JPG,10,ISIC_0024449.JPG,45,false,0.1,hh,keypress(i),0,false,1125743.8999999762,1125743.8999999762,1119881.712,1119889.5999999642,1119898.505,1125748.456,4,500,38,
break,html.Screen,10_37_1,2023-11-17T18:46:25.090Z,,,,,,,,,,,NaN,,,,,,,,high,high,,,,,,false,,,,,false,1125744.3999999762,1125744.300000012,,1125744.0999999642,,1125748.456,4,500,,
break_continue,html.Screen,10_37_2,2023-11-17T18:46:25.090Z,,,,,,,,,,,NaN,,,,,,,,high,high,,,,,,false,,,,,false,1125744.5999999642,1125744.5999999642,,1125744.3999999762,,1125748.456,4,500,,
sequence,flow.Sequence,10_37,2023-11-17T18:46:25.091Z,,,,,,,,,,,5846.094999964349,completion,,,,,,,high,high,,,,,,false,,,,,false,1125744.5999999642,1125744.5999999642,1119881.712,1119889.5999999642,1119898.505,1125748.456,4,500,,
