sender,sender_type,sender_id,timestamp,meta,,age,blockNo,c1,c2,condition,control_tolerance,correct,correctResponse,duration,ended_on,f1,f1_high,f1_low,f2,f2_high,f2_low,feature_level1,feature_level2,gender,img_left,img_reveal,img_right,n_target_images,practice,range_tolerance,response,response_action,selection_duration,staircase,time_commit,time_end,time_render,time_run,time_show,time_switch,total_blocks,total_trials,trialNo,url
informed_consent,html.Screen,0,2023-11-17T20:02:32.372Z,"{""labjs_version"":""20.2.4"",""labjs_build"":{""flavor"":""development"",""commit"":""f5b4a49f956347addd546a832a3327688c2c0fef""},""location"":""https://labjs.felixhenninger.com/api/labjs_preview/index.html"",""userAgent"":""Mozilla/5.0 (Windows NT 10.0; Win64; x64) AppleWebKit/537.36 (KHTML, like Gecko) Chrome/119.0.0.0 Safari/537.36"",""platform"":""Win32"",""language"":""en-US"",""locale"":""en-US"",""timeZone"":""America/Chicago"",""timezoneOffset"":360,""screen_width"":1920,""screen_height"":1080,""scroll_width"":945,""scroll_height"":918,""window_innerWidth"":945,""window_innerHeight"":966,""devicePixelRatio"":1}",,,,,,,,,,16393.18399998808,response,,,,,,,,,,,,,,,,consent,click button,,,17005.299999952316,16996.69999998808,586.866,808.7999999523163,603.516,16803.553,,,,{}
Demography form,html.Form,1,2023-11-17T20:02:43.236Z,,,20,,,,,,,,11066.14699998808,form submission,,,,,,,,,male,,,,,,,,,,,27869.899999976158,27869.69999998808,16786.967,17005.5,16803.553,27670.174,,,,
Welcome,html.Screen,2,2023-11-17T20:03:21.924Z,,,,,,,"[""asym"",""col""]",,,,38886.72599997616,response,,,,,,,,,,,,,,,,continue,click button,,,66557.39999997616,66556.89999997616,27653.479,27870,27670.174,66353.356,,,,
demo_instructions,html.Screen,3,2023-11-17T20:04:03.484Z,,,,,,,,,,,41763.34399998808,response,,,,,,,,,,,,,,,,continue,click button,,,108117.29999995232,108116.69999998808,66336.829,66557.5,66353.356,107919.921,,,,
trial,html.Screen,4_0_0,2023-11-17T20:04:16.168Z,,,,0,1.0345332538240786,-1.4719115945084815,,,true,lh,12880.878999952314,response,-0.849847885203758,1.2,-1.2,0.973447384095442,1.2,-1.2,low,high,,ISIC_0192490.JPG,,ISIC_9612228.JPG,29,true,0.3600000000000002,lh,keypress(e),100,false,120801.19999998808,120800.79999995232,107903.5,108117.39999997616,107919.921,120619.886,1,16,1,
sequence,flow.Sequence,4_0,2023-11-17T20:04:16.168Z,,,,,,,,,,,12880.878999952314,completion,,,,,,,low,high,,,,,,true,,,,,false,120801.89999997616,120800.79999995232,107903.5,108117.39999997616,107919.921,120619.886,1,16,,
trial,html.Screen,4_1_0,2023-11-17T20:04:23.929Z,,,,0,1.1547137855907486,-1.0185275168641534,,,true,lh,7942.413999952318,response,-1.064425982109969,1.2,-1.2,0.958564243697126,1.2,-1.2,low,high,,ISIC_7604870.JPG,,ISIC_3203344.JPG,29,true,0.3600000000000002,lh,keypress(e),100,false,128562.59999996424,128562.29999995232,120603.316,120802.09999996424,120619.886,128369.863,1,16,2,
sequence,flow.Sequence,4_1,2023-11-17T20:04:23.930Z,,,,,,,,,,,7942.413999952318,completion,,,,,,,low,high,,,,,,true,,,,,false,128563.09999996424,128562.29999995232,120603.316,120802,120619.886,128369.863,1,16,,
trial,html.Screen,4_2_0,2023-11-17T20:04:28.971Z,,,,0,0.9566823908868002,-0.9602125665128364,,,true,lh,5234.036999976161,response,-0.8479396253253069,1.2,-1.2,1.011054319516718,1.2,-1.2,low,high,,ISIC_0056784.JPG,,ISIC_0063521.JPG,29,true,0.3600000000000002,lh,keypress(e),100,false,133604.19999998808,133603.89999997616,128353.489,128563.29999995232,128369.863,133419.87,1,16,3,
sequence,flow.Sequence,4_2,2023-11-17T20:04:28.972Z,,,,,,,,,,,5234.036999976161,completion,,,,,,,low,high,,,,,,true,,,,,false,133604.79999995232,133603.89999997616,128353.489,128563.19999998808,128369.863,133419.87,1,16,,
trial,html.Screen,4_3_0,2023-11-17T20:04:31.998Z,,,,0,0.9225524349657857,-0.929746784178986,,,true,lh,3210.929999952321,response,-0.9013888878932071,1.2,-1.2,0.9328095253308732,1.2,-1.2,low,high,,ISIC_0011077.JPG,,ISIC_0068259.JPG,29,true,0.3600000000000002,lh,keypress(e),100,false,136631,136630.79999995232,133403.256,133605.09999996424,133419.87,136453.27,1,16,4,
sequence,flow.Sequence,4_3,2023-11-17T20:04:31.998Z,,,,,,,,,,,3210.929999952321,completion,,,,,,,low,high,,,,,,true,,,,,false,136631.59999996424,136630.79999995232,133403.256,133605.09999996424,133419.87,136453.27,1,16,,
trial,html.Screen,4_4_0,2023-11-17T20:04:40.442Z,,,,0,1.2974483548597415,1.2071506593281005,,,true,ll,8621.92999998809,response,-1.1655508270784471,1.2,-1.2,-1.1162776063248168,1.2,-1.2,low,low,,ISIC_0011007.JPG,,ISIC_5509946.JPG,127,true,0.3300000000000002,ll,keypress(f),100,false,145075.39999997616,145075.19999998808,136436.74,136631.89999997616,136453.27,144886.71,1,16,5,
sequence,flow.Sequence,4_4,2023-11-17T20:04:40.442Z,,,,,,,,,,,8621.92999998809,completion,,,,,,,low,low,,,,,,true,,,,,false,145075.59999996424,145075.19999998808,136436.74,136631.79999995232,136453.27,144886.71,1,16,,
trial,html.Screen,4_5_0,2023-11-17T20:04:45.348Z,,,,0,1.2974483548597415,1.2071506593281005,,,true,ll,5094.389999964245,response,-1.3471772753257971,1.2,-1.2,-1.055978100098093,1.2,-1.2,low,low,,ISIC_0011007.JPG,,ISIC_2077116.JPG,25,true,0.15000000000000002,ll,keypress(f),100,false,149981.29999995232,149981.09999996424,144869.838,145075.79999995232,144886.71,149803.159,1,16,6,
sequence,flow.Sequence,4_5,2023-11-17T20:04:45.348Z,,,,,,,,,,,5094.389999964245,completion,,,,,,,low,low,,,,,,true,,,,,false,149981.39999997616,149981.09999996424,144869.838,145075.79999995232,144886.71,149803.159,1,16,,
trial,html.Screen,4_6_0,2023-11-17T20:04:50.204Z,,,,0,1.2232482867978696,1.2451219760556858,,,true,ll,5033.740999976144,response,-1.0878102877901663,1.2,-1.2,-1.3154097543539391,1.2,-1.2,low,low,,ISIC_0030889.JPG,,ISIC_1413242.JPG,25,true,0.15000000000000002,ll,keypress(f),100,false,154837.29999995232,154836.89999997616,149786.64,149981.5,149803.159,154653.187,1,16,7,
sequence,flow.Sequence,4_6,2023-11-17T20:04:50.205Z,,,,,,,,,,,5033.740999976144,completion,,,,,,,low,low,,,,,,true,,,,,false,154837.79999995232,154836.89999997616,149786.64,149981.5,149803.159,154653.187,1,16,,
trial,html.Screen,4_7_0,2023-11-17T20:04:57.808Z,,,,0,1.2059606637811695,1.214966446488752,,,true,ll,7788.012999988074,response,-1.1990772227054871,1.2,-1.2,-1.1224329926844498,1.2,-1.2,low,low,,ISIC_0013334.JPG,,ISIC_3425388.JPG,25,true,0.15000000000000002,ll,keypress(f),100,false,162441.29999995232,162441.19999998808,154636.511,154838.09999996424,154653.187,162253.105,1,16,8,
sequence,flow.Sequence,4_7,2023-11-17T20:04:57.808Z,,,,,,,,,,,7788.012999988074,completion,,,,,,,low,low,,,,,,true,,,,,false,162441.5,162441.19999998808,154636.511,154838,154653.187,162253.105,1,16,,
trial,html.Screen,4_8_0,2023-11-17T20:05:10.362Z,,,,0,-0.8534691366511764,1.276663727068437,,,true,hl,12741.994999964227,response,0.9225524349657857,1.2,-1.2,-0.929746784178986,1.2,-1.2,high,low,,ISIC_0056788.JPG,,ISIC_0011077.JPG,26,true,0.3300000000000002,hl,keypress(j),100,false,174995.39999997616,174995.09999996424,162236.439,162441.59999996424,162253.105,174819.737,1,16,9,
sequence,flow.Sequence,4_8,2023-11-17T20:05:10.363Z,,,,,,,,,,,12741.994999964227,completion,,,,,,,high,low,,,,,,true,,,,,false,174996,174995.09999996424,162236.439,162441.5,162253.105,174819.737,1,16,,
trial,html.Screen,4_9_0,2023-11-17T20:05:15.570Z,,,,0,-1.064425982109969,0.958564243697126,,,true,hl,5383.562999952323,response,0.8588347582642082,1.2,-1.2,-0.8899503828496784,1.2,-1.2,high,low,,ISIC_3203344.JPG,,ISIC_0174983.JPG,33,true,0.3600000000000002,hl,keypress(j),100,false,180203.59999996424,180203.29999995232,174786.472,174996.19999998808,174819.737,180019.756,1,16,10,
sequence,flow.Sequence,4_9,2023-11-17T20:05:15.571Z,,,,,,,,,,,5383.562999952323,completion,,,,,,,high,low,,,,,,true,,,,,false,180204.29999995232,180203.29999995232,174786.472,174996.09999996424,174819.737,180019.756,1,16,,
trial,html.Screen,4_10_0,2023-11-17T20:05:20.794Z,,,,0,-0.8644465729542988,0.8679598285079457,,,true,hl,5406.744000000006,response,1.2043484010107477,1.2,-1.2,-1.2178113180138233,1.2,-1.2,high,low,,ISIC_6718969.JPG,,ISIC_0011917.JPG,33,true,0.3600000000000002,hl,keypress(j),100,false,185426.79999995232,185426.5,180003.102,180204.39999997616,180019.756,185236.352,1,16,11,
sequence,flow.Sequence,4_10,2023-11-17T20:05:20.794Z,,,,,,,,,,,5406.744000000006,completion,,,,,,,high,low,,,,,,true,,,,,false,185427.29999995232,185426.5,180003.102,180204.39999997616,180019.756,185236.352,1,16,,
trial,html.Screen,4_11_0,2023-11-17T20:05:23.056Z,,,,0,-1.3559315773956395,0.924768326187701,,,true,hl,2452.6479999999865,response,0.8709576717420565,1.2,-1.2,-1.2795156779072283,1.2,-1.2,high,low,,ISIC_5101111.JPG,,ISIC_1925632.JPG,33,true,0.3600000000000002,hl,keypress(j),100,false,187689.29999995232,187689,185219.767,185427.5,185236.352,187503.303,1,16,12,
sequence,flow.Sequence,4_11,2023-11-17T20:05:23.057Z,,,,,,,,,,,2452.6479999999865,completion,,,,,,,high,low,,,,,,true,,,,,false,187689.69999998808,187689,185219.767,185427.5,185236.352,187503.303,1,16,,
trial,html.Screen,4_12_0,2023-11-17T20:05:26.748Z,,,,0,-1.2200968917423711,-1.3183466064109373,,,true,hh,3877.796999964223,response,0.9591882283004984,1.2,-1.2,1.281960835517798,1.2,-1.2,high,high,,ISIC_3624318.JPG,,ISIC_0011931.JPG,249,true,0.3600000000000002,hh,keypress(i),100,false,191381.29999995232,191381.09999996424,187486.475,187689.89999997616,187503.303,191203.008,1,16,13,
sequence,flow.Sequence,4_12,2023-11-17T20:05:26.748Z,,,,,,,,,,,3877.796999964223,completion,,,,,,,high,high,,,,,,true,,,,,false,191381.5,191381.09999996424,187486.475,187689.89999997616,187503.303,191203.008,1,16,,
trial,html.Screen,4_13_0,2023-11-17T20:05:29.795Z,,,,0,-1.1363600109870835,-1.295816345369928,,,true,hh,3224.3919999761565,response,1.2055236989581275,1.2,-1.2,1.1960893075698802,1.2,-1.2,high,high,,ISIC_0026141.JPG,,ISIC_0072393.JPG,41,true,0.15000000000000002,hh,keypress(i),100,false,194427.39999997616,194427.39999997616,191186.341,191381.5,191203.008,194236.364,1,16,14,
sequence,flow.Sequence,4_13,2023-11-17T20:05:29.795Z,,,,,,,,,,,3224.3919999761565,completion,,,,,,,high,high,,,,,,true,,,,,false,194427.59999996424,194427.39999997616,191186.341,191381.5,191203.008,194236.364,1,16,,
trial,html.Screen,4_14_0,2023-11-17T20:05:32.247Z,,,,0,-1.2714351764931109,-1.0785174776187512,,,true,hh,2643.735999964236,response,1.2893246069103816,1.2,-1.2,1.0655029133871594,1.2,-1.2,high,high,,ISIC_2454898.JPG,,ISIC_0070747.JPG,41,true,0.15000000000000002,hh,keypress(i),100,false,196880.19999998808,196880.09999996424,194219.728,194427.69999998808,194236.364,196703.142,1,16,15,
sequence,flow.Sequence,4_14,2023-11-17T20:05:32.247Z,,,,,,,,,,,2643.735999964236,completion,,,,,,,high,high,,,,,,true,,,,,false,196880.39999997616,196880.09999996424,194219.728,194427.69999998808,194236.364,196703.142,1,16,,
trial,html.Screen,4_15_0,2023-11-17T20:05:34.192Z,,,,0,-1.0581281450494728,-1.133169116569424,,,true,hh,2121.2579999761656,response,1.3034518282811869,1.2,-1.2,1.0897657776277234,1.2,-1.2,high,high,,ISIC_5490352.JPG,,ISIC_0071988.JPG,41,true,0.15000000000000002,hh,keypress(i),100,false,198824.59999996424,198824.39999997616,196686.625,196880.59999996424,196703.142,198636.316,1,16,16,
sequence,flow.Sequence,4_15,2023-11-17T20:05:34.192Z,,,,,,,,,,,2121.2579999761656,completion,,,,,,,high,high,,,,,,true,,,,,false,198825.09999996424,198824.39999997616,196686.625,196880.59999996424,196703.142,198636.316,1,16,,
demonstration_loop,flow.Loop,4,2023-11-17T20:05:34.192Z,,,,,,,,,,,90904.47899997616,completion,,,,,,,,,,,,,,true,,,,,false,198825.39999997616,198824.39999997616,107903.5,108117.39999997616,107919.921,198636.316,1,16,,
practice_instructions,html.Screen,5,2023-11-17T20:05:57.252Z,,,,,,,,,,,23240.083999976167,response,,,,,,,,,,,,,,,,continue,click button,,,221884.69999998808,221876.39999997616,198619.719,198825.5,198636.316,221702.968,,,,
trial,html.Screen,6_0_0,2023-11-17T20:06:05.916Z,,,,1,-1.3559315773956395,0.924768326187701,,,true,hl,8846.131999964244,response,0.9670240379618178,1.2,-1.2,-1.1806404773220665,1.2,-1.2,high,low,,ISIC_5101111.JPG,,ISIC_0002288.JPG,26,true,0.3300000000000002,hl,keypress(j),0,false,230549.19999998808,230549.09999996424,221653.066,221884.69999998808,221702.968,230369.547,1,40,1,
sequence,flow.Sequence,6_0,2023-11-17T20:06:05.916Z,,,,,,,,,,,8846.131999964244,completion,,,,,,,high,low,,,,,,true,,,,,false,230549.29999995232,230549.09999996424,221653.066,221884.69999998808,221702.968,230369.547,1,40,,
trial,html.Screen,6_1_0,2023-11-17T20:06:12.326Z,,,,1,-1.0003671514840182,0.8992716557663581,,,true,hl,6589.052999964246,response,1.0345332538240786,1.2,-1.2,-1.4719115945084815,1.2,-1.2,high,low,,ISIC_0061749.JPG,,ISIC_0192490.JPG,33,true,0.3600000000000002,hl,keypress(j),0,false,236958.79999995232,236958.59999996424,230352.871,230549.5,230369.547,236769.559,1,40,2,
sequence,flow.Sequence,6_1,2023-11-17T20:06:12.326Z,,,,,,,,,,,6589.052999964246,completion,,,,,,,high,low,,,,,,true,,,,,false,236959.19999998808,236958.59999996424,230352.871,230549.39999997616,230369.547,236769.559,1,40,,
trial,html.Screen,6_2_0,2023-11-17T20:06:16.381Z,,,,1,-0.9087169856594104,0.8835647084207277,,,true,hl,4244.140999988071,response,1.0345332538240786,1.2,-1.2,-1.4719115945084815,1.2,-1.2,high,low,,ISIC_0000349.JPG,,ISIC_0192490.JPG,33,true,0.3600000000000002,hl,keypress(j),0,false,241013.69999998808,241013.69999998808,236736.014,236959.39999997616,236769.559,240819.546,1,40,3,
sequence,flow.Sequence,6_2,2023-11-17T20:06:16.381Z,,,,,,,,,,,4244.140999988071,completion,,,,,,,high,low,,,,,,true,,,,,false,241013.79999995232,241013.69999998808,236736.014,236959.39999997616,236769.559,240819.546,1,40,,
trial,html.Screen,6_3_0,2023-11-17T20:06:21.343Z,,,,1,-1.411763789273233,1.0057734478347988,,,true,hl,5155.153999988077,response,0.8588347582642082,1.2,-1.2,-0.8899503828496784,1.2,-1.2,high,low,,ISIC_0027235.JPG,,ISIC_0174983.JPG,33,true,0.3600000000000002,hl,keypress(j),0,false,245974.89999997616,245974.69999998808,240803.021,241013.89999997616,240819.546,245769.595,1,40,4,
sequence,flow.Sequence,6_3,2023-11-17T20:06:21.343Z,,,,,,,,,,,5155.153999988077,completion,,,,,,,high,low,,,,,,true,,,,,false,245975.29999995232,245974.69999998808,240803.021,241013.89999997616,240819.546,245769.595,1,40,,
trial,html.Screen,6_4_0,2023-11-17T20:06:27.789Z,,,,1,-1.0878102877901663,-1.3154097543539391,,,true,hh,6652.104999988078,response,1.3275010021911575,1.2,-1.2,0.9191944702333436,1.2,-1.2,high,high,,ISIC_1413242.JPG,,ISIC_7670149.JPG,249,true,0.3600000000000002,hh,keypress(i),0,false,252421.89999997616,252421.69999998808,245752.718,245975.5,245769.595,252236.204,1,40,5,
sequence,flow.Sequence,6_4,2023-11-17T20:06:27.790Z,,,,,,,,,,,6652.104999988078,completion,,,,,,,high,high,,,,,,true,,,,,false,252422.09999996424,252421.69999998808,245752.718,245975.5,245769.595,252236.204,1,40,,
trial,html.Screen,6_5_0,2023-11-17T20:06:32.063Z,,,,1,-1.3515962101204746,0.8414583575292955,,,true,hl,4458.395999964239,response,0.9566823908868002,1.2,-1.2,-0.9602125665128364,1.2,-1.2,high,low,,ISIC_0274382.JPG,,ISIC_0056784.JPG,26,true,0.3300000000000002,hl,keypress(j),0,false,256694.89999997616,256694.59999996424,252202.788,252422.29999995232,252236.204,256503.114,1,40,6,
sequence,flow.Sequence,6_5,2023-11-17T20:06:32.063Z,,,,,,,,,,,4458.395999964239,completion,,,,,,,high,low,,,,,,true,,,,,false,256695.39999997616,256694.59999996424,252202.788,252422.29999995232,252236.204,256503.114,1,40,,
trial,html.Screen,6_6_0,2023-11-17T20:06:37.820Z,,,,1,1.189469386514313,1.3008582067137853,,,true,ll,5949.685999952315,response,-1.3129541838437495,1.2,-1.2,-1.0207253457574674,1.2,-1.2,low,low,,ISIC_0010644.JPG,,ISIC_8104064.JPG,157,true,0.3600000000000002,ll,keypress(f),0,false,262452.89999997616,262452.7999999523,256486.31,256695.5,256503.114,262252.815,1,40,7,
sequence,flow.Sequence,6_6,2023-11-17T20:06:37.821Z,,,,,,,,,,,5949.685999952315,completion,,,,,,,low,low,,,,,,true,,,,,false,262453,262452.7999999523,256486.31,256695.5,256503.114,262252.815,1,40,,
trial,html.Screen,6_7_0,2023-11-17T20:06:45.311Z,,,,1,1.238264833797662,1.176099940770289,,,true,ll,7690.484999952314,response,-1.0581281450494728,1.2,-1.2,-1.133169116569424,1.2,-1.2,low,low,,ISIC_0032861.JPG,,ISIC_5490352.JPG,25,true,0.15000000000000002,ll,keypress(f),0,false,269943.5,269943.2999999523,262236.251,262453,262252.815,269752.863,1,40,8,
sequence,flow.Sequence,6_7,2023-11-17T20:06:45.311Z,,,,,,,,,,,7690.484999952314,completion,,,,,,,low,low,,,,,,true,,,,,false,269943.89999997616,269943.2999999523,262236.251,262453,262252.815,269752.863,1,40,,
trial,html.Screen,6_8_0,2023-11-17T20:06:51.606Z,,,,1,1.1474466950560966,1.173734476257662,,,true,ll,6485.336999988067,response,-1.1990772227054871,1.2,-1.2,-1.1224329926844498,1.2,-1.2,low,low,,ISIC_5216586.JPG,,ISIC_3425388.JPG,25,true,0.15000000000000002,ll,keypress(f),0,false,276238.39999997616,276238.1999999881,269735.884,269944.09999996424,269752.863,276069.448,1,40,9,
sequence,flow.Sequence,6_8,2023-11-17T20:06:51.606Z,,,,,,,,,,,6485.336999988067,completion,,,,,,,low,low,,,,,,true,,,,,false,276238.6999999881,276238.1999999881,269735.884,269944,269752.863,276069.448,1,40,,
trial,html.Screen,6_9_0,2023-11-17T20:06:55.504Z,,,,1,1.0748728054622358,-1.2840853987892311,,,true,lh,4066.3519999523414,response,-0.8494721812820843,1.2,-1.2,1.3435429139974266,1.2,-1.2,low,high,,ISIC_0059219.JPG,,ISIC_0033585.JPG,29,true,0.3600000000000002,lh,keypress(e),0,false,280136.09999996424,280135.7999999523,276019.49,276238.89999997616,276069.448,279936.166,1,40,10,
sequence,flow.Sequence,6_9,2023-11-17T20:06:55.504Z,,,,,,,,,,,4066.3519999523414,completion,,,,,,,low,high,,,,,,true,,,,,false,280136.5,280135.7999999523,276019.49,276238.7999999523,276069.448,279936.166,1,40,,
trial,html.Screen,6_10_0,2023-11-17T20:07:00.454Z,,,,1,1.3034518282811869,1.0897657776277234,,,true,ll,5150.433999964211,response,-1.3471772753257971,1.2,-1.2,-1.055978100098093,1.2,-1.2,low,low,,ISIC_0071988.JPG,,ISIC_2077116.JPG,127,true,0.3300000000000002,ll,keypress(f),0,false,285086.89999997616,285086.59999996424,279919.471,280136.6999999881,279936.166,284902.726,1,40,11,
sequence,flow.Sequence,6_10,2023-11-17T20:07:00.455Z,,,,,,,,,,,5150.433999964211,completion,,,,,,,low,low,,,,,,true,,,,,false,285087.1999999881,285086.59999996424,279919.471,280136.59999996424,279936.166,284902.726,1,40,,
trial,html.Screen,6_11_0,2023-11-17T20:07:05.045Z,,,,1,0.9448560599810628,-0.9099421612683488,,,true,lh,4774.773999999976,response,-1.2838089642212804,1.2,-1.2,0.8550527900640753,1.2,-1.2,low,high,,ISIC_9684318.JPG,,ISIC_0034187.JPG,29,true,0.3600000000000002,lh,keypress(e),0,false,289677.59999996424,289677.5,284869.406,285087.39999997616,284902.726,289486.368,1,40,12,
sequence,flow.Sequence,6_11,2023-11-17T20:07:05.045Z,,,,,,,,,,,4774.773999999976,completion,,,,,,,low,high,,,,,,true,,,,,false,289677.7999999523,289677.5,284869.406,285087.39999997616,284902.726,289486.368,1,40,,
trial,html.Screen,6_12_0,2023-11-17T20:07:12.926Z,,,,1,-1.1990772227054871,-1.1224329926844498,,,true,hh,8071.831999988062,response,1.2509824984798106,1.2,-1.2,1.4894378586688672,1.2,-1.2,high,high,,ISIC_3425388.JPG,,ISIC_0069967.JPG,211,true,0.3300000000000002,hh,keypress(i),0,false,297558.39999997616,297558.1999999881,289469.568,289677.89999997616,289486.368,297352.784,1,40,13,
sequence,flow.Sequence,6_12,2023-11-17T20:07:12.926Z,,,,,,,,,,,8071.831999988062,completion,,,,,,,high,high,,,,,,true,,,,,false,297558.7999999523,297558.1999999881,289469.568,289677.89999997616,289486.368,297352.784,1,40,,
trial,html.Screen,6_13_0,2023-11-17T20:07:18.206Z,,,,1,-1.0885984639975343,-1.2042618719491294,,,true,hh,5485.615999976173,response,1.152619213055059,1.2,-1.2,1.2957497771092716,1.2,-1.2,high,high,,ISIC_0012740.JPG,,ISIC_0061915.JPG,41,true,0.15000000000000002,hh,keypress(i),0,false,302838.6999999881,302838.39999997616,297335.94,297559,297352.784,302636.046,1,40,14,
sequence,flow.Sequence,6_13,2023-11-17T20:07:18.207Z,,,,,,,,,,,5485.615999976173,completion,,,,,,,high,high,,,,,,true,,,,,false,302839.1999999881,302838.39999997616,297335.94,297559,297352.784,302636.046,1,40,,
trial,html.Screen,6_14_0,2023-11-17T20:07:23.005Z,,,,1,-1.1638334638021437,-1.0846635401396965,,,true,hh,5001.053999964264,response,1.2040551955011098,1.2,-1.2,1.2664651062241792,1.2,-1.2,high,high,,ISIC_4718313.JPG,,ISIC_0068886.JPG,41,true,0.15000000000000002,hh,keypress(i),0,false,307637.09999996424,307637.09999996424,302619.489,302839.39999997616,302636.046,307436.002,1,40,15,
sequence,flow.Sequence,6_14,2023-11-17T20:07:23.005Z,,,,,,,,,,,5001.053999964264,completion,,,,,,,high,high,,,,,,true,,,,,false,307637.2999999523,307637.09999996424,302619.489,302839.2999999523,302636.046,307436.002,1,40,,
trial,html.Screen,6_15_0,2023-11-17T20:07:29.157Z,,,,1,0.9873794329144926,-0.9500689037516484,,,true,lh,6353.1979999881005,response,-1.2615315960773072,1.2,-1.2,1.194084675079932,1.2,-1.2,low,high,,ISIC_0013498.JPG,,ISIC_0010044.JPG,29,true,0.3600000000000002,lh,keypress(e),0,false,313789.39999997616,313789.1999999881,307419.354,307637.2999999523,307436.002,313585.992,1,40,16,
sequence,flow.Sequence,6_15,2023-11-17T20:07:29.157Z,,,,,,,,,,,6353.1979999881005,completion,,,,,,,low,high,,,,,,true,,,,,false,313789.39999997616,313789.1999999881,307419.354,307637.2999999523,307436.002,313585.992,1,40,,
trial,html.Screen,6_16_0,2023-11-17T20:07:36.006Z,,,,1,-1.073296525451802,-1.3454282740421717,,,true,hh,7052.10799996421,response,0.9588812385345452,1.2,-1.2,0.9060043635318688,1.2,-1.2,high,high,,ISIC_5787312.JPG,,ISIC_0069986.JPG,211,true,0.3300000000000002,hh,keypress(i),0,false,320638.39999997616,320638.09999996424,313569.426,313789.5,313585.992,320435.968,1,40,17,
sequence,flow.Sequence,6_16,2023-11-17T20:07:36.007Z,,,,,,,,,,,7052.10799996421,completion,,,,,,,high,high,,,,,,true,,,,,false,320638.89999997616,320638.09999996424,313569.426,313789.5,313585.992,320435.968,1,40,,
trial,html.Screen,6_17_0,2023-11-17T20:07:41.687Z,,,,1,1.2232482867978696,1.2451219760556858,,,true,ll,5883.131999964244,response,-1.073296525451802,1.2,-1.2,-1.3454282740421717,1.2,-1.2,low,low,,ISIC_0030889.JPG,,ISIC_5787312.JPG,25,true,0.15000000000000002,ll,keypress(f),0,false,326319.39999997616,326319.09999996424,320419.406,320639,320435.968,326135.933,1,40,18,
sequence,flow.Sequence,6_17,2023-11-17T20:07:41.688Z,,,,,,,,,,,5883.131999964244,completion,,,,,,,low,low,,,,,,true,,,,,false,326319.7999999523,326319.09999996424,320419.406,320639,320435.968,326135.933,1,40,,
trial,html.Screen,6_18_0,2023-11-17T20:07:47.063Z,,,,1,1.055319394932912,-1.409116680310466,,,true,lh,5558.666999964218,response,-0.849847885203758,1.2,-1.2,0.973447384095442,1.2,-1.2,low,high,,ISIC_6398669.JPG,,ISIC_9612228.JPG,29,true,0.3600000000000002,lh,keypress(e),0,false,331694.7999999523,331694.59999996424,326102.594,326320,326135.933,331502.644,1,40,19,
sequence,flow.Sequence,6_18,2023-11-17T20:07:47.063Z,,,,,,,,,,,5558.666999964218,completion,,,,,,,low,high,,,,,,true,,,,,false,331695.1999999881,331694.59999996424,326102.594,326320,326135.933,331502.644,1,40,,
trial,html.Screen,6_19_0,2023-11-17T20:07:50.822Z,,,,1,1.0748728054622358,-1.2840853987892311,,,true,lh,3951.755999976187,response,-1.11329866545753,1.2,-1.2,1.2155631217348757,1.2,-1.2,low,high,,ISIC_0059219.JPG,,ISIC_0032610.JPG,29,true,0.3600000000000002,lh,keypress(e),0,false,335454.59999996424,335454.39999997616,331485.77,331695.39999997616,331502.644,335269.264,1,40,20,
sequence,flow.Sequence,6_19,2023-11-17T20:07:50.823Z,,,,,,,,,,,3951.755999976187,completion,,,,,,,low,high,,,,,,true,,,,,false,335455,335454.39999997616,331485.77,331695.2999999523,331502.644,335269.264,1,40,,
trial,html.Screen,6_20_0,2023-11-17T20:07:56.278Z,,,,1,-0.9087169856594104,0.8835647084207277,,,true,hl,5641.035999952292,response,1.296989496412063,1.2,-1.2,-1.1425074323097002,1.2,-1.2,high,low,,ISIC_0000349.JPG,,ISIC_6356803.JPG,26,true,0.3300000000000002,hl,keypress(j),0,false,340910.59999996424,340910.2999999523,335236.111,335455.1999999881,335269.264,340719.286,1,40,21,
sequence,flow.Sequence,6_20,2023-11-17T20:07:56.279Z,,,,,,,,,,,5641.035999952292,completion,,,,,,,high,low,,,,,,true,,,,,false,340910.89999997616,340910.2999999523,335236.111,335455.1999999881,335269.264,340719.286,1,40,,
trial,html.Screen,6_21_0,2023-11-17T20:08:01.087Z,,,,1,0.9046170303418553,-1.0063426986460375,,,true,lh,4999.313999964215,response,-1.2838089642212804,1.2,-1.2,0.8550527900640753,1.2,-1.2,low,high,,ISIC_0055759.JPG,,ISIC_0034187.JPG,29,true,0.3600000000000002,lh,keypress(e),0,false,345718.89999997616,345718.59999996424,340702.555,340911.09999996424,340719.286,345519.223,1,40,22,
sequence,flow.Sequence,6_21,2023-11-17T20:08:01.087Z,,,,,,,,,,,4999.313999964215,completion,,,,,,,low,high,,,,,,true,,,,,false,345719.2999999523,345718.59999996424,340702.555,340911,340719.286,345519.223,1,40,,
trial,html.Screen,6_22_0,2023-11-17T20:08:06.126Z,,,,1,1.1126049058422398,1.2305421124063929,,,true,ll,5239.076999952318,response,-1.0654795411495817,1.2,-1.2,-1.35836354317525,1.2,-1.2,low,low,,ISIC_0071536.JPG,,ISIC_4538489.JPG,127,true,0.3300000000000002,ll,keypress(f),0,false,350758.59999996424,350758.2999999523,345502.74,345719.39999997616,345519.223,350552.648,1,40,23,
sequence,flow.Sequence,6_22,2023-11-17T20:08:06.127Z,,,,,,,,,,,5239.076999952318,completion,,,,,,,low,low,,,,,,true,,,,,false,350759,350758.2999999523,345502.74,345719.39999997616,345519.223,350552.648,1,40,,
trial,html.Screen,6_23_0,2023-11-17T20:08:13.407Z,,,,1,-1.0959058628476686,-1.2921331918483707,,,true,hh,7486.3520000000135,response,1.194799101954455,1.2,-1.2,1.2071632388858642,1.2,-1.2,high,high,,ISIC_5920470.JPG,,ISIC_4347535.JPG,27,true,0.12,hh,keypress(i),0,false,358039.2999999523,358039,350536.012,350759.1999999881,350552.648,357835.895,1,40,24,
sequence,flow.Sequence,6_23,2023-11-17T20:08:13.407Z,,,,,,,,,,,7486.3520000000135,completion,,,,,,,high,high,,,,,,true,,,,,false,358039.59999996424,358039,350536.012,350759.09999996424,350552.648,357835.895,1,40,,
trial,html.Screen,6_24_0,2023-11-17T20:08:23.141Z,,,,1,-1.1168199061753437,-1.212287319329914,,,true,hh,9937.604999999981,response,1.0698162624196283,1.2,-1.2,1.0648460966097275,1.2,-1.2,high,high,,ISIC_5919355.JPG,,ISIC_0030552.JPG,41,true,0.15000000000000002,hh,keypress(i),0,false,367773.59999996424,367773.5,357819.156,358039.7999999523,357835.895,367585.867,1,40,25,
sequence,flow.Sequence,6_24,2023-11-17T20:08:23.142Z,,,,,,,,,,,9937.604999999981,completion,,,,,,,high,high,,,,,,true,,,,,false,367773.6999999881,367773.5,357819.156,358039.7999999523,357835.895,367585.867,1,40,,
trial,html.Screen,6_25_0,2023-11-17T20:08:29.006Z,,,,1,1.296989496412063,-1.1425074323097002,,,true,lh,6052.432999952289,response,-1.1224745971429997,1.2,-1.2,0.8423270217438888,1.2,-1.2,low,high,,ISIC_6356803.JPG,,ISIC_0057032.JPG,29,true,0.3600000000000002,lh,keypress(e),0,false,373638.5,373638.2999999523,367552.462,367773.7999999523,367585.867,373435.853,1,40,26,
sequence,flow.Sequence,6_25,2023-11-17T20:08:29.007Z,,,,,,,,,,,6052.432999952289,completion,,,,,,,low,high,,,,,,true,,,,,false,373638.89999997616,373638.2999999523,367552.462,367773.6999999881,367585.867,373435.853,1,40,,
trial,html.Screen,6_26_0,2023-11-17T20:08:35.269Z,,,,1,-0.8494721812820843,1.3435429139974266,,,true,hl,6465.046999976155,response,1.0822170028935367,1.2,-1.2,-1.1654796154432183,1.2,-1.2,high,low,,ISIC_0033585.JPG,,ISIC_7288818.JPG,26,true,0.3300000000000002,hl,keypress(j),0,false,379901,379900.89999997616,373419.234,373639,373435.853,379702.504,1,40,27,
sequence,flow.Sequence,6_26,2023-11-17T20:08:35.269Z,,,,,,,,,,,6465.046999976155,completion,,,,,,,high,low,,,,,,true,,,,,false,379901.09999996424,379900.89999997616,373419.234,373639,373435.853,379702.504,1,40,,
trial,html.Screen,6_27_0,2023-11-17T20:08:40.663Z,,,,1,-1.2838089642212804,0.8550527900640753,,,true,hl,5591.995999999985,response,0.8709576717420565,1.2,-1.2,-1.2795156779072283,1.2,-1.2,high,low,,ISIC_0034187.JPG,,ISIC_1925632.JPG,33,true,0.3600000000000002,hl,keypress(j),0,false,385294.6999999881,385294.5,379685.785,379901.1999999881,379702.504,385102.508,1,40,28,
sequence,flow.Sequence,6_27,2023-11-17T20:08:40.663Z,,,,,,,,,,,5591.995999999985,completion,,,,,,,high,low,,,,,,true,,,,,false,385295.09999996424,385294.5,379685.785,379901.1999999881,379702.504,385102.508,1,40,,
trial,html.Screen,6_28_0,2023-11-17T20:08:45.606Z,,,,1,1.194799101954455,1.2071632388858642,,,true,ll,5135.591999964265,response,-1.004164099430695,1.2,-1.2,-1.0674669038247562,1.2,-1.2,low,low,,ISIC_4347535.JPG,,ISIC_0541345.JPG,157,true,0.3600000000000002,ll,keypress(f),0,false,390238.39999997616,390238.09999996424,385085.634,385295.1999999881,385102.508,390035.848,1,40,29,
sequence,flow.Sequence,6_28,2023-11-17T20:08:45.607Z,,,,,,,,,,,5135.591999964265,completion,,,,,,,low,low,,,,,,true,,,,,false,390238.7999999523,390238.09999996424,385085.634,385295.1999999881,385102.508,390035.848,1,40,,
trial,html.Screen,6_29_0,2023-11-17T20:08:53.662Z,,,,1,1.2974483548597415,1.2071506593281005,,,true,ll,8258.451999952318,response,-1.1217390688497193,1.2,-1.2,-1.2276600934505035,1.2,-1.2,low,low,,ISIC_0011007.JPG,,ISIC_0026344.JPG,25,true,0.15000000000000002,ll,keypress(f),0,false,398294.5,398294.2999999523,390019.041,390239,390035.848,398102.63,1,40,30,
sequence,flow.Sequence,6_29,2023-11-17T20:08:53.663Z,,,,,,,,,,,8258.451999952318,completion,,,,,,,low,low,,,,,,true,,,,,false,398294.89999997616,398294.2999999523,390019.041,390238.89999997616,390035.848,398102.63,1,40,,
trial,html.Screen,6_30_0,2023-11-17T20:08:59.989Z,,,,1,1.194799101954455,1.2071632388858642,,,true,ll,6518.169999952312,response,-1.073296525451802,1.2,-1.2,-1.3454282740421717,1.2,-1.2,low,low,,ISIC_4347535.JPG,,ISIC_5787312.JPG,25,true,0.15000000000000002,ll,keypress(f),0,false,404621,404620.7999999523,398085.666,398295.09999996424,398102.63,404419.092,1,40,31,
sequence,flow.Sequence,6_30,2023-11-17T20:08:59.989Z,,,,,,,,,,,6518.169999952312,completion,,,,,,,low,low,,,,,,true,,,,,false,404621,404620.7999999523,398085.666,398295,398102.63,404419.092,1,40,,
trial,html.Screen,6_31_0,2023-11-17T20:09:05.470Z,,,,1,-1.1604734171556077,-1.0789312625280616,,,true,hh,5683.307999976154,response,1.1407514641016443,1.2,-1.2,1.280017651202714,1.2,-1.2,high,high,,ISIC_3950753.JPG,,ISIC_0072507.JPG,27,true,0.12,hh,keypress(i),0,false,410102.59999996424,410102.39999997616,404402.364,404621.09999996424,404419.092,409935.719,1,40,32,
sequence,flow.Sequence,6_31,2023-11-17T20:09:05.471Z,,,,,,,,,,,5683.307999976154,completion,,,,,,,high,high,,,,,,true,,,,,false,410103.09999996424,410102.39999997616,404402.364,404621.09999996424,404419.092,409935.719,1,40,,
trial,html.Screen,6_32_0,2023-11-17T20:09:09.854Z,,,,1,-0.9013888878932071,0.9328095253308732,,,true,hl,4550.180999976175,response,1.0961318727760048,1.2,-1.2,-1.2134960228256146,1.2,-1.2,high,low,,ISIC_0068259.JPG,,ISIC_9768421.JPG,26,true,0.3300000000000002,hl,keypress(j),0,false,414486.09999996424,414485.89999997616,409885.581,410103.1999999881,409935.719,414285.728,1,40,33,
sequence,flow.Sequence,6_32,2023-11-17T20:09:09.854Z,,,,,,,,,,,4550.180999976175,completion,,,,,,,high,low,,,,,,true,,,,,false,414486.5,414485.89999997616,409885.581,410103.1999999881,409935.719,414285.728,1,40,,
trial,html.Screen,6_33_0,2023-11-17T20:09:15.519Z,,,,1,1.2059606637811695,1.214966446488752,,,true,ll,5865.371999964234,response,-1.5508953348303618,1.2,-1.2,-1.5147656215052712,1.2,-1.2,low,low,,ISIC_0013334.JPG,,ISIC_0003046.JPG,157,true,0.3600000000000002,ll,keypress(f),0,false,420151.2999999523,420151.09999996424,414269.093,414486.6999999881,414285.728,419969.063,1,40,34,
sequence,flow.Sequence,6_33,2023-11-17T20:09:15.520Z,,,,,,,,,,,5865.371999964234,completion,,,,,,,low,low,,,,,,true,,,,,false,420151.6999999881,420151.09999996424,414269.093,414486.6999999881,414285.728,419969.063,1,40,,
trial,html.Screen,6_34_0,2023-11-17T20:09:25.461Z,,,,1,1.0700930503975157,-0.923753102263735,,,true,lh,10124.236999952293,response,-1.00615481805876,1.2,-1.2,0.8428903771195875,1.2,-1.2,low,high,,ISIC_0000022.JPG,,ISIC_0069970.JPG,29,true,0.3600000000000002,lh,keypress(e),0,false,430093.2999999523,430093.2999999523,419935.838,420151.89999997616,419969.063,429902.733,1,40,35,
sequence,flow.Sequence,6_34,2023-11-17T20:09:25.461Z,,,,,,,,,,,10124.236999952293,completion,,,,,,,low,high,,,,,,true,,,,,false,430093.5,430093.2999999523,419935.838,420151.89999997616,419969.063,429902.733,1,40,,
trial,html.Screen,6_35_0,2023-11-17T20:09:32.550Z,,,,1,-1.301795918505203,-1.0518606632781424,,,true,hh,7279.266999999993,response,0.9866439901618108,1.2,-1.2,1.1327283202367815,1.2,-1.2,high,high,,ISIC_0027666.JPG,,ISIC_0072953.JPG,211,true,0.3300000000000002,hh,keypress(i),0,false,437182.2999999523,437182,429868.694,430093.5,429902.733,436985.68,1,40,36,
sequence,flow.Sequence,6_35,2023-11-17T20:09:32.551Z,,,,,,,,,,,7279.266999999993,completion,,,,,,,high,high,,,,,,true,,,,,false,437182.59999996424,437182,429868.694,430093.5,429902.733,436985.68,1,40,,
trial,html.Screen,6_36_0,2023-11-17T20:09:41.526Z,,,,1,1.082730232773217,-0.8833175387485132,,,true,lh,9172.219999976165,response,-0.9087169856594104,1.2,-1.2,0.8835647084207277,1.2,-1.2,low,high,,ISIC_0011933.JPG,,ISIC_0000349.JPG,29,true,0.3600000000000002,lh,keypress(e),0,false,446158.1999999881,446157.89999997616,436969.069,437182.89999997616,436985.68,445952.378,1,40,37,
sequence,flow.Sequence,6_36,2023-11-17T20:09:41.526Z,,,,,,,,,,,9172.219999976165,completion,,,,,,,low,high,,,,,,true,,,,,false,446158.5,446157.89999997616,436969.069,437182.89999997616,436985.68,445952.378,1,40,,
trial,html.Screen,6_37_0,2023-11-17T20:09:49.663Z,,,,1,0.9566823908868002,-0.9602125665128364,,,true,lh,8342.521999976132,response,-1.1890109863264902,1.2,-1.2,0.8867825318561365,1.2,-1.2,low,high,,ISIC_0056784.JPG,,ISIC_0072576.JPG,29,true,0.3600000000000002,lh,keypress(e),0,false,454295.1999999881,454294.89999997616,445935.428,446158.6999999881,445952.378,454102.477,1,40,38,
sequence,flow.Sequence,6_37,2023-11-17T20:09:49.664Z,,,,,,,,,,,8342.521999976132,completion,,,,,,,low,high,,,,,,true,,,,,false,454295.5,454294.89999997616,445935.428,446158.6999999881,445952.378,454102.477,1,40,,
trial,html.Screen,6_38_0,2023-11-17T20:09:54.758Z,,,,1,-1.1642596483638106,-1.091507924157762,,,true,hh,5287.322999952303,response,1.3271122559811526,1.2,-1.2,1.292001792497521,1.2,-1.2,high,high,,ISIC_0765584.JPG,,ISIC_0065181.JPG,211,true,0.3300000000000002,hh,keypress(i),0,false,459390,459389.7999999523,454085.482,454295.6999999881,454102.477,459218.947,1,40,39,
sequence,flow.Sequence,6_38,2023-11-17T20:09:54.758Z,,,,,,,,,,,5287.322999952303,completion,,,,,,,high,high,,,,,,true,,,,,false,459390.39999997616,459389.7999999523,454085.482,454295.6999999881,454102.477,459218.947,1,40,,
trial,html.Screen,6_39_0,2023-11-17T20:10:00.319Z,,,,1,-1.411763789273233,1.0057734478347988,,,true,hl,5731.852999952331,response,1.1547137855907486,1.2,-1.2,-1.0185275168641534,1.2,-1.2,high,low,,ISIC_0027235.JPG,,ISIC_7604870.JPG,26,true,0.3300000000000002,hl,keypress(j),0,false,464951.09999996424,464950.7999999523,459168.946,459390.6999999881,459218.947,464752.247,1,40,40,
sequence,flow.Sequence,6_39,2023-11-17T20:10:00.319Z,,,,,,,,,,,5731.852999952331,completion,,,,,,,high,low,,,,,,true,,,,,false,464951.39999997616,464950.7999999523,459168.946,459390.5,459218.947,464752.247,1,40,,
practice_loop,flow.Loop,6,2023-11-17T20:10:00.320Z,,,,,,,,,,,243247.83199995232,completion,,,,,,,,,,,,,,true,,,,,false,464951.6999999881,464950.7999999523,221653.066,221884.69999998808,221702.968,464752.247,1,40,,
stair_instructions,html.Screen,7,2023-11-17T20:10:11.012Z,,,,,,,,,,,10891.552999952342,response,,,,,,,,,,,,,,,,continue,click button,,,475644.2999999523,475643.7999999523,464735.54,464951.89999997616,464752.247,475452.505,,,,
trial,html.Screen,8_0_0,2023-11-17T20:10:23.581Z,,,,2,-0.0199897690678184,-0.0312486875504497,,0.04,false,ll,12760.394999976153,response,-1.1513073368404492,1.2,-1.2,-1.0485268550965705,1.2,-1.2,low,low,,ISIC_5482426.JPG,,ISIC_0030666.JPG,157,false,0.3600000000000002,lh,keypress(e),0,true,488213,488212.89999997616,475435.666,475644.5,475452.505,488019.097,1,40,1,
sequence,flow.Sequence,8_0,2023-11-17T20:10:23.581Z,,,,,,,,,,,12760.394999976153,completion,,,,,,,low,low,,,,,,false,,,,,true,488213.1999999881,488212.89999997616,475435.666,475644.5,475452.505,488019.097,1,40,,
trial,html.Screen,8_1_0,2023-11-17T20:10:30.318Z,,,,2,0.0377791839943904,-0.0227626648172468,,0.04,true,hh,6930.702999952307,response,1.042500842905652,1.15,-1.15,1.083053464502593,1.15,-1.2,high,high,,ISIC_7167479.JPG,,ISIC_0071135.JPG,25,false,0.11,hh,keypress(i),0,true,494950,494949.7999999523,488001.993,488213.1999999881,488019.097,494752.188,1,40,2,
sequence,flow.Sequence,8_1,2023-11-17T20:10:30.318Z,,,,,,,,,,,6930.702999952307,completion,,,,,,,high,high,,,,,,false,,,,,true,494950.39999997616,494949.7999999523,488001.993,488213.1999999881,488019.097,494752.188,1,40,,
trial,html.Screen,8_2_0,2023-11-17T20:10:34.918Z,,,,2,-0.0189295602385628,-0.0128812415435153,,0.04,false,lh,4798.011999988055,response,-1.064425982109969,1.15,-1.15,0.958564243697126,1.15,-1.15,low,high,,ISIC_0010372.JPG,,ISIC_3203344.JPG,27,false,0.31000000000000016,ll,keypress(f),0,true,499550.39999997616,499550.1999999881,494735.458,494950.59999996424,494752.188,499352.188,1,40,3,
sequence,flow.Sequence,8_2,2023-11-17T20:10:34.919Z,,,,,,,,,,,4798.011999988055,completion,,,,,,,low,high,,,,,,false,,,,,true,499550.7999999523,499550.1999999881,494735.458,494950.5,494752.188,499352.188,1,40,,
trial,html.Screen,8_3_0,2023-11-17T20:10:40.734Z,,,,2,0.0350697500805515,0.0166617848231997,,0.04,true,hh,6013.4119999642135,response,1.2359980588867217,1.15,-1.0999999999999999,1.0529964469124329,1.15,-1.15,high,high,,ISIC_0024423.JPG,,ISIC_0032840.JPG,25,false,0.11,hh,keypress(i),0,true,505365.89999997616,505365.59999996424,499335.605,499551,499352.188,505168.886,1,40,4,
sequence,flow.Sequence,8_3,2023-11-17T20:10:40.734Z,,,,,,,,,,,6013.4119999642135,completion,,,,,,,high,high,,,,,,false,,,,,true,505366.1999999881,505365.59999996424,499335.605,499551,499352.188,505168.886,1,40,,
trial,html.Screen,8_4_0,2023-11-17T20:10:47.255Z,,,,2,0.0166849894750452,-0.0371614812368835,,0.04,false,hh,6717.713999964239,response,1.1671212908494544,1.0944972528995771,-1.0999999999999999,1.1286681796701683,1.15,-1.15,high,high,,ISIC_6231450.JPG,,ISIC_0065022.JPG,29,false,0.11,hl,keypress(j),0,true,511886.7999999523,511886.59999996424,505152.214,505366.2999999523,505168.886,511685.455,1,40,5,
sequence,flow.Sequence,8_4,2023-11-17T20:10:47.255Z,,,,,,,,,,,6717.713999964239,completion,,,,,,,high,high,,,,,,false,,,,,true,511887.2999999523,511886.59999996424,505152.214,505366.2999999523,505168.886,511685.455,1,40,,
trial,html.Screen,8_5_0,2023-11-17T20:10:54.270Z,,,,2,0.0023664502831079,0.0252784582169994,,0.04,true,hl,7216.544999999984,response,0.9448560599810628,1.0944972528995771,-1.0999999999999999,-0.9099421612683488,1.15,-1.15,high,low,,ISIC_4156010.JPG,,ISIC_9684318.JPG,26,false,0.2500000000000001,hl,keypress(j),0,true,518902.1999999881,518902,511668.852,511887.39999997616,511685.455,518702.17,1,40,6,
sequence,flow.Sequence,8_5,2023-11-17T20:10:54.270Z,,,,,,,,,,,7216.544999999984,completion,,,,,,,high,low,,,,,,false,,,,,true,518902.39999997616,518902,511668.852,511887.39999997616,511685.455,518702.17,1,40,,
trial,html.Screen,8_6_0,2023-11-17T20:11:04.135Z,,,,2,0.0166849894750452,-0.0371614812368835,,0.04,true,ll,10064.129999952333,response,-1.212030980680325,1.044497252899577,-1.0999999999999999,-1.139863018685685,1.15,-1.15,low,low,,ISIC_6231450.JPG,,ISIC_0008510.JPG,28,false,0.13,ll,keypress(f),0,true,528766.5999999642,528766.2999999523,518685.491,518902.59999996424,518702.17,528568.806,1,40,7,
sequence,flow.Sequence,8_6,2023-11-17T20:11:04.135Z,,,,,,,,,,,10064.129999952333,completion,,,,,,,low,low,,,,,,false,,,,,true,528767,528766.2999999523,518685.491,518902.5,518702.17,528568.806,1,40,,
trial,html.Screen,8_7_0,2023-11-17T20:11:09.495Z,,,,2,0.0050679133050021,0.0174815595031679,,0.04,true,hl,5557.893999988097,response,1.0700930503975157,1.044497252899577,-1.0999999999999999,-0.923753102263735,1.15,-1.125946999683005,high,low,,ISIC_9848743.JPG,,ISIC_0000022.JPG,25,false,0.2400000000000001,hl,keypress(j),0,true,534127,534126.6999999881,528551.802,528767.0999999642,528568.806,533935.462,1,40,8,
sequence,flow.Sequence,8_7,2023-11-17T20:11:09.496Z,,,,,,,,,,,5557.893999988097,completion,,,,,,,high,low,,,,,,false,,,,,true,534127.5,534126.6999999881,528551.802,528767.0999999642,528568.806,533935.462,1,40,,
trial,html.Screen,8_8_0,2023-11-17T20:11:15.694Z,,,,2,-0.0321039635696159,-0.020496766286318,,0.04,true,ll,6390.737999988021,response,-1.1604734171556077,1.044497252899577,-1.0999999999999999,-1.0789312625280616,1.15,-1.125946999683005,low,low,,ISIC_0058063.JPG,,ISIC_3950753.JPG,27,false,0.12,ll,keypress(f),0,true,540326.3999999762,540326.1999999881,533918.608,534127.6999999881,533935.462,540135.378,1,40,9,
sequence,flow.Sequence,8_8,2023-11-17T20:11:15.695Z,,,,,,,,,,,6390.737999988021,completion,,,,,,,low,low,,,,,,false,,,,,true,540326.7999999523,540326.1999999881,533918.608,534127.6999999881,533935.462,540135.378,1,40,,
trial,html.Screen,8_9_0,2023-11-17T20:11:25.984Z,,,,2,0.0118555311043871,0.0087774532070196,,0.04,true,lh,10479.721999964211,response,-0.7044626395896347,1.044497252899577,-0.9513421823958983,1.1821868813141057,1.15,-0.9513421823958983,low,high,,ISIC_6488658.JPG,,ISIC_0024317.JPG,28,false,0.27000000000000013,lh,keypress(e),0,true,550615.3999999762,550615.0999999642,540118.814,540327,540135.378,550418.688,1,40,10,
sequence,flow.Sequence,8_9,2023-11-17T20:11:25.984Z,,,,,,,,,,,10479.721999964211,completion,,,,,,,low,high,,,,,,false,,,,,true,550615.6999999881,550615.0999999642,540118.814,540326.8999999762,540135.378,550418.688,1,40,,
trial,html.Screen,8_10_0,2023-11-17T20:11:40.757Z,,,,2,0.0060918352854008,-0.029032683404407,,0.04,false,hh,14969.911999964272,response,1.0441672988386008,1.044497252899577,-0.9513421823958983,1.108916716139547,1.15,-0.9513421823958983,high,high,,ISIC_8436194.JPG,,ISIC_0063243.JPG,29,false,0.1,hl,keypress(j),0,true,565388.7999999523,565388.5999999642,550401.921,550616,550418.688,565185.332,1,40,11,
sequence,flow.Sequence,8_10,2023-11-17T20:11:40.757Z,,,,,,,,,,,14969.911999964272,completion,,,,,,,high,high,,,,,,false,,,,,true,565388.7999999523,565388.5999999642,550401.921,550615.8999999762,550418.688,565185.332,1,40,,
trial,html.Screen,8_11_0,2023-11-17T20:11:46.391Z,,,,2,-0.010035581303589,0.0100711721396864,,0.04,true,ll,5837.467999952263,response,-0.9487751044258608,1.0631770900763533,-0.9513421823958983,-0.9230722071334148,1.15,-0.9513421823958983,low,low,,ISIC_0030592.JPG,,ISIC_4568084.JPG,27,false,0.1,ll,keypress(f),0,true,571023.0999999642,571022.7999999523,565168.32,565388.8999999762,565185.332,570818.705,1,40,12,
sequence,flow.Sequence,8_11,2023-11-17T20:11:46.392Z,,,,,,,,,,,5837.467999952263,completion,,,,,,,low,low,,,,,,false,,,,,true,571023.5999999642,571022.7999999523,565168.32,565388.8999999762,565185.332,570818.705,1,40,,
trial,html.Screen,8_12_0,2023-11-17T20:11:51.677Z,,,,2,-0.010035581303589,0.0100711721396864,,0.04,false,hh,5490.494999988121,response,1.1227373144244253,1.0631770900763533,-0.8859236557796377,1.1886610799377713,1.15,-0.9513421823958983,high,high,,ISIC_0030592.JPG,,ISIC_0059506.JPG,27,false,0.1,lh,keypress(e),0,true,576309.1999999881,576309.1999999881,570802.047,571023.6999999881,570818.705,576119.171,1,40,13,
sequence,flow.Sequence,8_12,2023-11-17T20:11:51.678Z,,,,,,,,,,,5490.494999988121,completion,,,,,,,high,high,,,,,,false,,,,,true,576309.3999999762,576309.1999999881,570802.047,571023.6999999881,570818.705,576119.171,1,40,,
trial,html.Screen,8_13_0,2023-11-17T20:11:57.551Z,,,,2,-0.0051046740562181,0.0178832721027728,,0.04,true,lh,6063.428999964264,response,-1.11329866545753,1.1131770900763533,-0.8859236557796377,1.2155631217348757,1.15,-0.9513421823958983,low,high,,ISIC_9545819.JPG,,ISIC_0032610.JPG,27,false,0.2400000000000001,lh,keypress(e),0,true,582182.7999999523,582182.5999999642,576085.37,576309.3999999762,576119.171,581985.343,1,40,14,
sequence,flow.Sequence,8_13,2023-11-17T20:11:57.551Z,,,,,,,,,,,6063.428999964264,completion,,,,,,,low,high,,,,,,false,,,,,true,582183.1999999881,582182.5999999642,576085.37,576309.3999999762,576119.171,581985.343,1,40,,
trial,html.Screen,8_14_0,2023-11-17T20:12:02.247Z,,,,2,-0.0063515208248796,-0.0194177605767913,,0.04,false,ll,4892.956999952323,response,-0.8626849314423831,1.1131770900763533,-0.8859236557796377,-1.0374085478567705,1.0999999999999999,-0.9513421823958983,low,low,,ISIC_5281908.JPG,,ISIC_0026371.JPG,34,false,0.1,hl,keypress(j),0,true,586878.5,586878.2999999523,581968.665,582183.2999999523,581985.343,586685.279,1,40,15,
sequence,flow.Sequence,8_14,2023-11-17T20:12:02.247Z,,,,,,,,,,,4892.956999952323,completion,,,,,,,low,low,,,,,,false,,,,,true,586879,586878.2999999523,581968.665,582183.2999999523,581985.343,586685.279,1,40,,
trial,html.Screen,8_15_0,2023-11-17T20:12:08.069Z,,,,2,0.0050679133050021,0.0174815595031679,,0.04,true,hl,6015.22100000002,response,0.9046170303418553,1.1131770900763533,-0.9359236557796378,-1.0063426986460375,1.0999999999999999,-1.0253536066571503,high,low,,ISIC_9848743.JPG,,ISIC_0055759.JPG,27,false,0.2500000000000001,hl,keypress(j),0,true,592700.5,592700.5,586668.684,586879.1999999881,586685.279,592501.935,1,40,16,
sequence,flow.Sequence,8_15,2023-11-17T20:12:08.069Z,,,,,,,,,,,6015.22100000002,completion,,,,,,,high,low,,,,,,false,,,,,true,592700.5999999642,592700.5,586668.684,586879.1999999881,586685.279,592501.935,1,40,,
trial,html.Screen,8_16_0,2023-11-17T20:12:20.823Z,,,,2,-0.0063515208248796,-0.0194177605767913,,0.04,false,hl,12952.464999976102,response,0.9235571765207048,1.1131770900763533,-0.9359236557796378,-0.7832040253954599,1.0999999999999999,-1.0253536066571503,high,low,,ISIC_5281908.JPG,,ISIC_8796632.JPG,27,false,0.2500000000000001,lh,keypress(e),0,true,605454.5999999642,605454.3999999762,592485.184,592700.5999999642,592501.935,605251.862,1,40,17,
sequence,flow.Sequence,8_16,2023-11-17T20:12:20.823Z,,,,,,,,,,,12952.464999976102,completion,,,,,,,high,low,,,,,,false,,,,,true,605455,605454.3999999762,592485.184,592700.5999999642,592501.935,605251.862,1,40,,
trial,html.Screen,8_17_0,2023-11-17T20:12:30.342Z,,,,2,-0.010035581303589,0.0100711721396864,,0.04,true,hl,9721.138000000035,response,0.887838744955182,1.1631770900763534,-0.9359236557796378,-1.3716210719758812,1.0999999999999999,-1.0753536066571503,high,low,,ISIC_0030592.JPG,,ISIC_1488727.JPG,31,false,0.30000000000000016,hl,keypress(j),0,true,614973.1999999881,614973,605234.897,605455.1999999881,605251.862,614768.523,1,40,18,
sequence,flow.Sequence,8_17,2023-11-17T20:12:30.342Z,,,,,,,,,,,9721.138000000035,completion,,,,,,,high,low,,,,,,false,,,,,true,614973.2999999523,614973,605234.897,605455.0999999642,605251.862,614768.523,1,40,,
trial,html.Screen,8_18_0,2023-11-17T20:12:35.119Z,,,,2,-0.010035581303589,0.0100711721396864,,0.04,false,ll,4982.0769999641925,response,-0.9036177845601896,1.1631770900763534,-0.9359236557796378,-1.1504406797855629,1.0999999999999999,-1.0753536066571503,low,low,,ISIC_0030592.JPG,,ISIC_3947876.JPG,28,false,0.11,hl,keypress(j),0,true,619750.7999999523,619750.5999999642,614751.773,614973.3999999762,614768.523,619551.843,1,40,19,
sequence,flow.Sequence,8_18,2023-11-17T20:12:35.120Z,,,,,,,,,,,4982.0769999641925,completion,,,,,,,low,low,,,,,,false,,,,,true,619751.2999999523,619750.5999999642,614751.773,614973.3999999762,614768.523,619551.843,1,40,,
trial,html.Screen,8_19_0,2023-11-17T20:12:46.029Z,,,,2,0.012020985739544,-0.0126097407389903,,0.04,false,hl,11108.956999952323,response,0.9448560599810628,1.1631770900763534,-0.9859236557796378,-0.9099421612683488,1.0999999999999999,-1.161030875880722,high,low,,ISIC_0069379.JPG,,ISIC_9684318.JPG,27,false,0.30000000000000016,hh,keypress(i),0,true,630660.8999999762,630660.7999999523,619535.314,619751.5,619551.843,630468.487,1,40,20,
sequence,flow.Sequence,8_19,2023-11-17T20:12:46.029Z,,,,,,,,,,,11108.956999952323,completion,,,,,,,high,low,,,,,,false,,,,,true,630661.0999999642,630660.7999999523,619535.314,619751.3999999762,619551.843,630468.487,1,40,,
trial,html.Screen,8_20_0,2023-11-17T20:12:54.102Z,,,,2,0.0118555311043871,0.0087774532070196,,0.04,false,lh,8264.812999952352,response,-0.8070820195894357,1.1131770900763533,-0.9859236557796378,0.8958120092147633,1.0999999999999999,-1.161030875880722,low,high,,ISIC_6488658.JPG,,ISIC_0060585.JPG,25,false,0.2400000000000001,hl,keypress(j),0,true,638733.5999999642,638733.2999999523,630451.505,630661.1999999881,630468.487,638535.128,1,40,21,
sequence,flow.Sequence,8_20,2023-11-17T20:12:54.102Z,,,,,,,,,,,8264.812999952352,completion,,,,,,,low,high,,,,,,false,,,,,true,638734,638733.2999999523,630451.505,630661.1999999881,630468.487,638535.128,1,40,,
trial,html.Screen,8_21_0,2023-11-17T20:12:59.710Z,,,,2,0.012020985739544,-0.0126097407389903,,0.04,false,lh,5806.471999964211,response,-0.8591294258188253,1.1131770900763533,-1.0359236557796379,0.870797302150167,1.15,-1.161030875880722,low,high,,ISIC_0069379.JPG,,ISIC_0055841.JPG,27,false,0.29000000000000015,ll,keypress(f),0,true,644341.7999999523,644341.5999999642,638518.23,638734.1999999881,638535.128,644153.093,1,40,22,
sequence,flow.Sequence,8_21,2023-11-17T20:12:59.711Z,,,,,,,,,,,5806.471999964211,completion,,,,,,,low,high,,,,,,false,,,,,true,644342.1999999881,644341.5999999642,638518.23,638734.1999999881,638535.128,644153.093,1,40,,
trial,html.Screen,8_22_0,2023-11-17T20:13:06.526Z,,,,2,0.0023664502831079,0.0252784582169994,,0.04,false,lh,7004.306999976165,response,-0.8494721812820843,1.1131770900763533,-1.0359236557796379,1.3435429139974266,1.15,-1.161030875880722,low,high,,ISIC_4156010.JPG,,ISIC_0033585.JPG,27,false,0.29000000000000015,hl,keypress(j),0,true,651157.6999999881,651157.3999999762,644118.466,644342.3999999762,644153.093,650951.797,1,40,23,
sequence,flow.Sequence,8_22,2023-11-17T20:13:06.526Z,,,,,,,,,,,7004.306999976165,completion,,,,,,,low,high,,,,,,false,,,,,true,651158.0999999642,651157.3999999762,644118.466,644342.3999999762,644153.093,650951.797,1,40,,
trial,html.Screen,8_23_0,2023-11-17T20:13:11.142Z,,,,2,0.0071892445601978,-0.0246015408628738,,0.04,false,hl,4821.802999964217,response,1.0748728054622358,1.1131770900763533,-1.085923655779638,-1.2840853987892311,1.15,-1.161030875880722,high,low,,ISIC_0014133.JPG,,ISIC_0059219.JPG,27,false,0.2600000000000001,hh,keypress(i),0,true,655773.7999999523,655773.5999999642,650934.869,651158.2999999523,650951.797,655568.478,1,40,24,
sequence,flow.Sequence,8_23,2023-11-17T20:13:11.143Z,,,,,,,,,,,4821.802999964217,completion,,,,,,,high,low,,,,,,false,,,,,true,655774.1999999881,655773.5999999642,650934.869,651158.1999999881,650951.797,655568.478,1,40,,
trial,html.Screen,8_24_0,2023-11-17T20:13:16.222Z,,,,2,-0.0189295602385628,-0.0128812415435153,,0.04,false,ll,5284.721999988076,response,-0.9584046290108544,1.1131770900763533,-1.085923655779638,-1.2089382903602173,1.15,-1.161030875880722,low,low,,ISIC_0010372.JPG,,ISIC_4874581.JPG,25,false,0.13,hh,keypress(i),0,true,660853.3999999762,660853.1999999881,655551.872,655774.3999999762,655568.478,660668.434,1,40,25,
sequence,flow.Sequence,8_24,2023-11-17T20:13:16.222Z,,,,,,,,,,,5284.721999988076,completion,,,,,,,low,low,,,,,,false,,,,,true,660853.7999999523,660853.1999999881,655551.872,655774.2999999523,655568.478,660668.434,1,40,,
trial,html.Screen,8_25_0,2023-11-17T20:13:22.695Z,,,,2,-0.0361875505619981,0.0291457404567876,,0.04,false,lh,6658.065999999992,response,-0.8534691366511764,1.1131770900763533,-1.135923655779638,1.276663727068437,1.15,-1.161030875880722,low,high,,ISIC_0027480.JPG,,ISIC_0056788.JPG,27,false,0.31000000000000016,ll,keypress(f),0,true,667326.6999999881,667326.5,660635.155,660854,660668.434,667135.277,1,40,26,
sequence,flow.Sequence,8_25,2023-11-17T20:13:22.696Z,,,,,,,,,,,6658.065999999992,completion,,,,,,,low,high,,,,,,false,,,,,true,667327.0999999642,667326.5,660635.155,660853.8999999762,660668.434,667135.277,1,40,,
trial,html.Screen,8_26_0,2023-11-17T20:13:26.629Z,,,,2,-0.0127320821962457,0.0315308940184827,,0.04,false,ll,4124.922999988077,response,-1.0901635293704552,1.1131770900763533,-1.135923655779638,-1.0348352814358883,1.15,-1.161030875880722,low,low,,ISIC_8156101.JPG,,ISIC_7583134.JPG,32,false,0.14,hl,keypress(j),0,true,671260.2999999523,671260.1999999881,667118.439,667327.2999999523,667135.277,671068.457,1,40,27,
sequence,flow.Sequence,8_26,2023-11-17T20:13:26.629Z,,,,,,,,,,,4124.922999988077,completion,,,,,,,low,low,,,,,,false,,,,,true,671260.3999999762,671260.1999999881,667118.439,667327.1999999881,667135.277,671068.457,1,40,,
trial,html.Screen,8_27_0,2023-11-17T20:13:30.981Z,,,,2,0.0023664502831079,0.0252784582169994,,0.04,false,hh,4543.942999976105,response,1.018568530854085,1.1131770900763533,-1.185923655779638,1.1850528225859975,1.15,-1.161030875880722,high,high,,ISIC_4156010.JPG,,ISIC_0057180.JPG,26,false,0.11,lh,keypress(e),0,true,675612.3999999762,675612.3999999762,671051.705,671260.5,671068.457,675418.524,1,40,28,
sequence,flow.Sequence,8_27,2023-11-17T20:13:30.981Z,,,,,,,,,,,4543.942999976105,completion,,,,,,,high,high,,,,,,false,,,,,true,675612.5999999642,675612.3999999762,671051.705,671260.5,671068.457,675418.524,1,40,,
trial,html.Screen,8_28_0,2023-11-17T20:13:37.863Z,,,,2,0.0071892445601978,-0.0246015408628738,,0.04,true,ll,7075.675999988103,response,-1.0885984639975343,1.1631770900763534,-1.185923655779638,-1.2042618719491294,1.15,-1.161030875880722,low,low,,ISIC_0014133.JPG,,ISIC_0012740.JPG,27,false,0.14,ll,keypress(f),0,true,682494.5999999642,682494.1999999881,675401.747,675612.5999999642,675418.524,682301.841,1,40,29,
sequence,flow.Sequence,8_28,2023-11-17T20:13:37.863Z,,,,,,,,,,,7075.675999988103,completion,,,,,,,low,low,,,,,,false,,,,,true,682494.8999999762,682494.1999999881,675401.747,675612.5999999642,675418.524,682301.841,1,40,,
trial,html.Screen,8_29_0,2023-11-17T20:13:42.228Z,,,,2,0.0060918352854008,-0.029032683404407,,0.04,false,hh,4557.958999952301,response,1.1783311757907324,1.1631770900763534,-1.185923655779638,1.266840220031473,1.15,-1.0964301679733317,high,high,,ISIC_8436194.JPG,,ISIC_8241457.JPG,28,false,0.12,lh,keypress(e),0,true,686860,686859.7999999523,682284.931,682495.0999999642,682301.841,686668.296,1,40,30,
sequence,flow.Sequence,8_29,2023-11-17T20:13:42.229Z,,,,,,,,,,,4557.958999952301,completion,,,,,,,high,high,,,,,,false,,,,,true,686860.0999999642,686859.7999999523,682284.931,682495,682301.841,686668.296,1,40,,
trial,html.Screen,8_30_0,2023-11-17T20:13:48.934Z,,,,2,0.0399381815506136,0.0177751789152893,,0.04,true,lh,6897.204000000027,response,-1.064425982109969,1.1631770900763534,-1.185923655779638,0.958564243697126,1.0999999999999999,-1.0964301679733317,low,high,,ISIC_3981425.JPG,,ISIC_3203344.JPG,25,false,0.29000000000000015,lh,keypress(e),0,true,693565.7999999523,693565.5,686651.497,686860.0999999642,686668.296,693384.99,1,40,31,
sequence,flow.Sequence,8_30,2023-11-17T20:13:48.935Z,,,,,,,,,,,6897.204000000027,completion,,,,,,,low,high,,,,,,false,,,,,true,693566.1999999881,693565.5,686651.497,686860.0999999642,686668.296,693384.99,1,40,,
trial,html.Screen,8_31_0,2023-11-17T20:13:56.334Z,,,,2,0.0166849894750452,-0.0371614812368835,,0.04,false,lh,7580.510000000009,response,-0.9087169856594104,1.1631770900763534,-1.135923655779638,0.8835647084207277,1.0999999999999999,-1.0964301679733317,low,high,,ISIC_6231450.JPG,,ISIC_0000349.JPG,26,false,0.28000000000000014,hh,keypress(i),0,true,700965.6999999881,700965.5,693351.439,693566.3999999762,693384.99,700768.312,1,40,32,
sequence,flow.Sequence,8_31,2023-11-17T20:13:56.335Z,,,,,,,,,,,7580.510000000009,completion,,,,,,,low,high,,,,,,false,,,,,true,700966.0999999642,700965.5,693351.439,693566.2999999523,693384.99,700768.312,1,40,,
trial,html.Screen,8_32_0,2023-11-17T20:14:06.119Z,,,,2,-0.0199897690678184,-0.0312486875504497,,0.04,false,hh,9982.087999976124,response,1.0917349644156236,1.1631770900763534,-1.185923655779638,0.9202593988538142,0.8710644760589268,-1.0964301679733317,high,high,,ISIC_5482426.JPG,,ISIC_0034059.JPG,27,false,0.1,hl,keypress(j),0,true,710750.7999999523,710750.3999999762,700751.656,700966.2999999523,700768.312,710551.577,1,40,33,
sequence,flow.Sequence,8_32,2023-11-17T20:14:06.120Z,,,,,,,,,,,9982.087999976124,completion,,,,,,,high,high,,,,,,false,,,,,true,710751.1999999881,710750.3999999762,700751.656,700966.1999999881,700768.312,710551.577,1,40,,
trial,html.Screen,8_33_0,2023-11-17T20:14:12.918Z,,,,2,0.0377791839943904,-0.0227626648172468,,0.04,false,hl,6997.722999952268,response,1.1547137855907486,1.1631770900763534,-1.185923655779638,-1.0185275168641534,0.9210644760589268,-1.0964301679733317,high,low,,ISIC_7167479.JPG,,ISIC_7604870.JPG,25,false,0.29000000000000015,hh,keypress(i),0,true,717549.5999999642,717549.2999999523,710534.808,710751.3999999762,710551.577,717351.591,1,40,34,
sequence,flow.Sequence,8_33,2023-11-17T20:14:12.918Z,,,,,,,,,,,6997.722999952268,completion,,,,,,,high,low,,,,,,false,,,,,true,717550,717549.2999999523,710534.808,710751.2999999523,710551.577,717351.591,1,40,,
trial,html.Screen,8_34_0,2023-11-17T20:14:20.583Z,,,,2,-0.0063515208248796,-0.0194177605767913,,0.04,false,hl,7862.608999988064,response,1.0961318727760048,1.073224375003186,-1.185923655779638,-1.2134960228256146,0.9210644760589268,-1.1464301679733317,high,low,,ISIC_5281908.JPG,,ISIC_9768421.JPG,26,false,0.2400000000000001,hh,keypress(i),0,true,725214.5,725214.1999999881,717334.881,717550.1999999881,717351.591,725034.902,1,40,35,
sequence,flow.Sequence,8_34,2023-11-17T20:14:20.583Z,,,,,,,,,,,7862.608999988064,completion,,,,,,,high,low,,,,,,false,,,,,true,725214.7999999523,725214.1999999881,717334.881,717550.0999999642,717351.591,725034.902,1,40,,
trial,html.Screen,8_35_0,2023-11-17T20:14:26.038Z,,,,2,0.0023664502831079,0.0252784582169994,,0.04,false,lh,5634.697999964235,response,-1.00615481805876,1.073224375003186,-1.185923655779638,0.8428903771195875,0.9210644760589268,-1.1964301679733318,low,high,,ISIC_4156010.JPG,,ISIC_0069970.JPG,26,false,0.2300000000000001,hl,keypress(j),0,true,730669.7999999523,730669.5999999642,725001.603,725215,725034.902,730468.176,1,40,36,
sequence,flow.Sequence,8_35,2023-11-17T20:14:26.039Z,,,,,,,,,,,5634.697999964235,completion,,,,,,,low,high,,,,,,false,,,,,true,730670.2999999523,730669.5999999642,725001.603,725215,725034.902,730468.176,1,40,,
trial,html.Screen,8_36_0,2023-11-17T20:14:36.455Z,,,,2,-0.0086413421586899,-0.0360184993500958,,0.04,false,hh,10618.22399997618,response,1.109729032348591,1.073224375003186,-1.185923655779638,0.9587230726994566,0.9710644760589269,-1.1964301679733318,high,high,,ISIC_0010767.JPG,,ISIC_0055289.JPG,42,false,0.1,hl,keypress(j),0,true,741086.5999999642,741086.3999999762,730451.644,730670.5,730468.176,740884.825,1,40,37,
sequence,flow.Sequence,8_36,2023-11-17T20:14:36.456Z,,,,,,,,,,,10618.22399997618,completion,,,,,,,high,high,,,,,,false,,,,,true,741087,741086.3999999762,730451.644,730670.2999999523,730468.176,740884.825,1,40,,
trial,html.Screen,8_37_0,2023-11-17T20:14:40.797Z,,,,2,-0.0199897690678184,-0.0312486875504497,,0.04,true,ll,4543.675000000047,response,-1.0581281450494728,1.052930452562298,-1.185923655779638,-1.133169116569424,1.021064476058927,-1.1964301679733318,low,low,,ISIC_5482426.JPG,,ISIC_5490352.JPG,26,false,0.15000000000000002,ll,keypress(f),0,true,745428.6999999881,745428.5,740868.087,741087.1999999881,740884.825,745234.894,1,40,38,
sequence,flow.Sequence,8_37,2023-11-17T20:14:40.798Z,,,,,,,,,,,4543.675000000047,completion,,,,,,,low,low,,,,,,false,,,,,true,745429,745428.5,740868.087,741087.1999999881,740884.825,745234.894,1,40,,
trial,html.Screen,8_38_0,2023-11-17T20:14:56.599Z,,,,2,0.0077673378094614,0.0021810768579373,,0.04,false,hh,15995.405999952345,response,1.109729032348591,1.052930452562298,-1.185923655779638,0.9587230726994566,1.021064476058927,-1.1964301679733318,high,high,,ISIC_0067621.JPG,,ISIC_0055289.JPG,33,false,0.1,ll,keypress(f),0,true,761230.5999999642,761230.2999999523,745218.279,745429.0999999642,745234.894,761034.798,1,40,39,
sequence,flow.Sequence,8_38,2023-11-17T20:14:56.600Z,,,,,,,,,,,15995.405999952345,completion,,,,,,,high,high,,,,,,false,,,,,true,761231,761230.2999999523,745218.279,745429.0999999642,745234.894,761034.798,1,40,,
trial,html.Screen,8_39_0,2023-11-17T20:15:01.335Z,,,,2,-0.0361875505619981,0.0291457404567876,,0.04,false,hl,4931.4019999881275,response,1.052305774554686,1.102930452562298,-1.185923655779638,-1.3940181224717798,1.071064476058927,-1.1964301679733318,high,low,,ISIC_0027480.JPG,,ISIC_4175400.JPG,26,false,0.27000000000000013,hh,keypress(i),0,true,765966.3999999762,765966.1999999881,761018.346,761231.1999999881,761034.798,765768.114,1,40,40,
sequence,flow.Sequence,8_39,2023-11-17T20:15:01.336Z,,,,,,,,,,,4931.4019999881275,completion,,,,,,,high,low,,,,,,false,,,,,true,765967.0999999642,765966.1999999881,761018.346,761231.0999999642,761034.798,765768.114,1,40,,
stair_loop,flow.Loop,8,2023-11-17T20:15:01.336Z,,,,,,,,,,,290513.6949999881,completion,,,,,,,,,,,,,,false,,,,,true,765967.3999999762,765966.1999999881,475435.666,475644.39999997616,475452.505,765768.114,1,40,,
exp_instructions,html.Screen,9,2023-11-17T20:15:17.478Z,,,,,,,,,,,16340.485999964294,response,,,,,,,,,,,,,,,,continue,keypress(Space),,,782109.3999999762,782108.5999999642,765751.513,765967.3999999762,765768.114,781918.129,,,,
trial,html.Screen,10_0_0,2023-11-17T20:15:25.479Z,,,,1,0.0350697500805515,0.0166617848231997,,0.04,true,ll,8191.47099996428,response,-1.1510001454240106,1.1156471871882698,-1.1434236557796382,-1.132540312667795,1.0684257904235708,-1.1530004865316574,low,low,,ISIC_0024423.JPG,9,ISIC_0009959.JPG,30,false,0.14,ll,keypress(f),0,false,790110,790109.5999999642,781900.842,782109.6999999881,781918.129,789918.283,4,500,1,
break,html.Screen,10_0_1,2023-11-17T20:15:25.480Z,,,,,,,,,,,NaN,,,,,,,,low,low,,,,,,false,,,,,false,790111,790110.6999999881,,790110.2999999523,,789918.283,4,500,,
break_continue,html.Screen,10_0_2,2023-11-17T20:15:25.480Z,,,,,,,,,,,NaN,,,,,,,,low,low,,,,,,false,,,,,false,790111.6999999881,790111.5,,790111.1999999881,,789918.283,4,500,,
sequence,flow.Sequence,10_0,2023-11-17T20:15:25.481Z,,,,,,,,,,,8193.371000000043,completion,,,,,,,low,low,,,,,,false,,,,,false,790112,790111.5,781900.842,782109.6999999881,781918.129,789918.283,4,500,,
trial,html.Screen,10_1_0,2023-11-17T20:15:30.205Z,,,,1,-0.0127320821962457,0.0315308940184827,,0.04,true,hh,4918.116999976104,response,1.0710981257723884,1.1156471871882698,-1.1434236557796382,0.9983143500894516,1.0684257904235708,-1.1530004865316574,high,high,,ISIC_8156101.JPG,10,ISIC_0026652.JPG,29,false,0.11,hh,keypress(i),0,false,794836.3999999762,794836.3999999762,789901.162,790112.1999999881,789918.283,794634.687,4,500,2,
break,html.Screen,10_1_1,2023-11-17T20:15:30.205Z,,,,,,,,,,,NaN,,,,,,,,high,high,,,,,,false,,,,,false,794836.7999999523,794836.6999999881,,794836.5999999642,,794634.687,4,500,,
break_continue,html.Screen,10_1_2,2023-11-17T20:15:30.206Z,,,,,,,,,,,NaN,,,,,,,,high,high,,,,,,false,,,,,false,794837,794836.8999999762,,794836.7999999523,,794634.687,4,500,,
sequence,flow.Sequence,10_1,2023-11-17T20:15:30.206Z,,,,,,,,,,,4918.616999976104,completion,,,,,,,high,high,,,,,,false,,,,,false,794837,794836.8999999762,789901.162,790112.0999999642,789918.283,794634.687,4,500,,
trial,html.Screen,10_2_0,2023-11-17T20:15:33.998Z,,,,1,0.0158987717472563,0.0292472192292015,,0.04,false,hh,3994.612999952282,response,1.1320017221158485,1.1156471871882698,-1.1434236557796382,1.065213496692536,1.0684257904235708,-1.1530004865316574,high,high,,ISIC_1366765.JPG,8,ISIC_0030597.JPG,29,false,0.11,lh,keypress(e),0,false,798629.5,798629.2999999523,794617.869,794837,794634.687,798434.752,4,500,3,
break,html.Screen,10_2_1,2023-11-17T20:15:33.999Z,,,,,,,,,,,NaN,,,,,,,,high,high,,,,,,false,,,,,false,798630.3999999762,798630.1999999881,,798629.7999999523,,798434.752,4,500,,
break_continue,html.Screen,10_2_2,2023-11-17T20:15:34.000Z,,,,,,,,,,,NaN,,,,,,,,high,high,,,,,,false,,,,,false,798631,798630.7999999523,,798630.5999999642,,798434.752,4,500,,
sequence,flow.Sequence,10_2,2023-11-17T20:15:34.000Z,,,,,,,,,,,3996.112999952282,completion,,,,,,,high,high,,,,,,false,,,,,false,798631.1999999881,798630.7999999523,794617.869,794837,794634.687,798434.752,4,500,,
trial,html.Screen,10_3_0,2023-11-17T20:15:40.143Z,,,,1,-0.0189295602385628,-0.0128812415435153,,0.04,true,ll,6339.347999964259,response,-1.1510001454240106,1.1156471871882698,-1.1434236557796382,-1.132540312667795,1.0684257904235708,-1.1530004865316574,low,low,,ISIC_0010372.JPG,9,ISIC_0009959.JPG,30,false,0.14,ll,keypress(f),0,false,804774.3999999762,804774.0999999642,798418.191,798631.3999999762,798434.752,804568.06,4,500,4,
break,html.Screen,10_3_1,2023-11-17T20:15:40.144Z,,,,,,,,,,,NaN,,,,,,,,low,low,,,,,,false,,,,,false,804775.3999999762,804775.0999999642,,804774.6999999881,,804568.06,4,500,,
break_continue,html.Screen,10_3_2,2023-11-17T20:15:40.145Z,,,,,,,,,,,NaN,,,,,,,,low,low,,,,,,false,,,,,false,804776,804775.6999999881,,804775.5999999642,,804568.06,4,500,,
sequence,flow.Sequence,10_3,2023-11-17T20:15:40.145Z,,,,,,,,,,,6340.9479999881005,completion,,,,,,,low,low,,,,,,false,,,,,false,804776.1999999881,804775.6999999881,798418.191,798631.2999999523,798434.752,804568.06,4,500,,
trial,html.Screen,10_4_0,2023-11-17T20:15:43.398Z,,,,1,-0.010035581303589,0.0100711721396864,,0.04,true,lh,3461.0399999641813,response,-1.0003671514840182,1.1156471871882698,-1.1434236557796382,0.8992716557663581,1.0684257904235708,-1.1530004865316574,low,high,,ISIC_0030592.JPG,9,ISIC_0061749.JPG,25,false,0.27000000000000013,lh,keypress(e),0,false,808029.3999999762,808029.0999999642,804551.504,804776.3999999762,804568.06,807834.739,4,500,5,
break,html.Screen,10_4_1,2023-11-17T20:15:43.399Z,,,,,,,,,,,NaN,,,,,,,,low,high,,,,,,false,,,,,false,808030.1999999881,808030,,808029.5999999642,,807834.739,4,500,,
break_continue,html.Screen,10_4_2,2023-11-17T20:15:43.399Z,,,,,,,,,,,NaN,,,,,,,,low,high,,,,,,false,,,,,false,808030.5999999642,808030.5999999642,,808030.2999999523,,807834.739,4,500,,
sequence,flow.Sequence,10_4,2023-11-17T20:15:43.400Z,,,,,,,,,,,3462.5399999641813,completion,,,,,,,low,high,,,,,,false,,,,,false,808030.8999999762,808030.5999999642,804551.504,804776.3999999762,804568.06,807834.739,4,500,,
trial,html.Screen,10_5_0,2023-11-17T20:15:49.094Z,,,,1,-0.0063515208248796,-0.0194177605767913,,0.04,false,ll,5890.360999964294,response,-1.1642596483638106,1.1156471871882698,-1.1434236557796382,-1.091507924157762,1.0684257904235708,-1.1530004865316574,low,low,,ISIC_5281908.JPG,8,ISIC_0765584.JPG,30,false,0.14,lh,keypress(e),0,false,813725.3999999762,813725.0999999642,807818.186,808031.0999999642,807834.739,813534.9,4,500,6,
break,html.Screen,10_5_1,2023-11-17T20:15:49.095Z,,,,,,,,,,,NaN,,,,,,,,low,low,,,,,,false,,,,,false,813726.3999999762,813726.1999999881,,813725.6999999881,,813534.9,4,500,,
break_continue,html.Screen,10_5_2,2023-11-17T20:15:49.096Z,,,,,,,,,,,NaN,,,,,,,,low,low,,,,,,false,,,,,false,813726.8999999762,813726.6999999881,,813726.5,,813534.9,4,500,,
sequence,flow.Sequence,10_5,2023-11-17T20:15:49.096Z,,,,,,,,,,,5891.960999988136,completion,,,,,,,low,low,,,,,,false,,,,,false,813727.0999999642,813726.6999999881,807818.186,808031,807834.739,813534.9,4,500,,
trial,html.Screen,10_6_0,2023-11-17T20:15:54.134Z,,,,1,-0.0189295602385628,-0.0128812415435153,,0.04,true,hl,5230.099999999977,response,1.2704198237183777,1.1156471871882698,-1.1434236557796382,-1.138121072015301,1.0684257904235708,-1.1530004865316574,high,low,,ISIC_0010372.JPG,9,ISIC_0501843.JPG,27,false,0.2600000000000001,hl,keypress(j),0,false,818765.2999999523,818765,813501.396,813727.2999999523,813534.9,818567.97,4,500,7,
break,html.Screen,10_6_1,2023-11-17T20:15:54.135Z,,,,,,,,,,,NaN,,,,,,,,high,low,,,,,,false,,,,,false,818766.1999999881,818766,,818765.5,,818567.97,4,500,,
break_continue,html.Screen,10_6_2,2023-11-17T20:15:54.135Z,,,,,,,,,,,NaN,,,,,,,,high,low,,,,,,false,,,,,false,818766.5999999642,818766.5,,818766.2999999523,,818567.97,4,500,,
sequence,flow.Sequence,10_6,2023-11-17T20:15:54.135Z,,,,,,,,,,,5231.599999999977,completion,,,,,,,high,low,,,,,,false,,,,,false,818766.7999999523,818766.5,813501.396,813727.2999999523,813534.9,818567.97,4,500,,
trial,html.Screen,10_7_0,2023-11-17T20:16:03.502Z,,,,1,0.0060918352854008,-0.029032683404407,,0.04,true,lh,9564.729999988107,response,-1.411763789273233,1.1156471871882698,-1.1434236557796382,1.0057734478347988,1.0684257904235708,-1.1530004865316574,low,high,,ISIC_8436194.JPG,9,ISIC_0027235.JPG,25,false,0.27000000000000013,lh,keypress(e),0,false,828132.8999999762,828132.6999999881,818551.512,818767,818567.97,827934.584,4,500,8,
break,html.Screen,10_7_1,2023-11-17T20:16:03.503Z,,,,,,,,,,,NaN,,,,,,,,low,high,,,,,,false,,,,,false,828133.7999999523,828133.5999999642,,828133.1999999881,,827934.584,4,500,,
break_continue,html.Screen,10_7_2,2023-11-17T20:16:03.503Z,,,,,,,,,,,NaN,,,,,,,,low,high,,,,,,false,,,,,false,828134.0999999642,828134,,828133.8999999762,,827934.584,4,500,,
sequence,flow.Sequence,10_7,2023-11-17T20:16:03.503Z,,,,,,,,,,,9566.030000000028,completion,,,,,,,low,high,,,,,,false,,,,,false,828134.0999999642,828134,818551.512,818767,818567.97,827934.584,4,500,,
trial,html.Screen,10_8_0,2023-11-17T20:16:12.326Z,,,,1,0.0057914759495055,-0.018500200317654,,0.04,true,ll,9022.315999976126,response,-1.0831477774866454,1.1156471871882698,-1.1434236557796382,-1.0347343776726454,1.0684257904235708,-1.1530004865316574,low,low,,ISIC_0058723.JPG,9,ISIC_9475559.JPG,30,false,0.14,ll,keypress(f),0,false,836957.1999999881,836956.8999999762,827917.965,828134.0999999642,827934.584,836751.317,4,500,9,
break,html.Screen,10_8_1,2023-11-17T20:16:12.327Z,,,,,,,,,,,NaN,,,,,,,,low,low,,,,,,false,,,,,false,836958.1999999881,836957.8999999762,,836957.5,,836751.317,4,500,,
break_continue,html.Screen,10_8_2,2023-11-17T20:16:12.327Z,,,,,,,,,,,NaN,,,,,,,,low,low,,,,,,false,,,,,false,836958.6999999881,836958.5,,836958.2999999523,,836751.317,4,500,,
sequence,flow.Sequence,10_8,2023-11-17T20:16:12.328Z,,,,,,,,,,,9023.915999999968,completion,,,,,,,low,low,,,,,,false,,,,,false,836958.8999999762,836958.5,827917.965,828134.0999999642,827934.584,836751.317,4,500,,
trial,html.Screen,10_9_0,2023-11-17T20:16:23.694Z,,,,1,0.0350697500805515,0.0166617848231997,,0.04,false,hl,11573.68299999996,response,1.1592423187534993,1.1156471871882698,-1.1434236557796382,-1.067128884093211,1.0684257904235708,-1.1530004865316574,high,low,,ISIC_0024423.JPG,9,ISIC_6854940.JPG,27,false,0.2600000000000001,lh,keypress(e),0,false,848325.2999999523,848325,836734.558,836959.0999999642,836751.317,848135.984,4,500,10,
break,html.Screen,10_9_1,2023-11-17T20:16:23.695Z,,,,,,,,,,,NaN,,,,,,,,high,low,,,,,,false,,,,,false,848326,848325.8999999762,,848325.5,,848135.984,4,500,,
break_continue,html.Screen,10_9_2,2023-11-17T20:16:23.695Z,,,,,,,,,,,NaN,,,,,,,,high,low,,,,,,false,,,,,false,848326.5,848326.2999999523,,848326.1999999881,,848135.984,4,500,,
sequence,flow.Sequence,10_9,2023-11-17T20:16:23.695Z,,,,,,,,,,,11574.982999952277,completion,,,,,,,high,low,,,,,,false,,,,,false,848326.6999999881,848326.2999999523,836734.558,836959.0999999642,836751.317,848135.984,4,500,,
trial,html.Screen,10_10_0,2023-11-17T20:16:28.583Z,,,,1,0.0023664502831079,0.0252784582169994,,0.04,false,lh,5078.015999999945,response,-1.3515962101204746,1.1156471871882698,-1.1434236557796382,0.8414583575292955,1.0684257904235708,-1.1530004865316574,low,high,,ISIC_4156010.JPG,9,ISIC_0274382.JPG,25,false,0.27000000000000013,ll,keypress(f),0,false,853214.1999999881,853214,848101.376,848326.7999999523,848135.984,853018.028,4,500,11,
break,html.Screen,10_10_1,2023-11-17T20:16:28.584Z,,,,,,,,,,,NaN,,,,,,,,low,high,,,,,,false,,,,,false,853215.2999999523,853215,,853214.5,,853018.028,4,500,,
break_continue,html.Screen,10_10_2,2023-11-17T20:16:28.585Z,,,,,,,,,,,NaN,,,,,,,,low,high,,,,,,false,,,,,false,853215.7999999523,853215.6999999881,,853215.3999999762,,853018.028,4,500,,
sequence,flow.Sequence,10_10,2023-11-17T20:16:28.585Z,,,,,,,,,,,5079.715999988024,completion,,,,,,,low,high,,,,,,false,,,,,false,853216,853215.6999999881,848101.376,848326.7999999523,848135.984,853018.028,4,500,,
trial,html.Screen,10_11_0,2023-11-17T20:16:33.990Z,,,,1,0.0158987717472563,0.0292472192292015,,0.04,true,hh,5603.271999952267,response,1.089914260719518,1.1156471871882698,-1.1434236557796382,1.1695563571046357,1.0684257904235708,-1.1530004865316574,high,high,,ISIC_1366765.JPG,10,ISIC_0030695.JPG,29,false,0.11,hh,keypress(i),0,false,858621.5,858621.2999999523,853001.364,853216.2999999523,853018.028,858417.858,4,500,12,
break,html.Screen,10_11_1,2023-11-17T20:16:33.991Z,,,,,,,,,,,NaN,,,,,,,,high,high,,,,,,false,,,,,false,858622.5,858622.2999999523,,858621.8999999762,,858417.858,4,500,,
break_continue,html.Screen,10_11_2,2023-11-17T20:16:33.992Z,,,,,,,,,,,NaN,,,,,,,,high,high,,,,,,false,,,,,false,858622.8999999762,858622.7999999523,,858622.5999999642,,858417.858,4,500,,
sequence,flow.Sequence,10_11,2023-11-17T20:16:33.992Z,,,,,,,,,,,5604.771999952267,completion,,,,,,,high,high,,,,,,false,,,,,false,858623.1999999881,858622.7999999523,853001.364,853216.1999999881,853018.028,858417.858,4,500,,
trial,html.Screen,10_12_0,2023-11-17T20:16:40.109Z,,,,1,0.0077673378094614,0.0021810768579373,,0.04,true,hh,6322.441999952309,response,1.0698162624196283,1.1156471871882698,-1.1434236557796382,1.0648460966097275,1.0684257904235708,-1.1530004865316574,high,high,,ISIC_0067621.JPG,8,ISIC_0030552.JPG,29,false,0.11,hh,keypress(i),0,false,864740.5,864740.2999999523,858401.448,858623.2999999523,858417.858,864534.526,4,500,13,
break,html.Screen,10_12_1,2023-11-17T20:16:40.110Z,,,,,,,,,,,NaN,,,,,,,,high,high,,,,,,false,,,,,false,864741,864740.7999999523,,864740.5999999642,,864534.526,4,500,,
break_continue,html.Screen,10_12_2,2023-11-17T20:16:40.110Z,,,,,,,,,,,NaN,,,,,,,,high,high,,,,,,false,,,,,false,864741.2999999523,864741.0999999642,,864741.0999999642,,864534.526,4,500,,
sequence,flow.Sequence,10_12,2023-11-17T20:16:40.110Z,,,,,,,,,,,6323.24199996423,completion,,,,,,,high,high,,,,,,false,,,,,false,864741.3999999762,864741.0999999642,858401.448,858623.2999999523,858417.858,864534.526,4,500,,
trial,html.Screen,10_13_0,2023-11-17T20:16:45.405Z,,,,1,-0.0365981355399771,-0.0162670920008846,,0.04,false,ll,5501.474000000046,response,-1.1168199061753437,1.1156471871882698,-1.1434236557796382,-1.212287319329914,1.0684257904235708,-1.1530004865316574,low,low,,ISIC_0982855.JPG,9,ISIC_5919355.JPG,30,false,0.14,hl,keypress(j),0,false,870036.1999999881,870036,864517.742,864741.5,864534.526,869834.513,4,500,14,
break,html.Screen,10_13_1,2023-11-17T20:16:45.405Z,,,,,,,,,,,NaN,,,,,,,,low,low,,,,,,false,,,,,false,870036.5999999642,870036.5,,870036.3999999762,,869834.513,4,500,,
break_continue,html.Screen,10_13_2,2023-11-17T20:16:45.406Z,,,,,,,,,,,NaN,,,,,,,,low,low,,,,,,false,,,,,false,870036.8999999762,870036.7999999523,,870036.5999999642,,869834.513,4,500,,
sequence,flow.Sequence,10_13,2023-11-17T20:16:45.406Z,,,,,,,,,,,5502.273999952362,completion,,,,,,,low,low,,,,,,false,,,,,false,870037,870036.7999999523,864517.742,864741.5,864534.526,869834.513,4,500,,
trial,html.Screen,10_14_0,2023-11-17T20:16:50.118Z,,,,1,0.00126575685933,0.0325046559638838,,0.04,false,lh,4914.186999988044,response,-1.1235224875125256,1.1156471871882698,-1.1434236557796382,0.8641223012137988,1.0684257904235708,-1.1530004865316574,low,high,,ISIC_5682259.JPG,9,ISIC_0033901.JPG,25,false,0.27000000000000013,ll,keypress(f),0,false,874748.8999999762,874748.6999999881,869818.054,870037.0999999642,869834.513,874551.205,4,500,15,
break,html.Screen,10_14_1,2023-11-17T20:16:50.119Z,,,,,,,,,,,NaN,,,,,,,,low,high,,,,,,false,,,,,false,874749.7999999523,874749.5999999642,,874749.1999999881,,874551.205,4,500,,
break_continue,html.Screen,10_14_2,2023-11-17T20:16:50.119Z,,,,,,,,,,,NaN,,,,,,,,low,high,,,,,,false,,,,,false,874750.2999999523,874750.0999999642,,874750,,874551.205,4,500,,
sequence,flow.Sequence,10_14,2023-11-17T20:16:50.119Z,,,,,,,,,,,4915.586999964202,completion,,,,,,,low,high,,,,,,false,,,,,false,874750.5,874750.0999999642,869818.054,870037,869834.513,874551.205,4,500,,
trial,html.Screen,10_15_0,2023-11-17T20:16:57.207Z,,,,1,-0.0086413421586899,-0.0360184993500958,,0.04,true,ll,7286.894999964279,response,-1.212030980680325,1.1156471871882698,-1.1434236557796382,-1.139863018685685,1.0684257904235708,-1.1530004865316574,low,low,,ISIC_0010767.JPG,9,ISIC_0008510.JPG,30,false,0.14,ll,keypress(f),0,false,881838.3999999762,881838.0999999642,874534.714,874750.6999999881,874551.205,881651.14,4,500,16,
break,html.Screen,10_15_1,2023-11-17T20:16:57.208Z,,,,,,,,,,,NaN,,,,,,,,low,low,,,,,,false,,,,,false,881839.2999999523,881839.0999999642,,881838.6999999881,,881651.14,4,500,,
break_continue,html.Screen,10_15_2,2023-11-17T20:16:57.209Z,,,,,,,,,,,NaN,,,,,,,,low,low,,,,,,false,,,,,false,881839.8999999762,881839.6999999881,,881839.5,,881651.14,4,500,,
sequence,flow.Sequence,10_15,2023-11-17T20:16:57.209Z,,,,,,,,,,,7288.494999988121,completion,,,,,,,low,low,,,,,,false,,,,,false,881840.0999999642,881839.6999999881,874534.714,874750.6999999881,874551.205,881651.14,4,500,,
trial,html.Screen,10_16_0,2023-11-17T20:17:02.294Z,,,,1,-0.0367218428225813,0.0026956749740767,,0.04,true,lh,5273.859999999986,response,-1.411763789273233,1.1156471871882698,-1.1434236557796382,1.0057734478347988,1.0684257904235708,-1.1530004865316574,low,high,,ISIC_7212271.JPG,9,ISIC_0027235.JPG,25,false,0.27000000000000013,lh,keypress(e),0,false,886925.2999999523,886925,881617.955,881840.2999999523,881651.14,886751.276,4,500,17,
break,html.Screen,10_16_1,2023-11-17T20:17:02.295Z,,,,,,,,,,,NaN,,,,,,,,low,high,,,,,,false,,,,,false,886926.2999999523,886926.0999999642,,886925.5999999642,,886751.276,4,500,,
break_continue,html.Screen,10_16_2,2023-11-17T20:17:02.296Z,,,,,,,,,,,NaN,,,,,,,,low,high,,,,,,false,,,,,false,886926.6999999881,886926.5999999642,,886926.3999999762,,886751.276,4,500,,
sequence,flow.Sequence,10_16,2023-11-17T20:17:02.296Z,,,,,,,,,,,5275.459999964223,completion,,,,,,,low,high,,,,,,false,,,,,false,886927,886926.5999999642,881617.955,881840.2999999523,881651.14,886751.276,4,500,,
trial,html.Screen,10_17_0,2023-11-17T20:17:09.439Z,,,,1,0.0071892445601978,-0.0246015408628738,,0.04,true,hh,7318.224000000046,response,1.0296906379811772,1.1156471871882698,-1.1434236557796382,0.9872236201212492,1.0684257904235708,-1.1530004865316574,high,high,,ISIC_0014133.JPG,8,ISIC_0015046.JPG,29,false,0.11,hh,keypress(i),0,false,894069.8999999762,894069.5,886734.711,886927.1999999881,886751.276,893867.751,4,500,18,
break,html.Screen,10_17_1,2023-11-17T20:17:09.440Z,,,,,,,,,,,NaN,,,,,,,,high,high,,,,,,false,,,,,false,894071.2999999523,894071,,894070.5,,893867.751,4,500,,
break_continue,html.Screen,10_17_2,2023-11-17T20:17:09.441Z,,,,,,,,,,,NaN,,,,,,,,high,high,,,,,,false,,,,,false,894072,894071.7999999523,,894071.5,,893867.751,4,500,,
sequence,flow.Sequence,10_17,2023-11-17T20:17:09.441Z,,,,,,,,,,,7320.523999952362,completion,,,,,,,high,high,,,,,,false,,,,,false,894072.1999999881,894071.7999999523,886734.711,886927.1999999881,886751.276,893867.751,4,500,,
trial,html.Screen,10_18_0,2023-11-17T20:17:12.926Z,,,,1,-0.0086413421586899,-0.0360184993500958,,0.04,true,hh,3689.4489999880316,response,1.1584542819627714,1.1156471871882698,-1.1434236557796382,0.9718566025210856,1.0684257904235708,-1.1530004865316574,high,high,,ISIC_0010767.JPG,9,ISIC_0010162.JPG,29,false,0.11,hh,keypress(i),0,false,897557.3999999762,897557.1999999881,893851.22,894072.3999999762,893867.751,897351.156,4,500,19,
break,html.Screen,10_18_1,2023-11-17T20:17:12.927Z,,,,,,,,,,,NaN,,,,,,,,high,high,,,,,,false,,,,,false,897558.3999999762,897558.0999999642,,897557.6999999881,,897351.156,4,500,,
break_continue,html.Screen,10_18_2,2023-11-17T20:17:12.928Z,,,,,,,,,,,NaN,,,,,,,,high,high,,,,,,false,,,,,false,897558.8999999762,897558.6999999881,,897558.5,,897351.156,4,500,,
sequence,flow.Sequence,10_18,2023-11-17T20:17:12.928Z,,,,,,,,,,,3690.9489999880316,completion,,,,,,,high,high,,,,,,false,,,,,false,897559.0999999642,897558.6999999881,893851.22,894072.2999999523,893867.751,897351.156,4,500,,
trial,html.Screen,10_19_0,2023-11-17T20:17:17.662Z,,,,1,-0.0127320821962457,0.0315308940184827,,0.04,true,hl,4941.844000000041,response,0.9212323139676136,1.1156471871882698,-1.1434236557796382,-0.9882196642247332,1.0684257904235708,-1.1530004865316574,high,low,,ISIC_8156101.JPG,9,ISIC_0014255.JPG,27,false,0.2600000000000001,hl,keypress(j),0,false,902293.2999999523,902293,897334.495,897559.3999999762,897351.156,902101.139,4,500,20,
break,html.Screen,10_19_1,2023-11-17T20:17:17.663Z,,,,,,,,,,,NaN,,,,,,,,high,low,,,,,,false,,,,,false,902294.1999999881,902294,,902293.5999999642,,902101.139,4,500,,
break_continue,html.Screen,10_19_2,2023-11-17T20:17:17.664Z,,,,,,,,,,,NaN,,,,,,,,high,low,,,,,,false,,,,,false,902294.7999999523,902294.5999999642,,902294.3999999762,,902101.139,4,500,,
sequence,flow.Sequence,10_19,2023-11-17T20:17:17.664Z,,,,,,,,,,,4943.443999964278,completion,,,,,,,high,low,,,,,,false,,,,,false,902295.0999999642,902294.5999999642,897334.495,897559.2999999523,897351.156,902101.139,4,500,,
trial,html.Screen,10_20_0,2023-11-17T20:17:24.119Z,,,,1,-0.0051046740562181,0.0178832721027728,,0.04,true,lh,6648.3610000000335,response,-0.8923602890201078,1.1156471871882698,-1.1434236557796382,0.8351700666074688,1.0684257904235708,-1.1530004865316574,low,high,,ISIC_9545819.JPG,9,ISIC_0033103.JPG,25,false,0.27000000000000013,lh,keypress(e),0,false,908749.6999999881,908749.5,902084.496,902295.0999999642,902101.139,908567.73,4,500,21,
break,html.Screen,10_20_1,2023-11-17T20:17:24.119Z,,,,,,,,,,,NaN,,,,,,,,low,high,,,,,,false,,,,,false,908750.5,908750.3999999762,,908749.8999999762,,908567.73,4,500,,
break_continue,html.Screen,10_20_2,2023-11-17T20:17:24.120Z,,,,,,,,,,,NaN,,,,,,,,low,high,,,,,,false,,,,,false,908751,908750.8999999762,,908750.6999999881,,908567.73,4,500,,
sequence,flow.Sequence,10_20,2023-11-17T20:17:24.120Z,,,,,,,,,,,6649.760999976192,completion,,,,,,,low,high,,,,,,false,,,,,false,908751.2999999523,908750.8999999762,902084.496,902295.0999999642,902101.139,908567.73,4,500,,
trial,html.Screen,10_21_0,2023-11-17T20:17:31.101Z,,,,1,-0.0321039635696159,-0.020496766286318,,0.04,false,hl,7164.469999988098,response,0.8561946552009824,1.1156471871882698,-1.1434236557796382,-0.9282171889213044,1.0684257904235708,-1.1530004865316574,high,low,,ISIC_0058063.JPG,9,ISIC_3065032.JPG,27,false,0.2600000000000001,ll,keypress(f),0,false,915732.3999999762,915732.1999999881,908534.394,908751.2999999523,908567.73,915534.372,4,500,22,
break,html.Screen,10_21_1,2023-11-17T20:17:31.101Z,,,,,,,,,,,NaN,,,,,,,,high,low,,,,,,false,,,,,false,915732.5999999642,915732.5,,915732.3999999762,,915534.372,4,500,,
break_continue,html.Screen,10_21_2,2023-11-17T20:17:31.102Z,,,,,,,,,,,NaN,,,,,,,,high,low,,,,,,false,,,,,false,915732.6999999881,915732.6999999881,,915732.5999999642,,915534.372,4,500,,
sequence,flow.Sequence,10_21,2023-11-17T20:17:31.102Z,,,,,,,,,,,7164.969999988098,completion,,,,,,,high,low,,,,,,false,,,,,false,915732.7999999523,915732.6999999881,908534.394,908751.2999999523,908567.73,915534.372,4,500,,
trial,html.Screen,10_22_0,2023-11-17T20:17:40.710Z,,,,1,-0.0199897690678184,-0.0312486875504497,,0.04,false,hl,9806.628000000026,response,1.1547137855907486,1.1156471871882698,-1.1434236557796382,-1.0185275168641534,1.0684257904235708,-1.1530004865316574,high,low,,ISIC_5482426.JPG,9,ISIC_7604870.JPG,27,false,0.2600000000000001,hh,keypress(i),0,false,925341.0999999642,925341,915517.547,915732.7999999523,915534.372,925151.583,4,500,23,
break,html.Screen,10_22_1,2023-11-17T20:17:40.711Z,,,,,,,,,,,NaN,,,,,,,,high,low,,,,,,false,,,,,false,925342,925341.7999999523,,925341.5,,925151.583,4,500,,
break_continue,html.Screen,10_22_2,2023-11-17T20:17:40.711Z,,,,,,,,,,,NaN,,,,,,,,high,low,,,,,,false,,,,,false,925342.5,925342.2999999523,,925342.0999999642,,925151.583,4,500,,
sequence,flow.Sequence,10_22,2023-11-17T20:17:40.712Z,,,,,,,,,,,9807.927999952342,completion,,,,,,,high,low,,,,,,false,,,,,false,925342.7999999523,925342.2999999523,915517.547,915732.7999999523,915534.372,925151.583,4,500,,
trial,html.Screen,10_23_0,2023-11-17T20:17:47.487Z,,,,1,-0.0199897690678184,-0.0312486875504497,,0.04,true,hh,6966.016999964253,response,1.0570280672376675,1.1156471871882698,-1.1434236557796382,1.0932046580095067,1.0684257904235708,-1.1530004865316574,high,high,,ISIC_5482426.JPG,9,ISIC_0061320.JPG,29,false,0.11,hh,keypress(i),0,false,932117.8999999762,932117.5999999642,925117.686,925342.8999999762,925151.583,931917.613,4,500,24,
break,html.Screen,10_23_1,2023-11-17T20:17:47.488Z,,,,,,,,,,,NaN,,,,,,,,high,high,,,,,,false,,,,,false,932118.7999999523,932118.5,,932118.1999999881,,931917.613,4,500,,
break_continue,html.Screen,10_23_2,2023-11-17T20:17:47.488Z,,,,,,,,,,,NaN,,,,,,,,high,high,,,,,,false,,,,,false,932119.3999999762,932119.1999999881,,932119,,931917.613,4,500,,
sequence,flow.Sequence,10_23,2023-11-17T20:17:47.489Z,,,,,,,,,,,6967.616999988095,completion,,,,,,,high,high,,,,,,false,,,,,false,932119.5999999642,932119.1999999881,925117.686,925342.8999999762,925151.583,931917.613,4,500,,
trial,html.Screen,10_24_0,2023-11-17T20:18:01.287Z,,,,1,-0.0321039635696159,-0.020496766286318,,0.04,false,hh,14000.286999976146,response,1.1671212908494544,1.1156471871882698,-1.1434236557796382,1.1286681796701683,1.0684257904235708,-1.1530004865316574,high,high,,ISIC_0058063.JPG,9,ISIC_0065022.JPG,29,false,0.11,hl,keypress(j),0,false,945918.0999999642,945917.8999999762,931901.008,932119.7999999523,931917.613,945717.63,4,500,25,
break,html.Screen,10_24_1,2023-11-17T20:18:01.288Z,,,,,,,,,,,NaN,,,,,,,,high,high,,,,,,false,,,,,false,945919.0999999642,945918.7999999523,,945918.5,,945717.63,4,500,,
break_continue,html.Screen,10_24_2,2023-11-17T20:18:01.289Z,,,,,,,,,,,NaN,,,,,,,,high,high,,,,,,false,,,,,false,945919.6999999881,945919.5999999642,,945919.3999999762,,945717.63,4,500,,
sequence,flow.Sequence,10_24,2023-11-17T20:18:01.289Z,,,,,,,,,,,14001.986999964225,completion,,,,,,,high,high,,,,,,false,,,,,false,945920,945919.5999999642,931901.008,932119.7999999523,931917.613,945717.63,4,500,,
trial,html.Screen,10_25_0,2023-11-17T20:18:06.254Z,,,,1,0.0166849894750452,-0.0371614812368835,,0.04,true,hh,5167.069999988074,response,1.0353494157291625,1.1156471871882698,-1.1434236557796382,0.9833297148698538,1.0684257904235708,-1.1530004865316574,high,high,,ISIC_6231450.JPG,8,ISIC_5156491.JPG,29,false,0.11,hh,keypress(i),0,false,950885,950884.6999999881,945701.071,945920.1999999881,945717.63,950684.273,4,500,26,
break,html.Screen,10_25_1,2023-11-17T20:18:06.255Z,,,,,,,,,,,NaN,,,,,,,,high,high,,,,,,false,,,,,false,950886.0999999642,950885.8999999762,,950885.3999999762,,950684.273,4,500,,
break_continue,html.Screen,10_25_2,2023-11-17T20:18:06.256Z,,,,,,,,,,,NaN,,,,,,,,high,high,,,,,,false,,,,,false,950886.6999999881,950886.5,,950886.2999999523,,950684.273,4,500,,
sequence,flow.Sequence,10_25,2023-11-17T20:18:06.256Z,,,,,,,,,,,5168.869999999995,completion,,,,,,,high,high,,,,,,false,,,,,false,950886.8999999762,950886.5,945701.071,945920.1999999881,945717.63,950684.273,4,500,,
trial,html.Screen,10_26_0,2023-11-17T20:18:13.598Z,,,,1,0.0166849894750452,-0.0371614812368835,,0.04,true,lh,7544.626999976113,response,-1.2018448523268856,1.1156471871882698,-1.1434236557796382,0.8157731190790072,1.0684257904235708,-1.1530004865316574,low,high,,ISIC_6231450.JPG,8,ISIC_7662993.JPG,25,false,0.27000000000000013,lh,keypress(e),0,false,958229.1999999881,958228.8999999762,950667.482,950887.0999999642,950684.273,958034.236,4,500,27,
break,html.Screen,10_26_1,2023-11-17T20:18:13.599Z,,,,,,,,,,,NaN,,,,,,,,low,high,,,,,,false,,,,,false,958230.0999999642,958229.7999999523,,958229.3999999762,,958034.236,4,500,,
break_continue,html.Screen,10_26_2,2023-11-17T20:18:13.600Z,,,,,,,,,,,NaN,,,,,,,,low,high,,,,,,false,,,,,false,958230.5999999642,958230.5,,958230.2999999523,,958034.236,4,500,,
sequence,flow.Sequence,10_26,2023-11-17T20:18:13.600Z,,,,,,,,,,,7546.226999999955,completion,,,,,,,low,high,,,,,,false,,,,,false,958230.8999999762,958230.5,950667.482,950887,950684.273,958034.236,4,500,,
trial,html.Screen,10_27_0,2023-11-17T20:18:18.405Z,,,,1,0.0377791839943904,-0.0227626648172468,,0.04,true,hl,5001.563999952283,response,0.9566823908868002,1.1156471871882698,-1.1434236557796382,-0.9602125665128364,1.0684257904235708,-1.1530004865316574,high,low,,ISIC_7167479.JPG,10,ISIC_0056784.JPG,27,false,0.2600000000000001,hl,keypress(j),0,false,963035.7999999523,963035.7999999523,958017.627,958231,958034.236,962834.239,4,500,28,
break,html.Screen,10_27_1,2023-11-17T20:18:18.405Z,,,,,,,,,,,NaN,,,,,,,,high,low,,,,,,false,,,,,false,963036.0999999642,963036,,963035.8999999762,,962834.239,4,500,,
break_continue,html.Screen,10_27_2,2023-11-17T20:18:18.405Z,,,,,,,,,,,NaN,,,,,,,,high,low,,,,,,false,,,,,false,963036.2999999523,963036.1999999881,,963036.1999999881,,962834.239,4,500,,
sequence,flow.Sequence,10_27,2023-11-17T20:18:18.405Z,,,,,,,,,,,5001.9639999880455,completion,,,,,,,high,low,,,,,,false,,,,,false,963036.2999999523,963036.1999999881,958017.627,958231,958034.236,962834.239,4,500,,
trial,html.Screen,10_28_0,2023-11-17T20:18:23.687Z,,,,1,-0.0189295602385628,-0.0128812415435153,,0.04,true,lh,5483.460999988136,response,-1.3515962101204746,1.1156471871882698,-1.1434236557796382,0.8414583575292955,1.0684257904235708,-1.1530004865316574,low,high,,ISIC_0010372.JPG,10,ISIC_0274382.JPG,25,false,0.27000000000000013,lh,keypress(e),0,false,968318,968317.6999999881,962817.706,963036.2999999523,962834.239,968117.545,4,500,29,
break,html.Screen,10_28_1,2023-11-17T20:18:23.688Z,,,,,,,,,,,NaN,,,,,,,,low,high,,,,,,false,,,,,false,968318.8999999762,968318.6999999881,,968318.2999999523,,968117.545,4,500,,
break_continue,html.Screen,10_28_2,2023-11-17T20:18:23.688Z,,,,,,,,,,,NaN,,,,,,,,low,high,,,,,,false,,,,,false,968319.3999999762,968319.1999999881,,968319.0999999642,,968117.545,4,500,,
sequence,flow.Sequence,10_28,2023-11-17T20:18:23.689Z,,,,,,,,,,,5484.960999988136,completion,,,,,,,low,high,,,,,,false,,,,,false,968319.5999999642,968319.1999999881,962817.706,963036.2999999523,962834.239,968117.545,4,500,,
trial,html.Screen,10_29_0,2023-11-17T20:18:30.622Z,,,,1,-0.0086413421586899,-0.0360184993500958,,0.04,true,hh,7135.254999952274,response,1.094624209823328,1.1156471871882698,-1.1434236557796382,1.0544499428769605,1.0684257904235708,-1.1530004865316574,high,high,,ISIC_0010767.JPG,9,ISIC_0055526.JPG,29,false,0.11,hh,keypress(i),0,false,975253.0999999642,975252.7999999523,968101.127,968319.7999999523,968117.545,975067.573,4,500,30,
break,html.Screen,10_29_1,2023-11-17T20:18:30.623Z,,,,,,,,,,,NaN,,,,,,,,high,high,,,,,,false,,,,,false,975253.8999999762,975253.6999999881,,975253.2999999523,,975067.573,4,500,,
break_continue,html.Screen,10_29_2,2023-11-17T20:18:30.623Z,,,,,,,,,,,NaN,,,,,,,,high,high,,,,,,false,,,,,false,975254.5999999642,975254.3999999762,,975254.1999999881,,975067.573,4,500,,
sequence,flow.Sequence,10_29,2023-11-17T20:18:30.624Z,,,,,,,,,,,7136.854999976116,completion,,,,,,,high,high,,,,,,false,,,,,false,975254.7999999523,975254.3999999762,968101.127,968319.7999999523,968117.545,975067.573,4,500,,
trial,html.Screen,10_30_0,2023-11-17T20:18:34.399Z,,,,1,-0.0189295602385628,-0.0128812415435153,,0.04,true,lh,3962.2269999523414,response,-1.411763789273233,1.1156471871882698,-1.1434236557796382,1.0057734478347988,1.0684257904235708,-1.1530004865316574,low,high,,ISIC_0010372.JPG,9,ISIC_0027235.JPG,25,false,0.27000000000000013,lh,keypress(e),0,false,979030,979029.7999999523,975034.248,975255,975067.573,978834.285,4,500,31,
break,html.Screen,10_30_1,2023-11-17T20:18:34.400Z,,,,,,,,,,,NaN,,,,,,,,low,high,,,,,,false,,,,,false,979031,979030.7999999523,,979030.3999999762,,978834.285,4,500,,
break_continue,html.Screen,10_30_2,2023-11-17T20:18:34.400Z,,,,,,,,,,,NaN,,,,,,,,low,high,,,,,,false,,,,,false,979031.5999999642,979031.3999999762,,979031.1999999881,,978834.285,4,500,,
sequence,flow.Sequence,10_30,2023-11-17T20:18:34.401Z,,,,,,,,,,,3963.8269999761833,completion,,,,,,,low,high,,,,,,false,,,,,false,979031.6999999881,979031.3999999762,975034.248,975255,975067.573,978834.285,4,500,,
trial,html.Screen,10_31_0,2023-11-17T20:18:37.214Z,,,,1,-0.0127320821962457,0.0315308940184827,,0.04,false,ll,3010.4149999880465,response,-1.0901635293704552,1.1156471871882698,-1.1434236557796382,-1.0348352814358883,1.0684257904235708,-1.1530004865316574,low,low,,ISIC_8156101.JPG,9,ISIC_7583134.JPG,30,false,0.14,hl,keypress(j),0,false,981844.8999999762,981844.6999999881,978817.718,979032,978834.285,981650.831,4,500,32,
break,html.Screen,10_31_1,2023-11-17T20:18:37.215Z,,,,,,,,,,,NaN,,,,,,,,low,low,,,,,,false,,,,,false,981845.7999999523,981845.5999999642,,981845.2999999523,,981650.831,4,500,,
break_continue,html.Screen,10_31_2,2023-11-17T20:18:37.215Z,,,,,,,,,,,NaN,,,,,,,,low,low,,,,,,false,,,,,false,981846.3999999762,981846.1999999881,,981846,,981650.831,4,500,,
sequence,flow.Sequence,10_31,2023-11-17T20:18:37.216Z,,,,,,,,,,,3011.9149999880465,completion,,,,,,,low,low,,,,,,false,,,,,false,981846.5999999642,981846.1999999881,978817.718,979032,978834.285,981650.831,4,500,,
trial,html.Screen,10_32_0,2023-11-17T20:18:43.468Z,,,,1,-0.0361875505619981,0.0291457404567876,,0.04,true,lh,6447.968999952311,response,-0.8923602890201078,1.1156471871882698,-1.1434236557796382,0.8351700666074688,1.0684257904235708,-1.1530004865316574,low,high,,ISIC_0027480.JPG,9,ISIC_0033103.JPG,25,false,0.27000000000000013,lh,keypress(e),0,false,988098.8999999762,988098.7999999523,981634.397,981846.7999999523,981650.831,987900.844,4,500,33,
break,html.Screen,10_32_1,2023-11-17T20:18:43.468Z,,,,,,,,,,,NaN,,,,,,,,low,high,,,,,,false,,,,,false,988099.1999999881,988099.1999999881,,988099,,987900.844,4,500,,
break_continue,html.Screen,10_32_2,2023-11-17T20:18:43.468Z,,,,,,,,,,,NaN,,,,,,,,low,high,,,,,,false,,,,,false,988099.2999999523,988099.2999999523,,988099.2999999523,,987900.844,4,500,,
sequence,flow.Sequence,10_32,2023-11-17T20:18:43.468Z,,,,,,,,,,,6448.468999952311,completion,,,,,,,low,high,,,,,,false,,,,,false,988099.3999999762,988099.2999999523,981634.397,981846.6999999881,981650.831,987900.844,4,500,,
trial,html.Screen,10_33_0,2023-11-17T20:18:47.484Z,,,,1,0.00126575685933,0.0325046559638838,,0.04,true,hh,4214.255999964196,response,1.185875658992962,1.1156471871882698,-1.1434236557796382,0.9985976786538492,1.0684257904235708,-1.1530004865316574,high,high,,ISIC_5682259.JPG,10,ISIC_0011703.JPG,29,false,0.11,hh,keypress(i),0,false,992115.2999999523,992115.0999999642,987884.127,988099.3999999762,987900.844,991917.479,4,500,34,
break,html.Screen,10_33_1,2023-11-17T20:18:47.485Z,,,,,,,,,,,NaN,,,,,,,,high,high,,,,,,false,,,,,false,992115.6999999881,992115.5999999642,,992115.3999999762,,991917.479,4,500,,
break_continue,html.Screen,10_33_2,2023-11-17T20:18:47.485Z,,,,,,,,,,,NaN,,,,,,,,high,high,,,,,,false,,,,,false,992115.8999999762,992115.8999999762,,992115.7999999523,,991917.479,4,500,,
sequence,flow.Sequence,10_33,2023-11-17T20:18:47.485Z,,,,,,,,,,,4215.055999976117,completion,,,,,,,high,high,,,,,,false,,,,,false,992116,992115.8999999762,987884.127,988099.3999999762,987900.844,991917.479,4,500,,
trial,html.Screen,10_34_0,2023-11-17T20:18:50.766Z,,,,1,0.0350697500805515,0.0166617848231997,,0.04,true,hh,3479.820999952266,response,1.0762260610050776,1.1156471871882698,-1.1434236557796382,1.1184338818466155,1.0684257904235708,-1.1530004865316574,high,high,,ISIC_0024423.JPG,9,ISIC_0058666.JPG,29,false,0.11,hh,keypress(i),0,false,995397.3999999762,995397.2999999523,991900.822,992116,991917.479,995200.844,4,500,35,
break,html.Screen,10_34_1,2023-11-17T20:18:50.767Z,,,,,,,,,,,NaN,,,,,,,,high,high,,,,,,false,,,,,false,995398.2999999523,995398.0999999642,,995397.6999999881,,995200.844,4,500,,
break_continue,html.Screen,10_34_2,2023-11-17T20:18:50.768Z,,,,,,,,,,,NaN,,,,,,,,high,high,,,,,,false,,,,,false,995398.7999999523,995398.6999999881,,995398.5,,995200.844,4,500,,
sequence,flow.Sequence,10_34,2023-11-17T20:18:50.768Z,,,,,,,,,,,3481.220999988029,completion,,,,,,,high,high,,,,,,false,,,,,false,995399,995398.6999999881,991900.822,992116,991917.479,995200.844,4,500,,
trial,html.Screen,10_35_0,2023-11-17T20:18:57.222Z,,,,1,-0.0051046740562181,0.0178832721027728,,0.04,true,hh,6652.055999976117,response,1.0561331896671369,1.1156471871882698,-1.1434236557796382,1.026183861508091,1.0684257904235708,-1.1530004865316574,high,high,,ISIC_9545819.JPG,9,ISIC_0026595.JPG,29,false,0.11,hh,keypress(i),0,false,1001853.1999999881,1001852.8999999762,995184.064,995399.1999999881,995200.844,1001650.807,4,500,36,
break,html.Screen,10_35_1,2023-11-17T20:18:57.223Z,,,,,,,,,,,NaN,,,,,,,,high,high,,,,,,false,,,,,false,1001854.1999999881,1001853.8999999762,,1001853.5,,1001650.807,4,500,,
break_continue,html.Screen,10_35_2,2023-11-17T20:18:57.224Z,,,,,,,,,,,NaN,,,,,,,,high,high,,,,,,false,,,,,false,1001854.7999999523,1001854.5999999642,,1001854.2999999523,,1001650.807,4,500,,
sequence,flow.Sequence,10_35,2023-11-17T20:18:57.224Z,,,,,,,,,,,6653.755999964196,completion,,,,,,,high,high,,,,,,false,,,,,false,1001855,1001854.5999999642,995184.064,995399.1999999881,995200.844,1001650.807,4,500,,
trial,html.Screen,10_36_0,2023-11-17T20:19:01.006Z,,,,1,-0.0367218428225813,0.0026956749740767,,0.04,true,ll,3986.3929999880493,response,-1.0885984639975343,1.1156471871882698,-1.1434236557796382,-1.2042618719491294,1.0684257904235708,-1.1530004865316574,low,low,,ISIC_7212271.JPG,8,ISIC_0012740.JPG,30,false,0.14,ll,keypress(f),0,false,1005637.5,1005637.1999999881,1001634.411,1001855.1999999881,1001650.807,1005434.123,4,500,37,
break,html.Screen,10_36_1,2023-11-17T20:19:01.007Z,,,,,,,,,,,NaN,,,,,,,,low,low,,,,,,false,,,,,false,1005638.5,1005638.1999999881,,1005637.7999999523,,1005434.123,4,500,,
break_continue,html.Screen,10_36_2,2023-11-17T20:19:01.008Z,,,,,,,,,,,NaN,,,,,,,,low,low,,,,,,false,,,,,false,1005639,1005638.7999999523,,1005638.5999999642,,1005434.123,4,500,,
sequence,flow.Sequence,10_36,2023-11-17T20:19:01.008Z,,,,,,,,,,,3987.9929999522865,completion,,,,,,,low,low,,,,,,false,,,,,false,1005639.2999999523,1005638.7999999523,1001634.411,1001855.1999999881,1001650.807,1005434.123,4,500,,
trial,html.Screen,10_37_0,2023-11-17T20:19:05.302Z,,,,1,-0.0361875505619981,0.0291457404567876,,0.04,false,hl,4498.276999976137,response,0.8561946552009824,1.1156471871882698,-1.1434236557796382,-0.9282171889213044,1.0684257904235708,-1.1530004865316574,high,low,,ISIC_0027480.JPG,9,ISIC_3065032.JPG,27,false,0.2600000000000001,hh,keypress(i),0,false,1009932.6999999881,1009932.3999999762,1005417.688,1005639.5,1005434.123,1009734.112,4,500,38,
break,html.Screen,10_37_1,2023-11-17T20:19:05.302Z,,,,,,,,,,,NaN,,,,,,,,high,low,,,,,,false,,,,,false,1009933.5,1009933.2999999523,,1009932.8999999762,,1009734.112,4,500,,
break_continue,html.Screen,10_37_2,2023-11-17T20:19:05.303Z,,,,,,,,,,,NaN,,,,,,,,high,low,,,,,,false,,,,,false,1009934,1009933.8999999762,,1009933.6999999881,,1009734.112,4,500,,
sequence,flow.Sequence,10_37,2023-11-17T20:19:05.303Z,,,,,,,,,,,4499.776999976137,completion,,,,,,,high,low,,,,,,false,,,,,false,1009934.1999999881,1009933.8999999762,1005417.688,1005639.3999999762,1005434.123,1009734.112,4,500,,
trial,html.Screen,10_38_0,2023-11-17T20:19:09.293Z,,,,1,0.0060918352854008,-0.029032683404407,,0.04,false,hl,4189.5879999881145,response,1.2043484010107477,1.1156471871882698,-1.1434236557796382,-1.2178113180138233,1.0684257904235708,-1.1530004865316574,high,low,,ISIC_8436194.JPG,8,ISIC_0011917.JPG,27,false,0.2600000000000001,hh,keypress(i),0,false,1013923.7999999523,1013923.6999999881,1009717.52,1009934.3999999762,1009734.112,1013717.408,4,500,39,
