sender,sender_type,sender_id,timestamp,meta,,age,blockNo,c1,c2,condition,control_tolerance,correct,correctResponse,duration,ended_on,f1,f1_high,f1_low,f2,f2_high,f2_low,feature_level1,feature_level2,gender,img_left,img_reveal,img_right,n_target_images,practice,range_tolerance,response,response_action,selection_duration,staircase,time_commit,time_end,time_render,time_run,time_show,time_switch,total_blocks,total_trials,trialNo,url
informed_consent,html.Screen,0,2023-11-17T17:30:58.914Z,"{""labjs_version"":""20.2.4"",""labjs_build"":{""flavor"":""development"",""commit"":""f5b4a49f956347addd546a832a3327688c2c0fef""},""location"":""https://labjs.felixhenninger.com/api/labjs_preview/index.html"",""userAgent"":""Mozilla/5.0 (Windows NT 10.0; Win64; x64) AppleWebKit/537.36 (KHTML, like Gecko) Chrome/119.0.0.0 Safari/537.36"",""platform"":""Win32"",""language"":""en-US"",""locale"":""en-US"",""timeZone"":""America/Chicago"",""timezoneOffset"":360,""screen_width"":1920,""screen_height"":1080,""scroll_width"":945,""scroll_height"":918,""window_innerWidth"":945,""window_innerHeight"":966,""devicePixelRatio"":1}",,,,,,,,,,23706.755999964236,response,,,,,,,,,,,,,,,,consent,click button,,,24565.69999998808,24557.099999964237,833.687,818.5999999642372,850.344,24566.87,,,,{}
Demography form,html.Form,1,2023-11-17T17:31:05.250Z,,,21,,,,,,,,6335.029999976159,form submission,,,,,,,,,female,,,,,,,,,,,30902.099999964237,30901.899999976158,24550.262,24566,24566.87,30916.84,,,,
Welcome,html.Screen,2,2023-11-17T17:31:49.349Z,,,,,,,"[""asym"",""bor""]",,,,44080.05999997616,response,,,,,,,,,,,,,,,,continue,click button,,,74997.5,74996.89999997616,30883.478,30902.099999964237,30916.84,75000.054,,,,
demo_instructions,html.Screen,3,2023-11-17T17:32:38.665Z,,,,,,,,,,,49308.845999976154,response,,,,,,,,,,,,,,,,continue,click button,,,124309.5,124308.89999997616,74983.519,74997.59999996424,75000.054,124349.91,,,,
trial,html.Screen,4_0_0,2023-11-17T17:32:52.037Z,,,,0,0.7911024675435955,-0.7975977016137676,,,true,lh,13330.890000011917,response,-0.869932994914832,1.2,-1.2,0.8880533324432531,1.2,-1.2,low,high,,ISIC_5813642.JPG,,ISIC_8617084.JPG,26,true,0.3600000000000002,lh,keypress(e),100,false,137681.19999998808,137680.80000001192,124299.967,124309.59999996424,124349.91,137699.911,1,16,1,
sequence,flow.Sequence,4_0,2023-11-17T17:32:52.038Z,,,,,,,,,,,13330.890000011917,completion,,,,,,,low,high,,,,,,true,,,,,false,137682,137680.80000001192,124299.967,124309.59999996424,124349.91,137699.911,1,16,,
trial,html.Screen,4_1_0,2023-11-17T17:33:00.587Z,,,,0,0.809764442462202,-1.005337148078696,,,true,lh,8531.488999976165,response,-1.0143509683988825,1.2,-1.2,1.3163955902021656,1.2,-1.2,low,high,,ISIC_2379379.JPG,,ISIC_0062031.JPG,33,true,0.42000000000000026,lh,keypress(e),100,false,146231.59999996424,146231.39999997616,137683.324,137682.19999998808,137699.911,146249.865,1,16,2,
sequence,flow.Sequence,4_1,2023-11-17T17:33:00.588Z,,,,,,,,,,,8531.488999976165,completion,,,,,,,low,high,,,,,,true,,,,,false,146231.89999997616,146231.39999997616,137683.324,137682.09999996424,137699.911,146249.865,1,16,,
trial,html.Screen,4_2_0,2023-11-17T17:33:04.017Z,,,,0,0.8092423703106274,-1.1870093485714288,,,true,lh,3410.7349999642465,response,-0.9579209317488,1.2,-1.2,1.0147487101263497,1.2,-1.2,low,high,,ISIC_8592235.JPG,,ISIC_8124482.JPG,33,true,0.42000000000000026,lh,keypress(e),100,false,149661.30000001192,149660.59999996424,146233.231,146232,146249.865,149683.216,1,16,3,
sequence,flow.Sequence,4_2,2023-11-17T17:33:04.018Z,,,,,,,,,,,3410.7349999642465,completion,,,,,,,low,high,,,,,,true,,,,,false,149661.89999997616,149660.59999996424,146233.231,146232,146249.865,149683.216,1,16,,
trial,html.Screen,4_3_0,2023-11-17T17:33:08.067Z,,,,0,1.0022829373011404,-0.8311726972863814,,,true,lh,4027.284000000014,response,-1.2331439637486756,1.2,-1.2,0.9691143900156988,1.2,-1.2,low,high,,ISIC_0033287.JPG,,ISIC_7877488.JPG,33,true,0.42000000000000026,lh,keypress(e),100,false,153710.80000001192,153710.5,149666.551,149662.30000001192,149683.216,153733.166,1,16,4,
sequence,flow.Sequence,4_3,2023-11-17T17:33:08.067Z,,,,,,,,,,,4027.284000000014,completion,,,,,,,low,high,,,,,,true,,,,,false,153711.09999996424,153710.5,149666.551,149662.19999998808,149683.216,153733.166,1,16,,
trial,html.Screen,4_4_0,2023-11-17T17:33:16.599Z,,,,0,1.2923059965680113,1.222688159093534,,,true,ll,8509.533999988082,response,-0.949611091540108,1.2,-1.2,-1.300060426908596,1.2,-1.2,low,low,,ISIC_0072175.JPG,,ISIC_0072604.JPG,253,true,0.42000000000000026,ll,keypress(f),100,false,162243.09999996424,162242.69999998808,153716.545,153711.30000001192,153733.166,162266.525,1,16,5,
sequence,flow.Sequence,4_4,2023-11-17T17:33:16.600Z,,,,,,,,,,,8509.533999988082,completion,,,,,,,low,low,,,,,,true,,,,,false,162243.69999998808,162242.69999998808,153716.545,153711.19999998808,153733.166,162266.525,1,16,,
trial,html.Screen,4_5_0,2023-11-17T17:33:20.764Z,,,,0,1.1474466950560966,1.268445326285509,,,true,ll,4141.074999964243,response,-1.2706447584800626,1.2,-1.2,-1.0903308007916603,1.2,-1.2,low,low,,ISIC_5216586.JPG,,ISIC_9425937.JPG,26,true,0.15000000000000002,ll,keypress(f),100,false,166408.19999998808,166407.59999996424,162249.861,162244,162266.525,166433.378,1,16,6,
sequence,flow.Sequence,4_5,2023-11-17T17:33:20.764Z,,,,,,,,,,,4141.074999964243,completion,,,,,,,low,low,,,,,,true,,,,,false,166408.69999998808,166407.59999996424,162249.861,162244,162266.525,166433.378,1,16,,
trial,html.Screen,4_6_0,2023-11-17T17:33:26.476Z,,,,0,1.156827121261563,1.2544342720917778,,,true,ll,5686.72199996424,response,-1.131522954199764,1.2,-1.2,-1.1047184491749509,1.2,-1.2,low,low,,ISIC_0060397.JPG,,ISIC_1868816.JPG,26,true,0.15000000000000002,ll,keypress(f),100,false,172120.30000001192,172120.09999996424,166416.522,166408.89999997616,166433.378,172149.972,1,16,7,
sequence,flow.Sequence,4_6,2023-11-17T17:33:26.477Z,,,,,,,,,,,5686.72199996424,completion,,,,,,,low,low,,,,,,true,,,,,false,172120.89999997616,172120.09999996424,166416.522,166408.89999997616,166433.378,172149.972,1,16,,
trial,html.Screen,4_7_0,2023-11-17T17:33:30.256Z,,,,0,1.255256820488545,1.1206426433062562,,,true,ll,3749.9279999761493,response,-1.2706447584800626,1.2,-1.2,-1.0903308007916603,1.2,-1.2,low,low,,ISIC_0024652.JPG,,ISIC_9425937.JPG,26,true,0.15000000000000002,ll,keypress(f),100,false,175900.09999996424,175899.89999997616,172133.219,172121,172149.972,175916.438,1,16,8,
sequence,flow.Sequence,4_7,2023-11-17T17:33:30.256Z,,,,,,,,,,,3749.9279999761493,completion,,,,,,,low,low,,,,,,true,,,,,false,175900.19999998808,175899.89999997616,172133.219,172121,172149.972,175916.438,1,16,,
trial,html.Screen,4_8_0,2023-11-17T17:33:34.253Z,,,,0,-0.858338058340649,0.9540612223480284,,,true,hl,3980.2619999880844,response,1.4092385398614515,1.2,-1.2,-1.3046237992197836,1.2,-1.2,high,low,,ISIC_8922893.JPG,,ISIC_7254359.JPG,27,true,0.42000000000000026,hl,keypress(j),100,false,179897,179896.69999998808,175899.769,175900.19999998808,175916.438,179933.107,1,16,9,
sequence,flow.Sequence,4_8,2023-11-17T17:33:34.253Z,,,,,,,,,,,3980.2619999880844,completion,,,,,,,high,low,,,,,,true,,,,,false,179897.59999996424,179896.69999998808,175899.769,175900.19999998808,175916.438,179933.107,1,16,,
trial,html.Screen,4_9_0,2023-11-17T17:33:37.173Z,,,,0,-1.0865333402803938,1.0542635307358266,,,true,hl,2880.393000000011,response,0.7998855902596425,1.2,-1.2,-1.1518579145663017,1.2,-1.2,high,low,,ISIC_0034006.JPG,,ISIC_0025061.JPG,27,true,0.42000000000000026,hl,keypress(j),100,false,182813.59999996424,182813.5,179899.816,179897.80000001192,179933.107,182833.094,1,16,10,
sequence,flow.Sequence,4_9,2023-11-17T17:33:37.173Z,,,,,,,,,,,2880.393000000011,completion,,,,,,,high,low,,,,,,true,,,,,false,182813.89999997616,182813.5,179899.816,179897.80000001192,179933.107,182833.094,1,16,,
trial,html.Screen,4_10_0,2023-11-17T17:33:40.473Z,,,,0,-0.8534691366511764,1.03975580494588,,,true,hl,3280.5059999642253,response,0.809764442462202,1.2,-1.2,-1.005337148078696,1.2,-1.2,high,low,,ISIC_0056788.JPG,,ISIC_2379379.JPG,27,true,0.42000000000000026,hl,keypress(j),100,false,186113.89999997616,186113.59999996424,182816.424,182814,182833.094,186133.107,1,16,11,
sequence,flow.Sequence,4_10,2023-11-17T17:33:40.474Z,,,,,,,,,,,3280.5059999642253,completion,,,,,,,high,low,,,,,,true,,,,,false,186114.19999998808,186113.59999996424,182816.424,182814,182833.094,186133.107,1,16,,
trial,html.Screen,4_11_0,2023-11-17T17:33:44.381Z,,,,0,-0.8579451262594331,0.9633172970727744,,,true,hl,3888.09299998809,response,1.0115965332688306,1.2,-1.2,-0.8282633603842442,1.2,-1.2,high,low,,ISIC_0067172.JPG,,ISIC_1069587.JPG,27,true,0.42000000000000026,hl,keypress(j),100,false,190021.5,190021.19999998808,186116.508,186114.39999997616,186133.107,190049.837,1,16,12,
sequence,flow.Sequence,4_11,2023-11-17T17:33:44.382Z,,,,,,,,,,,3888.09299998809,completion,,,,,,,high,low,,,,,,true,,,,,false,190022,190021.19999998808,186116.508,186114.30000001192,186133.107,190049.837,1,16,,
trial,html.Screen,4_12_0,2023-11-17T17:33:53.558Z,,,,0,-1.2503149164557643,-1.0796591227570405,,,true,hh,9148.062999976159,response,1.1233838977156558,1.2,-1.2,0.8600511147636151,1.2,-1.2,high,high,,ISIC_2466892.JPG,,ISIC_0031965.JPG,245,true,0.3600000000000002,hh,keypress(i),100,false,199198.30000001192,199197.89999997616,190033.347,190022.19999998808,190049.837,199216.614,1,16,13,
sequence,flow.Sequence,4_12,2023-11-17T17:33:53.558Z,,,,,,,,,,,9148.062999976159,completion,,,,,,,high,high,,,,,,true,,,,,false,199198.89999997616,199197.89999997616,190033.347,190022.09999996424,190049.837,199216.614,1,16,,
trial,html.Screen,4_13_0,2023-11-17T17:33:56.065Z,,,,0,-1.2706447584800626,-1.0903308007916603,,,true,hh,2488.0859999880777,response,1.1164729501046406,1.2,-1.2,1.2978935747992253,1.2,-1.2,high,high,,ISIC_9425937.JPG,,ISIC_0034166.JPG,53,true,0.15000000000000002,hh,keypress(i),100,false,201705,201704.69999998808,199199.836,199199.19999998808,199216.614,201733.289,1,16,14,
sequence,flow.Sequence,4_13,2023-11-17T17:33:56.065Z,,,,,,,,,,,2488.0859999880777,completion,,,,,,,high,high,,,,,,true,,,,,false,201705.39999997616,201704.69999998808,199199.836,199199.09999996424,199216.614,201733.289,1,16,,
trial,html.Screen,4_14_0,2023-11-17T17:33:59.793Z,,,,0,-1.1210325063849345,-1.1498648320956202,,,true,hh,3699.8109999642475,response,1.2631894117279046,1.2,-1.2,1.0916958871221865,1.2,-1.2,high,high,,ISIC_0032162.JPG,,ISIC_0065748.JPG,53,true,0.15000000000000002,hh,keypress(i),100,false,205433.59999996424,205433.09999996424,201716.438,201705.59999996424,201733.289,205449.712,1,16,15,
sequence,flow.Sequence,4_14,2023-11-17T17:33:59.794Z,,,,,,,,,,,3699.8109999642475,completion,,,,,,,high,high,,,,,,true,,,,,false,205434.09999996424,205433.09999996424,201716.438,201705.59999996424,201733.289,205449.712,1,16,,
trial,html.Screen,4_15_0,2023-11-17T17:34:02.691Z,,,,0,-1.2024083555600384,-1.149077673153018,,,true,hh,2881.8879999642377,response,1.2282561398079586,1.2,-1.2,1.210457198775374,1.2,-1.2,high,high,,ISIC_3566243.JPG,,ISIC_9141817.JPG,53,true,0.15000000000000002,hh,keypress(i),100,false,208331.80000001192,208331.59999996424,205433.088,205434.30000001192,205449.712,208366.381,1,16,16,
sequence,flow.Sequence,4_15,2023-11-17T17:34:02.692Z,,,,,,,,,,,2881.8879999642377,completion,,,,,,,high,high,,,,,,true,,,,,false,208332.30000001192,208331.59999996424,205433.088,205434.30000001192,205449.712,208366.381,1,16,,
demonstration_loop,flow.Loop,4,2023-11-17T17:34:02.692Z,,,,,,,,,,,83981.68999996423,completion,,,,,,,,,,,,,,true,,,,,false,208332.59999996424,208331.59999996424,124299.967,124309.59999996424,124349.91,208366.381,1,16,,
practice_instructions,html.Screen,5,2023-11-17T17:34:06.317Z,,,,,,,,,,,3590.318999988085,response,,,,,,,,,,,,,,,,continue,click button,,,211957.19999998808,211956.69999998808,208333.113,208332.59999996424,208366.381,211983.01,,,,
trial,html.Screen,6_0_0,2023-11-17T17:34:18.060Z,,,,1,1.0022829373011404,-0.8311726972863814,,,true,lh,11710.389999976149,response,-0.858338058340649,1.2,-1.2,0.9540612223480284,1.2,-1.2,low,high,,ISIC_0033287.JPG,,ISIC_8922893.JPG,26,true,0.3600000000000002,lh,keypress(e),0,false,223700.89999997616,223693.39999997616,211949.953,211957.39999997616,211983.01,223716.311,1,40,1,
sequence,flow.Sequence,6_0,2023-11-17T17:34:18.061Z,,,,,,,,,,,11710.389999976149,completion,,,,,,,low,high,,,,,,true,,,,,false,223701,223693.39999997616,211949.953,211957.39999997616,211983.01,223716.311,1,40,,
trial,html.Screen,6_1_0,2023-11-17T17:34:23.790Z,,,,1,-0.8809306963311293,0.8614910030038974,,,true,hl,5714.088999976171,response,0.8035152873995188,1.2,-1.2,-0.82868450251632,1.2,-1.2,high,low,,ISIC_0013731.JPG,,ISIC_0010671.JPG,27,true,0.42000000000000026,hl,keypress(j),0,false,229430.5,229430.39999997616,223699.653,223701.09999996424,223716.311,229433.014,1,40,2,
sequence,flow.Sequence,6_1,2023-11-17T17:34:23.791Z,,,,,,,,,,,5714.088999976171,completion,,,,,,,high,low,,,,,,true,,,,,false,229431,229430.39999997616,223699.653,223701.09999996424,223716.311,229433.014,1,40,,
trial,html.Screen,6_2_0,2023-11-17T17:34:28.304Z,,,,1,-1.0717785279820962,-1.1267239445830604,,,true,hh,4510.885999976163,response,0.9562051868665176,1.2,-1.2,1.110797661774712,1.2,-1.2,high,high,,ISIC_9948815.JPG,,ISIC_0061199.JPG,245,true,0.3600000000000002,hh,keypress(i),0,false,233944.19999998808,233943.89999997616,229416.346,229431.19999998808,229433.014,233966.261,1,40,3,
sequence,flow.Sequence,6_2,2023-11-17T17:34:28.304Z,,,,,,,,,,,4510.885999976163,completion,,,,,,,high,high,,,,,,true,,,,,false,233944.59999996424,233943.89999997616,229416.346,229431.09999996424,229433.014,233966.261,1,40,,
trial,html.Screen,6_3_0,2023-11-17T17:34:37.762Z,,,,1,0.7809949855371787,-0.8493861117004308,,,true,lh,9432.239000000001,response,-0.991282840649944,1.2,-1.2,0.9397921099839784,1.2,-1.2,low,high,,ISIC_7450481.JPG,,ISIC_0000463.JPG,26,true,0.3600000000000002,lh,keypress(e),0,false,243398.80000001192,243398.5,233933.053,233944.89999997616,233966.261,243416.336,1,40,4,
sequence,flow.Sequence,6_3,2023-11-17T17:34:37.763Z,,,,,,,,,,,9432.239000000001,completion,,,,,,,low,high,,,,,,true,,,,,false,243399.39999997616,243398.5,233933.053,233944.80000001192,233966.261,243416.336,1,40,,
trial,html.Screen,6_4_0,2023-11-17T17:34:41.115Z,,,,1,-1.1598623261077452,-1.203269031614007,,,true,hh,3335.263999964227,response,0.9185517403328254,1.2,-1.2,0.9975299101285906,1.2,-1.2,high,high,,ISIC_0002639.JPG,,ISIC_0011130.JPG,339,true,0.42000000000000026,hh,keypress(i),0,false,246751.80000001192,246751.59999996424,243399.475,243399.69999998808,243416.336,246799.584,1,40,5,
sequence,flow.Sequence,6_4,2023-11-17T17:34:41.115Z,,,,,,,,,,,3335.263999964227,completion,,,,,,,high,high,,,,,,true,,,,,false,246752.30000001192,246751.59999996424,243399.475,243399.59999996424,243416.336,246799.584,1,40,,
trial,html.Screen,6_5_0,2023-11-17T17:34:43.634Z,,,,1,-1.4747161152848791,0.847048591307387,,,true,hl,2471.1159999880765,response,0.9235571765207048,1.2,-1.2,-1.0008081653938232,1.2,-1.2,high,low,,ISIC_0016092.JPG,,ISIC_8796632.JPG,27,true,0.42000000000000026,hl,keypress(j),0,false,249271,249270.69999998808,246749.649,246752.5,246799.584,249283.164,1,40,6,
sequence,flow.Sequence,6_5,2023-11-17T17:34:43.635Z,,,,,,,,,,,2471.1159999880765,completion,,,,,,,high,low,,,,,,true,,,,,false,249271.5,249270.69999998808,246749.649,246752.5,246799.584,249283.164,1,40,,
trial,html.Screen,6_6_0,2023-11-17T17:34:46.699Z,,,,1,1.185875658992962,1.2635548590325487,,,true,ll,3051.9359999642475,response,-1.26095815172139,1.2,-1.2,-1.4175768703171798,1.2,-1.2,low,low,,ISIC_0011703.JPG,,ISIC_7658729.JPG,179,true,0.3600000000000002,ll,keypress(f),0,false,252335.39999997616,252335.09999996424,249266.361,249271.80000001192,249283.164,252349.543,1,40,7,
sequence,flow.Sequence,6_6,2023-11-17T17:34:46.699Z,,,,,,,,,,,3051.9359999642475,completion,,,,,,,low,low,,,,,,true,,,,,false,252335.80000001192,252335.09999996424,249266.361,249271.80000001192,249283.164,252349.543,1,40,,
trial,html.Screen,6_7_0,2023-11-17T17:34:49.393Z,,,,1,-1.2364994561934892,0.9174173651516624,,,true,hl,2679.856999976153,response,0.8092423703106274,1.2,-1.2,-1.1870093485714288,1.2,-1.2,high,low,,ISIC_3481133.JPG,,ISIC_8592235.JPG,27,true,0.42000000000000026,hl,keypress(j),0,false,255029.5,255029.39999997616,252332.913,252335.89999997616,252349.543,255032.884,1,40,8,
sequence,flow.Sequence,6_7,2023-11-17T17:34:49.393Z,,,,,,,,,,,2679.856999976153,completion,,,,,,,high,low,,,,,,true,,,,,false,255029.5,255029.39999997616,252332.913,252335.89999997616,252349.543,255032.884,1,40,,
trial,html.Screen,6_8_0,2023-11-17T17:34:51.643Z,,,,1,0.948927472020595,-1.0660437155921598,,,true,lh,2247.116000000009,response,-1.4747161152848791,1.2,-1.2,0.847048591307387,1.2,-1.2,low,high,,ISIC_5808758.JPG,,ISIC_0016092.JPG,26,true,0.3600000000000002,lh,keypress(e),0,false,257280.19999998808,257280,255016.304,255029.59999996424,255032.884,257282.955,1,40,9,
sequence,flow.Sequence,6_8,2023-11-17T17:34:51.644Z,,,,,,,,,,,2247.116000000009,completion,,,,,,,low,high,,,,,,true,,,,,false,257280.69999998808,257280,255016.304,255029.59999996424,255032.884,257282.955,1,40,,
trial,html.Screen,6_9_0,2023-11-17T17:34:54.049Z,,,,1,-1.0026266089287914,1.0913275913920335,,,true,hl,2402.8450000119337,response,0.7911024675435955,1.2,-1.2,-0.7975977016137676,1.2,-1.2,high,low,,ISIC_0033520.JPG,,ISIC_5813642.JPG,27,true,0.42000000000000026,hl,keypress(j),0,false,259685.89999997616,259685.80000001192,257266.422,257280.89999997616,257282.955,259699.662,1,40,10,
sequence,flow.Sequence,6_9,2023-11-17T17:34:54.049Z,,,,,,,,,,,2402.8450000119337,completion,,,,,,,high,low,,,,,,true,,,,,false,259685.89999997616,259685.80000001192,257266.422,257280.80000001192,257282.955,259699.662,1,40,,
trial,html.Screen,6_10_0,2023-11-17T17:34:57.483Z,,,,1,1.2493792664822851,1.1336008561684745,,,true,ll,3420.037999988068,response,-1.0878102877901663,1.2,-1.2,-0.9483364581769096,1.2,-1.2,low,low,,ISIC_0061475.JPG,,ISIC_1413242.JPG,179,true,0.3600000000000002,ll,keypress(f),0,false,263119.89999997616,263119.6999999881,259682.841,259686,259699.662,263149.525,1,40,11,
sequence,flow.Sequence,6_10,2023-11-17T17:34:57.484Z,,,,,,,,,,,3420.037999988068,completion,,,,,,,low,low,,,,,,true,,,,,false,263120.39999997616,263119.6999999881,259682.841,259686,259699.662,263149.525,1,40,,
trial,html.Screen,6_11_0,2023-11-17T17:34:59.707Z,,,,1,-0.9696118525781644,0.9244148283103414,,,true,hl,2193.7750000118976,response,1.0115965332688306,1.2,-1.2,-0.8282633603842442,1.2,-1.2,high,low,,ISIC_7927525.JPG,,ISIC_1069587.JPG,27,true,0.42000000000000026,hl,keypress(j),0,false,265343.5,265343.3000000119,263116.354,263120.6999999881,263149.525,265366.204,1,40,12,
sequence,flow.Sequence,6_11,2023-11-17T17:34:59.707Z,,,,,,,,,,,2193.7750000118976,completion,,,,,,,high,low,,,,,,true,,,,,false,265343.89999997616,265343.3000000119,263116.354,263120.59999996424,263149.525,265366.204,1,40,,
trial,html.Screen,6_12_0,2023-11-17T17:35:02.890Z,,,,1,0.991146183030456,-0.9949639823722534,,,true,lh,3160.695999976131,response,-1.020990671779317,1.2,-1.2,1.0116513850520903,1.2,-1.2,low,high,,ISIC_6342224.JPG,,ISIC_0011995.JPG,26,true,0.3600000000000002,lh,keypress(e),0,false,268527.1999999881,268526.89999997616,265332.96,265344.09999996424,265366.204,268532.854,1,40,13,
sequence,flow.Sequence,6_12,2023-11-17T17:35:02.891Z,,,,,,,,,,,3160.695999976131,completion,,,,,,,low,high,,,,,,true,,,,,false,268527.59999996424,268526.89999997616,265332.96,265344,265366.204,268532.854,1,40,,
trial,html.Screen,6_13_0,2023-11-17T17:35:05.217Z,,,,1,-1.241406480986552,-1.081912821786771,,,true,hh,2320.946000011929,response,0.9887623775450108,1.2,-1.2,1.3721049283597475,1.2,-1.2,high,high,,ISIC_4223155.JPG,,ISIC_0054021.JPG,339,true,0.42000000000000026,hh,keypress(i),0,false,270853.89999997616,270853.8000000119,268516.255,268527.8000000119,268532.854,270866.459,1,40,14,
sequence,flow.Sequence,6_13,2023-11-17T17:35:05.217Z,,,,,,,,,,,2320.946000011929,completion,,,,,,,high,high,,,,,,true,,,,,false,270854.09999996424,270853.8000000119,268516.255,268527.6999999881,268532.854,270866.459,1,40,,
trial,html.Screen,6_14_0,2023-11-17T17:35:08.578Z,,,,1,1.101214461533281,1.1849883512428183,,,true,ll,3348.3410000119475,response,-1.2503149164557643,1.2,-1.2,-1.0796591227570405,1.2,-1.2,low,low,,ISIC_0064943.JPG,,ISIC_2466892.JPG,26,true,0.15000000000000002,ll,keypress(f),0,false,274215,274214.8000000119,270849.705,270854.09999996424,270866.459,274249.68,1,40,15,
sequence,flow.Sequence,6_14,2023-11-17T17:35:08.579Z,,,,,,,,,,,3348.3410000119475,completion,,,,,,,low,low,,,,,,true,,,,,false,274215.5,274214.8000000119,270849.705,270854.09999996424,270866.459,274249.68,1,40,,
trial,html.Screen,6_15_0,2023-11-17T17:35:10.810Z,,,,1,1.2254187569955004,1.174555235109734,,,true,ll,2196.919999964244,response,-1.201100953917304,1.2,-1.2,-1.1751492358160105,1.2,-1.2,low,low,,ISIC_0027187.JPG,,ISIC_0647224.JPG,26,true,0.15000000000000002,ll,keypress(f),0,false,276446.8000000119,276446.59999996424,274233.09,274215.59999996424,274249.68,276466.159,1,40,16,
sequence,flow.Sequence,6_15,2023-11-17T17:35:10.810Z,,,,,,,,,,,2196.919999964244,completion,,,,,,,low,low,,,,,,true,,,,,false,276447.09999996424,276446.59999996424,274233.09,274215.59999996424,274249.68,276466.159,1,40,,
trial,html.Screen,6_16_0,2023-11-17T17:35:13.411Z,,,,1,-1.1181734135756094,0.944560381774994,,,true,hl,2581.040999988094,response,0.991146183030456,1.2,-1.2,-0.9949639823722534,1.2,-1.2,high,low,,ISIC_9688534.JPG,,ISIC_6342224.JPG,27,true,0.42000000000000026,hl,keypress(j),0,false,279047.39999997616,279047.1999999881,276433.026,276447.3000000119,276466.159,279049.524,1,40,17,
sequence,flow.Sequence,6_16,2023-11-17T17:35:13.411Z,,,,,,,,,,,2581.040999988094,completion,,,,,,,high,low,,,,,,true,,,,,false,279047.8000000119,279047.1999999881,276433.026,276447.1999999881,276466.159,279049.524,1,40,,
trial,html.Screen,6_17_0,2023-11-17T17:35:16.634Z,,,,1,1.185875658992962,1.2635548590325487,,,true,ll,3221.0759999642614,response,-0.9318956732001058,1.2,-1.2,-1.3516734431791186,1.2,-1.2,low,low,,ISIC_0011703.JPG,,ISIC_4580926.JPG,179,true,0.3600000000000002,ll,keypress(f),0,false,282270.8000000119,282270.59999996424,279033.041,279048,279049.524,282299.486,1,40,18,
sequence,flow.Sequence,6_17,2023-11-17T17:35:16.634Z,,,,,,,,,,,3221.0759999642614,completion,,,,,,,low,low,,,,,,true,,,,,false,282271.09999996424,282270.59999996424,279033.041,279048,279049.524,282299.486,1,40,,
trial,html.Screen,6_18_0,2023-11-17T17:35:21.242Z,,,,1,-0.9579209317488,1.0147487101263497,,,true,hl,4578.814000011946,response,0.8092423703106274,1.2,-1.2,-1.1870093485714288,1.2,-1.2,high,low,,ISIC_8124482.JPG,,ISIC_8592235.JPG,27,true,0.42000000000000026,hl,keypress(j),0,false,286878.59999996424,286878.3000000119,282266.149,282271.3000000119,282299.486,286882.877,1,40,19,
sequence,flow.Sequence,6_18,2023-11-17T17:35:21.242Z,,,,,,,,,,,4578.814000011946,completion,,,,,,,high,low,,,,,,true,,,,,false,286879,286878.3000000119,282266.149,282271.3000000119,282299.486,286882.877,1,40,,
trial,html.Screen,6_19_0,2023-11-17T17:35:23.971Z,,,,1,1.2750452296609045,1.1682369131232675,,,true,ll,2724.5229999761796,response,-1.54504336581176,1.2,-1.2,-1.0979463718010185,1.2,-1.2,low,low,,ISIC_0066399.JPG,,ISIC_3909443.JPG,179,true,0.3600000000000002,ll,keypress(f),0,false,289607.6999999881,289607.39999997616,286866.248,286879.09999996424,286882.877,289632.802,1,40,20,
sequence,flow.Sequence,6_19,2023-11-17T17:35:23.971Z,,,,,,,,,,,2724.5229999761796,completion,,,,,,,low,low,,,,,,true,,,,,false,289608,289607.39999997616,286866.248,286879,286882.877,289632.802,1,40,,
trial,html.Screen,6_20_0,2023-11-17T17:35:25.945Z,,,,1,0.7911024675435955,-0.7975977016137676,,,true,lh,1948.397999988054,response,-0.9454713230140772,1.2,-1.2,0.9245167441969216,1.2,-1.2,low,high,,ISIC_5813642.JPG,,ISIC_9101055.JPG,26,true,0.3600000000000002,lh,keypress(e),0,false,291581.3000000119,291581.1999999881,289599.652,289608.1999999881,289632.802,291582.771,1,40,21,
sequence,flow.Sequence,6_20,2023-11-17T17:35:25.945Z,,,,,,,,,,,1948.397999988054,completion,,,,,,,low,high,,,,,,true,,,,,false,291581.5,291581.1999999881,289599.652,289608.1999999881,289632.802,291582.771,1,40,,
trial,html.Screen,6_21_0,2023-11-17T17:35:27.122Z,,,,1,-1.2318069697449794,-1.1703576816778267,,,true,hh,1176.029000011913,response,0.8387460443597405,1.2,-1.2,1.12466521758037,1.2,-1.2,high,high,,ISIC_2732573.JPG,,ISIC_0014189.JPG,339,true,0.42000000000000026,hh,keypress(i),0,false,292759,292758.8000000119,291566.264,291581.5,291582.771,292766.183,1,40,22,
sequence,flow.Sequence,6_21,2023-11-17T17:35:27.123Z,,,,,,,,,,,1176.029000011913,completion,,,,,,,high,high,,,,,,true,,,,,false,292759.3000000119,292758.8000000119,291566.264,291581.5,291582.771,292766.183,1,40,,
trial,html.Screen,6_22_0,2023-11-17T17:35:28.809Z,,,,1,1.126264390089724,1.271896565050952,,,true,ll,1679.316999999981,response,-1.2012395086389958,1.2,-1.2,-1.0618985767073823,1.2,-1.2,low,low,,ISIC_1520897.JPG,,ISIC_9876004.JPG,26,true,0.15000000000000002,ll,keypress(f),0,false,294445.59999996424,294445.5,292749.524,292759.39999997616,292766.183,294466.118,1,40,23,
sequence,flow.Sequence,6_22,2023-11-17T17:35:28.809Z,,,,,,,,,,,1679.316999999981,completion,,,,,,,low,low,,,,,,true,,,,,false,294445.6999999881,294445.5,292749.524,292759.39999997616,292766.183,294466.118,1,40,,
trial,html.Screen,6_23_0,2023-11-17T17:35:31.242Z,,,,1,0.796241477082623,-0.9017449335975743,,,true,lh,2412.5819999880623,response,-0.991282840649944,1.2,-1.2,0.9397921099839784,1.2,-1.2,low,high,,ISIC_8588033.JPG,,ISIC_0000463.JPG,26,true,0.3600000000000002,lh,keypress(e),0,false,296878.89999997616,296878.6999999881,294432.903,294445.8000000119,294466.118,296882.814,1,40,24,
sequence,flow.Sequence,6_23,2023-11-17T17:35:31.243Z,,,,,,,,,,,2412.5819999880623,completion,,,,,,,low,high,,,,,,true,,,,,false,296879.3000000119,296878.6999999881,294432.903,294445.8000000119,294466.118,296882.814,1,40,,
trial,html.Screen,6_24_0,2023-11-17T17:35:32.954Z,,,,1,0.991146183030456,-0.9949639823722534,,,true,lh,1707.486000011908,response,-0.8809306963311293,1.2,-1.2,0.8614910030038974,1.2,-1.2,low,high,,ISIC_6342224.JPG,,ISIC_0013731.JPG,33,true,0.42000000000000026,lh,keypress(e),0,false,298590.59999996424,298590.3000000119,296866.285,296879.5,296882.814,298599.449,1,40,25,
sequence,flow.Sequence,6_24,2023-11-17T17:35:32.954Z,,,,,,,,,,,1707.486000011908,completion,,,,,,,low,high,,,,,,true,,,,,false,298590.89999997616,298590.3000000119,296866.285,296879.39999997616,296882.814,298599.449,1,40,,
trial,html.Screen,6_25_0,2023-11-17T17:35:35.194Z,,,,1,0.7998855902596425,-1.1518579145663017,,,true,lh,2231.450999976136,response,-0.7951166058716005,1.2,-1.2,1.477327500998078,1.2,-1.2,low,high,,ISIC_0025061.JPG,,ISIC_0033925.JPG,33,true,0.42000000000000026,lh,keypress(e),0,false,300831.1999999881,300830.89999997616,298583.023,298591.09999996424,298599.449,300850.623,1,40,26,
sequence,flow.Sequence,6_25,2023-11-17T17:35:35.195Z,,,,,,,,,,,2231.450999976136,completion,,,,,,,low,high,,,,,,true,,,,,false,300831.8000000119,300830.89999997616,298583.023,298591,298599.449,300850.623,1,40,,
trial,html.Screen,6_26_0,2023-11-17T17:35:36.804Z,,,,1,-0.869932994914832,0.8880533324432531,,,true,hl,1587.1770000118995,response,0.8816288864119318,1.2,-1.2,-0.801867301188093,1.2,-1.2,high,low,,ISIC_8617084.JPG,,ISIC_9196783.JPG,27,true,0.42000000000000026,hl,keypress(j),0,false,302437.89999997616,302437.8000000119,300816.27,300831.89999997616,300850.623,302449.603,1,40,27,
sequence,flow.Sequence,6_26,2023-11-17T17:35:36.804Z,,,,,,,,,,,1587.1770000118995,completion,,,,,,,high,low,,,,,,true,,,,,false,302438,302437.8000000119,300816.27,300831.89999997616,300850.623,302449.603,1,40,,
trial,html.Screen,6_27_0,2023-11-17T17:35:38.421Z,,,,1,1.185875658992962,1.2635548590325487,,,true,ll,1605.8969999999972,response,-1.3441501127382078,1.2,-1.2,-1.0049420698843687,1.2,-1.2,low,low,,ISIC_0011703.JPG,,ISIC_8412096.JPG,179,true,0.3600000000000002,ll,keypress(f),0,false,304055.8000000119,304055.5,302432.789,302438,302449.603,304082.769,1,40,28,
sequence,flow.Sequence,6_27,2023-11-17T17:35:38.422Z,,,,,,,,,,,1605.8969999999972,completion,,,,,,,low,low,,,,,,true,,,,,false,304056.1999999881,304055.5,302432.789,302438,302449.603,304082.769,1,40,,
trial,html.Screen,6_28_0,2023-11-17T17:35:40.323Z,,,,1,-1.0026266089287914,1.0913275913920335,,,true,hl,1874.2310000000289,response,0.7911024675435955,1.2,-1.2,-0.7975977016137676,1.2,-1.2,high,low,,ISIC_0033520.JPG,,ISIC_5813642.JPG,27,true,0.42000000000000026,hl,keypress(j),0,false,305957.1999999881,305957,304049.629,304056.3000000119,304082.769,305966.078,1,40,29,
sequence,flow.Sequence,6_28,2023-11-17T17:35:40.323Z,,,,,,,,,,,1874.2310000000289,completion,,,,,,,high,low,,,,,,true,,,,,false,305957.39999997616,305957,304049.629,304056.1999999881,304082.769,305966.078,1,40,,
trial,html.Screen,6_29_0,2023-11-17T17:35:42.340Z,,,,1,-1.0870240111136478,-1.332340670965917,,,true,hh,2008.4220000000205,response,1.2071341803968807,1.2,-1.2,1.235960269089932,1.2,-1.2,high,high,,ISIC_0000660.JPG,,ISIC_0058174.JPG,245,true,0.3600000000000002,hh,keypress(i),0,false,307974.89999997616,307974.5,305949.635,305957.39999997616,305966.078,307982.741,1,40,30,
sequence,flow.Sequence,6_29,2023-11-17T17:35:42.341Z,,,,,,,,,,,2008.4220000000205,completion,,,,,,,high,high,,,,,,true,,,,,false,307975.3000000119,307974.5,305949.635,305957.39999997616,305966.078,307982.741,1,40,,
trial,html.Screen,6_30_0,2023-11-17T17:35:44.733Z,,,,1,-1.201100953917304,-1.1751492358160105,,,true,hh,2384.559000011941,response,1.2618585285282764,1.2,-1.2,1.0804044917288194,1.2,-1.2,high,high,,ISIC_0647224.JPG,,ISIC_0011691.JPG,53,true,0.15000000000000002,hh,keypress(i),0,false,310367.5,310367.3000000119,307966.203,307975.39999997616,307982.741,310383.008,1,40,31,
sequence,flow.Sequence,6_30,2023-11-17T17:35:44.734Z,,,,,,,,,,,2384.559000011941,completion,,,,,,,high,high,,,,,,true,,,,,false,310367.89999997616,310367.3000000119,307966.203,307975.39999997616,307982.741,310383.008,1,40,,
trial,html.Screen,6_31_0,2023-11-17T17:35:46.349Z,,,,1,-1.3189473926989124,-1.0770264364718942,,,true,hh,1599.7920000119484,response,1.29026082950341,1.2,-1.2,1.144672688339213,1.2,-1.2,high,high,,ISIC_6093728.JPG,,ISIC_0054317.JPG,53,true,0.15000000000000002,hh,keypress(i),0,false,311983,311982.8000000119,310366.287,310368.09999996424,310383.008,311999.392,1,40,32,
sequence,flow.Sequence,6_31,2023-11-17T17:35:46.349Z,,,,,,,,,,,1599.7920000119484,completion,,,,,,,high,high,,,,,,true,,,,,false,311983.39999997616,311982.8000000119,310366.287,310368,310383.008,311999.392,1,40,,
trial,html.Screen,6_32_0,2023-11-17T17:35:48.245Z,,,,1,1.4092385398614515,-1.3046237992197836,,,true,lh,1879.3079999880865,response,-1.020990671779317,1.2,-1.2,1.0116513850520903,1.2,-1.2,low,high,,ISIC_7254359.JPG,,ISIC_0011995.JPG,26,true,0.3600000000000002,lh,keypress(e),0,false,313878.89999997616,313878.6999999881,311982.921,311983.59999996424,311999.392,313882.793,1,40,33,
sequence,flow.Sequence,6_32,2023-11-17T17:35:48.245Z,,,,,,,,,,,1879.3079999880865,completion,,,,,,,low,high,,,,,,true,,,,,false,313879.39999997616,313878.6999999881,311982.921,311983.5,311999.392,313882.793,1,40,,
trial,html.Screen,6_33_0,2023-11-17T17:35:49.941Z,,,,1,-1.2503149164557643,-1.0796591227570405,,,true,hh,1692.7069999999949,response,1.0005520482328611,1.2,-1.2,1.0694936015783003,1.2,-1.2,high,high,,ISIC_2466892.JPG,,ISIC_0059891.JPG,339,true,0.42000000000000026,hh,keypress(i),0,false,315575.8000000119,315575.5,313866.039,313879.5,313882.793,315599.395,1,40,34,
sequence,flow.Sequence,6_33,2023-11-17T17:35:49.942Z,,,,,,,,,,,1692.7069999999949,completion,,,,,,,high,high,,,,,,true,,,,,false,315576.1999999881,315575.5,313866.039,313879.5,313882.793,315599.395,1,40,,
trial,html.Screen,6_34_0,2023-11-17T17:35:51.749Z,,,,1,1.0213365328004047,-1.088524359911891,,,true,lh,1783.6049999999814,response,-1.2364994561934892,1.2,-1.2,0.9174173651516624,1.2,-1.2,low,high,,ISIC_5434229.JPG,,ISIC_3481133.JPG,26,true,0.3600000000000002,lh,keypress(e),0,false,317383.3000000119,317383,315566.263,315576.3000000119,315599.395,317399.446,1,40,35,
sequence,flow.Sequence,6_34,2023-11-17T17:35:51.749Z,,,,,,,,,,,1783.6049999999814,completion,,,,,,,low,high,,,,,,true,,,,,false,317383.6999999881,317383,315566.263,315576.1999999881,315599.395,317399.446,1,40,,
trial,html.Screen,6_35_0,2023-11-17T17:35:53.805Z,,,,1,-1.2711018615747949,-1.1042234044781618,,,true,hh,2039.8540000119247,response,1.0931477426281198,1.2,-1.2,1.0028306951898116,1.2,-1.2,high,high,,ISIC_8603734.JPG,,ISIC_0026531.JPG,339,true,0.42000000000000026,hh,keypress(i),0,false,319439.59999996424,319439.3000000119,317382.78,317383.89999997616,317399.446,319449.396,1,40,36,
sequence,flow.Sequence,6_35,2023-11-17T17:35:53.806Z,,,,,,,,,,,2039.8540000119247,completion,,,,,,,high,high,,,,,,true,,,,,false,319439.89999997616,319439.3000000119,317382.78,317383.8000000119,317399.446,319449.396,1,40,,
trial,html.Screen,6_36_0,2023-11-17T17:35:55.405Z,,,,1,1.2169050727663315,1.1067845563421794,,,true,ll,1590.103999999992,response,-1.2503149164557643,1.2,-1.2,-1.0796591227570405,1.2,-1.2,low,low,,ISIC_7016261.JPG,,ISIC_2466892.JPG,26,true,0.15000000000000002,ll,keypress(f),0,false,321039.6999999881,321039.5,319432.92,319440.09999996424,319449.396,321049.386,1,40,37,
sequence,flow.Sequence,6_36,2023-11-17T17:35:55.406Z,,,,,,,,,,,1590.103999999992,completion,,,,,,,low,low,,,,,,true,,,,,false,321040.09999996424,321039.5,319432.92,319440,319449.396,321049.386,1,40,,
trial,html.Screen,6_37_0,2023-11-17T17:35:57.683Z,,,,1,-1.1642596483638106,-1.109799097093339,,,true,hh,2268.1140000000014,response,1.1877026569952844,1.2,-1.2,1.1604367569896263,1.2,-1.2,high,high,,ISIC_0765584.JPG,,ISIC_0064589.JPG,30,true,0.1,hh,keypress(i),0,false,323317.59999996424,323317.5,321032.954,321040.3000000119,321049.386,323332.707,1,40,38,
sequence,flow.Sequence,6_37,2023-11-17T17:35:57.683Z,,,,,,,,,,,2268.1140000000014,completion,,,,,,,high,high,,,,,,true,,,,,false,323317.6999999881,323317.5,321032.954,321040.3000000119,321049.386,323332.707,1,40,,
trial,html.Screen,6_38_0,2023-11-17T17:36:01.269Z,,,,1,-1.0865333402803938,1.0542635307358266,,,true,hl,3570.492999988084,response,0.7911024675435955,1.2,-1.2,-0.7975977016137676,1.2,-1.2,high,low,,ISIC_0034006.JPG,,ISIC_5813642.JPG,27,true,0.42000000000000026,hl,keypress(j),0,false,326903.5,326903.1999999881,323316.21,323317.8000000119,323332.707,326916.251,1,40,39,
sequence,flow.Sequence,6_38,2023-11-17T17:36:01.269Z,,,,,,,,,,,3570.492999988084,completion,,,,,,,high,low,,,,,,true,,,,,false,326903.89999997616,326903.1999999881,323316.21,323317.6999999881,323332.707,326916.251,1,40,,
trial,html.Screen,6_39_0,2023-11-17T17:36:04.860Z,,,,1,1.1877026569952844,1.1604367569896263,,,true,ll,3577.94899998809,response,-0.8552639039862626,1.2,-1.2,-1.0982314620989122,1.2,-1.2,low,low,,ISIC_0064589.JPG,,ISIC_0026278.JPG,179,true,0.3600000000000002,ll,keypress(f),0,false,330494.5,330494.1999999881,326899.45,326904,326916.251,330499.416,1,40,40,
sequence,flow.Sequence,6_39,2023-11-17T17:36:04.860Z,,,,,,,,,,,3577.94899998809,completion,,,,,,,low,low,,,,,,true,,,,,false,330494.8000000119,330494.1999999881,326899.45,326904,326916.251,330499.416,1,40,,
practice_loop,flow.Loop,6,2023-11-17T17:36:04.861Z,,,,,,,,,,,118511.18999998807,completion,,,,,,,,,,,,,,true,,,,,false,330495,330494.1999999881,211949.953,211957.39999997616,211983.01,330499.416,1,40,,
stair_instructions,html.Screen,7,2023-11-17T17:36:43.467Z,,,,,,,,,,,38600.78399998805,response,,,,,,,,,,,,,,,,continue,click button,,,369100.59999996424,369100.1999999881,330482.735,330495.1999999881,330499.416,369115.917,,,,
trial,html.Screen,8_0_0,2023-11-17T17:36:47.567Z,,,,2,-0.0051189696037511,0.0396625911332438,,0.05,false,hh,4084.4829999761423,response,1.2181031651370575,1.2,-1.2,1.2158573487067317,1.2,-1.2,high,high,,ISIC_9742891.JPG,,ISIC_7242312.JPG,30,false,0.1,hl,keypress(j),0,true,373200.59999996424,373200.39999997616,369099.482,369100.8000000119,369115.917,373216.08,1,40,1,
sequence,flow.Sequence,8_0,2023-11-17T17:36:47.567Z,,,,,,,,,,,4084.4829999761423,completion,,,,,,,high,high,,,,,,false,,,,,true,373200.6999999881,373200.39999997616,369099.482,369100.8000000119,369115.917,373216.08,1,40,,
trial,html.Screen,8_1_0,2023-11-17T17:36:55.397Z,,,,2,-0.0097091270150747,0.0417921315885292,,0.05,false,hh,7814.119999988063,response,1.082730232773217,1.15,-1.15,1.2594580992890123,1.2,-1.15,high,high,,ISIC_3967213.JPG,,ISIC_0011933.JPG,29,false,0.1,lh,keypress(e),0,true,381030.3000000119,381030.1999999881,373199.18,373200.8000000119,373216.08,381032.517,1,40,2,
sequence,flow.Sequence,8_1,2023-11-17T17:36:55.397Z,,,,,,,,,,,7814.119999988063,completion,,,,,,,high,high,,,,,,false,,,,,true,381030.39999997616,381030.1999999881,373199.18,373200.8000000119,373216.08,381032.517,1,40,,
trial,html.Screen,8_2_0,2023-11-17T17:37:00.542Z,,,,2,-0.013431314305098,0.0140597582944232,,0.05,true,hh,5142.983000000007,response,1.0651492409820618,1.15,-1.15,1.1862499256725747,1.15,-1.15,high,high,,ISIC_0069617.JPG,,ISIC_0065421.JPG,27,false,0.1,hh,keypress(i),0,true,386175.8000000119,386175.5,381015.633,381030.5,381032.517,386182.556,1,40,3,
sequence,flow.Sequence,8_2,2023-11-17T17:37:00.542Z,,,,,,,,,,,5142.983000000007,completion,,,,,,,high,high,,,,,,false,,,,,true,386176.09999996424,386175.5,381015.633,381030.39999997616,381032.517,386182.556,1,40,,
trial,html.Screen,8_3_0,2023-11-17T17:37:15.597Z,,,,2,-0.0409338693593207,0.0072462710499874,,0.05,false,hh,15047.744000011939,response,1.0931477426281198,1.15,-1.15,1.0028306951898116,1.0756995833273182,-1.15,high,high,,ISIC_3608788.JPG,,ISIC_0026531.JPG,32,false,0.1,lh,keypress(e),0,true,401230.59999996424,401230.3000000119,386165.949,386176.39999997616,386182.556,401249.741,1,40,4,
sequence,flow.Sequence,8_3,2023-11-17T17:37:15.597Z,,,,,,,,,,,15047.744000011939,completion,,,,,,,high,high,,,,,,false,,,,,true,401231,401230.3000000119,386165.949,386176.3000000119,386182.556,401249.741,1,40,,
trial,html.Screen,8_4_0,2023-11-17T17:37:21.917Z,,,,2,-0.0188047466661863,0.0288346930436979,,0.05,false,hl,6301.158999976178,response,0.796241477082623,1.15,-1.15,-0.9017449335975743,1.0756995833273182,-1.15,high,low,,ISIC_0014157.JPG,,ISIC_8588033.JPG,27,false,0.3700000000000002,hh,keypress(i),0,true,407551.1999999881,407550.89999997616,401215.564,401231.1999999881,401249.741,407565.798,1,40,5,
sequence,flow.Sequence,8_4,2023-11-17T17:37:21.918Z,,,,,,,,,,,6301.158999976178,completion,,,,,,,high,low,,,,,,false,,,,,true,407551.59999996424,407550.89999997616,401215.564,401231.09999996424,401249.741,407565.798,1,40,,
trial,html.Screen,8_5_0,2023-11-17T17:37:28.564Z,,,,2,0.0116094682222121,-0.0258434522530318,,0.05,true,ll,6631.901999988069,response,-1.1137763092539212,1.15,-1.15,-1.1599906701455132,1.0756995833273182,-1.15,low,low,,ISIC_9239632.JPG,,ISIC_5413788.JPG,30,false,0.13,ll,keypress(f),0,true,414197.6999999881,414197.6999999881,407549.084,407551.8000000119,407565.798,414199.092,1,40,6,
sequence,flow.Sequence,8_5,2023-11-17T17:37:28.564Z,,,,,,,,,,,6631.901999988069,completion,,,,,,,low,low,,,,,,false,,,,,true,414197.89999997616,414197.6999999881,407549.084,407551.8000000119,407565.798,414199.092,1,40,,
trial,html.Screen,8_6_0,2023-11-17T17:37:39.605Z,,,,2,0.0027483411352856,0.0100996915276271,,0.05,false,ll,11039.507999964233,response,-1.2503149164557643,1.15,-1.15,-1.0796591227570405,1.0756995833273182,-1.15,low,low,,ISIC_7364041.JPG,,ISIC_2466892.JPG,30,false,0.13,lh,keypress(e),0,true,425238.8000000119,425238.59999996424,414182.393,414197.89999997616,414199.092,425249.101,1,40,7,
sequence,flow.Sequence,8_6,2023-11-17T17:37:39.605Z,,,,,,,,,,,11039.507999964233,completion,,,,,,,low,low,,,,,,false,,,,,true,425239.1999999881,425238.59999996424,414182.393,414197.89999997616,414199.092,425249.101,1,40,,
trial,html.Screen,8_7_0,2023-11-17T17:37:52.628Z,,,,2,0.0050679133050021,-0.0009714874637896,,0.05,true,hl,13011.898999999976,response,1.0115965332688306,1.15,-1.1551527933006387,-0.8282633603842442,1.0756995833273182,-1.15,high,low,,ISIC_9848743.JPG,,ISIC_1069587.JPG,27,false,0.3700000000000002,hl,keypress(j),0,true,438261.09999996424,438261,425232.207,425239.3000000119,425249.101,438265.721,1,40,8,
sequence,flow.Sequence,8_7,2023-11-17T17:37:52.628Z,,,,,,,,,,,13011.898999999976,completion,,,,,,,high,low,,,,,,false,,,,,true,438261.1999999881,438261,425232.207,425239.1999999881,425249.101,438265.721,1,40,,
trial,html.Screen,8_8_0,2023-11-17T17:38:01.606Z,,,,2,0.0070725527271049,0.0049995141077508,,0.05,true,lh,8972.77899999998,response,-1.27543269240326,1.0999999999999999,-1.1551527933006387,0.80839597388021,1.0756995833273182,-1.15,low,high,,ISIC_6124481.JPG,,ISIC_3296136.JPG,26,false,0.30000000000000016,lh,keypress(e),0,true,447238.6999999881,447238.5,438248.749,438261.3000000119,438265.721,447249.014,1,40,9,
sequence,flow.Sequence,8_8,2023-11-17T17:38:01.606Z,,,,,,,,,,,8972.77899999998,completion,,,,,,,low,high,,,,,,false,,,,,true,447239.09999996424,447238.5,438248.749,438261.3000000119,438265.721,447249.014,1,40,,
trial,html.Screen,8_9_0,2023-11-17T17:38:10.318Z,,,,2,-0.0051189696037511,0.0396625911332438,,0.05,false,lh,8701.685999988054,response,-1.0751036484083878,1.0999999999999999,-1.1551527933006387,1.143906455483852,1.0256995833273181,-1.15,low,high,,ISIC_9742891.JPG,,ISIC_0064406.JPG,26,false,0.29000000000000015,hh,keypress(i),0,true,455950.89999997616,455950.6999999881,447232.337,447239.39999997616,447249.014,455965.73,1,40,10,
sequence,flow.Sequence,8_9,2023-11-17T17:38:10.318Z,,,,,,,,,,,8701.685999988054,completion,,,,,,,low,high,,,,,,false,,,,,true,455951.3000000119,455950.6999999881,447232.337,447239.3000000119,447249.014,455965.73,1,40,,
trial,html.Screen,8_10_0,2023-11-17T17:38:17.679Z,,,,2,0.0027483411352856,0.0100996915276271,,0.05,true,ll,7345.469999988098,response,-1.0959058628476686,1.0999999999999999,-1.1551527933006387,-1.1684835186766898,1.0256995833273181,-1.15,low,low,,ISIC_7364041.JPG,,ISIC_5920470.JPG,30,false,0.13,ll,keypress(f),0,true,463311.5,463311.1999999881,455948.764,455951.39999997616,455965.73,463315.668,1,40,11,
sequence,flow.Sequence,8_10,2023-11-17T17:38:17.679Z,,,,,,,,,,,7345.469999988098,completion,,,,,,,low,low,,,,,,false,,,,,true,463311.89999997616,463311.1999999881,455948.764,455951.39999997616,455965.73,463315.668,1,40,,
trial,html.Screen,8_11_0,2023-11-17T17:38:30.910Z,,,,2,0.0050679133050021,-0.0009714874637896,,0.05,false,hl,13227.331999999995,response,0.8947611078712571,1.0999999999999999,-1.1551527933006387,-0.8960964505004638,1.0256995833273181,-1.0821946907621791,high,low,,ISIC_9848743.JPG,,ISIC_6441128.JPG,27,false,0.3200000000000002,lh,keypress(e),0,true,476543.1999999881,476543,463298.744,463312.09999996424,463315.668,476548.949,1,40,12,
sequence,flow.Sequence,8_11,2023-11-17T17:38:30.911Z,,,,,,,,,,,13227.331999999995,completion,,,,,,,high,low,,,,,,false,,,,,true,476543.6999999881,476543,463298.744,463312.09999996424,463315.668,476548.949,1,40,,
trial,html.Screen,8_12_0,2023-11-17T17:38:46.902Z,,,,2,0.0057914759495055,0.0074667911845194,,0.05,,,16016.907000000007,timeout,-1.037577073517966,1.15,-1.1551527933006387,-1.027048110709042,1.0256995833273181,-1.1321946907621792,low,low,,ISIC_0058723.JPG,,ISIC_0004932.JPG,31,false,0.12,,,0,true,492533.6999999881,492533.39999997616,476532.09,476543.8000000119,476548.949,492565.856,1,40,13,
sequence,flow.Sequence,8_12,2023-11-17T17:38:46.902Z,,,,,,,,,,,15984.450999976136,completion,,,,,,,low,low,,,,,,false,,,,,true,492534.09999996424,492533.39999997616,476532.09,476543.8000000119,476548.949,492565.856,1,40,,
trial,html.Screen,8_13_0,2023-11-17T17:38:49.709Z,,,,2,-0.0134764727102299,-0.0033499036460912,,0.05,false,hl,2774.944000011892,response,0.7998855902596425,1.15,-1.1551527933006387,-1.1518579145663017,1.0256995833273181,-1.1321946907621792,high,low,,ISIC_0009998.JPG,,ISIC_0025061.JPG,27,false,0.3700000000000002,lh,keypress(e),0,true,495340.89999997616,495340.8000000119,492548.913,492534.3000000119,492565.856,495348.882,1,40,14,
sequence,flow.Sequence,8_13,2023-11-17T17:38:49.709Z,,,,,,,,,,,2774.944000011892,completion,,,,,,,high,low,,,,,,false,,,,,true,495341,495340.8000000119,492548.913,492534.1999999881,492565.856,495348.882,1,40,,
trial,html.Screen,8_14_0,2023-11-17T17:38:53.951Z,,,,2,-0.000047919190197942736,-0.0462652940855003,,0.05,false,lh,4234.017999976175,response,-1.2695509547992938,1.15,-1.1551527933006387,0.9641099676945492,1.0256995833273181,-1.1821946907621792,low,high,,ISIC_0011507.JPG,,ISIC_0025841.JPG,26,false,0.29000000000000015,hl,keypress(j),0,true,499583.1999999881,499582.89999997616,495332.227,495341,495348.882,499598.9,1,40,15,
sequence,flow.Sequence,8_14,2023-11-17T17:38:53.952Z,,,,,,,,,,,4234.017999976175,completion,,,,,,,low,high,,,,,,false,,,,,true,499583.5,499582.89999997616,495332.227,495341,495348.882,499598.9,1,40,,
trial,html.Screen,8_15_0,2023-11-17T17:38:59.935Z,,,,2,0.0116094682222121,-0.0258434522530318,,0.05,false,lh,5967.499999976135,response,-1.0751036484083878,1.15,-1.1551527933006387,1.143906455483852,1.0756995833273182,-1.1821946907621792,low,high,,ISIC_9239632.JPG,,ISIC_0064406.JPG,26,false,0.30000000000000016,ll,keypress(f),0,true,505566.6999999881,505566.39999997616,499582.099,499583.6999999881,499598.9,505582.291,1,40,16,
sequence,flow.Sequence,8_15,2023-11-17T17:38:59.935Z,,,,,,,,,,,5967.499999976135,completion,,,,,,,low,high,,,,,,false,,,,,true,505567,505566.39999997616,499582.099,499583.59999996424,499598.9,505582.291,1,40,,
trial,html.Screen,8_16_0,2023-11-17T17:39:03.390Z,,,,2,0.0217698886732706,-0.0410870915161425,,0.05,true,ll,3439.5090000118944,response,-1.1388430156686884,1.15,-1.1551527933006387,-1.2700552354887775,1.1256995833273182,-1.1821946907621792,low,low,,ISIC_0072173.JPG,,ISIC_9939653.JPG,25,false,0.13,ll,keypress(f),0,true,509021.89999997616,509021.8000000119,505565.463,505567.1999999881,505582.291,509032.181,1,40,17,
sequence,flow.Sequence,8_16,2023-11-17T17:39:03.390Z,,,,,,,,,,,3439.5090000118944,completion,,,,,,,low,low,,,,,,false,,,,,true,509022,509021.8000000119,505565.463,505567.09999996424,505582.291,509032.181,1,40,,
trial,html.Screen,8_17_0,2023-11-17T17:39:08.615Z,,,,2,0.0324770283903853,0.0249968632204382,,0.05,true,hl,5214.119000011939,response,1.276222161935671,1.15,-1.154449125578733,-0.9657780821973284,1.1256995833273182,-1.1821946907621792,high,low,,ISIC_7266462.JPG,,ISIC_6710411.JPG,27,false,0.39000000000000024,hl,keypress(j),0,true,514246.5,514246.3000000119,509015.57,509022.09999996424,509032.181,514248.871,1,40,18,
sequence,flow.Sequence,8_17,2023-11-17T17:39:08.615Z,,,,,,,,,,,5214.119000011939,completion,,,,,,,high,low,,,,,,false,,,,,true,514247,514246.3000000119,509015.57,509022.09999996424,509032.181,514248.871,1,40,,
trial,html.Screen,8_18_0,2023-11-17T17:39:11.407Z,,,,2,0.0057914759495055,0.0074667911845194,,0.05,false,ll,2789.8289999880944,response,-1.2706447584800626,1.15,-1.154449125578733,-1.0903308007916603,1.1256995833273182,-1.1321946907621792,low,low,,ISIC_0058723.JPG,,ISIC_9425937.JPG,31,false,0.12,hl,keypress(j),0,true,517039,517038.6999999881,514232.156,514247.1999999881,514248.871,517048.899,1,40,19,
sequence,flow.Sequence,8_18,2023-11-17T17:39:11.407Z,,,,,,,,,,,2789.8289999880944,completion,,,,,,,low,low,,,,,,false,,,,,true,517039.39999997616,517038.6999999881,514232.156,514247.09999996424,514248.871,517048.899,1,40,,
trial,html.Screen,8_19_0,2023-11-17T17:39:18.127Z,,,,2,0.0324770283903853,0.0249968632204382,,0.05,false,hh,6709.800999988103,response,1.101346104814838,1.15,-1.154449125578733,1.1225813067473052,1.1256995833273182,-1.1321946907621792,high,high,,ISIC_7266462.JPG,,ISIC_8175453.JPG,30,false,0.1,lh,keypress(e),0,true,523758.89999997616,523758.6999999881,517032.133,517039.59999996424,517048.899,523765.461,1,40,20,
sequence,flow.Sequence,8_19,2023-11-17T17:39:18.127Z,,,,,,,,,,,6709.800999988103,completion,,,,,,,high,high,,,,,,false,,,,,true,523759.3000000119,523758.6999999881,517032.133,517039.59999996424,517048.899,523765.461,1,40,,
trial,html.Screen,8_20_0,2023-11-17T17:39:21.415Z,,,,2,-0.0245376145053177,0.0436993426328401,,0.05,true,hh,3281.5389999999898,response,1.2181031651370575,1.15,-1.154449125578733,1.2158573487067317,1.1256995833273182,-1.1321946907621792,high,high,,ISIC_0056444.JPG,,ISIC_7242312.JPG,30,false,0.1,hh,keypress(i),0,true,527047.1999999881,527047,523748.702,523759.39999997616,523765.461,527066.39,1,40,21,
sequence,flow.Sequence,8_20,2023-11-17T17:39:21.416Z,,,,,,,,,,,3281.5389999999898,completion,,,,,,,high,high,,,,,,false,,,,,true,527047.5999999642,527047,523748.702,523759.39999997616,523765.461,527066.39,1,40,,
trial,html.Screen,8_21_0,2023-11-17T17:39:27.223Z,,,,2,0.0217698886732706,-0.0410870915161425,,0.05,true,lh,5788.109999999986,response,-1.011737552725394,1.15,-1.154449125578733,0.8500530224490773,1.1669802569218946,-1.1321946907621792,low,high,,ISIC_0072173.JPG,,ISIC_2998367.JPG,25,false,0.3200000000000002,lh,keypress(e),0,true,532854.8000000119,532854.5,527032.206,527047.8999999762,527066.39,532865.473,1,40,22,
sequence,flow.Sequence,8_21,2023-11-17T17:39:27.223Z,,,,,,,,,,,5788.109999999986,completion,,,,,,,low,high,,,,,,false,,,,,true,532855.1999999881,532854.5,527032.206,527047.6999999881,527066.39,532865.473,1,40,,
trial,html.Screen,8_22_0,2023-11-17T17:39:31.973Z,,,,2,0.0389988030702649,0.0143212271490256,,0.05,false,lh,4739.42699997616,response,-0.991282840649944,1.15,-1.154449125578733,0.9397921099839784,1.1669802569218946,-1.1321946907621792,low,high,,ISIC_0064669.JPG,,ISIC_0000463.JPG,25,false,0.3200000000000002,hh,keypress(i),0,true,537604.8999999762,537604.8999999762,532848.858,532855.3999999762,532865.473,537615.442,1,40,23,
sequence,flow.Sequence,8_22,2023-11-17T17:39:31.973Z,,,,,,,,,,,4739.42699997616,completion,,,,,,,low,high,,,,,,false,,,,,true,537605.0999999642,537604.8999999762,532848.858,532855.3000000119,532865.473,537615.442,1,40,,
trial,html.Screen,8_23_0,2023-11-17T17:39:38.005Z,,,,2,-0.0134764727102299,-0.0033499036460912,,0.05,true,hl,6021.557999999961,response,0.7871162143493278,1.15,-1.154449125578733,-0.8429329800778957,0.8449225662165278,-1.1321946907621792,high,low,,ISIC_0009998.JPG,,ISIC_3439215.JPG,27,false,0.3700000000000002,hl,keypress(j),0,true,543637.0999999642,543637,537598.858,537605.0999999642,537615.442,543648.782,1,40,24,
sequence,flow.Sequence,8_23,2023-11-17T17:39:38.005Z,,,,,,,,,,,6021.557999999961,completion,,,,,,,high,low,,,,,,false,,,,,true,543637.0999999642,543637,537598.858,537605.0999999642,537615.442,543648.782,1,40,,
trial,html.Screen,8_24_0,2023-11-17T17:39:41.191Z,,,,2,-0.0348234368746005,0.0236866303880924,,0.05,true,hl,3173.8179999642307,response,0.8623414234919863,1.0999999999999999,-1.154449125578733,-0.782830143980698,0.8449225662165278,-1.0821946907621791,high,low,,ISIC_0011099.JPG,,ISIC_2727016.JPG,27,false,0.3200000000000002,hl,keypress(j),0,true,546822.8999999762,546822.5999999642,543632.126,543637.1999999881,543648.782,546832.16,1,40,25,
sequence,flow.Sequence,8_24,2023-11-17T17:39:41.191Z,,,,,,,,,,,3173.8179999642307,completion,,,,,,,high,low,,,,,,false,,,,,true,546823.1999999881,546822.5999999642,543632.126,543637.1999999881,543648.782,546832.16,1,40,,
trial,html.Screen,8_25_0,2023-11-17T17:39:45.351Z,,,,2,0.0324770283903853,0.0249968632204382,,0.05,true,ll,4149.839999999967,response,-1.0650525146668357,1.0999999999999999,-1.154449125578733,-0.9852293825146712,0.8449225662165278,-1.0821946907621791,low,low,,ISIC_7266462.JPG,,ISIC_6642608.JPG,28,false,0.1,ll,keypress(f),0,true,550982.1999999881,550982,546815.477,546823.3999999762,546832.16,550998.753,1,40,26,
sequence,flow.Sequence,8_25,2023-11-17T17:39:45.351Z,,,,,,,,,,,4149.839999999967,completion,,,,,,,low,low,,,,,,false,,,,,true,550982.6999999881,550982,546815.477,546823.3999999762,546832.16,550998.753,1,40,,
trial,html.Screen,8_26_0,2023-11-17T17:39:52.903Z,,,,2,0.0116094682222121,-0.0258434522530318,,0.05,false,hl,7535.446999988053,response,0.8200962008791046,1.0999999999999999,-1.154449125578733,-0.7936051642828523,0.8449225662165278,-0.9751409485907534,high,low,,ISIC_9239632.JPG,,ISIC_0027031.JPG,26,false,0.29000000000000015,hh,keypress(i),0,true,558534.3999999762,558534.1999999881,550982.227,550982.8000000119,550998.753,558548.792,1,40,27,
sequence,flow.Sequence,8_26,2023-11-17T17:39:52.904Z,,,,,,,,,,,7535.446999988053,completion,,,,,,,high,low,,,,,,false,,,,,true,558534.6999999881,558534.1999999881,550982.227,550982.8000000119,550998.753,558548.792,1,40,,
trial,html.Screen,8_27_0,2023-11-17T17:39:59.415Z,,,,2,0.0450282431170921,,,0.05,false,hh,6497.008000011905,response,1.085089185942698,1.0499999999999998,-1.154449125578733,0.8165346395107898,0.8449225662165278,-1.0251409485907534,high,high,,ISIC_1805163.JPG,,ISIC_2283628.JPG,35,false,0.1,lh,keypress(e),0,true,565046.0999999642,565045.8000000119,558531.847,558535,558548.792,565048.799,1,40,28,
sequence,flow.Sequence,8_27,2023-11-17T17:39:59.415Z,,,,,,,,,,,6497.008000011905,completion,,,,,,,high,high,,,,,,false,,,,,true,565046.5,565045.8000000119,558531.847,558534.8999999762,558548.792,565048.799,1,40,,
trial,html.Screen,8_28_0,2023-11-17T17:40:05.743Z,,,,2,-0.0112310719058792,0.0469047359904117,,0.05,true,lh,6325.501000011922,response,-0.9702972792581116,1.0999999999999999,-1.154449125578733,0.6881089997215682,0.8449225662165278,-1.0251409485907534,low,high,,ISIC_0068184.JPG,,ISIC_0942056.JPG,27,false,0.20000000000000007,lh,keypress(e),0,true,571374.6999999881,571374.3000000119,565032.122,565046.6999999881,565048.799,571382.033,1,40,29,
sequence,flow.Sequence,8_28,2023-11-17T17:40:05.744Z,,,,,,,,,,,6325.501000011922,completion,,,,,,,low,high,,,,,,false,,,,,true,571375.1999999881,571374.3000000119,565032.122,565046.5999999642,565048.799,571382.033,1,40,,
trial,html.Screen,8_29_0,2023-11-17T17:40:13.295Z,,,,2,-0.0102460616775615,0.0309670599545429,,0.05,false,ll,7543.966999999946,response,-1.0878102877901663,1.0999999999999999,-1.104449125578733,-0.9483364581769096,0.7023218196161789,-1.0251409485907534,low,low,,ISIC_0072041.JPG,,ISIC_1413242.JPG,25,false,0.1,hl,keypress(j),0,true,578926.3000000119,578926,571365.17,571375.3999999762,571382.033,578931.979,1,40,30,
sequence,flow.Sequence,8_29,2023-11-17T17:40:13.295Z,,,,,,,,,,,7543.966999999946,completion,,,,,,,low,low,,,,,,false,,,,,true,578926.5999999642,578926,571365.17,571375.3000000119,571382.033,578931.979,1,40,,
trial,html.Screen,8_30_0,2023-11-17T17:40:17.854Z,,,,2,-0.0348234368746005,0.0236866303880924,,0.05,false,lh,4552.920999976108,response,-1.0396927560986136,1.0999999999999999,-1.154449125578733,0.6700895381759688,0.7023218196161789,-1.0251409485907534,low,high,,ISIC_0011099.JPG,,ISIC_0066149.JPG,28,false,0.19000000000000006,hl,keypress(j),0,true,583485,583484.8999999762,578915.281,578926.8000000119,578931.979,583498.658,1,40,31,
sequence,flow.Sequence,8_30,2023-11-17T17:40:17.854Z,,,,,,,,,,,4552.920999976108,completion,,,,,,,low,high,,,,,,false,,,,,true,583485.0999999642,583484.8999999762,578915.281,578926.8000000119,578931.979,583498.658,1,40,,
trial,html.Screen,8_31_0,2023-11-17T17:40:27.431Z,,,,2,0.0456515796420274,-0.0273567130070961,,0.05,true,lh,9563.142000011867,response,-1.2364994561934892,1.0999999999999999,-1.154449125578733,0.9174173651516624,0.7523218196161789,-1.0251409485907534,low,high,,ISIC_0068610.JPG,,ISIC_3481133.JPG,28,false,0.19000000000000006,lh,keypress(e),0,true,593062,593061.8000000119,583482.038,583485.1999999881,583498.658,593065.354,1,40,32,
sequence,flow.Sequence,8_31,2023-11-17T17:40:27.431Z,,,,,,,,,,,9563.142000011867,completion,,,,,,,low,high,,,,,,false,,,,,true,593062.3999999762,593061.8000000119,583482.038,583485.1999999881,583498.658,593065.354,1,40,,
trial,html.Screen,8_32_0,2023-11-17T17:40:35.919Z,,,,2,-0.0188047466661863,0.0288346930436979,,0.05,false,ll,8484.745999964187,response,-1.057008495826831,1.0999999999999999,-1.154449125578733,-1.1278122585028287,0.7523218196161789,-1.0251409485907534,low,low,,ISIC_0014157.JPG,,ISIC_2819798.JPG,27,false,0.11,hl,keypress(j),0,true,601550.3999999762,601550.0999999642,593048.583,593062.5,593065.354,601565.429,1,40,33,
sequence,flow.Sequence,8_32,2023-11-17T17:40:35.920Z,,,,,,,,,,,8484.745999964187,completion,,,,,,,low,low,,,,,,false,,,,,true,601550.8999999762,601550.0999999642,593048.583,593062.5,593065.354,601565.429,1,40,,
trial,html.Screen,8_33_0,2023-11-17T17:40:39.519Z,,,,2,-0.0097091270150747,0.0417921315885292,,0.05,false,ll,3584.5709999999963,response,-1.079549480496248,1.0999999999999999,-1.154449125578733,-0.9336079040538864,0.7523218196161789,-0.9751409485907534,low,low,,ISIC_3967213.JPG,,ISIC_6913045.JPG,27,false,0.1,hl,keypress(j),0,true,605150.1999999881,605150,601548.551,601551.0999999642,601565.429,605165.245,1,40,34,
sequence,flow.Sequence,8_33,2023-11-17T17:40:39.519Z,,,,,,,,,,,3584.5709999999963,completion,,,,,,,low,low,,,,,,false,,,,,true,605150.5999999642,605150,601548.551,601550.8999999762,601565.429,605165.245,1,40,,
trial,html.Screen,8_34_0,2023-11-17T17:40:45.055Z,,,,2,0.007397293189458,0.0174716772037504,,0.05,false,lh,5519.854999964242,response,-1.27543269240326,1.0999999999999999,-1.154449125578733,0.80839597388021,0.7523218196161789,-0.9751409485907534,low,high,,ISIC_0056226.JPG,,ISIC_3296136.JPG,28,false,0.19000000000000006,hl,keypress(j),0,true,610685.3999999762,610685.0999999642,605148.524,605150.8999999762,605165.245,610698.584,1,40,35,
sequence,flow.Sequence,8_34,2023-11-17T17:40:45.055Z,,,,,,,,,,,5519.854999964242,completion,,,,,,,low,high,,,,,,false,,,,,true,610685.5999999642,610685.0999999642,605148.524,605150.8000000119,605165.245,610698.584,1,40,,
trial,html.Screen,8_35_0,2023-11-17T17:40:51.568Z,,,,2,-0.0188047466661863,0.0288346930436979,,0.05,true,hl,6499.515999964206,response,0.9238778505223862,1.0999999999999999,-1.154449125578733,-0.6879166947304511,0.802321819616179,-0.9751409485907534,high,low,,ISIC_0014157.JPG,,ISIC_0028291.JPG,26,false,0.29000000000000015,hl,keypress(j),0,true,617198.3999999762,617198.0999999642,610681.742,610685.6999999881,610698.584,617215.296,1,40,36,
sequence,flow.Sequence,8_35,2023-11-17T17:40:51.568Z,,,,,,,,,,,6499.515999964206,completion,,,,,,,high,low,,,,,,false,,,,,true,617198.6999999881,617198.0999999642,610681.742,610685.6999999881,610698.584,617215.296,1,40,,
trial,html.Screen,8_36_0,2023-11-17T17:40:58.896Z,,,,2,0.0070725527271049,0.0049995141077508,,0.05,false,hh,7311.204000000027,response,1.1048442481887897,1.0999999999999999,-1.154449125578733,0.7194072444457746,0.802321819616179,-0.9251409485907534,high,high,,ISIC_6124481.JPG,,ISIC_0057539.JPG,40,false,0.1,lh,keypress(e),0,true,624526.8000000119,624526.5,617198.493,617198.8999999762,617215.296,624531.87,1,40,37,
sequence,flow.Sequence,8_36,2023-11-17T17:40:58.897Z,,,,,,,,,,,7311.204000000027,completion,,,,,,,high,high,,,,,,false,,,,,true,624527.0999999642,624526.5,617198.493,617198.8999999762,617215.296,624531.87,1,40,,
trial,html.Screen,8_37_0,2023-11-17T17:41:02.000Z,,,,2,0.0324770283903853,0.0249968632204382,,0.05,false,hl,3098.3299999880837,response,0.9388029871780448,1.15,-1.154449125578733,-0.6990723246540984,0.802321819616179,-0.9251409485907534,high,low,,ISIC_7266462.JPG,,ISIC_0014190.JPG,28,false,0.30000000000000016,lh,keypress(e),0,true,627630.3999999762,627630.1999999881,624515.256,624527.3000000119,624531.87,627649.871,1,40,38,
sequence,flow.Sequence,8_37,2023-11-17T17:41:02.000Z,,,,,,,,,,,3098.3299999880837,completion,,,,,,,high,low,,,,,,false,,,,,true,627630.8000000119,627630.1999999881,624515.256,624527.1999999881,624531.87,627649.871,1,40,,
trial,html.Screen,8_38_0,2023-11-17T17:41:10.383Z,,,,2,0.0070725527271049,0.0049995141077508,,0.05,false,hh,8363.728999964194,response,1.219179103864392,1.15,-1.154449125578733,0.7073399931046606,0.802321819616179,-0.9751409485907534,high,high,,ISIC_6124481.JPG,,ISIC_5634573.JPG,34,false,0.1,hl,keypress(j),0,true,636013.8999999762,636013.5999999642,627615.381,627630.8999999762,627649.871,636032.453,1,40,39,
sequence,flow.Sequence,8_38,2023-11-17T17:41:10.384Z,,,,,,,,,,,8363.728999964194,completion,,,,,,,high,high,,,,,,false,,,,,true,636014.3000000119,636013.5999999642,627615.381,627630.8000000119,627649.871,636032.453,1,40,,
trial,html.Screen,8_39_0,2023-11-17T17:41:15.365Z,,,,2,0.0085520978188085,-0.0464691161264081,,0.05,false,hh,4963.446999976179,response,1.0529768630659295,1.15,-1.154449125578733,0.7530547977543617,0.852321819616179,-0.9751409485907534,high,high,,ISIC_0758797.JPG,,ISIC_0067743.JPG,28,false,0.1,hl,keypress(j),0,true,640996,640995.8999999762,635998.394,636014.5,636032.453,640998.473,1,40,40,
sequence,flow.Sequence,8_39,2023-11-17T17:41:15.366Z,,,,,,,,,,,4963.446999976179,completion,,,,,,,high,high,,,,,,false,,,,,true,640996.1999999881,640995.8999999762,635998.394,636014.3999999762,636032.453,640998.473,1,40,,
stair_loop,flow.Loop,8,2023-11-17T17:41:15.366Z,,,,,,,,,,,271879.98299997614,completion,,,,,,,,,,,,,,false,,,,,true,640996.3000000119,640995.8999999762,369099.482,369100.6999999881,369115.917,640998.473,1,40,,
exp_instructions,html.Screen,9,2023-11-17T17:41:29.943Z,,,,,,,,,,,14574.42699997616,response,,,,,,,,,,,,,,,,continue,keypress(Space),,,655573.5999999642,655572.8999999762,640981.675,640996.3000000119,640998.473,655581.774,,,,
trial,html.Screen,10_0_0,2023-11-17T17:41:36.549Z,,,,1,0.0324770283903853,0.0249968632204382,,0.05,false,lh,6598.026000011945,response,-0.990489579313564,1.1149999999999998,-1.1519491255787329,0.7747897983133127,0.8502367755124123,-1.0272570712421811,low,high,,ISIC_7266462.JPG,9,ISIC_7030404.JPG,26,false,0.20000000000000007,hl,keypress(j),0,false,662179.8000000119,662179.8000000119,655564.568,655573.8999999762,655581.774,662181.772,4,500,1,
break,html.Screen,10_0_1,2023-11-17T17:41:36.550Z,,,,,,,,,,,NaN,,,,,,,,low,high,,,,,,false,,,,,false,662180.1999999881,662180.0999999642,,662179.8999999762,,662181.772,4,500,,
break_continue,html.Screen,10_0_2,2023-11-17T17:41:36.550Z,,,,,,,,,,,NaN,,,,,,,,low,high,,,,,,false,,,,,false,662180.5,662180.3999999762,,662180.1999999881,,662181.772,4,500,,
sequence,flow.Sequence,10_0,2023-11-17T17:41:36.550Z,,,,,,,,,,,6598.625999976182,completion,,,,,,,low,high,,,,,,false,,,,,false,662180.5,662180.3999999762,655564.568,655573.8000000119,655581.774,662181.772,4,500,,
trial,html.Screen,10_1_0,2023-11-17T17:41:42.920Z,,,,1,-0.0113873532168551,-0.0054999201556291,,0.05,false,hh,6368.028000011924,response,1.189469386514313,1.1149999999999998,-1.1519491255787329,0.8968175956070027,0.8502367755124123,-1.0272570712421811,high,high,,ISIC_8812621.JPG,8,ISIC_0010644.JPG,33,false,0.1,hl,keypress(j),0,false,668550.0999999642,668549.8000000119,662165.036,662180.5999999642,662181.772,668565.089,4,500,2,
break,html.Screen,10_1_1,2023-11-17T17:41:42.920Z,,,,,,,,,,,NaN,,,,,,,,high,high,,,,,,false,,,,,false,668551.0999999642,668550.8000000119,,668550.3999999762,,668565.089,4,500,,
break_continue,html.Screen,10_1_2,2023-11-17T17:41:42.921Z,,,,,,,,,,,NaN,,,,,,,,high,high,,,,,,false,,,,,false,668551.6999999881,668551.5,,668551.3000000119,,668565.089,4,500,,
sequence,flow.Sequence,10_1,2023-11-17T17:41:42.921Z,,,,,,,,,,,6369.728000000003,completion,,,,,,,high,high,,,,,,false,,,,,false,668551.8999999762,668551.5,662165.036,662180.5999999642,662181.772,668565.089,4,500,,
trial,html.Screen,10_2_0,2023-11-17T17:41:50.647Z,,,,1,0.0069555338059566,-0.0310100918136373,,0.05,false,lh,7711.510999964201,response,-1.0363634319020814,1.1149999999999998,-1.1519491255787329,0.6512793949410997,0.8502367755124123,-1.0272570712421811,low,high,,ISIC_0011177.JPG,9,ISIC_0064979.JPG,26,false,0.20000000000000007,ll,keypress(f),0,false,676276.6999999881,676276.5999999642,668548.443,668552.0999999642,668565.089,676281.701,4,500,3,
break,html.Screen,10_2_1,2023-11-17T17:41:50.647Z,,,,,,,,,,,NaN,,,,,,,,low,high,,,,,,false,,,,,false,676277,676276.8999999762,,676276.8000000119,,676281.701,4,500,,
break_continue,html.Screen,10_2_2,2023-11-17T17:41:50.647Z,,,,,,,,,,,NaN,,,,,,,,low,high,,,,,,false,,,,,false,676277.1999999881,676277.1999999881,,676277,,676281.701,4,500,,
sequence,flow.Sequence,10_2,2023-11-17T17:41:50.647Z,,,,,,,,,,,7712.110999988043,completion,,,,,,,low,high,,,,,,false,,,,,false,676277.1999999881,676277.1999999881,668548.443,668552.0999999642,668565.089,676281.701,4,500,,
trial,html.Screen,10_3_0,2023-11-17T17:41:56.279Z,,,,1,0.0050679133050021,-0.0009714874637896,,0.05,false,hh,5626.998999988078,response,1.1227373144244253,1.1149999999999998,-1.1519491255787329,0.7778878341942241,0.8502367755124123,-1.0272570712421811,high,high,,ISIC_9848743.JPG,9,ISIC_0059506.JPG,33,false,0.1,lh,keypress(e),0,false,681908.8999999762,681908.6999999881,676265.108,676277.3000000119,676281.701,681915.06,4,500,4,
break,html.Screen,10_3_1,2023-11-17T17:41:56.279Z,,,,,,,,,,,NaN,,,,,,,,high,high,,,,,,false,,,,,false,681909.1999999881,681909.0999999642,,681908.8999999762,,681915.06,4,500,,
break_continue,html.Screen,10_3_2,2023-11-17T17:41:56.279Z,,,,,,,,,,,NaN,,,,,,,,high,high,,,,,,false,,,,,false,681909.3999999762,681909.3000000119,,681909.3000000119,,681915.06,4,500,,
sequence,flow.Sequence,10_3,2023-11-17T17:41:56.279Z,,,,,,,,,,,5627.59900001192,completion,,,,,,,high,high,,,,,,false,,,,,false,681909.3999999762,681909.3000000119,676265.108,676277.3000000119,676281.701,681915.06,4,500,,
trial,html.Screen,10_4_0,2023-11-17T17:42:01.657Z,,,,1,0.0116094682222121,-0.0258434522530318,,0.05,false,lh,5371.339999976102,response,-0.969947771489652,1.1149999999999998,-1.1519491255787329,0.6651811306243314,0.8502367755124123,-1.0272570712421811,low,high,,ISIC_9239632.JPG,9,ISIC_7254389.JPG,26,false,0.20000000000000007,hl,keypress(j),0,false,687286.6999999881,687286.3999999762,681898.483,681909.5,681915.06,687298.403,4,500,5,
break,html.Screen,10_4_1,2023-11-17T17:42:01.658Z,,,,,,,,,,,NaN,,,,,,,,low,high,,,,,,false,,,,,false,687287.5,687287.3000000119,,687287,,687298.403,4,500,,
break_continue,html.Screen,10_4_2,2023-11-17T17:42:01.658Z,,,,,,,,,,,NaN,,,,,,,,low,high,,,,,,false,,,,,false,687288.0999999642,687287.8999999762,,687287.6999999881,,687298.403,4,500,,
sequence,flow.Sequence,10_4,2023-11-17T17:42:01.658Z,,,,,,,,,,,5372.839999976102,completion,,,,,,,low,high,,,,,,false,,,,,false,687288.3000000119,687287.8999999762,681898.483,681909.3999999762,681915.06,687298.403,4,500,,
trial,html.Screen,10_5_0,2023-11-17T17:42:08.273Z,,,,1,0.0324770283903853,0.0249968632204382,,0.05,false,ll,6603.996999976109,response,-1.131522954199764,1.1149999999999998,-1.1519491255787329,-1.1047184491749509,0.8502367755124123,-1.0272570712421811,low,low,,ISIC_7266462.JPG,8,ISIC_1868816.JPG,27,false,0.11,lh,keypress(e),0,false,693902.5999999642,693902.3999999762,687281.667,687288.3999999762,687298.403,693915.032,4,500,6,
break,html.Screen,10_5_1,2023-11-17T17:42:08.274Z,,,,,,,,,,,NaN,,,,,,,,low,low,,,,,,false,,,,,false,693903.5,693903.3000000119,,693902.8999999762,,693915.032,4,500,,
break_continue,html.Screen,10_5_2,2023-11-17T17:42:08.274Z,,,,,,,,,,,NaN,,,,,,,,low,low,,,,,,false,,,,,false,693904.0999999642,693903.8999999762,,693903.6999999881,,693915.032,4,500,,
sequence,flow.Sequence,10_5,2023-11-17T17:42:08.274Z,,,,,,,,,,,6605.496999976109,completion,,,,,,,low,low,,,,,,false,,,,,false,693904.3000000119,693903.8999999762,687281.667,687288.3999999762,687298.403,693915.032,4,500,,
trial,html.Screen,10_6_0,2023-11-17T17:42:11.527Z,,,,1,,-0.0264544974620926,,0.05,false,lh,3241.5679999642307,response,-1.2364994561934892,1.1149999999999998,-1.1519491255787329,0.9174173651516624,0.8502367755124123,-1.0272570712421811,low,high,,ISIC_0056991.JPG,9,ISIC_3481133.JPG,26,false,0.20000000000000007,ll,keypress(f),0,false,697156.8000000119,697156.5999999642,693898.515,693904.5,693915.032,697181.769,4,500,7,
break,html.Screen,10_6_1,2023-11-17T17:42:11.527Z,,,,,,,,,,,NaN,,,,,,,,low,high,,,,,,false,,,,,false,697157.0999999642,697157,,697156.8999999762,,697181.769,4,500,,
break_continue,html.Screen,10_6_2,2023-11-17T17:42:11.527Z,,,,,,,,,,,NaN,,,,,,,,low,high,,,,,,false,,,,,false,697157.3000000119,697157.1999999881,,697157.0999999642,,697181.769,4,500,,
sequence,flow.Sequence,10_6,2023-11-17T17:42:11.527Z,,,,,,,,,,,3242.1679999880726,completion,,,,,,,low,high,,,,,,false,,,,,false,697157.3000000119,697157.1999999881,693898.515,693904.3999999762,693915.032,697181.769,4,500,,
trial,html.Screen,10_7_0,2023-11-17T17:42:23.289Z,,,,1,0.0116094682222121,-0.0258434522530318,,0.05,false,hl,11736.930999988108,response,1.4092385398614515,1.1149999999999998,-1.1519491255787329,-1.3046237992197836,0.8502367755124123,-1.0272570712421811,high,low,,ISIC_9239632.JPG,9,ISIC_7254359.JPG,26,false,0.3200000000000002,hh,keypress(i),0,false,708919,708918.6999999881,697164.987,697157.3000000119,697181.769,708931.712,4,500,8,
break,html.Screen,10_7_1,2023-11-17T17:42:23.290Z,,,,,,,,,,,NaN,,,,,,,,high,low,,,,,,false,,,,,false,708920,708919.6999999881,,708919.3000000119,,708931.712,4,500,,
break_continue,html.Screen,10_7_2,2023-11-17T17:42:23.291Z,,,,,,,,,,,NaN,,,,,,,,high,low,,,,,,false,,,,,false,708920.5999999642,708920.3000000119,,708920.1999999881,,708931.712,4,500,,
sequence,flow.Sequence,10_7,2023-11-17T17:42:23.291Z,,,,,,,,,,,11738.53100001195,completion,,,,,,,high,low,,,,,,false,,,,,false,708920.8000000119,708920.3000000119,697164.987,697157.3000000119,697181.769,708931.712,4,500,,
trial,html.Screen,10_8_0,2023-11-17T17:42:26.671Z,,,,1,-0.0348234368746005,0.0236866303880924,,0.05,false,ll,3368.7879999999423,response,-1.0565911491759823,1.1149999999999998,-1.1519491255787329,-1.0221582682700174,0.8502367755124123,-1.0272570712421811,low,low,,ISIC_0011099.JPG,8,ISIC_6604862.JPG,27,false,0.11,hl,keypress(j),0,false,712300.5999999642,712300.5,708915.177,708920.8999999762,708931.712,712315.251,4,500,9,
break,html.Screen,10_8_1,2023-11-17T17:42:26.671Z,,,,,,,,,,,NaN,,,,,,,,low,low,,,,,,false,,,,,false,712300.8999999762,712300.8999999762,,712300.6999999881,,712315.251,4,500,,
break_continue,html.Screen,10_8_2,2023-11-17T17:42:26.671Z,,,,,,,,,,,NaN,,,,,,,,low,low,,,,,,false,,,,,false,712301.1999999881,712301.0999999642,,712301,,712315.251,4,500,,
sequence,flow.Sequence,10_8,2023-11-17T17:42:26.671Z,,,,,,,,,,,3369.3879999641795,completion,,,,,,,low,low,,,,,,false,,,,,false,712301.1999999881,712301.0999999642,708915.177,708920.8999999762,708931.712,712315.251,4,500,,
trial,html.Screen,10_9_0,2023-11-17T17:42:34.625Z,,,,1,-0.0097091270150747,0.0417921315885292,,0.05,false,ll,7939.34899996419,response,-1.0878102877901663,1.1149999999999998,-1.1519491255787329,-0.9483364581769096,0.8502367755124123,-1.0272570712421811,low,low,,ISIC_3967213.JPG,10,ISIC_1413242.JPG,27,false,0.11,hl,keypress(j),0,false,720254.8999999762,720254.5999999642,712298.457,712301.1999999881,712315.251,720264.956,4,500,10,
break,html.Screen,10_9_1,2023-11-17T17:42:34.626Z,,,,,,,,,,,NaN,,,,,,,,low,low,,,,,,false,,,,,false,720255.8000000119,720255.5,,720255.0999999642,,720264.956,4,500,,
break_continue,html.Screen,10_9_2,2023-11-17T17:42:34.626Z,,,,,,,,,,,NaN,,,,,,,,low,low,,,,,,false,,,,,false,720256.3000000119,720256.0999999642,,720256,,720264.956,4,500,,
sequence,flow.Sequence,10_9,2023-11-17T17:42:34.627Z,,,,,,,,,,,7940.84899996419,completion,,,,,,,low,low,,,,,,false,,,,,false,720256.5999999642,720256.0999999642,712298.457,712301.1999999881,712315.251,720264.956,4,500,,
trial,html.Screen,10_10_0,2023-11-17T17:42:41.935Z,,,,1,-0.013431314305098,0.0140597582944232,,0.05,false,lh,7299.643999964232,response,-1.2931758493905836,1.1149999999999998,-1.1519491255787329,0.6816153808056667,0.8502367755124123,-1.0272570712421811,low,high,,ISIC_0069617.JPG,8,ISIC_3448630.JPG,26,false,0.20000000000000007,ll,keypress(f),0,false,727564.5999999642,727564.5999999642,720248.405,720256.8000000119,720264.956,727581.939,4,500,11,
break,html.Screen,10_10_1,2023-11-17T17:42:41.935Z,,,,,,,,,,,NaN,,,,,,,,low,high,,,,,,false,,,,,false,727564.8999999762,727564.8999999762,,727564.8000000119,,727581.939,4,500,,
break_continue,html.Screen,10_10_2,2023-11-17T17:42:41.935Z,,,,,,,,,,,NaN,,,,,,,,low,high,,,,,,false,,,,,false,727565.0999999642,727565.0999999642,,727564.8999999762,,727581.939,4,500,,
sequence,flow.Sequence,10_10,2023-11-17T17:42:41.935Z,,,,,,,,,,,7300.143999964232,completion,,,,,,,low,high,,,,,,false,,,,,false,727565.0999999642,727565.0999999642,720248.405,720256.6999999881,720264.956,727581.939,4,500,,
trial,html.Screen,10_11_0,2023-11-17T17:42:46.232Z,,,,1,-0.0277178575053843,0.0395587463147856,,0.05,false,ll,4279.660999964224,response,-1.2012395086389958,1.1149999999999998,-1.1519491255787329,-1.0618985767073823,0.8502367755124123,-1.0272570712421811,low,low,,ISIC_0010807.JPG,9,ISIC_9876004.JPG,27,false,0.11,lh,keypress(e),0,false,731861.8999999762,731861.5999999642,727548.325,727565.0999999642,727581.939,731864.996,4,500,12,
break,html.Screen,10_11_1,2023-11-17T17:42:46.233Z,,,,,,,,,,,NaN,,,,,,,,low,low,,,,,,false,,,,,false,731862.8000000119,731862.5999999642,,731862.1999999881,,731864.996,4,500,,
break_continue,html.Screen,10_11_2,2023-11-17T17:42:46.234Z,,,,,,,,,,,NaN,,,,,,,,low,low,,,,,,false,,,,,false,731863.3999999762,731863.1999999881,,731863,,731864.996,4,500,,
sequence,flow.Sequence,10_11,2023-11-17T17:42:46.234Z,,,,,,,,,,,4281.260999988066,completion,,,,,,,low,low,,,,,,false,,,,,false,731863.5999999642,731863.1999999881,727548.325,727565.0999999642,727581.939,731864.996,4,500,,
trial,html.Screen,10_12_0,2023-11-17T17:42:53.769Z,,,,1,0.0389988030702649,0.0143212271490256,,0.05,false,hh,7533.103999964194,response,1.018568530854085,1.1149999999999998,-1.1519491255787329,0.830218316692649,0.8502367755124123,-1.0272570712421811,high,high,,ISIC_0064669.JPG,9,ISIC_0057180.JPG,33,false,0.1,lh,keypress(e),0,false,739398.3999999762,739398.0999999642,731848.199,731863.8999999762,731864.996,739414.968,4,500,13,
break,html.Screen,10_12_1,2023-11-17T17:42:53.770Z,,,,,,,,,,,NaN,,,,,,,,high,high,,,,,,false,,,,,false,739399.3999999762,739399.1999999881,,739398.8000000119,,739414.968,4,500,,
break_continue,html.Screen,10_12_2,2023-11-17T17:42:53.771Z,,,,,,,,,,,NaN,,,,,,,,high,high,,,,,,false,,,,,false,739400.0999999642,739399.8999999762,,739399.6999999881,,739414.968,4,500,,
sequence,flow.Sequence,10_12,2023-11-17T17:42:53.771Z,,,,,,,,,,,7534.903999976115,completion,,,,,,,high,high,,,,,,false,,,,,false,739400.3999999762,739399.8999999762,731848.199,731863.8000000119,731864.996,739414.968,4,500,,
trial,html.Screen,10_13_0,2023-11-17T17:42:59.824Z,,,,1,-0.0051189696037511,0.0396625911332438,,0.05,false,ll,6038.5320000000065,response,-1.135787555082309,1.1149999999999998,-1.1519491255787329,-1.0095789588135065,0.8502367755124123,-1.0272570712421811,low,low,,ISIC_9742891.JPG,9,ISIC_0032526.JPG,27,false,0.11,hh,keypress(i),0,false,745453.8000000119,745453.5,739398.285,739400.5,739414.968,745464.888,4,500,14,
break,html.Screen,10_13_1,2023-11-17T17:42:59.825Z,,,,,,,,,,,NaN,,,,,,,,low,low,,,,,,false,,,,,false,745454.8000000119,745454.5,,745454.1999999881,,745464.888,4,500,,
break_continue,html.Screen,10_13_2,2023-11-17T17:42:59.826Z,,,,,,,,,,,NaN,,,,,,,,low,low,,,,,,false,,,,,false,745455.3999999762,745455.1999999881,,745455,,745464.888,4,500,,
sequence,flow.Sequence,10_13,2023-11-17T17:42:59.826Z,,,,,,,,,,,6040.231999988086,completion,,,,,,,low,low,,,,,,false,,,,,false,745455.6999999881,745455.1999999881,739398.285,739400.5,739414.968,745464.888,4,500,,
trial,html.Screen,10_14_0,2023-11-17T17:43:07.920Z,,,,1,-0.0097091270150747,0.0417921315885292,,0.05,false,lh,8084.511999976123,response,-1.11969546505004,1.1149999999999998,-1.1519491255787329,0.7169584869657797,0.8502367755124123,-1.0272570712421811,low,high,,ISIC_3967213.JPG,9,ISIC_0033967.JPG,26,false,0.20000000000000007,hl,keypress(j),0,false,753549.5999999642,753549.3999999762,745448.332,745455.8999999762,745464.888,753564.834,4,500,15,
break,html.Screen,10_14_1,2023-11-17T17:43:07.921Z,,,,,,,,,,,NaN,,,,,,,,low,high,,,,,,false,,,,,false,753550.3999999762,753550.1999999881,,753549.8000000119,,753564.834,4,500,,
break_continue,html.Screen,10_14_2,2023-11-17T17:43:07.922Z,,,,,,,,,,,NaN,,,,,,,,low,high,,,,,,false,,,,,false,753550.8999999762,753550.8000000119,,753550.5999999642,,753564.834,4,500,,
sequence,flow.Sequence,10_14,2023-11-17T17:43:07.922Z,,,,,,,,,,,8085.9120000118855,completion,,,,,,,low,high,,,,,,false,,,,,false,753551.0999999642,753550.8000000119,745448.332,745455.8000000119,745464.888,753564.834,4,500,,
trial,html.Screen,10_15_0,2023-11-17T17:43:11.663Z,,,,1,-0.0159061451859594,-0.0296598845560212,,0.05,false,lh,3727.7659999642055,response,-1.2331439637486756,1.1149999999999998,-1.1519491255787329,0.9691143900156988,0.8502367755124123,-1.0272570712421811,low,high,,ISIC_0072564.JPG,8,ISIC_7877488.JPG,26,false,0.20000000000000007,ll,keypress(f),0,false,757292.6999999881,757292.5999999642,753548.263,753551.3999999762,753564.834,757298.198,4,500,16,
break,html.Screen,10_15_1,2023-11-17T17:43:11.664Z,,,,,,,,,,,NaN,,,,,,,,low,high,,,,,,false,,,,,false,757293,757292.8999999762,,757292.8000000119,,757298.198,4,500,,
break_continue,html.Screen,10_15_2,2023-11-17T17:43:11.664Z,,,,,,,,,,,NaN,,,,,,,,low,high,,,,,,false,,,,,false,757293.1999999881,757293.0999999642,,757293,,757298.198,4,500,,
sequence,flow.Sequence,10_15,2023-11-17T17:43:11.664Z,,,,,,,,,,,3728.2659999642055,completion,,,,,,,low,high,,,,,,false,,,,,false,757293.3000000119,757293.0999999642,753548.263,753551.3000000119,753564.834,757298.198,4,500,,
trial,html.Screen,10_16_0,2023-11-17T17:43:16.535Z,,,,1,0.0456515796420274,-0.0273567130070961,,0.05,false,lh,4865.901999964262,response,-0.991282840649944,1.1149999999999998,-1.1519491255787329,0.9397921099839784,0.8502367755124123,-1.0272570712421811,low,high,,ISIC_0068610.JPG,9,ISIC_0000463.JPG,26,false,0.20000000000000007,hl,keypress(j),0,false,762164.1999999881,762164.0999999642,757281.708,757293.3000000119,757298.198,762181.899,4,500,17,
break,html.Screen,10_16_1,2023-11-17T17:43:16.535Z,,,,,,,,,,,NaN,,,,,,,,low,high,,,,,,false,,,,,false,762164.5,762164.3999999762,,762164.3000000119,,762181.899,4,500,,
break_continue,html.Screen,10_16_2,2023-11-17T17:43:16.535Z,,,,,,,,,,,NaN,,,,,,,,low,high,,,,,,false,,,,,false,762164.5999999642,762164.5,,762164.5,,762181.899,4,500,,
sequence,flow.Sequence,10_16,2023-11-17T17:43:16.535Z,,,,,,,,,,,4866.302000000025,completion,,,,,,,low,high,,,,,,false,,,,,false,762164.6999999881,762164.5,757281.708,757293.3000000119,757298.198,762181.899,4,500,,
trial,html.Screen,10_17_0,2023-11-17T17:43:22.209Z,,,,1,0.039728379742806,-0.0228701131373768,,0.05,false,hl,5655.901000011945,response,0.8623414234919863,1.1149999999999998,-1.1519491255787329,-0.782830143980698,0.8502367755124123,-1.0272570712421811,high,low,,ISIC_0054073.JPG,10,ISIC_2727016.JPG,26,false,0.3200000000000002,hh,keypress(i),0,false,767838,767837.8000000119,762148.265,762164.6999999881,762181.899,767848.145,4,500,18,
break,html.Screen,10_17_1,2023-11-17T17:43:22.210Z,,,,,,,,,,,NaN,,,,,,,,high,low,,,,,,false,,,,,false,767839,767838.8000000119,,767838.3999999762,,767848.145,4,500,,
break_continue,html.Screen,10_17_2,2023-11-17T17:43:22.210Z,,,,,,,,,,,NaN,,,,,,,,high,low,,,,,,false,,,,,false,767839.5,767839.3000000119,,767839.1999999881,,767848.145,4,500,,
sequence,flow.Sequence,10_17,2023-11-17T17:43:22.210Z,,,,,,,,,,,5657.401000011945,completion,,,,,,,high,low,,,,,,false,,,,,false,767839.8000000119,767839.3000000119,762148.265,762164.6999999881,762181.899,767848.145,4,500,,
trial,html.Screen,10_18_0,2023-11-17T17:43:37.145Z,,,,1,,-0.0264544974620926,,0.05,false,hh,14925.55499998806,response,1.0522062210008176,1.1149999999999998,-1.1519491255787329,0.7537341061655476,0.8502367755124123,-1.0272570712421811,high,high,,ISIC_0056991.JPG,8,ISIC_0013588.JPG,33,false,0.1,lh,keypress(e),0,false,782774,782773.6999999881,767831.442,767839.8999999762,767848.145,782781.448,4,500,19,
break,html.Screen,10_18_1,2023-11-17T17:43:37.145Z,,,,,,,,,,,NaN,,,,,,,,high,high,,,,,,false,,,,,false,782774.8999999762,782774.5999999642,,782774.3000000119,,782781.448,4,500,,
break_continue,html.Screen,10_18_2,2023-11-17T17:43:37.146Z,,,,,,,,,,,NaN,,,,,,,,high,high,,,,,,false,,,,,false,782775.3999999762,782775.1999999881,,782775,,782781.448,4,500,,
sequence,flow.Sequence,10_18,2023-11-17T17:43:37.146Z,,,,,,,,,,,14927.05499998806,completion,,,,,,,high,high,,,,,,false,,,,,false,782775.6999999881,782775.1999999881,767831.442,767839.8999999762,767848.145,782781.448,4,500,,
trial,html.Screen,10_19_0,2023-11-17T17:43:40.192Z,,,,1,0.0389988030702649,0.0143212271490256,,0.05,true,lh,3040.1519999642624,response,-1.020990671779317,1.1149999999999998,-1.1519491255787329,1.0116513850520903,0.8502367755124123,-1.0272570712421811,low,high,,ISIC_0064669.JPG,9,ISIC_0011995.JPG,26,false,0.20000000000000007,lh,keypress(e),0,false,785821.8000000119,785821.5999999642,782764.85,782775.8999999762,782781.448,785831.439,4,500,20,
break,html.Screen,10_19_1,2023-11-17T17:43:40.193Z,,,,,,,,,,,NaN,,,,,,,,low,high,,,,,,false,,,,,false,785822.8000000119,785822.5999999642,,785822.0999999642,,785831.439,4,500,,
break_continue,html.Screen,10_19_2,2023-11-17T17:43:40.194Z,,,,,,,,,,,NaN,,,,,,,,low,high,,,,,,false,,,,,false,785823.3000000119,785823.0999999642,,785822.8999999762,,785831.439,4,500,,
sequence,flow.Sequence,10_19,2023-11-17T17:43:40.194Z,,,,,,,,,,,3041.6519999642624,completion,,,,,,,low,high,,,,,,false,,,,,false,785823.5999999642,785823.0999999642,782764.85,782775.8000000119,782781.448,785831.439,4,500,,
trial,html.Screen,10_20_0,2023-11-17T17:43:42.840Z,,,,1,0.0389988030702649,0.0143212271490256,,0.05,true,ll,2638.060999999987,response,-1.135787555082309,1.1149999999999998,-1.1519491255787329,-1.0095789588135065,0.8502367755124123,-1.0272570712421811,low,low,,ISIC_0064669.JPG,9,ISIC_0032526.JPG,27,false,0.11,ll,keypress(f),0,false,788469.8000000119,788469.5,785814.934,785823.6999999881,785831.439,788481.432,4,500,21,
break,html.Screen,10_20_1,2023-11-17T17:43:42.841Z,,,,,,,,,,,NaN,,,,,,,,low,low,,,,,,false,,,,,false,788470.6999999881,788470.3999999762,,788470,,788481.432,4,500,,
break_continue,html.Screen,10_20_2,2023-11-17T17:43:42.842Z,,,,,,,,,,,NaN,,,,,,,,low,low,,,,,,false,,,,,false,788471.3000000119,788471,,788470.8000000119,,788481.432,4,500,,
sequence,flow.Sequence,10_20,2023-11-17T17:43:42.842Z,,,,,,,,,,,2639.560999999987,completion,,,,,,,low,low,,,,,,false,,,,,false,788471.3999999762,788471,785814.934,785823.5999999642,785831.439,788481.432,4,500,,
trial,html.Screen,10_21_0,2023-11-17T17:43:47.457Z,,,,1,-0.0097091270150747,0.0417921315885292,,0.05,false,hl,4604.06799999997,response,0.8035152873995188,1.1149999999999998,-1.1519491255787329,-0.82868450251632,0.8502367755124123,-1.0272570712421811,high,low,,ISIC_3967213.JPG,9,ISIC_0010671.JPG,26,false,0.3200000000000002,hh,keypress(i),0,false,793085.8000000119,793085.5,788464.98,788471.5999999642,788481.432,793098.083,4,500,22,
break,html.Screen,10_21_1,2023-11-17T17:43:47.458Z,,,,,,,,,,,NaN,,,,,,,,high,low,,,,,,false,,,,,false,793086.6999999881,793086.5,,793086.0999999642,,793098.083,4,500,,
break_continue,html.Screen,10_21_2,2023-11-17T17:43:47.458Z,,,,,,,,,,,NaN,,,,,,,,high,low,,,,,,false,,,,,false,793087.3000000119,793087.0999999642,,793086.8000000119,,793098.083,4,500,,
sequence,flow.Sequence,10_21,2023-11-17T17:43:47.459Z,,,,,,,,,,,4605.667999964207,completion,,,,,,,high,low,,,,,,false,,,,,false,793087.5,793087.0999999642,788464.98,788471.5999999642,788481.432,793098.083,4,500,,
trial,html.Screen,10_22_0,2023-11-17T17:43:51.265Z,,,,1,0.0116094682222121,-0.0258434522530318,,0.05,false,hl,3796.116999988095,response,1.0645919307156395,1.1149999999999998,-1.1519491255787329,-0.7087706688259032,0.8502367755124123,-1.0272570712421811,high,low,,ISIC_9239632.JPG,9,ISIC_0031575.JPG,26,false,0.3200000000000002,lh,keypress(e),0,false,796894.3999999762,796894.1999999881,793081.671,793087.6999999881,793098.083,796898.142,4,500,23,
break,html.Screen,10_22_1,2023-11-17T17:43:51.266Z,,,,,,,,,,,NaN,,,,,,,,high,low,,,,,,false,,,,,false,796895.3000000119,796895.0999999642,,796894.6999999881,,796898.142,4,500,,
break_continue,html.Screen,10_22_2,2023-11-17T17:43:51.267Z,,,,,,,,,,,NaN,,,,,,,,high,low,,,,,,false,,,,,false,796895.8999999762,796895.8000000119,,796895.5,,796898.142,4,500,,
sequence,flow.Sequence,10_22,2023-11-17T17:43:51.267Z,,,,,,,,,,,3797.7170000119368,completion,,,,,,,high,low,,,,,,false,,,,,false,796896.0999999642,796895.8000000119,793081.671,793087.5999999642,793098.083,796898.142,4,500,,
trial,html.Screen,10_23_0,2023-11-17T17:43:54.312Z,,,,1,-0.0102460616775615,0.0309670599545429,,0.05,true,lh,3042.8580000000075,response,-1.034740231914001,1.1149999999999998,-1.1519491255787329,0.6844507507038213,0.8502367755124123,-1.0272570712421811,low,high,,ISIC_0072041.JPG,8,ISIC_8569205.JPG,26,false,0.20000000000000007,lh,keypress(e),0,false,799941.1999999881,799941,796881.654,796896.3000000119,796898.142,799948.039,4,500,24,
break,html.Screen,10_23_1,2023-11-17T17:43:54.313Z,,,,,,,,,,,NaN,,,,,,,,low,high,,,,,,false,,,,,false,799942.0999999642,799941.8999999762,,799941.5999999642,,799948.039,4,500,,
break_continue,html.Screen,10_23_2,2023-11-17T17:43:54.314Z,,,,,,,,,,,NaN,,,,,,,,low,high,,,,,,false,,,,,false,799942.5999999642,799942.5,,799942.3000000119,,799948.039,4,500,,
sequence,flow.Sequence,10_23,2023-11-17T17:43:54.314Z,,,,,,,,,,,3044.3580000000075,completion,,,,,,,low,high,,,,,,false,,,,,false,799942.8000000119,799942.5,796881.654,796896.3000000119,796898.142,799948.039,4,500,,
trial,html.Screen,10_24_0,2023-11-17T17:44:01.538Z,,,,1,0.0329095507339554,-0.0382899749693245,,0.05,false,hl,7218.360999976168,response,1.4092385398614515,1.1149999999999998,-1.1519491255787329,-1.3046237992197836,0.8502367755124123,-1.0272570712421811,high,low,,ISIC_8812781.JPG,8,ISIC_7254359.JPG,26,false,0.3200000000000002,ll,keypress(f),0,false,807166.6999999881,807166.3999999762,799931.572,799943,799948.039,807181.386,4,500,25,
break,html.Screen,10_24_1,2023-11-17T17:44:01.539Z,,,,,,,,,,,NaN,,,,,,,,high,low,,,,,,false,,,,,false,807167.5999999642,807167.3999999762,,807167,,807181.386,4,500,,
break_continue,html.Screen,10_24_2,2023-11-17T17:44:01.539Z,,,,,,,,,,,NaN,,,,,,,,high,low,,,,,,false,,,,,false,807168.1999999881,807168,,807167.8000000119,,807181.386,4,500,,
sequence,flow.Sequence,10_24,2023-11-17T17:44:01.540Z,,,,,,,,,,,7219.96100000001,completion,,,,,,,high,low,,,,,,false,,,,,false,807168.5,807168,799931.572,799943,799948.039,807181.386,4,500,,
trial,html.Screen,10_25_0,2023-11-17T17:44:09.369Z,,,,1,0.039728379742806,-0.0228701131373768,,0.05,false,ll,7816.113999999943,response,-1.1920465299859582,1.1149999999999998,-1.1519491255787329,-0.9548921292696696,0.8502367755124123,-1.0272570712421811,low,low,,ISIC_0054073.JPG,8,ISIC_5566396.JPG,27,false,0.11,hl,keypress(j),0,false,814997.8000000119,814997.5,807164.94,807168.5999999642,807181.386,815014.841,4,500,26,
break,html.Screen,10_25_1,2023-11-17T17:44:09.370Z,,,,,,,,,,,NaN,,,,,,,,low,low,,,,,,false,,,,,false,814998.6999999881,814998.5,,814998.0999999642,,815014.841,4,500,,
break_continue,html.Screen,10_25_2,2023-11-17T17:44:09.370Z,,,,,,,,,,,NaN,,,,,,,,low,low,,,,,,false,,,,,false,814999.3000000119,814999.0999999642,,814998.8999999762,,815014.841,4,500,,
sequence,flow.Sequence,10_25,2023-11-17T17:44:09.371Z,,,,,,,,,,,7817.71399996418,completion,,,,,,,low,low,,,,,,false,,,,,false,814999.5,814999.0999999642,807164.94,807168.5,807181.386,815014.841,4,500,,
trial,html.Screen,10_26_0,2023-11-17T17:44:15.689Z,,,,1,-0.0362376068089956,-0.047825070846155,,0.05,false,ll,6302.858999988064,response,-1.09666761087476,1.1149999999999998,-1.1519491255787329,-1.1072126870290426,0.8502367755124123,-1.0272570712421811,low,low,,ISIC_6985114.JPG,9,ISIC_0071754.JPG,27,false,0.11,lh,keypress(e),0,false,821318.0999999642,821317.6999999881,814997.886,814999.6999999881,815014.841,821331.341,4,500,27,
break,html.Screen,10_26_1,2023-11-17T17:44:15.690Z,,,,,,,,,,,NaN,,,,,,,,low,low,,,,,,false,,,,,false,821319,821318.8000000119,,821318.3999999762,,821331.341,4,500,,
break_continue,html.Screen,10_26_2,2023-11-17T17:44:15.691Z,,,,,,,,,,,NaN,,,,,,,,low,low,,,,,,false,,,,,false,821319.5999999642,821319.3999999762,,821319.3000000119,,821331.341,4,500,,
sequence,flow.Sequence,10_26,2023-11-17T17:44:15.691Z,,,,,,,,,,,6304.558999976143,completion,,,,,,,low,low,,,,,,false,,,,,false,821319.8999999762,821319.3999999762,814997.886,814999.6999999881,815014.841,821331.341,4,500,,
trial,html.Screen,10_27_0,2023-11-17T17:44:19.920Z,,,,1,-0.0245376145053177,0.0436993426328401,,0.05,false,hl,4217.258999964222,response,1.0645919307156395,1.1149999999999998,-1.1519491255787329,-0.7087706688259032,0.8502367755124123,-1.0272570712421811,high,low,,ISIC_0056444.JPG,10,ISIC_0031575.JPG,26,false,0.3200000000000002,lh,keypress(e),0,false,825548.6999999881,825548.5999999642,821314.737,821320.0999999642,821331.341,825564.93,4,500,28,
break,html.Screen,10_27_1,2023-11-17T17:44:19.920Z,,,,,,,,,,,NaN,,,,,,,,high,low,,,,,,false,,,,,false,825548.8999999762,825548.8999999762,,825548.8000000119,,825564.93,4,500,,
break_continue,html.Screen,10_27_2,2023-11-17T17:44:19.920Z,,,,,,,,,,,NaN,,,,,,,,high,low,,,,,,false,,,,,false,825549.0999999642,825549.0999999642,,825549,,825564.93,4,500,,
sequence,flow.Sequence,10_27,2023-11-17T17:44:19.920Z,,,,,,,,,,,4217.758999964222,completion,,,,,,,high,low,,,,,,false,,,,,false,825549.1999999881,825549.0999999642,821314.737,821320,821331.341,825564.93,4,500,,
trial,html.Screen,10_28_0,2023-11-17T17:44:22.553Z,,,,1,0.0217698886732706,-0.0410870915161425,,0.05,false,ll,2616.269999988028,response,-1.212030980680325,1.1149999999999998,-1.1519491255787329,-1.033832433609739,0.8502367755124123,-1.0272570712421811,low,low,,ISIC_0072173.JPG,8,ISIC_0008510.JPG,27,false,0.11,lh,keypress(e),0,false,828181.5,828181.1999999881,825548.232,825549.1999999881,825564.93,828198.064,4,500,29,
break,html.Screen,10_28_1,2023-11-17T17:44:22.554Z,,,,,,,,,,,NaN,,,,,,,,low,low,,,,,,false,,,,,false,828182.3999999762,828182.1999999881,,828181.8999999762,,828198.064,4,500,,
break_continue,html.Screen,10_28_2,2023-11-17T17:44:22.554Z,,,,,,,,,,,NaN,,,,,,,,low,low,,,,,,false,,,,,false,828182.8999999762,828182.8000000119,,828182.5,,828198.064,4,500,,
sequence,flow.Sequence,10_28,2023-11-17T17:44:22.554Z,,,,,,,,,,,2617.8700000118697,completion,,,,,,,low,low,,,,,,false,,,,,false,828183.0999999642,828182.8000000119,825548.232,825549.1999999881,825564.93,828198.064,4,500,,
trial,html.Screen,10_29_0,2023-11-17T17:44:24.425Z,,,,1,0.0324770283903853,0.0249968632204382,,0.05,true,lh,1855.135999988066,response,-1.0396927560986136,1.1149999999999998,-1.1519491255787329,0.6700895381759688,0.8502367755124123,-1.0272570712421811,low,high,,ISIC_7266462.JPG,9,ISIC_0066149.JPG,26,false,0.20000000000000007,lh,keypress(e),0,false,830053.3999999762,830053.1999999881,828181.521,828183.3000000119,828198.064,830064.835,4,500,30,
break,html.Screen,10_29_1,2023-11-17T17:44:24.426Z,,,,,,,,,,,NaN,,,,,,,,low,high,,,,,,false,,,,,false,830054.3999999762,830054.1999999881,,830053.6999999881,,830064.835,4,500,,
break_continue,html.Screen,10_29_2,2023-11-17T17:44:24.426Z,,,,,,,,,,,NaN,,,,,,,,low,high,,,,,,false,,,,,false,830054.8999999762,830054.6999999881,,830054.5,,830064.835,4,500,,
sequence,flow.Sequence,10_29,2023-11-17T17:44:24.426Z,,,,,,,,,,,1856.635999988066,completion,,,,,,,low,high,,,,,,false,,,,,false,830055.1999999881,830054.6999999881,828181.521,828183.1999999881,828198.064,830064.835,4,500,,
trial,html.Screen,10_30_0,2023-11-17T17:44:33.914Z,,,,1,0.0450282431170921,,,0.05,false,hh,9477.665000000037,response,1.042408629210669,1.1149999999999998,-1.1519491255787329,0.7942237284714229,0.8502367755124123,-1.0272570712421811,high,high,,ISIC_1805163.JPG,8,ISIC_0026738.JPG,33,false,0.1,lh,keypress(e),0,false,839542.8000000119,839542.5,830048.156,830055.3000000119,830064.835,839547.953,4,500,31,
break,html.Screen,10_30_1,2023-11-17T17:44:33.915Z,,,,,,,,,,,NaN,,,,,,,,high,high,,,,,,false,,,,,false,839543.5999999642,839543.5,,839543.0999999642,,839547.953,4,500,,
break_continue,html.Screen,10_30_2,2023-11-17T17:44:33.915Z,,,,,,,,,,,NaN,,,,,,,,high,high,,,,,,false,,,,,false,839544.0999999642,839544,,839543.8000000119,,839547.953,4,500,,
sequence,flow.Sequence,10_30,2023-11-17T17:44:33.915Z,,,,,,,,,,,9479.165000000037,completion,,,,,,,high,high,,,,,,false,,,,,false,839544.3999999762,839544,830048.156,830055.3000000119,830064.835,839547.953,4,500,,
trial,html.Screen,10_31_0,2023-11-17T17:44:44.201Z,,,,1,-0.0134764727102299,-0.0033499036460912,,0.05,false,hl,10280.847000011941,response,0.887838744955182,1.1149999999999998,-1.1519491255787329,-0.7545096650863988,0.8502367755124123,-1.0272570712421811,high,low,,ISIC_0009998.JPG,8,ISIC_1488727.JPG,26,false,0.3200000000000002,lh,keypress(e),0,false,849828.8999999762,849828.8000000119,839531.515,839544.5,839547.953,849831.236,4,500,32,
break,html.Screen,10_31_1,2023-11-17T17:44:44.201Z,,,,,,,,,,,NaN,,,,,,,,high,low,,,,,,false,,,,,false,849829.1999999881,849829.0999999642,,849828.8999999762,,849831.236,4,500,,
break_continue,html.Screen,10_31_2,2023-11-17T17:44:44.201Z,,,,,,,,,,,NaN,,,,,,,,high,low,,,,,,false,,,,,false,849829.3999999762,849829.3000000119,,849829.3000000119,,849831.236,4,500,,
sequence,flow.Sequence,10_31,2023-11-17T17:44:44.201Z,,,,,,,,,,,10281.347000011941,completion,,,,,,,high,low,,,,,,false,,,,,false,849829.3999999762,849829.3000000119,839531.515,839544.5,839547.953,849831.236,4,500,,
trial,html.Screen,10_32_0,2023-11-17T17:44:50.840Z,,,,1,0.0389988030702649,0.0143212271490256,,0.05,true,hh,6637.064000011887,response,1.0529768630659295,1.1149999999999998,-1.1519491255787329,0.7530547977543617,0.8502367755124123,-1.0272570712421811,high,high,,ISIC_0064669.JPG,9,ISIC_0067743.JPG,33,false,0.1,hh,keypress(i),0,false,856468.3999999762,856468.3000000119,849814.836,849829.5,849831.236,856481.439,4,500,33,
break,html.Screen,10_32_1,2023-11-17T17:44:50.840Z,,,,,,,,,,,NaN,,,,,,,,high,high,,,,,,false,,,,,false,856468.6999999881,856468.6999999881,,856468.5,,856481.439,4,500,,
break_continue,html.Screen,10_32_2,2023-11-17T17:44:50.841Z,,,,,,,,,,,NaN,,,,,,,,high,high,,,,,,false,,,,,false,856469,856468.8999999762,,856468.8000000119,,856481.439,4,500,,
sequence,flow.Sequence,10_32,2023-11-17T17:44:50.841Z,,,,,,,,,,,6637.663999976125,completion,,,,,,,high,high,,,,,,false,,,,,false,856469,856468.8999999762,849814.836,849829.3999999762,849831.236,856481.439,4,500,,
trial,html.Screen,10_33_0,2023-11-17T17:44:58.170Z,,,,1,0.007397293189458,0.0174716772037504,,0.05,false,ll,7316.861000011908,response,-1.2148140264214349,1.1149999999999998,-1.1519491255787329,-1.0436713726380966,0.8502367755124123,-1.0272570712421811,low,low,,ISIC_0056226.JPG,9,ISIC_7277310.JPG,27,false,0.11,hh,keypress(i),0,false,863798.5,863798.3000000119,856464.646,856469,856481.439,863814.572,4,500,34,
break,html.Screen,10_33_1,2023-11-17T17:44:58.171Z,,,,,,,,,,,NaN,,,,,,,,low,low,,,,,,false,,,,,false,863799.3999999762,863799.3000000119,,863798.8000000119,,863814.572,4,500,,
break_continue,html.Screen,10_33_2,2023-11-17T17:44:58.172Z,,,,,,,,,,,NaN,,,,,,,,low,low,,,,,,false,,,,,false,863800,863799.8999999762,,863799.5999999642,,863814.572,4,500,,
sequence,flow.Sequence,10_33,2023-11-17T17:44:58.172Z,,,,,,,,,,,7318.460999976145,completion,,,,,,,low,low,,,,,,false,,,,,false,863800.3999999762,863799.8999999762,856464.646,856469,856481.439,863814.572,4,500,,
trial,html.Screen,10_34_0,2023-11-17T17:45:01.737Z,,,,1,0.0116094682222121,-0.0258434522530318,,0.05,false,hl,3550.9279999999562,response,0.8947611078712571,1.1149999999999998,-1.1519491255787329,-0.8960964505004638,0.8502367755124123,-1.0272570712421811,high,low,,ISIC_9239632.JPG,9,ISIC_6441128.JPG,26,false,0.3200000000000002,ll,keypress(f),0,false,867365.8000000119,867365.5,863797.995,863800.5,863814.572,867381.251,4,500,35,
break,html.Screen,10_34_1,2023-11-17T17:45:01.738Z,,,,,,,,,,,NaN,,,,,,,,high,low,,,,,,false,,,,,false,867366.6999999881,867366.5,,867366.0999999642,,867381.251,4,500,,
break_continue,html.Screen,10_34_2,2023-11-17T17:45:01.739Z,,,,,,,,,,,NaN,,,,,,,,high,low,,,,,,false,,,,,false,867367.3000000119,867367.0999999642,,867366.8000000119,,867381.251,4,500,,
sequence,flow.Sequence,10_34,2023-11-17T17:45:01.739Z,,,,,,,,,,,3552.5279999641934,completion,,,,,,,high,low,,,,,,false,,,,,false,867367.5,867367.0999999642,863797.995,863800.5,863814.572,867381.251,4,500,,
trial,html.Screen,10_35_0,2023-11-17T17:45:03.513Z,,,,1,0.0450282431170921,,,0.05,true,ll,1760.0490000118734,response,-1.0859458972647518,1.1149999999999998,-1.1519491255787329,-0.9241823104580792,0.8502367755124123,-1.0272570712421811,low,low,,ISIC_1805163.JPG,9,ISIC_0011721.JPG,27,false,0.11,ll,keypress(f),0,false,869141.5999999642,869141.3000000119,867364.784,867367.6999999881,867381.251,869147.876,4,500,36,
break,html.Screen,10_35_1,2023-11-17T17:45:03.514Z,,,,,,,,,,,NaN,,,,,,,,low,low,,,,,,false,,,,,false,869142.3999999762,869142.3000000119,,869141.8000000119,,869147.876,4,500,,
break_continue,html.Screen,10_35_2,2023-11-17T17:45:03.515Z,,,,,,,,,,,NaN,,,,,,,,low,low,,,,,,false,,,,,false,869143,869142.8000000119,,869142.5999999642,,869147.876,4,500,,
sequence,flow.Sequence,10_35,2023-11-17T17:45:03.515Z,,,,,,,,,,,1761.5490000118734,completion,,,,,,,low,low,,,,,,false,,,,,false,869143.1999999881,869142.8000000119,867364.784,867367.5999999642,867381.251,869147.876,4,500,,
trial,html.Screen,10_36_0,2023-11-17T17:45:05.241Z,,,,1,-0.0362376068089956,-0.047825070846155,,0.05,true,ll,1721.5239999761106,response,-1.200284020742371,1.1149999999999998,-1.1519491255787329,-1.0002918079433898,0.8502367755124123,-1.0272570712421811,low,low,,ISIC_6985114.JPG,9,ISIC_0678758.JPG,27,false,0.11,ll,keypress(f),0,false,870869.6999999881,870869.3999999762,869131.375,869143.3000000119,869147.876,870881.213,4,500,37,
break,html.Screen,10_36_1,2023-11-17T17:45:05.242Z,,,,,,,,,,,NaN,,,,,,,,low,low,,,,,,false,,,,,false,870870.6999999881,870870.5,,870870.0999999642,,870881.213,4,500,,
break_continue,html.Screen,10_36_2,2023-11-17T17:45:05.243Z,,,,,,,,,,,NaN,,,,,,,,low,low,,,,,,false,,,,,false,870871.3000000119,870871.0999999642,,870870.8000000119,,870881.213,4,500,,
sequence,flow.Sequence,10_36,2023-11-17T17:45:05.243Z,,,,,,,,,,,1723.2239999641897,completion,,,,,,,low,low,,,,,,false,,,,,false,870871.5999999642,870871.0999999642,869131.375,869143.3000000119,869147.876,870881.213,4,500,,
trial,html.Screen,10_37_0,2023-11-17T17:45:08.410Z,,,,1,-0.0097091270150747,0.0417921315885292,,0.05,false,lh,3156.3869999642484,response,-1.011737552725394,1.1149999999999998,-1.1519491255787329,0.8500530224490773,0.8502367755124123,-1.0272570712421811,low,high,,ISIC_3967213.JPG,10,ISIC_2998367.JPG,26,false,0.20000000000000007,ll,keypress(f),0,false,874037.8999999762,874037.5999999642,870864.805,870871.8000000119,870881.213,874047.853,4,500,38,
break,html.Screen,10_37_1,2023-11-17T17:45:08.411Z,,,,,,,,,,,NaN,,,,,,,,low,high,,,,,,false,,,,,false,874039.1999999881,874038.8000000119,,874038.1999999881,,874047.853,4,500,,
break_continue,html.Screen,10_37_2,2023-11-17T17:45:08.412Z,,,,,,,,,,,NaN,,,,,,,,low,high,,,,,,false,,,,,false,874040.0999999642,874039.8000000119,,874039.3999999762,,874047.853,4,500,,
sequence,flow.Sequence,10_37,2023-11-17T17:45:08.412Z,,,,,,,,,,,3158.587000011932,completion,,,,,,,low,high,,,,,,false,,,,,false,874040.5,874039.8000000119,870864.805,870871.5999999642,870881.213,874047.853,4,500,,
trial,html.Screen,10_38_0,2023-11-17T17:45:13.551Z,,,,1,-0.0051189696037511,0.0396625911332438,,0.05,false,hl,5131.846999988076,response,0.991146183030456,1.1149999999999998,-1.1519491255787329,-0.9949639823722534,0.8502367755124123,-1.0272570712421811,high,low,,ISIC_9742891.JPG,10,ISIC_6342224.JPG,26,false,0.3200000000000002,lh,keypress(e),0,false,879179.8000000119,879179.6999999881,874031.421,874040.8000000119,874047.853,879198.124,4,500,39,
