sender,sender_type,sender_id,timestamp,meta,,age,blockNo,c1,c2,condition,control_tolerance,correct,correctResponse,duration,ended_on,f1,f1_high,f1_low,f2,f2_high,f2_low,feature_level1,feature_level2,gender,img_left,img_reveal,img_right,n_target_images,practice,range_tolerance,response,response_action,selection_duration,staircase,time_commit,time_end,time_render,time_run,time_show,time_switch,total_blocks,total_trials,trialNo,url
informed_consent,html.Screen,0,2023-11-17T16:31:37.237Z,"{""labjs_version"":""20.2.4"",""labjs_build"":{""flavor"":""development"",""commit"":""f5b4a49f956347addd546a832a3327688c2c0fef""},""location"":""https://labjs.felixhenninger.com/api/labjs_preview/index.html"",""userAgent"":""Mozilla/5.0 (Windows NT 10.0; Win64; x64) AppleWebKit/537.36 (KHTML, like Gecko) Chrome/119.0.0.0 Safari/537.36"",""platform"":""Win32"",""language"":""en-US"",""locale"":""en-US"",""timeZone"":""America/Chicago"",""timezoneOffset"":360,""screen_width"":1920,""screen_height"":1080,""scroll_width"":945,""scroll_height"":918,""window_innerWidth"":945,""window_innerHeight"":966,""devicePixelRatio"":1}",,,,,,,,,,34528.671999976155,response,,,,,,,,,,,,,,,,consent,click button,,,35049,35042.89999997616,497.601,616.1000000238419,514.228,34964.324,,,,{}
Demography form,html.Form,1,2023-11-17T16:31:44.766Z,,,22,,,,,,,,7613.276000023841,form submission,,,,,,,,,female,,,,,,,,,,,42577.699999928474,42577.60000002384,34947.684,35049.10000002384,34964.324,42480.94,,,,
Welcome,html.Screen,2,2023-11-17T16:32:12.383Z,,,,,,,"[""asym"",""col""]",,,,27714.259999928472,response,,,,,,,,,,,,,,,,continue,click button,,,70196,70195.19999992847,42464.197,42577.89999997616,42480.94,70097.795,,,,
demo_instructions,html.Screen,3,2023-11-17T16:32:47.992Z,,,,,,,,,,,35705.705,response,,,,,,,,,,,,,,,,continue,click button,,,105804.39999997616,105803.5,70081.094,70196.10000002384,70097.795,105715.013,,,,
trial,html.Screen,4_0_0,2023-11-17T16:33:00.033Z,,,,0,1.155796217969438,-1.1646564121743912,,,true,lh,12130.186999928468,response,-1.3515962101204746,1.2,-1.2,0.8414583575292955,1.2,-1.2,low,high,,ISIC_2685523.JPG,,ISIC_0274382.JPG,29,true,0.3600000000000002,lh,keypress(e),100,false,117845.29999995232,117845.19999992847,105681.32,105804.60000002384,105715.013,117764.236,1,16,1,
sequence,flow.Sequence,4_0,2023-11-17T16:33:00.033Z,,,,,,,,,,,12130.186999928468,completion,,,,,,,low,high,,,,,,true,,,,,false,117845.5,117845.19999992847,105681.32,105804.60000002384,105715.013,117764.236,1,16,,
trial,html.Screen,4_1_0,2023-11-17T16:33:16.749Z,,,,0,0.887838744955182,-1.3716210719758812,,,true,lh,16796.263999999996,response,-0.9385447468573198,1.2,-1.2,1.2289860846064424,1.2,-1.2,low,high,,ISIC_1488727.JPG,,ISIC_0032780.JPG,29,true,0.3600000000000002,lh,keypress(e),100,false,134560.69999992847,134560.5,117747.549,117845.60000002384,117764.236,134480.847,1,16,2,
sequence,flow.Sequence,4_1,2023-11-17T16:33:16.749Z,,,,,,,,,,,16796.263999999996,completion,,,,,,,low,high,,,,,,true,,,,,false,134560.89999997616,134560.5,117747.549,117845.60000002384,117764.236,134480.847,1,16,,
trial,html.Screen,4_2_0,2023-11-17T16:33:23.526Z,,,,0,0.9566823908868002,-0.9602125665128364,,,true,lh,6856.753000023833,response,-0.9445114955578736,1.2,-1.2,1.0054210059625863,1.2,-1.2,low,high,,ISIC_0056784.JPG,,ISIC_0033807.JPG,29,true,0.3600000000000002,lh,keypress(e),100,false,141337.89999997616,141337.60000002384,134464.652,134560.89999997616,134480.847,141247.972,1,16,3,
sequence,flow.Sequence,4_2,2023-11-17T16:33:23.526Z,,,,,,,,,,,6856.753000023833,completion,,,,,,,low,high,,,,,,true,,,,,false,141338.19999992847,141337.60000002384,134464.652,134560.89999997616,134480.847,141247.972,1,16,,
trial,html.Screen,4_3_0,2023-11-17T16:33:30.688Z,,,,0,0.9670240379618178,-1.1806404773220665,,,true,lh,7251.327999952307,response,-1.4727776799485246,1.2,-1.2,0.8779113138076752,1.2,-1.2,low,high,,ISIC_0002288.JPG,,ISIC_0033074.JPG,29,true,0.3600000000000002,lh,keypress(e),100,false,148499.39999997616,148499.29999995232,141230.866,141338.29999995232,141247.972,148414.397,1,16,4,
sequence,flow.Sequence,4_3,2023-11-17T16:33:30.688Z,,,,,,,,,,,7251.327999952307,completion,,,,,,,low,high,,,,,,true,,,,,false,148499.69999992847,148499.29999995232,141230.866,141338.29999995232,141247.972,148414.397,1,16,,
trial,html.Screen,4_4_0,2023-11-17T16:33:50.035Z,,,,0,1.2040551955011098,1.2664651062241792,,,true,ll,19432.50299997616,response,-1.3595426934325474,1.2,-1.2,-0.9461764282182232,1.2,-1.2,low,low,,ISIC_0068886.JPG,,ISIC_0027596.JPG,127,true,0.3300000000000002,ll,keypress(f),100,false,167847.10000002384,167846.89999997616,148397.508,148499.69999992847,148414.397,167764.654,1,16,5,
sequence,flow.Sequence,4_4,2023-11-17T16:33:50.035Z,,,,,,,,,,,19432.50299997616,completion,,,,,,,low,low,,,,,,true,,,,,false,167847.29999995232,167846.89999997616,148397.508,148499.69999992847,148414.397,167764.654,1,16,,
trial,html.Screen,4_5_0,2023-11-17T16:33:56.999Z,,,,0,1.238264833797662,1.176099940770289,,,true,ll,7046.245999976149,response,-1.0885984639975343,1.2,-1.2,-1.2042618719491294,1.2,-1.2,low,low,,ISIC_0032861.JPG,,ISIC_0012740.JPG,25,true,0.15000000000000002,ll,keypress(f),100,false,174811.10000002384,174810.89999997616,167747.957,167847.39999997616,167764.654,174731.042,1,16,6,
sequence,flow.Sequence,4_5,2023-11-17T16:33:56.999Z,,,,,,,,,,,7046.245999976149,completion,,,,,,,low,low,,,,,,true,,,,,false,174811.29999995232,174810.89999997616,167747.957,167847.39999997616,167764.654,174731.042,1,16,,
trial,html.Screen,4_6_0,2023-11-17T16:34:05.002Z,,,,0,1.1783311757907324,1.266840220031473,,,true,ll,8083.75799995233,response,-1.1642596483638106,1.2,-1.2,-1.091507924157762,1.2,-1.2,low,low,,ISIC_8241457.JPG,,ISIC_0765584.JPG,25,true,0.15000000000000002,ll,keypress(f),100,false,182814.89999997616,182814.79999995232,174714.629,174811.39999997616,174731.042,182730.93,1,16,7,
sequence,flow.Sequence,4_6,2023-11-17T16:34:05.003Z,,,,,,,,,,,8083.75799995233,completion,,,,,,,low,low,,,,,,true,,,,,false,182815,182814.79999995232,174714.629,174811.39999997616,174731.042,182730.93,1,16,,
trial,html.Screen,4_7_0,2023-11-17T16:34:09.423Z,,,,0,1.1671212908494544,1.1286681796701683,,,true,ll,4504.269999928481,response,-1.294521945180264,1.2,-1.2,-1.3078626540563885,1.2,-1.2,low,low,,ISIC_0065022.JPG,,ISIC_3601224.JPG,25,true,0.15000000000000002,ll,keypress(f),100,false,187235.39999997616,187235.19999992847,182714.613,182815.10000002384,182730.93,187147.593,1,16,8,
sequence,flow.Sequence,4_7,2023-11-17T16:34:09.423Z,,,,,,,,,,,4504.269999928481,completion,,,,,,,low,low,,,,,,true,,,,,false,187235.60000002384,187235.19999992847,182714.613,182815.10000002384,182730.93,187147.593,1,16,,
trial,html.Screen,4_8_0,2023-11-17T16:34:16.655Z,,,,0,-1.1235224875125256,0.8641223012137988,,,true,hl,7319.706999952323,response,0.9225524349657857,1.2,-1.2,-0.929746784178986,1.2,-1.2,high,low,,ISIC_0033901.JPG,,ISIC_0011077.JPG,26,true,0.3300000000000002,hl,keypress(j),100,false,194467.5,194467.29999995232,187130.839,187235.60000002384,187147.593,194381.274,1,16,9,
sequence,flow.Sequence,4_8,2023-11-17T16:34:16.655Z,,,,,,,,,,,7319.706999952323,completion,,,,,,,high,low,,,,,,true,,,,,false,194467.60000002384,194467.29999995232,187130.839,187235.60000002384,187147.593,194381.274,1,16,,
trial,html.Screen,4_9_0,2023-11-17T16:34:21.530Z,,,,0,-1.3515962101204746,0.8414583575292955,,,true,hl,4961.225999999995,response,1.0748728054622358,1.2,-1.2,-1.2840853987892311,1.2,-1.2,high,low,,ISIC_0274382.JPG,,ISIC_0059219.JPG,33,true,0.3600000000000002,hl,keypress(j),100,false,199342.69999992847,199342.5,194364.175,194467.69999992847,194381.274,199264.211,1,16,10,
sequence,flow.Sequence,4_9,2023-11-17T16:34:21.530Z,,,,,,,,,,,4961.225999999995,completion,,,,,,,high,low,,,,,,true,,,,,false,199342.89999997616,199342.5,194364.175,194467.69999992847,194381.274,199264.211,1,16,,
trial,html.Screen,4_10_0,2023-11-17T16:34:26.917Z,,,,0,-0.8494721812820843,1.3435429139974266,,,true,hl,5464.988999928464,response,1.0961318727760048,1.2,-1.2,-1.2134960228256146,1.2,-1.2,high,low,,ISIC_0033585.JPG,,ISIC_9768421.JPG,33,true,0.3600000000000002,hl,keypress(j),100,false,204729.29999995232,204729.19999992847,199247.509,199343,199264.211,204647.511,1,16,11,
sequence,flow.Sequence,4_10,2023-11-17T16:34:26.917Z,,,,,,,,,,,5464.988999928464,completion,,,,,,,high,low,,,,,,true,,,,,false,204729.5,204729.19999992847,199247.509,199343,199264.211,204647.511,1,16,,
trial,html.Screen,4_11_0,2023-11-17T16:34:31.567Z,,,,0,-0.9087169856594104,0.8835647084207277,,,true,hl,4732.288999952318,response,0.8588347582642082,1.2,-1.2,-0.8899503828496784,1.2,-1.2,high,low,,ISIC_0000349.JPG,,ISIC_0174983.JPG,33,true,0.3600000000000002,hl,keypress(j),100,false,209380,209379.79999995232,204630.805,204729.5,204647.511,209297.478,1,16,12,
sequence,flow.Sequence,4_11,2023-11-17T16:34:31.568Z,,,,,,,,,,,4732.288999952318,completion,,,,,,,high,low,,,,,,true,,,,,false,209380.10000002384,209379.79999995232,204630.805,204729.5,204647.511,209297.478,1,16,,
trial,html.Screen,4_12_0,2023-11-17T16:34:35.588Z,,,,0,-1.073296525451802,-1.3454282740421717,,,true,hh,4102.421999976155,response,1.2055236989581275,1.2,-1.2,1.1960893075698802,1.2,-1.2,high,high,,ISIC_5787312.JPG,,ISIC_0072393.JPG,249,true,0.3600000000000002,hh,keypress(i),100,false,213400.10000002384,213399.89999997616,209280.822,209380.19999992847,209297.478,213314.159,1,16,13,
sequence,flow.Sequence,4_12,2023-11-17T16:34:35.588Z,,,,,,,,,,,4102.421999976155,completion,,,,,,,high,high,,,,,,true,,,,,false,213400.29999995232,213399.89999997616,209280.822,209380.19999992847,209297.478,213314.159,1,16,,
trial,html.Screen,4_13_0,2023-11-17T16:34:38.072Z,,,,0,-1.1168199061753437,-1.212287319329914,,,true,hh,2570.04099992846,response,1.3481235460784902,1.2,-1.2,1.1303432960853397,1.2,-1.2,high,high,,ISIC_5919355.JPG,,ISIC_0010965.JPG,41,true,0.15000000000000002,hh,keypress(i),100,false,215884.39999997616,215884.19999992847,213297.613,213400.29999995232,213314.159,215797.49,1,16,14,
sequence,flow.Sequence,4_13,2023-11-17T16:34:38.072Z,,,,,,,,,,,2570.04099992846,completion,,,,,,,high,high,,,,,,true,,,,,false,215884.39999997616,215884.19999992847,213297.613,213400.29999995232,213314.159,215797.49,1,16,,
trial,html.Screen,4_14_0,2023-11-17T16:34:42.860Z,,,,0,-1.1363600109870835,-1.295816345369928,,,true,hh,4874.510000000009,response,1.3132505134129506,1.2,-1.2,1.0949928516457437,1.2,-1.2,high,high,,ISIC_0026141.JPG,,ISIC_0066935.JPG,41,true,0.15000000000000002,hh,keypress(i),100,false,220672.19999992847,220672,215780.932,215884.5,215797.49,220581.271,1,16,15,
sequence,flow.Sequence,4_14,2023-11-17T16:34:42.860Z,,,,,,,,,,,4874.510000000009,completion,,,,,,,high,high,,,,,,true,,,,,false,220672.39999997616,220672,215780.932,215884.5,215797.49,220581.271,1,16,,
trial,html.Screen,4_15_0,2023-11-17T16:34:46.032Z,,,,0,-1.1642596483638106,-1.091507924157762,,,true,hh,3262.9289999284665,response,1.1407514641016443,1.2,-1.2,1.280017651202714,1.2,-1.2,high,high,,ISIC_0765584.JPG,,ISIC_0072507.JPG,41,true,0.15000000000000002,hh,keypress(i),100,false,223844.39999997616,223844.19999992847,220564.63,220672.5,220581.271,223764.38,1,16,16,
sequence,flow.Sequence,4_15,2023-11-17T16:34:46.032Z,,,,,,,,,,,3262.9289999284665,completion,,,,,,,high,high,,,,,,true,,,,,false,223844.60000002384,223844.19999992847,220564.63,220672.5,220581.271,223764.38,1,16,,
demonstration_loop,flow.Loop,4,2023-11-17T16:34:46.032Z,,,,,,,,,,,118129.18699992847,completion,,,,,,,,,,,,,,true,,,,,false,223844.60000002384,223844.19999992847,105681.32,105804.5,105715.013,223764.38,1,16,,
practice_instructions,html.Screen,5,2023-11-17T16:34:54.717Z,,,,,,,,,,,8758.919999952312,response,,,,,,,,,,,,,,,,continue,click button,,,232529.5,232523.29999995232,223747.61,223844.69999992847,223764.38,232430.797,,,,
trial,html.Screen,6_0_0,2023-11-17T16:35:05.225Z,,,,1,-1.1305948371148624,-1.2802709447034604,,,false,hh,10600.502999952325,response,1.152619213055059,1.2,-1.2,1.2957497771092716,1.2,-1.2,high,high,,ISIC_5648111.JPG,,ISIC_0061915.JPG,27,true,0.12,lh,keypress(e),0,false,243036.5,243031.29999995232,232414.154,232529.60000002384,232430.797,242947.455,1,40,1,
sequence,flow.Sequence,6_0,2023-11-17T16:35:05.225Z,,,,,,,,,,,10600.502999952325,completion,,,,,,,high,high,,,,,,true,,,,,false,243036.60000002384,243031.29999995232,232414.154,232529.5,232430.797,242947.455,1,40,,
trial,html.Screen,6_1_0,2023-11-17T16:35:08.433Z,,,,1,-1.225025174430573,0.8422679054456499,,,true,hl,3297.1450000238547,response,0.9225524349657857,1.2,-1.2,-0.929746784178986,1.2,-1.2,high,low,,ISIC_7503950.JPG,,ISIC_0011077.JPG,26,true,0.3300000000000002,hl,keypress(j),0,false,246244.69999992847,246244.60000002384,242930.779,243036.69999992847,242947.455,246147.615,1,40,2,
sequence,flow.Sequence,6_1,2023-11-17T16:35:08.433Z,,,,,,,,,,,3297.1450000238547,completion,,,,,,,high,low,,,,,,true,,,,,false,246244.69999992847,246244.60000002384,242930.779,243036.69999992847,242947.455,246147.615,1,40,,
trial,html.Screen,6_2_0,2023-11-17T16:35:12.530Z,,,,1,-1.301795918505203,-1.0518606632781424,,,false,hh,4193.485000023851,response,1.1534088124362896,1.2,-1.2,0.8573197642156768,1.2,-1.2,high,high,,ISIC_0027666.JPG,,ISIC_8935085.JPG,249,true,0.3600000000000002,hl,keypress(j),0,false,250341.29999995232,250341.10000002384,246130.948,246244.79999995232,246147.615,250247.715,1,40,3,
sequence,flow.Sequence,6_2,2023-11-17T16:35:12.530Z,,,,,,,,,,,4193.485000023851,completion,,,,,,,high,high,,,,,,true,,,,,false,250341.29999995232,250341.10000002384,246130.948,246244.69999992847,246147.615,250247.715,1,40,,
trial,html.Screen,6_3_0,2023-11-17T16:35:19.073Z,,,,1,1.2289750544294995,1.3003764624334877,,,true,ll,6637.08499995232,response,-1.301795918505203,1.2,-1.2,-1.0518606632781424,1.2,-1.2,low,low,,ISIC_0054167.JPG,,ISIC_0027666.JPG,25,true,0.15000000000000002,ll,keypress(f),0,false,256884.89999997616,256884.79999995232,250230.707,250341.29999995232,250247.715,256780.76,1,40,4,
sequence,flow.Sequence,6_3,2023-11-17T16:35:19.073Z,,,,,,,,,,,6637.08499995232,completion,,,,,,,low,low,,,,,,true,,,,,false,256885,256884.79999995232,250230.707,250341.29999995232,250247.715,256780.76,1,40,,
trial,html.Screen,6_4_0,2023-11-17T16:35:23.922Z,,,,1,-1.3411487193830047,1.198640448317381,,,true,hl,4952.439999928465,response,0.9873794329144926,1.2,-1.2,-0.9500689037516484,1.2,-1.2,high,low,,ISIC_3093026.JPG,,ISIC_0013498.JPG,26,true,0.3300000000000002,hl,keypress(j),0,false,261733.29999995232,261733.19999992847,256764.373,256885,256780.76,261630.758,1,40,5,
sequence,flow.Sequence,6_4,2023-11-17T16:35:23.922Z,,,,,,,,,,,4952.439999928465,completion,,,,,,,high,low,,,,,,true,,,,,false,261733.39999997616,261733.19999992847,256764.373,256885,256780.76,261630.758,1,40,,
trial,html.Screen,6_5_0,2023-11-17T16:35:30.273Z,,,,1,-1.411763789273233,1.0057734478347988,,,true,hl,6454.1419999761565,response,0.887838744955182,1.2,-1.2,-1.3716210719758812,1.2,-1.2,high,low,,ISIC_0027235.JPG,,ISIC_1488727.JPG,33,true,0.3600000000000002,hl,keypress(j),0,false,268085,268084.89999997616,261614.413,261733.39999997616,261630.758,267980.747,1,40,6,
sequence,flow.Sequence,6_5,2023-11-17T16:35:30.274Z,,,,,,,,,,,6454.1419999761565,completion,,,,,,,high,low,,,,,,true,,,,,false,268085.10000002384,268084.89999997616,261614.413,261733.39999997616,261630.758,267980.747,1,40,,
trial,html.Screen,6_6_0,2023-11-17T16:35:37.633Z,,,,1,-1.1168199061753437,-1.212287319329914,,,true,hh,7463.552999952342,response,1.0408865749129357,1.2,-1.2,1.552926120105505,1.2,-1.2,high,high,,ISIC_5919355.JPG,,ISIC_0066378.JPG,249,true,0.3600000000000002,hh,keypress(i),0,false,275444.39999997616,275444.2999999523,267964.383,268085.1999999285,267980.747,275347.411,1,40,7,
sequence,flow.Sequence,6_6,2023-11-17T16:35:37.633Z,,,,,,,,,,,7463.552999952342,completion,,,,,,,high,high,,,,,,true,,,,,false,275444.60000002384,275444.2999999523,267964.383,268085.1999999285,267980.747,275347.411,1,40,,
trial,html.Screen,6_7_0,2023-11-17T16:35:43.265Z,,,,1,0.9046170303418553,-1.0063426986460375,,,true,lh,5729.18900002382,response,-1.3515962101204746,1.2,-1.2,0.8414583575292955,1.2,-1.2,low,high,,ISIC_0055759.JPG,,ISIC_0274382.JPG,29,true,0.3600000000000002,lh,keypress(e),0,false,281076.60000002384,281076.60000002384,275330.973,275444.60000002384,275347.411,280980.793,1,40,8,
sequence,flow.Sequence,6_7,2023-11-17T16:35:43.265Z,,,,,,,,,,,5729.18900002382,completion,,,,,,,low,high,,,,,,true,,,,,false,281076.7999999523,281076.60000002384,275330.973,275444.60000002384,275347.411,280980.793,1,40,,
trial,html.Screen,6_8_0,2023-11-17T16:35:47.729Z,,,,1,-1.2200968917423711,-1.3183466064109373,,,false,hh,4559.606999976153,response,1.4640287979846858,1.2,-1.2,0.9843183885836532,1.2,-1.2,high,high,,ISIC_3624318.JPG,,ISIC_0053540.JPG,211,true,0.3300000000000002,lh,keypress(e),0,false,285540.5,285540.39999997616,280964.092,281076.7999999523,280980.793,285447.463,1,40,9,
sequence,flow.Sequence,6_8,2023-11-17T16:35:47.729Z,,,,,,,,,,,4559.606999976153,completion,,,,,,,high,high,,,,,,true,,,,,false,285540.60000002384,285540.39999997616,280964.092,281076.7999999523,280980.793,285447.463,1,40,,
trial,html.Screen,6_9_0,2023-11-17T16:35:53.009Z,,,,1,1.052305774554686,-1.3940181224717798,,,false,lh,5372.936999976169,response,-0.8644465729542988,1.2,-1.2,0.8679598285079457,1.2,-1.2,low,high,,ISIC_4175400.JPG,,ISIC_6718969.JPG,29,true,0.3600000000000002,ll,keypress(f),0,false,290820.39999997616,290820.39999997616,285430.812,285540.60000002384,285447.463,290732.218,1,40,10,
sequence,flow.Sequence,6_9,2023-11-17T16:35:53.009Z,,,,,,,,,,,5372.936999976169,completion,,,,,,,low,high,,,,,,true,,,,,false,290820.60000002384,290820.39999997616,285430.812,285540.60000002384,285447.463,290732.218,1,40,,
trial,html.Screen,6_10_0,2023-11-17T16:35:57.568Z,,,,1,1.2315945866020412,1.13226141421557,,,true,ll,4647.2820000000065,response,-1.011737552725394,1.2,-1.2,-1.0893360711742854,1.2,-1.2,low,low,,ISIC_0033595.JPG,,ISIC_2998367.JPG,127,true,0.3300000000000002,ll,keypress(f),0,false,295379.6999999285,295379.5,290697.684,290820.60000002384,290732.218,295280.811,1,40,11,
sequence,flow.Sequence,6_10,2023-11-17T16:35:57.568Z,,,,,,,,,,,4647.2820000000065,completion,,,,,,,low,low,,,,,,true,,,,,false,295379.6999999285,295379.5,290697.684,290820.60000002384,290732.218,295280.811,1,40,,
trial,html.Screen,6_11_0,2023-11-17T16:36:03.377Z,,,,1,-1.301795918505203,-1.0518606632781424,,,false,hh,5907.289000023855,response,1.1783311757907324,1.2,-1.2,1.266840220031473,1.2,-1.2,high,high,,ISIC_0027666.JPG,,ISIC_8241457.JPG,27,true,0.12,ll,keypress(f),0,false,301188.1999999285,301188.10000002384,295263.974,295379.6999999285,295280.811,301097.542,1,40,12,
sequence,flow.Sequence,6_11,2023-11-17T16:36:03.377Z,,,,,,,,,,,5907.289000023855,completion,,,,,,,high,high,,,,,,true,,,,,false,301188.39999997616,301188.10000002384,295263.974,295379.6999999285,295280.811,301097.542,1,40,,
trial,html.Screen,6_12_0,2023-11-17T16:36:08.722Z,,,,1,-1.1168199061753437,-1.212287319329914,,,true,hh,5435.558000023826,response,1.2040551955011098,1.2,-1.2,1.2664651062241792,1.2,-1.2,high,high,,ISIC_5919355.JPG,,ISIC_0068886.JPG,41,true,0.15000000000000002,hh,keypress(i),0,false,306533.10000002384,306533.10000002384,301080.76,301188.5,301097.542,306430.728,1,40,13,
sequence,flow.Sequence,6_12,2023-11-17T16:36:08.722Z,,,,,,,,,,,5435.558000023826,completion,,,,,,,high,high,,,,,,true,,,,,false,306533.2999999523,306533.10000002384,301080.76,301188.5,301097.542,306430.728,1,40,,
trial,html.Screen,6_13_0,2023-11-17T16:36:14.833Z,,,,1,1.296989496412063,-1.1425074323097002,,,true,lh,6213.5719999523135,response,-1.225025174430573,1.2,-1.2,0.8422679054456499,1.2,-1.2,low,high,,ISIC_6356803.JPG,,ISIC_7503950.JPG,29,true,0.3600000000000002,lh,keypress(e),0,false,312644.39999997616,312644.2999999523,306413.89,306533.39999997616,306430.728,312547.395,1,40,14,
sequence,flow.Sequence,6_13,2023-11-17T16:36:14.833Z,,,,,,,,,,,6213.5719999523135,completion,,,,,,,low,high,,,,,,true,,,,,false,312644.5,312644.2999999523,306413.89,306533.2999999523,306430.728,312547.395,1,40,,
trial,html.Screen,6_14_0,2023-11-17T16:36:19.857Z,,,,1,-0.8591294258188253,0.870797302150167,,,true,hl,5121.0049999761395,response,1.0822170028935367,1.2,-1.2,-1.1654796154432183,1.2,-1.2,high,low,,ISIC_0055841.JPG,,ISIC_7288818.JPG,26,true,0.3300000000000002,hl,keypress(j),0,false,317668.39999997616,317668.39999997616,312530.765,312644.5,312547.395,317564.062,1,40,15,
sequence,flow.Sequence,6_14,2023-11-17T16:36:19.857Z,,,,,,,,,,,5121.0049999761395,completion,,,,,,,high,low,,,,,,true,,,,,false,317668.60000002384,317668.39999997616,312530.765,312644.5,312547.395,317564.062,1,40,,
trial,html.Screen,6_15_0,2023-11-17T16:36:23.425Z,,,,1,1.1227373144244253,1.1886610799377713,,,true,ll,3672.5380000238656,response,-1.2697143823582573,1.2,-1.2,-0.9945790725150012,1.2,-1.2,low,low,,ISIC_0059506.JPG,,ISIC_8909545.JPG,157,true,0.3600000000000002,ll,keypress(f),0,false,321236.6999999285,321236.60000002384,317547.271,317668.60000002384,317564.062,321148.211,1,40,16,
sequence,flow.Sequence,6_15,2023-11-17T16:36:23.425Z,,,,,,,,,,,3672.5380000238656,completion,,,,,,,low,low,,,,,,true,,,,,false,321236.89999997616,321236.60000002384,317547.271,317668.60000002384,317564.062,321148.211,1,40,,
trial,html.Screen,6_16_0,2023-11-17T16:36:29.650Z,,,,1,-1.0581281450494728,-1.133169116569424,,,false,hh,6312.688999976148,response,1.2040551955011098,1.2,-1.2,1.2664651062241792,1.2,-1.2,high,high,,ISIC_5490352.JPG,,ISIC_0068886.JPG,27,true,0.12,ll,keypress(f),0,false,327461,327460.89999997616,321113.943,321236.89999997616,321148.211,327364.237,1,40,17,
sequence,flow.Sequence,6_16,2023-11-17T16:36:29.650Z,,,,,,,,,,,6312.688999976148,completion,,,,,,,high,high,,,,,,true,,,,,false,327461.1999999285,327460.89999997616,321113.943,321236.89999997616,321148.211,327364.237,1,40,,
trial,html.Screen,6_17_0,2023-11-17T16:36:34.256Z,,,,1,-1.3471772753257971,-1.055978100098093,,,true,hh,4703.462999928452,response,1.1671212908494544,1.2,-1.2,1.1286681796701683,1.2,-1.2,high,high,,ISIC_2077116.JPG,,ISIC_0065022.JPG,41,true,0.15000000000000002,hh,keypress(i),0,false,332067.89999997616,332067.6999999285,327347.173,327461.1999999285,327364.237,331964.046,1,40,18,
sequence,flow.Sequence,6_17,2023-11-17T16:36:34.257Z,,,,,,,,,,,4703.462999928452,completion,,,,,,,high,high,,,,,,true,,,,,false,332068,332067.6999999285,327347.173,327461.1999999285,327364.237,331964.046,1,40,,
trial,html.Screen,6_18_0,2023-11-17T16:36:37.281Z,,,,1,-1.064425982109969,0.958564243697126,,,false,hl,3128.1539999285014,response,0.9566823908868002,1.2,-1.2,-0.9602125665128364,1.2,-1.2,high,low,,ISIC_3203344.JPG,,ISIC_0056784.JPG,26,true,0.3300000000000002,hh,keypress(i),0,false,335092.2999999523,335092.1999999285,331947.262,332068,331964.046,334997.83,1,40,19,
sequence,flow.Sequence,6_18,2023-11-17T16:36:37.281Z,,,,,,,,,,,3128.1539999285014,completion,,,,,,,high,low,,,,,,true,,,,,false,335092.39999997616,335092.1999999285,331947.262,332068,331964.046,334997.83,1,40,,
trial,html.Screen,6_19_0,2023-11-17T16:36:41.442Z,,,,1,1.1126049058422398,1.2305421124063929,,,true,ll,4255.169999999984,response,-0.8641919449610089,1.2,-1.2,-1.0259812523869525,1.2,-1.2,low,low,,ISIC_0071536.JPG,,ISIC_7903838.JPG,157,true,0.3600000000000002,ll,keypress(f),0,false,339253.10000002384,339253,334981.151,335092.39999997616,334997.83,339164.51,1,40,20,
sequence,flow.Sequence,6_19,2023-11-17T16:36:41.442Z,,,,,,,,,,,4255.169999999984,completion,,,,,,,low,low,,,,,,true,,,,,false,339253.1999999285,339253,334981.151,335092.39999997616,334997.83,339164.51,1,40,,
trial,html.Screen,6_20_0,2023-11-17T16:36:50.290Z,,,,1,0.8709576717420565,-1.2795156779072283,,,true,lh,8936.389999976149,response,-1.11329866545753,1.2,-1.2,1.2155631217348757,1.2,-1.2,low,high,,ISIC_1925632.JPG,,ISIC_0032610.JPG,29,true,0.3600000000000002,lh,keypress(e),0,false,348101,348100.89999997616,339130.578,339253.1999999285,339164.51,347997.369,1,40,21,
sequence,flow.Sequence,6_20,2023-11-17T16:36:50.290Z,,,,,,,,,,,8936.389999976149,completion,,,,,,,low,high,,,,,,true,,,,,false,348101.1999999285,348100.89999997616,339130.578,339253.1999999285,339164.51,347997.369,1,40,,
trial,html.Screen,6_21_0,2023-11-17T16:36:55.953Z,,,,1,1.2040551955011098,1.2664651062241792,,,false,ll,5767.030999976152,response,-0.9537595754201148,1.2,-1.2,-1.1342661775432377,1.2,-1.2,low,low,,ISIC_0068886.JPG,,ISIC_0741694.JPG,127,true,0.3300000000000002,hl,keypress(j),0,false,353764.5,353764.39999997616,347980.462,348101.1999999285,347997.369,353664.03,1,40,22,
sequence,flow.Sequence,6_21,2023-11-17T16:36:55.953Z,,,,,,,,,,,5767.030999976152,completion,,,,,,,low,low,,,,,,true,,,,,false,353764.60000002384,353764.39999997616,347980.462,348101.1999999285,347997.369,353664.03,1,40,,
trial,html.Screen,6_22_0,2023-11-17T16:37:00.738Z,,,,1,1.155796217969438,-1.1646564121743912,,,true,lh,4885.1699999284465,response,-1.4748095371445096,1.2,-1.2,0.9579010801034902,1.2,-1.2,low,high,,ISIC_2685523.JPG,,ISIC_0033216.JPG,29,true,0.3600000000000002,lh,keypress(e),0,false,358549.2999999523,358549.1999999285,353647.472,353764.6999999285,353664.03,358447.367,1,40,23,
sequence,flow.Sequence,6_22,2023-11-17T16:37:00.738Z,,,,,,,,,,,4885.1699999284465,completion,,,,,,,low,high,,,,,,true,,,,,false,358549.39999997616,358549.1999999285,353647.472,353764.60000002384,353664.03,358447.367,1,40,,
trial,html.Screen,6_23_0,2023-11-17T16:37:06.610Z,,,,1,-1.2838089642212804,0.8550527900640753,,,true,hl,5973.6329999999725,response,0.9448560599810628,1.2,-1.2,-0.9099421612683488,1.2,-1.2,high,low,,ISIC_0034187.JPG,,ISIC_9684318.JPG,26,true,0.3300000000000002,hl,keypress(j),0,false,364421.10000002384,364421,358431.034,358549.39999997616,358447.367,364330.73,1,40,24,
sequence,flow.Sequence,6_23,2023-11-17T16:37:06.610Z,,,,,,,,,,,5973.6329999999725,completion,,,,,,,high,low,,,,,,true,,,,,false,364421.1999999285,364421,358431.034,358549.39999997616,358447.367,364330.73,1,40,,
trial,html.Screen,6_24_0,2023-11-17T16:37:11.697Z,,,,1,1.250220052739973,1.2967258992731714,,,true,ll,5177.770000000019,response,-1.444494618254804,1.2,-1.2,-1.4967477608870836,1.2,-1.2,low,low,,ISIC_0031368.JPG,,ISIC_9390107.JPG,157,true,0.3600000000000002,ll,keypress(f),0,false,369508.6999999285,369508.5,364313.885,364421.1999999285,364330.73,369414.035,1,40,25,
sequence,flow.Sequence,6_24,2023-11-17T16:37:11.697Z,,,,,,,,,,,5177.770000000019,completion,,,,,,,low,low,,,,,,true,,,,,false,369508.7999999523,369508.5,364313.885,364421.1999999285,364330.73,369414.035,1,40,,
trial,html.Screen,6_25_0,2023-11-17T16:37:15.554Z,,,,1,1.2609895831255231,-1.0687377724194886,,,true,lh,3950.764999952342,response,-1.0003671514840182,1.2,-1.2,0.8992716557663581,1.2,-1.2,low,high,,ISIC_1367610.JPG,,ISIC_0061749.JPG,29,true,0.3600000000000002,lh,keypress(e),0,false,373364.89999997616,373364.7999999523,369397.367,369508.7999999523,369414.035,373264.034,1,40,26,
sequence,flow.Sequence,6_25,2023-11-17T16:37:15.554Z,,,,,,,,,,,3950.764999952342,completion,,,,,,,low,high,,,,,,true,,,,,false,373365,373364.7999999523,369397.367,369508.7999999523,369414.035,373264.034,1,40,,
trial,html.Screen,6_26_0,2023-11-17T16:37:19.585Z,,,,1,-1.1305948371148624,-1.2802709447034604,,,true,hh,4132.165999928489,response,1.0379960130550778,1.2,-1.2,1.261225635141129,1.2,-1.2,high,high,,ISIC_5648111.JPG,,ISIC_0072612.JPG,211,true,0.3300000000000002,hh,keypress(i),0,false,377396.2999999523,377396.1999999285,373247.518,373365.10000002384,373264.034,377297.465,1,40,27,
sequence,flow.Sequence,6_26,2023-11-17T16:37:19.585Z,,,,,,,,,,,4132.165999928489,completion,,,,,,,high,high,,,,,,true,,,,,false,377396.39999997616,377396.1999999285,373247.518,373365.10000002384,373264.034,377297.465,1,40,,
trial,html.Screen,6_27_0,2023-11-17T16:37:23.825Z,,,,1,1.2055236989581275,1.1960893075698802,,,true,ll,4338.9349999761325,response,-1.212030980680325,1.2,-1.2,-1.139863018685685,1.2,-1.2,low,low,,ISIC_0072393.JPG,,ISIC_0008510.JPG,25,true,0.15000000000000002,ll,keypress(f),0,false,381636.5,381636.39999997616,377280.659,377396.39999997616,377297.465,381548.499,1,40,28,
sequence,flow.Sequence,6_27,2023-11-17T16:37:23.825Z,,,,,,,,,,,4338.9349999761325,completion,,,,,,,low,low,,,,,,true,,,,,false,381636.60000002384,381636.39999997616,377280.659,377396.39999997616,377297.465,381548.499,1,40,,
trial,html.Screen,6_28_0,2023-11-17T16:37:29.137Z,,,,1,1.1227373144244253,1.1886610799377713,,,true,ll,5399.601000023831,response,-1.204229955025689,1.2,-1.2,-1.0874249761617445,1.2,-1.2,low,low,,ISIC_0059506.JPG,,ISIC_0056930.JPG,25,true,0.15000000000000002,ll,keypress(f),0,false,386948.1999999285,386948.10000002384,381514.389,381636.6999999285,381548.499,386847.337,1,40,29,
sequence,flow.Sequence,6_28,2023-11-17T16:37:29.137Z,,,,,,,,,,,5399.601000023831,completion,,,,,,,low,low,,,,,,true,,,,,false,386948.2999999523,386948.10000002384,381514.389,381636.6999999285,381548.499,386847.337,1,40,,
trial,html.Screen,6_29_0,2023-11-17T16:37:33.153Z,,,,1,0.9873794329144926,-0.9500689037516484,,,true,lh,4116.562999976159,response,-1.3559315773956395,1.2,-1.2,0.924768326187701,1.2,-1.2,low,high,,ISIC_0013498.JPG,,ISIC_5101111.JPG,29,true,0.3600000000000002,lh,keypress(e),0,false,390964.10000002384,390963.89999997616,386830.792,386948.2999999523,386847.337,390864.009,1,40,30,
sequence,flow.Sequence,6_29,2023-11-17T16:37:33.153Z,,,,,,,,,,,4116.562999976159,completion,,,,,,,low,high,,,,,,true,,,,,false,390964.10000002384,390963.89999997616,386830.792,386948.2999999523,386847.337,390864.009,1,40,,
trial,html.Screen,6_30_0,2023-11-17T16:37:38.065Z,,,,1,-1.0003671514840182,0.8992716557663581,,,false,hl,5012.091000023822,response,1.082730232773217,1.2,-1.2,-0.8833175387485132,1.2,-1.2,high,low,,ISIC_0061749.JPG,,ISIC_0011933.JPG,26,true,0.3300000000000002,hh,keypress(i),0,false,395876.1999999285,395876.10000002384,390847.269,390964.1999999285,390864.009,395781.14,1,40,31,
sequence,flow.Sequence,6_30,2023-11-17T16:37:38.065Z,,,,,,,,,,,5012.091000023822,completion,,,,,,,high,low,,,,,,true,,,,,false,395876.2999999523,395876.10000002384,390847.269,390964.1999999285,390864.009,395781.14,1,40,,
trial,html.Screen,6_31_0,2023-11-17T16:37:44.418Z,,,,1,-1.1305948371148624,-1.2802709447034604,,,true,hh,6447.759999976144,response,1.367614404141952,1.2,-1.2,0.8543483016673109,1.2,-1.2,high,high,,ISIC_5648111.JPG,,ISIC_0053469.JPG,249,true,0.3600000000000002,hh,keypress(i),0,false,402229,402228.89999997616,395764.335,395876.39999997616,395781.14,402130.666,1,40,32,
sequence,flow.Sequence,6_31,2023-11-17T16:37:44.418Z,,,,,,,,,,,6447.759999976144,completion,,,,,,,high,high,,,,,,true,,,,,false,402229,402228.89999997616,395764.335,395876.39999997616,395781.14,402130.666,1,40,,
trial,html.Screen,6_32_0,2023-11-17T16:37:47.777Z,,,,1,1.0264463986917702,-1.171271535505083,,,true,lh,3457.533999928448,response,-1.064425982109969,1.2,-1.2,0.958564243697126,1.2,-1.2,low,high,,ISIC_7889838.JPG,,ISIC_3203344.JPG,29,true,0.3600000000000002,lh,keypress(e),0,false,405588.39999997616,405588.1999999285,402114.269,402229,402130.666,405497.542,1,40,33,
sequence,flow.Sequence,6_32,2023-11-17T16:37:47.777Z,,,,,,,,,,,3457.533999928448,completion,,,,,,,low,high,,,,,,true,,,,,false,405588.5,405588.1999999285,402114.269,402229,402130.666,405497.542,1,40,,
trial,html.Screen,6_33_0,2023-11-17T16:37:55.265Z,,,,1,-0.8534691366511764,1.276663727068437,,,true,hl,7578.558000023826,response,1.2043484010107477,1.2,-1.2,-1.2178113180138233,1.2,-1.2,high,low,,ISIC_0056788.JPG,,ISIC_0011917.JPG,26,true,0.3300000000000002,hl,keypress(j),0,false,413076.2999999523,413076.10000002384,405481.064,405588.5,405497.542,412980.882,1,40,34,
sequence,flow.Sequence,6_33,2023-11-17T16:37:55.265Z,,,,,,,,,,,7578.558000023826,completion,,,,,,,high,low,,,,,,true,,,,,false,413076.5,413076.10000002384,405481.064,405588.5,405497.542,412980.882,1,40,,
trial,html.Screen,6_34_0,2023-11-17T16:37:59.665Z,,,,1,1.2232482867978696,1.2451219760556858,,,true,ll,4495.118000000017,response,-1.2769509660091942,1.2,-1.2,-0.9130965994993906,1.2,-1.2,low,low,,ISIC_0030889.JPG,,ISIC_5822017.JPG,157,true,0.3600000000000002,ll,keypress(f),0,false,417476.1999999285,417476,412964.221,413076.5,412980.882,417380.655,1,40,35,
sequence,flow.Sequence,6_34,2023-11-17T16:37:59.665Z,,,,,,,,,,,4495.118000000017,completion,,,,,,,low,low,,,,,,true,,,,,false,417476.1999999285,417476,412964.221,413076.5,412980.882,417380.655,1,40,,
trial,html.Screen,6_35_0,2023-11-17T16:38:05.074Z,,,,1,1.155796217969438,-1.1646564121743912,,,false,lh,5504.144999952288,response,-1.1224745971429997,1.2,-1.2,0.8423270217438888,1.2,-1.2,low,high,,ISIC_2685523.JPG,,ISIC_0057032.JPG,29,true,0.3600000000000002,hh,keypress(i),0,false,422884.89999997616,422884.7999999523,417364.338,417476.2999999523,417380.655,422780.64,1,40,36,
sequence,flow.Sequence,6_35,2023-11-17T16:38:05.074Z,,,,,,,,,,,5504.144999952288,completion,,,,,,,low,high,,,,,,true,,,,,false,422885,422884.7999999523,417364.338,417476.1999999285,417380.655,422780.64,1,40,,
trial,html.Screen,6_36_0,2023-11-17T16:38:08.993Z,,,,1,-1.0143509683988825,1.0281980567462463,,,true,hl,4023.859999999986,response,1.2704198237183777,1.2,-1.2,-1.138121072015301,1.2,-1.2,high,low,,ISIC_0062031.JPG,,ISIC_0501843.JPG,26,true,0.3300000000000002,hl,keypress(j),0,false,426804.60000002384,426804.5,422764.318,422885.10000002384,422780.64,426714.457,1,40,37,
sequence,flow.Sequence,6_36,2023-11-17T16:38:08.994Z,,,,,,,,,,,4023.859999999986,completion,,,,,,,high,low,,,,,,true,,,,,false,426804.6999999285,426804.5,422764.318,422885,422780.64,426714.457,1,40,,
trial,html.Screen,6_37_0,2023-11-17T16:38:12.834Z,,,,1,1.1783311757907324,1.266840220031473,,,true,ll,3930.643000023847,response,-0.9203094922714854,1.2,-1.2,-1.2983013773851462,1.2,-1.2,low,low,,ISIC_8241457.JPG,,ISIC_6001936.JPG,157,true,0.3600000000000002,ll,keypress(f),0,false,430645.10000002384,430645.10000002384,426697.688,426804.7999999523,426714.457,430547.315,1,40,38,
sequence,flow.Sequence,6_37,2023-11-17T16:38:12.834Z,,,,,,,,,,,3930.643000023847,completion,,,,,,,low,low,,,,,,true,,,,,false,430645.2999999523,430645.10000002384,426697.688,426804.7999999523,426714.457,430547.315,1,40,,
trial,html.Screen,6_38_0,2023-11-17T16:38:18.626Z,,,,1,0.9873794329144926,-0.9500689037516484,,,true,lh,5889.484999952314,response,-1.1235224875125256,1.2,-1.2,0.8641223012137988,1.2,-1.2,low,high,,ISIC_0013498.JPG,,ISIC_0033901.JPG,29,true,0.3600000000000002,lh,keypress(e),0,false,436437,436436.7999999523,430531.009,430645.2999999523,430547.315,436348.1,1,40,39,
sequence,flow.Sequence,6_38,2023-11-17T16:38:18.626Z,,,,,,,,,,,5889.484999952314,completion,,,,,,,low,high,,,,,,true,,,,,false,436437.10000002384,436436.7999999523,430531.009,430645.2999999523,430547.315,436348.1,1,40,,
trial,html.Screen,6_39_0,2023-11-17T16:38:22.898Z,,,,1,-1.225025174430573,0.8422679054456499,,,true,hl,4360.799999976181,response,0.9670240379618178,1.2,-1.2,-1.1806404773220665,1.2,-1.2,high,low,,ISIC_7503950.JPG,,ISIC_0002288.JPG,26,true,0.3300000000000002,hl,keypress(j),0,false,440708.89999997616,440708.89999997616,436313.929,436437.10000002384,436348.1,440614.445,1,40,40,
sequence,flow.Sequence,6_39,2023-11-17T16:38:22.898Z,,,,,,,,,,,4360.799999976181,completion,,,,,,,high,low,,,,,,true,,,,,false,440709.10000002384,440708.89999997616,436313.929,436437.10000002384,436348.1,440614.445,1,40,,
practice_loop,flow.Loop,6,2023-11-17T16:38:22.898Z,,,,,,,,,,,208278.10299997617,completion,,,,,,,,,,,,,,true,,,,,false,440709.10000002384,440708.89999997616,232414.154,232529.5,232430.797,440614.445,1,40,,
stair_instructions,html.Screen,7,2023-11-17T16:38:26.873Z,,,,,,,,,,,4068.8549999523093,response,,,,,,,,,,,,,,,,continue,click button,,,444684,444683.2999999523,440597.682,440709.10000002384,440614.445,444580.643,,,,
trial,html.Screen,8_0_0,2023-11-17T16:38:33.653Z,,,,2,0.0350697500805515,0.0166617848231997,,0.04,true,hh,6883.256999976176,response,1.0931477426281198,1.2,-1.2,0.8421248340065566,1.2,-1.2,high,high,,ISIC_0024423.JPG,,ISIC_0026531.JPG,249,false,0.3600000000000002,hh,keypress(i),0,true,451463.89999997616,451463.89999997616,444564.038,444684.1999999285,444580.643,451380.832,1,40,1,
sequence,flow.Sequence,8_0,2023-11-17T16:38:33.653Z,,,,,,,,,,,6883.256999976176,completion,,,,,,,high,high,,,,,,false,,,,,true,451464.10000002384,451463.89999997616,444564.038,444684.1999999285,444580.643,451380.832,1,40,,
trial,html.Screen,8_1_0,2023-11-17T16:38:40.562Z,,,,2,-0.0365981355399771,-0.0162670920008846,,0.04,false,hh,6992.268000023847,response,1.0441672988386008,1.15,-1.15,1.108916716139547,1.15,-1.15,high,high,,ISIC_0982855.JPG,,ISIC_0063243.JPG,25,false,0.11,ll,keypress(f),0,true,458373.1999999285,458373.10000002384,451364.076,451464.10000002384,451380.832,458281.103,1,40,2,
sequence,flow.Sequence,8_1,2023-11-17T16:38:40.562Z,,,,,,,,,,,6992.268000023847,completion,,,,,,,high,high,,,,,,false,,,,,true,458373.2999999523,458373.10000002384,451364.076,451464.10000002384,451380.832,458281.103,1,40,,
trial,html.Screen,8_2_0,2023-11-17T16:38:46.018Z,,,,2,0.0399381815506136,0.0177751789152893,,0.04,true,ll,5547.997000023839,response,-1.2714351764931109,1.15,-1.15,-1.0785174776187512,1.15,-1.15,low,low,,ISIC_3981425.JPG,,ISIC_2454898.JPG,26,false,0.14,ll,keypress(f),0,true,463829.1999999285,463829.10000002384,458263.744,458373.2999999523,458281.103,463730.705,1,40,3,
sequence,flow.Sequence,8_2,2023-11-17T16:38:46.018Z,,,,,,,,,,,5547.997000023839,completion,,,,,,,low,low,,,,,,false,,,,,true,463829.2999999523,463829.10000002384,458263.744,458373.2999999523,458281.103,463730.705,1,40,,
trial,html.Screen,8_3_0,2023-11-17T16:38:52.161Z,,,,2,-0.0127320821962457,0.0315308940184827,,0.04,false,hl,6241.395000023826,response,1.052305774554686,1.15,-1.15,-1.3940181224717798,1.15,-1.15,high,low,,ISIC_8156101.JPG,,ISIC_4175400.JPG,25,false,0.28000000000000014,hh,keypress(i),0,true,469972.10000002384,469972.10000002384,463714.228,463829.39999997616,463730.705,469880.591,1,40,4,
sequence,flow.Sequence,8_3,2023-11-17T16:38:52.161Z,,,,,,,,,,,6241.395000023826,completion,,,,,,,high,low,,,,,,false,,,,,true,469972.2999999523,469972.10000002384,463714.228,463829.39999997616,463730.705,469880.591,1,40,,
trial,html.Screen,8_4_0,2023-11-17T16:38:57.316Z,,,,2,-0.0086413421586899,-0.0360184993500958,,0.04,true,lh,5246.208999952301,response,-1.3515962101204746,1.15,-1.15,0.8414583575292955,1.15,-1.15,low,high,,ISIC_0010767.JPG,,ISIC_0274382.JPG,27,false,0.31000000000000016,lh,keypress(e),0,true,475126.89999997616,475126.7999999523,469863.988,469972.39999997616,469880.591,475030.742,1,40,5,
sequence,flow.Sequence,8_4,2023-11-17T16:38:57.316Z,,,,,,,,,,,5246.208999952301,completion,,,,,,,low,high,,,,,,false,,,,,true,475127,475126.7999999523,469863.988,469972.2999999523,469880.591,475030.742,1,40,,
trial,html.Screen,8_5_0,2023-11-17T16:39:03.794Z,,,,2,-0.0086413421586899,-0.0360184993500958,,0.04,false,ll,6574.157999976131,response,-1.1802887330422154,1.15,-1.0999999999999999,-1.0224375154810723,1.15,-1.15,low,low,,ISIC_0010767.JPG,,ISIC_9225640.JPG,28,false,0.13,hl,keypress(j),0,true,481605,481604.89999997616,475014.308,475127,475030.742,481514.219,1,40,6,
sequence,flow.Sequence,8_5,2023-11-17T16:39:03.794Z,,,,,,,,,,,6574.157999976131,completion,,,,,,,low,low,,,,,,false,,,,,true,481605.1999999285,481604.89999997616,475014.308,475127,475030.742,481514.219,1,40,,
trial,html.Screen,8_6_0,2023-11-17T16:39:09.201Z,,,,2,0.012810673904807,-0.00400964452501,,0.04,true,ll,5497.680999976175,response,-1.1510001454240106,1.15,-1.15,-1.132540312667795,1.15,-1.15,low,low,,ISIC_0064656.JPG,,ISIC_0009959.JPG,26,false,0.14,ll,keypress(f),0,true,487012,487011.89999997616,481497.548,481605.1999999285,481514.219,486914.04,1,40,7,
sequence,flow.Sequence,8_6,2023-11-17T16:39:09.201Z,,,,,,,,,,,5497.680999976175,completion,,,,,,,low,low,,,,,,false,,,,,true,487012.10000002384,487011.89999997616,481497.548,481605.1999999285,481514.219,486914.04,1,40,,
trial,html.Screen,8_7_0,2023-11-17T16:39:15.282Z,,,,2,-0.0327772618698018,0.0056908372048728,,0.04,false,ll,6178.759999952337,response,-1.1510001454240106,1.15,-1.15,-1.132540312667795,1.15,-1.0917702290459028,low,low,,ISIC_7897925.JPG,,ISIC_0009959.JPG,26,false,0.13,hl,keypress(j),0,true,493092.89999997616,493092.7999999523,486897.32,487012.1999999285,486914.04,492997.408,1,40,8,
sequence,flow.Sequence,8_7,2023-11-17T16:39:15.282Z,,,,,,,,,,,6178.759999952337,completion,,,,,,,low,low,,,,,,false,,,,,true,493092.89999997616,493092.7999999523,486897.32,487012.1999999285,486914.04,492997.408,1,40,,
trial,html.Screen,8_8_0,2023-11-17T16:39:18.545Z,,,,2,0.0077673378094614,0.0021810768579373,,0.04,true,lh,3358.4919999761623,response,-1.2838089642212804,1.15,-1.15,0.8550527900640753,1.15,-1.0917702290459028,low,high,,ISIC_0067621.JPG,,ISIC_0034187.JPG,27,false,0.31000000000000016,lh,keypress(e),0,true,496356.10000002384,496355.89999997616,492980.531,493093.10000002384,492997.408,496264.42,1,40,9,
sequence,flow.Sequence,8_8,2023-11-17T16:39:18.545Z,,,,,,,,,,,3358.4919999761623,completion,,,,,,,low,high,,,,,,false,,,,,true,496356.1999999285,496355.89999997616,492980.531,493093.10000002384,492997.408,496264.42,1,40,,
trial,html.Screen,8_9_0,2023-11-17T16:39:23.169Z,,,,2,0.0399381815506136,0.0177751789152893,,0.04,false,hl,4716.080000000016,response,1.1592423187534993,1.15,-1.15,-1.067128884093211,1.0999999999999999,-1.0917702290459028,high,low,,ISIC_3981425.JPG,,ISIC_6854940.JPG,25,false,0.28000000000000014,hh,keypress(i),0,true,500980.60000002384,500980.5,496247.652,496356.1999999285,496264.42,500880.608,1,40,10,
sequence,flow.Sequence,8_9,2023-11-17T16:39:23.170Z,,,,,,,,,,,4716.080000000016,completion,,,,,,,high,low,,,,,,false,,,,,true,500980.6999999285,500980.5,496247.652,496356.1999999285,496264.42,500880.608,1,40,,
trial,html.Screen,8_10_0,2023-11-17T16:39:28.146Z,,,,2,0.0071892445601978,-0.0246015408628738,,0.04,true,lh,5076.091999928467,response,-1.11329866545753,1.0999999999999999,-1.15,1.2155631217348757,1.0999999999999999,-1.1417702290459029,low,high,,ISIC_0014133.JPG,,ISIC_0032610.JPG,26,false,0.29000000000000015,lh,keypress(e),0,true,505956.7999999523,505956.6999999285,500864.28,500980.7999999523,500880.608,505864.408,1,40,11,
sequence,flow.Sequence,8_10,2023-11-17T16:39:28.146Z,,,,,,,,,,,5076.091999928467,completion,,,,,,,low,high,,,,,,false,,,,,true,505956.89999997616,505956.6999999285,500864.28,500980.7999999523,500880.608,505864.408,1,40,,
trial,html.Screen,8_11_0,2023-11-17T16:39:31.890Z,,,,2,0.0060918352854008,-0.029032683404407,,0.04,true,lh,3836.592000000004,response,-1.2838089642212804,1.0999999999999999,-1.0999999999999999,0.8550527900640753,1.0999999999999999,-1.1417702290459029,low,high,,ISIC_8436194.JPG,,ISIC_0034187.JPG,26,false,0.2600000000000001,lh,keypress(e),0,true,509701.1999999285,509701,505847.206,505956.89999997616,505864.408,509597.26,1,40,12,
sequence,flow.Sequence,8_11,2023-11-17T16:39:31.890Z,,,,,,,,,,,3836.592000000004,completion,,,,,,,low,high,,,,,,false,,,,,true,509701.2999999523,509701,505847.206,505956.89999997616,505864.408,509597.26,1,40,,
trial,html.Screen,8_12_0,2023-11-17T16:39:36.146Z,,,,2,0.0118555311043871,0.0087774532070196,,0.04,false,ll,4359.539999952307,response,-1.204229955025689,1.0999999999999999,-1.0999999999999999,-1.0874249761617445,1.0499999999999998,-1.1417702290459029,low,low,,ISIC_6488658.JPG,,ISIC_0056930.JPG,26,false,0.12,hh,keypress(i),0,true,513956.89999997616,513956.7999999523,509580.681,509701.2999999523,509597.26,513864.102,1,40,13,
sequence,flow.Sequence,8_12,2023-11-17T16:39:36.146Z,,,,,,,,,,,4359.539999952307,completion,,,,,,,low,low,,,,,,false,,,,,true,513957.10000002384,513956.7999999523,509580.681,509701.2999999523,509597.26,513864.102,1,40,,
trial,html.Screen,8_13_0,2023-11-17T16:39:41.905Z,,,,2,-0.0367218428225813,0.0026956749740767,,0.04,false,ll,5851.597999928461,response,-1.1513073368404492,1.0999999999999999,-1.15,-1.0485268550965705,1.0499999999999998,-1.191770229045903,low,low,,ISIC_7212271.JPG,,ISIC_0030666.JPG,28,false,0.15000000000000002,lh,keypress(e),0,true,519715.7999999523,519715.6999999285,513847.632,513957.10000002384,513864.102,519613.956,1,40,14,
sequence,flow.Sequence,8_13,2023-11-17T16:39:41.905Z,,,,,,,,,,,5851.597999928461,completion,,,,,,,low,low,,,,,,false,,,,,true,519715.89999997616,519715.6999999285,513847.632,513957.10000002384,513864.102,519613.956,1,40,,
trial,html.Screen,8_14_0,2023-11-17T16:39:44.882Z,,,,2,-0.010035581303589,0.0100711721396864,,0.04,true,lh,3078.743999928469,response,-1.3411487193830047,1.0999999999999999,-1.15,1.198640448317381,1.0499999999999998,-1.191770229045903,low,high,,ISIC_0030592.JPG,,ISIC_3093026.JPG,26,false,0.27000000000000013,lh,keypress(e),0,true,522692.7999999523,522692.6999999285,519597.131,519715.89999997616,519613.956,522597.287,1,40,15,
sequence,flow.Sequence,8_14,2023-11-17T16:39:44.882Z,,,,,,,,,,,3078.743999928469,completion,,,,,,,low,high,,,,,,false,,,,,true,522692.89999997616,522692.6999999285,519597.131,519715.89999997616,519613.956,522597.287,1,40,,
trial,html.Screen,8_15_0,2023-11-17T16:39:48.098Z,,,,2,-0.0365981355399771,-0.0162670920008846,,0.04,false,hl,3311.612999976147,response,0.8787496315223856,1.0999999999999999,-1.0999999999999999,-1.3680901203013998,1.0499999999999998,-1.191770229045903,high,low,,ISIC_0982855.JPG,,ISIC_0023811.JPG,27,false,0.27000000000000013,hh,keypress(i),0,true,525909.1000000238,525908.8999999762,522580.64,522692.89999997616,522597.287,525814.127,1,40,16,
sequence,flow.Sequence,8_15,2023-11-17T16:39:48.098Z,,,,,,,,,,,3311.612999976147,completion,,,,,,,high,low,,,,,,false,,,,,true,525909.1999999285,525908.8999999762,522580.64,522692.89999997616,522597.287,525814.127,1,40,,
trial,html.Screen,8_16_0,2023-11-17T16:39:52.865Z,,,,2,0.0050679133050021,0.0174815595031679,,0.04,false,hh,4862.27299997618,response,1.0103956367534752,1.0999999999999999,-1.0999999999999999,0.9950817758087226,1.0499999999999998,-1.191770229045903,high,high,,ISIC_9848743.JPG,,ISIC_0025267.JPG,28,false,0.1,lh,keypress(e),0,true,530676.5,530676.3999999762,525797.658,525909.1999999285,525814.127,530581.057,1,40,17,
sequence,flow.Sequence,8_16,2023-11-17T16:39:52.865Z,,,,,,,,,,,4862.27299997618,completion,,,,,,,high,high,,,,,,false,,,,,true,530676.5,530676.3999999762,525797.658,525909.1999999285,525814.127,530581.057,1,40,,
trial,html.Screen,8_17_0,2023-11-17T16:39:57.570Z,,,,2,0.0166849894750452,-0.0371614812368835,,0.04,true,hh,4799.842999976128,response,1.1399925754091549,1.15,-1.0999999999999999,0.92577667404992,0.8869157036655541,-1.191770229045903,high,high,,ISIC_6231450.JPG,,ISIC_7331345.JPG,28,false,0.1,hh,keypress(i),0,true,535381,535380.8999999762,530563.978,530676.6000000238,530581.057,535280.729,1,40,18,
sequence,flow.Sequence,8_17,2023-11-17T16:39:57.570Z,,,,,,,,,,,4799.842999976128,completion,,,,,,,high,high,,,,,,false,,,,,true,535381.1000000238,535380.8999999762,530563.978,530676.6000000238,530581.057,535280.729,1,40,,
trial,html.Screen,8_18_0,2023-11-17T16:40:02.945Z,,,,2,-0.0199897690678184,-0.0312486875504497,,0.04,true,hh,5475.470999928424,response,1.2268183254476466,1.15,-1.0999999999999999,0.8828399683080101,0.8869157036655541,-1.191770229045903,high,high,,ISIC_5482426.JPG,,ISIC_0053541.JPG,28,false,0.1,hh,keypress(i),0,true,540756.2999999523,540756.1999999285,535264.002,535381.1000000238,535280.729,540664.381,1,40,19,
sequence,flow.Sequence,8_18,2023-11-17T16:40:02.945Z,,,,,,,,,,,5475.470999928424,completion,,,,,,,high,high,,,,,,false,,,,,true,540756.3999999762,540756.1999999285,535264.002,535381.1000000238,535280.729,540664.381,1,40,,
trial,html.Screen,8_19_0,2023-11-17T16:40:06.626Z,,,,2,0.0399381815506136,0.0177751789152893,,0.04,true,lh,3772.118999999948,response,-0.9464722688210522,0.854308321178965,-1.0999999999999999,0.7779875773283346,0.854308321178965,-1.191770229045903,low,high,,ISIC_3981425.JPG,,ISIC_5926550.JPG,25,false,0.19000000000000006,lh,keypress(e),0,true,544436.6000000238,544436.5,540647.591,540756.5,540664.381,544347.635,1,40,20,
sequence,flow.Sequence,8_19,2023-11-17T16:40:06.626Z,,,,,,,,,,,3772.118999999948,completion,,,,,,,low,high,,,,,,false,,,,,true,544436.6999999285,544436.5,540647.591,540756.3999999762,540664.381,544347.635,1,40,,
trial,html.Screen,8_20_0,2023-11-17T16:40:10.465Z,,,,2,-0.0189295602385628,-0.0128812415435153,,0.04,true,hl,3928.664999952307,response,0.6800290589484806,0.854308321178965,-1.0999999999999999,-1.2806277136291266,0.854308321178965,-1.191770229045903,high,low,,ISIC_0010372.JPG,,ISIC_7236842.JPG,27,false,0.19000000000000006,hl,keypress(j),0,true,548276.3999999762,548276.2999999523,544314.063,544436.6999999285,544347.635,548180.775,1,40,21,
sequence,flow.Sequence,8_20,2023-11-17T16:40:10.465Z,,,,,,,,,,,3928.664999952307,completion,,,,,,,high,low,,,,,,false,,,,,true,548276.5,548276.2999999523,544314.063,544436.6999999285,544347.635,548180.775,1,40,,
trial,html.Screen,8_21_0,2023-11-17T16:40:15.010Z,,,,2,-0.0321039635696159,-0.020496766286318,,0.04,false,lh,4639.924999928451,response,-1.0280476560198826,0.854308321178965,-1.0999999999999999,0.6974827878634468,0.854308321178965,-1.191770229045903,low,high,,ISIC_0058063.JPG,,ISIC_0060033.JPG,25,false,0.19000000000000006,ll,keypress(f),0,true,552820.7999999523,552820.6999999285,548164.018,548276.5,548180.775,552731.046,1,40,22,
sequence,flow.Sequence,8_21,2023-11-17T16:40:15.010Z,,,,,,,,,,,4639.924999928451,completion,,,,,,,low,high,,,,,,false,,,,,true,552820.8999999762,552820.6999999285,548164.018,548276.5,548180.775,552731.046,1,40,,
trial,html.Screen,8_22_0,2023-11-17T16:40:20.465Z,,,,2,0.0060934073440827,0.0279108145883031,,0.04,true,ll,5545.054000023869,response,-1.02671179315839,0.854308321178965,-1.1043376848245046,-1.232411858241539,0.9043083211789651,-1.191770229045903,low,low,,ISIC_0032604.JPG,,ISIC_7779155.JPG,26,false,0.13,ll,keypress(f),0,true,558276.1999999285,558276.1000000238,552713.975,552821,552731.046,558180.755,1,40,23,
sequence,flow.Sequence,8_22,2023-11-17T16:40:20.465Z,,,,,,,,,,,5545.054000023869,completion,,,,,,,low,low,,,,,,false,,,,,true,558276.2999999523,558276.1000000238,552713.975,552820.8999999762,552731.046,558180.755,1,40,,
trial,html.Screen,8_23_0,2023-11-17T16:40:25.105Z,,,,2,-0.0367218428225813,0.0026956749740767,,0.04,true,lh,4735.544999952312,response,-0.9445114955578736,0.854308321178965,-1.1043376848245046,1.0054210059625863,0.9043083211789651,-1.0795618256999646,low,high,,ISIC_7212271.JPG,,ISIC_0033807.JPG,25,false,0.20000000000000007,lh,keypress(e),0,true,562916.2999999523,562916.2999999523,558164.207,558276.2999999523,558180.755,562813.921,1,40,24,
sequence,flow.Sequence,8_23,2023-11-17T16:40:25.105Z,,,,,,,,,,,4735.544999952312,completion,,,,,,,low,high,,,,,,false,,,,,true,562916.3999999762,562916.2999999523,558164.207,558276.2999999523,558180.755,562813.921,1,40,,
trial,html.Screen,8_24_0,2023-11-17T16:40:28.049Z,,,,2,-0.0127320821962457,0.0315308940184827,,0.04,false,ll,3046.3789999523433,response,-1.1604734171556077,0.854308321178965,-1.0543376848245045,-1.0789312625280616,0.9043083211789651,-1.0795618256999646,low,low,,ISIC_8156101.JPG,,ISIC_3950753.JPG,30,false,0.13,lh,keypress(e),0,true,565860.3999999762,565860.2999999523,562797.131,562916.3999999762,562813.921,565764.372,1,40,25,
sequence,flow.Sequence,8_24,2023-11-17T16:40:28.049Z,,,,,,,,,,,3046.3789999523433,completion,,,,,,,low,low,,,,,,false,,,,,true,565860.5,565860.2999999523,562797.131,562916.3999999762,562813.921,565764.372,1,40,,
trial,html.Screen,8_25_0,2023-11-17T16:40:33.570Z,,,,2,0.0060934073440827,0.0279108145883031,,0.04,false,hh,5616.527999976184,response,0.9009408285331614,0.854308321178965,-1.0543376848245045,0.8985422901220989,0.9043083211789651,-1.1295618256999647,high,high,,ISIC_0032604.JPG,,ISIC_0033834.JPG,51,false,0.1,ll,keypress(f),0,true,571381,571380.8999999762,565747.194,565860.6000000238,565764.372,571280.567,1,40,26,
sequence,flow.Sequence,8_25,2023-11-17T16:40:33.570Z,,,,,,,,,,,5616.527999976184,completion,,,,,,,high,high,,,,,,false,,,,,true,571381.1000000238,571380.8999999762,565747.194,565860.6000000238,565764.372,571280.567,1,40,,
trial,html.Screen,8_26_0,2023-11-17T16:40:37.345Z,,,,2,0.0158987717472563,0.0292472192292015,,0.04,true,hl,3875.732999952277,response,0.9212323139676136,0.9043083211789651,-1.0543376848245045,-0.9882196642247332,0.9543083211789651,-1.1295618256999647,high,low,,ISIC_1366765.JPG,,ISIC_0014255.JPG,25,false,0.18000000000000005,hl,keypress(j),0,true,575156.3999999762,575156.2999999523,571264.175,571381.1999999285,571280.567,575064.021,1,40,27,
sequence,flow.Sequence,8_26,2023-11-17T16:40:37.345Z,,,,,,,,,,,3875.732999952277,completion,,,,,,,high,low,,,,,,false,,,,,true,575156.5,575156.2999999523,571264.175,571381.1999999285,571280.567,575064.021,1,40,,
trial,html.Screen,8_27_0,2023-11-17T16:40:41.234Z,,,,2,0.0060918352854008,-0.029032683404407,,0.04,true,hh,3980.9790000000503,response,0.9263931440503964,0.9043083211789651,-1.0543376848245045,0.96519839238634,0.9543083211789651,-1.1295618256999647,high,high,,ISIC_8436194.JPG,,ISIC_0053617.JPG,49,false,0.1,hh,keypress(i),0,true,579045.1000000238,579045,575047.593,575156.5,575064.021,578947.34,1,40,28,
sequence,flow.Sequence,8_27,2023-11-17T16:40:41.234Z,,,,,,,,,,,3980.9790000000503,completion,,,,,,,high,high,,,,,,false,,,,,true,579045.1999999285,579045,575047.593,575156.5,575064.021,578947.34,1,40,,
trial,html.Screen,8_28_0,2023-11-17T16:40:46.962Z,,,,2,0.0118555311043871,0.0087774532070196,,0.04,true,hl,5825.459999952349,response,0.7782962657329482,0.8957957682183681,-1.0543376848245045,-1.2893909821621488,0.9543083211789651,-1.1295618256999647,high,low,,ISIC_6488658.JPG,,ISIC_0012883.JPG,25,false,0.19000000000000006,hl,keypress(j),0,true,584773,584772.7999999523,578930.72,579045.1999999285,578947.34,584681.029,1,40,29,
sequence,flow.Sequence,8_28,2023-11-17T16:40:46.962Z,,,,,,,,,,,5825.459999952349,completion,,,,,,,high,low,,,,,,false,,,,,true,584773.1000000238,584772.7999999523,578930.72,579045.1999999285,578947.34,584681.029,1,40,,
trial,html.Screen,8_29_0,2023-11-17T16:40:52.498Z,,,,2,0.00126575685933,0.0325046559638838,,0.04,true,lh,5627.870999976178,response,-0.849847885203758,0.8957957682183681,-1.0543376848245045,0.973447384095442,0.9543083211789651,-1.0795618256999646,low,high,,ISIC_5682259.JPG,,ISIC_9612228.JPG,25,false,0.21000000000000008,lh,keypress(e),0,true,590309,590308.8999999762,584664.15,584773.1000000238,584681.029,590214.37,1,40,30,
sequence,flow.Sequence,8_29,2023-11-17T16:40:52.498Z,,,,,,,,,,,5627.870999976178,completion,,,,,,,low,high,,,,,,false,,,,,true,590309.1999999285,590308.8999999762,584664.15,584773.1000000238,584681.029,590214.37,1,40,,
trial,html.Screen,8_30_0,2023-11-17T16:40:55.474Z,,,,2,0.0399381815506136,0.0177751789152893,,0.04,true,lh,3070.1300000000047,response,-0.9464722688210522,0.8957957682183681,-1.0043376848245045,0.7779875773283346,0.825871824914195,-1.0795618256999646,low,high,,ISIC_3981425.JPG,,ISIC_5926550.JPG,28,false,0.16000000000000003,lh,keypress(e),0,true,593284.6000000238,593284.5,590197.068,590309.1999999285,590214.37,593180.543,1,40,31,
sequence,flow.Sequence,8_30,2023-11-17T16:40:55.474Z,,,,,,,,,,,3070.1300000000047,completion,,,,,,,low,high,,,,,,false,,,,,true,593284.6999999285,593284.5,590197.068,590309.1999999285,590214.37,593180.543,1,40,,
trial,html.Screen,8_31_0,2023-11-17T16:40:58.354Z,,,,2,0.0399381815506136,0.0177751789152893,,0.04,true,hl,2984.2569999523694,response,0.8035152873995188,0.8957957682183681,-1.0043376848245045,-1.2407642249743125,0.825871824914195,-1.0795618256999646,high,low,,ISIC_3981425.JPG,,ISIC_0010671.JPG,25,false,0.18000000000000005,hl,keypress(j),0,true,596164.8999999762,596164.7999999523,593164.037,593284.6999999285,593180.543,596063.98,1,40,32,
sequence,flow.Sequence,8_31,2023-11-17T16:40:58.354Z,,,,,,,,,,,2984.2569999523694,completion,,,,,,,high,low,,,,,,false,,,,,true,596165.1000000238,596164.7999999523,593164.037,593284.6999999285,593180.543,596063.98,1,40,,
trial,html.Screen,8_32_0,2023-11-17T16:41:01.585Z,,,,2,0.0118555311043871,0.0087774532070196,,0.04,true,hh,3332.319999952335,response,0.8692470248725759,0.8457957682183681,-1.0043376848245045,0.7784225554924126,0.825871824914195,-1.0795618256999646,high,high,,ISIC_6488658.JPG,,ISIC_0047003.JPG,56,false,0.1,hh,keypress(i),0,true,599396.2999999523,599396.2999999523,596047.626,596165.1000000238,596063.98,599297.376,1,40,33,
sequence,flow.Sequence,8_32,2023-11-17T16:41:01.585Z,,,,,,,,,,,3332.319999952335,completion,,,,,,,high,high,,,,,,false,,,,,true,599396.5,599396.2999999523,596047.626,596165.1000000238,596063.98,599297.376,1,40,,
trial,html.Screen,8_33_0,2023-11-17T16:41:06.386Z,,,,2,0.0050679133050021,0.0174815595031679,,0.04,true,hl,4899.1239999999525,response,0.9670240379618178,0.8457957682183681,-1.0043376848245045,-1.1806404773220665,0.7738347901824942,-1.0795618256999646,high,low,,ISIC_9848743.JPG,,ISIC_0002288.JPG,28,false,0.17000000000000004,hl,keypress(j),0,true,604196.6000000238,604196.5,599280.519,599396.5,599297.376,604097.338,1,40,34,
sequence,flow.Sequence,8_33,2023-11-17T16:41:06.386Z,,,,,,,,,,,4899.1239999999525,completion,,,,,,,high,low,,,,,,false,,,,,true,604196.6999999285,604196.5,599280.519,599396.5,599297.376,604097.338,1,40,,
trial,html.Screen,8_34_0,2023-11-17T16:41:09.970Z,,,,2,0.0166849894750452,-0.0371614812368835,,0.04,false,hl,3683.4619999523275,response,0.6691956703601462,0.7957957682183681,-1.0043376848245045,-0.9155564240089548,0.7738347901824942,-1.0295618256999646,high,low,,ISIC_6231450.JPG,,ISIC_0010581.JPG,30,false,0.14,hh,keypress(i),0,true,607780.7999999523,607780.7999999523,604080.845,604196.6999999285,604097.338,607680.56,1,40,35,
sequence,flow.Sequence,8_34,2023-11-17T16:41:09.970Z,,,,,,,,,,,3683.4619999523275,completion,,,,,,,high,low,,,,,,false,,,,,true,607780.8999999762,607780.7999999523,604080.845,604196.6999999285,604097.338,607680.56,1,40,,
trial,html.Screen,8_35_0,2023-11-17T16:41:13.857Z,,,,2,-0.0086413421586899,-0.0360184993500958,,0.04,false,ll,3987.540000023786,response,-1.0581281450494728,0.7957957682183681,-1.0043376848245045,-1.133169116569424,0.7738347901824942,-1.0795618256999646,low,low,,ISIC_0010767.JPG,,ISIC_5490352.JPG,30,false,0.13,lh,keypress(e),0,true,611668.1000000238,611668.1000000238,607664.234,607780.8999999762,607680.56,611563.847,1,40,36,
sequence,flow.Sequence,8_35,2023-11-17T16:41:13.857Z,,,,,,,,,,,3987.540000023786,completion,,,,,,,low,low,,,,,,false,,,,,true,611668.2999999523,611668.1000000238,607664.234,607780.8999999762,607680.56,611563.847,1,40,,
trial,html.Screen,8_36_0,2023-11-17T16:41:17.265Z,,,,2,0.012020985739544,-0.0126097407389903,,0.04,true,hh,3512.4529999523656,response,0.7933149635889316,0.7957957682183681,-0.9543376848245044,0.7905025647917798,0.7738347901824942,-1.1295618256999647,high,high,,ISIC_0069379.JPG,,ISIC_0062463.JPG,62,false,0.1,hh,keypress(i),0,true,615076.3999999762,615076.2999999523,611547.545,611668.2999999523,611563.847,614980.714,1,40,37,
sequence,flow.Sequence,8_36,2023-11-17T16:41:17.265Z,,,,,,,,,,,3512.4529999523656,completion,,,,,,,high,high,,,,,,false,,,,,true,615076.5,615076.2999999523,611547.545,611668.2999999523,611563.847,614980.714,1,40,,
trial,html.Screen,8_37_0,2023-11-17T16:41:21.362Z,,,,2,-0.0367218428225813,0.0026956749740767,,0.04,true,hh,4192.185999976122,response,0.7761446033371556,0.7419087641903557,-0.9543376848245044,0.6792492057363021,0.7738347901824942,-1.1295618256999647,high,high,,ISIC_7212271.JPG,,ISIC_0068897.JPG,60,false,0.1,hh,keypress(i),0,true,619173,619172.8999999762,614963.821,615076.5,614980.714,619081.012,1,40,38,
sequence,flow.Sequence,8_37,2023-11-17T16:41:21.362Z,,,,,,,,,,,4192.185999976122,completion,,,,,,,high,high,,,,,,false,,,,,true,619173.1000000238,619172.8999999762,614963.821,615076.5,614980.714,619081.012,1,40,,
trial,html.Screen,8_38_0,2023-11-17T16:41:25.665Z,,,,2,0.012020985739544,-0.0126097407389903,,0.04,true,ll,4395.1879999284865,response,-1.0581281450494728,0.7419087641903557,-0.9543376848245044,-1.133169116569424,0.6776969045367288,-1.1295618256999647,low,low,,ISIC_0069379.JPG,,ISIC_5490352.JPG,32,false,0.11,ll,keypress(f),0,true,623476.2999999523,623476.1999999285,619064.224,619173.1000000238,619081.012,623380.644,1,40,39,
sequence,flow.Sequence,8_38,2023-11-17T16:41:25.665Z,,,,,,,,,,,4395.1879999284865,completion,,,,,,,low,low,,,,,,false,,,,,true,623476.3999999762,623476.1999999285,619064.224,619173.1000000238,619081.012,623380.644,1,40,,
trial,html.Screen,8_39_0,2023-11-17T16:41:29.874Z,,,,2,0.012020985739544,-0.0126097407389903,,0.04,true,hl,4304.255999976187,response,0.7450700429395554,0.7419087641903557,-0.9543376848245044,-1.1659665266603083,0.6776969045367288,-1.1295618256999647,high,low,,ISIC_0069379.JPG,,ISIC_3736075.JPG,25,false,0.14,hl,keypress(j),0,true,627684.8999999762,627684.8999999762,623363.75,623476.5,623380.644,627580.525,1,40,40,
sequence,flow.Sequence,8_39,2023-11-17T16:41:29.874Z,,,,,,,,,,,4304.255999976187,completion,,,,,,,high,low,,,,,,false,,,,,true,627685.1000000238,627684.8999999762,623363.75,623476.5,623380.644,627580.525,1,40,,
stair_loop,flow.Loop,8,2023-11-17T16:41:29.874Z,,,,,,,,,,,183104.25699997618,completion,,,,,,,,,,,,,,false,,,,,true,627685.1000000238,627684.8999999762,444564.038,444684.10000002384,444580.643,627580.525,1,40,,
exp_instructions,html.Screen,9,2023-11-17T16:41:36.162Z,,,,,,,,,,,6391.774999952293,response,,,,,,,,,,,,,,,,continue,keypress(Space),,,633972.7999999523,633972.2999999523,627563.916,627685.1000000238,627580.525,633880.739,,,,
trial,html.Screen,10_0_0,2023-11-17T16:41:46.180Z,,,,1,-0.0367218428225813,0.0026956749740767,,0.04,false,lh,10109.861000023899,response,-1.0140243022958364,0.8411177387984052,-1.0289039163420544,0.7084305941404812,0.8422633223259082,-1.1138930862018557,low,high,,ISIC_7212271.JPG,8,ISIC_0014946.JPG,27,false,0.17000000000000004,hh,keypress(i),0,false,643990.6999999285,643990.6000000238,633864.073,633972.8999999762,633880.739,643897.241,4,500,1,
break,html.Screen,10_0_1,2023-11-17T16:41:46.180Z,,,,,,,,,,,NaN,,,,,,,,low,high,,,,,,false,,,,,false,643991.1999999285,643991,,643990.7999999523,,643897.241,4,500,,
break_continue,html.Screen,10_0_2,2023-11-17T16:41:46.180Z,,,,,,,,,,,NaN,,,,,,,,low,high,,,,,,false,,,,,false,643991.3999999762,643991.2999999523,,643991.1999999285,,643897.241,4,500,,
sequence,flow.Sequence,10_0,2023-11-17T16:41:46.180Z,,,,,,,,,,,10110.560999952373,completion,,,,,,,low,high,,,,,,false,,,,,false,643991.3999999762,643991.2999999523,633864.073,633972.7999999523,633880.739,643897.241,4,500,,
trial,html.Screen,10_1_0,2023-11-17T16:41:49.394Z,,,,1,0.012020985739544,-0.0126097407389903,,0.04,false,hh,3307.4589999284362,response,0.8121377641994781,0.8411177387984052,-1.0289039163420544,0.9325200951609898,0.8422633223259082,-1.1138930862018557,high,high,,ISIC_0069379.JPG,9,ISIC_9363106.JPG,53,false,0.1,hl,keypress(j),0,false,647204.7999999523,647204.6999999285,643880.511,643991.6000000238,643897.241,647114.131,4,500,2,
break,html.Screen,10_1_1,2023-11-17T16:41:49.394Z,,,,,,,,,,,NaN,,,,,,,,high,high,,,,,,false,,,,,false,647205.1999999285,647205.1000000238,,647204.8999999762,,647114.131,4,500,,
break_continue,html.Screen,10_1_2,2023-11-17T16:41:49.394Z,,,,,,,,,,,NaN,,,,,,,,high,high,,,,,,false,,,,,false,647205.3999999762,647205.2999999523,,647205.1999999285,,647114.131,4,500,,
sequence,flow.Sequence,10_1,2023-11-17T16:41:49.394Z,,,,,,,,,,,3308.058999952278,completion,,,,,,,high,high,,,,,,false,,,,,false,647205.5,647205.2999999523,643880.511,643991.5,643897.241,647114.131,4,500,,
trial,html.Screen,10_2_0,2023-11-17T16:41:53.745Z,,,,1,0.0377791839943904,-0.0227626648172468,,0.04,true,hh,4442.068999928422,response,0.9303292478996148,0.8411177387984052,-1.0289039163420544,0.8099604275482958,0.8422633223259082,-1.1138930862018557,high,high,,ISIC_7167479.JPG,10,ISIC_0068580.JPG,53,false,0.1,hh,keypress(i),0,false,651556.2999999523,651556.1999999285,647097.586,647205.5,647114.131,651464.306,4,500,3,
break,html.Screen,10_2_1,2023-11-17T16:41:53.746Z,,,,,,,,,,,NaN,,,,,,,,high,high,,,,,,false,,,,,false,651556.5,651556.5,,651556.3999999762,,651464.306,4,500,,
break_continue,html.Screen,10_2_2,2023-11-17T16:41:53.746Z,,,,,,,,,,,NaN,,,,,,,,high,high,,,,,,false,,,,,false,651556.7999999523,651556.6999999285,,651556.6999999285,,651464.306,4,500,,
sequence,flow.Sequence,10_2,2023-11-17T16:41:53.746Z,,,,,,,,,,,4442.568999928422,completion,,,,,,,high,high,,,,,,false,,,,,false,651556.7999999523,651556.6999999285,647097.586,647205.5,647114.131,651464.306,4,500,,
trial,html.Screen,10_3_0,2023-11-17T16:41:58.738Z,,,,1,-0.010035581303589,0.0100711721396864,,0.04,false,lh,5084.694000000018,response,-1.064425982109969,0.8411177387984052,-1.0289039163420544,0.958564243697126,0.8422633223259082,-1.1138930862018557,low,high,,ISIC_0030592.JPG,8,ISIC_3203344.JPG,27,false,0.17000000000000004,ll,keypress(f),0,false,656549.1000000238,656549,651447.086,651556.7999999523,651464.306,656447.238,4,500,4,
break,html.Screen,10_3_1,2023-11-17T16:41:58.738Z,,,,,,,,,,,NaN,,,,,,,,low,high,,,,,,false,,,,,false,656549.3999999762,656549.3999999762,,656549.1999999285,,656447.238,4,500,,
break_continue,html.Screen,10_3_2,2023-11-17T16:41:58.739Z,,,,,,,,,,,NaN,,,,,,,,low,high,,,,,,false,,,,,false,656549.6000000238,656549.5,,656549.3999999762,,656447.238,4,500,,
sequence,flow.Sequence,10_3,2023-11-17T16:41:58.739Z,,,,,,,,,,,5085.194000000018,completion,,,,,,,low,high,,,,,,false,,,,,false,656549.6000000238,656549.5,651447.086,651556.7999999523,651464.306,656447.238,4,500,,
trial,html.Screen,10_4_0,2023-11-17T16:42:01.938Z,,,,1,0.0071892445601978,-0.0246015408628738,,0.04,false,ll,3301.661999976146,response,-0.9520649807922285,0.8411177387984052,-1.0289039163420544,-1.2060773672502134,0.8422633223259082,-1.1138930862018557,low,low,,ISIC_0014133.JPG,10,ISIC_9439742.JPG,28,false,0.13,hl,keypress(j),0,false,659748.8999999762,659748.8999999762,656430.867,656549.6999999285,656447.238,659647.168,4,500,5,
break,html.Screen,10_4_1,2023-11-17T16:42:01.938Z,,,,,,,,,,,NaN,,,,,,,,low,low,,,,,,false,,,,,false,659749.2999999523,659749.1000000238,,659749,,659647.168,4,500,,
break_continue,html.Screen,10_4_2,2023-11-17T16:42:01.939Z,,,,,,,,,,,NaN,,,,,,,,low,low,,,,,,false,,,,,false,659749.5,659749.3999999762,,659749.2999999523,,659647.168,4,500,,
sequence,flow.Sequence,10_4,2023-11-17T16:42:01.939Z,,,,,,,,,,,3302.161999976146,completion,,,,,,,low,low,,,,,,false,,,,,false,659749.6000000238,659749.3999999762,656430.867,656549.6999999285,656447.238,659647.168,4,500,,
trial,html.Screen,10_5_0,2023-11-17T16:42:07.202Z,,,,1,-0.0127320821962457,0.0315308940184827,,0.04,false,ll,5365.432000023895,response,-1.0885984639975343,0.8411177387984052,-1.0289039163420544,-1.2042618719491294,0.8422633223259082,-1.1138930862018557,low,low,,ISIC_8156101.JPG,8,ISIC_0012740.JPG,28,false,0.13,lh,keypress(e),0,false,665012.6999999285,665012.6000000238,659630.919,659749.6000000238,659647.168,664913.978,4,500,6,
break,html.Screen,10_5_1,2023-11-17T16:42:07.202Z,,,,,,,,,,,NaN,,,,,,,,low,low,,,,,,false,,,,,false,665013.2999999523,665013.1000000238,,665012.8999999762,,664913.978,4,500,,
break_continue,html.Screen,10_5_2,2023-11-17T16:42:07.203Z,,,,,,,,,,,NaN,,,,,,,,low,low,,,,,,false,,,,,false,665013.5,665013.3999999762,,665013.2999999523,,664913.978,4,500,,
sequence,flow.Sequence,10_5,2023-11-17T16:42:07.203Z,,,,,,,,,,,5366.231999976211,completion,,,,,,,low,low,,,,,,false,,,,,false,665013.5,665013.3999999762,659630.919,659749.6000000238,659647.168,664913.978,4,500,,
trial,html.Screen,10_6_0,2023-11-17T16:42:13.858Z,,,,1,0.0023664502831079,0.0252784582169994,,0.04,false,ll,6754.921999976155,response,-1.0885984639975343,0.8411177387984052,-1.0289039163420544,-1.2042618719491294,0.8422633223259082,-1.1138930862018557,low,low,,ISIC_4156010.JPG,10,ISIC_0012740.JPG,28,false,0.13,lh,keypress(e),0,false,671669,671668.8999999762,664897.507,665013.5,664913.978,671563.836,4,500,7,
break,html.Screen,10_6_1,2023-11-17T16:42:13.858Z,,,,,,,,,,,NaN,,,,,,,,low,low,,,,,,false,,,,,false,671669.2999999523,671669.1999999285,,671669,,671563.836,4,500,,
break_continue,html.Screen,10_6_2,2023-11-17T16:42:13.859Z,,,,,,,,,,,NaN,,,,,,,,low,low,,,,,,false,,,,,false,671669.3999999762,671669.3999999762,,671669.2999999523,,671563.836,4,500,,
sequence,flow.Sequence,10_6,2023-11-17T16:42:13.859Z,,,,,,,,,,,6755.421999976155,completion,,,,,,,low,low,,,,,,false,,,,,false,671669.5,671669.3999999762,664897.507,665013.5,664913.978,671563.836,4,500,,
trial,html.Screen,10_7_0,2023-11-17T16:42:15.954Z,,,,1,0.00126575685933,0.0325046559638838,,0.04,true,hl,2200.863999928464,response,0.7753299102004093,0.8411177387984052,-1.0289039163420544,-1.053851019509641,0.8422633223259082,-1.1138930862018557,high,low,,ISIC_5682259.JPG,9,ISIC_9511832.JPG,27,false,0.17000000000000004,hl,keypress(j),0,false,673764.6999999285,673764.6999999285,671547.551,671669.5,671563.836,673663.879,4,500,8,
break,html.Screen,10_7_1,2023-11-17T16:42:15.954Z,,,,,,,,,,,NaN,,,,,,,,high,low,,,,,,false,,,,,false,673765.1000000238,673765,,673764.8999999762,,673663.879,4,500,,
break_continue,html.Screen,10_7_2,2023-11-17T16:42:15.954Z,,,,,,,,,,,NaN,,,,,,,,high,low,,,,,,false,,,,,false,673765.2999999523,673765.1999999285,,673765.1000000238,,673663.879,4,500,,
sequence,flow.Sequence,10_7,2023-11-17T16:42:15.954Z,,,,,,,,,,,2201.363999928464,completion,,,,,,,high,low,,,,,,false,,,,,false,673765.2999999523,673765.1999999285,671547.551,671669.5,671563.836,673663.879,4,500,,
trial,html.Screen,10_8_0,2023-11-17T16:42:20.818Z,,,,1,-0.0321039635696159,-0.020496766286318,,0.04,false,ll,4964.621000000043,response,-0.9991910338212396,0.8411177387984052,-1.0289039163420544,-1.0085499824556403,0.8422633223259082,-1.1138930862018557,low,low,,ISIC_0058063.JPG,9,ISIC_7795549.JPG,28,false,0.13,hh,keypress(i),0,false,678628.6000000238,678628.5,673647.601,673765.3999999762,673663.879,678530.565,4,500,9,
break,html.Screen,10_8_1,2023-11-17T16:42:20.818Z,,,,,,,,,,,NaN,,,,,,,,low,low,,,,,,false,,,,,false,678628.8999999762,678628.7999999523,,678628.6999999285,,678530.565,4,500,,
break_continue,html.Screen,10_8_2,2023-11-17T16:42:20.818Z,,,,,,,,,,,NaN,,,,,,,,low,low,,,,,,false,,,,,false,678629,678629,,678628.8999999762,,678530.565,4,500,,
sequence,flow.Sequence,10_8,2023-11-17T16:42:20.818Z,,,,,,,,,,,4965.121000000043,completion,,,,,,,low,low,,,,,,false,,,,,false,678629.1000000238,678629,673647.601,673765.3999999762,673663.879,678530.565,4,500,,
trial,html.Screen,10_9_0,2023-11-17T16:42:26.210Z,,,,1,0.0166849894750452,-0.0371614812368835,,0.04,true,hh,5490.334999976214,response,0.8125930874051923,0.8411177387984052,-1.0289039163420544,0.9001696721297474,0.8422633223259082,-1.1138930862018557,high,high,,ISIC_6231450.JPG,8,ISIC_0072748.JPG,53,false,0.1,hh,keypress(i),0,false,684021,684020.8999999762,678513.937,678629.1000000238,678530.565,683947.626,4,500,10,
break,html.Screen,10_9_1,2023-11-17T16:42:26.210Z,,,,,,,,,,,NaN,,,,,,,,high,high,,,,,,false,,,,,false,684021.3999999762,684021.1999999285,,684021.1000000238,,683947.626,4,500,,
break_continue,html.Screen,10_9_2,2023-11-17T16:42:26.211Z,,,,,,,,,,,NaN,,,,,,,,high,high,,,,,,false,,,,,false,684021.6000000238,684021.5,,684021.3999999762,,683947.626,4,500,,
sequence,flow.Sequence,10_9,2023-11-17T16:42:26.211Z,,,,,,,,,,,5490.935000000056,completion,,,,,,,high,high,,,,,,false,,,,,false,684021.6999999285,684021.5,678513.937,678629.1000000238,678530.565,683947.626,4,500,,
trial,html.Screen,10_10_0,2023-11-17T16:42:34.482Z,,,,1,0.00126575685933,0.0325046559638838,,0.04,false,lh,8344.974000023794,response,-1.0481746483551846,0.8411177387984052,-1.0289039163420544,0.7465283499508132,0.8422633223259082,-1.1138930862018557,low,high,,ISIC_5682259.JPG,10,ISIC_0031248.JPG,27,false,0.17000000000000004,hh,keypress(i),0,false,692292.6999999285,692292.6000000238,683930.957,684021.6999999285,683947.626,692197.209,4,500,11,
break,html.Screen,10_10_1,2023-11-17T16:42:34.482Z,,,,,,,,,,,NaN,,,,,,,,low,high,,,,,,false,,,,,false,692293.1000000238,692293,,692292.8999999762,,692197.209,4,500,,
break_continue,html.Screen,10_10_2,2023-11-17T16:42:34.482Z,,,,,,,,,,,NaN,,,,,,,,low,high,,,,,,false,,,,,false,692293.1999999285,692293.1999999285,,692293.1000000238,,692197.209,4,500,,
sequence,flow.Sequence,10_10,2023-11-17T16:42:34.482Z,,,,,,,,,,,8345.573999928427,completion,,,,,,,low,high,,,,,,false,,,,,false,692293.2999999523,692293.1999999285,683930.957,684021.6999999285,683947.626,692197.209,4,500,,
trial,html.Screen,10_11_0,2023-11-17T16:42:39.042Z,,,,1,-0.0365981355399771,-0.0162670920008846,,0.04,false,ll,4655.590999952285,response,-1.0581281450494728,0.8411177387984052,-1.0289039163420544,-1.133169116569424,0.8422633223259082,-1.1138930862018557,low,low,,ISIC_0982855.JPG,9,ISIC_5490352.JPG,28,false,0.13,lh,keypress(e),0,false,696853,696852.7999999523,692180.555,692293.2999999523,692197.209,696764.245,4,500,12,
break,html.Screen,10_11_1,2023-11-17T16:42:39.042Z,,,,,,,,,,,NaN,,,,,,,,low,low,,,,,,false,,,,,false,696853.1999999285,696853.1999999285,,696853,,696764.245,4,500,,
break_continue,html.Screen,10_11_2,2023-11-17T16:42:39.042Z,,,,,,,,,,,NaN,,,,,,,,low,low,,,,,,false,,,,,false,696853.3999999762,696853.3999999762,,696853.2999999523,,696764.245,4,500,,
sequence,flow.Sequence,10_11,2023-11-17T16:42:39.043Z,,,,,,,,,,,4656.1909999761265,completion,,,,,,,low,low,,,,,,false,,,,,false,696853.3999999762,696853.3999999762,692180.555,692293.2999999523,692197.209,696764.245,4,500,,
trial,html.Screen,10_12_0,2023-11-17T16:42:42.354Z,,,,1,0.0399381815506136,0.0177751789152893,,0.04,true,hl,3400.454999928479,response,0.9212323139676136,0.8411177387984052,-1.0289039163420544,-0.9882196642247332,0.8422633223259082,-1.1138930862018557,high,low,,ISIC_3981425.JPG,8,ISIC_0014255.JPG,27,false,0.17000000000000004,hl,keypress(j),0,false,700164.7999999523,700164.6999999285,696730.834,696853.5,696764.245,700063.857,4,500,13,
break,html.Screen,10_12_1,2023-11-17T16:42:42.354Z,,,,,,,,,,,NaN,,,,,,,,high,low,,,,,,false,,,,,false,700165.1999999285,700165.1000000238,,700165,,700063.857,4,500,,
break_continue,html.Screen,10_12_2,2023-11-17T16:42:42.354Z,,,,,,,,,,,NaN,,,,,,,,high,low,,,,,,false,,,,,false,700165.5,700165.3999999762,,700165.1999999285,,700063.857,4,500,,
sequence,flow.Sequence,10_12,2023-11-17T16:42:42.355Z,,,,,,,,,,,3401.154999976163,completion,,,,,,,high,low,,,,,,false,,,,,false,700165.5,700165.3999999762,696730.834,696853.5,696764.245,700063.857,4,500,,
trial,html.Screen,10_13_0,2023-11-17T16:42:47.618Z,,,,1,-0.0051046740562181,0.0178832721027728,,0.04,false,lh,5364.942999952356,response,-1.0280476560198826,0.8411177387984052,-1.0289039163420544,0.6974827878634468,0.8422633223259082,-1.1138930862018557,low,high,,ISIC_9545819.JPG,9,ISIC_0060033.JPG,27,false,0.17000000000000004,ll,keypress(f),0,false,705429,705428.7999999523,700047.505,700165.5,700063.857,705330.657,4,500,14,
break,html.Screen,10_13_1,2023-11-17T16:42:47.618Z,,,,,,,,,,,NaN,,,,,,,,low,high,,,,,,false,,,,,false,705429.1999999285,705429.1000000238,,705429,,705330.657,4,500,,
break_continue,html.Screen,10_13_2,2023-11-17T16:42:47.619Z,,,,,,,,,,,NaN,,,,,,,,low,high,,,,,,false,,,,,false,705429.5,705429.3999999762,,705429.2999999523,,705330.657,4,500,,
sequence,flow.Sequence,10_13,2023-11-17T16:42:47.619Z,,,,,,,,,,,5365.542999976198,completion,,,,,,,low,high,,,,,,false,,,,,false,705429.6000000238,705429.3999999762,700047.505,700165.5,700063.857,705330.657,4,500,,
trial,html.Screen,10_14_0,2023-11-17T16:42:50.898Z,,,,1,-0.0051046740562181,0.0178832721027728,,0.04,true,hh,3378.2429999761516,response,0.7933149635889316,0.8411177387984052,-1.0289039163420544,0.7905025647917798,0.8422633223259082,-1.1138930862018557,high,high,,ISIC_9545819.JPG,9,ISIC_0062463.JPG,53,false,0.1,hh,keypress(i),0,false,708709,708708.8999999762,705313.854,705429.6000000238,705330.657,708614.28,4,500,15,
break,html.Screen,10_14_1,2023-11-17T16:42:50.898Z,,,,,,,,,,,NaN,,,,,,,,high,high,,,,,,false,,,,,false,708709.2999999523,708709.2999999523,,708709.1000000238,,708614.28,4,500,,
break_continue,html.Screen,10_14_2,2023-11-17T16:42:50.899Z,,,,,,,,,,,NaN,,,,,,,,high,high,,,,,,false,,,,,false,708709.5,708709.3999999762,,708709.3999999762,,708614.28,4,500,,
sequence,flow.Sequence,10_14,2023-11-17T16:42:50.899Z,,,,,,,,,,,3378.7429999761516,completion,,,,,,,high,high,,,,,,false,,,,,false,708709.6000000238,708709.3999999762,705313.854,705429.6000000238,705330.657,708614.28,4,500,,
trial,html.Screen,10_15_0,2023-11-17T16:42:55.345Z,,,,1,0.012020985739544,-0.0126097407389903,,0.04,false,lh,4541.4199999284465,response,-1.00615481805876,0.8411177387984052,-1.0289039163420544,0.8428903771195875,0.8422633223259082,-1.1138930862018557,low,high,,ISIC_0069379.JPG,9,ISIC_0069970.JPG,27,false,0.17000000000000004,hh,keypress(i),0,false,713155.8999999762,713155.6999999285,708597.541,708709.6000000238,708614.28,713063.853,4,500,16,
break,html.Screen,10_15_1,2023-11-17T16:42:55.345Z,,,,,,,,,,,NaN,,,,,,,,low,high,,,,,,false,,,,,false,713156.1000000238,713156.1000000238,,713155.8999999762,,713063.853,4,500,,
break_continue,html.Screen,10_15_2,2023-11-17T16:42:55.345Z,,,,,,,,,,,NaN,,,,,,,,low,high,,,,,,false,,,,,false,713156.2999999523,713156.2999999523,,713156.1999999285,,713063.853,4,500,,
sequence,flow.Sequence,10_15,2023-11-17T16:42:55.346Z,,,,,,,,,,,4542.019999952288,completion,,,,,,,low,high,,,,,,false,,,,,false,713156.5,713156.2999999523,708597.541,708709.6000000238,708614.28,713063.853,4,500,,
trial,html.Screen,10_16_0,2023-11-17T16:43:00.738Z,,,,1,0.0050679133050021,0.0174815595031679,,0.04,true,hl,5484.747000023839,response,0.7871162143493278,0.8411177387984052,-1.0289039163420544,-1.2153707004941214,0.8422633223259082,-1.1138930862018557,high,low,,ISIC_9848743.JPG,9,ISIC_3439215.JPG,27,false,0.17000000000000004,hl,keypress(j),0,false,718548.7999999523,718548.6000000238,713047.152,713156.5,713063.853,718447.17,4,500,17,
break,html.Screen,10_16_1,2023-11-17T16:43:00.738Z,,,,,,,,,,,NaN,,,,,,,,high,low,,,,,,false,,,,,false,718549.1000000238,718549,,718548.7999999523,,718447.17,4,500,,
break_continue,html.Screen,10_16_2,2023-11-17T16:43:00.738Z,,,,,,,,,,,NaN,,,,,,,,high,low,,,,,,false,,,,,false,718549.2999999523,718549.1999999285,,718549.1999999285,,718447.17,4,500,,
sequence,flow.Sequence,10_16,2023-11-17T16:43:00.738Z,,,,,,,,,,,5485.346999928472,completion,,,,,,,high,low,,,,,,false,,,,,false,718549.3999999762,718549.1999999285,713047.152,713156.5,713063.853,718447.17,4,500,,
trial,html.Screen,10_17_0,2023-11-17T16:43:03.618Z,,,,1,-0.0367218428225813,0.0026956749740767,,0.04,true,lh,2981.2299999761162,response,-1.0140243022958364,0.8411177387984052,-1.0289039163420544,0.7084305941404812,0.8422633223259082,-1.1138930862018557,low,high,,ISIC_7212271.JPG,8,ISIC_0014946.JPG,27,false,0.17000000000000004,lh,keypress(e),0,false,721428.6000000238,721428.3999999762,718430.687,718549.3999999762,718447.17,721330.577,4,500,18,
break,html.Screen,10_17_1,2023-11-17T16:43:03.618Z,,,,,,,,,,,NaN,,,,,,,,low,high,,,,,,false,,,,,false,721428.8999999762,721428.7999999523,,721428.6000000238,,721330.577,4,500,,
break_continue,html.Screen,10_17_2,2023-11-17T16:43:03.618Z,,,,,,,,,,,NaN,,,,,,,,low,high,,,,,,false,,,,,false,721429.1000000238,721429,,721428.8999999762,,721330.577,4,500,,
sequence,flow.Sequence,10_17,2023-11-17T16:43:03.618Z,,,,,,,,,,,2981.829999999958,completion,,,,,,,low,high,,,,,,false,,,,,false,721429.1999999285,721429,718430.687,718549.3999999762,718447.17,721330.577,4,500,,
trial,html.Screen,10_18_0,2023-11-17T16:43:05.922Z,,,,1,0.0377791839943904,-0.0227626648172468,,0.04,true,lh,2401.9229999999516,response,-0.8591294258188253,0.8411177387984052,-1.0289039163420544,0.870797302150167,0.8422633223259082,-1.1138930862018557,low,high,,ISIC_7167479.JPG,9,ISIC_0055841.JPG,27,false,0.17000000000000004,lh,keypress(e),0,false,723732.6000000238,723732.5,721314.203,721429.1999999285,721330.577,723630.482,4,500,19,
break,html.Screen,10_18_1,2023-11-17T16:43:05.922Z,,,,,,,,,,,NaN,,,,,,,,low,high,,,,,,false,,,,,false,723733,723732.8999999762,,723732.6999999285,,723630.482,4,500,,
break_continue,html.Screen,10_18_2,2023-11-17T16:43:05.922Z,,,,,,,,,,,NaN,,,,,,,,low,high,,,,,,false,,,,,false,723733.1000000238,723733.1000000238,,723733,,723630.482,4,500,,
sequence,flow.Sequence,10_18,2023-11-17T16:43:05.922Z,,,,,,,,,,,2402.5230000237934,completion,,,,,,,low,high,,,,,,false,,,,,false,723733.1999999285,723733.1000000238,721314.203,721429.1999999285,721330.577,723630.482,4,500,,
trial,html.Screen,10_19_0,2023-11-17T16:43:08.930Z,,,,1,0.0071892445601978,-0.0246015408628738,,0.04,false,ll,3110.2179999285145,response,-0.9036177845601896,0.8411177387984052,-1.0289039163420544,-1.1504406797855629,0.8422633223259082,-1.1138930862018557,low,low,,ISIC_0014133.JPG,8,ISIC_3947876.JPG,28,false,0.13,hl,keypress(j),0,false,726740.7999999523,726740.6999999285,723613.808,723733.2999999523,723630.482,726647.187,4,500,20,
break,html.Screen,10_19_1,2023-11-17T16:43:08.930Z,,,,,,,,,,,NaN,,,,,,,,low,low,,,,,,false,,,,,false,726741.1999999285,726741,,726740.7999999523,,726647.187,4,500,,
break_continue,html.Screen,10_19_2,2023-11-17T16:43:08.930Z,,,,,,,,,,,NaN,,,,,,,,low,low,,,,,,false,,,,,false,726741.2999999523,726741.1999999285,,726741.1999999285,,726647.187,4,500,,
sequence,flow.Sequence,10_19,2023-11-17T16:43:08.930Z,,,,,,,,,,,3110.7179999285145,completion,,,,,,,low,low,,,,,,false,,,,,false,726741.3999999762,726741.1999999285,723613.808,723733.2999999523,723630.482,726647.187,4,500,,
trial,html.Screen,10_20_0,2023-11-17T16:43:14.642Z,,,,1,0.0118555311043871,0.0087774532070196,,0.04,true,hl,5805.51299992844,response,0.7468996036626098,0.8411177387984052,-1.0289039163420544,-1.0079605779898853,0.8422633223259082,-1.1138930862018557,high,low,,ISIC_6488658.JPG,9,ISIC_5335139.JPG,27,false,0.17000000000000004,hl,keypress(j),0,false,732452.7999999523,732452.6999999285,726630.933,726741.3999999762,726647.187,732347.151,4,500,21,
break,html.Screen,10_20_1,2023-11-17T16:43:14.642Z,,,,,,,,,,,NaN,,,,,,,,high,low,,,,,,false,,,,,false,732453.1000000238,732453,,732452.8999999762,,732347.151,4,500,,
break_continue,html.Screen,10_20_2,2023-11-17T16:43:14.642Z,,,,,,,,,,,NaN,,,,,,,,high,low,,,,,,false,,,,,false,732453.3999999762,732453.1999999285,,732453.1000000238,,732347.151,4,500,,
sequence,flow.Sequence,10_20,2023-11-17T16:43:14.643Z,,,,,,,,,,,5806.01299992844,completion,,,,,,,high,low,,,,,,false,,,,,false,732453.3999999762,732453.1999999285,726630.933,726741.3999999762,726647.187,732347.151,4,500,,
trial,html.Screen,10_21_0,2023-11-17T16:43:19.218Z,,,,1,0.0118555311043871,0.0087774532070196,,0.04,false,ll,4681.54899992852,response,-1.1168199061753437,0.8411177387984052,-1.0289039163420544,-1.212287319329914,0.8422633223259082,-1.1138930862018557,low,low,,ISIC_6488658.JPG,9,ISIC_5919355.JPG,28,false,0.13,hl,keypress(j),0,false,737028.7999999523,737028.6999999285,732330.668,732453.5,732347.151,736930.615,4,500,22,
break,html.Screen,10_21_1,2023-11-17T16:43:19.218Z,,,,,,,,,,,NaN,,,,,,,,low,low,,,,,,false,,,,,false,737029.1000000238,737029,,737028.8999999762,,736930.615,4,500,,
break_continue,html.Screen,10_21_2,2023-11-17T16:43:19.218Z,,,,,,,,,,,NaN,,,,,,,,low,low,,,,,,false,,,,,false,737029.2999999523,737029.1999999285,,737029.1000000238,,736930.615,4,500,,
sequence,flow.Sequence,10_21,2023-11-17T16:43:19.218Z,,,,,,,,,,,4682.04899992852,completion,,,,,,,low,low,,,,,,false,,,,,false,737029.3999999762,737029.1999999285,732330.668,732453.3999999762,732347.151,736930.615,4,500,,
trial,html.Screen,10_22_0,2023-11-17T16:43:22.978Z,,,,1,0.0377791839943904,-0.0227626648172468,,0.04,true,lh,3858.1849999523256,response,-1.1235224875125256,0.8411177387984052,-1.0289039163420544,0.8641223012137988,0.8422633223259082,-1.1138930862018557,low,high,,ISIC_7167479.JPG,9,ISIC_0033901.JPG,27,false,0.17000000000000004,lh,keypress(e),0,false,740788.8999999762,740788.7999999523,736913.864,737029.3999999762,736930.615,740697.274,4,500,23,
break,html.Screen,10_22_1,2023-11-17T16:43:22.978Z,,,,,,,,,,,NaN,,,,,,,,low,high,,,,,,false,,,,,false,740789.1999999285,740789.1000000238,,740789,,740697.274,4,500,,
break_continue,html.Screen,10_22_2,2023-11-17T16:43:22.979Z,,,,,,,,,,,NaN,,,,,,,,low,high,,,,,,false,,,,,false,740789.3999999762,740789.3999999762,,740789.1999999285,,740697.274,4,500,,
sequence,flow.Sequence,10_22,2023-11-17T16:43:22.979Z,,,,,,,,,,,3858.7849999761675,completion,,,,,,,low,high,,,,,,false,,,,,false,740789.3999999762,740789.3999999762,736913.864,737029.3999999762,736930.615,740697.274,4,500,,
trial,html.Screen,10_23_0,2023-11-17T16:43:26.210Z,,,,1,0.012810673904807,-0.00400964452501,,0.04,false,lh,3323.226000000024,response,-1.064425982109969,0.8411177387984052,-1.0289039163420544,0.958564243697126,0.8422633223259082,-1.1138930862018557,low,high,,ISIC_0064656.JPG,9,ISIC_3203344.JPG,27,false,0.17000000000000004,ll,keypress(f),0,false,744020.6000000238,744020.5,740680.875,740789.5,740697.274,743930.917,4,500,24,
break,html.Screen,10_23_1,2023-11-17T16:43:26.210Z,,,,,,,,,,,NaN,,,,,,,,low,high,,,,,,false,,,,,false,744020.8999999762,744020.7999999523,,744020.6999999285,,743930.917,4,500,,
break_continue,html.Screen,10_23_2,2023-11-17T16:43:26.210Z,,,,,,,,,,,NaN,,,,,,,,low,high,,,,,,false,,,,,false,744021.1000000238,744021,,744020.8999999762,,743930.917,4,500,,
sequence,flow.Sequence,10_23,2023-11-17T16:43:26.210Z,,,,,,,,,,,3323.726000000024,completion,,,,,,,low,high,,,,,,false,,,,,false,744021.1000000238,744021,740680.875,740789.3999999762,740697.274,743930.917,4,500,,
trial,html.Screen,10_24_0,2023-11-17T16:43:30.002Z,,,,1,-0.0127320821962457,0.0315308940184827,,0.04,true,hh,3881.9829999761423,response,0.9286162906661966,0.8411177387984052,-1.0289039163420544,0.8993115431771105,0.8422633223259082,-1.1138930862018557,high,high,,ISIC_8156101.JPG,9,ISIC_0011857.JPG,53,false,0.1,hh,keypress(i),0,false,747812.8999999762,747812.8999999762,743897.521,744021.1999999285,743930.917,747713.975,4,500,25,
break,html.Screen,10_24_1,2023-11-17T16:43:30.002Z,,,,,,,,,,,NaN,,,,,,,,high,high,,,,,,false,,,,,false,747813.1999999285,747813.1000000238,,747813,,747713.975,4,500,,
break_continue,html.Screen,10_24_2,2023-11-17T16:43:30.003Z,,,,,,,,,,,NaN,,,,,,,,high,high,,,,,,false,,,,,false,747813.5,747813.3999999762,,747813.2999999523,,747713.975,4,500,,
sequence,flow.Sequence,10_24,2023-11-17T16:43:30.003Z,,,,,,,,,,,3882.4829999761423,completion,,,,,,,high,high,,,,,,false,,,,,false,747813.6000000238,747813.3999999762,743897.521,744021.1000000238,743930.917,747713.975,4,500,,
trial,html.Screen,10_25_0,2023-11-17T16:43:34.258Z,,,,1,-0.010035581303589,0.0100711721396864,,0.04,true,ll,4354.924999976181,response,-0.9840050049609405,0.8411177387984052,-1.0289039163420544,-1.1927876559115576,0.8422633223259082,-1.1138930862018557,low,low,,ISIC_0030592.JPG,8,ISIC_8651053.JPG,28,false,0.13,ll,keypress(f),0,false,752068.8999999762,752068.8999999762,747697.161,747813.6000000238,747713.975,751963.787,4,500,26,
break,html.Screen,10_25_1,2023-11-17T16:43:34.258Z,,,,,,,,,,,NaN,,,,,,,,low,low,,,,,,false,,,,,false,752069.1999999285,752069.1999999285,,752069,,751963.787,4,500,,
break_continue,html.Screen,10_25_2,2023-11-17T16:43:34.259Z,,,,,,,,,,,NaN,,,,,,,,low,low,,,,,,false,,,,,false,752069.5,752069.3999999762,,752069.2999999523,,751963.787,4,500,,
sequence,flow.Sequence,10_25,2023-11-17T16:43:34.259Z,,,,,,,,,,,4355.424999976181,completion,,,,,,,low,low,,,,,,false,,,,,false,752069.6000000238,752069.3999999762,747697.161,747813.6000000238,747713.975,751963.787,4,500,,
trial,html.Screen,10_26_0,2023-11-17T16:43:38.673Z,,,,1,-0.0051046740562181,0.0178832721027728,,0.04,false,lh,4519.512999952305,response,-0.9464722688210522,0.8411177387984052,-1.0289039163420544,0.7779875773283346,0.8422633223259082,-1.1138930862018557,low,high,,ISIC_9545819.JPG,9,ISIC_5926550.JPG,27,false,0.17000000000000004,ll,keypress(f),0,false,756483.5,756483.2999999523,751947.522,752069.6000000238,751963.787,756380.437,4,500,27,
break,html.Screen,10_26_1,2023-11-17T16:43:38.673Z,,,,,,,,,,,NaN,,,,,,,,low,high,,,,,,false,,,,,false,756483.7999999523,756483.7999999523,,756483.6000000238,,756380.437,4,500,,
break_continue,html.Screen,10_26_2,2023-11-17T16:43:38.673Z,,,,,,,,,,,NaN,,,,,,,,low,high,,,,,,false,,,,,false,756484.1000000238,756484,,756484,,756380.437,4,500,,
sequence,flow.Sequence,10_26,2023-11-17T16:43:38.673Z,,,,,,,,,,,4520.212999999989,completion,,,,,,,low,high,,,,,,false,,,,,false,756484.1000000238,756484,751947.522,752069.6000000238,751963.787,756380.437,4,500,,
trial,html.Screen,10_27_0,2023-11-17T16:43:43.122Z,,,,1,-0.0086413421586899,-0.0360184993500958,,0.04,true,lh,4552.0629999999655,response,-1.1264523937924051,0.8411177387984052,-1.0289039163420544,0.729579583367798,0.8422633223259082,-1.1138930862018557,low,high,,ISIC_0010767.JPG,9,ISIC_0032095.JPG,27,false,0.17000000000000004,lh,keypress(e),0,false,760932.6000000238,760932.5,756363.775,756484.1999999285,756380.437,760830.417,4,500,28,
break,html.Screen,10_27_1,2023-11-17T16:43:43.122Z,,,,,,,,,,,NaN,,,,,,,,low,high,,,,,,false,,,,,false,760932.7999999523,760932.7999999523,,760932.6000000238,,760830.417,4,500,,
break_continue,html.Screen,10_27_2,2023-11-17T16:43:43.122Z,,,,,,,,,,,NaN,,,,,,,,low,high,,,,,,false,,,,,false,760933.1000000238,760933,,760932.8999999762,,760830.417,4,500,,
sequence,flow.Sequence,10_27,2023-11-17T16:43:43.122Z,,,,,,,,,,,4552.5629999999655,completion,,,,,,,low,high,,,,,,false,,,,,false,760933.1000000238,760933,756363.775,756484.1999999285,756380.437,760830.417,4,500,,
trial,html.Screen,10_28_0,2023-11-17T16:43:46.594Z,,,,1,0.0350697500805515,0.0166617848231997,,0.04,false,lh,3574.2829999284586,response,-1.1172883106398417,0.8411177387984052,-1.0289039163420544,0.7336493335132354,0.8422633223259082,-1.1138930862018557,low,high,,ISIC_0024423.JPG,9,ISIC_7415335.JPG,27,false,0.17000000000000004,hl,keypress(j),0,false,764404.8999999762,764404.6999999285,760814.122,760933.1999999285,760830.417,764314.27,4,500,29,
break,html.Screen,10_28_1,2023-11-17T16:43:46.594Z,,,,,,,,,,,NaN,,,,,,,,low,high,,,,,,false,,,,,false,764405.1999999285,764405.1000000238,,764404.8999999762,,764314.27,4,500,,
break_continue,html.Screen,10_28_2,2023-11-17T16:43:46.594Z,,,,,,,,,,,NaN,,,,,,,,low,high,,,,,,false,,,,,false,764405.3999999762,764405.3999999762,,764405.1999999285,,764314.27,4,500,,
sequence,flow.Sequence,10_28,2023-11-17T16:43:46.595Z,,,,,,,,,,,3574.9829999761423,completion,,,,,,,low,high,,,,,,false,,,,,false,764405.3999999762,764405.3999999762,760814.122,760933.1999999285,760830.417,764314.27,4,500,,
trial,html.Screen,10_29_0,2023-11-17T16:43:50.082Z,,,,1,0.0023664502831079,0.0252784582169994,,0.04,false,ll,3578.6299999761395,response,-1.1217390688497193,0.8411177387984052,-1.0289039163420544,-1.2276600934505035,0.8422633223259082,-1.1138930862018557,low,low,,ISIC_4156010.JPG,9,ISIC_0026344.JPG,28,false,0.13,hl,keypress(j),0,false,767893.1000000238,767892.8999999762,764297.217,764405.5,764314.27,767797.198,4,500,30,
break,html.Screen,10_29_1,2023-11-17T16:43:50.083Z,,,,,,,,,,,NaN,,,,,,,,low,low,,,,,,false,,,,,false,767893.3999999762,767893.2999999523,,767893.1000000238,,767797.198,4,500,,
break_continue,html.Screen,10_29_2,2023-11-17T16:43:50.083Z,,,,,,,,,,,NaN,,,,,,,,low,low,,,,,,false,,,,,false,767893.6000000238,767893.5,,767893.5,,767797.198,4,500,,
sequence,flow.Sequence,10_29,2023-11-17T16:43:50.083Z,,,,,,,,,,,3579.2299999999814,completion,,,,,,,low,low,,,,,,false,,,,,false,767893.6999999285,767893.5,764297.217,764405.5,764314.27,767797.198,4,500,,
trial,html.Screen,10_30_0,2023-11-17T16:43:53.265Z,,,,1,0.0060934073440827,0.0279108145883031,,0.04,true,hl,3278.7019999761833,response,0.7468996036626098,0.8411177387984052,-1.0289039163420544,-1.0079605779898853,0.8422633223259082,-1.1138930862018557,high,low,,ISIC_0032604.JPG,9,ISIC_5335139.JPG,27,false,0.17000000000000004,hl,keypress(j),0,false,771076,771075.8999999762,767780.42,767893.6999999285,767797.198,770980.909,4,500,31,
break,html.Screen,10_30_1,2023-11-17T16:43:53.265Z,,,,,,,,,,,NaN,,,,,,,,high,low,,,,,,false,,,,,false,771076.2999999523,771076.1999999285,,771076.1000000238,,770980.909,4,500,,
break_continue,html.Screen,10_30_2,2023-11-17T16:43:53.266Z,,,,,,,,,,,NaN,,,,,,,,high,low,,,,,,false,,,,,false,771076.5,771076.3999999762,,771076.3999999762,,770980.909,4,500,,
sequence,flow.Sequence,10_30,2023-11-17T16:43:53.266Z,,,,,,,,,,,3279.2019999761833,completion,,,,,,,high,low,,,,,,false,,,,,false,771076.6000000238,771076.3999999762,767780.42,767893.6999999285,767797.198,770980.909,4,500,,
trial,html.Screen,10_31_0,2023-11-17T16:43:55.762Z,,,,1,-0.0327772618698018,0.0056908372048728,,0.04,true,hh,2591.490999976173,response,0.8752617287758995,0.8411177387984052,-1.0289039163420544,0.8023740329006754,0.8422633223259082,-1.1138930862018557,high,high,,ISIC_7897925.JPG,9,ISIC_0033968.JPG,53,false,0.1,hh,keypress(i),0,false,773572.6000000238,773572.3999999762,770963.822,771076.6000000238,770980.909,773480.757,4,500,32,
break,html.Screen,10_31_1,2023-11-17T16:43:55.762Z,,,,,,,,,,,NaN,,,,,,,,high,high,,,,,,false,,,,,false,773572.7999999523,773572.7999999523,,773572.6000000238,,773480.757,4,500,,
break_continue,html.Screen,10_31_2,2023-11-17T16:43:55.762Z,,,,,,,,,,,NaN,,,,,,,,high,high,,,,,,false,,,,,false,773573.1000000238,773573,,773572.8999999762,,773480.757,4,500,,
sequence,flow.Sequence,10_31,2023-11-17T16:43:55.762Z,,,,,,,,,,,2592.091000000015,completion,,,,,,,high,high,,,,,,false,,,,,false,773573.1000000238,773573,770963.822,771076.6000000238,770980.909,773480.757,4,500,,
trial,html.Screen,10_32_0,2023-11-17T16:44:00.049Z,,,,1,0.0077673378094614,0.0021810768579373,,0.04,false,ll,4379.442999928491,response,-0.9949679201447648,0.8411177387984052,-1.0289039163420544,-1.0468574143792184,0.8422633223259082,-1.1138930862018557,low,low,,ISIC_0067621.JPG,10,ISIC_6640753.JPG,28,false,0.13,hl,keypress(j),0,false,777860.2999999523,777860.1999999285,773464.199,773573.1999999285,773480.757,777780.433,4,500,33,
break,html.Screen,10_32_1,2023-11-17T16:44:00.050Z,,,,,,,,,,,NaN,,,,,,,,low,low,,,,,,false,,,,,false,777860.6000000238,777860.3999999762,,777860.3999999762,,777780.433,4,500,,
break_continue,html.Screen,10_32_2,2023-11-17T16:44:00.050Z,,,,,,,,,,,NaN,,,,,,,,low,low,,,,,,false,,,,,false,777860.6000000238,777860.6000000238,,777860.6000000238,,777780.433,4,500,,
sequence,flow.Sequence,10_32,2023-11-17T16:44:00.050Z,,,,,,,,,,,4379.843000023859,completion,,,,,,,low,low,,,,,,false,,,,,false,777860.7999999523,777860.6000000238,773464.199,773573.1999999285,773480.757,777780.433,4,500,,
trial,html.Screen,10_33_0,2023-11-17T16:44:02.722Z,,,,1,-0.0361875505619981,0.0291457404567876,,0.04,false,ll,2752.2669999285135,response,-1.0581281450494728,0.8411177387984052,-1.0289039163420544,-1.133169116569424,0.8422633223259082,-1.1138930862018557,low,low,,ISIC_0027480.JPG,8,ISIC_5490352.JPG,28,false,0.13,lh,keypress(e),0,false,780532.8999999762,780532.6999999285,777763.767,777860.7999999523,777780.433,780430.448,4,500,34,
break,html.Screen,10_33_1,2023-11-17T16:44:02.722Z,,,,,,,,,,,NaN,,,,,,,,low,low,,,,,,false,,,,,false,780533.1999999285,780533.1000000238,,780532.8999999762,,780430.448,4,500,,
break_continue,html.Screen,10_33_2,2023-11-17T16:44:02.723Z,,,,,,,,,,,NaN,,,,,,,,low,low,,,,,,false,,,,,false,780533.3999999762,780533.2999999523,,780533.1999999285,,780430.448,4,500,,
sequence,flow.Sequence,10_33,2023-11-17T16:44:02.723Z,,,,,,,,,,,2752.8669999523554,completion,,,,,,,low,low,,,,,,false,,,,,false,780533.5,780533.2999999523,777763.767,777860.7999999523,777780.433,780430.448,4,500,,
trial,html.Screen,10_34_0,2023-11-17T16:44:07.922Z,,,,1,-0.0361875505619981,0.0291457404567876,,0.04,true,hh,5302.351999952341,response,0.7683530797100027,0.8411177387984052,-1.0289039163420544,0.830154015861423,0.8422633223259082,-1.1138930862018557,high,high,,ISIC_0027480.JPG,9,ISIC_0029092.JPG,53,false,0.1,hh,keypress(i),0,false,785732.8999999762,785732.7999999523,780413.737,780533.5,780430.448,785630.43,4,500,35,
break,html.Screen,10_34_1,2023-11-17T16:44:07.922Z,,,,,,,,,,,NaN,,,,,,,,high,high,,,,,,false,,,,,false,785733.1999999285,785733.1000000238,,785733,,785630.43,4,500,,
break_continue,html.Screen,10_34_2,2023-11-17T16:44:07.923Z,,,,,,,,,,,NaN,,,,,,,,high,high,,,,,,false,,,,,false,785733.5,785733.3999999762,,785733.2999999523,,785630.43,4,500,,
sequence,flow.Sequence,10_34,2023-11-17T16:44:07.923Z,,,,,,,,,,,5302.951999976183,completion,,,,,,,high,high,,,,,,false,,,,,false,785733.5,785733.3999999762,780413.737,780533.5,780430.448,785630.43,4,500,,
trial,html.Screen,10_35_0,2023-11-17T16:44:12.354Z,,,,1,0.0023664502831079,0.0252784582169994,,0.04,true,hh,4534.069999999949,response,0.8323660408822174,0.8411177387984052,-1.0289039163420544,0.7659165333957175,0.8422633223259082,-1.1138930862018557,high,high,,ISIC_4156010.JPG,10,ISIC_3738751.JPG,53,false,0.1,hh,keypress(i),0,false,790164.6000000238,790164.5,785614.074,785733.5,785630.43,790063.786,4,500,36,
break,html.Screen,10_35_1,2023-11-17T16:44:12.354Z,,,,,,,,,,,NaN,,,,,,,,high,high,,,,,,false,,,,,false,790164.8999999762,790164.7999999523,,790164.6999999285,,790063.786,4,500,,
break_continue,html.Screen,10_35_2,2023-11-17T16:44:12.354Z,,,,,,,,,,,NaN,,,,,,,,high,high,,,,,,false,,,,,false,790165.1000000238,790165.1000000238,,790164.8999999762,,790063.786,4,500,,
sequence,flow.Sequence,10_35,2023-11-17T16:44:12.354Z,,,,,,,,,,,4534.670000023791,completion,,,,,,,high,high,,,,,,false,,,,,false,790165.1000000238,790165.1000000238,785614.074,785733.5,785630.43,790063.786,4,500,,
trial,html.Screen,10_36_0,2023-11-17T16:44:16.178Z,,,,1,0.012020985739544,-0.0126097407389903,,0.04,true,lh,3925.0139999523526,response,-0.8591294258188253,0.8411177387984052,-1.0289039163420544,0.870797302150167,0.8422633223259082,-1.1138930862018557,low,high,,ISIC_0069379.JPG,9,ISIC_0055841.JPG,27,false,0.17000000000000004,lh,keypress(e),0,false,793988.8999999762,793988.7999999523,790047.181,790165.2999999523,790063.786,793897.176,4,500,37,
break,html.Screen,10_36_1,2023-11-17T16:44:16.178Z,,,,,,,,,,,NaN,,,,,,,,low,high,,,,,,false,,,,,false,793989.1999999285,793989.1999999285,,793989,,793897.176,4,500,,
break_continue,html.Screen,10_36_2,2023-11-17T16:44:16.179Z,,,,,,,,,,,NaN,,,,,,,,low,high,,,,,,false,,,,,false,793989.3999999762,793989.2999999523,,793989.1999999285,,793897.176,4,500,,
sequence,flow.Sequence,10_36,2023-11-17T16:44:16.179Z,,,,,,,,,,,3925.5139999523526,completion,,,,,,,low,high,,,,,,false,,,,,false,793989.5,793989.2999999523,790047.181,790165.1999999285,790063.786,793897.176,4,500,,
trial,html.Screen,10_37_0,2023-11-17T16:44:19.938Z,,,,1,-0.0189295602385628,-0.0128812415435153,,0.04,true,ll,3851.7239999761805,response,-1.0885984639975343,0.8411177387984052,-1.0289039163420544,-1.2042618719491294,0.8422633223259082,-1.1138930862018557,low,low,,ISIC_0010372.JPG,9,ISIC_0012740.JPG,28,false,0.13,ll,keypress(f),0,false,797749,797748.8999999762,793880.458,793989.5,793897.176,797647.143,4,500,38,
break,html.Screen,10_37_1,2023-11-17T16:44:19.938Z,,,,,,,,,,,NaN,,,,,,,,low,low,,,,,,false,,,,,false,797749.2999999523,797749.1999999285,,797749,,797647.143,4,500,,
break_continue,html.Screen,10_37_2,2023-11-17T16:44:19.939Z,,,,,,,,,,,NaN,,,,,,,,low,low,,,,,,false,,,,,false,797749.5,797749.3999999762,,797749.2999999523,,797647.143,4,500,,
sequence,flow.Sequence,10_37,2023-11-17T16:44:19.939Z,,,,,,,,,,,3852.2239999761805,completion,,,,,,,low,low,,,,,,false,,,,,false,797749.6000000238,797749.3999999762,793880.458,793989.5,793897.176,797647.143,4,500,,
trial,html.Screen,10_38_0,2023-11-17T16:44:22.962Z,,,,1,0.0050679133050021,0.0174815595031679,,0.04,false,lh,3125.5569999284344,response,-0.8644465729542988,0.8411177387984052,-1.0289039163420544,0.8679598285079457,0.8422633223259082,-1.1138930862018557,low,high,,ISIC_9848743.JPG,8,ISIC_6718969.JPG,27,false,0.17000000000000004,ll,keypress(f),0,false,800772.7999999523,800772.6999999285,797630.48,797749.6000000238,797647.143,800680.899,4,500,39,
