sender,sender_type,sender_id,timestamp,meta,,age,blockNo,c1,c2,condition,control_tolerance,correct,correctResponse,duration,ended_on,f1,f1_high,f1_low,f2,f2_high,f2_low,feature_level1,feature_level2,gender,img_left,img_reveal,img_right,n_target_images,practice,range_tolerance,response,response_action,selection_duration,staircase,time_commit,time_end,time_render,time_run,time_show,time_switch,total_blocks,total_trials,trialNo,url
informed_consent,html.Screen,0,2023-11-17T21:36:03.240Z,"{""labjs_version"":""20.2.4"",""labjs_build"":{""flavor"":""development"",""commit"":""f5b4a49f956347addd546a832a3327688c2c0fef""},""location"":""https://labjs.felixhenninger.com/api/labjs_preview/index.html"",""userAgent"":""Mozilla/5.0 (Windows NT 10.0; Win64; x64) AppleWebKit/537.36 (KHTML, like Gecko) Chrome/119.0.0.0 Safari/537.36"",""platform"":""Win32"",""language"":""en-US"",""locale"":""en-US"",""timeZone"":""America/Chicago"",""timezoneOffset"":360,""screen_width"":1920,""screen_height"":1080,""scroll_width"":945,""scroll_height"":918,""window_innerWidth"":945,""window_innerHeight"":966,""devicePixelRatio"":1}",,,,,,,,,,35005.954,response,,,,,,,,,,,,,,,,continue,keypress(Space),,,35531.60000002384,35525.5,502.859,495.60000002384186,519.546,35536.178,,,,{}
Demography form,html.Form,1,2023-11-17T21:36:25.240Z,,,18,,,,,,,,21995.322,form submission,,,,,,,,,female,,,,,,,,,,,57531.700000047684,57531.5,35518.682,35531.800000071526,35536.178,57553.253,,,,
Welcome,html.Screen,2,2023-11-17T21:36:52.890Z,,,,,,,"[""asym"",""bor""]",,,,27627.347000023845,response,,,,,,,,,,,,,,,,continue,click button,,,85181.20000004768,85180.60000002384,57536.251,57531.700000047684,57553.253,85186.055,,,,
demo_instructions,html.Screen,3,2023-11-17T21:37:45.506Z,,,,,,,,,,,52610.44500000001,response,,,,,,,,,,,,,,,,continue,click button,,,137797.30000007153,137796.5,85169.657,85181.30000007153,85186.055,137819.403,,,,
trial,html.Screen,4_0_0,2023-11-17T21:38:05.553Z,,,,0,0.9235571765207048,-1.0008081653938232,,,true,lh,20024.297000047693,response,-0.9433720631499012,1.2,-1.2,1.0582071940347648,1.2,-1.2,low,high,,ISIC_8796632.JPG,,ISIC_4890201.JPG,26,true,0.3600000000000002,lh,keypress(e),100,false,157843.89999997616,157843.70000004768,137786.204,137797.5,137819.403,157869.675,1,16,1,
sequence,flow.Sequence,4_0,2023-11-17T21:38:05.553Z,,,,,,,,,,,20024.297000047693,completion,,,,,,,low,high,,,,,,true,,,,,false,157844.10000002384,157843.70000004768,137786.204,137797.5,137819.403,157869.675,1,16,,
trial,html.Screen,4_1_0,2023-11-17T21:38:14.479Z,,,,0,1.0164576835546473,-0.8120626538423016,,,true,lh,8900.325000000012,response,-0.8979276789594874,1.2,-1.2,0.925374811016654,1.2,-1.2,low,high,,ISIC_6002694.JPG,,ISIC_4208361.JPG,33,true,0.42000000000000026,lh,keypress(e),100,false,166770.20000004768,166770,157852.716,157844.20000004768,157869.675,166786.186,1,16,2,
sequence,flow.Sequence,4_1,2023-11-17T21:38:14.479Z,,,,,,,,,,,8900.325000000012,completion,,,,,,,low,high,,,,,,true,,,,,false,166770.39999997616,166770,157852.716,157844.20000004768,157869.675,166786.186,1,16,,
trial,html.Screen,4_2_0,2023-11-17T21:38:39.564Z,,,,0,0.8816288864119318,-0.801867301188093,,,true,lh,25068.314000000013,response,-0.8579451262594331,1.2,-1.2,0.9633172970727744,1.2,-1.2,low,high,,ISIC_9196783.JPG,,ISIC_0067172.JPG,33,true,0.42000000000000026,lh,keypress(e),100,false,191854.89999997616,191854.5,166769.633,166770.39999997616,166786.186,191886.038,1,16,3,
sequence,flow.Sequence,4_2,2023-11-17T21:38:39.564Z,,,,,,,,,,,25068.314000000013,completion,,,,,,,low,high,,,,,,true,,,,,false,191855.39999997616,191854.5,166769.633,166770.39999997616,166786.186,191886.038,1,16,,
trial,html.Screen,4_3_0,2023-11-17T21:38:55.210Z,,,,0,1.4092385398614515,-1.3046237992197836,,,true,lh,15614.562000023841,response,-1.2695509547992938,1.2,-1.2,0.9641099676945492,1.2,-1.2,low,high,,ISIC_7254359.JPG,,ISIC_0025841.JPG,33,true,0.42000000000000026,lh,keypress(e),100,false,207500.89999997616,207500.60000002384,191869.492,191855.5,191886.038,207519.577,1,16,4,
sequence,flow.Sequence,4_3,2023-11-17T21:38:55.211Z,,,,,,,,,,,15614.562000023841,completion,,,,,,,low,high,,,,,,true,,,,,false,207501,207500.60000002384,191869.492,191855.39999997616,191886.038,207519.577,1,16,,
trial,html.Screen,4_4_0,2023-11-17T21:39:05.150Z,,,,0,1.2181031651370575,1.2158573487067317,,,true,ll,9920.822999976168,response,-1.0182453247598051,1.2,-1.2,-1.3136446508498152,1.2,-1.2,low,low,,ISIC_7242312.JPG,,ISIC_2532039.JPG,253,true,0.42000000000000026,ll,keypress(f),100,false,217440.60000002384,217440.39999997616,207502.635,207501.10000002384,207519.577,217469.521,1,16,5,
sequence,flow.Sequence,4_4,2023-11-17T21:39:05.150Z,,,,,,,,,,,9920.822999976168,completion,,,,,,,low,low,,,,,,true,,,,,false,217440.70000004768,217440.39999997616,207502.635,207501.10000002384,207519.577,217469.521,1,16,,
trial,html.Screen,4_5_0,2023-11-17T21:39:16.452Z,,,,0,1.152619213055059,1.1117876838408909,,,true,ll,11273.279000071518,response,-1.1210325063849345,1.2,-1.2,-1.1498648320956202,1.2,-1.2,low,low,,ISIC_0061915.JPG,,ISIC_0032162.JPG,26,true,0.15000000000000002,ll,keypress(f),100,false,228742.89999997616,228742.80000007153,217452.895,217440.80000007153,217469.521,228769.445,1,16,6,
sequence,flow.Sequence,4_5,2023-11-17T21:39:16.453Z,,,,,,,,,,,11273.279000071518,completion,,,,,,,low,low,,,,,,true,,,,,false,228743,228742.80000007153,217452.895,217440.80000007153,217469.521,228769.445,1,16,,
trial,html.Screen,4_6_0,2023-11-17T21:39:20.138Z,,,,0,1.2282561398079586,1.210457198775374,,,true,ll,3659.2550000476767,response,-1.1210325063849345,1.2,-1.2,-1.1498648320956202,1.2,-1.2,low,low,,ISIC_9141817.JPG,,ISIC_0032162.JPG,26,true,0.15000000000000002,ll,keypress(f),100,false,232428.89999997616,232428.70000004768,228752.62,228743.10000002384,228769.445,232452.629,1,16,7,
sequence,flow.Sequence,4_6,2023-11-17T21:39:20.139Z,,,,,,,,,,,3659.2550000476767,completion,,,,,,,low,low,,,,,,true,,,,,false,232429.10000002384,232428.70000004768,228752.62,228743.10000002384,228769.445,232452.629,1,16,,
trial,html.Screen,4_7_0,2023-11-17T21:39:23.087Z,,,,0,1.2915523362516486,1.1264977790562936,,,true,ll,2924.3710000000137,response,-1.2711018615747949,1.2,-1.2,-1.1042234044781618,1.2,-1.2,low,low,,ISIC_0502582.JPG,,ISIC_8603734.JPG,26,true,0.15000000000000002,ll,keypress(f),100,false,235377.20000004768,235377,232436.161,232429.20000004768,232452.629,235402.864,1,16,8,
sequence,flow.Sequence,4_7,2023-11-17T21:39:23.087Z,,,,,,,,,,,2924.3710000000137,completion,,,,,,,low,low,,,,,,true,,,,,false,235377.39999997616,235377,232436.161,232429.10000002384,232452.629,235402.864,1,16,,
trial,html.Screen,4_8_0,2023-11-17T21:39:36.288Z,,,,0,-0.9696118525781644,0.9244148283103414,,,true,hl,13175.336000047682,response,0.809764442462202,1.2,-1.2,-1.005337148078696,1.2,-1.2,high,low,,ISIC_7927525.JPG,,ISIC_2379379.JPG,27,true,0.42000000000000026,hl,keypress(j),100,false,248578.39999997616,248578.20000004768,235385.945,235377.39999997616,235402.864,248602.855,1,16,9,
sequence,flow.Sequence,4_8,2023-11-17T21:39:36.288Z,,,,,,,,,,,13175.336000047682,completion,,,,,,,high,low,,,,,,true,,,,,false,248578.5,248578.20000004768,235385.945,235377.39999997616,235402.864,248602.855,1,16,,
trial,html.Screen,4_9_0,2023-11-17T21:39:48.271Z,,,,0,-0.991282840649944,0.9397921099839784,,,true,hl,11957.445000071515,response,0.991146183030456,1.2,-1.2,-0.9949639823722534,1.2,-1.2,high,low,,ISIC_0000463.JPG,,ISIC_6342224.JPG,27,true,0.42000000000000026,hl,keypress(j),100,false,260560.60000002384,260560.30000007153,248585.96,248578.60000002384,248602.855,260586.123,1,16,10,
sequence,flow.Sequence,4_9,2023-11-17T21:39:48.271Z,,,,,,,,,,,11957.445000071515,completion,,,,,,,high,low,,,,,,true,,,,,false,260560.70000004768,260560.30000007153,248585.96,248578.60000002384,248602.855,260586.123,1,16,,
trial,html.Screen,4_10_0,2023-11-17T21:39:53.245Z,,,,0,-1.2331439637486756,0.9691143900156988,,,true,hl,4948.377000000008,response,0.948927472020595,1.2,-1.2,-1.0660437155921598,1.2,-1.2,high,low,,ISIC_7877488.JPG,,ISIC_5808758.JPG,27,true,0.42000000000000026,hl,keypress(j),100,false,265534.8000000715,265534.5,260569.253,260560.80000007153,260586.123,265552.709,1,16,11,
sequence,flow.Sequence,4_10,2023-11-17T21:39:53.245Z,,,,,,,,,,,4948.377000000008,completion,,,,,,,high,low,,,,,,true,,,,,false,265534.89999997616,265534.5,260569.253,260560.80000007153,260586.123,265552.709,1,16,,
trial,html.Screen,4_11_0,2023-11-17T21:40:02.425Z,,,,0,-0.8579451262594331,0.9633172970727744,,,true,hl,9162.391000023868,response,0.991146183030456,1.2,-1.2,-0.9949639823722534,1.2,-1.2,high,low,,ISIC_0067172.JPG,,ISIC_6342224.JPG,27,true,0.42000000000000026,hl,keypress(j),100,false,274715.3000000715,274715.10000002384,265535.895,265534.89999997616,265552.709,274735.918,1,16,12,
sequence,flow.Sequence,4_11,2023-11-17T21:40:02.426Z,,,,,,,,,,,9162.391000023868,completion,,,,,,,high,low,,,,,,true,,,,,false,274715.5,274715.10000002384,265535.895,265534.89999997616,265552.709,274735.918,1,16,,
trial,html.Screen,4_12_0,2023-11-17T21:40:13.743Z,,,,0,-1.0959058628476686,-1.1684835186766898,,,true,hh,11296.581999999995,response,1.0910404089869363,1.2,-1.2,1.119702461098404,1.2,-1.2,high,high,,ISIC_5920470.JPG,,ISIC_0067097.JPG,245,true,0.3600000000000002,hh,keypress(i),100,false,286032.60000002384,286032.5,274719.237,274715.5,274735.918,286052.812,1,16,13,
sequence,flow.Sequence,4_12,2023-11-17T21:40:13.743Z,,,,,,,,,,,11296.581999999995,completion,,,,,,,high,high,,,,,,true,,,,,false,286032.8000000715,286032.5,274719.237,274715.5,274735.918,286052.812,1,16,,
trial,html.Screen,4_13_0,2023-11-17T21:40:17.989Z,,,,0,-1.201100953917304,-1.1751492358160105,,,true,hh,4225.688000000024,response,1.2169050727663315,1.2,-1.2,1.1067845563421794,1.2,-1.2,high,high,,ISIC_0647224.JPG,,ISIC_7016261.JPG,53,true,0.15000000000000002,hh,keypress(i),100,false,290278.60000002384,290278.5,286035.912,286032.89999997616,286052.812,290302.587,1,16,14,
sequence,flow.Sequence,4_13,2023-11-17T21:40:17.989Z,,,,,,,,,,,4225.688000000024,completion,,,,,,,high,high,,,,,,true,,,,,false,290278.8000000715,290278.5,286035.912,286032.89999997616,286052.812,290302.587,1,16,,
trial,html.Screen,4_14_0,2023-11-17T21:40:25.242Z,,,,0,-1.1653123206802332,-1.2976858999596654,,,true,hh,7229.113000047684,response,1.1164729501046406,1.2,-1.2,1.2978935747992253,1.2,-1.2,high,high,,ISIC_0071508.JPG,,ISIC_0034166.JPG,53,true,0.15000000000000002,hh,keypress(i),100,false,297531.7000000477,297531.7000000477,290286.142,290278.89999997616,290302.587,297552.532,1,16,15,
sequence,flow.Sequence,4_14,2023-11-17T21:40:25.242Z,,,,,,,,,,,7229.113000047684,completion,,,,,,,high,high,,,,,,true,,,,,false,297531.89999997616,297531.7000000477,290286.142,290278.8000000715,290302.587,297552.532,1,16,,
trial,html.Screen,4_15_0,2023-11-17T21:40:28.753Z,,,,0,-1.2012395086389958,-1.0618985767073823,,,true,hh,3490.668000047677,response,1.0700930503975157,1.2,-1.2,1.2020012168275056,1.2,-1.2,high,high,,ISIC_9876004.JPG,,ISIC_0000022.JPG,53,true,0.15000000000000002,hh,keypress(i),100,false,301043.2000000477,301043.2000000477,297535.884,297532,297552.532,301069.227,1,16,16,
sequence,flow.Sequence,4_15,2023-11-17T21:40:28.753Z,,,,,,,,,,,3490.668000047677,completion,,,,,,,high,high,,,,,,true,,,,,false,301043.3000000715,301043.2000000477,297535.884,297531.89999997616,297552.532,301069.227,1,16,,
demonstration_loop,flow.Loop,4,2023-11-17T21:40:28.754Z,,,,,,,,,,,163223.7970000477,completion,,,,,,,,,,,,,,true,,,,,false,301043.39999997616,301043.2000000477,137786.204,137797.39999997616,137819.403,301069.227,1,16,,
practice_instructions,html.Screen,5,2023-11-17T21:40:50.097Z,,,,,,,,,,,21310.97300004767,response,,,,,,,,,,,,,,,,continue,click button,,,322386.2000000477,322380.2000000477,301052.528,301043.39999997616,301069.227,322402.496,,,,
trial,html.Screen,6_0_0,2023-11-17T21:41:06.099Z,,,,1,1.0264463986917702,-1.2804054832904397,,,,,16017.118000000017,timeout,-0.9579209317488,1.2,-1.2,1.0147487101263497,1.2,-1.2,low,high,,ISIC_7889838.JPG,,ISIC_8124482.JPG,26,true,0.3600000000000002,,,0,false,338388.8000000715,338388.7000000477,322369.351,322386.3000000715,322402.496,338419.614,1,40,1,
sequence,flow.Sequence,6_0,2023-11-17T21:41:06.099Z,,,,,,,,,,,15986.204000047699,completion,,,,,,,low,high,,,,,,true,,,,,false,338388.89999997616,338388.7000000477,322369.351,322386.3000000715,322402.496,338419.614,1,40,,
trial,html.Screen,6_1_0,2023-11-17T21:41:11.015Z,,,,1,-1.131522954199764,-1.1047184491749509,,,true,hh,4884.586000047682,response,1.3114122234470091,1.2,-1.2,0.9157868672217788,1.2,-1.2,high,high,,ISIC_1868816.JPG,,ISIC_6176182.JPG,339,true,0.42000000000000026,hh,keypress(i),0,false,343304.3000000715,343304.2000000477,338402.669,338389,338419.614,343336.069,1,40,2,
sequence,flow.Sequence,6_1,2023-11-17T21:41:11.015Z,,,,,,,,,,,4884.586000047682,completion,,,,,,,high,high,,,,,,true,,,,,false,343304.3000000715,343304.2000000477,338402.669,338388.89999997616,338419.614,343336.069,1,40,,
trial,html.Screen,6_2_0,2023-11-17T21:41:19.236Z,,,,1,1.0115965332688306,-0.8282633603842442,,,true,lh,8189.83099997614,response,-0.879102500583965,1.2,-1.2,1.0933081951979773,1.2,-1.2,low,high,,ISIC_1069587.JPG,,ISIC_0046223.JPG,26,true,0.3600000000000002,lh,keypress(e),0,false,351525.89999997616,351525.89999997616,343319.917,343304.3000000715,343336.069,351535.756,1,40,3,
sequence,flow.Sequence,6_2,2023-11-17T21:41:19.237Z,,,,,,,,,,,8189.83099997614,completion,,,,,,,low,high,,,,,,true,,,,,false,351526.10000002384,351525.89999997616,343319.917,343304.3000000715,343336.069,351535.756,1,40,,
trial,html.Screen,6_3_0,2023-11-17T21:41:26.292Z,,,,1,1.2923059965680113,1.222688159093534,,,true,ll,7046.044000071532,response,-0.8956547411795645,1.2,-1.2,-1.4069949335612606,1.2,-1.2,low,low,,ISIC_0072175.JPG,,ISIC_5457889.JPG,253,true,0.42000000000000026,ll,keypress(f),0,false,358581.89999997616,358581.8000000715,351519.069,351526.2000000477,351535.756,358585.782,1,40,4,
sequence,flow.Sequence,6_3,2023-11-17T21:41:26.292Z,,,,,,,,,,,7046.044000071532,completion,,,,,,,low,low,,,,,,true,,,,,false,358582,358581.8000000715,351519.069,351526.10000002384,351535.756,358585.782,1,40,,
trial,html.Screen,6_4_0,2023-11-17T21:41:33.045Z,,,,1,-1.020990671779317,1.0116513850520903,,,true,hl,6748.2179999999935,response,0.8655167308525522,1.2,-1.2,-0.9298580423306444,1.2,-1.2,high,low,,ISIC_0011995.JPG,,ISIC_4603706.JPG,27,true,0.42000000000000026,hl,keypress(j),0,false,365334.10000002384,365334,358569.296,358582,358585.782,365335.767,1,40,5,
sequence,flow.Sequence,6_4,2023-11-17T21:41:33.045Z,,,,,,,,,,,6748.2179999999935,completion,,,,,,,high,low,,,,,,true,,,,,false,365334.10000002384,365334,358569.296,358582,358585.782,365335.767,1,40,,
trial,html.Screen,6_5_0,2023-11-17T21:41:38.132Z,,,,1,-1.241406480986552,-1.081912821786771,,,true,hh,5086.033000071533,response,0.8574426517835552,1.2,-1.2,1.1207578827801843,1.2,-1.2,high,high,,ISIC_4223155.JPG,,ISIC_0030423.JPG,245,true,0.3600000000000002,hh,keypress(i),0,false,370421.89999997616,370421.8000000715,365319.13,365334.2000000477,365335.767,370435.79,1,40,6,
sequence,flow.Sequence,6_5,2023-11-17T21:41:38.133Z,,,,,,,,,,,5086.033000071533,completion,,,,,,,high,high,,,,,,true,,,,,false,370422,370421.8000000715,365319.13,365334.2000000477,365335.767,370435.79,1,40,,
trial,html.Screen,6_6_0,2023-11-17T21:41:42.949Z,,,,1,-0.8979276789594874,0.925374811016654,,,false,hl,4802.310000023863,response,0.7911024675435955,1.2,-1.2,-0.7975977016137676,1.2,-1.2,high,low,,ISIC_4208361.JPG,,ISIC_5813642.JPG,27,true,0.42000000000000026,hh,keypress(i),0,false,375238.2000000477,375238.10000002384,370418.998,370422.10000002384,370435.79,375252.444,1,40,7,
sequence,flow.Sequence,6_6,2023-11-17T21:41:42.949Z,,,,,,,,,,,4802.310000023863,completion,,,,,,,high,low,,,,,,true,,,,,false,375238.3000000715,375238.10000002384,370418.998,370422.10000002384,370435.79,375252.444,1,40,,
trial,html.Screen,6_7_0,2023-11-17T21:41:51.430Z,,,,1,1.2181031651370575,1.2158573487067317,,,true,ll,8465.555999999982,response,-0.8728834820669534,1.2,-1.2,-0.9788202580034188,1.2,-1.2,low,low,,ISIC_7242312.JPG,,ISIC_7519627.JPG,179,true,0.3600000000000002,ll,keypress(f),0,false,383718.10000002384,383718,375235.837,375238.39999997616,375252.444,383736.292,1,40,8,
sequence,flow.Sequence,6_7,2023-11-17T21:41:51.430Z,,,,,,,,,,,8465.555999999982,completion,,,,,,,low,low,,,,,,true,,,,,false,383718.2000000477,383718,375235.837,375238.39999997616,375252.444,383736.292,1,40,,
trial,html.Screen,6_8_0,2023-11-17T21:41:57.686Z,,,,1,1.2071341803968807,1.235960269089932,,,true,ll,6237.50800007151,response,-1.131522954199764,1.2,-1.2,-1.1047184491749509,1.2,-1.2,low,low,,ISIC_0058174.JPG,,ISIC_1868816.JPG,26,true,0.15000000000000002,ll,keypress(f),0,false,389973.89999997616,389973.8000000715,383702.148,383718.2000000477,383736.292,389985.767,1,40,9,
sequence,flow.Sequence,6_8,2023-11-17T21:41:57.686Z,,,,,,,,,,,6237.50800007151,completion,,,,,,,low,low,,,,,,true,,,,,false,389974,389973.8000000715,383702.148,383718.2000000477,383736.292,389985.767,1,40,,
trial,html.Screen,6_9_0,2023-11-17T21:42:01.173Z,,,,1,1.101346104814838,1.1225813067473052,,,true,ll,3475.933000047691,response,-1.1210325063849345,1.2,-1.2,-1.1498648320956202,1.2,-1.2,low,low,,ISIC_8175453.JPG,,ISIC_0032162.JPG,26,true,0.15000000000000002,ll,keypress(f),0,false,393461.89999997616,393461.7000000477,389969.172,389974,389985.767,393469.069,1,40,10,
sequence,flow.Sequence,6_9,2023-11-17T21:42:01.174Z,,,,,,,,,,,3475.933000047691,completion,,,,,,,low,low,,,,,,true,,,,,false,393461.89999997616,393461.7000000477,389969.172,389974,389985.767,393469.069,1,40,,
trial,html.Screen,6_10_0,2023-11-17T21:42:09.413Z,,,,1,-0.9454713230140772,0.9245167441969216,,,true,hl,8232.731000071508,response,1.0164576835546473,1.2,-1.2,-0.8120626538423016,1.2,-1.2,high,low,,ISIC_9101055.JPG,,ISIC_6002694.JPG,27,true,0.42000000000000026,hl,keypress(j),0,false,401701.8000000715,401701.8000000715,393452.589,393462,393469.069,401735.913,1,40,11,
sequence,flow.Sequence,6_10,2023-11-17T21:42:09.414Z,,,,,,,,,,,8232.731000071508,completion,,,,,,,high,low,,,,,,true,,,,,false,401702,401701.8000000715,393452.589,393462,393469.069,401735.913,1,40,,
trial,html.Screen,6_11_0,2023-11-17T21:42:17.269Z,,,,1,1.2750452296609045,1.1682369131232675,,,true,ll,7821.787000047683,response,-1.1217390688497193,1.2,-1.2,-0.8482399573167824,1.2,-1.2,low,low,,ISIC_0066399.JPG,,ISIC_0026344.JPG,179,true,0.3600000000000002,ll,keypress(f),0,false,409557.8000000715,409557.7000000477,401719.187,401702,401735.913,409569.059,1,40,12,
sequence,flow.Sequence,6_11,2023-11-17T21:42:17.269Z,,,,,,,,,,,7821.787000047683,completion,,,,,,,low,low,,,,,,true,,,,,false,409557.89999997616,409557.7000000477,401719.187,401702,401735.913,409569.059,1,40,,
trial,html.Screen,6_12_0,2023-11-17T21:42:23.174Z,,,,1,0.809764442462202,-1.005337148078696,,,false,lh,5892.84099997615,response,-0.8534691366511764,1.2,-1.2,1.03975580494588,1.2,-1.2,low,high,,ISIC_2379379.JPG,,ISIC_0056788.JPG,26,true,0.3600000000000002,hh,keypress(i),0,false,415462.10000002384,415461.89999997616,409552.387,409557.89999997616,409569.059,415469.082,1,40,13,
sequence,flow.Sequence,6_12,2023-11-17T21:42:23.174Z,,,,,,,,,,,5892.84099997615,completion,,,,,,,low,high,,,,,,true,,,,,false,415462.10000002384,415461.89999997616,409552.387,409557.89999997616,409569.059,415469.082,1,40,,
trial,html.Screen,6_13_0,2023-11-17T21:42:34.150Z,,,,1,0.7809949855371787,-0.8493861117004308,,,true,lh,10968.817999976163,response,-0.7951166058716005,1.2,-1.2,1.477327500998078,1.2,-1.2,low,high,,ISIC_7450481.JPG,,ISIC_0033925.JPG,33,true,0.42000000000000026,lh,keypress(e),0,false,426438,426437.89999997616,415452.292,415462.2000000477,415469.082,426452.567,1,40,14,
sequence,flow.Sequence,6_13,2023-11-17T21:42:34.150Z,,,,,,,,,,,10968.817999976163,completion,,,,,,,low,high,,,,,,true,,,,,false,426438,426437.89999997616,415452.292,415462.10000002384,415469.082,426452.567,1,40,,
trial,html.Screen,6_14_0,2023-11-17T21:42:42.534Z,,,,1,1.2915523362516486,1.1264977790562936,,,true,ll,8369.332999976177,response,-0.8399241413841876,1.2,-1.2,-0.9343381610425818,1.2,-1.2,low,low,,ISIC_0502582.JPG,,ISIC_9203914.JPG,253,true,0.42000000000000026,ll,keypress(f),0,false,434822,434821.89999997616,426435.498,426438.10000002384,426452.567,434835.664,1,40,15,
sequence,flow.Sequence,6_14,2023-11-17T21:42:42.534Z,,,,,,,,,,,8369.332999976177,completion,,,,,,,low,low,,,,,,true,,,,,false,434822.10000002384,434821.89999997616,426435.498,426438.10000002384,426452.567,434835.664,1,40,,
trial,html.Screen,6_15_0,2023-11-17T21:42:52.070Z,,,,1,0.8200962008791046,-0.7936051642828523,,,true,lh,9521.735999976168,response,-0.991282840649944,1.2,-1.2,0.9397921099839784,1.2,-1.2,low,high,,ISIC_0027031.JPG,,ISIC_0000463.JPG,26,true,0.3600000000000002,lh,keypress(e),0,false,444357.5,444357.39999997616,434818.761,434822.2000000477,434835.664,444369.015,1,40,16,
sequence,flow.Sequence,6_15,2023-11-17T21:42:52.070Z,,,,,,,,,,,9521.735999976168,completion,,,,,,,low,high,,,,,,true,,,,,false,444357.60000002384,444357.39999997616,434818.761,434822.2000000477,434835.664,444369.015,1,40,,
trial,html.Screen,6_16_0,2023-11-17T21:42:59.734Z,,,,1,-0.9579209317488,1.0147487101263497,,,true,hl,7652.785000071512,response,0.9388660854518424,1.2,-1.2,-0.79533948698576,1.2,-1.2,high,low,,ISIC_8124482.JPG,,ISIC_9291926.JPG,27,true,0.42000000000000026,hl,keypress(j),0,false,452021.89999997616,452021.8000000715,444352.298,444357.60000002384,444369.015,452035.769,1,40,17,
sequence,flow.Sequence,6_16,2023-11-17T21:42:59.734Z,,,,,,,,,,,7652.785000071512,completion,,,,,,,high,low,,,,,,true,,,,,false,452022,452021.8000000715,444352.298,444357.60000002384,444369.015,452035.769,1,40,,
trial,html.Screen,6_17_0,2023-11-17T21:43:07.110Z,,,,1,-1.1137763092539212,-1.1599906701455132,,,true,hh,7361.630999976187,response,0.8926778502294954,1.2,-1.2,0.9164454040166848,1.2,-1.2,high,high,,ISIC_5413788.JPG,,ISIC_0011460.JPG,245,true,0.3600000000000002,hh,keypress(i),0,false,459397.5,459397.39999997616,452019.02,452022,452035.769,459402.338,1,40,18,
sequence,flow.Sequence,6_17,2023-11-17T21:43:07.110Z,,,,,,,,,,,7361.630999976187,completion,,,,,,,high,high,,,,,,true,,,,,false,459397.60000002384,459397.39999997616,452019.02,452022,452035.769,459402.338,1,40,,
trial,html.Screen,6_18_0,2023-11-17T21:43:12.582Z,,,,1,1.2169050727663315,1.1067845563421794,,,true,ll,5467.462000071537,response,-1.2724584600905462,1.2,-1.2,-1.1411016103695344,1.2,-1.2,low,low,,ISIC_7016261.JPG,,ISIC_0059625.JPG,26,true,0.15000000000000002,ll,keypress(f),0,false,464870,464869.8000000715,459385.897,459397.60000002384,459402.338,464885.901,1,40,19,
sequence,flow.Sequence,6_18,2023-11-17T21:43:12.582Z,,,,,,,,,,,5467.462000071537,completion,,,,,,,low,low,,,,,,true,,,,,false,464870,464869.8000000715,459385.897,459397.60000002384,459402.338,464885.901,1,40,,
trial,html.Screen,6_19_0,2023-11-17T21:43:16.118Z,,,,1,1.2249552940807693,1.1723015116910682,,,true,ll,3519.4989999761456,response,-1.3411179702686655,1.2,-1.2,-1.255103311449152,1.2,-1.2,low,low,,ISIC_0055251.JPG,,ISIC_5611010.JPG,26,true,0.15000000000000002,ll,keypress(f),0,false,468405.60000002384,468405.39999997616,464868.989,464870.10000002384,464885.901,468418.979,1,40,20,
sequence,flow.Sequence,6_19,2023-11-17T21:43:16.118Z,,,,,,,,,,,3519.4989999761456,completion,,,,,,,low,low,,,,,,true,,,,,false,468405.7000000477,468405.39999997616,464868.989,464870.10000002384,464885.901,468418.979,1,40,,
trial,html.Screen,6_20_0,2023-11-17T21:43:25.318Z,,,,1,0.8092423703106274,-1.1870093485714288,,,true,lh,9186.920999976166,response,-1.0026266089287914,1.2,-1.2,1.0913275913920335,1.2,-1.2,low,high,,ISIC_8592235.JPG,,ISIC_0033520.JPG,26,true,0.3600000000000002,lh,keypress(e),0,false,477606,477605.89999997616,468402.364,468405.8000000715,468418.979,477619.072,1,40,21,
sequence,flow.Sequence,6_20,2023-11-17T21:43:25.318Z,,,,,,,,,,,9186.920999976166,completion,,,,,,,low,high,,,,,,true,,,,,false,477606.10000002384,477605.89999997616,468402.364,468405.8000000715,468418.979,477619.072,1,40,,
trial,html.Screen,6_21_0,2023-11-17T21:43:29.494Z,,,,1,-1.3189473926989124,-1.0770264364718942,,,true,hh,4162.327999976173,response,1.0323818763018933,1.2,-1.2,0.8120239593278021,1.2,-1.2,high,high,,ISIC_6093728.JPG,,ISIC_0012055.JPG,339,true,0.42000000000000026,hh,keypress(i),0,false,481781.39999997616,481781.39999997616,477602.257,477606.2000000477,477619.072,481785.635,1,40,22,
sequence,flow.Sequence,6_21,2023-11-17T21:43:29.494Z,,,,,,,,,,,4162.327999976173,completion,,,,,,,high,high,,,,,,true,,,,,false,481781.5,481781.39999997616,477602.257,477606.10000002384,477619.072,481785.635,1,40,,
trial,html.Screen,6_22_0,2023-11-17T21:43:32.694Z,,,,1,-1.0870240111136478,-1.332340670965917,,,true,hh,3196.0650000476744,response,1.3150500754357115,1.2,-1.2,1.2575260551085132,1.2,-1.2,high,high,,ISIC_0000660.JPG,,ISIC_0029591.JPG,53,true,0.15000000000000002,hh,keypress(i),0,false,484981.8000000715,484981.7000000477,481768.991,481781.5,481785.635,484985.679,1,40,23,
sequence,flow.Sequence,6_22,2023-11-17T21:43:32.694Z,,,,,,,,,,,3196.0650000476744,completion,,,,,,,high,high,,,,,,true,,,,,false,484981.89999997616,484981.7000000477,481768.991,481781.5,481785.635,484985.679,1,40,,
trial,html.Screen,6_23_0,2023-11-17T21:43:37.958Z,,,,1,1.1877026569952844,1.1604367569896263,,,true,ll,5259.621000071522,response,-1.2711018615747949,1.2,-1.2,-1.1042234044781618,1.2,-1.2,low,low,,ISIC_0064589.JPG,,ISIC_8603734.JPG,26,true,0.15000000000000002,ll,keypress(f),0,false,490245.39999997616,490245.3000000715,484969.159,484981.89999997616,484985.679,490252.293,1,40,24,
sequence,flow.Sequence,6_23,2023-11-17T21:43:37.958Z,,,,,,,,,,,5259.621000071522,completion,,,,,,,low,low,,,,,,true,,,,,false,490245.5,490245.3000000715,484969.159,484981.89999997616,484985.679,490252.293,1,40,,
trial,html.Screen,6_24_0,2023-11-17T21:43:42.022Z,,,,1,-1.2318069697449794,-1.1703576816778267,,,true,hh,4057.5070000715205,response,1.126264390089724,1.2,-1.2,1.271896565050952,1.2,-1.2,high,high,,ISIC_2732573.JPG,,ISIC_1520897.JPG,30,true,0.1,hh,keypress(i),0,false,494309.89999997616,494309.8000000715,490235.703,490245.60000002384,490252.293,494319.127,1,40,25,
sequence,flow.Sequence,6_24,2023-11-17T21:43:42.022Z,,,,,,,,,,,4057.5070000715205,completion,,,,,,,high,high,,,,,,true,,,,,false,494310,494309.8000000715,490235.703,490245.5,490252.293,494319.127,1,40,,
trial,html.Screen,6_25_0,2023-11-17T21:43:47.638Z,,,,1,-1.201100953917304,-1.1751492358160105,,,true,hh,5606.27299997618,response,1.0698162624196283,1.2,-1.2,1.219634566983089,1.2,-1.2,high,high,,ISIC_0647224.JPG,,ISIC_0030552.JPG,53,true,0.15000000000000002,hh,keypress(i),0,false,499925.39999997616,499925.39999997616,494302.453,494310,494319.127,499935.581,1,40,26,
sequence,flow.Sequence,6_25,2023-11-17T21:43:47.638Z,,,,,,,,,,,5606.27299997618,completion,,,,,,,high,high,,,,,,true,,,,,false,499925.60000002384,499925.39999997616,494302.453,494310,494319.127,499935.581,1,40,,
trial,html.Screen,6_26_0,2023-11-17T21:43:54.214Z,,,,1,-1.1181734135756094,0.944560381774994,,,true,hl,6566.21900007152,response,1.0264463986917702,1.2,-1.2,-1.2804054832904397,1.2,-1.2,high,low,,ISIC_9688534.JPG,,ISIC_7889838.JPG,27,true,0.42000000000000026,hl,keypress(j),0,false,506501.89999997616,506501.8000000715,499919.004,499925.60000002384,499935.581,506535.877,1,40,27,
sequence,flow.Sequence,6_26,2023-11-17T21:43:54.215Z,,,,,,,,,,,6566.21900007152,completion,,,,,,,high,low,,,,,,true,,,,,false,506502,506501.8000000715,499919.004,499925.60000002384,499935.581,506535.877,1,40,,
trial,html.Screen,6_27_0,2023-11-17T21:44:04.231Z,,,,1,-1.4747161152848791,0.847048591307387,,,true,hl,9981.923000071547,response,0.8947611078712571,1.2,-1.2,-0.8960964505004638,1.2,-1.2,high,low,,ISIC_0016092.JPG,,ISIC_6441128.JPG,27,true,0.42000000000000026,hl,keypress(j),0,false,516517.89999997616,516517.8000000715,506519.39,506502,506535.877,516536.627,1,40,28,
sequence,flow.Sequence,6_27,2023-11-17T21:44:04.231Z,,,,,,,,,,,9981.923000071547,completion,,,,,,,high,low,,,,,,true,,,,,false,516518,516517.8000000715,506519.39,506502,506535.877,516536.627,1,40,,
trial,html.Screen,6_28_0,2023-11-17T21:44:07.334Z,,,,1,-1.3411179702686655,-1.255103311449152,,,true,hh,3084.8730000000214,response,1.0931477426281198,1.2,-1.2,1.0028306951898116,1.2,-1.2,high,high,,ISIC_5611010.JPG,,ISIC_0026531.JPG,245,true,0.3600000000000002,hh,keypress(i),0,false,519621.60000002384,519621.5,516502.182,516518,516536.627,519635.612,1,40,29,
sequence,flow.Sequence,6_28,2023-11-17T21:44:07.334Z,,,,,,,,,,,3084.8730000000214,completion,,,,,,,high,high,,,,,,true,,,,,false,519621.7000000477,519621.5,516502.182,516518,516536.627,519635.612,1,40,,
trial,html.Screen,6_29_0,2023-11-17T21:44:20.758Z,,,,1,1.0213365328004047,-1.088524359911891,,,true,lh,13410.188000071503,response,-1.331700944308701,1.2,-1.2,0.9395196143259436,1.2,-1.2,low,high,,ISIC_5434229.JPG,,ISIC_1668831.JPG,26,true,0.3600000000000002,lh,keypress(e),0,false,533045.8000000715,533045.8000000715,519619.286,519621.8000000715,519635.612,533052.219,1,40,30,
sequence,flow.Sequence,6_29,2023-11-17T21:44:20.759Z,,,,,,,,,,,13410.188000071503,completion,,,,,,,low,high,,,,,,true,,,,,false,533045.8999999762,533045.8000000715,519619.286,519621.8000000715,519635.612,533052.219,1,40,,
trial,html.Screen,6_30_0,2023-11-17T21:44:28.710Z,,,,1,0.7871162143493278,-0.8429329800778957,,,true,lh,7945.280999999959,response,-1.1181734135756094,1.2,-1.2,0.944560381774994,1.2,-1.2,low,high,,ISIC_3439215.JPG,,ISIC_9688534.JPG,33,true,0.42000000000000026,lh,keypress(e),0,false,540997.6000000238,540997.5,533035.242,533046,533052.219,541002.219,1,40,31,
sequence,flow.Sequence,6_30,2023-11-17T21:44:28.710Z,,,,,,,,,,,7945.280999999959,completion,,,,,,,low,high,,,,,,true,,,,,false,540997.7000000477,540997.5,533035.242,533046,533052.219,541002.219,1,40,,
trial,html.Screen,6_31_0,2023-11-17T21:44:35.735Z,,,,1,-1.2724584600905462,-1.1411016103695344,,,true,hh,7019.581000071485,response,0.8227212137652337,1.2,-1.2,1.0019180628441589,1.2,-1.2,high,high,,ISIC_0059625.JPG,,ISIC_0013411.JPG,339,true,0.42000000000000026,hh,keypress(i),0,false,548021.8999999762,548021.8000000715,540985.495,540997.8000000715,541002.219,548035.553,1,40,32,
sequence,flow.Sequence,6_31,2023-11-17T21:44:35.735Z,,,,,,,,,,,7019.581000071485,completion,,,,,,,high,high,,,,,,true,,,,,false,548022.1000000238,548021.8000000715,540985.495,540997.8000000715,541002.219,548035.553,1,40,,
trial,html.Screen,6_32_0,2023-11-17T21:44:47.446Z,,,,1,-0.8579451262594331,0.9633172970727744,,,true,hl,11697.947000000044,response,0.7998855902596425,1.2,-1.2,-1.1518579145663017,1.2,-1.2,high,low,,ISIC_0067172.JPG,,ISIC_0025061.JPG,27,true,0.42000000000000026,hl,keypress(j),0,false,559733.7000000477,559733.5,548018.911,548022.1000000238,548035.553,559735.538,1,40,33,
sequence,flow.Sequence,6_32,2023-11-17T21:44:47.446Z,,,,,,,,,,,11697.947000000044,completion,,,,,,,high,low,,,,,,true,,,,,false,559733.8000000715,559733.5,548018.911,548022.1000000238,548035.553,559735.538,1,40,,
trial,html.Screen,6_33_0,2023-11-17T21:44:53.543Z,,,,1,0.948927472020595,-1.0660437155921598,,,true,lh,6094.1620000477415,response,-1.0143509683988825,1.2,-1.2,1.3163955902021656,1.2,-1.2,low,high,,ISIC_5808758.JPG,,ISIC_0062031.JPG,26,true,0.3600000000000002,lh,keypress(e),0,false,565829.8000000715,565829.7000000477,559718.709,559733.8000000715,559735.538,565835.545,1,40,34,
sequence,flow.Sequence,6_33,2023-11-17T21:44:53.543Z,,,,,,,,,,,6094.1620000477415,completion,,,,,,,low,high,,,,,,true,,,,,false,565829.8999999762,565829.7000000477,559718.709,559733.8000000715,559735.538,565835.545,1,40,,
trial,html.Screen,6_34_0,2023-11-17T21:45:02.759Z,,,,1,-1.0959058628476686,-1.1684835186766898,,,true,hh,9210.354999976116,response,1.1783311757907324,1.2,-1.2,1.0915173513546716,1.2,-1.2,high,high,,ISIC_5920470.JPG,,ISIC_8241457.JPG,339,true,0.42000000000000026,hh,keypress(i),0,false,575046,575045.8999999762,565818.703,565829.8999999762,565835.545,575052.173,1,40,35,
sequence,flow.Sequence,6_34,2023-11-17T21:45:02.759Z,,,,,,,,,,,9210.354999976116,completion,,,,,,,high,high,,,,,,true,,,,,false,575046.1000000238,575045.8999999762,565818.703,565829.8999999762,565835.545,575052.173,1,40,,
trial,html.Screen,6_35_0,2023-11-17T21:45:14.359Z,,,,1,-1.0865333402803938,1.0542635307358266,,,true,hl,11593.527000047732,response,1.0264463986917702,1.2,-1.2,-1.2804054832904397,1.2,-1.2,high,low,,ISIC_0034006.JPG,,ISIC_7889838.JPG,27,true,0.42000000000000026,hl,keypress(j),0,false,586645.8000000715,586645.7000000477,575035.448,575046.1000000238,575052.173,586652.164,1,40,36,
sequence,flow.Sequence,6_35,2023-11-17T21:45:14.359Z,,,,,,,,,,,11593.527000047732,completion,,,,,,,high,low,,,,,,true,,,,,false,586645.8000000715,586645.7000000477,575035.448,575046.1000000238,575052.173,586652.164,1,40,,
trial,html.Screen,6_36_0,2023-11-17T21:45:21.959Z,,,,1,0.7833710010171356,-0.9315588090336896,,,true,lh,7593.636000071536,response,-1.020990671779317,1.2,-1.2,1.0116513850520903,1.2,-1.2,low,high,,ISIC_3826102.JPG,,ISIC_0011995.JPG,26,true,0.3600000000000002,lh,keypress(e),0,false,594246,594245.8000000715,586635.594,586645.8999999762,586652.164,594252.183,1,40,37,
sequence,flow.Sequence,6_36,2023-11-17T21:45:21.959Z,,,,,,,,,,,7593.636000071536,completion,,,,,,,low,high,,,,,,true,,,,,false,594246,594245.8000000715,586635.594,586645.8999999762,586652.164,594252.183,1,40,,
trial,html.Screen,6_37_0,2023-11-17T21:45:32.902Z,,,,1,-1.4747161152848791,0.847048591307387,,,true,hl,10936.716999976197,response,1.0264463986917702,1.2,-1.2,-1.2804054832904397,1.2,-1.2,high,low,,ISIC_0016092.JPG,,ISIC_7889838.JPG,27,true,0.42000000000000026,hl,keypress(j),0,false,605188.8999999762,605188.8999999762,594235.598,594246,594252.183,605202.128,1,40,38,
sequence,flow.Sequence,6_37,2023-11-17T21:45:32.902Z,,,,,,,,,,,10936.716999976197,completion,,,,,,,high,low,,,,,,true,,,,,false,605189.1000000238,605188.8999999762,594235.598,594246,594252.183,605202.128,1,40,,
trial,html.Screen,6_38_0,2023-11-17T21:45:38.454Z,,,,1,1.156827121261563,1.2544342720917778,,,true,ll,5538.871999999974,response,-0.9991910338212396,1.2,-1.2,-0.9242629064104082,1.2,-1.2,low,low,,ISIC_0060397.JPG,,ISIC_7795549.JPG,179,true,0.3600000000000002,ll,keypress(f),0,false,610741.1000000238,610741,605185.276,605189.1000000238,605202.128,610752.147,1,40,39,
sequence,flow.Sequence,6_38,2023-11-17T21:45:38.454Z,,,,,,,,,,,5538.871999999974,completion,,,,,,,low,low,,,,,,true,,,,,false,610741.2000000477,610741,605185.276,605189.1000000238,605202.128,610752.147,1,40,,
trial,html.Screen,6_39_0,2023-11-17T21:45:45.207Z,,,,1,-0.991282840649944,0.9397921099839784,,,true,hl,6741.453000023845,response,0.7871162143493278,1.2,-1.2,-0.8429329800778957,1.2,-1.2,high,low,,ISIC_0000463.JPG,,ISIC_3439215.JPG,27,true,0.42000000000000026,hl,keypress(j),0,false,617493.6000000238,617493.6000000238,610735.593,610741.3000000715,610752.147,617502.253,1,40,40,
sequence,flow.Sequence,6_39,2023-11-17T21:45:45.207Z,,,,,,,,,,,6741.453000023845,completion,,,,,,,high,low,,,,,,true,,,,,false,617493.8000000715,617493.6000000238,610735.593,610741.3000000715,610752.147,617502.253,1,40,,
practice_loop,flow.Loop,6,2023-11-17T21:45:45.207Z,,,,,,,,,,,295091.10400002386,completion,,,,,,,,,,,,,,true,,,,,false,617493.8000000715,617493.6000000238,322369.351,322386.3000000715,322402.496,617502.253,1,40,,
stair_instructions,html.Screen,7,2023-11-17T21:45:59.462Z,,,,,,,,,,,14245.746999999974,response,,,,,,,,,,,,,,,,continue,click button,,,631748.8000000715,631748,617485.259,617493.8000000715,617502.253,631752.117,,,,
trial,html.Screen,8_0_0,2023-11-17T21:46:08.906Z,,,,2,0.0050679133050021,-0.0009714874637896,,0.05,false,lh,9439.88300000003,response,-0.858338058340649,1.2,-1.2,0.9540612223480284,1.2,-1.2,low,high,,ISIC_9848743.JPG,,ISIC_8922893.JPG,26,false,0.3600000000000002,ll,keypress(f),0,true,641192.2000000477,641192,631735.718,631749,631752.117,641219.244,1,40,1,
sequence,flow.Sequence,8_0,2023-11-17T21:46:08.906Z,,,,,,,,,,,9439.88300000003,completion,,,,,,,low,high,,,,,,false,,,,,true,641192.2000000477,641192,631735.718,631749,631752.117,641219.244,1,40,,
trial,html.Screen,8_1_0,2023-11-17T21:46:17.495Z,,,,2,-0.0134764727102299,-0.0033499036460912,,0.05,false,hl,8562.15599997621,response,0.9873794329144926,1.15,-1.15,-0.7991077882008257,1.2,-1.15,high,low,,ISIC_0009998.JPG,,ISIC_0013498.JPG,27,false,0.3700000000000002,ll,keypress(f),0,true,649781.5,649781.3999999762,641202.148,641192.3000000715,641219.244,649785.437,1,40,2,
sequence,flow.Sequence,8_1,2023-11-17T21:46:17.495Z,,,,,,,,,,,8562.15599997621,completion,,,,,,,high,low,,,,,,false,,,,,true,649781.6000000238,649781.3999999762,641202.148,641192.2000000477,641219.244,649785.437,1,40,,
trial,html.Screen,8_2_0,2023-11-17T21:46:30.858Z,,,,2,0.0057914759495055,0.0074667911845194,,0.05,false,ll,13358.562999999966,response,-1.086647361897092,1.15,-1.15,-1.1528935990320313,1.15,-1.15,low,low,,ISIC_0058723.JPG,,ISIC_3505339.JPG,30,false,0.13,hl,keypress(j),0,true,663144.2000000477,663144,649768.752,649781.6000000238,649785.437,663152.12,1,40,3,
sequence,flow.Sequence,8_2,2023-11-17T21:46:30.858Z,,,,,,,,,,,13358.562999999966,completion,,,,,,,low,low,,,,,,false,,,,,true,663144.2000000477,663144,649768.752,649781.6000000238,649785.437,663152.12,1,40,,
trial,html.Screen,8_3_0,2023-11-17T21:46:46.849Z,,,,2,-0.000047919190197942736,-0.0462652940855003,,0.05,,,16016.641000000061,timeout,0.9238778505223862,1.15,-1.15,-0.6879166947304511,1.15,-0.9260006936164284,high,low,,ISIC_0011507.JPG,,ISIC_0028291.JPG,28,false,0.30000000000000016,,,0,true,679135.8000000715,679135.7000000477,663135.213,663144.2000000477,663152.12,679168.761,1,40,4,
sequence,flow.Sequence,8_3,2023-11-17T21:46:46.849Z,,,,,,,,,,,15983.580000047688,completion,,,,,,,high,low,,,,,,false,,,,,true,679135.8999999762,679135.7000000477,663135.213,663144.2000000477,663152.12,679168.761,1,40,,
trial,html.Screen,8_4_0,2023-11-17T21:46:51.800Z,,,,2,0.0329095507339554,-0.0382899749693245,,0.05,true,ll,4916.839000023785,response,-1.1513656623516493,1.15,-1.15,-0.9961674882214306,1.15,-0.9260006936164284,low,low,,ISIC_8812781.JPG,,ISIC_0624779.JPG,32,false,0.1,ll,keypress(f),0,true,684085.6000000238,684085.6000000238,679152.038,679136,679168.761,684102.268,1,40,5,
sequence,flow.Sequence,8_4,2023-11-17T21:46:51.800Z,,,,,,,,,,,4916.839000023785,completion,,,,,,,low,low,,,,,,false,,,,,true,684085.8000000715,684085.6000000238,679152.038,679135.8999999762,679168.761,684102.268,1,40,,
trial,html.Screen,8_5_0,2023-11-17T21:46:58.711Z,,,,2,-0.0097091270150747,0.0417921315885292,,0.05,true,ll,6894.832000023802,response,-1.1217390688497193,1.15,-1.15,-0.8482399573167824,1.15,-0.9260006936164284,low,low,,ISIC_3967213.JPG,,ISIC_0026344.JPG,32,false,0.1,ll,keypress(f),0,true,690997.2000000477,690997.1000000238,684085.25,684085.8000000715,684102.268,691002.081,1,40,6,
sequence,flow.Sequence,8_5,2023-11-17T21:46:58.711Z,,,,,,,,,,,6894.832000023802,completion,,,,,,,low,low,,,,,,false,,,,,true,690997.3000000715,690997.1000000238,684085.25,684085.8000000715,684102.268,691002.081,1,40,,
trial,html.Screen,8_6_0,2023-11-17T21:47:02.968Z,,,,2,-0.0113873532168551,-0.0054999201556291,,0.05,false,ll,4251.418999999994,response,-0.8513702094329779,1.15,-0.8722037227691064,-0.8646686295881743,1.15,-0.8722037227691064,low,low,,ISIC_8812621.JPG,,ISIC_1881133.JPG,42,false,0.1,hh,keypress(i),0,true,695253.7000000477,695253.5,690985.443,690997.3000000715,691002.081,695268.822,1,40,7,
sequence,flow.Sequence,8_6,2023-11-17T21:47:02.968Z,,,,,,,,,,,4251.418999999994,completion,,,,,,,low,low,,,,,,false,,,,,true,695253.8000000715,695253.5,690985.443,690997.3000000715,691002.081,695268.822,1,40,,
trial,html.Screen,8_7_0,2023-11-17T21:47:07.288Z,,,,2,0.0027483411352856,0.0100996915276271,,0.05,false,lh,4304.677999999956,response,-0.8487429103619056,1.15,-0.9222037227691064,0.9778257804233036,1.15,-0.9222037227691064,low,high,,ISIC_7364041.JPG,,ISIC_4554863.JPG,30,false,0.2300000000000001,ll,keypress(f),0,true,699573.6000000238,699573.5,695252.205,695253.8999999762,695268.822,699585.568,1,40,8,
sequence,flow.Sequence,8_7,2023-11-17T21:47:07.288Z,,,,,,,,,,,4304.677999999956,completion,,,,,,,low,high,,,,,,false,,,,,true,699573.7000000477,699573.5,695252.205,695253.8000000715,695268.822,699585.568,1,40,,
trial,html.Screen,8_8_0,2023-11-17T21:47:14.056Z,,,,2,0.0389988030702649,0.0143212271490256,,0.05,false,lh,6756.1320000477135,response,-1.0026266089287914,1.15,-0.9222037227691064,1.0913275913920335,1.15,-0.9222037227691064,low,high,,ISIC_0064669.JPG,,ISIC_0033520.JPG,30,false,0.2300000000000001,hl,keypress(j),0,true,706341.8999999762,706341.7000000477,699568.864,699573.7000000477,699585.568,706352.08,1,40,9,
sequence,flow.Sequence,8_8,2023-11-17T21:47:14.056Z,,,,,,,,,,,6756.1320000477135,completion,,,,,,,low,high,,,,,,false,,,,,true,706342,706341.7000000477,699568.864,699573.7000000477,699585.568,706352.08,1,40,,
trial,html.Screen,8_9_0,2023-11-17T21:47:21.176Z,,,,2,-0.0113873532168551,-0.0054999201556291,,0.05,false,lh,7109.620000047726,response,-0.991282840649944,1.15,-0.9722037227691065,0.9397921099839784,1.15,-0.9222037227691064,low,high,,ISIC_8812621.JPG,,ISIC_0000463.JPG,25,false,0.2500000000000001,hl,keypress(j),0,true,713461.8000000715,713461.7000000477,706335.604,706342.1000000238,706352.08,713468.662,1,40,10,
sequence,flow.Sequence,8_9,2023-11-17T21:47:21.176Z,,,,,,,,,,,7109.620000047726,completion,,,,,,,low,high,,,,,,false,,,,,true,713461.8999999762,713461.7000000477,706335.604,706342.1000000238,706352.08,713468.662,1,40,,
trial,html.Screen,8_10_0,2023-11-17T21:47:30.311Z,,,,2,-0.0409338693593207,0.0072462710499874,,0.05,false,hl,9128.43800002383,response,1.3439633576785148,1.15,-1.0222037227691065,-0.632627305170864,1.15,-0.9222037227691064,high,low,,ISIC_3608788.JPG,,ISIC_9482251.JPG,27,false,0.29000000000000015,hh,keypress(i),0,true,722597.2000000477,722597.1000000238,713452.06,713462,713468.662,722602.035,1,40,11,
sequence,flow.Sequence,8_10,2023-11-17T21:47:30.311Z,,,,,,,,,,,9128.43800002383,completion,,,,,,,high,low,,,,,,false,,,,,true,722597.2000000477,722597.1000000238,713452.06,713462,713468.662,722602.035,1,40,,
trial,html.Screen,8_11_0,2023-11-17T21:47:39.096Z,,,,2,0.039728379742806,-0.0228701131373768,,0.05,false,hh,8779.464999999967,response,1.0910404089869363,1.15,-1.0222037227691065,1.119702461098404,1.15,-0.9722037227691065,high,high,,ISIC_0054073.JPG,,ISIC_0067097.JPG,27,false,0.1,lh,keypress(e),0,true,731381.6000000238,731381.5,722585.044,722597.3999999762,722602.035,731385.339,1,40,12,
sequence,flow.Sequence,8_11,2023-11-17T21:47:39.096Z,,,,,,,,,,,8779.464999999967,completion,,,,,,,high,high,,,,,,false,,,,,true,731381.7000000477,731381.5,722585.044,722597.3999999762,722602.035,731385.339,1,40,,
trial,html.Screen,8_12_0,2023-11-17T21:47:48.728Z,,,,2,-0.0348234368746005,0.0236866303880924,,0.05,false,lh,9628.160999999964,response,-0.8534691366511764,1.15,-1.0222037227691065,1.03975580494588,1.15,-0.9722037227691065,low,high,,ISIC_0011099.JPG,,ISIC_0056788.JPG,25,false,0.2600000000000001,ll,keypress(f),0,true,741013.5,741013.5,731368.652,731381.7000000477,731385.339,741018.659,1,40,13,
sequence,flow.Sequence,8_12,2023-11-17T21:47:48.728Z,,,,,,,,,,,9628.160999999964,completion,,,,,,,low,high,,,,,,false,,,,,true,741013.6000000238,741013.5,731368.652,731381.7000000477,731385.339,741018.659,1,40,,
trial,html.Screen,8_13_0,2023-11-17T21:47:57.399Z,,,,2,-0.0188047466661863,0.0288346930436979,,0.05,false,hh,8666.14100007154,response,1.2282561398079586,1.15,-1.0222037227691065,1.210457198775374,1.15,-0.9722037227691065,high,high,,ISIC_0014157.JPG,,ISIC_9141817.JPG,27,false,0.1,ll,keypress(f),0,true,749684.8999999762,749684.8000000715,741001.907,741013.7000000477,741018.659,749718.621,1,40,14,
sequence,flow.Sequence,8_13,2023-11-17T21:47:57.400Z,,,,,,,,,,,8666.14100007154,completion,,,,,,,high,high,,,,,,false,,,,,true,749685.1000000238,749684.8000000715,741001.907,741013.6000000238,741018.659,749718.621,1,40,,
trial,html.Screen,8_14_0,2023-11-17T21:48:11.784Z,,,,2,0.0363437082783146,0.0333332186217051,,0.05,true,hl,14351.07900004764,response,0.8484262439038232,1.15,-1.0222037227691065,-0.6791355686919245,1.15,-0.9722037227691065,high,low,,ISIC_3314555.JPG,,ISIC_9436034.JPG,26,false,0.31000000000000016,hl,keypress(j),0,true,764069.8000000715,764069.7000000477,749701.957,749685.2000000477,749718.621,764085.573,1,40,15,
sequence,flow.Sequence,8_14,2023-11-17T21:48:11.784Z,,,,,,,,,,,14351.07900004764,completion,,,,,,,high,low,,,,,,false,,,,,true,764070,764069.7000000477,749701.957,749685.2000000477,749718.621,764085.573,1,40,,
trial,html.Screen,8_15_0,2023-11-17T21:48:23.800Z,,,,2,0.039728379742806,-0.0228701131373768,,0.05,true,ll,12000.027000023867,response,-0.9493297220358412,1.15,-1.0222037227691065,-0.9126122723623854,1.15,-0.9722037227691065,low,low,,ISIC_0054073.JPG,,ISIC_9738202.JPG,38,false,0.1,ll,keypress(f),0,true,776085.6000000238,776085.6000000238,764068.39,764070.1000000238,764085.573,776102.219,1,40,16,
sequence,flow.Sequence,8_15,2023-11-17T21:48:23.800Z,,,,,,,,,,,12000.027000023867,completion,,,,,,,low,low,,,,,,false,,,,,true,776085.8000000715,776085.6000000238,764068.39,764070.1000000238,764085.573,776102.219,1,40,,
trial,html.Screen,8_16_0,2023-11-17T21:48:37.336Z,,,,2,0.0324770283903853,0.0249968632204382,,0.05,false,hh,13519.280999999959,response,1.0910404089869363,1.15,-0.745873920527155,1.119702461098404,1.15,-0.745873920527155,high,high,,ISIC_7266462.JPG,,ISIC_0067097.JPG,27,false,0.1,lh,keypress(e),0,true,789621.6000000238,789621.5,776084.909,776085.8000000715,776102.219,789635.487,1,40,17,
sequence,flow.Sequence,8_16,2023-11-17T21:48:37.336Z,,,,,,,,,,,13519.280999999959,completion,,,,,,,high,high,,,,,,false,,,,,true,789621.7000000477,789621.5,776084.909,776085.8000000715,776102.219,789635.487,1,40,,
trial,html.Screen,8_17_0,2023-11-17T21:48:40.616Z,,,,2,0.0085520978188085,-0.0464691161264081,,0.05,true,hh,3266.0130000000354,response,1.247270138097585,1.15,-0.745873920527155,1.1704704713504994,1.15,-0.745873920527155,high,high,,ISIC_0758797.JPG,,ISIC_0065774.JPG,27,false,0.1,hh,keypress(i),0,true,792901.6000000238,792901.5,789618.4,789621.8000000715,789635.487,792918.863,1,40,18,
sequence,flow.Sequence,8_17,2023-11-17T21:48:40.616Z,,,,,,,,,,,3266.0130000000354,completion,,,,,,,high,high,,,,,,false,,,,,true,792901.7000000477,792901.5,789618.4,789621.7000000477,789635.487,792918.863,1,40,,
trial,html.Screen,8_18_0,2023-11-17T21:48:45.767Z,,,,2,-0.000047919190197942736,-0.0462652940855003,,0.05,true,lh,5133.9370000715135,response,-0.6762618798182235,1.15,-0.745873920527155,1.067875773627714,1.158870304724042,-0.745873920527155,low,high,,ISIC_0011507.JPG,,ISIC_0000135.JPG,25,false,0.19000000000000006,lh,keypress(e),0,true,798052.8999999762,798052.8000000715,792901.843,792901.8000000715,792918.863,798068.781,1,40,19,
sequence,flow.Sequence,8_18,2023-11-17T21:48:45.767Z,,,,,,,,,,,5133.9370000715135,completion,,,,,,,low,high,,,,,,false,,,,,true,798053,798052.8000000715,792901.843,792901.8000000715,792918.863,798068.781,1,40,,
trial,html.Screen,8_19_0,2023-11-17T21:48:49.368Z,,,,2,0.039728379742806,-0.0228701131373768,,0.05,false,lh,3584.618999976199,response,-0.6276303452161716,1.15,-0.745873920527155,0.9740596249572724,1.158870304724042,-0.745873920527155,low,high,,ISIC_0054073.JPG,,ISIC_9053910.JPG,25,false,0.19000000000000006,hh,keypress(i),0,true,801653.6000000238,801653.3999999762,798052.039,798053,798068.781,801668.87,1,40,20,
sequence,flow.Sequence,8_19,2023-11-17T21:48:49.368Z,,,,,,,,,,,3584.618999976199,completion,,,,,,,low,high,,,,,,false,,,,,true,801653.6000000238,801653.3999999762,798052.039,798053,798068.781,801668.87,1,40,,
trial,html.Screen,8_20_0,2023-11-17T21:49:01.352Z,,,,2,-0.0097091270150747,0.0417921315885292,,0.05,false,hh,11968.630000000005,response,1.2435042401134029,1.15,-0.795873920527155,1.0592032583207498,0.9709676992924932,-0.745873920527155,high,high,,ISIC_3967213.JPG,,ISIC_0056119.JPG,25,false,0.1,lh,keypress(e),0,true,813637.7000000477,813637.5,801651.821,801653.6000000238,801668.87,813651.986,1,40,21,
sequence,flow.Sequence,8_20,2023-11-17T21:49:01.353Z,,,,,,,,,,,11968.630000000005,completion,,,,,,,high,high,,,,,,false,,,,,true,813637.8000000715,813637.5,801651.821,801653.6000000238,801668.87,813651.986,1,40,,
trial,html.Screen,8_21_0,2023-11-17T21:49:12.264Z,,,,2,0.0027483411352856,0.0100996915276271,,0.05,false,hl,10897.614000023808,response,1.031415631053946,1.15,-0.795873920527155,-0.6661096126601223,0.9709676992924932,-0.745873920527155,high,low,,ISIC_7364041.JPG,,ISIC_8976269.JPG,26,false,0.21000000000000008,ll,keypress(f),0,true,824549.7000000477,824549.6000000238,813634.982,813637.8000000715,813651.986,824551.889,1,40,22,
sequence,flow.Sequence,8_21,2023-11-17T21:49:12.265Z,,,,,,,,,,,10897.614000023808,completion,,,,,,,high,low,,,,,,false,,,,,true,824549.8000000715,824549.6000000238,813634.982,813637.8000000715,813651.986,824551.889,1,40,,
trial,html.Screen,8_22_0,2023-11-17T21:49:20.312Z,,,,2,0.0116094682222121,-0.0258434522530318,,0.05,false,lh,8045.510999976192,response,-0.8579451262594331,1.15,-0.795873920527155,0.9633172970727744,0.9709676992924932,-0.745873920527155,low,high,,ISIC_9239632.JPG,,ISIC_0067172.JPG,25,false,0.16000000000000003,ll,keypress(f),0,true,832597.5,832597.3999999762,824535.122,824549.8999999762,824551.889,832601.894,1,40,23,
sequence,flow.Sequence,8_22,2023-11-17T21:49:20.312Z,,,,,,,,,,,8045.510999976192,completion,,,,,,,low,high,,,,,,false,,,,,true,832597.5,832597.3999999762,824535.122,824549.8999999762,824551.889,832601.894,1,40,,
trial,html.Screen,8_23_0,2023-11-17T21:49:23.704Z,,,,2,0.0116094682222121,-0.0258434522530318,,0.05,true,ll,3387.606000000029,response,-0.8049748534131217,1.15,-0.795873920527155,-0.7439440729702499,1.0209676992924932,-0.745873920527155,low,low,,ISIC_9239632.JPG,,ISIC_2839431.JPG,73,false,0.1,ll,keypress(f),0,true,835989.7000000477,835989.5,832585.068,832597.5,832601.894,836002.075,1,40,24,
sequence,flow.Sequence,8_23,2023-11-17T21:49:23.705Z,,,,,,,,,,,3387.606000000029,completion,,,,,,,low,low,,,,,,false,,,,,true,835989.7000000477,835989.5,832585.068,832597.5,832601.894,836002.075,1,40,,
trial,html.Screen,8_24_0,2023-11-17T21:49:30.296Z,,,,2,0.0329095507339554,-0.0382899749693245,,0.05,false,hl,6578.824999976205,response,0.9991831965778788,1.15,-0.7509445996148414,-0.5499653915228087,1.0209676992924932,-0.7509445996148414,high,low,,ISIC_8812781.JPG,,ISIC_0248628.JPG,25,false,0.21000000000000008,hh,keypress(i),0,true,842581,842580.8999999762,835985.426,835989.8000000715,836002.075,842585.226,1,40,25,
sequence,flow.Sequence,8_24,2023-11-17T21:49:30.296Z,,,,,,,,,,,6578.824999976205,completion,,,,,,,high,low,,,,,,false,,,,,true,842581.1000000238,842580.8999999762,835985.426,835989.7000000477,836002.075,842585.226,1,40,,
trial,html.Screen,8_25_0,2023-11-17T21:49:39.560Z,,,,2,-0.0362376068089956,-0.047825070846155,,0.05,false,ll,9260.273999999976,response,-0.7918194339998469,1.15,-0.7509445996148414,-0.8721226813924959,1.0209676992924932,-0.8009445996148414,low,low,,ISIC_6985114.JPG,,ISIC_0697953.JPG,62,false,0.1,lh,keypress(e),0,true,851845.7000000477,851845.5,842568.607,842581.1000000238,842585.226,851851.862,1,40,26,
sequence,flow.Sequence,8_25,2023-11-17T21:49:39.561Z,,,,,,,,,,,9260.273999999976,completion,,,,,,,low,low,,,,,,false,,,,,true,851845.8000000715,851845.5,842568.607,842581.1000000238,842585.226,851851.862,1,40,,
trial,html.Screen,8_26_0,2023-11-17T21:49:44.824Z,,,,2,0.0450282431170921,,,0.05,false,hl,5257.438000071561,response,0.9580096600137252,1.15,-0.7509445996148414,-0.6337880611168651,1.0209676992924932,-0.8509445996148415,high,low,,ISIC_1805163.JPG,,ISIC_0026008.JPG,26,false,0.2400000000000001,hh,keypress(i),0,true,857109.3999999762,857109.3000000715,851835.147,851845.8999999762,851851.862,857118.736,1,40,27,
sequence,flow.Sequence,8_26,2023-11-17T21:49:44.824Z,,,,,,,,,,,5257.438000071561,completion,,,,,,,high,low,,,,,,false,,,,,true,857109.6000000238,857109.3000000715,851835.147,851845.8000000715,851851.862,857118.736,1,40,,
trial,html.Screen,8_27_0,2023-11-17T21:49:48.569Z,,,,2,0.0324770283903853,0.0249968632204382,,0.05,true,hh,3734.6639999761246,response,1.0491289899026992,1.0999999999999999,-0.7509445996148414,1.058683139801412,1.0209676992924932,-0.9009445996148415,high,high,,ISIC_7266462.JPG,,ISIC_0010866.JPG,30,false,0.1,hh,keypress(i),0,true,860853.5,860853.3999999762,857101.965,857109.6000000238,857118.736,860868.744,1,40,28,
sequence,flow.Sequence,8_27,2023-11-17T21:49:48.569Z,,,,,,,,,,,3734.6639999761246,completion,,,,,,,high,high,,,,,,false,,,,,true,860853.6000000238,860853.3999999762,857101.965,857109.6000000238,857118.736,860868.744,1,40,,
trial,html.Screen,8_28_0,2023-11-17T21:49:58.552Z,,,,2,,-0.0264544974620926,,0.05,false,hl,9968.056000071578,response,1.276222161935671,1.0999999999999999,-0.7509445996148414,-0.9657780821973284,1.0209676992924932,-0.9009445996148415,high,low,,ISIC_0056991.JPG,,ISIC_6710411.JPG,25,false,0.2600000000000001,hh,keypress(i),0,true,870836.8999999762,870836.8000000715,860852.019,860853.7000000477,860868.744,870852.062,1,40,29,
sequence,flow.Sequence,8_28,2023-11-17T21:49:58.552Z,,,,,,,,,,,9968.056000071578,completion,,,,,,,high,low,,,,,,false,,,,,true,870837,870836.8000000715,860852.019,860853.7000000477,860868.744,870852.062,1,40,,
trial,html.Screen,8_29_0,2023-11-17T21:50:05.016Z,,,,2,-0.0051189696037511,0.0396625911332438,,0.05,false,hh,6448.738000071491,response,1.1682648288591504,1.1174526508685416,-0.7509445996148414,1.004142980655507,1.0209676992924932,-0.9509445996148416,high,high,,ISIC_9742891.JPG,,ISIC_3936223.JPG,29,false,0.1,ll,keypress(f),0,true,877300.8999999762,877300.8000000715,870834.967,870837.1000000238,870852.062,877319.024,1,40,30,
sequence,flow.Sequence,8_29,2023-11-17T21:50:05.016Z,,,,,,,,,,,6448.738000071491,completion,,,,,,,high,high,,,,,,false,,,,,true,877301.1000000238,877300.8000000715,870834.967,870837.1000000238,870852.062,877319.024,1,40,,
trial,html.Screen,8_30_0,2023-11-17T21:50:13.961Z,,,,2,-0.0097091270150747,0.0417921315885292,,0.05,false,hh,8926.476000000024,response,1.101346104814838,1.1674526508685417,-0.7509445996148414,1.1225813067473052,1.0709676992924932,-0.9509445996148416,high,high,,ISIC_3967213.JPG,,ISIC_8175453.JPG,35,false,0.1,lh,keypress(e),0,true,886245.6000000238,886245.5,877285.215,877301.1000000238,877319.024,886251.826,1,40,31,
sequence,flow.Sequence,8_30,2023-11-17T21:50:13.961Z,,,,,,,,,,,8926.476000000024,completion,,,,,,,high,high,,,,,,false,,,,,true,886245.7000000477,886245.5,877285.215,877301.1000000238,877319.024,886251.826,1,40,,
trial,html.Screen,8_31_0,2023-11-17T21:50:21.848Z,,,,2,0.0363437082783146,0.0333332186217051,,0.05,false,hl,7880.974000071525,response,1.3439633576785148,1.1674526508685417,-0.7509445996148414,-0.632627305170864,1.0709676992924932,-0.9509445996148416,high,low,,ISIC_3314555.JPG,,ISIC_9482251.JPG,29,false,0.3200000000000002,hh,keypress(i),0,true,894132.8000000715,894132.8000000715,886235.005,886245.7000000477,886251.826,894135.183,1,40,32,
sequence,flow.Sequence,8_31,2023-11-17T21:50:21.848Z,,,,,,,,,,,7880.974000071525,completion,,,,,,,high,low,,,,,,false,,,,,true,894132.8999999762,894132.8000000715,886235.005,886245.7000000477,886251.826,894135.183,1,40,,
trial,html.Screen,8_32_0,2023-11-17T21:50:25.352Z,,,,2,,-0.0264544974620926,,0.05,true,hh,3501.7169999761973,response,1.1253220985777015,1.1674526508685417,-0.7509445996148414,1.108725659461368,1.0709676992924932,-1.0009445996148416,high,high,,ISIC_0056991.JPG,,ISIC_0054954.JPG,35,false,0.1,hh,keypress(i),0,true,897637,897636.8999999762,894118.264,894132.8999999762,894135.183,897651.983,1,40,33,
sequence,flow.Sequence,8_32,2023-11-17T21:50:25.352Z,,,,,,,,,,,3501.7169999761973,completion,,,,,,,high,high,,,,,,false,,,,,true,897637,897636.8999999762,894118.264,894132.8999999762,894135.183,897651.983,1,40,,
trial,html.Screen,8_33_0,2023-11-17T21:50:28.760Z,,,,2,0.007397293189458,0.0174716772037504,,0.05,true,ll,3393.317000071518,response,-0.7477918626191705,1.1763445085699413,-0.7509445996148414,-0.90676447831765,1.1763445085699413,-1.0009445996148416,low,low,,ISIC_0056226.JPG,,ISIC_0033044.JPG,40,false,0.1,ll,keypress(f),0,true,901045.3999999762,901045.3000000715,897635.495,897637.2000000477,897651.983,901051.826,1,40,34,
sequence,flow.Sequence,8_33,2023-11-17T21:50:28.761Z,,,,,,,,,,,3393.317000071518,completion,,,,,,,low,low,,,,,,false,,,,,true,901045.3999999762,901045.3000000715,897635.495,897637.2000000477,897651.983,901051.826,1,40,,
trial,html.Screen,8_34_0,2023-11-17T21:50:36.872Z,,,,2,-0.0277178575053843,0.0395587463147856,,0.05,true,lh,8105.073999976157,response,-0.7622914383475332,1.1763445085699413,-0.7772781704684102,1.2637655821850098,1.1763445085699413,-1.0009445996148416,low,high,,ISIC_0010807.JPG,,ISIC_0032005.JPG,25,false,0.20000000000000007,lh,keypress(e),0,true,909156.8999999762,909156.8999999762,901035.217,901045.5,901051.826,909168.468,1,40,35,
sequence,flow.Sequence,8_34,2023-11-17T21:50:36.872Z,,,,,,,,,,,8105.073999976157,completion,,,,,,,low,high,,,,,,false,,,,,true,909157.1000000238,909156.8999999762,901035.217,901045.5,901051.826,909168.468,1,40,,
trial,html.Screen,8_35_0,2023-11-17T21:50:45.257Z,,,,2,0.0050679133050021,-0.0009714874637896,,0.05,true,hl,8372.832000071532,response,1.276222161935671,1.1763445085699413,-0.7772781704684102,-0.9657780821973284,1.1763445085699413,-1.0009445996148416,high,low,,ISIC_9848743.JPG,,ISIC_6710411.JPG,25,false,0.3200000000000002,hl,keypress(j),0,true,917541.3999999762,917541.3000000715,909151.757,909157.1000000238,909168.468,917551.818,1,40,36,
sequence,flow.Sequence,8_35,2023-11-17T21:50:45.257Z,,,,,,,,,,,8372.832000071532,completion,,,,,,,high,low,,,,,,false,,,,,true,917541.5,917541.3000000715,909151.757,909157.1000000238,909168.468,917551.818,1,40,,
trial,html.Screen,8_36_0,2023-11-17T21:50:50.088Z,,,,2,0.0324770283903853,0.0249968632204382,,0.05,false,lh,4821.081999976188,response,-0.8487429103619056,1.1763445085699413,-0.7772781704684102,0.9778257804233036,1.1763445085699413,-0.9509445996148416,low,high,,ISIC_7266462.JPG,,ISIC_4554863.JPG,25,false,0.20000000000000007,ll,keypress(f),0,true,922373,922372.8999999762,917535.037,917541.6000000238,917551.818,922385.305,1,40,37,
sequence,flow.Sequence,8_36,2023-11-17T21:50:50.089Z,,,,,,,,,,,4821.081999976188,completion,,,,,,,low,high,,,,,,false,,,,,true,922373.1000000238,922372.8999999762,917535.037,917541.6000000238,917551.818,922385.305,1,40,,
trial,html.Screen,8_37_0,2023-11-17T21:50:54.136Z,,,,2,-0.0409338693593207,0.0072462710499874,,0.05,true,ll,4035.3950000476325,response,-0.7317102606001565,1.1763445085699413,-0.7272781704684101,-0.8606587687115046,1.1763445085699413,-0.9509445996148416,low,low,,ISIC_3608788.JPG,,ISIC_7102028.JPG,43,false,0.1,ll,keypress(f),0,true,926420.8000000715,926420.7000000477,922368.575,922373.2000000477,922385.305,926435.346,1,40,38,
sequence,flow.Sequence,8_37,2023-11-17T21:50:54.136Z,,,,,,,,,,,4035.3950000476325,completion,,,,,,,low,low,,,,,,false,,,,,true,926420.8999999762,926420.7000000477,922368.575,922373.2000000477,922385.305,926435.346,1,40,,
trial,html.Screen,8_38_0,2023-11-17T21:51:03.513Z,,,,2,0.0069555338059566,-0.0310100918136373,,0.05,false,ll,9362.053999976139,response,-0.6529775812427985,1.1763445085699413,-0.7272781704684101,-0.992633665110302,1.1763445085699413,-0.9509445996148416,low,low,,ISIC_0011177.JPG,,ISIC_0010768.JPG,43,false,0.1,hl,keypress(j),0,true,935797.5,935797.3999999762,926418.598,926420.8999999762,926435.346,935801.757,1,40,39,
sequence,flow.Sequence,8_38,2023-11-17T21:51:03.513Z,,,,,,,,,,,9362.053999976139,completion,,,,,,,low,low,,,,,,false,,,,,true,935797.6000000238,935797.3999999762,926418.598,926420.8999999762,926435.346,935801.757,1,40,,
trial,html.Screen,8_39_0,2023-11-17T21:51:06.376Z,,,,2,-0.0348234368746005,0.0236866303880924,,0.05,true,hh,2859.142999976175,response,1.2750452296609045,1.1763445085699413,-0.7772781704684102,1.1682369131232675,1.1763445085699413,-0.8766462169109033,high,high,,ISIC_0011099.JPG,,ISIC_0066399.JPG,33,false,0.1,hh,keypress(i),0,true,938661,938660.8999999762,935784.983,935797.6000000238,935801.757,938668.629,1,40,40,
sequence,flow.Sequence,8_39,2023-11-17T21:51:06.377Z,,,,,,,,,,,2859.142999976175,completion,,,,,,,high,high,,,,,,false,,,,,true,938661.2000000477,938660.8999999762,935784.983,935797.6000000238,935801.757,938668.629,1,40,,
stair_loop,flow.Loop,8,2023-11-17T21:51:06.377Z,,,,,,,,,,,306908.7829999762,completion,,,,,,,,,,,,,,false,,,,,true,938661.3000000715,938660.8999999762,631735.718,631748.8999999762,631752.117,938668.629,1,40,,
exp_instructions,html.Screen,9,2023-11-17T21:51:11.209Z,,,,,,,,,,,4824.071000047727,response,,,,,,,,,,,,,,,,continue,keypress(Space),,,943493.1000000238,943492.7000000477,938651.902,938661.3000000715,938668.629,943501.756,,,,
trial,html.Screen,10_0_0,2023-11-17T21:51:20.891Z,,,,1,-0.0188047466661863,0.0288346930436979,,0.05,false,lh,9673.544000071473,response,-0.6866025217140785,1.1552111081731875,-0.7628305350533748,0.9978764930756644,1.0753495825396,-0.8887155446621072,low,high,,ISIC_0014157.JPG,9,ISIC_0009100.JPG,25,false,0.15000000000000002,ll,keypress(f),0,false,953175.3999999762,953175.3000000715,943485.097,943493.2000000477,943501.756,953185.268,4,500,1,
break,html.Screen,10_0_1,2023-11-17T21:51:20.891Z,,,,,,,,,,,NaN,,,,,,,,low,high,,,,,,false,,,,,false,953175.8000000715,953175.7000000477,,953175.5,,953185.268,4,500,,
break_continue,html.Screen,10_0_2,2023-11-17T21:51:20.892Z,,,,,,,,,,,NaN,,,,,,,,low,high,,,,,,false,,,,,false,953176.1000000238,953176.1000000238,,953175.8999999762,,953185.268,4,500,,
sequence,flow.Sequence,10_0,2023-11-17T21:51:20.892Z,,,,,,,,,,,9674.34400002379,completion,,,,,,,low,high,,,,,,false,,,,,false,953176.2000000477,953176.1000000238,943485.097,943493.2000000477,943501.756,953185.268,4,500,,
trial,html.Screen,10_1_0,2023-11-17T21:51:27.497Z,,,,1,-0.0159061451859594,-0.0296598845560212,,0.05,true,hh,6595.932000047644,response,1.2302725726010482,1.1552111081731875,-0.7628305350533748,0.9842039527726018,1.0753495825396,-0.8887155446621072,high,high,,ISIC_0072564.JPG,9,ISIC_0054329.JPG,31,false,0.1,hh,keypress(i),0,false,959781.3000000715,959781.2000000477,953168.334,953176.3000000715,953185.268,959785.072,4,500,2,
break,html.Screen,10_1_1,2023-11-17T21:51:27.497Z,,,,,,,,,,,NaN,,,,,,,,high,high,,,,,,false,,,,,false,959781.6000000238,959781.6000000238,,959781.3999999762,,959785.072,4,500,,
break_continue,html.Screen,10_1_2,2023-11-17T21:51:27.497Z,,,,,,,,,,,NaN,,,,,,,,high,high,,,,,,false,,,,,false,959781.8999999762,959781.8999999762,,959781.8000000715,,959785.072,4,500,,
sequence,flow.Sequence,10_1,2023-11-17T21:51:27.497Z,,,,,,,,,,,6596.631999976118,completion,,,,,,,high,high,,,,,,false,,,,,false,959782,959781.8999999762,953168.334,953176.3000000715,953185.268,959785.072,4,500,,
trial,html.Screen,10_2_0,2023-11-17T21:51:34.056Z,,,,1,0.0057914759495055,0.0074667911845194,,0.05,true,hh,6555.827999976114,response,1.2296334397777855,1.1552111081731875,-0.7628305350533748,1.022420086815287,1.0753495825396,-0.8887155446621072,high,high,,ISIC_0058723.JPG,9,ISIC_0073173.JPG,31,false,0.1,hh,keypress(i),0,false,966341,966340.8999999762,959768.462,959782.1000000238,959785.072,966351.866,4,500,3,
break,html.Screen,10_2_1,2023-11-17T21:51:34.057Z,,,,,,,,,,,NaN,,,,,,,,high,high,,,,,,false,,,,,false,966341.3000000715,966341.2000000477,,966341.1000000238,,966351.866,4,500,,
break_continue,html.Screen,10_2_2,2023-11-17T21:51:34.057Z,,,,,,,,,,,NaN,,,,,,,,high,high,,,,,,false,,,,,false,966341.5,966341.3999999762,,966341.3000000715,,966351.866,4,500,,
sequence,flow.Sequence,10_2,2023-11-17T21:51:34.057Z,,,,,,,,,,,6556.327999976114,completion,,,,,,,high,high,,,,,,false,,,,,false,966341.5,966341.3999999762,959768.462,959782,959785.072,966351.866,4,500,,
trial,html.Screen,10_3_0,2023-11-17T21:51:41.865Z,,,,1,-0.0409338693593207,0.0072462710499874,,0.05,true,hh,7797.234000023804,response,1.101346104814838,1.1552111081731875,-0.7628305350533748,1.1225813067473052,1.0753495825396,-0.8887155446621072,high,high,,ISIC_3608788.JPG,8,ISIC_8175453.JPG,31,false,0.1,hh,keypress(i),0,false,974149.3000000715,974149.1000000238,966335.168,966341.6000000238,966351.866,974151.714,4,500,4,
break,html.Screen,10_3_1,2023-11-17T21:51:41.865Z,,,,,,,,,,,NaN,,,,,,,,high,high,,,,,,false,,,,,false,974149.5,974149.5,,974149.3000000715,,974151.714,4,500,,
break_continue,html.Screen,10_3_2,2023-11-17T21:51:41.865Z,,,,,,,,,,,NaN,,,,,,,,high,high,,,,,,false,,,,,false,974149.8000000715,974149.7000000477,,974149.7000000477,,974151.714,4,500,,
sequence,flow.Sequence,10_3,2023-11-17T21:51:41.865Z,,,,,,,,,,,7797.8340000476455,completion,,,,,,,high,high,,,,,,false,,,,,false,974149.8000000715,974149.7000000477,966335.168,966341.6000000238,966351.866,974151.714,4,500,,
trial,html.Screen,10_4_0,2023-11-17T21:51:52.169Z,,,,1,-0.0102460616775615,0.0309670599545429,,0.05,false,ll,10301.185999976122,response,-0.7647836924873925,1.1552111081731875,-0.7628305350533748,-0.8316555381467203,1.0753495825396,-0.8887155446621072,low,low,,ISIC_0072041.JPG,8,ISIC_0027145.JPG,47,false,0.1,lh,keypress(e),0,false,984453,984452.8999999762,974135.066,974149.8000000715,974151.714,984468.359,4,500,5,
break,html.Screen,10_4_1,2023-11-17T21:51:52.169Z,,,,,,,,,,,NaN,,,,,,,,low,low,,,,,,false,,,,,false,984453.3999999762,984453.3000000715,,984453.1000000238,,984468.359,4,500,,
break_continue,html.Screen,10_4_2,2023-11-17T21:51:52.169Z,,,,,,,,,,,NaN,,,,,,,,low,low,,,,,,false,,,,,false,984453.6000000238,984453.5,,984453.3999999762,,984468.359,4,500,,
sequence,flow.Sequence,10_4,2023-11-17T21:51:52.169Z,,,,,,,,,,,10301.785999999964,completion,,,,,,,low,low,,,,,,false,,,,,false,984453.6000000238,984453.5,974135.066,974149.8000000715,974151.714,984468.359,4,500,,
trial,html.Screen,10_5_0,2023-11-17T21:52:02.073Z,,,,1,0.007397293189458,0.0174716772037504,,0.05,false,hl,9888.741000023787,response,1.0645919307156395,1.1552111081731875,-0.7628305350533748,-0.7087706688259032,1.0753495825396,-0.8887155446621072,high,low,,ISIC_0056226.JPG,9,ISIC_0031575.JPG,27,false,0.27000000000000013,hh,keypress(i),0,false,994357.2000000477,994357.1000000238,984451.689,984453.7000000477,984468.359,994385.267,4,500,6,
break,html.Screen,10_5_1,2023-11-17T21:52:02.073Z,,,,,,,,,,,NaN,,,,,,,,high,low,,,,,,false,,,,,false,994357.3999999762,994357.3999999762,,994357.3000000715,,994385.267,4,500,,
break_continue,html.Screen,10_5_2,2023-11-17T21:52:02.073Z,,,,,,,,,,,NaN,,,,,,,,high,low,,,,,,false,,,,,false,994357.6000000238,994357.5,,994357.3999999762,,994385.267,4,500,,
sequence,flow.Sequence,10_5,2023-11-17T21:52:02.073Z,,,,,,,,,,,9889.140999999945,completion,,,,,,,high,low,,,,,,false,,,,,false,994357.6000000238,994357.5,984451.689,984453.7000000477,984468.359,994385.267,4,500,,
trial,html.Screen,10_6_0,2023-11-17T21:52:06.153Z,,,,1,0.0085520978188085,-0.0464691161264081,,0.05,true,hh,4051.8330000238493,response,1.1254252603792554,1.1552111081731875,-0.7628305350533748,1.0263116781284176,1.0753495825396,-0.8887155446621072,high,high,,ISIC_0758797.JPG,9,ISIC_0032420.JPG,31,false,0.1,hh,keypress(i),0,false,998437.2000000477,998437.1000000238,994368.764,994357.6000000238,994385.267,998451.954,4,500,7,
break,html.Screen,10_6_1,2023-11-17T21:52:06.153Z,,,,,,,,,,,NaN,,,,,,,,high,high,,,,,,false,,,,,false,998437.3999999762,998437.3999999762,,998437.2000000477,,998451.954,4,500,,
break_continue,html.Screen,10_6_2,2023-11-17T21:52:06.153Z,,,,,,,,,,,NaN,,,,,,,,high,high,,,,,,false,,,,,false,998437.7000000477,998437.7000000477,,998437.6000000238,,998451.954,4,500,,
sequence,flow.Sequence,10_6,2023-11-17T21:52:06.154Z,,,,,,,,,,,4052.433000047691,completion,,,,,,,high,high,,,,,,false,,,,,false,998437.7000000477,998437.7000000477,994368.764,994357.6000000238,994385.267,998451.954,4,500,,
trial,html.Screen,10_7_0,2023-11-17T21:52:15.177Z,,,,1,0.0324770283903853,0.0249968632204382,,0.05,false,lh,9008.846000071499,response,-0.6165328649965072,1.1552111081731875,-0.7628305350533748,1.1866551763856117,1.0753495825396,-0.8887155446621072,low,high,,ISIC_7266462.JPG,9,ISIC_0046626.JPG,25,false,0.15000000000000002,hh,keypress(i),0,false,1007460.8999999762,1007460.8000000715,998435.048,998437.8000000715,998451.954,1007468.348,4,500,8,
break,html.Screen,10_7_1,2023-11-17T21:52:15.177Z,,,,,,,,,,,NaN,,,,,,,,low,high,,,,,,false,,,,,false,1007461.2000000477,1007461.2000000477,,1007461.1000000238,,1007468.348,4,500,,
break_continue,html.Screen,10_7_2,2023-11-17T21:52:15.177Z,,,,,,,,,,,NaN,,,,,,,,low,high,,,,,,false,,,,,false,1007461.5,1007461.3999999762,,1007461.3000000715,,1007468.348,4,500,,
sequence,flow.Sequence,10_7,2023-11-17T21:52:15.177Z,,,,,,,,,,,9009.445999976131,completion,,,,,,,low,high,,,,,,false,,,,,false,1007461.5,1007461.3999999762,998435.048,998437.8000000715,998451.954,1007468.348,4,500,,
trial,html.Screen,10_8_0,2023-11-17T21:52:20.841Z,,,,1,0.0070725527271049,0.0049995141077508,,0.05,true,ll,5656.352000047686,response,-0.7488189907128915,1.1552111081731875,-0.7628305350533748,-0.9002829757503055,1.0753495825396,-0.8887155446621072,low,low,,ISIC_6124481.JPG,9,ISIC_8586909.JPG,47,false,0.1,ll,keypress(f),0,false,1013124.8000000715,1013124.7000000477,1007451.829,1007461.5,1007468.348,1013135.077,4,500,9,
break,html.Screen,10_8_1,2023-11-17T21:52:20.841Z,,,,,,,,,,,NaN,,,,,,,,low,low,,,,,,false,,,,,false,1013125.1000000238,1013125.1000000238,,1013125,,1013135.077,4,500,,
break_continue,html.Screen,10_8_2,2023-11-17T21:52:20.841Z,,,,,,,,,,,NaN,,,,,,,,low,low,,,,,,false,,,,,false,1013125.3000000715,1013125.3000000715,,1013125.2000000477,,1013135.077,4,500,,
sequence,flow.Sequence,10_8,2023-11-17T21:52:20.841Z,,,,,,,,,,,5656.952000071527,completion,,,,,,,low,low,,,,,,false,,,,,false,1013125.3999999762,1013125.3000000715,1007451.829,1007461.5,1007468.348,1013135.077,4,500,,
trial,html.Screen,10_9_0,2023-11-17T21:52:28.073Z,,,,1,-0.0112310719058792,0.0469047359904117,,0.05,true,ll,7221.523000023793,response,-0.6811261841091603,1.1552111081731875,-0.7628305350533748,-0.857279063906232,1.0753495825396,-0.8887155446621072,low,low,,ISIC_0068184.JPG,8,ISIC_1398618.JPG,47,false,0.1,ll,keypress(f),0,false,1020356.7000000477,1020356.6000000238,1013118.435,1013125.5,1013135.077,1020368.543,4,500,10,
break,html.Screen,10_9_1,2023-11-17T21:52:28.073Z,,,,,,,,,,,NaN,,,,,,,,low,low,,,,,,false,,,,,false,1020357.1000000238,1020356.8999999762,,1020356.8999999762,,1020368.543,4,500,,
break_continue,html.Screen,10_9_2,2023-11-17T21:52:28.073Z,,,,,,,,,,,NaN,,,,,,,,low,low,,,,,,false,,,,,false,1020357.3000000715,1020357.2000000477,,1020357.1000000238,,1020368.543,4,500,,
sequence,flow.Sequence,10_9,2023-11-17T21:52:28.073Z,,,,,,,,,,,7222.123000047635,completion,,,,,,,low,low,,,,,,false,,,,,false,1020357.5,1020357.2000000477,1013118.435,1013125.5,1013135.077,1020368.543,4,500,,
trial,html.Screen,10_10_0,2023-11-17T21:52:36.729Z,,,,1,0.0069555338059566,-0.0310100918136373,,0.05,true,ll,8644.557000023895,response,-0.7543493127539531,1.1552111081731875,-0.7628305350533748,-0.9452304370934528,1.0753495825396,-0.8887155446621072,low,low,,ISIC_0011177.JPG,9,ISIC_0029017.JPG,47,false,0.1,ll,keypress(f),0,false,1029013.2000000477,1029013.1000000238,1020351.818,1020357.5,1020368.543,1029018.318,4,500,11,
break,html.Screen,10_10_1,2023-11-17T21:52:36.729Z,,,,,,,,,,,NaN,,,,,,,,low,low,,,,,,false,,,,,false,1029013.5,1029013.5,,1029013.3000000715,,1029018.318,4,500,,
break_continue,html.Screen,10_10_2,2023-11-17T21:52:36.730Z,,,,,,,,,,,NaN,,,,,,,,low,low,,,,,,false,,,,,false,1029013.8999999762,1029013.8000000715,,1029013.6000000238,,1029018.318,4,500,,
sequence,flow.Sequence,10_10,2023-11-17T21:52:36.730Z,,,,,,,,,,,8645.257000071579,completion,,,,,,,low,low,,,,,,false,,,,,false,1029013.8999999762,1029013.8000000715,1020351.818,1020357.5,1020368.543,1029018.318,4,500,,
trial,html.Screen,10_11_0,2023-11-17T21:52:39.817Z,,,,1,0.0329095507339554,-0.0382899749693245,,0.05,false,lh,3082.8820000477135,response,-0.6276303452161716,1.1552111081731875,-0.7628305350533748,0.9740596249572724,1.0753495825396,-0.8887155446621072,low,high,,ISIC_8812781.JPG,9,ISIC_9053910.JPG,25,false,0.15000000000000002,hh,keypress(i),0,false,1032101.3999999762,1032101.2000000477,1029001.619,1029013.8999999762,1029018.318,1032135.016,4,500,12,
break,html.Screen,10_11_1,2023-11-17T21:52:39.817Z,,,,,,,,,,,NaN,,,,,,,,low,high,,,,,,false,,,,,false,1032101.6000000238,1032101.6000000238,,1032101.3999999762,,1032135.016,4,500,,
break_continue,html.Screen,10_11_2,2023-11-17T21:52:39.818Z,,,,,,,,,,,NaN,,,,,,,,low,high,,,,,,false,,,,,false,1032101.8000000715,1032101.8000000715,,1032101.6000000238,,1032135.016,4,500,,
sequence,flow.Sequence,10_11,2023-11-17T21:52:39.818Z,,,,,,,,,,,3083.4820000715554,completion,,,,,,,low,high,,,,,,false,,,,,false,1032101.8999999762,1032101.8000000715,1029001.619,1029013.8999999762,1029018.318,1032135.016,4,500,,
trial,html.Screen,10_12_0,2023-11-17T21:52:51.097Z,,,,1,0.0456515796420274,-0.0273567130070961,,0.05,false,lh,11245.684000047739,response,-0.6165328649965072,1.1552111081731875,-0.7628305350533748,1.1866551763856117,1.0753495825396,-0.8887155446621072,low,high,,ISIC_0068610.JPG,9,ISIC_0046626.JPG,25,false,0.15000000000000002,ll,keypress(f),0,false,1043380.8000000715,1043380.7000000477,1032118.577,1032101.8999999762,1032135.016,1043384.98,4,500,13,
break,html.Screen,10_12_1,2023-11-17T21:52:51.097Z,,,,,,,,,,,NaN,,,,,,,,low,high,,,,,,false,,,,,false,1043381.1000000238,1043381.1000000238,,1043380.8999999762,,1043384.98,4,500,,
break_continue,html.Screen,10_12_2,2023-11-17T21:52:51.097Z,,,,,,,,,,,NaN,,,,,,,,low,high,,,,,,false,,,,,false,1043381.3999999762,1043381.3000000715,,1043381.2000000477,,1043384.98,4,500,,
sequence,flow.Sequence,10_12,2023-11-17T21:52:51.098Z,,,,,,,,,,,11246.28400007158,completion,,,,,,,low,high,,,,,,false,,,,,false,1043381.3999999762,1043381.3000000715,1032118.577,1032101.8999999762,1032135.016,1043384.98,4,500,,
trial,html.Screen,10_13_0,2023-11-17T21:53:02.761Z,,,,1,-0.0113873532168551,-0.0054999201556291,,0.05,false,ll,11660.12000002386,response,-0.7977113275495125,1.1552111081731875,-0.7628305350533748,-0.923711824877252,1.0753495825396,-0.8887155446621072,low,low,,ISIC_8812621.JPG,9,ISIC_1023354.JPG,47,false,0.1,hh,keypress(i),0,false,1055045.2000000477,1055045.1000000238,1043368.521,1043381.5,1043384.98,1055051.638,4,500,14,
break,html.Screen,10_13_1,2023-11-17T21:53:02.762Z,,,,,,,,,,,NaN,,,,,,,,low,low,,,,,,false,,,,,false,1055045.6000000238,1055045.5,,1055045.3000000715,,1055051.638,4,500,,
break_continue,html.Screen,10_13_2,2023-11-17T21:53:02.762Z,,,,,,,,,,,NaN,,,,,,,,low,low,,,,,,false,,,,,false,1055045.8000000715,1055045.7000000477,,1055045.7000000477,,1055051.638,4,500,,
sequence,flow.Sequence,10_13,2023-11-17T21:53:02.762Z,,,,,,,,,,,11660.720000047702,completion,,,,,,,low,low,,,,,,false,,,,,false,1055045.8999999762,1055045.7000000477,1043368.521,1043381.3999999762,1043384.98,1055051.638,4,500,,
trial,html.Screen,10_14_0,2023-11-17T21:53:13.081Z,,,,1,0.0116094682222121,-0.0258434522530318,,0.05,false,hh,10313.062000047648,response,1.0910404089869363,1.1552111081731875,-0.7628305350533748,1.119702461098404,1.0753495825396,-0.8887155446621072,high,high,,ISIC_9239632.JPG,8,ISIC_0067097.JPG,31,false,0.1,hl,keypress(j),0,false,1065364.8000000715,1065364.7000000477,1055034.916,1055045.8999999762,1055051.638,1065368.302,4,500,15,
break,html.Screen,10_14_1,2023-11-17T21:53:13.081Z,,,,,,,,,,,NaN,,,,,,,,high,high,,,,,,false,,,,,false,1065365.1000000238,1065365,,1065364.8999999762,,1065368.302,4,500,,
break_continue,html.Screen,10_14_2,2023-11-17T21:53:13.081Z,,,,,,,,,,,NaN,,,,,,,,high,high,,,,,,false,,,,,false,1065365.2000000477,1065365.2000000477,,1065365.1000000238,,1065368.302,4,500,,
sequence,flow.Sequence,10_14,2023-11-17T21:53:13.081Z,,,,,,,,,,,10313.562000047648,completion,,,,,,,high,high,,,,,,false,,,,,false,1065365.3999999762,1065365.2000000477,1055034.916,1055045.8999999762,1055051.638,1065368.302,4,500,,
trial,html.Screen,10_15_0,2023-11-17T21:53:19.593Z,,,,1,0.0027483411352856,0.0100996915276271,,0.05,false,ll,6508.798000023933,response,-0.6971800224745449,1.1552111081731875,-0.7628305350533748,-0.8192103548837213,1.0753495825396,-0.8887155446621072,low,low,,ISIC_7364041.JPG,9,ISIC_3495799.JPG,47,false,0.1,hl,keypress(j),0,false,1071877.2000000477,1071877.1000000238,1065351.774,1065365.3999999762,1065368.302,1071884.984,4,500,16,
break,html.Screen,10_15_1,2023-11-17T21:53:19.594Z,,,,,,,,,,,NaN,,,,,,,,low,low,,,,,,false,,,,,false,1071877.5,1071877.5,,1071877.3000000715,,1071884.984,4,500,,
break_continue,html.Screen,10_15_2,2023-11-17T21:53:19.594Z,,,,,,,,,,,NaN,,,,,,,,low,low,,,,,,false,,,,,false,1071877.8000000715,1071877.6000000238,,1071877.6000000238,,1071884.984,4,500,,
sequence,flow.Sequence,10_15,2023-11-17T21:53:19.594Z,,,,,,,,,,,6509.298000023933,completion,,,,,,,low,low,,,,,,false,,,,,false,1071877.8000000715,1071877.6000000238,1065351.774,1065365.3999999762,1065368.302,1071884.984,4,500,,
trial,html.Screen,10_16_0,2023-11-17T21:53:28.601Z,,,,1,,-0.0264544974620926,,0.05,false,lh,9000.216000047745,response,-0.8579451262594331,1.1552111081731875,-0.7628305350533748,0.9633172970727744,1.0753495825396,-0.8887155446621072,low,high,,ISIC_0056991.JPG,9,ISIC_0067172.JPG,25,false,0.15000000000000002,hl,keypress(j),0,false,1080885.3000000715,1080885.2000000477,1071868.329,1071877.8000000715,1071884.984,1080901.856,4,500,17,
break,html.Screen,10_16_1,2023-11-17T21:53:28.602Z,,,,,,,,,,,NaN,,,,,,,,low,high,,,,,,false,,,,,false,1080885.6000000238,1080885.5,,1080885.3999999762,,1080901.856,4,500,,
break_continue,html.Screen,10_16_2,2023-11-17T21:53:28.602Z,,,,,,,,,,,NaN,,,,,,,,low,high,,,,,,false,,,,,false,1080885.8000000715,1080885.8000000715,,1080885.7000000477,,1080901.856,4,500,,
sequence,flow.Sequence,10_16,2023-11-17T21:53:28.602Z,,,,,,,,,,,9000.816000071587,completion,,,,,,,low,high,,,,,,false,,,,,false,1080885.8999999762,1080885.8000000715,1071868.329,1071877.8000000715,1071884.984,1080901.856,4,500,,
trial,html.Screen,10_17_0,2023-11-17T21:53:32.553Z,,,,1,0.0456515796420274,-0.0273567130070961,,0.05,true,ll,3935.2440000239294,response,-0.7482428566195203,1.1552111081731875,-0.7628305350533748,-0.8686759438897503,1.0753495825396,-0.8887155446621072,low,low,,ISIC_0068610.JPG,8,ISIC_4000087.JPG,47,false,0.1,ll,keypress(f),0,false,1084837.2000000477,1084837.1000000238,1080884.773,1080886,1080901.856,1084852.029,4,500,18,
break,html.Screen,10_17_1,2023-11-17T21:53:32.554Z,,,,,,,,,,,NaN,,,,,,,,low,low,,,,,,false,,,,,false,1084837.5,1084837.5,,1084837.3999999762,,1084852.029,4,500,,
break_continue,html.Screen,10_17_2,2023-11-17T21:53:32.554Z,,,,,,,,,,,NaN,,,,,,,,low,low,,,,,,false,,,,,false,1084837.8000000715,1084837.7000000477,,1084837.6000000238,,1084852.029,4,500,,
sequence,flow.Sequence,10_17,2023-11-17T21:53:32.554Z,,,,,,,,,,,3935.8440000477713,completion,,,,,,,low,low,,,,,,false,,,,,false,1084837.8000000715,1084837.7000000477,1080884.773,1080886,1080901.856,1084852.029,4,500,,
trial,html.Screen,10_18_0,2023-11-17T21:53:37.369Z,,,,1,0.0070725527271049,0.0049995141077508,,0.05,true,ll,4800.870999976061,response,-0.722626455088696,1.1552111081731875,-0.7628305350533748,-0.8807705418080004,1.0753495825396,-0.8887155446621072,low,low,,ISIC_6124481.JPG,9,ISIC_2536779.JPG,47,false,0.1,ll,keypress(f),0,false,1089653,1089652.8999999762,1084834.853,1084837.8000000715,1084852.029,1089668.695,4,500,19,
break,html.Screen,10_18_1,2023-11-17T21:53:37.369Z,,,,,,,,,,,NaN,,,,,,,,low,low,,,,,,false,,,,,false,1089653.3000000715,1089653.2000000477,,1089653.1000000238,,1089668.695,4,500,,
break_continue,html.Screen,10_18_2,2023-11-17T21:53:37.370Z,,,,,,,,,,,NaN,,,,,,,,low,low,,,,,,false,,,,,false,1089653.5,1089653.3999999762,,1089653.3999999762,,1089668.695,4,500,,
sequence,flow.Sequence,10_18,2023-11-17T21:53:37.370Z,,,,,,,,,,,4801.370999976061,completion,,,,,,,low,low,,,,,,false,,,,,false,1089653.5,1089653.3999999762,1084834.853,1084837.8000000715,1084852.029,1089668.695,4,500,,
trial,html.Screen,10_19_0,2023-11-17T21:53:39.721Z,,,,1,-0.0159061451859594,-0.0296598845560212,,0.05,true,ll,2336.5050000476185,response,-0.7317102606001565,1.1552111081731875,-0.7628305350533748,-0.8606587687115046,1.0753495825396,-0.8887155446621072,low,low,,ISIC_0072564.JPG,9,ISIC_7102028.JPG,47,false,0.1,ll,keypress(f),0,false,1092005.3000000715,1092005.2000000477,1089651.662,1089653.5,1089668.695,1092018.307,4,500,20,
break,html.Screen,10_19_1,2023-11-17T21:53:39.722Z,,,,,,,,,,,NaN,,,,,,,,low,low,,,,,,false,,,,,false,1092005.6000000238,1092005.5,,1092005.3999999762,,1092018.307,4,500,,
break_continue,html.Screen,10_19_2,2023-11-17T21:53:39.722Z,,,,,,,,,,,NaN,,,,,,,,low,low,,,,,,false,,,,,false,1092005.8000000715,1092005.7000000477,,1092005.7000000477,,1092018.307,4,500,,
sequence,flow.Sequence,10_19,2023-11-17T21:53:39.722Z,,,,,,,,,,,2337.0050000476185,completion,,,,,,,low,low,,,,,,false,,,,,false,1092005.8999999762,1092005.7000000477,1089651.662,1089653.5,1089668.695,1092018.307,4,500,,
trial,html.Screen,10_20_0,2023-11-17T21:53:49.945Z,,,,1,-0.0112310719058792,0.0469047359904117,,0.05,false,hl,10210.592999976128,response,0.9873794329144926,1.1552111081731875,-0.7628305350533748,-0.7991077882008257,1.0753495825396,-0.8887155446621072,high,low,,ISIC_0068184.JPG,9,ISIC_0013498.JPG,27,false,0.27000000000000013,lh,keypress(e),0,false,1102228.8999999762,1102228.8999999762,1092001.995,1092005.8999999762,1092018.307,1102234.908,4,500,21,
break,html.Screen,10_20_1,2023-11-17T21:53:49.945Z,,,,,,,,,,,NaN,,,,,,,,high,low,,,,,,false,,,,,false,1102229.2000000477,1102229.1000000238,,1102228.8999999762,,1102234.908,4,500,,
break_continue,html.Screen,10_20_2,2023-11-17T21:53:49.946Z,,,,,,,,,,,NaN,,,,,,,,high,low,,,,,,false,,,,,false,1102229.3000000715,1102229.3000000715,,1102229.2000000477,,1102234.908,4,500,,
sequence,flow.Sequence,10_20,2023-11-17T21:53:49.946Z,,,,,,,,,,,10210.993000071496,completion,,,,,,,high,low,,,,,,false,,,,,false,1102229.3999999762,1102229.3000000715,1092001.995,1092005.8999999762,1092018.307,1102234.908,4,500,,
trial,html.Screen,10_21_0,2023-11-17T21:53:52.233Z,,,,1,0.0050679133050021,-0.0009714874637896,,0.05,true,hh,2282.192000023788,response,1.188743606919222,1.1552111081731875,-0.7628305350533748,1.0980226451001782,1.0753495825396,-0.8887155446621072,high,high,,ISIC_9848743.JPG,9,ISIC_0060481.JPG,31,false,0.1,hh,keypress(i),0,false,1104517.2000000477,1104517.1000000238,1102218.492,1102229.3999999762,1102234.908,1104535.459,4,500,22,
break,html.Screen,10_21_1,2023-11-17T21:53:52.234Z,,,,,,,,,,,NaN,,,,,,,,high,high,,,,,,false,,,,,false,1104517.5,1104517.3999999762,,1104517.3000000715,,1104535.459,4,500,,
break_continue,html.Screen,10_21_2,2023-11-17T21:53:52.234Z,,,,,,,,,,,NaN,,,,,,,,high,high,,,,,,false,,,,,false,1104517.7000000477,1104517.7000000477,,1104517.5,,1104535.459,4,500,,
sequence,flow.Sequence,10_21,2023-11-17T21:53:52.234Z,,,,,,,,,,,2282.7920000476297,completion,,,,,,,high,high,,,,,,false,,,,,false,1104517.7000000477,1104517.7000000477,1102218.492,1102229.3999999762,1102234.908,1104535.459,4,500,,
trial,html.Screen,10_22_0,2023-11-17T21:54:04.089Z,,,,1,-0.0362376068089956,-0.047825070846155,,0.05,false,hl,11837.540999999968,response,0.949907353050839,1.1552111081731875,-0.7628305350533748,-0.6190748068479168,1.0753495825396,-0.8887155446621072,high,low,,ISIC_6985114.JPG,9,ISIC_7059794.JPG,27,false,0.27000000000000013,lh,keypress(e),0,false,1116373.1000000238,1116373,1104501.777,1104517.8000000715,1104535.459,1116384.902,4,500,23,
break,html.Screen,10_22_1,2023-11-17T21:54:04.090Z,,,,,,,,,,,NaN,,,,,,,,high,low,,,,,,false,,,,,false,1116373.3999999762,1116373.3000000715,,1116373.2000000477,,1116384.902,4,500,,
break_continue,html.Screen,10_22_2,2023-11-17T21:54:04.090Z,,,,,,,,,,,NaN,,,,,,,,high,low,,,,,,false,,,,,false,1116373.6000000238,1116373.5,,1116373.5,,1116384.902,4,500,,
sequence,flow.Sequence,10_22,2023-11-17T21:54:04.090Z,,,,,,,,,,,11838.040999999968,completion,,,,,,,high,low,,,,,,false,,,,,false,1116373.6000000238,1116373.5,1104501.777,1104517.8000000715,1104535.459,1116384.902,4,500,,
trial,html.Screen,10_23_0,2023-11-17T21:54:09.481Z,,,,1,,-0.0264544974620926,,0.05,false,lh,5379.497999976156,response,-0.6956738789487171,1.1552111081731875,-0.7628305350533748,0.9798803024739164,1.0753495825396,-0.8887155446621072,low,high,,ISIC_0056991.JPG,10,ISIC_0046340.JPG,25,false,0.15000000000000002,hh,keypress(i),0,false,1121764.6000000238,1121764.3999999762,1116368.421,1116373.7000000477,1116384.902,1121768.198,4,500,24,
break,html.Screen,10_23_1,2023-11-17T21:54:09.481Z,,,,,,,,,,,NaN,,,,,,,,low,high,,,,,,false,,,,,false,1121764.8999999762,1121764.8000000715,,1121764.6000000238,,1121768.198,4,500,,
break_continue,html.Screen,10_23_2,2023-11-17T21:54:09.481Z,,,,,,,,,,,NaN,,,,,,,,low,high,,,,,,false,,,,,false,1121765,1121765,,1121765,,1121768.198,4,500,,
sequence,flow.Sequence,10_23,2023-11-17T21:54:09.481Z,,,,,,,,,,,5380.097999999998,completion,,,,,,,low,high,,,,,,false,,,,,false,1121765.2000000477,1121765,1116368.421,1116373.7000000477,1116384.902,1121768.198,4,500,,
trial,html.Screen,10_24_0,2023-11-17T21:54:18.697Z,,,,1,-0.0113873532168551,-0.0054999201556291,,0.05,false,lh,9212.701999976067,response,-0.8579451262594331,1.1552111081731875,-0.7628305350533748,0.9633172970727744,1.0753495825396,-0.8887155446621072,low,high,,ISIC_8812621.JPG,8,ISIC_0067172.JPG,25,false,0.15000000000000002,hl,keypress(j),0,false,1130981,1130980.8999999762,1121751.832,1121765.2000000477,1121768.198,1130984.868,4,500,25,
break,html.Screen,10_24_1,2023-11-17T21:54:18.698Z,,,,,,,,,,,NaN,,,,,,,,low,high,,,,,,false,,,,,false,1130981.2000000477,1130981.1000000238,,1130981.1000000238,,1130984.868,4,500,,
break_continue,html.Screen,10_24_2,2023-11-17T21:54:18.698Z,,,,,,,,,,,NaN,,,,,,,,low,high,,,,,,false,,,,,false,1130981.5,1130981.3999999762,,1130981.3000000715,,1130984.868,4,500,,
sequence,flow.Sequence,10_24,2023-11-17T21:54:18.698Z,,,,,,,,,,,9213.201999976067,completion,,,,,,,low,high,,,,,,false,,,,,false,1130981.5,1130981.3999999762,1121751.832,1121765.2000000477,1121768.198,1130984.868,4,500,,
trial,html.Screen,10_25_0,2023-11-17T21:54:24.041Z,,,,1,-0.0134764727102299,-0.0033499036460912,,0.05,false,hl,5340.031999976141,response,0.949907353050839,1.1552111081731875,-0.7628305350533748,-0.6190748068479168,1.0753495825396,-0.8887155446621072,high,low,,ISIC_0009998.JPG,8,ISIC_7059794.JPG,27,false,0.27000000000000013,ll,keypress(f),0,false,1136325,1136324.8999999762,1130968.29,1130981.6000000238,1130984.868,1136334.852,4,500,26,
break,html.Screen,10_25_1,2023-11-17T21:54:24.042Z,,,,,,,,,,,NaN,,,,,,,,high,low,,,,,,false,,,,,false,1136325.3000000715,1136325.2000000477,,1136325.2000000477,,1136334.852,4,500,,
break_continue,html.Screen,10_25_2,2023-11-17T21:54:24.042Z,,,,,,,,,,,NaN,,,,,,,,high,low,,,,,,false,,,,,false,1136325.5,1136325.5,,1136325.3999999762,,1136334.852,4,500,,
sequence,flow.Sequence,10_25,2023-11-17T21:54:24.042Z,,,,,,,,,,,5340.631999999983,completion,,,,,,,high,low,,,,,,false,,,,,false,1136325.6000000238,1136325.5,1130968.29,1130981.5,1130984.868,1136334.852,4,500,,
trial,html.Screen,10_26_0,2023-11-17T21:54:40.035Z,,,,1,-0.013431314305098,0.0140597582944232,,0.05,,,16016.797999999952,timeout,1.1825604042275355,1.1552111081731875,-0.7628305350533748,-0.6342857446646142,1.0753495825396,-0.8887155446621072,high,low,,ISIC_0069617.JPG,9,ISIC_3067522.JPG,27,false,0.27000000000000013,,,0,false,1152318.8000000715,1152318.7000000477,1136318.16,1136325.6000000238,1136334.852,1152351.65,4,500,27,
break,html.Screen,10_26_1,2023-11-17T21:54:40.035Z,,,,,,,,,,,NaN,,,,,,,,high,low,,,,,,false,,,,,false,1152319.1000000238,1152319,,1152318.8999999762,,1152351.65,4,500,,
break_continue,html.Screen,10_26_2,2023-11-17T21:54:40.036Z,,,,,,,,,,,NaN,,,,,,,,high,low,,,,,,false,,,,,false,1152319.2000000477,1152319.2000000477,,1152319.2000000477,,1152351.65,4,500,,
sequence,flow.Sequence,10_26,2023-11-17T21:54:40.036Z,,,,,,,,,,,15984.348000047728,completion,,,,,,,high,low,,,,,,false,,,,,false,1152319.2000000477,1152319.2000000477,1136318.16,1136325.6000000238,1136334.852,1152351.65,4,500,,
trial,html.Screen,10_27_0,2023-11-17T21:54:46.809Z,,,,1,-0.013431314305098,0.0140597582944232,,0.05,false,hl,6740.950000023935,response,1.276222161935671,1.1552111081731875,-0.7628305350533748,-0.9657780821973284,1.0753495825396,-0.8887155446621072,high,low,,ISIC_0069617.JPG,9,ISIC_6710411.JPG,27,false,0.27000000000000013,lh,keypress(e),0,false,1159092.7000000477,1159092.6000000238,1152334.942,1152319.3000000715,1152351.65,1159101.525,4,500,28,
break,html.Screen,10_27_1,2023-11-17T21:54:46.809Z,,,,,,,,,,,NaN,,,,,,,,high,low,,,,,,false,,,,,false,1159093,1159092.8999999762,,1159092.8000000715,,1159101.525,4,500,,
break_continue,html.Screen,10_27_2,2023-11-17T21:54:46.809Z,,,,,,,,,,,NaN,,,,,,,,high,low,,,,,,false,,,,,false,1159093.1000000238,1159093.1000000238,,1159093.1000000238,,1159101.525,4,500,,
sequence,flow.Sequence,10_27,2023-11-17T21:54:46.810Z,,,,,,,,,,,6741.450000023935,completion,,,,,,,high,low,,,,,,false,,,,,false,1159093.3000000715,1159093.1000000238,1152334.942,1152319.2000000477,1152351.65,1159101.525,4,500,,
trial,html.Screen,10_28_0,2023-11-17T21:54:51.593Z,,,,1,0.0027483411352856,0.0100996915276271,,0.05,false,hl,4775.374999976251,response,1.1615388892961138,1.1552111081731875,-0.7628305350533748,-0.6952763480624806,1.0753495825396,-0.8887155446621072,high,low,,ISIC_7364041.JPG,8,ISIC_1280780.JPG,27,false,0.27000000000000013,ll,keypress(f),0,false,1163877,1163876.8999999762,1159085.063,1159093.3000000715,1159101.525,1163885.008,4,500,29,
break,html.Screen,10_28_1,2023-11-17T21:54:51.594Z,,,,,,,,,,,NaN,,,,,,,,high,low,,,,,,false,,,,,false,1163877.2000000477,1163877.1000000238,,1163877,,1163885.008,4,500,,
break_continue,html.Screen,10_28_2,2023-11-17T21:54:51.594Z,,,,,,,,,,,NaN,,,,,,,,high,low,,,,,,false,,,,,false,1163877.3999999762,1163877.3000000715,,1163877.2000000477,,1163885.008,4,500,,
sequence,flow.Sequence,10_28,2023-11-17T21:54:51.594Z,,,,,,,,,,,4775.775000071619,completion,,,,,,,high,low,,,,,,false,,,,,false,1163877.3999999762,1163877.3000000715,1159085.063,1159093.3000000715,1159101.525,1163885.008,4,500,,
trial,html.Screen,10_29_0,2023-11-17T21:54:54.410Z,,,,1,-0.0051189696037511,0.0396625911332438,,0.05,true,hh,2808.0920000239275,response,1.242586748440878,1.1552111081731875,-0.7628305350533748,1.1207933200172129,1.0753495825396,-0.8887155446621072,high,high,,ISIC_9742891.JPG,8,ISIC_0013073.JPG,31,false,0.1,hh,keypress(i),0,false,1166693.2000000477,1166693.1000000238,1163868.543,1163877.3999999762,1163885.008,1166701.598,4,500,30,
break,html.Screen,10_29_1,2023-11-17T21:54:54.410Z,,,,,,,,,,,NaN,,,,,,,,high,high,,,,,,false,,,,,false,1166693.5,1166693.3999999762,,1166693.3000000715,,1166701.598,4,500,,
break_continue,html.Screen,10_29_2,2023-11-17T21:54:54.410Z,,,,,,,,,,,NaN,,,,,,,,high,high,,,,,,false,,,,,false,1166693.7000000477,1166693.7000000477,,1166693.5,,1166701.598,4,500,,
sequence,flow.Sequence,10_29,2023-11-17T21:54:54.410Z,,,,,,,,,,,2808.6920000477694,completion,,,,,,,high,high,,,,,,false,,,,,false,1166693.8000000715,1166693.7000000477,1163868.543,1163877.3999999762,1163885.008,1166701.598,4,500,,
trial,html.Screen,10_30_0,2023-11-17T21:55:04.346Z,,,,1,0.039728379742806,-0.0228701131373768,,0.05,false,ll,9927.502000023844,response,-0.8513702094329779,1.1552111081731875,-0.7628305350533748,-0.8646686295881743,1.0753495825396,-0.8887155446621072,low,low,,ISIC_0054073.JPG,8,ISIC_1881133.JPG,47,false,0.1,lh,keypress(e),0,false,1176629.2000000477,1176629.1000000238,1166685.217,1166693.8000000715,1166701.598,1176651.487,4,500,31,
break,html.Screen,10_30_1,2023-11-17T21:55:04.346Z,,,,,,,,,,,NaN,,,,,,,,low,low,,,,,,false,,,,,false,1176629.3999999762,1176629.3999999762,,1176629.3000000715,,1176651.487,4,500,,
break_continue,html.Screen,10_30_2,2023-11-17T21:55:04.346Z,,,,,,,,,,,NaN,,,,,,,,low,low,,,,,,false,,,,,false,1176629.6000000238,1176629.5,,1176629.5,,1176651.487,4,500,,
sequence,flow.Sequence,10_30,2023-11-17T21:55:04.346Z,,,,,,,,,,,9927.902000000002,completion,,,,,,,low,low,,,,,,false,,,,,false,1176629.6000000238,1176629.5,1166685.217,1166693.8000000715,1166701.598,1176651.487,4,500,,
trial,html.Screen,10_31_0,2023-11-17T21:55:11.802Z,,,,1,0.0027483411352856,0.0100996915276271,,0.05,false,hh,7433.513000000035,response,1.1346217981791904,1.1552111081731875,-0.7628305350533748,1.1555132168806113,1.0753495825396,-0.8887155446621072,high,high,,ISIC_7364041.JPG,9,ISIC_0032771.JPG,31,false,0.1,ll,keypress(f),0,false,1184085.2000000477,1184085,1176635.084,1176629.7000000477,1176651.487,1184101.507,4,500,32,
break,html.Screen,10_31_1,2023-11-17T21:55:11.802Z,,,,,,,,,,,NaN,,,,,,,,high,high,,,,,,false,,,,,false,1184085.3999999762,1184085.3999999762,,1184085.3000000715,,1184101.507,4,500,,
break_continue,html.Screen,10_31_2,2023-11-17T21:55:11.802Z,,,,,,,,,,,NaN,,,,,,,,high,high,,,,,,false,,,,,false,1184085.6000000238,1184085.6000000238,,1184085.5,,1184101.507,4,500,,
sequence,flow.Sequence,10_31,2023-11-17T21:55:11.802Z,,,,,,,,,,,7434.113000023877,completion,,,,,,,high,high,,,,,,false,,,,,false,1184085.7000000477,1184085.6000000238,1176635.084,1176629.7000000477,1176651.487,1184101.507,4,500,,
trial,html.Screen,10_32_0,2023-11-17T21:55:16.649Z,,,,1,-0.0188047466661863,0.0288346930436979,,0.05,false,hl,4830.993000000017,response,1.0164576835546473,1.1552111081731875,-0.7628305350533748,-0.8120626538423016,1.0753495825396,-0.8887155446621072,high,low,,ISIC_0014157.JPG,10,ISIC_6002694.JPG,27,false,0.27000000000000013,ll,keypress(f),0,false,1188932.6000000238,1188932.5,1184085.005,1184085.7000000477,1184101.507,1188934.74,4,500,33,
break,html.Screen,10_32_1,2023-11-17T21:55:16.650Z,,,,,,,,,,,NaN,,,,,,,,high,low,,,,,,false,,,,,false,1188933,1188933,,1188932.7000000477,,1188934.74,4,500,,
break_continue,html.Screen,10_32_2,2023-11-17T21:55:16.650Z,,,,,,,,,,,NaN,,,,,,,,high,low,,,,,,false,,,,,false,1188933.2000000477,1188933.1000000238,,1188933,,1188934.74,4,500,,
sequence,flow.Sequence,10_32,2023-11-17T21:55:16.650Z,,,,,,,,,,,4831.593000023859,completion,,,,,,,high,low,,,,,,false,,,,,false,1188933.2000000477,1188933.1000000238,1184085.005,1184085.7000000477,1184101.507,1188934.74,4,500,,
trial,html.Screen,10_33_0,2023-11-17T21:55:20.522Z,,,,1,-0.0113873532168551,-0.0054999201556291,,0.05,true,ll,3870.2600000000093,response,-0.77266095910939,1.1552111081731875,-0.7628305350533748,-0.8171109532905281,1.0753495825396,-0.8887155446621072,low,low,,ISIC_8812621.JPG,10,ISIC_0283506.JPG,47,false,0.1,ll,keypress(f),0,false,1192805.1000000238,1192805,1188918.239,1188933.2000000477,1188934.74,1192818.349,4,500,34,
break,html.Screen,10_33_1,2023-11-17T21:55:20.522Z,,,,,,,,,,,NaN,,,,,,,,low,low,,,,,,false,,,,,false,1192805.3999999762,1192805.3000000715,,1192805.1000000238,,1192818.349,4,500,,
break_continue,html.Screen,10_33_2,2023-11-17T21:55:20.522Z,,,,,,,,,,,NaN,,,,,,,,low,low,,,,,,false,,,,,false,1192805.5,1192805.5,,1192805.3999999762,,1192818.349,4,500,,
sequence,flow.Sequence,10_33,2023-11-17T21:55:20.522Z,,,,,,,,,,,3870.7600000000093,completion,,,,,,,low,low,,,,,,false,,,,,false,1192805.6000000238,1192805.5,1188918.239,1188933.2000000477,1188934.74,1192818.349,4,500,,
trial,html.Screen,10_34_0,2023-11-17T21:55:28.137Z,,,,1,-0.0112310719058792,0.0469047359904117,,0.05,false,hl,7602.451000071596,response,0.9580096600137252,1.1552111081731875,-0.7628305350533748,-0.6337880611168651,1.0753495825396,-0.8887155446621072,high,low,,ISIC_0068184.JPG,8,ISIC_0026008.JPG,27,false,0.27000000000000013,hh,keypress(i),0,false,1200420.8999999762,1200420.8000000715,1192801.619,1192805.6000000238,1192818.349,1200434.917,4,500,35,
break,html.Screen,10_34_1,2023-11-17T21:55:28.138Z,,,,,,,,,,,NaN,,,,,,,,high,low,,,,,,false,,,,,false,1200421.2000000477,1200421.1000000238,,1200421,,1200434.917,4,500,,
break_continue,html.Screen,10_34_2,2023-11-17T21:55:28.138Z,,,,,,,,,,,NaN,,,,,,,,high,low,,,,,,false,,,,,false,1200421.3999999762,1200421.3000000715,,1200421.2000000477,,1200434.917,4,500,,
sequence,flow.Sequence,10_34,2023-11-17T21:55:28.138Z,,,,,,,,,,,7602.951000071596,completion,,,,,,,high,low,,,,,,false,,,,,false,1200421.5,1200421.3000000715,1192801.619,1192805.6000000238,1192818.349,1200434.917,4,500,,
trial,html.Screen,10_35_0,2023-11-17T21:55:33.833Z,,,,1,0.007397293189458,0.0174716772037504,,0.05,false,hl,5681.283000047784,response,1.1615388892961138,1.1552111081731875,-0.7628305350533748,-0.6952763480624806,1.0753495825396,-0.8887155446621072,high,low,,ISIC_0056226.JPG,9,ISIC_1280780.JPG,27,false,0.27000000000000013,ll,keypress(f),0,false,1206116.3000000715,1206116.2000000477,1200418.28,1200421.5,1200434.917,1206118.116,4,500,36,
break,html.Screen,10_35_1,2023-11-17T21:55:33.833Z,,,,,,,,,,,NaN,,,,,,,,high,low,,,,,,false,,,,,false,1206116.5,1206116.5,,1206116.3999999762,,1206118.116,4,500,,
break_continue,html.Screen,10_35_2,2023-11-17T21:55:33.833Z,,,,,,,,,,,NaN,,,,,,,,high,low,,,,,,false,,,,,false,1206116.8000000715,1206116.7000000477,,1206116.6000000238,,1206118.116,4,500,,
sequence,flow.Sequence,10_35,2023-11-17T21:55:33.833Z,,,,,,,,,,,5681.783000047784,completion,,,,,,,high,low,,,,,,false,,,,,false,1206116.8000000715,1206116.7000000477,1200418.28,1200421.5,1200434.917,1206118.116,4,500,,
trial,html.Screen,10_36_0,2023-11-17T21:55:42.426Z,,,,1,-0.0348234368746005,0.0236866303880924,,0.05,false,hh,8590.884000000078,response,1.110766057559199,1.1552111081731875,-0.7628305350533748,1.0312818210504362,1.0753495825396,-0.8887155446621072,high,high,,ISIC_0011099.JPG,9,ISIC_0069620.JPG,31,false,0.1,lh,keypress(e),0,false,1214709.1000000238,1214709,1206101.588,1206116.8999999762,1206118.116,1214718.197,4,500,37,
break,html.Screen,10_36_1,2023-11-17T21:55:42.426Z,,,,,,,,,,,NaN,,,,,,,,high,high,,,,,,false,,,,,false,1214709.3999999762,1214709.3999999762,,1214709.2000000477,,1214718.197,4,500,,
break_continue,html.Screen,10_36_2,2023-11-17T21:55:42.426Z,,,,,,,,,,,NaN,,,,,,,,high,high,,,,,,false,,,,,false,1214709.6000000238,1214709.5,,1214709.3999999762,,1214718.197,4,500,,
sequence,flow.Sequence,10_36,2023-11-17T21:55:42.426Z,,,,,,,,,,,8591.384000000078,completion,,,,,,,high,high,,,,,,false,,,,,false,1214709.7000000477,1214709.5,1206101.588,1206116.8999999762,1206118.116,1214718.197,4,500,,
trial,html.Screen,10_37_0,2023-11-17T21:55:50.186Z,,,,1,0.0070725527271049,0.0049995141077508,,0.05,true,hh,7750.702999976231,response,1.1762578943048685,1.1552111081731875,-0.7628305350533748,1.0434857167145009,1.0753495825396,-0.8887155446621072,high,high,,ISIC_6124481.JPG,10,ISIC_0032544.JPG,31,false,0.1,hh,keypress(i),0,false,1222469,1222468.8999999762,1214701.449,1214709.8000000715,1214718.197,1222484.969,4,500,38,
break,html.Screen,10_37_1,2023-11-17T21:55:50.186Z,,,,,,,,,,,NaN,,,,,,,,high,high,,,,,,false,,,,,false,1222469.3999999762,1222469.3999999762,,1222469.2000000477,,1222484.969,4,500,,
break_continue,html.Screen,10_37_2,2023-11-17T21:55:50.186Z,,,,,,,,,,,NaN,,,,,,,,high,high,,,,,,false,,,,,false,1222469.6000000238,1222469.6000000238,,1222469.5,,1222484.969,4,500,,
sequence,flow.Sequence,10_37,2023-11-17T21:55:50.186Z,,,,,,,,,,,7751.4030000239145,completion,,,,,,,high,high,,,,,,false,,,,,false,1222469.7000000477,1222469.6000000238,1214701.449,1214709.8000000715,1214718.197,1222484.969,4,500,,
trial,html.Screen,10_38_0,2023-11-17T21:55:58.394Z,,,,1,0.0456515796420274,-0.0273567130070961,,0.05,true,hh,8192.1310000238,response,1.2296334397777855,1.1552111081731875,-0.7628305350533748,1.022420086815287,1.0753495825396,-0.8887155446621072,high,high,,ISIC_0068610.JPG,9,ISIC_0073173.JPG,31,false,0.1,hh,keypress(i),0,false,1230677.2000000477,1230677.1000000238,1222467.992,1222469.7000000477,1222484.969,1230684.747,4,500,39,
