sender,sender_type,sender_id,timestamp,meta,,age,blockNo,c1,c2,condition,control_tolerance,correct,correctResponse,duration,ended_on,f1,f1_high,f1_low,f2,f2_high,f2_low,feature_level1,feature_level2,gender,img_left,img_reveal,img_right,n_target_images,practice,range_tolerance,response,response_action,selection_duration,staircase,time_commit,time_end,time_render,time_run,time_show,time_switch,total_blocks,total_trials,trialNo,url
informed_consent,html.Screen,0,2023-11-17T17:37:48.134Z,"{""labjs_version"":""20.2.4"",""labjs_build"":{""flavor"":""development"",""commit"":""f5b4a49f956347addd546a832a3327688c2c0fef""},""location"":""https://labjs.felixhenninger.com/api/labjs_preview/index.html"",""userAgent"":""Mozilla/5.0 (Windows NT 10.0; Win64; x64) AppleWebKit/537.36 (KHTML, like Gecko) Chrome/119.0.0.0 Safari/537.36"",""platform"":""Win32"",""language"":""en-US"",""locale"":""en-US"",""timeZone"":""America/Chicago"",""timezoneOffset"":360,""screen_width"":1920,""screen_height"":1080,""scroll_width"":945,""scroll_height"":918,""window_innerWidth"":945,""window_innerHeight"":966,""devicePixelRatio"":1}",,,,,,,,,,49436.28300001192,response,,,,,,,,,,,,,,,,consent,click button,,,50108.90000000596,50099.80000001192,646.673,852.1000000238419,663.517,49896.757,,,,{}
Demography form,html.Form,1,2023-11-17T17:37:59.375Z,,,19,,,,,,,,11452.443000017884,form submission,,,,,,,,,female,,,,,,,,,,,61349.30000001192,61349.20000001788,49880.295,50109.20000001788,49896.757,61146.763,,,,
Welcome,html.Screen,2,2023-11-17T17:38:22.046Z,,,,,,,"[""bor"",""col""]",,,,22872.937000017882,response,,,,,,,,,,,,,,,,continue,click button,,,84020.10000002384,84019.70000001788,61130.253,61349.40000000596,61146.763,83830.163,,,,
demo_instructions,html.Screen,3,2023-11-17T17:39:04.622Z,,,,,,,,,,,42765.43700002384,response,,,,,,,,,,,,,,,,continue,click button,,,126596.30000001192,126595.60000002384,83813.483,84020.20000001788,83830.163,126430.183,,,,
trial,html.Screen,4_0_0,2023-11-17T17:39:12.569Z,,,,0,0.8544507134472948,-0.9244388608707323,,,true,lh,8112.717000005956,response,-1.058275612142778,1.2,-1.2,0.7824898568540655,1.2,-1.2,low,high,,ISIC_3565564.JPG,,ISIC_4906385.JPG,26,true,0.4500000000000003,lh,keypress(e),100,false,134543,134542.90000000596,126380.187,126596.40000000596,126430.183,134363.775,1,16,1,
sequence,flow.Sequence,4_0,2023-11-17T17:39:12.569Z,,,,,,,,,,,8112.717000005956,completion,,,,,,,low,high,,,,,,true,,,,,false,134543.20000001788,134542.90000000596,126380.187,126596.40000000596,126430.183,134363.775,1,16,,
trial,html.Screen,4_1_0,2023-11-17T17:39:22.428Z,,,,0,1.2646773654288392,-0.952963803634235,,,true,lh,10038.225000000006,response,-0.8034318937720549,1.2,-1.2,1.0024917298189338,1.2,-1.2,low,high,,ISIC_1996356.JPG,,ISIC_0032766.JPG,26,true,0.4500000000000003,lh,keypress(e),100,false,144402.30000001192,144402,134346.91,134543.30000001192,134363.775,144213.582,1,16,2,
sequence,flow.Sequence,4_1,2023-11-17T17:39:22.428Z,,,,,,,,,,,10038.225000000006,completion,,,,,,,low,high,,,,,,true,,,,,false,144402.70000001788,144402,134346.91,134543.30000001192,134363.775,144213.582,1,16,,
trial,html.Screen,4_2_0,2023-11-17T17:39:26.281Z,,,,0,0.8307508446051526,-1.1707575338936729,,,false,lh,4041.1180000178865,response,-1.2578167348825195,1.2,-1.2,0.8371819698254004,1.2,-1.2,low,high,,ISIC_0028606.JPG,,ISIC_9613570.JPG,26,true,0.4500000000000003,hl,keypress(j),100,false,148255,148254.70000001788,144196.911,144402.90000000596,144213.582,148080.444,1,16,3,
sequence,flow.Sequence,4_2,2023-11-17T17:39:26.281Z,,,,,,,,,,,4041.1180000178865,completion,,,,,,,low,high,,,,,,true,,,,,false,148255.5,148254.70000001788,144196.911,144402.90000000596,144213.582,148080.444,1,16,,
trial,html.Screen,4_3_0,2023-11-17T17:39:31.067Z,,,,0,0.8047295996345292,-1.551750455622795,,,true,lh,4960.856000011932,response,-0.8034318937720549,1.2,-1.2,1.0024917298189338,1.2,-1.2,low,high,,ISIC_7717907.JPG,,ISIC_0032766.JPG,26,true,0.4500000000000003,lh,keypress(e),100,false,153041.60000002384,153041.30000001192,148063.586,148255.70000001788,148080.444,152863.689,1,16,4,
sequence,flow.Sequence,4_3,2023-11-17T17:39:31.068Z,,,,,,,,,,,4960.856000011932,completion,,,,,,,low,high,,,,,,true,,,,,false,153042,153041.30000001192,148063.586,148255.60000002384,148080.444,152863.689,1,16,,
trial,html.Screen,4_4_0,2023-11-17T17:39:34.963Z,,,,0,1.2033647433750492,1.0718012192341555,,,false,ll,4073.7110000059474,response,-0.9242629064104082,1.2,-1.2,-1.0085499824556403,1.2,-1.2,low,low,,ISIC_0061606.JPG,,ISIC_7795549.JPG,203,true,0.40000000000000024,hl,keypress(j),100,false,156937.5,156937.40000000596,152847.036,153042.10000002384,152863.689,156763.841,1,16,5,
sequence,flow.Sequence,4_4,2023-11-17T17:39:34.963Z,,,,,,,,,,,4073.7110000059474,completion,,,,,,,low,low,,,,,,true,,,,,false,156937.70000001788,156937.40000000596,152847.036,153042.10000002384,152863.689,156763.841,1,16,,
trial,html.Screen,4_5_0,2023-11-17T17:39:39.656Z,,,,0,1.1195710731537871,1.1961732733209125,,,false,ll,4866.259000023856,response,-1.1870093485714288,1.2,-1.2,-1.3339880978442629,1.2,-1.2,low,low,,ISIC_0067170.JPG,,ISIC_8592235.JPG,25,true,0.14,hl,keypress(j),100,false,161630.5,161630.10000002384,156747.058,156937.80000001192,156763.841,161447.045,1,16,6,
sequence,flow.Sequence,4_5,2023-11-17T17:39:39.656Z,,,,,,,,,,,4866.259000023856,completion,,,,,,,low,low,,,,,,true,,,,,false,161630.90000000596,161630.10000002384,156747.058,156937.70000001788,156763.841,161447.045,1,16,,
trial,html.Screen,4_6_0,2023-11-17T17:39:47.956Z,,,,0,1.2118207001489876,1.3164676315545727,,,false,ll,8483.555000023829,response,-1.1409143352872226,1.2,-1.2,-1.1323007949069106,1.2,-1.2,low,low,,ISIC_0066476.JPG,,ISIC_0030291.JPG,25,true,0.14,hl,keypress(j),100,false,169930.90000000596,169930.60000002384,161430.277,161631.10000002384,161447.045,169746.963,1,16,7,
sequence,flow.Sequence,4_6,2023-11-17T17:39:47.957Z,,,,,,,,,,,8483.555000023829,completion,,,,,,,low,low,,,,,,true,,,,,false,169931.30000001192,169930.60000002384,161430.277,161631.10000002384,161447.045,169746.963,1,16,,
trial,html.Screen,4_7_0,2023-11-17T17:39:50.672Z,,,,0,1.0915173513546716,1.266840220031473,,,false,ll,2898.9370000059716,response,-1.3246728710248594,1.2,-1.2,-1.1527736000922424,1.2,-1.2,low,low,,ISIC_8241457.JPG,,ISIC_6876281.JPG,25,true,0.14,hl,keypress(j),100,false,172646.10000002384,172645.90000000596,169730.274,169931.30000001192,169746.963,172463.613,1,16,8,
sequence,flow.Sequence,4_7,2023-11-17T17:39:50.672Z,,,,,,,,,,,2898.9370000059716,completion,,,,,,,low,low,,,,,,true,,,,,false,172646.20000001788,172645.90000000596,169730.274,169931.30000001192,169746.963,172463.613,1,16,,
trial,html.Screen,4_8_0,2023-11-17T17:39:54.018Z,,,,0,-1.075512775389519,1.0454702683049502,,,false,hl,3528.0870000178693,response,0.8544507134472948,1.2,-1.2,-0.9244388608707323,1.2,-1.2,high,low,,ISIC_0033603.JPG,,ISIC_3565564.JPG,27,true,0.40000000000000024,hh,keypress(i),100,false,175992,175991.70000001788,172446.926,172646.20000001788,172463.613,175813.599,1,16,9,
sequence,flow.Sequence,4_8,2023-11-17T17:39:54.018Z,,,,,,,,,,,3528.0870000178693,completion,,,,,,,high,low,,,,,,true,,,,,false,175992.20000001788,175991.70000001788,172446.926,172646.20000001788,172463.613,175813.599,1,16,,
trial,html.Screen,4_9_0,2023-11-17T17:39:57.009Z,,,,0,-0.8828738626295417,0.8288177599439582,,,false,hl,3170.0010000238544,response,1.045301444872812,1.2,-1.2,-1.0872560254441277,1.2,-1.2,high,low,,ISIC_0056041.JPG,,ISIC_4507700.JPG,40,true,0.4500000000000003,hh,keypress(i),100,false,178983.80000001192,178983.60000002384,175796.989,175992.40000000596,175813.599,178796.924,1,16,10,
sequence,flow.Sequence,4_9,2023-11-17T17:39:57.009Z,,,,,,,,,,,3170.0010000238544,completion,,,,,,,high,low,,,,,,true,,,,,false,178983.90000000596,178983.60000002384,175796.989,175992.40000000596,175813.599,178796.924,1,16,,
trial,html.Screen,4_10_0,2023-11-17T17:40:01.446Z,,,,0,-1.2578167348825195,0.8371819698254004,,,false,hl,4621.776000017882,response,0.7692916291112835,1.2,-1.2,-0.7818604706992622,1.2,-1.2,high,low,,ISIC_9613570.JPG,,ISIC_7844825.JPG,40,true,0.4500000000000003,lh,keypress(e),100,false,183418.90000000596,183418.70000001788,178780.274,178984,178796.924,183230.286,1,16,11,
sequence,flow.Sequence,4_10,2023-11-17T17:40:01.446Z,,,,,,,,,,,4621.776000017882,completion,,,,,,,high,low,,,,,,true,,,,,false,183419.20000001788,183418.70000001788,178780.274,178984,178796.924,183230.286,1,16,,
trial,html.Screen,4_11_0,2023-11-17T17:40:05.856Z,,,,0,-1.2362557973341337,1.2548266183352603,,,true,hl,4598.414000017889,response,0.9617893983965208,1.2,-1.2,-0.9453006131304652,1.2,-1.2,high,low,,ISIC_0033886.JPG,,ISIC_4229473.JPG,40,true,0.4500000000000003,hl,keypress(j),100,false,187828.80000001192,187828.70000001788,183213.614,183419.30000001192,183230.286,187646.93,1,16,12,
sequence,flow.Sequence,4_11,2023-11-17T17:40:05.856Z,,,,,,,,,,,4598.414000017889,completion,,,,,,,high,low,,,,,,true,,,,,false,187828.90000000596,187828.70000001788,183213.614,183419.30000001192,183230.286,187646.93,1,16,,
trial,html.Screen,4_12_0,2023-11-17T17:40:11.301Z,,,,0,-1.1409143352872226,-1.1323007949069106,,,false,hh,5627.170000023849,response,1.5489304784589637,1.2,-1.2,0.8921448067018203,1.2,-1.2,high,high,,ISIC_0030291.JPG,,ISIC_0027838.JPG,359,true,0.4500000000000003,hl,keypress(j),100,false,193274.20000001788,193274.10000002384,187630.319,187829,187646.93,193097.073,1,16,13,
sequence,flow.Sequence,4_12,2023-11-17T17:40:11.301Z,,,,,,,,,,,5627.170000023849,completion,,,,,,,high,high,,,,,,true,,,,,false,193274.60000002384,193274.10000002384,187630.319,187829,187646.93,193097.073,1,16,,
trial,html.Screen,4_13_0,2023-11-17T17:40:14.188Z,,,,0,-1.1409143352872226,-1.1323007949069106,,,false,hh,3064.227000011917,response,1.0653732408486678,1.2,-1.2,1.089675540151582,1.2,-1.2,high,high,,ISIC_0030291.JPG,,ISIC_0058315.JPG,40,true,0.14,hl,keypress(j),100,false,196161.5,196161.30000001192,193080.416,193274.70000001788,193097.073,195980.351,1,16,14,
sequence,flow.Sequence,4_13,2023-11-17T17:40:14.189Z,,,,,,,,,,,3064.227000011917,completion,,,,,,,high,high,,,,,,true,,,,,false,196161.70000001788,196161.30000001192,193080.416,193274.70000001788,193097.073,195980.351,1,16,,
trial,html.Screen,4_14_0,2023-11-17T17:40:18.485Z,,,,0,-1.1409143352872226,-1.1323007949069106,,,false,hh,4477.649000000005,response,1.2014901828022857,1.2,-1.2,1.1484096197304636,1.2,-1.2,high,high,,ISIC_0030291.JPG,,ISIC_0067808.JPG,40,true,0.14,lh,keypress(e),100,false,200458.20000001788,200458,195963.683,196161.90000000596,195980.351,200280.458,1,16,15,
sequence,flow.Sequence,4_14,2023-11-17T17:40:18.485Z,,,,,,,,,,,4477.649000000005,completion,,,,,,,high,high,,,,,,true,,,,,false,200458.30000001192,200458,195963.683,196161.80000001192,195980.351,200280.458,1,16,,
trial,html.Screen,4_15_0,2023-11-17T17:40:24.153Z,,,,0,-1.2724293858920366,-1.149360738769835,,,true,hh,5845.842000011908,response,1.1243896694621007,1.2,-1.2,1.1772340944704969,1.2,-1.2,high,high,,ISIC_1264725.JPG,,ISIC_0062765.JPG,40,true,0.14,hh,keypress(i),100,false,206126.60000002384,206126.30000001192,200263.693,200458.30000001192,200280.458,205947,1,16,16,
sequence,flow.Sequence,4_15,2023-11-17T17:40:24.154Z,,,,,,,,,,,5845.842000011908,completion,,,,,,,high,high,,,,,,true,,,,,false,206126.80000001192,206126.30000001192,200263.693,200458.30000001192,200280.458,205947,1,16,,
demonstration_loop,flow.Loop,4,2023-11-17T17:40:24.154Z,,,,,,,,,,,79696.11700001192,completion,,,,,,,,,,,,,,true,,,,,false,206127,206126.30000001192,126380.187,126596.40000000596,126430.183,205947,1,16,,
practice_instructions,html.Screen,5,2023-11-17T17:40:26.567Z,,,,,,,,,,,2592.9000000059605,response,,,,,,,,,,,,,,,,continue,click button,,,208540.5,208539.90000000596,205930.324,206127.10000002384,205947,208363.627,,,,
trial,html.Screen,6_0_0,2023-11-17T17:40:39.008Z,,,,1,-0.8110121381849364,0.7563142141851558,,,true,hl,12605.872999999992,response,0.8307508446051526,1.2,-1.2,-1.1707575338936729,1.2,-1.2,high,low,,ISIC_0033605.JPG,,ISIC_0028606.JPG,27,true,0.40000000000000024,hl,keypress(j),0,false,220980.90000000596,220969.5,208330.47,208540.60000002384,208363.627,220780.329,1,40,1,
sequence,flow.Sequence,6_0,2023-11-17T17:40:39.008Z,,,,,,,,,,,12605.872999999992,completion,,,,,,,high,low,,,,,,true,,,,,false,220981.10000002384,220969.5,208330.47,208540.60000002384,208363.627,220780.329,1,40,,
trial,html.Screen,6_1_0,2023-11-17T17:40:45.312Z,,,,1,1.2020012168275056,-0.923753102263735,,,true,lh,6504.771000023844,response,-0.7882758084023446,1.2,-1.2,0.8296405881378283,1.2,-1.2,low,high,,ISIC_0000022.JPG,,ISIC_0065882.JPG,26,true,0.4500000000000003,lh,keypress(e),0,false,227285.30000001192,227285.10000002384,220763.71,220981.20000001788,220780.329,227097.17,1,40,2,
sequence,flow.Sequence,6_1,2023-11-17T17:40:45.313Z,,,,,,,,,,,6504.771000023844,completion,,,,,,,low,high,,,,,,true,,,,,false,227286.10000002384,227285.10000002384,220763.71,220981.20000001788,220780.329,227097.17,1,40,,
trial,html.Screen,6_2_0,2023-11-17T17:40:56.288Z,,,,1,-1.0659165756604234,-1.0867497316848906,,,true,hh,11163.829999999987,response,1.4373495985155371,1.2,-1.2,0.925904913384407,1.2,-1.2,high,high,,ISIC_5807608.JPG,,ISIC_0027590.JPG,288,true,0.40000000000000024,hh,keypress(i),0,false,238261.20000001788,238261,227080.252,227286.20000001788,227097.17,238097.045,1,40,3,
sequence,flow.Sequence,6_2,2023-11-17T17:40:56.288Z,,,,,,,,,,,11163.829999999987,completion,,,,,,,high,high,,,,,,true,,,,,false,238261.5,238261,227080.252,227286.20000001788,227097.17,238097.045,1,40,,
trial,html.Screen,6_3_0,2023-11-17T17:41:04.072Z,,,,1,-1.2578167348825195,0.8371819698254004,,,true,hl,7947.454999999987,response,0.9633172970727744,1.2,-1.2,-0.8472659344792351,1.2,-1.2,high,low,,ISIC_9613570.JPG,,ISIC_0067172.JPG,27,true,0.40000000000000024,hl,keypress(j),0,false,246044.70000001788,246044.5,238046.598,238261.70000001788,238097.045,245847.025,1,40,4,
sequence,flow.Sequence,6_3,2023-11-17T17:41:04.072Z,,,,,,,,,,,7947.454999999987,completion,,,,,,,high,low,,,,,,true,,,,,false,246044.90000000596,246044.5,238046.598,238261.60000002384,238097.045,245847.025,1,40,,
trial,html.Screen,6_4_0,2023-11-17T17:41:13.856Z,,,,1,1.2749714218614645,1.1578619398362149,,,true,ll,9981.275000011927,response,-0.843726025213188,1.2,-1.2,-0.7754562859183127,1.2,-1.2,low,low,,ISIC_0024999.JPG,,ISIC_4728200.JPG,265,true,0.4500000000000003,ll,keypress(f),0,false,255828.40000000596,255828.30000001192,245830.094,246045,245847.025,255630.382,1,40,5,
sequence,flow.Sequence,6_4,2023-11-17T17:41:13.856Z,,,,,,,,,,,9981.275000011927,completion,,,,,,,low,low,,,,,,true,,,,,false,255828.5,255828.30000001192,245830.094,246045,245847.025,255630.382,1,40,,
trial,html.Screen,6_5_0,2023-11-17T17:41:16.128Z,,,,1,-1.3379750533585932,-1.1671342614509763,,,true,hh,2470.4180000119086,response,1.1017564906891342,1.2,-1.2,1.293633394635193,1.2,-1.2,high,high,,ISIC_0063556.JPG,,ISIC_0029026.JPG,30,true,0.13,hh,keypress(i),0,false,258101,258100.80000001192,255613.55,255828.60000002384,255630.382,257930.383,1,40,6,
sequence,flow.Sequence,6_5,2023-11-17T17:41:16.128Z,,,,,,,,,,,2470.4180000119086,completion,,,,,,,high,high,,,,,,true,,,,,false,258101.30000001192,258100.80000001192,255613.55,255828.60000002384,255630.382,257930.383,1,40,,
trial,html.Screen,6_6_0,2023-11-17T17:41:20.096Z,,,,1,1.045301444872812,-1.0872560254441277,,,true,lh,4138.116999999998,response,-0.8110121381849364,1.2,-1.2,0.7563142141851558,1.2,-1.2,low,high,,ISIC_4507700.JPG,,ISIC_0033605.JPG,26,true,0.4500000000000003,lh,keypress(e),0,false,262068.60000002384,262068.5,257880.418,258101.40000000596,257930.383,261881.231,1,40,7,
sequence,flow.Sequence,6_6,2023-11-17T17:41:20.096Z,,,,,,,,,,,4138.116999999998,completion,,,,,,,low,high,,,,,,true,,,,,false,262068.80000001192,262068.5,257880.418,258101.30000001192,257930.383,261881.231,1,40,,
trial,html.Screen,6_7_0,2023-11-17T17:41:24.192Z,,,,1,-1.274752206258116,-1.2988509166163749,,,true,hh,4283.569000011921,response,0.970732112511705,1.2,-1.2,1.166572336354465,1.2,-1.2,high,high,,ISIC_6704623.JPG,,ISIC_0010778.JPG,288,true,0.40000000000000024,hh,keypress(i),0,false,266164.90000000596,266164.8000000119,261846.969,262068.80000001192,261881.231,265980.393,1,40,8,
sequence,flow.Sequence,6_7,2023-11-17T17:41:24.192Z,,,,,,,,,,,4283.569000011921,completion,,,,,,,high,high,,,,,,true,,,,,false,266165,266164.8000000119,261846.969,262068.80000001192,261881.231,265980.393,1,40,,
trial,html.Screen,6_8_0,2023-11-17T17:41:26.361Z,,,,1,0.8307508446051526,-1.1707575338936729,,,true,lh,2352.907000011939,response,-1.058275612142778,1.2,-1.2,0.7824898568540655,1.2,-1.2,low,high,,ISIC_0028606.JPG,,ISIC_4906385.JPG,26,true,0.4500000000000003,lh,keypress(e),0,false,268333.5,268333.3000000119,265946.904,266165.2000000179,265980.393,268130.391,1,40,9,
sequence,flow.Sequence,6_8,2023-11-17T17:41:26.361Z,,,,,,,,,,,2352.907000011939,completion,,,,,,,low,high,,,,,,true,,,,,false,268333.8000000119,268333.3000000119,265946.904,266165.10000002384,265980.393,268130.391,1,40,,
trial,html.Screen,6_9_0,2023-11-17T17:41:28.456Z,,,,1,0.9544693251394116,-1.0727539917203766,,,true,lh,2298.7090000238386,response,-1.199471562817528,1.2,-1.2,0.8631260534979347,1.2,-1.2,low,high,,ISIC_0055147.JPG,,ISIC_0030754.JPG,26,true,0.4500000000000003,lh,keypress(e),0,false,270429.2000000179,270429.10000002384,268113.668,268334,268130.391,270230.388,1,40,10,
sequence,flow.Sequence,6_9,2023-11-17T17:41:28.457Z,,,,,,,,,,,2298.7090000238386,completion,,,,,,,low,high,,,,,,true,,,,,false,270429.7000000179,270429.10000002384,268113.668,268334,268130.391,270230.388,1,40,,
trial,html.Screen,6_10_0,2023-11-17T17:41:30.400Z,,,,1,1.1195710731537871,1.1961732733209125,,,false,ll,2142.312000017904,response,-0.9021253278345898,1.2,-1.2,-1.3280231840672991,1.2,-1.2,low,low,,ISIC_0067170.JPG,,ISIC_0031582.JPG,203,true,0.40000000000000024,hl,keypress(j),0,false,272372.8000000119,272372.7000000179,270213.812,270429.8000000119,270230.388,272180.4,1,40,11,
sequence,flow.Sequence,6_10,2023-11-17T17:41:30.400Z,,,,,,,,,,,2142.312000017904,completion,,,,,,,low,low,,,,,,true,,,,,false,272373.10000002384,272372.7000000179,270213.812,270429.8000000119,270230.388,272180.4,1,40,,
trial,html.Screen,6_11_0,2023-11-17T17:41:34.617Z,,,,1,-1.2362557973341337,1.2548266183352603,,,true,hl,4409.000000005937,response,1.2081146885025262,1.2,-1.2,-1.195668832085049,1.2,-1.2,high,low,,ISIC_0033886.JPG,,ISIC_7369690.JPG,27,true,0.40000000000000024,hl,keypress(j),0,false,276589.5,276589.40000000596,272163.693,272373.2000000179,272180.4,276397.218,1,40,12,
sequence,flow.Sequence,6_11,2023-11-17T17:41:34.617Z,,,,,,,,,,,4409.000000005937,completion,,,,,,,high,low,,,,,,true,,,,,false,276589.90000000596,276589.40000000596,272163.693,272373.10000002384,272180.4,276397.218,1,40,,
trial,html.Screen,6_12_0,2023-11-17T17:41:38.832Z,,,,1,1.186629690487006,1.3269945600040771,,,true,ll,4407.182000005967,response,-1.0828565020249128,1.2,-1.2,-0.7576926748805504,1.2,-1.2,low,low,,ISIC_0015390.JPG,,ISIC_3105924.JPG,265,true,0.4500000000000003,ll,keypress(f),0,false,280804.5,280804.40000000596,276380.279,276590.10000002384,276397.218,280613.751,1,40,13,
sequence,flow.Sequence,6_12,2023-11-17T17:41:38.832Z,,,,,,,,,,,4407.182000005967,completion,,,,,,,low,low,,,,,,true,,,,,false,280804.60000002384,280804.40000000596,276380.279,276590,276397.218,280613.751,1,40,,
trial,html.Screen,6_13_0,2023-11-17T17:41:40.232Z,,,,1,1.236306205926646,1.116612676102794,,,true,ll,1591.0490000119316,response,-1.3379750533585932,1.2,-1.2,-1.1671342614509763,1.2,-1.2,low,low,,ISIC_0054341.JPG,,ISIC_0063556.JPG,25,true,0.14,ll,keypress(f),0,false,282205,282204.8000000119,280596.958,280804.7000000179,280613.751,282013.821,1,40,14,
sequence,flow.Sequence,6_13,2023-11-17T17:41:40.232Z,,,,,,,,,,,1591.0490000119316,completion,,,,,,,low,low,,,,,,true,,,,,false,282205.10000002384,282204.8000000119,280596.958,280804.60000002384,280613.751,282013.821,1,40,,
trial,html.Screen,6_14_0,2023-11-17T17:41:42.736Z,,,,1,-1.2253191093367526,-1.241905252673026,,,true,hh,2695.079000005964,response,1.0773466327271526,1.2,-1.2,1.1601445610079184,1.2,-1.2,high,high,,ISIC_1195689.JPG,,ISIC_0055169.JPG,30,true,0.13,hh,keypress(i),0,false,284709,284708.90000000596,281997.193,282205.2000000179,282013.821,284530.417,1,40,15,
sequence,flow.Sequence,6_14,2023-11-17T17:41:42.736Z,,,,,,,,,,,2695.079000005964,completion,,,,,,,high,high,,,,,,true,,,,,false,284709.2000000179,284708.90000000596,281997.193,282205.2000000179,282013.821,284530.417,1,40,,
trial,html.Screen,6_15_0,2023-11-17T17:41:45.744Z,,,,1,-0.7883321712536753,1.0011430756825364,,,false,hl,3186.2830000178656,response,0.8307508446051526,1.2,-1.2,-1.1707575338936729,1.2,-1.2,high,low,,ISIC_9828853.JPG,,ISIC_0028606.JPG,27,true,0.40000000000000024,lh,keypress(e),0,false,287716.8000000119,287716.7000000179,284497.064,284709.40000000596,284530.417,287513.759,1,40,16,
sequence,flow.Sequence,6_15,2023-11-17T17:41:45.744Z,,,,,,,,,,,3186.2830000178656,completion,,,,,,,high,low,,,,,,true,,,,,false,287716.90000000596,287716.7000000179,284497.064,284709.3000000119,284530.417,287513.759,1,40,,
trial,html.Screen,6_16_0,2023-11-17T17:41:47.424Z,,,,1,-1.2946277435220357,-1.255157480204324,,,false,hh,1883.1410000059404,response,0.772342084429769,1.2,-1.2,0.8755566396204548,1.2,-1.2,high,high,,ISIC_1870309.JPG,,ISIC_0071430.JPG,359,true,0.4500000000000003,hl,keypress(j),0,false,289397.10000002384,289396.90000000596,287497.09,287717,287513.759,289197.138,1,40,17,
sequence,flow.Sequence,6_16,2023-11-17T17:41:47.425Z,,,,,,,,,,,1883.1410000059404,completion,,,,,,,high,high,,,,,,true,,,,,false,289397.5,289396.90000000596,287497.09,287717,287513.759,289197.138,1,40,,
trial,html.Screen,6_17_0,2023-11-17T17:41:49.376Z,,,,1,1.268445326285509,1.173734476257662,,,false,ll,2151.562000017904,response,-1.2219550761700546,1.2,-1.2,-1.2809901875733454,1.2,-1.2,low,low,,ISIC_5216586.JPG,,ISIC_6463417.JPG,25,true,0.14,lh,keypress(e),0,false,291348.90000000596,291348.7000000179,289180.554,289397.7000000179,289197.138,291147.115,1,40,18,
sequence,flow.Sequence,6_17,2023-11-17T17:41:49.376Z,,,,,,,,,,,2151.562000017904,completion,,,,,,,low,low,,,,,,true,,,,,false,291349.10000002384,291348.7000000179,289180.554,289397.60000002384,289197.138,291147.115,1,40,,
trial,html.Screen,6_18_0,2023-11-17T17:41:51.768Z,,,,1,-1.1870093485714288,-1.3339880978442629,,,true,hh,2593.3850000000093,response,1.2691569063625474,1.2,-1.2,1.1264228993232308,1.2,-1.2,high,high,,ISIC_8592235.JPG,,ISIC_4980656.JPG,30,true,0.13,hh,keypress(i),0,false,293740.60000002384,293740.5,291130.511,291349.2000000179,291147.115,293547.29,1,40,19,
sequence,flow.Sequence,6_18,2023-11-17T17:41:51.768Z,,,,,,,,,,,2593.3850000000093,completion,,,,,,,high,high,,,,,,true,,,,,false,293740.7000000179,293740.5,291130.511,291349.2000000179,291147.115,293547.29,1,40,,
trial,html.Screen,6_19_0,2023-11-17T17:41:55.945Z,,,,1,1.2691569063625474,1.1264228993232308,,,true,ll,4370.510000011942,response,-1.252716660627398,1.2,-1.2,-1.183977080937476,1.2,-1.2,low,low,,ISIC_4980656.JPG,,ISIC_0034194.JPG,25,true,0.14,ll,keypress(f),0,false,297918,297917.8000000119,293530.489,293740.8000000119,293547.29,297731.07,1,40,20,
sequence,flow.Sequence,6_19,2023-11-17T17:41:55.946Z,,,,,,,,,,,4370.510000011942,completion,,,,,,,low,low,,,,,,true,,,,,false,297918.40000000596,297917.8000000119,293530.489,293740.8000000119,293547.29,297731.07,1,40,,
trial,html.Screen,6_20_0,2023-11-17T17:41:58.088Z,,,,1,-1.2724293858920366,-1.149360738769835,,,true,hh,2329.929999999993,response,1.0849202097813322,1.2,-1.2,1.0851127310415287,1.2,-1.2,high,high,,ISIC_1264725.JPG,,ISIC_0010289.JPG,30,true,0.13,hh,keypress(i),0,false,300061.3000000119,300061,297697.08,297918.60000002384,297731.07,299880.417,1,40,21,
sequence,flow.Sequence,6_20,2023-11-17T17:41:58.089Z,,,,,,,,,,,2329.929999999993,completion,,,,,,,high,high,,,,,,true,,,,,false,300061.60000002384,300061,297697.08,297918.5,297731.07,299880.417,1,40,,
trial,html.Screen,6_21_0,2023-11-17T17:41:59.681Z,,,,1,-0.7518277461369444,1.3860759020802074,,,true,hl,1772.7830000178656,response,0.8987343013179191,1.2,-1.2,-0.8149073454566363,1.2,-1.2,high,low,,ISIC_7967397.JPG,,ISIC_0472513.JPG,27,true,0.40000000000000024,hl,keypress(j),0,false,301653.40000000596,301653.2000000179,299847.174,300061.8000000119,299880.417,301464.007,1,40,22,
sequence,flow.Sequence,6_21,2023-11-17T17:41:59.681Z,,,,,,,,,,,1772.7830000178656,completion,,,,,,,high,low,,,,,,true,,,,,false,301653.8000000119,301653.2000000179,299847.174,300061.7000000179,299880.417,301464.007,1,40,,
trial,html.Screen,6_22_0,2023-11-17T17:42:01.528Z,,,,1,1.1117876838408909,1.2957497771092716,,,false,ll,2036.5930000238586,response,-1.5947156807053404,1.2,-1.2,-1.0785174776187512,1.2,-1.2,low,low,,ISIC_0061915.JPG,,ISIC_2454898.JPG,265,true,0.4500000000000003,lh,keypress(e),0,false,303500.8000000119,303500.60000002384,301447.099,301653.90000000596,301464.007,303313.774,1,40,23,
sequence,flow.Sequence,6_22,2023-11-17T17:42:01.529Z,,,,,,,,,,,2036.5930000238586,completion,,,,,,,low,low,,,,,,true,,,,,false,303501,303500.60000002384,301447.099,301653.90000000596,301464.007,303313.774,1,40,,
trial,html.Screen,6_23_0,2023-11-17T17:42:04.160Z,,,,1,1.168911077628813,-1.2181838235193114,,,true,lh,2818.6260000059847,response,-0.8472024037189965,1.2,-1.2,0.986370061404882,1.2,-1.2,low,high,,ISIC_7358691.JPG,,ISIC_0054355.JPG,26,true,0.4500000000000003,lh,keypress(e),0,false,306132.40000000596,306132.40000000596,303280.412,303501.10000002384,303313.774,305930.434,1,40,24,
sequence,flow.Sequence,6_23,2023-11-17T17:42:04.160Z,,,,,,,,,,,2818.6260000059847,completion,,,,,,,low,high,,,,,,true,,,,,false,306132.60000002384,306132.40000000596,303280.412,303501,303313.774,305930.434,1,40,,
trial,html.Screen,6_24_0,2023-11-17T17:42:06.842Z,,,,1,1.0685314915436992,-0.8203833713472237,,,true,lh,2883.3660000119125,response,-1.2578167348825195,1.2,-1.2,0.8371819698254004,1.2,-1.2,low,high,,ISIC_0029374.JPG,,ISIC_9613570.JPG,26,true,0.4500000000000003,lh,keypress(e),0,false,308814.2000000179,308813.8000000119,305913.839,306132.7000000179,305930.434,308613.777,1,40,25,
sequence,flow.Sequence,6_24,2023-11-17T17:42:06.842Z,,,,,,,,,,,2883.3660000119125,completion,,,,,,,low,high,,,,,,true,,,,,false,308814.8000000119,308813.8000000119,305913.839,306132.60000002384,305930.434,308613.777,1,40,,
trial,html.Screen,6_25_0,2023-11-17T17:42:08.225Z,,,,1,-1.199471562817528,0.8631260534979347,,,true,hl,1583.32300002384,response,0.9244148283103414,1.2,-1.2,-0.9712966348713286,1.2,-1.2,high,low,,ISIC_0030754.JPG,,ISIC_7927525.JPG,27,true,0.40000000000000024,hl,keypress(j),0,false,310197.40000000596,310197.10000002384,308597.284,308815,308613.777,309997.069,1,40,26,
sequence,flow.Sequence,6_25,2023-11-17T17:42:08.225Z,,,,,,,,,,,1583.32300002384,completion,,,,,,,high,low,,,,,,true,,,,,false,310197.7000000179,310197.10000002384,308597.284,308814.90000000596,308613.777,309997.069,1,40,,
trial,html.Screen,6_26_0,2023-11-17T17:42:09.577Z,,,,1,1.168911077628813,-1.2181838235193114,,,true,lh,1551.8310000059428,response,-1.0369885917487718,1.2,-1.2,0.8486937878412699,1.2,-1.2,low,high,,ISIC_7358691.JPG,,ISIC_6917681.JPG,26,true,0.4500000000000003,lh,keypress(e),0,false,311549.10000002384,311548.90000000596,309980.674,310197.90000000596,309997.069,311347.151,1,40,27,
sequence,flow.Sequence,6_26,2023-11-17T17:42:09.577Z,,,,,,,,,,,1551.8310000059428,completion,,,,,,,low,high,,,,,,true,,,,,false,311549.3000000119,311548.90000000596,309980.674,310197.8000000119,309997.069,311347.151,1,40,,
trial,html.Screen,6_27_0,2023-11-17T17:42:11.176Z,,,,1,1.2194553326562725,1.2381726989215684,,,true,ll,1801.249000005948,response,-0.8618587928964498,1.2,-1.2,-0.9138141165916164,1.2,-1.2,low,low,,ISIC_0068975.JPG,,ISIC_0004564.JPG,203,true,0.40000000000000024,ll,keypress(f),0,false,313148.60000002384,313148.40000000596,311330.589,311549.40000000596,311347.151,312963.788,1,40,28,
sequence,flow.Sequence,6_27,2023-11-17T17:42:11.176Z,,,,,,,,,,,1801.249000005948,completion,,,,,,,low,low,,,,,,true,,,,,false,313148.7000000179,313148.40000000596,311330.589,311549.3000000119,311347.151,312963.788,1,40,,
trial,html.Screen,6_28_0,2023-11-17T17:42:14.897Z,,,,1,-0.7518277461369444,1.3860759020802074,,,true,hl,3905.7119999999995,response,1.2594580992890123,1.2,-1.2,-0.8833175387485132,1.2,-1.2,high,low,,ISIC_7967397.JPG,,ISIC_0011933.JPG,27,true,0.40000000000000024,hl,keypress(j),0,false,316869.90000000596,316869.5,312930.42,313148.7000000179,312963.788,316680.434,1,40,29,
sequence,flow.Sequence,6_28,2023-11-17T17:42:14.898Z,,,,,,,,,,,3905.7119999999995,completion,,,,,,,high,low,,,,,,true,,,,,false,316870.3000000119,316869.5,312930.42,313148.7000000179,312963.788,316680.434,1,40,,
trial,html.Screen,6_29_0,2023-11-17T17:42:16.296Z,,,,1,1.0153439398566937,-0.93001438372942,,,true,lh,1588.266000017873,response,-1.058275612142778,1.2,-1.2,0.7824898568540655,1.2,-1.2,low,high,,ISIC_8211214.JPG,,ISIC_4906385.JPG,26,true,0.4500000000000003,lh,keypress(e),0,false,318268.8000000119,318268.7000000179,316663.71,316870.5,316680.434,318081.73,1,40,30,
sequence,flow.Sequence,6_29,2023-11-17T17:42:16.296Z,,,,,,,,,,,1588.266000017873,completion,,,,,,,low,high,,,,,,true,,,,,false,318269,318268.7000000179,316663.71,316870.5,316680.434,318081.73,1,40,,
trial,html.Screen,6_30_0,2023-11-17T17:42:17.880Z,,,,1,0.8067116931297591,-1.215898074058027,,,true,lh,1770.670000005979,response,-0.8926515927689261,1.2,-1.2,0.7935960767768927,1.2,-1.2,low,high,,ISIC_1457687.JPG,,ISIC_8901371.JPG,26,true,0.4500000000000003,lh,keypress(e),0,false,319852.60000002384,319852.40000000596,318047.158,318269,318081.73,319665.087,1,40,31,
sequence,flow.Sequence,6_30,2023-11-17T17:42:17.880Z,,,,,,,,,,,1770.670000005979,completion,,,,,,,low,high,,,,,,true,,,,,false,319852.7000000179,319852.40000000596,318047.158,318269,318081.73,319665.087,1,40,,
trial,html.Screen,6_31_0,2023-11-17T17:42:19.544Z,,,,1,-0.7991459998473059,1.0280788723474688,,,true,hl,1851.5130000238423,response,0.8350129142228142,1.2,-1.2,-0.8172547818270586,1.2,-1.2,high,low,,ISIC_7951202.JPG,,ISIC_0301568.JPG,27,true,0.40000000000000024,hl,keypress(j),0,false,321516.8000000119,321516.60000002384,319630.543,319852.8000000119,319665.087,321313.805,1,40,32,
sequence,flow.Sequence,6_31,2023-11-17T17:42:19.544Z,,,,,,,,,,,1851.5130000238423,completion,,,,,,,high,low,,,,,,true,,,,,false,321516.90000000596,321516.60000002384,319630.543,319852.7000000179,319665.087,321313.805,1,40,,
trial,html.Screen,6_32_0,2023-11-17T17:42:21.160Z,,,,1,1.1048559518249943,1.2252457981338687,,,true,ll,1818.5950000059674,response,-0.8687456578795454,1.2,-1.2,-1.3043706708552727,1.2,-1.2,low,low,,ISIC_0060817.JPG,,ISIC_4654443.JPG,265,true,0.4500000000000003,ll,keypress(f),0,false,323132.60000002384,323132.40000000596,321297.112,321517,321313.805,322930.468,1,40,33,
sequence,flow.Sequence,6_32,2023-11-17T17:42:21.160Z,,,,,,,,,,,1818.5950000059674,completion,,,,,,,low,low,,,,,,true,,,,,false,323132.7000000179,323132.40000000596,321297.112,321517,321313.805,322930.468,1,40,,
trial,html.Screen,6_33_0,2023-11-17T17:42:22.561Z,,,,1,-1.2246024683501224,-1.2904526351590244,,,true,hh,1603.0320000000065,response,1.236306205926646,1.2,-1.2,1.116612676102794,1.2,-1.2,high,high,,ISIC_4730066.JPG,,ISIC_0054341.JPG,30,true,0.13,hh,keypress(i),0,false,324533.8000000119,324533.5,322914.012,323132.8000000119,322930.468,324347.122,1,40,34,
sequence,flow.Sequence,6_33,2023-11-17T17:42:22.562Z,,,,,,,,,,,1603.0320000000065,completion,,,,,,,high,high,,,,,,true,,,,,false,324534.2000000179,324533.5,322914.012,323132.8000000119,322930.468,324347.122,1,40,,
trial,html.Screen,6_34_0,2023-11-17T17:42:25.409Z,,,,1,-0.7882758084023446,0.8296405881378283,,,true,hl,3033.878000000026,response,0.8867328775712738,1.2,-1.2,-1.0063426986460375,1.2,-1.2,high,low,,ISIC_0065882.JPG,,ISIC_0055759.JPG,27,true,0.40000000000000024,hl,keypress(j),0,false,327381.2000000179,327381,324313.782,324534.40000000596,324347.122,327180.445,1,40,35,
sequence,flow.Sequence,6_34,2023-11-17T17:42:25.409Z,,,,,,,,,,,3033.878000000026,completion,,,,,,,high,low,,,,,,true,,,,,false,327381.60000002384,327381,324313.782,324534.40000000596,324347.122,327180.445,1,40,,
trial,html.Screen,6_35_0,2023-11-17T17:42:26.816Z,,,,1,-1.1409143352872226,-1.1323007949069106,,,true,hh,1608.355000011914,response,1.1433456871226346,1.2,-1.2,0.8304418640175829,1.2,-1.2,high,high,,ISIC_0030291.JPG,,ISIC_0030798.JPG,359,true,0.4500000000000003,hh,keypress(i),0,false,328789,328788.8000000119,327163.781,327381.7000000179,327180.445,328597.171,1,40,36,
sequence,flow.Sequence,6_35,2023-11-17T17:42:26.817Z,,,,,,,,,,,1608.355000011914,completion,,,,,,,high,high,,,,,,true,,,,,false,328789.2000000179,328788.8000000119,327163.781,327381.7000000179,327180.445,328597.171,1,40,,
trial,html.Screen,6_36_0,2023-11-17T17:42:28.641Z,,,,1,-1.1843968275545205,-1.2828739728067764,,,false,hh,2015.7290000059875,response,1.219634566983089,1.2,-1.2,1.0648460966097275,1.2,-1.2,high,high,,ISIC_0002901.JPG,,ISIC_0030552.JPG,40,true,0.14,hl,keypress(j),0,false,330613.10000002384,330612.90000000596,328580.467,328789.40000000596,328597.171,330430.476,1,40,37,
sequence,flow.Sequence,6_36,2023-11-17T17:42:28.641Z,,,,,,,,,,,2015.7290000059875,completion,,,,,,,high,high,,,,,,true,,,,,false,330613.3000000119,330612.90000000596,328580.467,328789.40000000596,328597.171,330430.476,1,40,,
trial,html.Screen,6_37_0,2023-11-17T17:42:30.464Z,,,,1,-0.8926515927689261,0.7935960767768927,,,false,hl,2006.3240000118967,response,0.8544507134472948,1.2,-1.2,-0.9244388608707323,1.2,-1.2,high,low,,ISIC_8901371.JPG,,ISIC_3565564.JPG,27,true,0.40000000000000024,hh,keypress(i),0,false,332436.90000000596,332436.8000000119,330397.177,330613.40000000596,330430.476,332247.153,1,40,38,
sequence,flow.Sequence,6_37,2023-11-17T17:42:30.465Z,,,,,,,,,,,2006.3240000118967,completion,,,,,,,high,low,,,,,,true,,,,,false,332437.2000000179,332436.8000000119,330397.177,330613.3000000119,330430.476,332247.153,1,40,,
trial,html.Screen,6_38_0,2023-11-17T17:42:31.673Z,,,,1,1.0153439398566937,-0.93001438372942,,,true,lh,1397.9470000238507,response,-0.8513427412482127,1.2,-1.2,0.9295303568095064,1.2,-1.2,low,high,,ISIC_8211214.JPG,,ISIC_0034164.JPG,26,true,0.4500000000000003,lh,keypress(e),0,false,333645.3000000119,333645.10000002384,332230.582,332437.3000000119,332247.153,333447.214,1,40,39,
sequence,flow.Sequence,6_38,2023-11-17T17:42:31.673Z,,,,,,,,,,,1397.9470000238507,completion,,,,,,,low,high,,,,,,true,,,,,false,333645.7000000179,333645.10000002384,332230.582,332437.3000000119,332247.153,333447.214,1,40,,
trial,html.Screen,6_39_0,2023-11-17T17:42:36.416Z,,,,1,1.1746004947382946,1.2207657619249948,,,false,ll,4941.186000005982,response,-0.9159259992668974,1.2,-1.2,-1.264512568056258,1.2,-1.2,low,low,,ISIC_0012069.JPG,,ISIC_1258986.JPG,203,true,0.40000000000000024,hl,keypress(j),0,false,338388.60000002384,338388.40000000596,333430.635,333645.8000000119,333447.214,338197.185,1,40,40,
sequence,flow.Sequence,6_39,2023-11-17T17:42:36.416Z,,,,,,,,,,,4941.186000005982,completion,,,,,,,low,low,,,,,,true,,,,,false,338388.8000000119,338388.40000000596,333430.635,333645.8000000119,333447.214,338197.185,1,40,,
practice_loop,flow.Loop,6,2023-11-17T17:42:36.416Z,,,,,,,,,,,130024.77300000595,completion,,,,,,,,,,,,,,true,,,,,false,338388.90000000596,338388.40000000596,208330.47,208540.5,208363.627,338197.185,1,40,,
stair_instructions,html.Screen,7,2023-11-17T17:42:41.272Z,,,,,,,,,,,5046.615000011923,response,,,,,,,,,,,,,,,,continue,click button,,,343244.3000000119,343243.8000000119,338180.341,338389,338197.185,343047.163,,,,
trial,html.Screen,8_0_0,2023-11-17T17:42:56.112Z,,,,2,-0.0258224118104549,0.0029364553353019,,0.04,true,hl,15037.337,response,0.9089402323867112,1.2,-1.2,-0.8034544077281132,1.2,-1.2,high,low,,ISIC_8325226.JPG,,ISIC_3585381.JPG,27,false,0.40000000000000024,hl,keypress(j),0,true,358084.7000000179,358084.5,343030.656,343244.40000000596,343047.163,357897.2,1,40,1,
sequence,flow.Sequence,8_0,2023-11-17T17:42:56.113Z,,,,,,,,,,,15037.337,completion,,,,,,,high,low,,,,,,false,,,,,true,358085,358084.5,343030.656,343244.40000000596,343047.163,357897.2,1,40,,
trial,html.Screen,8_1_0,2023-11-17T17:43:01.176Z,,,,2,0.0388334549081915,-0.0303399972963369,,0.04,false,ll,5250.700000005949,response,-1.2219550761700546,1.15,-1.15,-1.2809901875733454,1.15,-1.15,low,low,,ISIC_4961708.JPG,,ISIC_6463417.JPG,27,false,0.14,hl,keypress(j),0,true,363148.10000002384,363147.90000000596,357880.555,358085.10000002384,357897.2,362963.855,1,40,2,
sequence,flow.Sequence,8_1,2023-11-17T17:43:01.176Z,,,,,,,,,,,5250.700000005949,completion,,,,,,,low,low,,,,,,false,,,,,true,363148.40000000596,363147.90000000596,357880.555,358085.10000002384,357897.2,362963.855,1,40,,
trial,html.Screen,8_2_0,2023-11-17T17:43:11.785Z,,,,2,0.039520186367207,0.0377961575607372,,0.04,false,lh,10793.3450000179,response,-1.199471562817528,1.15,-1.15,0.8631260534979347,1.15,-0.9922222976507291,low,high,,ISIC_6356149.JPG,,ISIC_0030754.JPG,26,false,0.40000000000000024,hh,keypress(i),0,true,373757.40000000596,373757.2000000179,362930.472,363148.60000002384,362963.855,373563.892,1,40,3,
sequence,flow.Sequence,8_2,2023-11-17T17:43:11.785Z,,,,,,,,,,,10793.3450000179,completion,,,,,,,low,high,,,,,,false,,,,,true,373757.7000000179,373757.2000000179,362930.472,363148.5,362963.855,373563.892,1,40,,
trial,html.Screen,8_3_0,2023-11-17T17:43:17.969Z,,,,2,-0.0119001144851157,0.0063430114540141,,0.04,false,hl,6377.408000011928,response,1.045301444872812,1.15,-1.15,-1.0872560254441277,1.15,-0.9922222976507291,high,low,,ISIC_0003822.JPG,,ISIC_4507700.JPG,26,false,0.28000000000000014,hh,keypress(i),0,true,379941.40000000596,379941.3000000119,373546.811,373757.90000000596,373563.892,379747.245,1,40,4,
sequence,flow.Sequence,8_3,2023-11-17T17:43:17.969Z,,,,,,,,,,,6377.408000011928,completion,,,,,,,high,low,,,,,,false,,,,,true,379941.8000000119,379941.3000000119,373546.811,373757.8000000119,373563.892,379747.245,1,40,,
trial,html.Screen,8_4_0,2023-11-17T17:43:23.217Z,,,,2,-0.0258224118104549,0.0029364553353019,,0.04,false,hh,5442.055000011926,response,0.9712921601561192,0.9042137491853732,-1.15,1.08279751862979,1.15,-1.0422222976507292,high,high,,ISIC_8325226.JPG,,ISIC_4049598.JPG,36,false,0.1,lh,keypress(e),0,true,385189.60000002384,385189.3000000119,379730.47,379941.90000000596,379747.245,384997.243,1,40,5,
sequence,flow.Sequence,8_4,2023-11-17T17:43:23.217Z,,,,,,,,,,,5442.055000011926,completion,,,,,,,high,high,,,,,,false,,,,,true,385190,385189.3000000119,379730.47,379941.90000000596,379747.245,384997.243,1,40,,
trial,html.Screen,8_5_0,2023-11-17T17:43:34.160Z,,,,2,-0.0009714874637896,0.0174815595031679,,0.04,false,lh,11135.557000011904,response,-0.930804711032185,0.9542137491853733,-1.15,0.7294067991476295,0.9229617860638624,-1.0422222976507292,low,high,,ISIC_9848743.JPG,,ISIC_5067317.JPG,26,false,0.28000000000000014,ll,keypress(f),0,true,396133,396132.8000000119,384980.427,385190.10000002384,384997.243,395930.529,1,40,6,
sequence,flow.Sequence,8_5,2023-11-17T17:43:34.161Z,,,,,,,,,,,11135.557000011904,completion,,,,,,,low,high,,,,,,false,,,,,true,396133.10000002384,396132.8000000119,384980.427,385190.10000002384,384997.243,395930.529,1,40,,
trial,html.Screen,8_6_0,2023-11-17T17:43:42.608Z,,,,2,0.0065172941585523,-0.0118857043117315,,0.04,true,ll,8649.97100000002,response,-1.033832433609739,0.9542137491853733,-1.15,-1.139863018685685,0.9729617860638624,-1.0422222976507292,low,low,,ISIC_6119202.JPG,,ISIC_0008510.JPG,29,false,0.13,ll,keypress(f),0,true,404580.60000002384,404580.5,395913.673,396133.2000000179,395930.529,404380.574,1,40,7,
sequence,flow.Sequence,8_6,2023-11-17T17:43:42.608Z,,,,,,,,,,,8649.97100000002,completion,,,,,,,low,low,,,,,,false,,,,,true,404580.8000000119,404580.5,395913.673,396133.2000000179,395930.529,404380.574,1,40,,
trial,html.Screen,8_7_0,2023-11-17T17:43:48.320Z,,,,2,-0.0367706518941078,0.0161069838272154,,0.04,false,hh,5912.126000017859,response,0.8654274202714607,0.9542137491853733,-1.036847726147712,0.943970373243474,0.9729617860638624,-1.0422222976507292,high,high,,ISIC_0033419.JPG,,ISIC_0011752.JPG,37,false,0.1,lh,keypress(e),0,true,410292.8000000119,410292.7000000179,404363.718,404580.90000000596,404380.574,410097.301,1,40,8,
sequence,flow.Sequence,8_7,2023-11-17T17:43:48.320Z,,,,,,,,,,,5912.126000017859,completion,,,,,,,high,high,,,,,,false,,,,,true,410292.90000000596,410292.7000000179,404363.718,404580.8000000119,404380.574,410097.301,1,40,,
trial,html.Screen,8_8_0,2023-11-17T17:44:00.049Z,,,,2,0.0388181790775959,-0.0049623405709465,,0.04,true,hh,11923.399000017904,response,0.9914647862586572,1.0042137491853733,-1.036847726147712,0.8837963869804757,0.9729617860638624,-1.0422222976507292,high,high,,ISIC_0061880.JPG,,ISIC_0068895.JPG,34,false,0.1,hh,keypress(i),0,true,422020.8000000119,422020.7000000179,410080.548,410292.90000000596,410097.301,421830.836,1,40,9,
sequence,flow.Sequence,8_8,2023-11-17T17:44:00.049Z,,,,,,,,,,,11923.399000017904,completion,,,,,,,high,high,,,,,,false,,,,,true,422020.90000000596,422020.7000000179,410080.548,410292.90000000596,410097.301,421830.836,1,40,,
trial,html.Screen,8_9_0,2023-11-17T17:44:11.898Z,,,,2,0.0109416414475118,0.005246498750811,,0.04,false,ll,12038.56400000595,response,-1.0325421457475312,1.0042137491853733,-1.036847726147712,-1.0219157566370058,0.8876305866195664,-1.0422222976507292,low,low,,ISIC_0064279.JPG,,ISIC_5336548.JPG,25,false,0.1,hl,keypress(j),0,true,433869.5,433869.40000000596,421813.484,422020.90000000596,421830.836,433680.749,1,40,10,
sequence,flow.Sequence,8_9,2023-11-17T17:44:11.898Z,,,,,,,,,,,12038.56400000595,completion,,,,,,,low,low,,,,,,false,,,,,true,433869.7000000179,433869.40000000596,421813.484,422020.90000000596,421830.836,433680.749,1,40,,
trial,html.Screen,8_10_0,2023-11-17T17:44:19.193Z,,,,2,,0.0102871556606504,,0.04,false,ll,7484.15100000595,response,-1.0795771850572986,1.0042137491853733,-1.086847726147712,-0.8992128581427353,0.8876305866195664,-0.9922222976507291,low,low,,ISIC_1805163.JPG,,ISIC_0563533.JPG,25,false,0.1,lh,keypress(e),0,true,441165,441164.90000000596,433663.54,433869.90000000596,433680.749,440963.962,1,40,11,
sequence,flow.Sequence,8_10,2023-11-17T17:44:19.193Z,,,,,,,,,,,7484.15100000595,completion,,,,,,,low,low,,,,,,false,,,,,true,441165.40000000596,441164.90000000596,433663.54,433869.8000000119,433680.749,440963.962,1,40,,
trial,html.Screen,8_11_0,2023-11-17T17:44:22.537Z,,,,2,-0.0286056110007553,-0.036125199756515,,0.04,false,ll,3544.938000005961,response,-1.0122348575830964,1.0042137491853733,-1.086847726147712,-1.007833368115011,0.8876305866195664,-1.0422222976507292,low,low,,ISIC_6535558.JPG,,ISIC_8145260.JPG,25,false,0.1,hl,keypress(j),0,true,444509,444508.90000000596,440947.201,441165.40000000596,440963.962,444313.988,1,40,12,
sequence,flow.Sequence,8_11,2023-11-17T17:44:22.537Z,,,,,,,,,,,3544.938000005961,completion,,,,,,,low,low,,,,,,false,,,,,true,444509.2000000179,444508.90000000596,440947.201,441165.40000000596,440963.962,444313.988,1,40,,
trial,html.Screen,8_12_0,2023-11-17T17:44:25.681Z,,,,2,-0.0257631352671967,-0.0202837002774028,,0.04,true,hl,3338.6120000238298,response,0.90812608370647,1.0042137491853733,-1.1368477261477121,-1.2720026872926935,0.8876305866195664,-1.0422222976507292,high,low,,ISIC_0032797.JPG,,ISIC_0450295.JPG,25,false,0.2300000000000001,hl,keypress(j),0,true,447652.60000002384,447652.60000002384,444297.307,444509.40000000596,444313.988,447464.574,1,40,13,
sequence,flow.Sequence,8_12,2023-11-17T17:44:25.681Z,,,,,,,,,,,3338.6120000238298,completion,,,,,,,high,low,,,,,,false,,,,,true,447652.8000000119,447652.60000002384,444297.307,444509.3000000119,444313.988,447464.574,1,40,,
trial,html.Screen,8_13_0,2023-11-17T17:44:30.273Z,,,,2,0.0065172941585523,-0.0118857043117315,,0.04,false,ll,4779.925999999978,response,-1.0325421457475312,0.9542137491853733,-1.1368477261477121,-1.0219157566370058,0.8876305866195664,-1.0899180277038523,low,low,,ISIC_6119202.JPG,,ISIC_5336548.JPG,29,false,0.13,hh,keypress(i),0,true,452244.7000000179,452244.5,447430.659,447652.90000000596,447464.574,452047.265,1,40,14,
sequence,flow.Sequence,8_13,2023-11-17T17:44:30.273Z,,,,,,,,,,,4779.925999999978,completion,,,,,,,low,low,,,,,,false,,,,,true,452244.8000000119,452244.5,447430.659,447652.8000000119,447464.574,452047.265,1,40,,
trial,html.Screen,8_14_0,2023-11-17T17:44:34.553Z,,,,2,-0.0118382036798625,-0.0300588245877227,,0.04,false,lh,4477.535000011907,response,-0.989300717252516,0.9542137491853733,-1.1868477261477122,0.7908280206937478,0.8876305866195664,-1.1399180277038523,low,high,,ISIC_4748605.JPG,,ISIC_6416533.JPG,27,false,0.30000000000000016,hl,keypress(j),0,true,456524.90000000596,456524.8000000119,452030.619,452244.90000000596,452047.265,456330.639,1,40,15,
sequence,flow.Sequence,8_14,2023-11-17T17:44:34.553Z,,,,,,,,,,,4477.535000011907,completion,,,,,,,low,high,,,,,,false,,,,,true,456525.10000002384,456524.8000000119,452030.619,452244.90000000596,452047.265,456330.639,1,40,,
trial,html.Screen,8_15_0,2023-11-17T17:44:36.721Z,,,,2,-0.0308384937406319,0.0038396364323947,,0.04,false,hh,2362.3609999999753,response,0.8724853443422199,0.9542137491853733,-1.1868477261477122,0.9014790323337478,0.9376305866195664,-1.1399180277038523,high,high,,ISIC_0029825.JPG,,ISIC_6278273.JPG,42,false,0.1,lh,keypress(e),0,true,458693.2000000179,458693,456313.862,456525.2000000179,456330.639,458497.327,1,40,16,
sequence,flow.Sequence,8_15,2023-11-17T17:44:36.721Z,,,,,,,,,,,2362.3609999999753,completion,,,,,,,high,high,,,,,,false,,,,,true,458693.40000000596,458693,456313.862,456525.2000000179,456330.639,458497.327,1,40,,
trial,html.Screen,8_16_0,2023-11-17T17:44:38.665Z,,,,2,-0.0044063257337227,-0.0172548282859886,,0.04,false,hh,2139.67300000001,response,1.0652791679295452,1.0042137491853733,-1.1868477261477122,0.8969509576221346,0.9376305866195664,-1.1399180277038523,high,high,,ISIC_7413786.JPG,,ISIC_0057655.JPG,35,false,0.1,lh,keypress(e),0,true,460637.2000000179,460637,458480.608,458693.5,458497.327,460447.353,1,40,17,
sequence,flow.Sequence,8_16,2023-11-17T17:44:38.666Z,,,,,,,,,,,2139.67300000001,completion,,,,,,,high,high,,,,,,false,,,,,true,460637.5,460637,458480.608,458693.5,458497.327,460447.353,1,40,,
trial,html.Screen,8_17_0,2023-11-17T17:44:49.217Z,,,,2,0.0388181790775959,-0.0049623405709465,,0.04,false,ll,10741.847000017879,response,-1.2541318165695772,1.0542137491853734,-1.1868477261477122,-1.085289936617366,0.8492149949779412,-1.1399180277038523,low,low,,ISIC_0061880.JPG,,ISIC_4277207.JPG,28,false,0.15000000000000002,hh,keypress(i),0,true,471189.5,471189.2000000179,460430.606,460637.60000002384,460447.353,470997.314,1,40,18,
sequence,flow.Sequence,8_17,2023-11-17T17:44:49.218Z,,,,,,,,,,,10741.847000017879,completion,,,,,,,low,low,,,,,,false,,,,,true,471189.7000000179,471189.2000000179,460430.606,460637.60000002384,460447.353,470997.314,1,40,,
trial,html.Screen,8_18_0,2023-11-17T17:44:51.329Z,,,,2,-0.0009714874637896,0.0174815595031679,,0.04,false,lh,2303.0860000059474,response,-0.9136649719060708,1.0542137491853734,-1.1868477261477122,0.6197574551927956,0.8492149949779412,-1.1899180277038524,low,high,,ISIC_9848743.JPG,,ISIC_6297317.JPG,26,false,0.28000000000000014,hh,keypress(i),0,true,473300.60000002384,473300.40000000596,470980.272,471189.8000000119,470997.314,473097.328,1,40,19,
sequence,flow.Sequence,8_18,2023-11-17T17:44:51.329Z,,,,,,,,,,,2303.0860000059474,completion,,,,,,,low,high,,,,,,false,,,,,true,473300.7000000179,473300.40000000596,470980.272,471189.8000000119,470997.314,473097.328,1,40,,
trial,html.Screen,8_19_0,2023-11-17T17:44:54.345Z,,,,2,-0.0200295718112167,-0.0155559071275806,,0.04,false,hh,3219.372000017902,response,1.1032422846943248,1.0542137491853734,-1.1868477261477122,0.8526017146535531,0.8492149949779412,-1.1899180277038524,high,high,,ISIC_0061343.JPG,,ISIC_0070170.JPG,34,false,0.1,lh,keypress(e),0,true,476316.90000000596,476316.7000000179,473080.642,473300.7000000179,473097.328,476114.025,1,40,20,
sequence,flow.Sequence,8_19,2023-11-17T17:44:54.345Z,,,,,,,,,,,3219.372000017902,completion,,,,,,,high,high,,,,,,false,,,,,true,476317.10000002384,476316.7000000179,473080.642,473300.7000000179,473097.328,476114.025,1,40,,
trial,html.Screen,8_20_0,2023-11-17T17:45:01.282Z,,,,2,-0.0118382036798625,-0.0300588245877227,,0.04,false,ll,7139.275000011898,response,-1.1684835186766898,1.1042137491853734,-1.1868477261477122,-1.2921331918483707,0.6861795849231742,-1.1899180277038524,low,low,,ISIC_4748605.JPG,,ISIC_5920470.JPG,25,false,0.15000000000000002,hh,keypress(i),0,true,483253.60000002384,483253.3000000119,476097.26,476317.2000000179,476114.025,483064.004,1,40,21,
sequence,flow.Sequence,8_20,2023-11-17T17:45:01.282Z,,,,,,,,,,,7139.275000011898,completion,,,,,,,low,low,,,,,,false,,,,,true,483253.8000000119,483253.3000000119,476097.26,476317.10000002384,476114.025,483064.004,1,40,,
trial,html.Screen,8_21_0,2023-11-17T17:45:15.297Z,,,,2,-0.0119001144851157,0.0063430114540141,,0.04,true,hl,14204.796000011906,response,0.7714570894008278,1.1042137491853734,-1.1868477261477122,-0.9113656554657036,0.6861795849231742,-1.1899180277038524,high,low,,ISIC_0003822.JPG,,ISIC_4529092.JPG,26,false,0.3500000000000002,hl,keypress(j),0,true,497268.90000000596,497268.8000000119,483047.33,483254,483064.004,497081.828,1,40,22,
sequence,flow.Sequence,8_21,2023-11-17T17:45:15.297Z,,,,,,,,,,,14204.796000011906,completion,,,,,,,high,low,,,,,,false,,,,,true,497269.10000002384,497268.8000000119,483047.33,483253.90000000596,483064.004,497081.828,1,40,,
trial,html.Screen,8_22_0,2023-11-17T17:45:30.601Z,,,,2,0.0109416414475118,0.005246498750811,,0.04,false,lh,15490.67200000002,response,-1.0794043929240107,1.1042137491853734,-1.1868477261477122,0.6422352972056817,0.6861795849231742,-1.1899180277038524,low,high,,ISIC_0064279.JPG,,ISIC_2106823.JPG,25,false,0.21000000000000008,hl,keypress(j),0,true,512572.60000002384,512572.5,497047.008,497269.2000000179,497081.828,512380.739,1,40,23,
sequence,flow.Sequence,8_22,2023-11-17T17:45:30.601Z,,,,,,,,,,,15490.67200000002,completion,,,,,,,low,high,,,,,,false,,,,,true,512572.7000000179,512572.5,497047.008,497269.2000000179,497081.828,512380.739,1,40,,
trial,html.Screen,8_23_0,2023-11-17T17:45:37.393Z,,,,2,-0.0258224118104549,0.0029364553353019,,0.04,true,hh,6983.760999999999,response,1.108725659461368,1.1042137491853734,-1.1868477261477122,0.7511273238958218,0.7361795849231743,-1.1899180277038524,high,high,,ISIC_8325226.JPG,,ISIC_0054954.JPG,34,false,0.1,hh,keypress(i),0,true,519364.60000002384,519364.5,512363.627,512572.8000000119,512380.739,519164.062,1,40,24,
sequence,flow.Sequence,8_23,2023-11-17T17:45:37.393Z,,,,,,,,,,,6983.760999999999,completion,,,,,,,high,high,,,,,,false,,,,,true,519364.8000000119,519364.5,512363.627,512572.8000000119,512380.739,519164.062,1,40,,
trial,html.Screen,8_24_0,2023-11-17T17:45:45.793Z,,,,2,0.0374659946425444,0.0086043094957617,,0.04,true,hl,8600.438000000024,response,0.9617893983965208,0.8799264916785948,-1.1868477261477122,-0.9453006131304652,0.7361795849231743,-1.1899180277038524,high,low,,ISIC_0033051.JPG,,ISIC_4229473.JPG,25,false,0.2600000000000001,hl,keypress(j),0,true,527764.5,527764.5,519147.319,519364.90000000596,519164.062,527564.08,1,40,25,
sequence,flow.Sequence,8_24,2023-11-17T17:45:45.793Z,,,,,,,,,,,8600.438000000024,completion,,,,,,,high,low,,,,,,false,,,,,true,527764.7000000179,527764.5,519147.319,519364.90000000596,519164.062,527564.08,1,40,,
trial,html.Screen,8_25_0,2023-11-17T17:45:51.698Z,,,,2,0.0164027439304477,-0.0082910758715273,,0.04,false,ll,6104.920000000042,response,-1.1441960791049337,0.8799264916785948,-1.1868477261477122,-1.0156321899655198,0.7361795849231743,-1.1399180277038523,low,low,,ISIC_7381224.JPG,,ISIC_4023381.JPG,28,false,0.15000000000000002,lh,keypress(e),0,true,533669.2000000179,533669,527547.331,527764.8000000119,527564.08,533480.765,1,40,26,
sequence,flow.Sequence,8_25,2023-11-17T17:45:51.698Z,,,,,,,,,,,6104.920000000042,completion,,,,,,,low,low,,,,,,false,,,,,true,533669.5,533669,527547.331,527764.7000000179,527564.08,533480.765,1,40,,
trial,html.Screen,8_26_0,2023-11-17T17:46:05.905Z,,,,2,-0.0119001144851157,0.0063430114540141,,0.04,false,lh,14395.935000017867,response,-1.2322936955292958,0.8799264916785948,-1.1868477261477122,0.5546398308274296,0.7361795849231743,-1.1899180277038524,low,high,,ISIC_0003822.JPG,,ISIC_4193253.JPG,25,false,0.2300000000000001,hh,keypress(i),0,true,547876.8000000119,547876.7000000179,533463.882,533669.7000000179,533480.765,547680.764,1,40,27,
sequence,flow.Sequence,8_26,2023-11-17T17:46:05.906Z,,,,,,,,,,,14395.935000017867,completion,,,,,,,low,high,,,,,,false,,,,,true,547876.900000006,547876.7000000179,533463.882,533669.6000000238,533480.765,547680.764,1,40,,
trial,html.Screen,8_27_0,2023-11-17T17:46:11.425Z,,,,2,0.039520186367207,0.0377961575607372,,0.04,true,hl,5715.636000005994,response,0.6545252668717846,0.8799264916785948,-1.1868477261477122,-1.2205481992327876,0.6861795849231742,-1.1899180277038524,high,low,,ISIC_6356149.JPG,,ISIC_9927221.JPG,25,false,0.2600000000000001,hl,keypress(j),0,true,553396.6000000238,553396.400000006,547663.688,547877,547680.764,553197.42,1,40,28,
sequence,flow.Sequence,8_27,2023-11-17T17:46:11.425Z,,,,,,,,,,,5715.636000005994,completion,,,,,,,high,low,,,,,,false,,,,,true,553396.7000000179,553396.400000006,547663.688,547877,547680.764,553197.42,1,40,,
trial,html.Screen,8_28_0,2023-11-17T17:46:17.290Z,,,,2,-0.0119001144851157,0.0063430114540141,,0.04,false,hl,6063.7800000178395,response,0.6688135136685576,0.8299264916785948,-1.1868477261477122,-1.2501710146339169,0.6861795849231742,-1.1899180277038524,high,low,,ISIC_0003822.JPG,,ISIC_9562442.JPG,27,false,0.2500000000000001,hh,keypress(i),0,true,559261.400000006,559261.2000000179,553180.739,553396.8000000119,553197.42,559064.117,1,40,29,
sequence,flow.Sequence,8_28,2023-11-17T17:46:17.290Z,,,,,,,,,,,6063.7800000178395,completion,,,,,,,high,low,,,,,,false,,,,,true,559261.7000000179,559261.2000000179,553180.739,553396.7000000179,553197.42,559064.117,1,40,,
trial,html.Screen,8_29_0,2023-11-17T17:46:28.386Z,,,,2,0.0374659946425444,0.0086043094957617,,0.04,false,hl,11293.183000011952,response,1.045301444872812,0.8299264916785948,-1.1868477261477122,-1.0872560254441277,0.6861795849231742,-1.1899180277038524,high,low,,ISIC_0033051.JPG,,ISIC_4507700.JPG,27,false,0.2500000000000001,hh,keypress(i),0,true,570357.5,570357.3000000119,559047.266,559261.900000006,559064.117,570164.086,1,40,30,
sequence,flow.Sequence,8_29,2023-11-17T17:46:28.387Z,,,,,,,,,,,11293.183000011952,completion,,,,,,,high,low,,,,,,false,,,,,true,570357.900000006,570357.3000000119,559047.266,559261.900000006,559064.117,570164.086,1,40,,
trial,html.Screen,8_30_0,2023-11-17T17:46:30.210Z,,,,2,0.0088741920055285,0.0058246074740588,,0.04,false,lh,2017.2140000119107,response,-1.166343097509157,0.8070574792706847,-1.1868477261477122,0.4853139037825953,0.6861795849231742,-1.1899180277038524,low,high,,ISIC_4136663.JPG,,ISIC_0030342.JPG,25,false,0.21000000000000008,hl,keypress(j),0,true,572181.5,572181.3000000119,570147.057,570358,570164.086,571997.492,1,40,31,
sequence,flow.Sequence,8_30,2023-11-17T17:46:30.211Z,,,,,,,,,,,2017.2140000119107,completion,,,,,,,low,high,,,,,,false,,,,,true,572181.8000000119,572181.3000000119,570147.057,570358,570164.086,571997.492,1,40,,
trial,html.Screen,8_31_0,2023-11-17T17:46:32.465Z,,,,2,0.0088741920055285,0.0058246074740588,,0.04,true,lh,2438.6080000238726,response,-1.1711869602302662,0.8070574792706847,-1.1868477261477122,0.7434626355969514,0.7361795849231743,-1.1899180277038524,low,high,,ISIC_4136663.JPG,,ISIC_0059052.JPG,25,false,0.2300000000000001,lh,keypress(e),0,true,574436.2000000179,574436.1000000238,571964.244,572182,571997.492,574248.226,1,40,32,
sequence,flow.Sequence,8_31,2023-11-17T17:46:32.465Z,,,,,,,,,,,2438.6080000238726,completion,,,,,,,low,high,,,,,,false,,,,,true,574436.3000000119,574436.1000000238,571964.244,572182,571997.492,574248.226,1,40,,
trial,html.Screen,8_32_0,2023-11-17T17:46:34.593Z,,,,2,-0.0220026381002083,0.0170756452911772,,0.04,false,hh,2316.474000017857,response,0.801432048150317,0.8070574792706847,-1.1868477261477122,0.6456957565564806,0.7361795849231743,-1.1899180277038524,high,high,,ISIC_5347806.JPG,,ISIC_0057016.JPG,51,false,0.1,hl,keypress(j),0,true,576564.8000000119,576564.7000000179,574214.169,574436.3000000119,574248.226,576364.146,1,40,33,
sequence,flow.Sequence,8_32,2023-11-17T17:46:34.594Z,,,,,,,,,,,2316.474000017857,completion,,,,,,,high,high,,,,,,false,,,,,true,576565,576564.7000000179,574214.169,574436.3000000119,574248.226,576364.146,1,40,,
trial,html.Screen,8_33_0,2023-11-17T17:46:36.250Z,,,,2,0.0374659946425444,0.0086043094957617,,0.04,false,lh,1857.2540000060108,response,-1.0369885917487718,0.8070574792706847,-1.1868477261477122,0.8486937878412699,0.7861795849231743,-1.1899180277038524,low,high,,ISIC_0033051.JPG,,ISIC_6917681.JPG,27,false,0.2500000000000001,hh,keypress(i),0,true,578221.6000000238,578221.400000006,576347.579,576565,576364.146,578030.872,1,40,34,
sequence,flow.Sequence,8_33,2023-11-17T17:46:36.251Z,,,,,,,,,,,1857.2540000060108,completion,,,,,,,low,high,,,,,,false,,,,,true,578222,578221.400000006,576347.579,576565,576364.146,578030.872,1,40,,
trial,html.Screen,8_34_0,2023-11-17T17:46:39.105Z,,,,2,-0.0308384937406319,0.0038396364323947,,0.04,false,hh,3045.8280000179075,response,0.7908195179596742,0.8070574792706847,-1.1868477261477122,0.846286768918253,0.7861795849231743,-1.1899180277038524,high,high,,ISIC_0029825.JPG,,ISIC_0033843.JPG,54,false,0.1,lh,keypress(e),0,true,581076.8000000119,581076.7000000179,578014.125,578222.2000000179,578030.872,580880.79,1,40,35,
sequence,flow.Sequence,8_34,2023-11-17T17:46:39.106Z,,,,,,,,,,,3045.8280000179075,completion,,,,,,,high,high,,,,,,false,,,,,true,581077.1000000238,581076.7000000179,578014.125,578222.1000000238,578030.872,580880.79,1,40,,
trial,html.Screen,8_35_0,2023-11-17T17:46:43.538Z,,,,2,-0.0257631352671967,-0.0202837002774028,,0.04,true,hl,4627.910000017844,response,0.90812608370647,0.8570574792706848,-1.1868477261477122,-1.2720026872926935,0.7974902783797615,-1.1899180277038524,high,low,,ISIC_0032797.JPG,,ISIC_0450295.JPG,27,false,0.2600000000000001,hl,keypress(j),0,true,585508.8000000119,585508.7000000179,580864.082,581077.2000000179,580880.79,585314.125,1,40,36,
sequence,flow.Sequence,8_35,2023-11-17T17:46:43.538Z,,,,,,,,,,,4627.910000017844,completion,,,,,,,high,low,,,,,,false,,,,,true,585509,585508.7000000179,580864.082,581077.1000000238,580880.79,585314.125,1,40,,
trial,html.Screen,8_36_0,2023-11-17T17:46:54.418Z,,,,2,-0.0200295718112167,-0.0155559071275806,,0.04,true,hh,11075.475000023842,response,0.9373876279903552,0.8570574792706848,-1.1868477261477122,0.8494489003914609,0.7974902783797615,-1.1899180277038524,high,high,,ISIC_0061343.JPG,,ISIC_2554114.JPG,48,false,0.1,hh,keypress(i),0,true,596389.8000000119,596389.6000000238,585297.438,585509.1000000238,585314.125,596197.511,1,40,37,
sequence,flow.Sequence,8_36,2023-11-17T17:46:54.419Z,,,,,,,,,,,11075.475000023842,completion,,,,,,,high,high,,,,,,false,,,,,true,596390.2000000179,596389.6000000238,585297.438,585509.1000000238,585314.125,596197.511,1,40,,
trial,html.Screen,8_37_0,2023-11-17T17:47:00.826Z,,,,2,0.0164027439304477,-0.0082910758715273,,0.04,true,lh,6599.389000005904,response,-1.2322936955292958,0.843418264190908,-1.1868477261477122,0.5546398308274296,0.7974902783797615,-1.1899180277038524,low,high,,ISIC_7381224.JPG,,ISIC_4193253.JPG,25,false,0.2500000000000001,lh,keypress(e),0,true,602797.1000000238,602796.900000006,596180.487,596390.400000006,596197.511,602597.536,1,40,38,
sequence,flow.Sequence,8_37,2023-11-17T17:47:00.826Z,,,,,,,,,,,6599.389000005904,completion,,,,,,,low,high,,,,,,false,,,,,true,602797.400000006,602796.900000006,596180.487,596390.3000000119,596197.511,602597.536,1,40,,
trial,html.Screen,8_38_0,2023-11-17T17:47:09.849Z,,,,2,-0.0118382036798625,-0.0300588245877227,,0.04,false,ll,9222.564000023878,response,-1.274752206258116,0.843418264190908,-1.1868477261477122,-1.2988509166163749,0.7474902783797615,-1.1899180277038524,low,low,,ISIC_4748605.JPG,,ISIC_6704623.JPG,25,false,0.15000000000000002,hl,keypress(j),0,true,611820.3000000119,611820.1000000238,602580.757,602797.5,602597.536,611630.805,1,40,39,
sequence,flow.Sequence,8_38,2023-11-17T17:47:09.849Z,,,,,,,,,,,9222.564000023878,completion,,,,,,,low,low,,,,,,false,,,,,true,611820.3000000119,611820.1000000238,602580.757,602797.5,602597.536,611630.805,1,40,,
trial,html.Screen,8_39_0,2023-11-17T17:47:15.305Z,,,,2,-0.0367744112927588,-0.0324865661712824,,0.04,true,hl,5645.694999999949,response,1.0116417541846066,0.843418264190908,-1.1868477261477122,-1.033442916947398,0.7474902783797615,-1.1655723060728351,high,low,,ISIC_4523565.JPG,,ISIC_0031389.JPG,26,false,0.2400000000000001,hl,keypress(j),0,true,617276.6000000238,617276.5,611613.879,611820.5,611630.805,617081.004,1,40,40,
sequence,flow.Sequence,8_39,2023-11-17T17:47:15.306Z,,,,,,,,,,,5645.694999999949,completion,,,,,,,high,low,,,,,,false,,,,,true,617276.7000000179,617276.5,611613.879,611820.400000006,611630.805,617081.004,1,40,,
stair_loop,flow.Loop,8,2023-11-17T17:47:15.306Z,,,,,,,,,,,274229.337,completion,,,,,,,,,,,,,,false,,,,,true,617276.8000000119,617276.5,343030.656,343244.40000000596,343047.163,617081.004,1,40,,
exp_instructions,html.Screen,9,2023-11-17T17:47:32.450Z,,,,,,,,,,,17339.696000017924,response,,,,,,,,,,,,,,,,continue,keypress(Space),,,634421.400000006,634420.7000000179,617064.136,617276.900000006,617081.004,634230.877,,,,
trial,html.Screen,10_0_0,2023-11-17T17:47:48.265Z,,,,1,0.039520186367207,0.0377961575607372,,0.04,,,15817.993000000017,timeout,-1.0369885917487718,0.893803554714029,-1.186847726147712,0.8486937878412699,0.734007258287321,-1.186200741622302,low,high,,ISIC_6356149.JPG,8,ISIC_6917681.JPG,25,false,0.2300000000000001,,,0,false,650236.1000000238,650235.900000006,634214.316,634421.7000000179,634230.877,650048.87,4,500,1,
break,html.Screen,10_0_1,2023-11-17T17:47:48.265Z,,,,,,,,,,,NaN,,,,,,,,low,high,,,,,,false,,,,,false,650236.6000000238,650236.5,,650236.2000000179,,650048.87,4,500,,
break_continue,html.Screen,10_0_2,2023-11-17T17:47:48.266Z,,,,,,,,,,,NaN,,,,,,,,low,high,,,,,,false,,,,,false,650237.1000000238,650236.8000000119,,650236.7000000179,,650048.87,4,500,,
sequence,flow.Sequence,10_0,2023-11-17T17:47:48.266Z,,,,,,,,,,,16005.923000011942,completion,,,,,,,low,high,,,,,,false,,,,,false,650237.3000000119,650236.8000000119,634214.316,634421.7000000179,634230.877,650048.87,4,500,,
trial,html.Screen,10_1_0,2023-11-17T17:47:55.383Z,,,,1,0.001445457736793,0.0165307427449982,,0.04,false,lh,7305.2300000238465,response,-0.9653573371180936,0.893803554714029,-1.186847726147712,0.854766800381037,0.734007258287321,-1.186200741622302,low,high,,ISIC_0027350.JPG,9,ISIC_9640145.JPG,25,false,0.2300000000000001,hh,keypress(i),0,false,657354.3000000119,657354.1000000238,650014.396,650237.400000006,650048.87,657164.306,4,500,2,
break,html.Screen,10_1_1,2023-11-17T17:47:55.384Z,,,,,,,,,,,NaN,,,,,,,,low,high,,,,,,false,,,,,false,657355.1000000238,657354.900000006,,657354.6000000238,,657164.306,4,500,,
break_continue,html.Screen,10_1_2,2023-11-17T17:47:55.384Z,,,,,,,,,,,NaN,,,,,,,,low,high,,,,,,false,,,,,false,657355.6000000238,657355.3000000119,,657355.3000000119,,657164.306,4,500,,
sequence,flow.Sequence,10_1,2023-11-17T17:47:55.385Z,,,,,,,,,,,7306.430000011926,completion,,,,,,,low,high,,,,,,false,,,,,false,657355.7000000179,657355.3000000119,650014.396,650237.400000006,650048.87,657164.306,4,500,,
trial,html.Screen,10_2_0,2023-11-17T17:48:01.699Z,,,,1,0.0074667911845194,-0.018500200317654,,0.04,false,hl,6505.194000000018,response,0.6546079444168281,0.893803554714029,-1.186847726147712,-1.1750459687878738,0.734007258287321,-1.186200741622302,high,low,,ISIC_0058723.JPG,8,ISIC_4352700.JPG,25,false,0.2600000000000001,hh,keypress(i),0,false,663669.900000006,663669.5,657147.32,657355.8000000119,657164.306,663480.913,4,500,3,
break,html.Screen,10_2_1,2023-11-17T17:48:01.700Z,,,,,,,,,,,NaN,,,,,,,,high,low,,,,,,false,,,,,false,663670.900000006,663670.6000000238,,663670.2000000179,,663480.913,4,500,,
break_continue,html.Screen,10_2_2,2023-11-17T17:48:01.701Z,,,,,,,,,,,NaN,,,,,,,,high,low,,,,,,false,,,,,false,663671.7000000179,663671.400000006,,663671.2000000179,,663480.913,4,500,,
sequence,flow.Sequence,10_2,2023-11-17T17:48:01.701Z,,,,,,,,,,,6507.094000005978,completion,,,,,,,high,low,,,,,,false,,,,,false,663672,663671.400000006,657147.32,657355.7000000179,657164.306,663480.913,4,500,,
trial,html.Screen,10_3_0,2023-11-17T17:48:10.323Z,,,,1,0.0374659946425444,0.0086043094957617,,0.04,true,hl,8812.487000006018,response,0.6545252668717846,0.893803554714029,-1.186847726147712,-1.2205481992327876,0.734007258287321,-1.186200741622302,high,low,,ISIC_0033051.JPG,10,ISIC_9927221.JPG,25,false,0.2600000000000001,hl,keypress(j),0,false,672293.6000000238,672293.400000006,663464.269,663672.2000000179,663480.913,672114.287,4,500,4,
break,html.Screen,10_3_1,2023-11-17T17:48:10.323Z,,,,,,,,,,,NaN,,,,,,,,high,low,,,,,,false,,,,,false,672294.400000006,672294.2000000179,,672293.8000000119,,672114.287,4,500,,
break_continue,html.Screen,10_3_2,2023-11-17T17:48:10.324Z,,,,,,,,,,,NaN,,,,,,,,high,low,,,,,,false,,,,,false,672295,672294.7000000179,,672294.6000000238,,672114.287,4,500,,
sequence,flow.Sequence,10_3,2023-11-17T17:48:10.324Z,,,,,,,,,,,8813.78700001794,completion,,,,,,,high,low,,,,,,false,,,,,false,672295.2000000179,672294.7000000179,663464.269,663672.2000000179,663480.913,672114.287,4,500,,
trial,html.Screen,10_4_0,2023-11-17T17:48:18.882Z,,,,1,0.0388181790775959,-0.0049623405709465,,0.04,false,lh,8738.51300001191,response,-1.203269031614007,0.893803554714029,-1.186847726147712,0.6961047103031557,0.734007258287321,-1.186200741622302,low,high,,ISIC_0061880.JPG,9,ISIC_0002639.JPG,25,false,0.2300000000000001,hl,keypress(j),0,false,680852.900000006,680852.8000000119,672080.811,672295.3000000119,672114.287,680680.981,4,500,5,
break,html.Screen,10_4_1,2023-11-17T17:48:18.882Z,,,,,,,,,,,NaN,,,,,,,,low,high,,,,,,false,,,,,false,680853.400000006,680853.400000006,,680853.2000000179,,680680.981,4,500,,
break_continue,html.Screen,10_4_2,2023-11-17T17:48:18.883Z,,,,,,,,,,,NaN,,,,,,,,low,high,,,,,,false,,,,,false,680853.8000000119,680853.7000000179,,680853.5,,680680.981,4,500,,
sequence,flow.Sequence,10_4,2023-11-17T17:48:18.883Z,,,,,,,,,,,8739.41300001787,completion,,,,,,,low,high,,,,,,false,,,,,false,680853.900000006,680853.7000000179,672080.811,672295.3000000119,672114.287,680680.981,4,500,,
trial,html.Screen,10_5_0,2023-11-17T17:48:23.539Z,,,,1,0.001445457736793,0.0165307427449982,,0.04,false,lh,4828.919000005932,response,-1.1711869602302662,0.893803554714029,-1.186847726147712,0.7434626355969514,0.734007258287321,-1.186200741622302,low,high,,ISIC_0027350.JPG,9,ISIC_0059052.JPG,25,false,0.2300000000000001,hh,keypress(i),0,false,685510.1000000238,685509.900000006,680664.505,680854.1000000238,680680.981,685314.356,4,500,6,
break,html.Screen,10_5_1,2023-11-17T17:48:23.540Z,,,,,,,,,,,NaN,,,,,,,,low,high,,,,,,false,,,,,false,685511.2000000179,685510.900000006,,685510.400000006,,685314.356,4,500,,
break_continue,html.Screen,10_5_2,2023-11-17T17:48:23.541Z,,,,,,,,,,,NaN,,,,,,,,low,high,,,,,,false,,,,,false,685512.1000000238,685511.7000000179,,685511.5,,685314.356,4,500,,
sequence,flow.Sequence,10_5,2023-11-17T17:48:23.541Z,,,,,,,,,,,4830.7190000178525,completion,,,,,,,low,high,,,,,,false,,,,,false,685512.400000006,685511.7000000179,680664.505,680854.1000000238,680680.981,685314.356,4,500,,
trial,html.Screen,10_6_0,2023-11-17T17:48:25.377Z,,,,1,-0.0257631352671967,-0.0202837002774028,,0.04,false,hh,2033.8440000178525,response,0.8008551215425942,0.893803554714029,-1.186847726147712,0.7774584068239597,0.734007258287321,-1.186200741622302,high,high,,ISIC_0032797.JPG,9,ISIC_0025904.JPG,56,false,0.1,ll,keypress(f),0,false,687348.3000000119,687348.2000000179,685297.694,685512.6000000238,685314.356,687147.624,4,500,7,
break,html.Screen,10_6_1,2023-11-17T17:48:25.378Z,,,,,,,,,,,NaN,,,,,,,,high,high,,,,,,false,,,,,false,687348.6000000238,687348.5,,687348.400000006,,687147.624,4,500,,
break_continue,html.Screen,10_6_2,2023-11-17T17:48:25.378Z,,,,,,,,,,,NaN,,,,,,,,high,high,,,,,,false,,,,,false,687348.8000000119,687348.7000000179,,687348.7000000179,,687147.624,4,500,,
sequence,flow.Sequence,10_6,2023-11-17T17:48:25.378Z,,,,,,,,,,,2034.3440000178525,completion,,,,,,,high,high,,,,,,false,,,,,false,687348.900000006,687348.7000000179,685297.694,685512.5,685314.356,687147.624,4,500,,
trial,html.Screen,10_7_0,2023-11-17T17:48:28.539Z,,,,1,-0.0009714874637896,0.0174815595031679,,0.04,false,lh,3361.776000006008,response,-1.0369885917487718,0.893803554714029,-1.186847726147712,0.8486937878412699,0.734007258287321,-1.186200741622302,low,high,,ISIC_9848743.JPG,10,ISIC_6917681.JPG,25,false,0.2300000000000001,hl,keypress(j),0,false,690509.7000000179,690509.400000006,687131.054,687348.900000006,687147.624,690314.352,4,500,8,
break,html.Screen,10_7_1,2023-11-17T17:48:28.540Z,,,,,,,,,,,NaN,,,,,,,,low,high,,,,,,false,,,,,false,690510.6000000238,690510.3000000119,,690510,,690314.352,4,500,,
break_continue,html.Screen,10_7_2,2023-11-17T17:48:28.540Z,,,,,,,,,,,NaN,,,,,,,,low,high,,,,,,false,,,,,false,690511.3000000119,690511.1000000238,,690510.900000006,,690314.352,4,500,,
sequence,flow.Sequence,10_7,2023-11-17T17:48:28.541Z,,,,,,,,,,,3363.4760000238894,completion,,,,,,,low,high,,,,,,false,,,,,false,690511.6000000238,690511.1000000238,687131.054,687348.900000006,687147.624,690314.352,4,500,,
trial,html.Screen,10_8_0,2023-11-17T17:48:30.891Z,,,,1,0.0088741920055285,0.0058246074740588,,0.04,false,hl,2547.048000006005,response,1.0788024398087033,0.893803554714029,-1.186847726147712,-0.9911875460374616,0.734007258287321,-1.186200741622302,high,low,,ISIC_4136663.JPG,9,ISIC_5951430.JPG,25,false,0.2600000000000001,lh,keypress(e),0,false,692861.7000000179,692861.400000006,690297.59,690511.7000000179,690314.352,692664.332,4,500,9,
break,html.Screen,10_8_1,2023-11-17T17:48:30.892Z,,,,,,,,,,,NaN,,,,,,,,high,low,,,,,,false,,,,,false,692862.6000000238,692862.400000006,,692862,,692664.332,4,500,,
break_continue,html.Screen,10_8_2,2023-11-17T17:48:30.892Z,,,,,,,,,,,NaN,,,,,,,,high,low,,,,,,false,,,,,false,692863.2000000179,692862.900000006,,692862.8000000119,,692664.332,4,500,,
sequence,flow.Sequence,10_8,2023-11-17T17:48:30.892Z,,,,,,,,,,,2548.548000006005,completion,,,,,,,high,low,,,,,,false,,,,,false,692863.5,692862.900000006,690297.59,690511.7000000179,690314.352,692664.332,4,500,,
trial,html.Screen,10_9_0,2023-11-17T17:48:32.889Z,,,,1,0.0199950873045219,0.0172506388509166,,0.04,false,lh,2196.0680000059074,response,-1.0794043929240107,0.893803554714029,-1.186847726147712,0.6422352972056817,0.734007258287321,-1.186200741622302,low,high,,ISIC_0029906.JPG,9,ISIC_2106823.JPG,25,false,0.2300000000000001,hh,keypress(i),0,false,694860.5,694860.400000006,692647.703,692863.6000000238,692664.332,694664.281,4,500,10,
break,html.Screen,10_9_1,2023-11-17T17:48:32.890Z,,,,,,,,,,,NaN,,,,,,,,low,high,,,,,,false,,,,,false,694860.8000000119,694860.7000000179,,694860.5,,694664.281,4,500,,
break_continue,html.Screen,10_9_2,2023-11-17T17:48:32.890Z,,,,,,,,,,,NaN,,,,,,,,low,high,,,,,,false,,,,,false,694861,694860.900000006,,694860.900000006,,694664.281,4,500,,
sequence,flow.Sequence,10_9,2023-11-17T17:48:32.890Z,,,,,,,,,,,2196.5680000059074,completion,,,,,,,low,high,,,,,,false,,,,,false,694861.1000000238,694860.900000006,692647.703,692863.5,692664.332,694664.281,4,500,,
trial,html.Screen,10_10_0,2023-11-17T17:48:48.686Z,,,,1,,0.0102871556606504,,0.04,,,15800.118000000017,timeout,0.9845012480258926,0.893803554714029,-1.186847726147712,0.7621333062555382,0.734007258287321,-1.186200741622302,high,high,,ISIC_1805163.JPG,8,ISIC_0071180.JPG,56,false,0.1,,,0,false,710656.7000000179,710656.400000006,694647.842,694861.1000000238,694664.281,710464.399,4,500,11,
break,html.Screen,10_10_1,2023-11-17T17:48:48.686Z,,,,,,,,,,,NaN,,,,,,,,high,high,,,,,,false,,,,,false,710657.400000006,710657.3000000119,,710656.900000006,,710464.399,4,500,,
break_continue,html.Screen,10_10_2,2023-11-17T17:48:48.687Z,,,,,,,,,,,NaN,,,,,,,,high,high,,,,,,false,,,,,false,710658,710657.7000000179,,710657.5,,710464.399,4,500,,
sequence,flow.Sequence,10_10,2023-11-17T17:48:48.687Z,,,,,,,,,,,15993.419000017922,completion,,,,,,,high,high,,,,,,false,,,,,false,710658.1000000238,710657.7000000179,694647.842,694861.1000000238,694664.281,710464.399,4,500,,
trial,html.Screen,10_11_0,2023-11-17T17:48:50.842Z,,,,1,0.0109416414475118,0.005246498750811,,0.04,true,hh,2348.601000000024,response,0.9845012480258926,0.893803554714029,-1.186847726147712,0.7621333062555382,0.734007258287321,-1.186200741622302,high,high,,ISIC_0064279.JPG,9,ISIC_0071180.JPG,56,false,0.1,hh,keypress(i),0,false,712813.2000000179,712813,710447.719,710658.2000000179,710464.399,712614.323,4,500,12,
break,html.Screen,10_11_1,2023-11-17T17:48:50.843Z,,,,,,,,,,,NaN,,,,,,,,high,high,,,,,,false,,,,,false,712813.900000006,712813.8000000119,,712813.400000006,,712614.323,4,500,,
break_continue,html.Screen,10_11_2,2023-11-17T17:48:50.843Z,,,,,,,,,,,NaN,,,,,,,,high,high,,,,,,false,,,,,false,712814.400000006,712814.2000000179,,712814,,712614.323,4,500,,
sequence,flow.Sequence,10_11,2023-11-17T17:48:50.844Z,,,,,,,,,,,2349.8010000179056,completion,,,,,,,high,high,,,,,,false,,,,,false,712814.5,712814.2000000179,710447.719,710658.2000000179,710464.399,712614.323,4,500,,
trial,html.Screen,10_12_0,2023-11-17T17:48:53.713Z,,,,1,,0.0102871556606504,,0.04,true,hh,3069.8770000179065,response,0.8137027730168936,0.893803554714029,-1.186847726147712,0.7771609347349258,0.734007258287321,-1.186200741622302,high,high,,ISIC_1805163.JPG,9,ISIC_7899041.JPG,56,false,0.1,hh,keypress(i),0,false,715684.3000000119,715684.2000000179,712597.617,712814.6000000238,712614.323,715480.988,4,500,13,
break,html.Screen,10_12_1,2023-11-17T17:48:53.714Z,,,,,,,,,,,NaN,,,,,,,,high,high,,,,,,false,,,,,false,715684.6000000238,715684.6000000238,,715684.400000006,,715480.988,4,500,,
break_continue,html.Screen,10_12_2,2023-11-17T17:48:53.714Z,,,,,,,,,,,NaN,,,,,,,,high,high,,,,,,false,,,,,false,715684.8000000119,715684.8000000119,,715684.8000000119,,715480.988,4,500,,
sequence,flow.Sequence,10_12,2023-11-17T17:48:53.714Z,,,,,,,,,,,3070.477000011946,completion,,,,,,,high,high,,,,,,false,,,,,false,715684.900000006,715684.8000000119,712597.617,712814.6000000238,712614.323,715480.988,4,500,,
trial,html.Screen,10_13_0,2023-11-17T17:49:00.907Z,,,,1,-0.0044063257337227,-0.0172548282859886,,0.04,false,hh,7396.212000017869,response,0.8330492069844534,0.893803554714029,-1.186847726147712,0.65616648623912,0.734007258287321,-1.186200741622302,high,high,,ISIC_7413786.JPG,10,ISIC_0033512.JPG,56,false,0.1,hl,keypress(j),0,false,722877.3000000119,722877.2000000179,715464.274,715684.900000006,715480.988,722680.974,4,500,14,
break,html.Screen,10_13_1,2023-11-17T17:49:00.907Z,,,,,,,,,,,NaN,,,,,,,,high,high,,,,,,false,,,,,false,722878.2000000179,722877.900000006,,722877.5,,722680.974,4,500,,
break_continue,html.Screen,10_13_2,2023-11-17T17:49:00.908Z,,,,,,,,,,,NaN,,,,,,,,high,high,,,,,,false,,,,,false,722878.6000000238,722878.400000006,,722878.2000000179,,722680.974,4,500,,
sequence,flow.Sequence,10_13,2023-11-17T17:49:00.908Z,,,,,,,,,,,7397.412000005948,completion,,,,,,,high,high,,,,,,false,,,,,false,722878.8000000119,722878.400000006,715464.274,715684.900000006,715480.988,722680.974,4,500,,
trial,html.Screen,10_14_0,2023-11-17T17:49:06.595Z,,,,1,-0.0119001144851157,0.0063430114540141,,0.04,true,hh,5884.126000023796,response,0.9354612477528912,0.893803554714029,-1.186847726147712,0.7310902828236168,0.734007258287321,-1.186200741622302,high,high,,ISIC_0003822.JPG,8,ISIC_0046900.JPG,56,false,0.1,hh,keypress(i),0,false,728565.3000000119,728565.1000000238,722664.393,722878.900000006,722680.974,728364.338,4,500,15,
break,html.Screen,10_14_1,2023-11-17T17:49:06.595Z,,,,,,,,,,,NaN,,,,,,,,high,high,,,,,,false,,,,,false,728566.1000000238,728565.900000006,,728565.6000000238,,728364.338,4,500,,
break_continue,html.Screen,10_14_2,2023-11-17T17:49:06.596Z,,,,,,,,,,,NaN,,,,,,,,high,high,,,,,,false,,,,,false,728566.8000000119,728566.5,,728566.400000006,,728364.338,4,500,,
sequence,flow.Sequence,10_14,2023-11-17T17:49:06.596Z,,,,,,,,,,,5885.525999999954,completion,,,,,,,high,high,,,,,,false,,,,,false,728567,728566.5,722664.393,722878.8000000119,722680.974,728364.338,4,500,,
trial,html.Screen,10_15_0,2023-11-17T17:49:11.514Z,,,,1,-0.0044063257337227,-0.0172548282859886,,0.04,true,lh,5120.662000000011,response,-1.058275612142778,0.893803554714029,-1.186847726147712,0.7824898568540655,0.734007258287321,-1.186200741622302,low,high,,ISIC_7413786.JPG,8,ISIC_4906385.JPG,25,false,0.2300000000000001,lh,keypress(e),0,false,733485.1000000238,733485,728347.582,728567.1000000238,728364.338,733281.034,4,500,16,
break,html.Screen,10_15_1,2023-11-17T17:49:11.515Z,,,,,,,,,,,NaN,,,,,,,,low,high,,,,,,false,,,,,false,733485.8000000119,733485.6000000238,,733485.3000000119,,733281.034,4,500,,
break_continue,html.Screen,10_15_2,2023-11-17T17:49:11.515Z,,,,,,,,,,,NaN,,,,,,,,low,high,,,,,,false,,,,,false,733486.1000000238,733485.900000006,,733485.900000006,,733281.034,4,500,,
sequence,flow.Sequence,10_15,2023-11-17T17:49:11.516Z,,,,,,,,,,,5121.562000005972,completion,,,,,,,low,high,,,,,,false,,,,,false,733486.3000000119,733485.900000006,728347.582,728567.1000000238,728364.338,733281.034,4,500,,
trial,html.Screen,10_16_0,2023-11-17T17:49:16.386Z,,,,1,,0.0102871556606504,,0.04,true,ll,5075.866000005975,response,-1.0659165756604234,0.893803554714029,-1.186847726147712,-1.0867497316848906,0.734007258287321,-1.186200741622302,low,low,,ISIC_1805163.JPG,10,ISIC_5807608.JPG,25,false,0.15000000000000002,ll,keypress(f),0,false,738357,738356.900000006,733264.299,733486.3000000119,733281.034,738164.509,4,500,17,
break,html.Screen,10_16_1,2023-11-17T17:49:16.387Z,,,,,,,,,,,NaN,,,,,,,,low,low,,,,,,false,,,,,false,738357.3000000119,738357.3000000119,,738357.1000000238,,738164.509,4,500,,
break_continue,html.Screen,10_16_2,2023-11-17T17:49:16.387Z,,,,,,,,,,,NaN,,,,,,,,low,low,,,,,,false,,,,,false,738357.5,738357.400000006,,738357.400000006,,738164.509,4,500,,
sequence,flow.Sequence,10_16,2023-11-17T17:49:16.387Z,,,,,,,,,,,5076.366000005975,completion,,,,,,,low,low,,,,,,false,,,,,false,738357.6000000238,738357.400000006,733264.299,733486.3000000119,733281.034,738164.509,4,500,,
trial,html.Screen,10_17_0,2023-11-17T17:49:22.066Z,,,,1,0.0065172941585523,-0.0118857043117315,,0.04,true,hh,5872.291000011959,response,0.8170619657474234,0.893803554714029,-1.186847726147712,0.6850201694449414,0.734007258287321,-1.186200741622302,high,high,,ISIC_6119202.JPG,9,ISIC_0054422.JPG,56,false,0.1,hh,keypress(i),0,false,744036.900000006,744036.8000000119,738147.693,738357.6000000238,738164.509,743847.766,4,500,18,
break,html.Screen,10_17_1,2023-11-17T17:49:22.067Z,,,,,,,,,,,NaN,,,,,,,,high,high,,,,,,false,,,,,false,744037.3000000119,744037.3000000119,,744037.1000000238,,743847.766,4,500,,
break_continue,html.Screen,10_17_2,2023-11-17T17:49:22.067Z,,,,,,,,,,,NaN,,,,,,,,high,high,,,,,,false,,,,,false,744037.5,744037.400000006,,744037.3000000119,,743847.766,4,500,,
sequence,flow.Sequence,10_17,2023-11-17T17:49:22.067Z,,,,,,,,,,,5872.891000005999,completion,,,,,,,high,high,,,,,,false,,,,,false,744037.6000000238,744037.400000006,738147.693,738357.6000000238,738164.509,743847.766,4,500,,
trial,html.Screen,10_18_0,2023-11-17T17:49:24.075Z,,,,1,0.001445457736793,0.0165307427449982,,0.04,true,ll,2197.734000000055,response,-1.0943527860463682,0.893803554714029,-1.186847726147712,-1.124481746658104,0.734007258287321,-1.186200741622302,low,low,,ISIC_0027350.JPG,10,ISIC_0438136.JPG,25,false,0.15000000000000002,ll,keypress(f),0,false,746045.8000000119,746045.5,743830.986,744037.7000000179,743847.766,745847.701,4,500,19,
break,html.Screen,10_18_1,2023-11-17T17:49:24.076Z,,,,,,,,,,,NaN,,,,,,,,low,low,,,,,,false,,,,,false,746046.7000000179,746046.5,,746046.1000000238,,745847.701,4,500,,
break_continue,html.Screen,10_18_2,2023-11-17T17:49:24.077Z,,,,,,,,,,,NaN,,,,,,,,low,low,,,,,,false,,,,,false,746047.400000006,746047.1000000238,,746046.900000006,,745847.701,4,500,,
sequence,flow.Sequence,10_18,2023-11-17T17:49:24.077Z,,,,,,,,,,,2199.334000023897,completion,,,,,,,low,low,,,,,,false,,,,,false,746047.7000000179,746047.1000000238,743830.986,744037.6000000238,743847.766,745847.701,4,500,,
trial,html.Screen,10_19_0,2023-11-17T17:49:25.746Z,,,,1,-0.0367744112927588,-0.0324865661712824,,0.04,false,hh,1868.6990000059595,response,0.9602936946729488,0.893803554714029,-1.186847726147712,0.747034716272411,0.734007258287321,-1.186200741622302,high,high,,ISIC_4523565.JPG,9,ISIC_0205127.JPG,56,false,0.1,hl,keypress(j),0,false,747716.5,747716.400000006,745831.199,746047.8000000119,745847.701,747514.372,4,500,20,
break,html.Screen,10_19_1,2023-11-17T17:49:25.746Z,,,,,,,,,,,NaN,,,,,,,,high,high,,,,,,false,,,,,false,747716.8000000119,747716.7000000179,,747716.6000000238,,747514.372,4,500,,
break_continue,html.Screen,10_19_2,2023-11-17T17:49:25.746Z,,,,,,,,,,,NaN,,,,,,,,high,high,,,,,,false,,,,,false,747717.1000000238,747716.900000006,,747716.900000006,,747514.372,4,500,,
sequence,flow.Sequence,10_19,2023-11-17T17:49:25.746Z,,,,,,,,,,,1869.1990000059595,completion,,,,,,,high,high,,,,,,false,,,,,false,747717.1000000238,747716.900000006,745831.199,746047.8000000119,745847.701,747514.372,4,500,,
trial,html.Screen,10_20_0,2023-11-17T17:49:27.810Z,,,,1,-0.0220026381002083,0.0170756452911772,,0.04,false,hh,2266.628000000026,response,0.9522933323146734,0.893803554714029,-1.186847726147712,0.7143840288172854,0.734007258287321,-1.186200741622302,high,high,,ISIC_5347806.JPG,9,ISIC_0011349.JPG,56,false,0.1,lh,keypress(e),0,false,749781,749781,747497.875,747717.2000000179,747514.372,749581.053,4,500,21,
break,html.Screen,10_20_1,2023-11-17T17:49:27.811Z,,,,,,,,,,,NaN,,,,,,,,high,high,,,,,,false,,,,,false,749781.6000000238,749781.5,,749781.3000000119,,749581.053,4,500,,
break_continue,html.Screen,10_20_2,2023-11-17T17:49:27.811Z,,,,,,,,,,,NaN,,,,,,,,high,high,,,,,,false,,,,,false,749782,749781.8000000119,,749781.7000000179,,749581.053,4,500,,
sequence,flow.Sequence,10_20,2023-11-17T17:49:27.811Z,,,,,,,,,,,2267.428000011947,completion,,,,,,,high,high,,,,,,false,,,,,false,749782.1000000238,749781.8000000119,747497.875,747717.1000000238,747514.372,749581.053,4,500,,
trial,html.Screen,10_21_0,2023-11-17T17:49:36.956Z,,,,1,-0.0119001144851157,0.0063430114540141,,0.04,false,lh,9345.047000023886,response,-1.1898494014853933,0.893803554714029,-1.186847726147712,0.7016654052924971,0.734007258287321,-1.186200741622302,low,high,,ISIC_0003822.JPG,9,ISIC_6324832.JPG,25,false,0.2300000000000001,ll,keypress(f),0,false,758926.400000006,758926.1000000238,749564.508,749782.2000000179,749581.053,758747.729,4,500,22,
break,html.Screen,10_21_1,2023-11-17T17:49:36.957Z,,,,,,,,,,,NaN,,,,,,,,low,high,,,,,,false,,,,,false,758927.8000000119,758927.5,,758926.900000006,,758747.729,4,500,,
break_continue,html.Screen,10_21_2,2023-11-17T17:49:36.958Z,,,,,,,,,,,NaN,,,,,,,,low,high,,,,,,false,,,,,false,758928.7000000179,758928.2000000179,,758928,,758747.729,4,500,,
sequence,flow.Sequence,10_21,2023-11-17T17:49:36.958Z,,,,,,,,,,,9347.147000017925,completion,,,,,,,low,high,,,,,,false,,,,,false,758929,758928.2000000179,749564.508,749782.2000000179,749581.053,758747.729,4,500,,
trial,html.Screen,10_22_0,2023-11-17T17:49:42.402Z,,,,1,-0.0286056110007553,-0.036125199756515,,0.04,true,hl,5625.27099999995,response,0.6493357552537865,0.893803554714029,-1.186847726147712,-1.085710894474977,0.734007258287321,-1.186200741622302,high,low,,ISIC_6535558.JPG,9,ISIC_0013644.JPG,25,false,0.2600000000000001,hl,keypress(j),0,false,764373.2000000179,764373,758714.458,758929.2000000179,758747.729,764181.105,4,500,23,
break,html.Screen,10_22_1,2023-11-17T17:49:42.403Z,,,,,,,,,,,NaN,,,,,,,,high,low,,,,,,false,,,,,false,764373.900000006,764373.7000000179,,764373.5,,764181.105,4,500,,
break_continue,html.Screen,10_22_2,2023-11-17T17:49:42.404Z,,,,,,,,,,,NaN,,,,,,,,high,low,,,,,,false,,,,,false,764374.6000000238,764374.3000000119,,764374.1000000238,,764181.105,4,500,,
sequence,flow.Sequence,10_22,2023-11-17T17:49:42.404Z,,,,,,,,,,,5626.571000011871,completion,,,,,,,high,low,,,,,,false,,,,,false,764374.7000000179,764374.3000000119,758714.458,758929.2000000179,758747.729,764181.105,4,500,,
trial,html.Screen,10_23_0,2023-11-17T17:49:48.275Z,,,,1,0.0241900387072296,-0.0339955304424736,,0.04,false,ll,6064.19500001194,response,-1.252716660627398,0.893803554714029,-1.186847726147712,-1.183977080937476,0.734007258287321,-1.186200741622302,low,low,,ISIC_0010789.JPG,9,ISIC_0034194.JPG,25,false,0.15000000000000002,hh,keypress(i),0,false,770245.400000006,770245.3000000119,764164.285,764374.900000006,764181.105,770047.679,4,500,24,
break,html.Screen,10_23_1,2023-11-17T17:49:48.275Z,,,,,,,,,,,NaN,,,,,,,,low,low,,,,,,false,,,,,false,770246.2000000179,770246,,770245.7000000179,,770047.679,4,500,,
break_continue,html.Screen,10_23_2,2023-11-17T17:49:48.276Z,,,,,,,,,,,NaN,,,,,,,,low,low,,,,,,false,,,,,false,770246.7000000179,770246.5,,770246.3000000119,,770047.679,4,500,,
sequence,flow.Sequence,10_23,2023-11-17T17:49:48.276Z,,,,,,,,,,,6065.395000000019,completion,,,,,,,low,low,,,,,,false,,,,,false,770246.900000006,770246.5,764164.285,764374.8000000119,764181.105,770047.679,4,500,,
trial,html.Screen,10_24_0,2023-11-17T17:49:52.026Z,,,,1,-0.0286056110007553,-0.036125199756515,,0.04,false,hh,3948.621000011917,response,0.9602936946729488,0.893803554714029,-1.186847726147712,0.747034716272411,0.734007258287321,-1.186200741622302,high,high,,ISIC_6535558.JPG,9,ISIC_0205127.JPG,56,false,0.1,hl,keypress(j),0,false,773996.5,773996.3000000119,770031.066,770247,770047.679,773797.751,4,500,25,
break,html.Screen,10_24_1,2023-11-17T17:49:52.026Z,,,,,,,,,,,NaN,,,,,,,,high,high,,,,,,false,,,,,false,773996.8000000119,773996.8000000119,,773996.6000000238,,773797.751,4,500,,
break_continue,html.Screen,10_24_2,2023-11-17T17:49:52.026Z,,,,,,,,,,,NaN,,,,,,,,high,high,,,,,,false,,,,,false,773997,773997,,773996.8000000119,,773797.751,4,500,,
sequence,flow.Sequence,10_24,2023-11-17T17:49:52.026Z,,,,,,,,,,,3949.3209999999963,completion,,,,,,,high,high,,,,,,false,,,,,false,773997,773997,770031.066,770247,770047.679,773797.751,4,500,,
trial,html.Screen,10_25_0,2023-11-17T17:49:57.738Z,,,,1,-0.0286056110007553,-0.036125199756515,,0.04,false,lh,5910.849000023794,response,-1.1898494014853933,0.893803554714029,-1.186847726147712,0.7016654052924971,0.734007258287321,-1.186200741622302,low,high,,ISIC_6535558.JPG,9,ISIC_6324832.JPG,25,false,0.2300000000000001,hl,keypress(j),0,false,779708.6999999881,779708.6000000238,773780.99,773997.1000000238,773797.751,779514.411,4,500,26,
break,html.Screen,10_25_1,2023-11-17T17:49:57.738Z,,,,,,,,,,,NaN,,,,,,,,low,high,,,,,,false,,,,,false,779709,779709,,779708.8000000119,,779514.411,4,500,,
break_continue,html.Screen,10_25_2,2023-11-17T17:49:57.739Z,,,,,,,,,,,NaN,,,,,,,,low,high,,,,,,false,,,,,false,779709.3000000119,779709.1999999881,,779709.1000000238,,779514.411,4,500,,
sequence,flow.Sequence,10_25,2023-11-17T17:49:57.739Z,,,,,,,,,,,5911.448999988032,completion,,,,,,,low,high,,,,,,false,,,,,false,779709.3000000119,779709.1999999881,773780.99,773997.1000000238,773797.751,779514.411,4,500,,
trial,html.Screen,10_26_0,2023-11-17T17:50:13.541Z,,,,1,,0.0102871556606504,,0.04,,,15816.716000000015,timeout,-1.0453124399868816,0.893803554714029,-1.186847726147712,0.8986747280184286,0.734007258287321,-1.186200741622302,low,high,,ISIC_1805163.JPG,9,ISIC_0013967.JPG,25,false,0.2300000000000001,,,0,false,795511.6999999881,795511.5,779497.687,779709.4000000358,779514.411,795331.127,4,500,27,
break,html.Screen,10_26_1,2023-11-17T17:50:13.542Z,,,,,,,,,,,NaN,,,,,,,,low,high,,,,,,false,,,,,false,795512.6999999881,795512.5,,795512.1000000238,,795331.127,4,500,,
break_continue,html.Screen,10_26_2,2023-11-17T17:50:13.543Z,,,,,,,,,,,NaN,,,,,,,,low,high,,,,,,false,,,,,false,795513.3000000119,795513,,795512.8000000119,,795331.127,4,500,,
sequence,flow.Sequence,10_26,2023-11-17T17:50:13.543Z,,,,,,,,,,,15998.589000000036,completion,,,,,,,low,high,,,,,,false,,,,,false,795513.5,795513,779497.687,779709.4000000358,779514.411,795331.127,4,500,,
trial,html.Screen,10_27_0,2023-11-17T17:50:21.651Z,,,,1,0.0241900387072296,-0.0339955304424736,,0.04,true,hl,8289.873000000021,response,1.0153439398566937,0.893803554714029,-1.186847726147712,-0.93001438372942,0.734007258287321,-1.186200741622302,high,low,,ISIC_0010789.JPG,9,ISIC_8211214.JPG,25,false,0.2600000000000001,hl,keypress(j),0,false,803621.1999999881,803621,795298.035,795513.6000000238,795331.127,803431.084,4,500,28,
break,html.Screen,10_27_1,2023-11-17T17:50:21.651Z,,,,,,,,,,,NaN,,,,,,,,high,low,,,,,,false,,,,,false,803621.8000000119,803621.6000000238,,803621.4000000358,,803431.084,4,500,,
break_continue,html.Screen,10_27_2,2023-11-17T17:50:21.652Z,,,,,,,,,,,NaN,,,,,,,,high,low,,,,,,false,,,,,false,803622.3000000119,803622.1999999881,,803621.9000000358,,803431.084,4,500,,
sequence,flow.Sequence,10_27,2023-11-17T17:50:21.652Z,,,,,,,,,,,8291.0729999881,completion,,,,,,,high,low,,,,,,false,,,,,false,803622.9000000358,803622.1999999881,795298.035,795513.6000000238,795331.127,803431.084,4,500,,
trial,html.Screen,10_28_0,2023-11-17T17:50:26.162Z,,,,1,0.0374659946425444,0.0086043094957617,,0.04,false,ll,4701.615999988047,response,-1.3246728710248594,0.893803554714029,-1.186847726147712,-1.1527736000922424,0.734007258287321,-1.186200741622302,low,low,,ISIC_0033051.JPG,9,ISIC_6876281.JPG,25,false,0.15000000000000002,hl,keypress(j),0,false,808132.9000000358,808132.6999999881,803414.129,803622.9000000358,803431.084,807931.112,4,500,29,
break,html.Screen,10_28_1,2023-11-17T17:50:26.163Z,,,,,,,,,,,NaN,,,,,,,,low,low,,,,,,false,,,,,false,808133.4000000358,808133.3000000119,,808133,,807931.112,4,500,,
break_continue,html.Screen,10_28_2,2023-11-17T17:50:26.163Z,,,,,,,,,,,NaN,,,,,,,,low,low,,,,,,false,,,,,false,808133.8000000119,808133.6000000238,,808133.5,,807931.112,4,500,,
sequence,flow.Sequence,10_28,2023-11-17T17:50:26.163Z,,,,,,,,,,,4702.51600002381,completion,,,,,,,low,low,,,,,,false,,,,,false,808134,808133.6000000238,803414.129,803622.9000000358,803431.084,807931.112,4,500,,
trial,html.Screen,10_29_0,2023-11-17T17:50:31.539Z,,,,1,-0.0044063257337227,-0.0172548282859886,,0.04,false,hh,5577.688000011956,response,0.9602936946729488,0.893803554714029,-1.186847726147712,0.747034716272411,0.734007258287321,-1.186200741622302,high,high,,ISIC_7413786.JPG,9,ISIC_0205127.JPG,56,false,0.1,hl,keypress(j),0,false,813509,813508.8000000119,807914.366,808134,807931.112,813314.473,4,500,30,
break,html.Screen,10_29_1,2023-11-17T17:50:31.539Z,,,,,,,,,,,NaN,,,,,,,,high,high,,,,,,false,,,,,false,813509.5,813509.4000000358,,813509.1999999881,,813314.473,4,500,,
break_continue,html.Screen,10_29_2,2023-11-17T17:50:31.539Z,,,,,,,,,,,NaN,,,,,,,,high,high,,,,,,false,,,,,false,813509.8000000119,813509.6999999881,,813509.5,,813314.473,4,500,,
sequence,flow.Sequence,10_29,2023-11-17T17:50:31.539Z,,,,,,,,,,,5578.5879999881145,completion,,,,,,,high,high,,,,,,false,,,,,false,813509.9000000358,813509.6999999881,807914.366,808134,807931.112,813314.473,4,500,,
trial,html.Screen,10_30_0,2023-11-17T17:50:47.332Z,,,,1,-0.0118382036798625,-0.0300588245877227,,0.04,,,15800.787000000011,timeout,-0.9601922181563564,0.893803554714029,-1.186847726147712,0.5629017109001282,0.734007258287321,-1.186200741622302,low,high,,ISIC_4748605.JPG,9,ISIC_3623368.JPG,25,false,0.2300000000000001,,,0,false,829302.3000000119,829302.1000000238,813297.893,813510,813314.473,829115.26,4,500,31,
break,html.Screen,10_30_1,2023-11-17T17:50:47.332Z,,,,,,,,,,,NaN,,,,,,,,low,high,,,,,,false,,,,,false,829302.9000000358,829302.6999999881,,829302.5,,829115.26,4,500,,
break_continue,html.Screen,10_30_2,2023-11-17T17:50:47.333Z,,,,,,,,,,,NaN,,,,,,,,low,high,,,,,,false,,,,,false,829303.3000000119,829303.1999999881,,829303,,829115.26,4,500,,
sequence,flow.Sequence,10_30,2023-11-17T17:50:47.333Z,,,,,,,,,,,15988.726999988081,completion,,,,,,,low,high,,,,,,false,,,,,false,829303.5,829303.1999999881,813297.893,813510,813314.473,829115.26,4,500,,
trial,html.Screen,10_31_0,2023-11-17T17:50:51.299Z,,,,1,-0.0009714874637896,0.0174815595031679,,0.04,false,ll,4153.8400000238325,response,-1.3246728710248594,0.893803554714029,-1.186847726147712,-1.1527736000922424,0.734007258287321,-1.186200741622302,low,low,,ISIC_9848743.JPG,9,ISIC_6876281.JPG,25,false,0.15000000000000002,hl,keypress(j),0,false,833269.3000000119,833269.1000000238,829081.166,829303.6000000238,829115.26,833082.539,4,500,32,
break,html.Screen,10_31_1,2023-11-17T17:50:51.300Z,,,,,,,,,,,NaN,,,,,,,,low,low,,,,,,false,,,,,false,833269.9000000358,833269.8000000119,,833269.5,,833082.539,4,500,,
break_continue,html.Screen,10_31_2,2023-11-17T17:50:51.300Z,,,,,,,,,,,NaN,,,,,,,,low,low,,,,,,false,,,,,false,833270.5,833270.1999999881,,833270.1000000238,,833082.539,4,500,,
sequence,flow.Sequence,10_31,2023-11-17T17:50:51.300Z,,,,,,,,,,,4154.93999998807,completion,,,,,,,low,low,,,,,,false,,,,,false,833270.6000000238,833270.1999999881,829081.166,829303.6000000238,829115.26,833082.539,4,500,,
trial,html.Screen,10_32_0,2023-11-17T17:50:55.194Z,,,,1,-0.0283578106329894,0.0088840758711548,,0.04,true,hh,4081.761000011931,response,0.9448299365501612,0.893803554714029,-1.186847726147712,0.657479477259629,0.734007258287321,-1.186200741622302,high,high,,ISIC_0060707.JPG,9,ISIC_7788318.JPG,56,false,0.1,hh,keypress(i),0,false,837164.4000000358,837164.3000000119,833047.685,833270.6999999881,833082.539,836964.549,4,500,33,
break,html.Screen,10_32_1,2023-11-17T17:50:55.194Z,,,,,,,,,,,NaN,,,,,,,,high,high,,,,,,false,,,,,false,837164.6999999881,837164.6999999881,,837164.5,,836964.549,4,500,,
break_continue,html.Screen,10_32_2,2023-11-17T17:50:55.194Z,,,,,,,,,,,NaN,,,,,,,,high,high,,,,,,false,,,,,false,837165,837164.9000000358,,837164.8000000119,,836964.549,4,500,,
sequence,flow.Sequence,10_32,2023-11-17T17:50:55.195Z,,,,,,,,,,,4082.361000035773,completion,,,,,,,high,high,,,,,,false,,,,,false,837165,837164.9000000358,833047.685,833270.6999999881,833082.539,836964.549,4,500,,
trial,html.Screen,10_33_0,2023-11-17T17:50:57.538Z,,,,1,0.001445457736793,0.0165307427449982,,0.04,true,hh,2544.15099998808,response,0.873243480967658,0.893803554714029,-1.186847726147712,0.6545354872234593,0.734007258287321,-1.186200741622302,high,high,,ISIC_0027350.JPG,9,ISIC_3395488.JPG,56,false,0.1,hh,keypress(i),0,false,839508.8000000119,839508.6999999881,836947.71,837165,836964.549,839314.502,4,500,34,
break,html.Screen,10_33_1,2023-11-17T17:50:57.539Z,,,,,,,,,,,NaN,,,,,,,,high,high,,,,,,false,,,,,false,839509.1999999881,839509.1999999881,,839509,,839314.502,4,500,,
break_continue,html.Screen,10_33_2,2023-11-17T17:50:57.539Z,,,,,,,,,,,NaN,,,,,,,,high,high,,,,,,false,,,,,false,839509.5,839509.4000000358,,839509.3000000119,,839314.502,4,500,,
sequence,flow.Sequence,10_33,2023-11-17T17:50:57.539Z,,,,,,,,,,,2544.8510000357637,completion,,,,,,,high,high,,,,,,false,,,,,false,839509.6000000238,839509.4000000358,836947.71,837165,836964.549,839314.502,4,500,,
trial,html.Screen,10_34_0,2023-11-17T17:50:59.371Z,,,,1,0.0065172941585523,-0.0118857043117315,,0.04,false,ll,2026.6979999881005,response,-1.2253191093367526,0.893803554714029,-1.186847726147712,-1.241905252673026,0.734007258287321,-1.186200741622302,low,low,,ISIC_6119202.JPG,9,ISIC_1195689.JPG,25,false,0.15000000000000002,hl,keypress(j),0,false,841341.4000000358,841341.1999999881,839297.874,839509.6999999881,839314.502,841147.813,4,500,35,
break,html.Screen,10_34_1,2023-11-17T17:50:59.372Z,,,,,,,,,,,NaN,,,,,,,,low,low,,,,,,false,,,,,false,841342.1999999881,841342.1000000238,,841341.6999999881,,841147.813,4,500,,
break_continue,html.Screen,10_34_2,2023-11-17T17:50:59.373Z,,,,,,,,,,,NaN,,,,,,,,low,low,,,,,,false,,,,,false,841342.8000000119,841342.5,,841342.4000000358,,841147.813,4,500,,
sequence,flow.Sequence,10_34,2023-11-17T17:50:59.373Z,,,,,,,,,,,2027.9980000000214,completion,,,,,,,low,low,,,,,,false,,,,,false,841343,841342.5,839297.874,839509.6999999881,839314.502,841147.813,4,500,,
trial,html.Screen,10_35_0,2023-11-17T17:51:03.507Z,,,,1,0.0199950873045219,0.0172506388509166,,0.04,true,lh,4329.487000011955,response,-1.058275612142778,0.893803554714029,-1.186847726147712,0.7824898568540655,0.734007258287321,-1.186200741622302,low,high,,ISIC_0029906.JPG,9,ISIC_4906385.JPG,25,false,0.2300000000000001,lh,keypress(e),0,false,845477.5,845477.3000000119,841131.307,841343.1000000238,841147.813,845281.147,4,500,36,
break,html.Screen,10_35_1,2023-11-17T17:51:03.508Z,,,,,,,,,,,NaN,,,,,,,,low,high,,,,,,false,,,,,false,845478,845478,,845477.6999999881,,845281.147,4,500,,
break_continue,html.Screen,10_35_2,2023-11-17T17:51:03.508Z,,,,,,,,,,,NaN,,,,,,,,low,high,,,,,,false,,,,,false,845478.6000000238,845478.3000000119,,845478.1999999881,,845281.147,4,500,,
sequence,flow.Sequence,10_35,2023-11-17T17:51:03.508Z,,,,,,,,,,,4330.487000011955,completion,,,,,,,low,high,,,,,,false,,,,,false,845478.6999999881,845478.3000000119,841131.307,841343.1000000238,841147.813,845281.147,4,500,,
trial,html.Screen,10_36_0,2023-11-17T17:51:10.842Z,,,,1,0.0074667911845194,-0.018500200317654,,0.04,true,hh,7530.953000023845,response,0.8271218144663375,0.893803554714029,-1.186847726147712,0.8321547684171402,0.734007258287321,-1.186200741622302,high,high,,ISIC_0058723.JPG,9,ISIC_0046224.JPG,56,false,0.1,hh,keypress(i),0,false,852812.1999999881,852812.1000000238,845264.597,845478.9000000358,845281.147,852614.491,4,500,37,
break,html.Screen,10_36_1,2023-11-17T17:51:10.842Z,,,,,,,,,,,NaN,,,,,,,,high,high,,,,,,false,,,,,false,852812.5,852812.4000000358,,852812.3000000119,,852614.491,4,500,,
break_continue,html.Screen,10_36_2,2023-11-17T17:51:10.842Z,,,,,,,,,,,NaN,,,,,,,,high,high,,,,,,false,,,,,false,852812.6999999881,852812.6999999881,,852812.6000000238,,852614.491,4,500,,
sequence,flow.Sequence,10_36,2023-11-17T17:51:10.843Z,,,,,,,,,,,7531.552999988082,completion,,,,,,,high,high,,,,,,false,,,,,false,852812.8000000119,852812.6999999881,845264.597,845478.8000000119,845281.147,852614.491,4,500,,
trial,html.Screen,10_37_0,2023-11-17T17:51:19.059Z,,,,1,-0.0118382036798625,-0.0300588245877227,,0.04,true,lh,8414.20899998804,response,-1.1644746776963744,0.893803554714029,-1.186847726147712,0.5697903623298216,0.734007258287321,-1.186200741622302,low,high,,ISIC_4748605.JPG,9,ISIC_9193127.JPG,25,false,0.2300000000000001,lh,keypress(e),0,false,861028.8000000119,861028.6999999881,852597.858,852812.8000000119,852614.491,860831.162,4,500,38,
break,html.Screen,10_37_1,2023-11-17T17:51:19.059Z,,,,,,,,,,,NaN,,,,,,,,low,high,,,,,,false,,,,,false,861029.3000000119,861029.1999999881,,861029,,860831.162,4,500,,
break_continue,html.Screen,10_37_2,2023-11-17T17:51:19.059Z,,,,,,,,,,,NaN,,,,,,,,low,high,,,,,,false,,,,,false,861029.5,861029.4000000358,,861029.3000000119,,860831.162,4,500,,
sequence,flow.Sequence,10_37,2023-11-17T17:51:19.059Z,,,,,,,,,,,8414.909000035725,completion,,,,,,,low,high,,,,,,false,,,,,false,861029.6000000238,861029.4000000358,852597.858,852812.8000000119,852614.491,860831.162,4,500,,
trial,html.Screen,10_38_0,2023-11-17T17:51:20.859Z,,,,1,-0.0220026381002083,0.0170756452911772,,0.04,false,lh,1998.2380000357516,response,-1.1797246542163315,0.893803554714029,-1.186847726147712,0.5881499989296397,0.734007258287321,-1.186200741622302,low,high,,ISIC_5347806.JPG,8,ISIC_0031741.JPG,25,false,0.2300000000000001,hl,keypress(j),0,false,862829.6000000238,862829.4000000358,860814.452,861029.6999999881,860831.162,862631.161,4,500,39,
