sender,sender_type,sender_id,timestamp,meta,,age,blockNo,c1,c2,condition,control_tolerance,correct,correctResponse,duration,ended_on,f1,f1_high,f1_low,f2,f2_high,f2_low,feature_level1,feature_level2,gender,img_left,img_reveal,img_right,n_target_images,practice,range_tolerance,response,response_action,selection_duration,staircase,time_commit,time_end,time_render,time_run,time_show,time_switch,total_blocks,total_trials,trialNo,url
informed_consent,html.Screen,0,2023-11-17T22:23:56.038Z,"{""labjs_version"":""20.2.4"",""labjs_build"":{""flavor"":""development"",""commit"":""f5b4a49f956347addd546a832a3327688c2c0fef""},""location"":""https://labjs.felixhenninger.com/api/labjs_preview/index.html"",""userAgent"":""Mozilla/5.0 (Windows NT 10.0; Win64; x64) AppleWebKit/537.36 (KHTML, like Gecko) Chrome/119.0.0.0 Safari/537.36"",""platform"":""Win32"",""language"":""en-US"",""locale"":""en-US"",""timeZone"":""America/Chicago"",""timezoneOffset"":360,""screen_width"":1680,""screen_height"":1050,""scroll_width"":825,""scroll_height"":888,""window_innerWidth"":825,""window_innerHeight"":936,""devicePixelRatio"":1}",,,,,,,,,,63669.50600003576,response,,,,,,,,,,,,,,,,consent,click button,,,64325.60000002384,64316.90000003576,630.676,824.6999999880791,647.394,64138.003,,,,{}
Demography form,html.Form,1,2023-11-17T22:24:02.783Z,,,22,,,,,,,,6931.797000011924,form submission,,,,,,,,,male,,,,,,,,,,,71069.90000003576,71069.80000001192,64104.242,64325.69999998808,64138.003,70884.268,,,,
Welcome,html.Screen,2,2023-11-17T22:25:12.470Z,,,,,,,"[""asym"",""bor""]",,,,69872.63200003577,response,,,,,,,,,,,,,,,,continue,click button,,,140757.5,140756.90000003576,70867.426,71070.10000002384,70884.268,140586.698,,,,
demo_instructions,html.Screen,3,2023-11-17T22:26:24.303Z,,,,,,,,,,,72002.10200001192,response,,,,,,,,,,,,,,,,continue,click button,,,212589.60000002384,212588.80000001192,140569.784,140757.69999998808,140586.698,212442.979,,,,
trial,html.Screen,4_0_0,2023-11-17T22:26:44.905Z,,,,0,1.276222161935671,-0.9657780821973284,,,true,lh,20749.021000000008,response,-0.8534691366511764,1.2,-1.2,1.03975580494588,1.2,-1.2,low,high,,ISIC_6710411.JPG,,ISIC_0056788.JPG,26,true,0.3600000000000002,lh,keypress(e),100,false,233192.19999998808,233192,212376.178,212589.69999998808,212442.979,233016.382,1,16,1,
sequence,flow.Sequence,4_0,2023-11-17T22:26:44.906Z,,,,,,,,,,,20749.021000000008,completion,,,,,,,low,high,,,,,,true,,,,,false,233192.30000001192,233192,212376.178,212589.69999998808,212442.979,233016.382,1,16,,
trial,html.Screen,4_1_0,2023-11-17T22:27:02.349Z,,,,0,0.9873794329144926,-0.7991077882008257,,,true,lh,17618.71800002383,response,-1.011737552725394,1.2,-1.2,0.8500530224490773,1.2,-1.2,low,high,,ISIC_0013498.JPG,,ISIC_2998367.JPG,33,true,0.42000000000000026,lh,keypress(e),100,false,250635.30000001192,250635.10000002384,232999.684,233192.40000003576,233016.382,250467.018,1,16,2,
sequence,flow.Sequence,4_1,2023-11-17T22:27:02.349Z,,,,,,,,,,,17618.71800002383,completion,,,,,,,low,high,,,,,,true,,,,,false,250635.5,250635.10000002384,232999.684,233192.40000003576,233016.382,250467.018,1,16,,
trial,html.Screen,4_2_0,2023-11-17T22:27:19.213Z,,,,0,0.8947611078712571,-0.8960964505004638,,,true,lh,17032.98199999999,response,-0.9696118525781644,1.2,-1.2,0.9244148283103414,1.2,-1.2,low,high,,ISIC_6441128.JPG,,ISIC_7927525.JPG,33,true,0.42000000000000026,lh,keypress(e),100,false,267500.10000002384,267500,250450.318,250635.5,250467.018,267333.165,1,16,3,
sequence,flow.Sequence,4_2,2023-11-17T22:27:19.214Z,,,,,,,,,,,17032.98199999999,completion,,,,,,,low,high,,,,,,true,,,,,false,267500.3000000119,267500,250450.318,250635.5,250467.018,267333.165,1,16,,
trial,html.Screen,4_3_0,2023-11-17T22:27:32.909Z,,,,0,0.7911024675435955,-0.7975977016137676,,,true,lh,13862.0349999881,response,-0.7836356408583546,1.2,-1.2,1.1197925594706428,1.2,-1.2,low,high,,ISIC_5813642.JPG,,ISIC_0024961.JPG,33,true,0.42000000000000026,lh,keypress(e),100,false,281195.40000003576,281195.1999999881,267316.503,267500.40000003576,267333.165,281026.532,1,16,4,
sequence,flow.Sequence,4_3,2023-11-17T22:27:32.909Z,,,,,,,,,,,13862.0349999881,completion,,,,,,,low,high,,,,,,true,,,,,false,281195.60000002384,281195.1999999881,267316.503,267500.3000000119,267333.165,281026.532,1,16,,
trial,html.Screen,4_4_0,2023-11-17T22:27:45.427Z,,,,0,1.29026082950341,1.144672688339213,,,true,ll,12686.268000011914,response,-1.4057041128271182,1.2,-1.2,-1.0160925610470608,1.2,-1.2,low,low,,ISIC_0054317.JPG,,ISIC_8120622.JPG,253,true,0.42000000000000026,ll,keypress(f),100,false,293712.90000003576,293712.8000000119,281009.791,281195.60000002384,281026.532,293534.132,1,16,5,
sequence,flow.Sequence,4_4,2023-11-17T22:27:45.427Z,,,,,,,,,,,12686.268000011914,completion,,,,,,,low,low,,,,,,true,,,,,false,293713.10000002384,293712.8000000119,281009.791,281195.60000002384,281026.532,293534.132,1,16,,
trial,html.Screen,4_5_0,2023-11-17T22:27:53.998Z,,,,0,1.1033977063872138,1.2513071571733083,,,true,ll,8749.868000000017,response,-1.3411179702686655,1.2,-1.2,-1.255103311449152,1.2,-1.2,low,low,,ISIC_0025472.JPG,,ISIC_5611010.JPG,26,true,0.15000000000000002,ll,keypress(f),100,false,302284.3000000119,302284,293517.455,293713.1999999881,293534.132,302117.569,1,16,6,
sequence,flow.Sequence,4_5,2023-11-17T22:27:53.998Z,,,,,,,,,,,8749.868000000017,completion,,,,,,,low,low,,,,,,true,,,,,false,302284.40000003576,302284,293517.455,293713.1999999881,293534.132,302117.569,1,16,,
trial,html.Screen,4_6_0,2023-11-17T22:27:57.577Z,,,,0,1.242586748440878,1.1207933200172129,,,true,ll,3745.6309999880614,response,-1.1642596483638106,1.2,-1.2,-1.109799097093339,1.2,-1.2,low,low,,ISIC_0013073.JPG,,ISIC_0765584.JPG,26,true,0.15000000000000002,ll,keypress(f),100,false,305863.5,305863.1999999881,302100.856,302284.60000002384,302117.569,305691.281,1,16,7,
sequence,flow.Sequence,4_6,2023-11-17T22:27:57.577Z,,,,,,,,,,,3745.6309999880614,completion,,,,,,,low,low,,,,,,true,,,,,false,305863.6999999881,305863.1999999881,302100.856,302284.60000002384,302117.569,305691.281,1,16,,
trial,html.Screen,4_7_0,2023-11-17T22:28:00.648Z,,,,0,1.2071341803968807,1.235960269089932,,,true,ll,3242.6190000357456,response,-1.1137763092539212,1.2,-1.2,-1.1599906701455132,1.2,-1.2,low,low,,ISIC_0058174.JPG,,ISIC_5413788.JPG,26,true,0.15000000000000002,ll,keypress(f),100,false,308934,308933.90000003576,305674.499,305863.90000003576,305691.281,308780.511,1,16,8,
sequence,flow.Sequence,4_7,2023-11-17T22:28:00.648Z,,,,,,,,,,,3242.6190000357456,completion,,,,,,,low,low,,,,,,true,,,,,false,308934.10000002384,308933.90000003576,305674.499,305863.8000000119,305691.281,308780.511,1,16,,
trial,html.Screen,4_8_0,2023-11-17T22:28:07.096Z,,,,0,-1.2695509547992938,0.9641099676945492,,,true,hl,6601.389000035764,response,0.7998855902596425,1.2,-1.2,-1.1518579145663017,1.2,-1.2,high,low,,ISIC_0025841.JPG,,ISIC_0025061.JPG,27,true,0.42000000000000026,hl,keypress(j),100,false,315382.1999999881,315381.90000003576,308747.148,308934.1999999881,308780.511,315226.416,1,16,9,
sequence,flow.Sequence,4_8,2023-11-17T22:28:07.096Z,,,,,,,,,,,6601.389000035764,completion,,,,,,,high,low,,,,,,true,,,,,false,315382.6999999881,315381.90000003576,308747.148,308934.1999999881,308780.511,315226.416,1,16,,
trial,html.Screen,4_9_0,2023-11-17T22:28:15.613Z,,,,0,-1.4747161152848791,0.847048591307387,,,true,hl,8672.083999999973,response,0.7833710010171356,1.2,-1.2,-0.9315588090336896,1.2,-1.2,high,low,,ISIC_0016092.JPG,,ISIC_3826102.JPG,27,true,0.42000000000000026,hl,keypress(j),100,false,323898.90000003576,323898.5,315193.045,315382.8000000119,315226.416,323742.967,1,16,10,
sequence,flow.Sequence,4_9,2023-11-17T22:28:15.613Z,,,,,,,,,,,8672.083999999973,completion,,,,,,,high,low,,,,,,true,,,,,false,323899.60000002384,323898.5,315193.045,315382.8000000119,315226.416,323742.967,1,16,,
trial,html.Screen,4_10_0,2023-11-17T22:28:19.410Z,,,,0,-1.2331439637486756,0.9691143900156988,,,true,hl,3953.032999999996,response,0.8816288864119318,1.2,-1.2,-0.801867301188093,1.2,-1.2,high,low,,ISIC_7877488.JPG,,ISIC_9196783.JPG,27,true,0.42000000000000026,hl,keypress(j),100,false,327696.40000003576,327696,323709.676,323899.90000003576,323742.967,327550.371,1,16,11,
sequence,flow.Sequence,4_10,2023-11-17T22:28:19.410Z,,,,,,,,,,,3953.032999999996,completion,,,,,,,high,low,,,,,,true,,,,,false,327696.90000003576,327696,323709.676,323899.8000000119,323742.967,327550.371,1,16,,
trial,html.Screen,4_11_0,2023-11-17T22:28:22.888Z,,,,0,-1.0865333402803938,1.0542635307358266,,,true,hl,3623.229000023857,response,0.7998855902596425,1.2,-1.2,-1.1518579145663017,1.2,-1.2,high,low,,ISIC_0034006.JPG,,ISIC_0025061.JPG,27,true,0.42000000000000026,hl,keypress(j),100,false,331174.10000002384,331173.60000002384,327500.39,327697.10000002384,327550.371,331007.224,1,16,12,
sequence,flow.Sequence,4_11,2023-11-17T22:28:22.888Z,,,,,,,,,,,3623.229000023857,completion,,,,,,,high,low,,,,,,true,,,,,false,331174.6999999881,331173.60000002384,327500.39,327697.10000002384,327550.371,331007.224,1,16,,
trial,html.Screen,4_12_0,2023-11-17T22:28:25.489Z,,,,0,-1.2024083555600384,-1.149077673153018,,,false,hh,2767.8760000238544,response,1.0651492409820618,1.2,-1.2,1.1862499256725747,1.2,-1.2,high,high,,ISIC_3566243.JPG,,ISIC_0065421.JPG,245,true,0.3600000000000002,hl,keypress(j),100,false,333775.5,333775.10000002384,330990.477,331175.10000002384,331007.224,333595.54,1,16,13,
sequence,flow.Sequence,4_12,2023-11-17T22:28:25.489Z,,,,,,,,,,,2767.8760000238544,completion,,,,,,,high,high,,,,,,true,,,,,false,333776.10000002384,333775.10000002384,330990.477,331175,331007.224,333595.54,1,16,,
trial,html.Screen,4_13_0,2023-11-17T22:28:33.642Z,,,,0,-1.201100953917304,-1.1751492358160105,,,true,hh,8332.360000035784,response,1.0698162624196283,1.2,-1.2,1.219634566983089,1.2,-1.2,high,high,,ISIC_0647224.JPG,,ISIC_0030552.JPG,53,true,0.15000000000000002,hh,keypress(i),100,false,341928.3000000119,341927.90000003576,333578.89,333776.3000000119,333595.54,341761.375,1,16,14,
sequence,flow.Sequence,4_13,2023-11-17T22:28:33.642Z,,,,,,,,,,,8332.360000035784,completion,,,,,,,high,high,,,,,,true,,,,,false,341929.10000002384,341927.90000003576,333578.89,333776.1999999881,333595.54,341761.375,1,16,,
trial,html.Screen,4_14_0,2023-11-17T22:28:36.107Z,,,,0,-1.241406480986552,-1.081912821786771,,,true,hh,2631.525000035763,response,1.2952503640839694,1.2,-1.2,1.107234527385344,1.2,-1.2,high,high,,ISIC_4223155.JPG,,ISIC_0034134.JPG,53,true,0.15000000000000002,hh,keypress(i),100,false,344393.3000000119,344392.90000003576,341744.78,341929.3000000119,341761.375,344216.189,1,16,15,
sequence,flow.Sequence,4_14,2023-11-17T22:28:36.107Z,,,,,,,,,,,2631.525000035763,completion,,,,,,,high,high,,,,,,true,,,,,false,344393.90000003576,344392.90000003576,341744.78,341929.1999999881,341761.375,344216.189,1,16,,
trial,html.Screen,4_15_0,2023-11-17T22:28:42.342Z,,,,0,-1.2724584600905462,-1.1411016103695344,,,true,hh,6412.010999988066,response,1.242586748440878,1.2,-1.2,1.1207933200172129,1.2,-1.2,high,high,,ISIC_0059625.JPG,,ISIC_0013073.JPG,53,true,0.15000000000000002,hh,keypress(i),100,false,350628.60000002384,350628.1999999881,344199.553,344394.10000002384,344216.189,350461.673,1,16,16,
sequence,flow.Sequence,4_15,2023-11-17T22:28:42.343Z,,,,,,,,,,,6412.010999988066,completion,,,,,,,high,high,,,,,,true,,,,,false,350629.3000000119,350628.1999999881,344199.553,344394.10000002384,344216.189,350461.673,1,16,,
demonstration_loop,flow.Loop,4,2023-11-17T22:28:42.343Z,,,,,,,,,,,138185.2209999881,completion,,,,,,,,,,,,,,true,,,,,false,350629.6999999881,350628.1999999881,212376.178,212589.60000002384,212442.979,350461.673,1,16,,
practice_instructions,html.Screen,5,2023-11-17T22:28:48.638Z,,,,,,,,,,,6455.427000023832,response,,,,,,,,,,,,,,,,continue,click button,,,356924.8000000119,356917.10000002384,350445.007,350630,350461.673,356723.836,,,,
trial,html.Screen,6_0_0,2023-11-17T22:29:04.401Z,,,,1,-1.1653123206802332,-1.2976858999596654,,,false,hh,15963.46400001191,response,1.1877026569952844,1.2,-1.2,1.1604367569896263,1.2,-1.2,high,high,,ISIC_0071508.JPG,,ISIC_0064589.JPG,30,true,0.1,hl,keypress(j),0,false,372687.8000000119,372687.3000000119,356707.264,356924.90000003576,356723.836,372504.717,1,40,1,
sequence,flow.Sequence,6_0,2023-11-17T22:29:04.402Z,,,,,,,,,,,15963.46400001191,completion,,,,,,,high,high,,,,,,true,,,,,false,372688.3000000119,372687.3000000119,356707.264,356924.90000003576,356723.836,372504.717,1,40,,
trial,html.Screen,6_1_0,2023-11-17T22:29:09.840Z,,,,1,1.255256820488545,1.1206426433062562,,,true,ll,5621.982999988075,response,-1.0959058628476686,1.2,-1.2,-1.1684835186766898,1.2,-1.2,low,low,,ISIC_0024652.JPG,,ISIC_5920470.JPG,26,true,0.15000000000000002,ll,keypress(f),0,false,378127,378126.6999999881,372487.874,372688.6999999881,372504.717,378015.271,1,40,2,
sequence,flow.Sequence,6_1,2023-11-17T22:29:09.841Z,,,,,,,,,,,5621.982999988075,completion,,,,,,,low,low,,,,,,true,,,,,false,378127.5,378126.6999999881,372487.874,372688.60000002384,372504.717,378015.271,1,40,,
trial,html.Screen,6_2_0,2023-11-17T22:29:23.257Z,,,,1,0.8035152873995188,-0.82868450251632,,,false,lh,13527.928999988071,response,-1.0865333402803938,1.2,-1.2,1.0542635307358266,1.2,-1.2,low,high,,ISIC_0010671.JPG,,ISIC_0034006.JPG,26,true,0.3600000000000002,ll,keypress(f),0,false,391543.60000002384,391543.1999999881,377915.308,378127.6999999881,378015.271,391374.605,1,40,3,
sequence,flow.Sequence,6_2,2023-11-17T22:29:23.257Z,,,,,,,,,,,13527.928999988071,completion,,,,,,,low,high,,,,,,true,,,,,false,391544.10000002384,391543.1999999881,377915.308,378127.6999999881,378015.271,391374.605,1,40,,
trial,html.Screen,6_3_0,2023-11-17T22:29:29.505Z,,,,1,0.8947611078712571,-0.8960964505004638,,,false,lh,6415.9950000238605,response,-1.0865333402803938,1.2,-1.2,1.0542635307358266,1.2,-1.2,low,high,,ISIC_6441128.JPG,,ISIC_0034006.JPG,33,true,0.42000000000000026,ll,keypress(f),0,false,397790.90000003576,397790.60000002384,391341.33,391544.3000000119,391374.605,397603.486,1,40,4,
sequence,flow.Sequence,6_3,2023-11-17T22:29:29.505Z,,,,,,,,,,,6415.9950000238605,completion,,,,,,,low,high,,,,,,true,,,,,false,397791.5,397790.60000002384,391341.33,391544.1999999881,391374.605,397603.486,1,40,,
trial,html.Screen,6_4_0,2023-11-17T22:29:34.336Z,,,,1,1.2915523362516486,1.1264977790562936,,,true,ll,5018.4140000357875,response,-1.474895474824632,1.2,-1.2,-0.8299748326862286,1.2,-1.2,low,low,,ISIC_0502582.JPG,,ISIC_3389695.JPG,253,true,0.42000000000000026,ll,keypress(f),0,false,402622,402621.90000003576,397586.886,397791.8000000119,397603.486,402429.45,1,40,5,
sequence,flow.Sequence,6_4,2023-11-17T22:29:34.336Z,,,,,,,,,,,5018.4140000357875,completion,,,,,,,low,low,,,,,,true,,,,,false,402622.1999999881,402621.90000003576,397586.886,397791.6999999881,397603.486,402429.45,1,40,,
trial,html.Screen,6_5_0,2023-11-17T22:29:50.123Z,,,,1,-1.2024083555600384,-1.149077673153018,,,,,15847.523999999976,timeout,1.1383813631375823,1.2,-1.2,1.1319312220332556,1.2,-1.2,high,high,,ISIC_3566243.JPG,,ISIC_6227397.JPG,30,true,0.1,,,0,false,418409,418408.6999999881,402413.009,402622.1999999881,402429.45,418276.974,1,40,6,
sequence,flow.Sequence,6_5,2023-11-17T22:29:50.123Z,,,,,,,,,,,15979.249999988067,completion,,,,,,,high,high,,,,,,true,,,,,false,418409.5,418408.6999999881,402413.009,402622.1999999881,402429.45,418276.974,1,40,,
trial,html.Screen,6_6_0,2023-11-17T22:29:51.217Z,,,,1,-0.8534691366511764,1.03975580494588,,,false,hl,1225.8260000119335,response,0.948927472020595,1.2,-1.2,-1.0660437155921598,1.2,-1.2,high,low,,ISIC_0056788.JPG,,ISIC_5808758.JPG,27,true,0.42000000000000026,lh,keypress(e),0,false,419503.1999999881,419502.8000000119,418210.187,418409.8000000119,418276.974,419329.245,1,40,7,
sequence,flow.Sequence,6_6,2023-11-17T22:29:51.218Z,,,,,,,,,,,1225.8260000119335,completion,,,,,,,high,low,,,,,,true,,,,,false,419503.6999999881,419502.8000000119,418210.187,418409.8000000119,418276.974,419329.245,1,40,,
trial,html.Screen,6_7_0,2023-11-17T22:29:55.969Z,,,,1,-1.3411179702686655,-1.255103311449152,,,false,hh,4925.555000011926,response,1.3150500754357115,1.2,-1.2,1.2575260551085132,1.2,-1.2,high,high,,ISIC_5611010.JPG,,ISIC_0029591.JPG,245,true,0.3600000000000002,lh,keypress(e),0,false,424255.10000002384,424254.8000000119,419312.937,419504,419329.245,424121.698,1,40,8,
sequence,flow.Sequence,6_7,2023-11-17T22:29:55.969Z,,,,,,,,,,,4925.555000011926,completion,,,,,,,high,high,,,,,,true,,,,,false,424255.5,424254.8000000119,419312.937,419503.90000003576,419329.245,424121.698,1,40,,
trial,html.Screen,6_8_0,2023-11-17T22:30:00.696Z,,,,1,0.809764442462202,-1.005337148078696,,,true,lh,4860.602000011946,response,-0.8809306963311293,1.2,-1.2,0.8614910030038974,1.2,-1.2,low,high,,ISIC_2379379.JPG,,ISIC_0013731.JPG,26,true,0.3600000000000002,lh,keypress(e),0,false,428982.40000003576,428982.3000000119,424055.102,424255.8000000119,424121.698,428797.505,1,40,9,
sequence,flow.Sequence,6_8,2023-11-17T22:30:00.697Z,,,,,,,,,,,4860.602000011946,completion,,,,,,,low,high,,,,,,true,,,,,false,428982.60000002384,428982.3000000119,424055.102,424255.8000000119,424121.698,428797.505,1,40,,
trial,html.Screen,6_9_0,2023-11-17T22:30:06.415Z,,,,1,1.1253220985777015,1.108725659461368,,,false,ll,5903.895000035758,response,-0.8552639039862626,1.2,-1.2,-1.0982314620989122,1.2,-1.2,low,low,,ISIC_0054954.JPG,,ISIC_0026278.JPG,253,true,0.42000000000000026,lh,keypress(e),0,false,434701.40000003576,434701.40000003576,428780.738,428982.8000000119,428797.505,434558.657,1,40,10,
sequence,flow.Sequence,6_9,2023-11-17T22:30:06.415Z,,,,,,,,,,,5903.895000035758,completion,,,,,,,low,low,,,,,,true,,,,,false,434701.60000002384,434701.40000003576,428780.738,428982.8000000119,428797.505,434558.657,1,40,,
trial,html.Screen,6_10_0,2023-11-17T22:30:13.409Z,,,,1,-1.0865333402803938,1.0542635307358266,,,true,hl,7136.443000023835,response,0.9873794329144926,1.2,-1.2,-0.7991077882008257,1.2,-1.2,high,low,,ISIC_0034006.JPG,,ISIC_0013498.JPG,27,true,0.42000000000000026,hl,keypress(j),0,false,441695.40000003576,441695.10000002384,434492.076,434701.6999999881,434558.657,441522.219,1,40,11,
sequence,flow.Sequence,6_10,2023-11-17T22:30:13.410Z,,,,,,,,,,,7136.443000023835,completion,,,,,,,high,low,,,,,,true,,,,,false,441696,441695.10000002384,434492.076,434701.6999999881,434558.657,441522.219,1,40,,
trial,html.Screen,6_11_0,2023-11-17T22:30:23.193Z,,,,1,-0.879102500583965,1.0933081951979773,,,false,hl,9956.68100003578,response,0.809764442462202,1.2,-1.2,-1.005337148078696,1.2,-1.2,high,low,,ISIC_0046223.JPG,,ISIC_2379379.JPG,27,true,0.42000000000000026,lh,keypress(e),0,false,451479.3000000119,451478.90000003576,441488.929,441696.10000002384,441522.219,451291.243,1,40,12,
sequence,flow.Sequence,6_11,2023-11-17T22:30:23.194Z,,,,,,,,,,,9956.68100003578,completion,,,,,,,high,low,,,,,,true,,,,,false,451479.8000000119,451478.90000003576,441488.929,441696.10000002384,441522.219,451291.243,1,40,,
trial,html.Screen,6_12_0,2023-11-17T22:30:29.960Z,,,,1,1.2181031651370575,1.2158573487067317,,,false,ll,6954.657000035746,response,-0.8529242055711017,1.2,-1.2,-0.9691635021928308,1.2,-1.2,low,low,,ISIC_7242312.JPG,,ISIC_8169564.JPG,179,true,0.3600000000000002,hl,keypress(j),0,false,458246,458245.90000003576,451274.612,451480,451291.243,458087.789,1,40,13,
sequence,flow.Sequence,6_12,2023-11-17T22:30:29.960Z,,,,,,,,,,,6954.657000035746,completion,,,,,,,low,low,,,,,,true,,,,,false,458246.10000002384,458245.90000003576,451274.612,451480,451291.243,458087.789,1,40,,
trial,html.Screen,6_13_0,2023-11-17T22:30:37.624Z,,,,1,-0.8809306963311293,0.8614910030038974,,,false,hl,7821.71100000001,response,0.7871162143493278,1.2,-1.2,-0.8429329800778957,1.2,-1.2,high,low,,ISIC_0013731.JPG,,ISIC_3439215.JPG,27,true,0.42000000000000026,ll,keypress(f),0,false,465909.60000002384,465909.5,458037.922,458246.1999999881,458087.789,465736,1,40,14,
sequence,flow.Sequence,6_13,2023-11-17T22:30:37.624Z,,,,,,,,,,,7821.71100000001,completion,,,,,,,high,low,,,,,,true,,,,,false,465909.6999999881,465909.5,458037.922,458246.1999999881,458087.789,465736,1,40,,
trial,html.Screen,6_14_0,2023-11-17T22:30:44.640Z,,,,1,1.0213365328004047,-1.088524359911891,,,false,lh,7190.100000023842,response,-1.0751036484083878,1.2,-1.2,1.143906455483852,1.2,-1.2,low,high,,ISIC_5434229.JPG,,ISIC_0064406.JPG,26,true,0.3600000000000002,ll,keypress(f),0,false,472926.1999999881,472926.10000002384,465702.818,465909.8000000119,465736,472766.345,1,40,15,
sequence,flow.Sequence,6_14,2023-11-17T22:30:44.640Z,,,,,,,,,,,7190.100000023842,completion,,,,,,,low,high,,,,,,true,,,,,false,472926.40000003576,472926.10000002384,465702.818,465909.8000000119,465736,472766.345,1,40,,
trial,html.Screen,6_15_0,2023-11-17T22:30:50.673Z,,,,1,-0.991282840649944,0.9397921099839784,,,false,hl,6192.455000011949,response,0.8947611078712571,1.2,-1.2,-0.8960964505004638,1.2,-1.2,high,low,,ISIC_0000463.JPG,,ISIC_6441128.JPG,27,true,0.42000000000000026,hh,keypress(i),0,false,478959.10000002384,478958.8000000119,472716.324,472926.5,472766.345,478794.783,1,40,16,
sequence,flow.Sequence,6_15,2023-11-17T22:30:50.674Z,,,,,,,,,,,6192.455000011949,completion,,,,,,,high,low,,,,,,true,,,,,false,478959.6999999881,478958.8000000119,472716.324,472926.40000003576,472766.345,478794.783,1,40,,
trial,html.Screen,6_16_0,2023-11-17T22:30:57.242Z,,,,1,-1.020990671779317,1.0116513850520903,,,true,hl,6732.317000023846,response,0.7871162143493278,1.2,-1.2,-0.8429329800778957,1.2,-1.2,high,low,,ISIC_0011995.JPG,,ISIC_3439215.JPG,27,true,0.42000000000000026,hl,keypress(j),0,false,485527.40000003576,485527.10000002384,478761.559,478959.8000000119,478794.783,485340.853,1,40,17,
sequence,flow.Sequence,6_16,2023-11-17T22:30:57.242Z,,,,,,,,,,,6732.317000023846,completion,,,,,,,high,low,,,,,,true,,,,,false,485528,485527.10000002384,478761.559,478959.8000000119,478794.783,485340.853,1,40,,
trial,html.Screen,6_17_0,2023-11-17T22:31:02.529Z,,,,1,-1.0959058628476686,-1.1684835186766898,,,true,hh,5474.04700003576,response,1.2071341803968807,1.2,-1.2,1.235960269089932,1.2,-1.2,high,high,,ISIC_5920470.JPG,,ISIC_0058174.JPG,245,true,0.3600000000000002,hh,keypress(i),0,false,490815.3000000119,490814.90000003576,485324.264,485528.3000000119,485340.853,490634.565,1,40,18,
sequence,flow.Sequence,6_17,2023-11-17T22:31:02.530Z,,,,,,,,,,,5474.04700003576,completion,,,,,,,high,high,,,,,,true,,,,,false,490815.8000000119,490814.90000003576,485324.264,485528.1999999881,485340.853,490634.565,1,40,,
trial,html.Screen,6_18_0,2023-11-17T22:31:06.817Z,,,,1,-1.2318069697449794,-1.1703576816778267,,,true,hh,4468.235000011919,response,1.272699544571422,1.2,-1.2,1.12917997553565,1.2,-1.2,high,high,,ISIC_2732573.JPG,,ISIC_0012057.JPG,53,true,0.15000000000000002,hh,keypress(i),0,false,495103.10000002384,495102.8000000119,490617.977,490816.10000002384,490634.565,494942.846,1,40,19,
sequence,flow.Sequence,6_18,2023-11-17T22:31:06.818Z,,,,,,,,,,,4468.235000011919,completion,,,,,,,high,high,,,,,,true,,,,,false,495103.6999999881,495102.8000000119,490617.977,490816,490634.565,494942.846,1,40,,
trial,html.Screen,6_19_0,2023-11-17T22:31:14.962Z,,,,1,-1.1181734135756094,0.944560381774994,,,false,hl,8304.454000011901,response,0.7911024675435955,1.2,-1.2,-0.7975977016137676,1.2,-1.2,high,low,,ISIC_9688534.JPG,,ISIC_5813642.JPG,27,true,0.42000000000000026,lh,keypress(e),0,false,503247.5,503247.3000000119,494893.02,495104,494942.846,503075.36,1,40,20,
sequence,flow.Sequence,6_19,2023-11-17T22:31:14.962Z,,,,,,,,,,,8304.454000011901,completion,,,,,,,high,low,,,,,,true,,,,,false,503248.10000002384,503247.3000000119,494893.02,495103.90000003576,494942.846,503075.36,1,40,,
trial,html.Screen,6_20_0,2023-11-17T22:31:25.826Z,,,,1,1.4092385398614515,-1.3046237992197836,,,false,lh,11035.740000023856,response,-0.8979276789594874,1.2,-1.2,0.925374811016654,1.2,-1.2,low,high,,ISIC_7254359.JPG,,ISIC_4208361.JPG,26,true,0.3600000000000002,ll,keypress(f),0,false,514111.60000002384,514111.10000002384,503042.167,503248.40000003576,503075.36,513930.03,1,40,21,
sequence,flow.Sequence,6_20,2023-11-17T22:31:25.826Z,,,,,,,,,,,11035.740000023856,completion,,,,,,,low,high,,,,,,true,,,,,false,514112,514111.10000002384,503042.167,503248.1999999881,503075.36,513930.03,1,40,,
trial,html.Screen,6_21_0,2023-11-17T22:31:30.249Z,,,,1,1.1033977063872138,1.2513071571733083,,,true,ll,4604.270000011893,response,-1.201100953917304,1.2,-1.2,-1.1751492358160105,1.2,-1.2,low,low,,ISIC_0025472.JPG,,ISIC_0647224.JPG,253,true,0.42000000000000026,ll,keypress(f),0,false,518534.40000003576,518534.3000000119,513913.28,514112.3000000119,513930.03,518355.171,1,40,22,
sequence,flow.Sequence,6_21,2023-11-17T22:31:30.249Z,,,,,,,,,,,4604.270000011893,completion,,,,,,,low,low,,,,,,true,,,,,false,518534.6999999881,518534.3000000119,513913.28,514112.1999999881,513930.03,518355.171,1,40,,
trial,html.Screen,6_22_0,2023-11-17T22:31:39.754Z,,,,1,1.2322060291690602,1.2686491386389651,,,false,ll,9683.929000023869,response,-1.2711018615747949,1.2,-1.2,-1.1042234044781618,1.2,-1.2,low,low,,ISIC_0011697.JPG,,ISIC_8603734.JPG,26,true,0.15000000000000002,hl,keypress(j),0,false,528039.4000000358,528039.1000000238,518321.934,518534.8000000119,518355.171,527856.921,1,40,23,
sequence,flow.Sequence,6_22,2023-11-17T22:31:39.754Z,,,,,,,,,,,9683.929000023869,completion,,,,,,,low,low,,,,,,true,,,,,false,528040,528039.1000000238,518321.934,518534.8000000119,518355.171,527856.921,1,40,,
trial,html.Screen,6_23_0,2023-11-17T22:31:46.217Z,,,,1,-1.131522954199764,-1.1047184491749509,,,true,hh,6645.97900003579,response,1.242586748440878,1.2,-1.2,1.1207933200172129,1.2,-1.2,high,high,,ISIC_1868816.JPG,,ISIC_0013073.JPG,30,true,0.1,hh,keypress(i),0,false,534503.1999999881,534502.9000000358,527840.383,528040.3000000119,527856.921,534352.913,1,40,24,
sequence,flow.Sequence,6_23,2023-11-17T22:31:46.218Z,,,,,,,,,,,6645.97900003579,completion,,,,,,,high,high,,,,,,true,,,,,false,534503.8000000119,534502.9000000358,527840.383,528040.1999999881,527856.921,534352.913,1,40,,
trial,html.Screen,6_24_0,2023-11-17T22:31:54.561Z,,,,1,-0.8534691366511764,1.03975580494588,,,false,hl,8493.387000011979,response,0.8200962008791046,1.2,-1.2,-0.7936051642828523,1.2,-1.2,high,low,,ISIC_0056788.JPG,,ISIC_0027031.JPG,27,true,0.42000000000000026,ll,keypress(f),0,false,542846.4000000358,542846.3000000119,534302.9,534504,534352.913,542685.801,1,40,25,
sequence,flow.Sequence,6_24,2023-11-17T22:31:54.561Z,,,,,,,,,,,8493.387000011979,completion,,,,,,,high,low,,,,,,true,,,,,false,542846.6999999881,542846.3000000119,534302.9,534504,534352.913,542685.801,1,40,,
trial,html.Screen,6_25_0,2023-11-17T22:32:01.705Z,,,,1,-1.0751036484083878,1.143906455483852,,,false,hl,7305.099000035785,response,0.7870237732709365,1.2,-1.2,-0.9172955251119376,1.2,-1.2,high,low,,ISIC_0064406.JPG,,ISIC_0057716.JPG,27,true,0.42000000000000026,ll,keypress(f),0,false,549991.1999999881,549990.9000000358,542635.901,542846.9000000358,542685.801,549799.682,1,40,26,
sequence,flow.Sequence,6_25,2023-11-17T22:32:01.706Z,,,,,,,,,,,7305.099000035785,completion,,,,,,,high,low,,,,,,true,,,,,false,549991.9000000358,549990.9000000358,542635.901,542846.8000000119,542685.801,549799.682,1,40,,
trial,html.Screen,6_26_0,2023-11-17T22:32:05.706Z,,,,1,-1.0789197754694622,-1.1654690806750023,,,true,hh,4191.418000023812,response,1.396544779819988,1.2,-1.2,0.9136763215141872,1.2,-1.2,high,high,,ISIC_1576437.JPG,,ISIC_1818238.JPG,245,true,0.3600000000000002,hh,keypress(i),0,false,553991.4000000358,553991.1000000238,549783.177,549992.1000000238,549799.682,553857.517,1,40,27,
sequence,flow.Sequence,6_26,2023-11-17T22:32:05.706Z,,,,,,,,,,,4191.418000023812,completion,,,,,,,high,high,,,,,,true,,,,,false,553991.9000000358,553991.1000000238,549783.177,549992.1000000238,549799.682,553857.517,1,40,,
trial,html.Screen,6_27_0,2023-11-17T22:32:17.394Z,,,,1,0.7833710010171356,-0.9315588090336896,,,false,lh,11821.783000011928,response,-0.8534691366511764,1.2,-1.2,1.03975580494588,1.2,-1.2,low,high,,ISIC_3826102.JPG,,ISIC_0056788.JPG,26,true,0.3600000000000002,hl,keypress(j),0,false,565679.6999999881,565679.3000000119,553790.937,553992.1999999881,553857.517,565496.865,1,40,28,
sequence,flow.Sequence,6_27,2023-11-17T22:32:17.394Z,,,,,,,,,,,11821.783000011928,completion,,,,,,,low,high,,,,,,true,,,,,false,565680.3000000119,565679.3000000119,553790.937,553992.1000000238,553857.517,565496.865,1,40,,
trial,html.Screen,6_28_0,2023-11-17T22:32:21.913Z,,,,1,-1.201100953917304,-1.1751492358160105,,,true,hh,4701.93500001193,response,0.8809051780367407,1.2,-1.2,1.044525830449456,1.2,-1.2,high,high,,ISIC_0647224.JPG,,ISIC_0029212.JPG,339,true,0.42000000000000026,hh,keypress(i),0,false,570199.1999999881,570198.8000000119,565480.301,565680.5,565496.865,570005.735,1,40,29,
sequence,flow.Sequence,6_28,2023-11-17T22:32:21.914Z,,,,,,,,,,,4701.93500001193,completion,,,,,,,high,high,,,,,,true,,,,,false,570199.8000000119,570198.8000000119,565480.301,565680.5,565496.865,570005.735,1,40,,
trial,html.Screen,6_29_0,2023-11-17T22:32:26.730Z,,,,1,1.2249552940807693,1.1723015116910682,,,true,ll,5009.065000011935,response,-1.1653123206802332,1.2,-1.2,-1.2976858999596654,1.2,-1.2,low,low,,ISIC_0055251.JPG,,ISIC_0071508.JPG,26,true,0.15000000000000002,ll,keypress(f),0,false,575015.1999999881,575014.8000000119,569989.137,570200,570005.735,574865.108,1,40,30,
sequence,flow.Sequence,6_29,2023-11-17T22:32:26.730Z,,,,,,,,,,,5009.065000011935,completion,,,,,,,low,low,,,,,,true,,,,,false,575015.8000000119,575014.8000000119,569989.137,570199.9000000358,570005.735,574865.108,1,40,,
trial,html.Screen,6_30_0,2023-11-17T22:32:33.992Z,,,,1,1.0264463986917702,-1.2804054832904397,,,false,lh,7412.6920000119135,response,-0.869932994914832,1.2,-1.2,0.8880533324432531,1.2,-1.2,low,high,,ISIC_7889838.JPG,,ISIC_8617084.JPG,26,true,0.3600000000000002,hl,keypress(j),0,false,582277.9000000358,582277.8000000119,574815.058,575016.1000000238,574865.108,582096.047,1,40,31,
sequence,flow.Sequence,6_30,2023-11-17T22:32:33.992Z,,,,,,,,,,,7412.6920000119135,completion,,,,,,,low,high,,,,,,true,,,,,false,582278.1000000238,582277.8000000119,574815.058,575016,574865.108,582096.047,1,40,,
trial,html.Screen,6_31_0,2023-11-17T22:32:46.088Z,,,,1,1.29026082950341,1.144672688339213,,,false,ll,12277.95299999998,response,-1.057008495826831,1.2,-1.2,-1.1278122585028287,1.2,-1.2,low,low,,ISIC_0054317.JPG,,ISIC_2819798.JPG,253,true,0.42000000000000026,hh,keypress(i),0,false,594374.1000000238,594374,582079.328,582278.1999999881,582096.047,594219.439,1,40,32,
sequence,flow.Sequence,6_31,2023-11-17T22:32:46.089Z,,,,,,,,,,,12277.95299999998,completion,,,,,,,low,low,,,,,,true,,,,,false,594374.3000000119,594374,582079.328,582278.1000000238,582096.047,594219.439,1,40,,
trial,html.Screen,6_32_0,2023-11-17T22:32:54.024Z,,,,1,0.8092423703106274,-1.1870093485714288,,,false,lh,8090.161000023829,response,-1.0143509683988825,1.2,-1.2,1.3163955902021656,1.2,-1.2,low,high,,ISIC_8592235.JPG,,ISIC_0062031.JPG,26,true,0.3600000000000002,hh,keypress(i),0,false,602309.6000000238,602309.6000000238,594169.393,594374.3000000119,594219.439,602134.853,1,40,33,
sequence,flow.Sequence,6_32,2023-11-17T22:32:54.024Z,,,,,,,,,,,8090.161000023829,completion,,,,,,,low,high,,,,,,true,,,,,false,602309.6999999881,602309.6000000238,594169.393,594374.3000000119,594219.439,602134.853,1,40,,
trial,html.Screen,6_33_0,2023-11-17T22:33:01.352Z,,,,1,0.8035152873995188,-0.82868450251632,,,true,lh,7502.846999988076,response,-0.858338058340649,1.2,-1.2,0.9540612223480284,1.2,-1.2,low,high,,ISIC_0010671.JPG,,ISIC_8922893.JPG,33,true,0.42000000000000026,lh,keypress(e),0,false,609637.6999999881,609637.6999999881,602101.615,602309.8000000119,602134.853,609449.09,1,40,34,
sequence,flow.Sequence,6_33,2023-11-17T22:33:01.352Z,,,,,,,,,,,7502.846999988076,completion,,,,,,,low,high,,,,,,true,,,,,false,609637.8000000119,609637.6999999881,602101.615,602309.8000000119,602134.853,609449.09,1,40,,
trial,html.Screen,6_34_0,2023-11-17T22:33:05.602Z,,,,1,-1.3411179702686655,-1.255103311449152,,,false,hh,4437.910000000033,response,0.8471355550006346,1.2,-1.2,0.8721011160837115,1.2,-1.2,high,high,,ISIC_5611010.JPG,,ISIC_0025744.JPG,339,true,0.42000000000000026,hl,keypress(j),0,false,613887.3000000119,613887,609432.567,609637.9000000358,609449.09,613724.071,1,40,35,
sequence,flow.Sequence,6_34,2023-11-17T22:33:05.602Z,,,,,,,,,,,4437.910000000033,completion,,,,,,,high,high,,,,,,true,,,,,false,613887.9000000358,613887,609432.567,609637.9000000358,609449.09,613724.071,1,40,,
trial,html.Screen,6_35_0,2023-11-17T22:33:10.626Z,,,,1,1.0022829373011404,-0.8311726972863814,,,false,lh,5187.029000023846,response,-0.8487429103619056,1.2,-1.2,0.9778257804233036,1.2,-1.2,low,high,,ISIC_0033287.JPG,,ISIC_4554863.JPG,26,true,0.3600000000000002,ll,keypress(f),0,false,618911.4000000358,618911.1000000238,613690.808,613888.1000000238,613724.071,618717.222,1,40,36,
sequence,flow.Sequence,6_35,2023-11-17T22:33:10.626Z,,,,,,,,,,,5187.029000023846,completion,,,,,,,low,high,,,,,,true,,,,,false,618911.9000000358,618911.1000000238,613690.808,613888.1000000238,613724.071,618717.222,1,40,,
trial,html.Screen,6_36_0,2023-11-17T22:33:16.026Z,,,,1,1.255256820488545,1.1206426433062562,,,true,ll,5593.878000023891,response,-1.54504336581176,1.2,-1.2,-1.0979463718010185,1.2,-1.2,low,low,,ISIC_0024652.JPG,,ISIC_3909443.JPG,253,true,0.42000000000000026,ll,keypress(f),0,false,624311.4000000358,624311.1000000238,618700.666,618912.1000000238,618717.222,624127.655,1,40,37,
sequence,flow.Sequence,6_36,2023-11-17T22:33:16.026Z,,,,,,,,,,,5593.878000023891,completion,,,,,,,low,low,,,,,,true,,,,,false,624312,624311.1000000238,618700.666,618912.1000000238,618717.222,624127.655,1,40,,
trial,html.Screen,6_37_0,2023-11-17T22:33:20.578Z,,,,1,1.101214461533281,1.1849883512428183,,,false,ll,4735.745000035735,response,-1.1642596483638106,1.2,-1.2,-1.109799097093339,1.2,-1.2,low,low,,ISIC_0064943.JPG,,ISIC_0765584.JPG,26,true,0.15000000000000002,hh,keypress(i),0,false,628863.6999999881,628863.4000000358,624111.172,624312.1999999881,624127.655,628669.921,1,40,38,
sequence,flow.Sequence,6_37,2023-11-17T22:33:20.579Z,,,,,,,,,,,4735.745000035735,completion,,,,,,,low,low,,,,,,true,,,,,false,628864.3000000119,628863.4000000358,624111.172,624312.1000000238,624127.655,628669.921,1,40,,
trial,html.Screen,6_38_0,2023-11-17T22:33:24.818Z,,,,1,-1.1210325063849345,-1.1498648320956202,,,false,hh,4432.97900003579,response,1.185875658992962,1.2,-1.2,1.2635548590325487,1.2,-1.2,high,high,,ISIC_0032162.JPG,,ISIC_0011703.JPG,30,true,0.1,hl,keypress(j),0,false,633103.1000000238,633102.9000000358,628653.37,628864.6000000238,628669.921,632961.488,1,40,39,
sequence,flow.Sequence,6_38,2023-11-17T22:33:24.818Z,,,,,,,,,,,4432.97900003579,completion,,,,,,,high,high,,,,,,true,,,,,false,633103.6000000238,633102.9000000358,628653.37,628864.5,628669.921,632961.488,1,40,,
trial,html.Screen,6_39_0,2023-11-17T22:33:30.472Z,,,,1,-0.991282840649944,0.9397921099839784,,,false,hl,5796.412000035751,response,1.0264463986917702,1.2,-1.2,-1.2804054832904397,1.2,-1.2,high,low,,ISIC_0000463.JPG,,ISIC_7889838.JPG,27,true,0.42000000000000026,hh,keypress(i),0,false,638758,638757.9000000358,632894.922,633103.9000000358,632961.488,638572.479,1,40,40,
sequence,flow.Sequence,6_39,2023-11-17T22:33:30.473Z,,,,,,,,,,,5796.412000035751,completion,,,,,,,high,low,,,,,,true,,,,,false,638758.1000000238,638757.9000000358,632894.922,633103.9000000358,632961.488,638572.479,1,40,,
practice_loop,flow.Loop,6,2023-11-17T22:33:30.473Z,,,,,,,,,,,282034.06400003575,completion,,,,,,,,,,,,,,true,,,,,false,638758.1999999881,638757.9000000358,356707.264,356924.90000003576,356723.836,638572.479,1,40,,
stair_instructions,html.Screen,7,2023-11-17T22:33:34.440Z,,,,,,,,,,,4152.9210000357125,response,,,,,,,,,,,,,,,,continue,click button,,,642725.9000000358,642725.4000000358,638555.936,638758.3000000119,638572.479,642530.16,,,,
trial,html.Screen,8_0_0,2023-11-17T22:33:40.987Z,,,,2,0.0217698886732706,-0.0410870915161425,,0.05,false,hh,6741.940000023809,response,1.3565211743635932,1.2,-1.2,1.0394767720056428,1.2,-1.2,high,high,,ISIC_0072173.JPG,,ISIC_0032823.JPG,245,false,0.3600000000000002,hl,keypress(j),0,true,649272.6000000238,649272.1000000238,642513.709,642726.1000000238,642530.16,649092.991,1,40,1,
sequence,flow.Sequence,8_0,2023-11-17T22:33:40.988Z,,,,,,,,,,,6741.940000023809,completion,,,,,,,high,high,,,,,,false,,,,,true,649273.1000000238,649272.1000000238,642513.709,642726.1000000238,642530.16,649092.991,1,40,,
trial,html.Screen,8_1_0,2023-11-17T22:33:46.689Z,,,,2,0.039728379742806,-0.0228701131373768,,0.05,false,ll,5881.409000035725,response,-1.2012395086389958,1.15,-1.15,-1.0618985767073823,1.2,-1.15,low,low,,ISIC_0054073.JPG,,ISIC_9876004.JPG,30,false,0.13,hl,keypress(j),0,true,654974.5,654974.4000000358,649076.269,649273.4000000358,649092.991,654787.402,1,40,2,
sequence,flow.Sequence,8_1,2023-11-17T22:33:46.689Z,,,,,,,,,,,5881.409000035725,completion,,,,,,,low,low,,,,,,false,,,,,true,654974.8000000119,654974.4000000358,649076.269,649273.4000000358,649092.991,654787.402,1,40,,
trial,html.Screen,8_2_0,2023-11-17T22:33:55.434Z,,,,2,0.007397293189458,0.0174716772037504,,0.05,false,ll,8932.097999999998,response,-1.057008495826831,1.15,-1.15,-1.1278122585028287,1.15,-1.15,low,low,,ISIC_0056226.JPG,,ISIC_2819798.JPG,30,false,0.13,hh,keypress(i),0,true,663720,663719.5,654770.761,654975.1000000238,654787.402,663537.689,1,40,3,
sequence,flow.Sequence,8_2,2023-11-17T22:33:55.435Z,,,,,,,,,,,8932.097999999998,completion,,,,,,,low,low,,,,,,false,,,,,true,663720.5,663719.5,654770.761,654974.9000000358,654787.402,663537.689,1,40,,
trial,html.Screen,8_3_0,2023-11-17T22:34:00.898Z,,,,2,-0.0112310719058792,0.0469047359904117,,0.05,false,hh,5645.411000023829,response,1.0762260610050776,1.15,-1.15,1.082709423673037,1.15,-1.15,high,high,,ISIC_0068184.JPG,,ISIC_0058666.JPG,27,false,0.1,hl,keypress(j),0,true,669183.5,669183.1000000238,663521.203,663720.8000000119,663537.689,669031.734,1,40,4,
sequence,flow.Sequence,8_3,2023-11-17T22:34:00.899Z,,,,,,,,,,,5645.411000023829,completion,,,,,,,high,high,,,,,,false,,,,,true,669184,669183.1000000238,663521.203,663720.6999999881,663537.689,669031.734,1,40,,
trial,html.Screen,8_4_0,2023-11-17T22:34:06.041Z,,,,2,-0.0245376145053177,0.0436993426328401,,0.05,true,hl,5294.366000023787,response,0.948927472020595,1.0999999999999999,-1.15,-1.0660437155921598,1.15,-1.15,high,low,,ISIC_0056444.JPG,,ISIC_5808758.JPG,28,false,0.3600000000000002,hl,keypress(j),0,true,674326.3000000119,674326.1000000238,668981.795,669184.3000000119,669031.734,674141.691,1,40,5,
sequence,flow.Sequence,8_4,2023-11-17T22:34:06.041Z,,,,,,,,,,,5294.366000023787,completion,,,,,,,high,low,,,,,,false,,,,,true,674326.4000000358,674326.1000000238,668981.795,669184.3000000119,669031.734,674141.691,1,40,,
trial,html.Screen,8_5_0,2023-11-17T22:34:10.897Z,,,,2,0.007397293189458,0.0174716772037504,,0.05,true,ll,5040.709000035771,response,-1.1137763092539212,1.0999999999999999,-1.15,-1.1599906701455132,1.15,-1.15,low,low,,ISIC_0056226.JPG,,ISIC_5413788.JPG,30,false,0.13,ll,keypress(f),0,true,679182.6000000238,679182.4000000358,674125.176,674326.5,674141.691,679001.156,1,40,6,
sequence,flow.Sequence,8_5,2023-11-17T22:34:10.897Z,,,,,,,,,,,5040.709000035771,completion,,,,,,,low,low,,,,,,false,,,,,true,679182.8000000119,679182.4000000358,674125.176,674326.5,674141.691,679001.156,1,40,,
trial,html.Screen,8_6_0,2023-11-17T22:34:15.443Z,,,,2,-0.0362376068089956,-0.047825070846155,,0.05,false,hh,4726.54399998812,response,1.1783311757907324,1.0999999999999999,-1.15,1.0915173513546716,1.15,-1.0868834896997173,high,high,,ISIC_6985114.JPG,,ISIC_8241457.JPG,30,false,0.11,ll,keypress(f),0,true,683728.1999999881,683727.6999999881,678984.657,679183,679001.156,683543.293,1,40,7,
sequence,flow.Sequence,8_6,2023-11-17T22:34:15.443Z,,,,,,,,,,,4726.54399998812,completion,,,,,,,high,high,,,,,,false,,,,,true,683728.6000000238,683727.6999999881,678984.657,679183,679001.156,683543.293,1,40,,
trial,html.Screen,8_7_0,2023-11-17T22:34:20.722Z,,,,2,0.0324770283903853,0.0249968632204382,,0.05,false,lh,5464.207000000053,response,-1.1181734135756094,1.15,-1.15,0.944560381774994,1.15,-1.0868834896997173,low,high,,ISIC_7266462.JPG,,ISIC_9688534.JPG,25,false,0.31000000000000016,hl,keypress(j),0,true,689007.8000000119,689007.5,683526.66,683729,683543.293,688820.259,1,40,8,
sequence,flow.Sequence,8_7,2023-11-17T22:34:20.723Z,,,,,,,,,,,5464.207000000053,completion,,,,,,,low,high,,,,,,false,,,,,true,689008.3000000119,689007.5,683526.66,683728.9000000358,683543.293,688820.259,1,40,,
trial,html.Screen,8_8_0,2023-11-17T22:34:25.378Z,,,,2,-0.0188047466661863,0.0288346930436979,,0.05,true,ll,4842.940999988117,response,-1.1642596483638106,1.15,-1.15,-1.109799097093339,1.15,-1.0868834896997173,low,low,,ISIC_0014157.JPG,,ISIC_0765584.JPG,26,false,0.1,ll,keypress(f),0,true,693663.5,693663.1999999881,688803.767,689008.6000000238,688820.259,693495.993,1,40,9,
sequence,flow.Sequence,8_8,2023-11-17T22:34:25.379Z,,,,,,,,,,,4842.940999988117,completion,,,,,,,low,low,,,,,,false,,,,,true,693664.1000000238,693663.1999999881,688803.767,689008.5,688820.259,693495.993,1,40,,
trial,html.Screen,8_9_0,2023-11-17T22:34:30.576Z,,,,2,0.0116094682222121,-0.0258434522530318,,0.05,false,hl,5365.607000023825,response,1.0264463986917702,1.15,-1.15,-1.2804054832904397,1.15,-1.0868834896997173,high,low,,ISIC_9239632.JPG,,ISIC_7889838.JPG,26,false,0.3600000000000002,hh,keypress(i),0,true,698861.6999999881,698861.6000000238,693462.661,693664.3000000119,693495.993,698689.436,1,40,10,
sequence,flow.Sequence,8_9,2023-11-17T22:34:30.576Z,,,,,,,,,,,5365.607000023825,completion,,,,,,,high,low,,,,,,false,,,,,true,698861.8000000119,698861.6000000238,693462.661,693664.3000000119,693495.993,698689.436,1,40,,
trial,html.Screen,8_10_0,2023-11-17T22:34:38.811Z,,,,2,-0.0113873532168551,-0.0054999201556291,,0.05,false,lh,8406.564000000013,response,-1.0751036484083878,1.15,-1.15,1.143906455483852,1.15,-1.1368834896997173,low,high,,ISIC_8812621.JPG,,ISIC_0064406.JPG,25,false,0.31000000000000016,ll,keypress(f),0,true,707096.3000000119,707096,698656.287,698861.9000000358,698689.436,706905.459,1,40,11,
sequence,flow.Sequence,8_10,2023-11-17T22:34:38.811Z,,,,,,,,,,,8406.564000000013,completion,,,,,,,low,high,,,,,,false,,,,,true,707096.8000000119,707096,698656.287,698861.9000000358,698689.436,706905.459,1,40,,
trial,html.Screen,8_11_0,2023-11-17T22:34:44.258Z,,,,2,0.039728379742806,-0.0228701131373768,,0.05,false,hh,5637.841000011889,response,1.135372722680314,1.15,-1.0999999999999999,1.0926414044454305,1.15,-1.1368834896997173,high,high,,ISIC_0054073.JPG,,ISIC_2355513.JPG,27,false,0.1,hl,keypress(j),0,true,712543.6000000238,712543.3000000119,706888.828,707097.1999999881,706905.459,712349.471,1,40,12,
sequence,flow.Sequence,8_11,2023-11-17T22:34:44.259Z,,,,,,,,,,,5637.841000011889,completion,,,,,,,high,high,,,,,,false,,,,,true,712544.1999999881,712543.3000000119,706888.828,707097.1000000238,706905.459,712349.471,1,40,,
trial,html.Screen,8_12_0,2023-11-17T22:34:49.291Z,,,,2,0.0085520978188085,-0.0464691161264081,,0.05,true,ll,5226.129000023822,response,-0.9962130178668478,1.0309095606860421,-1.0999999999999999,-1.0198919808587756,1.15,-1.1368834896997173,low,low,,ISIC_0758797.JPG,,ISIC_0595080.JPG,29,false,0.12,ll,keypress(f),0,true,717575.9000000358,717575.6000000238,712332.934,712544.4000000358,712349.471,717392.553,1,40,13,
sequence,flow.Sequence,8_12,2023-11-17T22:34:49.291Z,,,,,,,,,,,5226.129000023822,completion,,,,,,,low,low,,,,,,false,,,,,true,717576.4000000358,717575.6000000238,712332.934,712544.3000000119,712349.471,717392.553,1,40,,
trial,html.Screen,8_13_0,2023-11-17T22:34:54.426Z,,,,2,0.0363437082783146,0.0333332186217051,,0.05,false,lh,5318.847000035807,response,-0.8487429103619056,1.0309095606860421,-1.0999999999999999,0.9778257804233036,1.15,-1.1368834896997173,low,high,,ISIC_3314555.JPG,,ISIC_4554863.JPG,26,false,0.30000000000000016,ll,keypress(f),0,true,722711.6999999881,722711.4000000358,717375.788,717576.6999999881,717392.553,722535.881,1,40,14,
sequence,flow.Sequence,8_13,2023-11-17T22:34:54.427Z,,,,,,,,,,,5318.847000035807,completion,,,,,,,low,high,,,,,,false,,,,,true,722712.1999999881,722711.4000000358,717375.788,717576.6999999881,717392.553,722535.881,1,40,,
trial,html.Screen,8_14_0,2023-11-17T22:35:02.433Z,,,,2,-0.0348234368746005,0.0236866303880924,,0.05,false,hl,8182.019000035711,response,0.8655167308525522,1.0309095606860421,-0.8843174456103406,-0.9298580423306444,1.15,-1.1368834896997173,high,low,,ISIC_0011099.JPG,,ISIC_4603706.JPG,26,false,0.3300000000000002,hh,keypress(i),0,true,730717.9000000358,730717.9000000358,722502.689,722712.5,722535.881,730534.763,1,40,15,
sequence,flow.Sequence,8_14,2023-11-17T22:35:02.433Z,,,,,,,,,,,8182.019000035711,completion,,,,,,,high,low,,,,,,false,,,,,true,730718.1000000238,730717.9000000358,722502.689,722712.4000000358,722535.881,730534.763,1,40,,
trial,html.Screen,8_15_0,2023-11-17T22:35:09.850Z,,,,2,0.007397293189458,0.0174716772037504,,0.05,false,ll,7600.436999988044,response,-0.9786457729523576,1.0309095606860421,-0.8843174456103406,-1.1189056385517386,1.15,-1.1868834896997174,low,low,,ISIC_0056226.JPG,,ISIC_3926019.JPG,28,false,0.1,lh,keypress(e),0,true,738135.6000000238,738135.1999999881,730518.286,730718.1999999881,730534.763,737949.197,1,40,16,
sequence,flow.Sequence,8_15,2023-11-17T22:35:09.851Z,,,,,,,,,,,7600.436999988044,completion,,,,,,,low,low,,,,,,false,,,,,true,738136.1999999881,738135.1999999881,730518.286,730718.1999999881,730534.763,737949.197,1,40,,
trial,html.Screen,8_16_0,2023-11-17T22:35:15.442Z,,,,2,0.007397293189458,0.0174716772037504,,0.05,false,lh,5778.103000011877,response,-0.7622914383475332,1.0309095606860421,-0.8843174456103406,1.2637655821850098,1.15,-1.1868834896997174,low,high,,ISIC_0056226.JPG,,ISIC_0032005.JPG,28,false,0.21000000000000008,hh,keypress(i),0,true,743727.6999999881,743727.3000000119,737932.708,738136.4000000358,737949.197,743543.447,1,40,17,
sequence,flow.Sequence,8_16,2023-11-17T22:35:15.443Z,,,,,,,,,,,5778.103000011877,completion,,,,,,,low,high,,,,,,false,,,,,true,743728.1999999881,743727.3000000119,737932.708,738136.3000000119,737949.197,743543.447,1,40,,
trial,html.Screen,8_17_0,2023-11-17T22:35:19.962Z,,,,2,0.0070725527271049,0.0049995141077508,,0.05,false,lh,4703.853000011877,response,-0.7401156491866404,1.0309095606860421,-0.9343174456103407,0.94165594025755,1.15,-1.1868834896997174,low,high,,ISIC_6124481.JPG,,ISIC_0072429.JPG,27,false,0.2300000000000001,ll,keypress(f),0,true,748247.6000000238,748247.3000000119,743526.898,743728.4000000358,743543.447,748068.92,1,40,18,
sequence,flow.Sequence,8_17,2023-11-17T22:35:19.963Z,,,,,,,,,,,4703.853000011877,completion,,,,,,,low,high,,,,,,false,,,,,true,748248.1000000238,748247.3000000119,743526.898,743728.4000000358,743543.447,748068.92,1,40,,
trial,html.Screen,8_18_0,2023-11-17T22:35:25.803Z,,,,2,0.0057914759495055,0.0074667911845194,,0.05,false,lh,6018.579999999958,response,-0.8979276789594874,1.0309095606860421,-0.9343174456103407,0.925374811016654,1.15,-1.1868834896997174,low,high,,ISIC_0058723.JPG,,ISIC_4208361.JPG,27,false,0.2300000000000001,hl,keypress(j),0,true,754087.9000000358,754087.5,748035.664,748248.3000000119,748068.92,753896.907,1,40,19,
sequence,flow.Sequence,8_18,2023-11-17T22:35:25.803Z,,,,,,,,,,,6018.579999999958,completion,,,,,,,low,high,,,,,,false,,,,,true,754088.4000000358,754087.5,748035.664,748248.3000000119,748068.92,753896.907,1,40,,
trial,html.Screen,8_19_0,2023-11-17T22:35:32.042Z,,,,2,0.0057914759495055,0.0074667911845194,,0.05,false,ll,6430.193000023835,response,-0.9525123994269484,1.0309095606860421,-0.9843174456103407,-1.0779941204178511,1.15,-1.1868834896997174,low,low,,ISIC_0058723.JPG,,ISIC_0009642.JPG,29,false,0.12,hh,keypress(i),0,true,760327.5,760327.1000000238,753880.398,754088.6000000238,753896.907,760142.406,1,40,20,
sequence,flow.Sequence,8_19,2023-11-17T22:35:32.043Z,,,,,,,,,,,6430.193000023835,completion,,,,,,,low,low,,,,,,false,,,,,true,760328,760327.1000000238,753880.398,754088.6000000238,753896.907,760142.406,1,40,,
trial,html.Screen,8_20_0,2023-11-17T22:35:37.914Z,,,,2,-0.0112310719058792,0.0469047359904117,,0.05,true,lh,6056.894000011962,response,-0.7745647318095624,1.0309095606860421,-1.0343174456103408,1.1610302064435811,1.15,-1.1868834896997174,low,high,,ISIC_0068184.JPG,,ISIC_0033004.JPG,25,false,0.27000000000000013,lh,keypress(e),0,true,766199.6000000238,766199.3000000119,760125.958,760328.3000000119,760142.406,766020.53,1,40,21,
sequence,flow.Sequence,8_20,2023-11-17T22:35:37.915Z,,,,,,,,,,,6056.894000011962,completion,,,,,,,low,high,,,,,,false,,,,,true,766200.1000000238,766199.3000000119,760125.958,760328.1999999881,760142.406,766020.53,1,40,,
trial,html.Screen,8_21_0,2023-11-17T22:35:41.986Z,,,,2,,-0.0264544974620926,,0.05,false,hl,4250.770000011893,response,0.8092423703106274,1.0309095606860421,-1.0343174456103408,-1.1870093485714288,1.15,-1.1868834896997174,high,low,,ISIC_0056991.JPG,,ISIC_8592235.JPG,26,false,0.3600000000000002,hh,keypress(i),0,true,770271.6999999881,770271.3000000119,766003.988,766200.4000000358,766020.53,770078.506,1,40,22,
sequence,flow.Sequence,8_21,2023-11-17T22:35:41.987Z,,,,,,,,,,,4250.770000011893,completion,,,,,,,high,low,,,,,,false,,,,,true,770272.1999999881,770271.3000000119,766003.988,766200.3000000119,766020.53,770078.506,1,40,,
trial,html.Screen,8_22_0,2023-11-17T22:35:47.794Z,,,,2,0.0069555338059566,-0.0310100918136373,,0.05,false,ll,6000.493999999948,response,-0.9762504074572108,0.9351362883771042,-1.0343174456103408,-1.3073104524738453,1.15,-1.1868834896997174,low,low,,ISIC_0011177.JPG,,ISIC_5796736.JPG,32,false,0.13,hl,keypress(j),0,true,776079.3000000119,776079,770061.807,770272.5,770078.506,775906.43,1,40,23,
sequence,flow.Sequence,8_22,2023-11-17T22:35:47.795Z,,,,,,,,,,,6000.493999999948,completion,,,,,,,low,low,,,,,,false,,,,,true,776079.8000000119,776079,770061.807,770272.4000000358,770078.506,775906.43,1,40,,
trial,html.Screen,8_23_0,2023-11-17T22:35:50.929Z,,,,2,0.0050679133050021,-0.0009714874637896,,0.05,false,lh,3307.6700000237906,response,-1.2331439637486756,0.9351362883771042,-1.0843174456103408,0.9691143900156988,1.15,-1.1868834896997174,low,high,,ISIC_9848743.JPG,,ISIC_7877488.JPG,26,false,0.30000000000000016,ll,keypress(f),0,true,779214.1000000238,779214.1000000238,775873.015,776080.1000000238,775906.43,779029.165,1,40,24,
sequence,flow.Sequence,8_23,2023-11-17T22:35:50.929Z,,,,,,,,,,,3307.6700000237906,completion,,,,,,,low,high,,,,,,false,,,,,true,779214.3000000119,779214.1000000238,775873.015,776080.1000000238,775906.43,779029.165,1,40,,
trial,html.Screen,8_24_0,2023-11-17T22:35:57.018Z,,,,2,-0.0348234368746005,0.0236866303880924,,0.05,false,hl,6274.034999988042,response,0.705042352333099,0.9351362883771042,-1.0843174456103408,-0.9127244278050396,1.15,-1.1868834896997174,high,low,,ISIC_0011099.JPG,,ISIC_0787229.JPG,26,false,0.30000000000000016,lh,keypress(e),0,true,785303.5,785303.1999999881,779012.638,779214.4000000358,779029.165,785124.446,1,40,25,
sequence,flow.Sequence,8_24,2023-11-17T22:35:57.019Z,,,,,,,,,,,6274.034999988042,completion,,,,,,,high,low,,,,,,false,,,,,true,785304.1000000238,785303.1999999881,779012.638,779214.4000000358,779029.165,785124.446,1,40,,
trial,html.Screen,8_25_0,2023-11-17T22:36:08.778Z,,,,2,0.0389988030702649,0.0143212271490256,,0.05,false,ll,11938.854000011925,response,-0.9786457729523576,0.9851362883771042,-1.0843174456103408,-1.1189056385517386,1.15,-1.1868834896997174,low,low,,ISIC_0064669.JPG,,ISIC_3926019.JPG,29,false,0.13,hl,keypress(j),0,true,797063.6999999881,797063.3000000119,785107.868,785304.4000000358,785124.446,796880.573,1,40,26,
sequence,flow.Sequence,8_25,2023-11-17T22:36:08.779Z,,,,,,,,,,,11938.854000011925,completion,,,,,,,low,low,,,,,,false,,,,,true,797064.1999999881,797063.3000000119,785107.868,785304.3000000119,785124.446,796880.573,1,40,,
trial,html.Screen,8_26_0,2023-11-17T22:36:12.025Z,,,,2,,-0.0264544974620926,,0.05,true,hh,3429.527000023867,response,1.0377676235641546,0.9851362883771042,-1.1343174456103409,1.0836906473836847,1.15,-1.1868834896997174,high,high,,ISIC_0056991.JPG,,ISIC_0010540.JPG,29,false,0.1,hh,keypress(i),0,true,800310.3000000119,800310.1000000238,796863.931,797064.5,796880.573,800136.944,1,40,27,
sequence,flow.Sequence,8_26,2023-11-17T22:36:12.025Z,,,,,,,,,,,3429.527000023867,completion,,,,,,,high,high,,,,,,false,,,,,true,800310.4000000358,800310.1000000238,796863.931,797064.4000000358,796880.573,800136.944,1,40,,
trial,html.Screen,8_27_0,2023-11-17T22:36:16.019Z,,,,2,-0.0113873532168551,-0.0054999201556291,,0.05,false,hl,4166.755999988061,response,0.948927472020595,0.9851362883771042,-1.1343174456103409,-1.0660437155921598,1.15,-1.1868834896997174,high,low,,ISIC_8812621.JPG,,ISIC_5808758.JPG,27,false,0.3400000000000002,ll,keypress(f),0,true,804303.8000000119,804303.6999999881,800103.768,800310.5,800136.944,804111.327,1,40,28,
sequence,flow.Sequence,8_27,2023-11-17T22:36:16.019Z,,,,,,,,,,,4166.755999988061,completion,,,,,,,high,low,,,,,,false,,,,,true,804304,804303.6999999881,800103.768,800310.5,800136.944,804111.327,1,40,,
trial,html.Screen,8_28_0,2023-11-17T22:36:22.690Z,,,,2,0.0070725527271049,0.0049995141077508,,0.05,false,ll,6864.073000035714,response,-1.2012395086389958,1.0351362883771043,-1.1343174456103409,-1.0618985767073823,1.15,-1.1368834896997173,low,low,,ISIC_6124481.JPG,,ISIC_9876004.JPG,27,false,0.12,lh,keypress(e),0,true,810975.6000000238,810975.4000000358,804094.867,804304,804111.327,810791.009,1,40,29,
sequence,flow.Sequence,8_28,2023-11-17T22:36:22.691Z,,,,,,,,,,,6864.073000035714,completion,,,,,,,low,low,,,,,,false,,,,,true,810976.1000000238,810975.4000000358,804094.867,804304,804111.327,810791.009,1,40,,
trial,html.Screen,8_29_0,2023-11-17T22:36:27.883Z,,,,2,0.0070725527271049,0.0049995141077508,,0.05,false,lh,5376.391000035801,response,-1.2075172235545184,1.0351362883771043,-1.1343174456103409,0.9116724966267612,1.15,-1.1868834896997174,low,high,,ISIC_6124481.JPG,,ISIC_0024235.JPG,25,false,0.30000000000000016,ll,keypress(f),0,true,816167.6000000238,816167.4000000358,810774.355,810976.4000000358,810791.009,815984.45,1,40,30,
sequence,flow.Sequence,8_29,2023-11-17T22:36:27.883Z,,,,,,,,,,,5376.391000035801,completion,,,,,,,low,high,,,,,,false,,,,,true,816168.1999999881,816167.4000000358,810774.355,810976.3000000119,810791.009,815984.45,1,40,,
trial,html.Screen,8_30_0,2023-11-17T22:36:37.571Z,,,,2,-0.000047919190197942736,-0.0462652940855003,,0.05,true,lh,9871.050000000047,response,-0.9696118525781644,1.0351362883771043,-1.154378366096757,0.9244148283103414,1.15,-1.1868834896997174,low,high,,ISIC_0011507.JPG,,ISIC_7927525.JPG,25,false,0.31000000000000016,lh,keypress(e),0,true,825855.8000000119,825855.5,815967.909,816168.5,815984.45,825686.661,1,40,31,
sequence,flow.Sequence,8_30,2023-11-17T22:36:37.571Z,,,,,,,,,,,9871.050000000047,completion,,,,,,,low,high,,,,,,false,,,,,true,825856.3000000119,825855.5,815967.909,816168.4000000358,815984.45,825686.661,1,40,,
trial,html.Screen,8_31_0,2023-11-17T22:36:52.243Z,,,,2,0.0217698886732706,-0.0410870915161425,,0.05,false,hl,14840.939000023878,response,0.6864497754928831,1.0351362883771043,-1.154378366096757,-1.0456580051873738,1.15,-1.1868834896997174,high,low,,ISIC_0072173.JPG,,ISIC_0055388.JPG,25,false,0.3600000000000002,lh,keypress(e),0,true,840527.9000000358,840527.6000000238,825653.447,825856.6000000238,825686.661,840348.575,1,40,32,
sequence,flow.Sequence,8_31,2023-11-17T22:36:52.243Z,,,,,,,,,,,14840.939000023878,completion,,,,,,,high,low,,,,,,false,,,,,true,840528.4000000358,840527.6000000238,825653.447,825856.5,825686.661,840348.575,1,40,,
trial,html.Screen,8_32_0,2023-11-17T22:36:55.323Z,,,,2,-0.000047919190197942736,-0.0462652940855003,,0.05,true,hh,3258.8250000358094,response,1.0651492409820618,1.0851362883771043,-1.154378366096757,1.1862499256725747,1.15,-1.1868834896997174,high,high,,ISIC_0011507.JPG,,ISIC_0065421.JPG,30,false,0.11,hh,keypress(i),0,true,843607.8000000119,843607.4000000358,840331.896,840528.6000000238,840348.575,843421.148,1,40,33,
sequence,flow.Sequence,8_32,2023-11-17T22:36:55.323Z,,,,,,,,,,,3258.8250000358094,completion,,,,,,,high,high,,,,,,false,,,,,true,843608.4000000358,843607.4000000358,840331.896,840528.6000000238,840348.575,843421.148,1,40,,
trial,html.Screen,8_33_0,2023-11-17T22:36:58.299Z,,,,2,-0.0277178575053843,0.0395587463147856,,0.05,true,hh,3162.0519999880344,response,1.1254252603792554,1.0851362883771043,-1.154378366096757,1.0263116781284176,1.0756995833273182,-1.1868834896997174,high,high,,ISIC_0010807.JPG,,ISIC_0032420.JPG,27,false,0.1,hh,keypress(i),0,true,846583.6999999881,846583.1999999881,843404.536,843608.6999999881,843421.148,846410.336,1,40,34,
sequence,flow.Sequence,8_33,2023-11-17T22:36:58.299Z,,,,,,,,,,,3162.0519999880344,completion,,,,,,,high,high,,,,,,false,,,,,true,846584.1999999881,846583.1999999881,843404.536,843608.6000000238,843421.148,846410.336,1,40,,
trial,html.Screen,8_34_0,2023-11-17T22:37:09.715Z,,,,2,-0.0188047466661863,0.0288346930436979,,0.05,false,hl,11589.064000035753,response,0.948927472020595,1.0258684692538365,-1.154378366096757,-1.0660437155921598,1.0756995833273182,-1.1868834896997174,high,low,,ISIC_0014157.JPG,,ISIC_5808758.JPG,26,false,0.3600000000000002,lh,keypress(e),0,true,857999.6999999881,857999.4000000358,846377.032,846584.4000000358,846410.336,857815.859,1,40,35,
sequence,flow.Sequence,8_34,2023-11-17T22:37:09.715Z,,,,,,,,,,,11589.064000035753,completion,,,,,,,high,low,,,,,,false,,,,,true,858000.1999999881,857999.4000000358,846377.032,846584.4000000358,846410.336,857815.859,1,40,,
trial,html.Screen,8_35_0,2023-11-17T22:37:16.281Z,,,,2,0.039728379742806,-0.0228701131373768,,0.05,true,hh,6749.941000011866,response,0.9787884514439864,1.0758684692538365,-1.154378366096757,1.139528725910855,1.0756995833273182,-1.1868834896997174,high,high,,ISIC_0054073.JPG,,ISIC_0032726.JPG,28,false,0.1,hh,keypress(i),0,true,864565.9000000358,864565.8000000119,857799.297,858000.5,857815.859,864378.637,1,40,36,
sequence,flow.Sequence,8_35,2023-11-17T22:37:16.281Z,,,,,,,,,,,6749.941000011866,completion,,,,,,,high,high,,,,,,false,,,,,true,864566,864565.8000000119,857799.297,858000.4000000358,857815.859,864378.637,1,40,,
trial,html.Screen,8_36_0,2023-11-17T22:37:24.435Z,,,,2,-0.0277178575053843,0.0395587463147856,,0.05,true,hh,8340.963000023854,response,1.0005520482328611,1.0758684692538365,-1.154378366096757,1.0694936015783003,1.0091585886774206,-1.1868834896997174,high,high,,ISIC_0010807.JPG,,ISIC_0059891.JPG,28,false,0.1,hh,keypress(i),0,true,872719.9000000358,872719.6000000238,864362.049,864566,864378.637,872561.241,1,40,37,
sequence,flow.Sequence,8_36,2023-11-17T22:37:24.435Z,,,,,,,,,,,8340.963000023854,completion,,,,,,,high,high,,,,,,false,,,,,true,872720.5,872719.6000000238,864362.049,864566,864378.637,872561.241,1,40,,
trial,html.Screen,8_37_0,2023-11-17T22:37:30.714Z,,,,2,0.0050679133050021,-0.0009714874637896,,0.05,false,hl,6437.958999988041,response,0.7118141631588264,0.9850228249055808,-1.154378366096757,-1.0369885917487718,1.0091585886774206,-1.1868834896997174,high,low,,ISIC_9848743.JPG,,ISIC_6917681.JPG,27,false,0.3400000000000002,hh,keypress(i),0,true,878999.5,878999.1999999881,872511.105,872720.6999999881,872561.241,878806.736,1,40,38,
sequence,flow.Sequence,8_37,2023-11-17T22:37:30.715Z,,,,,,,,,,,6437.958999988041,completion,,,,,,,high,low,,,,,,false,,,,,true,879000,878999.1999999881,872511.105,872720.6999999881,872561.241,878806.736,1,40,,
trial,html.Screen,8_38_0,2023-11-17T22:37:39.907Z,,,,2,0.0116094682222121,-0.0258434522530318,,0.05,false,hh,9384.864000023808,response,0.8946880006769797,0.9850228249055808,-1.154378366096757,0.9198276163642348,1.0091585886774206,-1.1868834896997174,high,high,,ISIC_9239632.JPG,,ISIC_7840728.JPG,43,false,0.1,hl,keypress(j),0,true,888191.9000000358,888191.6000000238,878790.24,879000.3000000119,878806.736,888007.986,1,40,39,
sequence,flow.Sequence,8_38,2023-11-17T22:37:39.907Z,,,,,,,,,,,9384.864000023808,completion,,,,,,,high,high,,,,,,false,,,,,true,888192.4000000358,888191.6000000238,878790.24,879000.1999999881,878806.736,888007.986,1,40,,
trial,html.Screen,8_39_0,2023-11-17T22:37:51.899Z,,,,2,-0.000047919190197942736,-0.0462652940855003,,0.05,true,hl,12175.513999999966,response,0.948927472020595,0.753251081917903,-1.154378366096757,-1.0660437155921598,1.0591585886774206,-1.1868834896997174,high,low,,ISIC_0011507.JPG,,ISIC_5808758.JPG,26,false,0.2500000000000001,hl,keypress(j),0,true,900183.9000000358,900183.5,887991.371,888192.6999999881,888007.986,899997.957,1,40,40,
sequence,flow.Sequence,8_39,2023-11-17T22:37:51.899Z,,,,,,,,,,,12175.513999999966,completion,,,,,,,high,low,,,,,,false,,,,,true,900184.5,900183.5,887991.371,888192.6000000238,888007.986,899997.957,1,40,,
stair_loop,flow.Loop,8,2023-11-17T22:37:51.900Z,,,,,,,,,,,257653.33999999997,completion,,,,,,,,,,,,,,false,,,,,true,900184.9000000358,900183.5,642513.709,642726.1000000238,642530.16,899997.957,1,40,,
exp_instructions,html.Screen,9,2023-11-17T22:38:00.930Z,,,,,,,,,,,9216.042999999947,response,,,,,,,,,,,,,,,,continue,keypress(Space),,,909214.6000000238,909214,899981.27,900185,899997.957,909065.627,,,,
trial,html.Screen,10_0_0,2023-11-17T22:38:14.891Z,,,,1,0.007397293189458,0.0174716772037504,,0.05,false,hl,14110.0729999881,response,0.705042352333099,1.0017178360693957,-1.1218479058535493,-0.9127244278050396,1.1131866552345815,-1.1843834896997172,high,low,,ISIC_0056226.JPG,8,ISIC_0787229.JPG,26,false,0.3500000000000002,hh,keypress(i),0,false,923176.1000000238,923175.6999999881,909015.771,909214.9000000358,909065.627,922992.748,4,500,1,
break,html.Screen,10_0_1,2023-11-17T22:38:14.893Z,,,,,,,,,,,NaN,,,,,,,,high,low,,,,,,false,,,,,false,923177.6000000238,923177.1000000238,,923176.5,,922992.748,4,500,,
break_continue,html.Screen,10_0_2,2023-11-17T22:38:14.894Z,,,,,,,,,,,NaN,,,,,,,,high,low,,,,,,false,,,,,false,923178.5,923178.1000000238,,923177.8000000119,,922992.748,4,500,,
sequence,flow.Sequence,10_0,2023-11-17T22:38:14.894Z,,,,,,,,,,,14112.473000023863,completion,,,,,,,high,low,,,,,,false,,,,,false,923178.9000000358,923178.1000000238,909015.771,909214.9000000358,909065.627,922992.748,4,500,,
trial,html.Screen,10_1_0,2023-11-17T22:38:19.523Z,,,,1,-0.0348234368746005,0.0236866303880924,,0.05,true,ll,4814.35200002382,response,-1.0789197754694622,1.0017178360693957,-1.1218479058535493,-1.1654690806750023,1.1131866552345815,-1.1843834896997172,low,low,,ISIC_0011099.JPG,9,ISIC_1576437.JPG,28,false,0.14,ll,keypress(f),0,false,927807.6000000238,927807.1000000238,922976.078,923179,922992.748,927618.394,4,500,2,
break,html.Screen,10_1_1,2023-11-17T22:38:19.524Z,,,,,,,,,,,NaN,,,,,,,,low,low,,,,,,false,,,,,false,927809,927808.9000000358,,927808.1999999881,,927618.394,4,500,,
break_continue,html.Screen,10_1_2,2023-11-17T22:38:19.524Z,,,,,,,,,,,NaN,,,,,,,,low,low,,,,,,false,,,,,false,927809.3000000119,927809.1999999881,,927809.1000000238,,927618.394,4,500,,
sequence,flow.Sequence,10_1,2023-11-17T22:38:19.524Z,,,,,,,,,,,4816.451999988058,completion,,,,,,,low,low,,,,,,false,,,,,false,927809.4000000358,927809.1999999881,922976.078,923179,922992.748,927618.394,4,500,,
trial,html.Screen,10_2_0,2023-11-17T22:38:26.914Z,,,,1,,-0.0264544974620926,,0.05,true,hh,7579.90600001195,response,0.9357713502691224,1.0017178360693957,-1.1218479058535493,1.0696934992096478,1.1131866552345815,-1.1843834896997172,high,high,,ISIC_0056991.JPG,9,ISIC_0009886.JPG,33,false,0.1,hh,keypress(i),0,false,935198.5,935198.3000000119,927601.948,927809.5,927618.394,935016.169,4,500,3,
break,html.Screen,10_2_1,2023-11-17T22:38:26.915Z,,,,,,,,,,,NaN,,,,,,,,high,high,,,,,,false,,,,,false,935199.1000000238,935198.9000000358,,935198.6999999881,,935016.169,4,500,,
break_continue,html.Screen,10_2_2,2023-11-17T22:38:26.915Z,,,,,,,,,,,NaN,,,,,,,,high,high,,,,,,false,,,,,false,935199.5,935199.3000000119,,935199.1999999881,,935016.169,4,500,,
sequence,flow.Sequence,10_2,2023-11-17T22:38:26.916Z,,,,,,,,,,,7580.90600001195,completion,,,,,,,high,high,,,,,,false,,,,,false,935199.6999999881,935199.3000000119,927601.948,927809.5,927618.394,935016.169,4,500,,
trial,html.Screen,10_3_0,2023-11-17T22:38:31.299Z,,,,1,0.0329095507339554,-0.0382899749693245,,0.05,true,ll,4567.030999988085,response,-1.201100953917304,1.0017178360693957,-1.1218479058535493,-1.1751492358160105,1.1131866552345815,-1.1843834896997172,low,low,,ISIC_8812781.JPG,9,ISIC_0647224.JPG,28,false,0.14,ll,keypress(f),0,false,939583.6000000238,939583.1999999881,934999.653,935199.8000000119,935016.169,939408.021,4,500,4,
break,html.Screen,10_3_1,2023-11-17T22:38:31.301Z,,,,,,,,,,,NaN,,,,,,,,low,low,,,,,,false,,,,,false,939584.8000000119,939584.5,,939584,,939408.021,4,500,,
break_continue,html.Screen,10_3_2,2023-11-17T22:38:31.301Z,,,,,,,,,,,NaN,,,,,,,,low,low,,,,,,false,,,,,false,939585.6000000238,939585.3000000119,,939585.1000000238,,939408.021,4,500,,
sequence,flow.Sequence,10_3,2023-11-17T22:38:31.302Z,,,,,,,,,,,4569.1310000119265,completion,,,,,,,low,low,,,,,,false,,,,,false,939585.9000000358,939585.3000000119,934999.653,935199.8000000119,935016.169,939408.021,4,500,,
trial,html.Screen,10_4_0,2023-11-17T22:38:35.075Z,,,,1,-0.0097091270150747,0.0417921315885292,,0.05,false,lh,3951.079000023892,response,-1.2075172235545184,1.0017178360693957,-1.1218479058535493,0.9116724966267612,1.1131866552345815,-1.1843834896997172,low,high,,ISIC_3967213.JPG,9,ISIC_0024235.JPG,25,false,0.28000000000000014,ll,keypress(f),0,false,943359.5,943359.1000000238,939374.874,939586.1000000238,939408.021,943182.062,4,500,5,
break,html.Screen,10_4_1,2023-11-17T22:38:35.077Z,,,,,,,,,,,NaN,,,,,,,,low,high,,,,,,false,,,,,false,943360.6999999881,943360.4000000358,,943359.9000000358,,943182.062,4,500,,
break_continue,html.Screen,10_4_2,2023-11-17T22:38:35.077Z,,,,,,,,,,,NaN,,,,,,,,low,high,,,,,,false,,,,,false,943361.4000000358,943361.1999999881,,943360.9000000358,,943182.062,4,500,,
sequence,flow.Sequence,10_4,2023-11-17T22:38:35.078Z,,,,,,,,,,,3953.1789999881294,completion,,,,,,,low,high,,,,,,false,,,,,false,943361.6999999881,943361.1999999881,939374.874,939586.1000000238,939408.021,943182.062,4,500,,
trial,html.Screen,10_5_0,2023-11-17T22:38:42.220Z,,,,1,-0.0348234368746005,0.0236866303880924,,0.05,true,hh,7321.338000035728,response,1.101214461533281,1.0017178360693957,-1.1218479058535493,1.1849883512428183,1.1131866552345815,-1.1843834896997172,high,high,,ISIC_0011099.JPG,10,ISIC_0064943.JPG,33,false,0.1,hh,keypress(i),0,false,950503.6999999881,950503.4000000358,943148.713,943361.9000000358,943182.062,950329.248,4,500,6,
break,html.Screen,10_5_1,2023-11-17T22:38:42.221Z,,,,,,,,,,,NaN,,,,,,,,high,high,,,,,,false,,,,,false,950504.9000000358,950504.6999999881,,950504.1000000238,,950329.248,4,500,,
break_continue,html.Screen,10_5_2,2023-11-17T22:38:42.222Z,,,,,,,,,,,NaN,,,,,,,,high,high,,,,,,false,,,,,false,950505.6999999881,950505.4000000358,,950505.1000000238,,950329.248,4,500,,
sequence,flow.Sequence,10_5,2023-11-17T22:38:42.222Z,,,,,,,,,,,7323.338000035728,completion,,,,,,,high,high,,,,,,false,,,,,false,950505.9000000358,950505.4000000358,943148.713,943361.8000000119,943182.062,950329.248,4,500,,
trial,html.Screen,10_6_0,2023-11-17T22:38:50.204Z,,,,1,-0.0112310719058792,0.0469047359904117,,0.05,true,hl,8158.152000035741,response,0.705042352333099,1.0017178360693957,-1.1218479058535493,-0.9127244278050396,1.1131866552345815,-1.1843834896997172,high,low,,ISIC_0068184.JPG,9,ISIC_0787229.JPG,26,false,0.3500000000000002,hl,keypress(j),0,false,958487.6999999881,958487.4000000358,950295.977,950506.3000000119,950329.248,958294.871,4,500,7,
break,html.Screen,10_6_1,2023-11-17T22:38:50.205Z,,,,,,,,,,,NaN,,,,,,,,high,low,,,,,,false,,,,,false,958488.8000000119,958488.6999999881,,958488.1000000238,,958294.871,4,500,,
break_continue,html.Screen,10_6_2,2023-11-17T22:38:50.205Z,,,,,,,,,,,NaN,,,,,,,,high,low,,,,,,false,,,,,false,958489.6000000238,958489.4000000358,,958489.1000000238,,958294.871,4,500,,
sequence,flow.Sequence,10_6,2023-11-17T22:38:50.206Z,,,,,,,,,,,8160.152000035741,completion,,,,,,,high,low,,,,,,false,,,,,false,958489.8000000119,958489.4000000358,950295.977,950506.1999999881,950329.248,958294.871,4,500,,
trial,html.Screen,10_7_0,2023-11-17T22:38:58.053Z,,,,1,0.039728379742806,-0.0228701131373768,,0.05,false,ll,8041.729000023799,response,-1.057008495826831,1.0017178360693957,-1.1218479058535493,-1.1278122585028287,1.1131866552345815,-1.1843834896997172,low,low,,ISIC_0054073.JPG,9,ISIC_2819798.JPG,28,false,0.14,hh,keypress(i),0,false,966337.1000000238,966336.6000000238,958278.289,958490.1000000238,958294.871,966143.376,4,500,8,
break,html.Screen,10_7_1,2023-11-17T22:38:58.054Z,,,,,,,,,,,NaN,,,,,,,,low,low,,,,,,false,,,,,false,966338.4000000358,966338.1000000238,,966337.6000000238,,966143.376,4,500,,
break_continue,html.Screen,10_7_2,2023-11-17T22:38:58.055Z,,,,,,,,,,,NaN,,,,,,,,low,low,,,,,,false,,,,,false,966339.1999999881,966338.9000000358,,966338.6000000238,,966143.376,4,500,,
sequence,flow.Sequence,10_7,2023-11-17T22:38:58.055Z,,,,,,,,,,,8044.02900003572,completion,,,,,,,low,low,,,,,,false,,,,,false,966339.5,966338.9000000358,958278.289,958490.1000000238,958294.871,966143.376,4,500,,
trial,html.Screen,10_8_0,2023-11-17T22:39:01.508Z,,,,1,0.0070725527271049,0.0049995141077508,,0.05,true,hh,3647.8239999880316,response,0.9357713502691224,1.0017178360693957,-1.1218479058535493,1.0696934992096478,1.1131866552345815,-1.1843834896997172,high,high,,ISIC_6124481.JPG,8,ISIC_0009886.JPG,33,false,0.1,hh,keypress(i),0,false,969791.6000000238,969791.1999999881,966126.904,966339.8000000119,966143.376,969616.831,4,500,9,
break,html.Screen,10_8_1,2023-11-17T22:39:01.509Z,,,,,,,,,,,NaN,,,,,,,,high,high,,,,,,false,,,,,false,969792.9000000358,969792.6000000238,,969792,,969616.831,4,500,,
break_continue,html.Screen,10_8_2,2023-11-17T22:39:01.510Z,,,,,,,,,,,NaN,,,,,,,,high,high,,,,,,false,,,,,false,969793.6000000238,969793.4000000358,,969793.1000000238,,969616.831,4,500,,
sequence,flow.Sequence,10_8,2023-11-17T22:39:01.510Z,,,,,,,,,,,3650.0240000357153,completion,,,,,,,high,high,,,,,,false,,,,,false,969793.9000000358,969793.4000000358,966126.904,966339.6999999881,966143.376,969616.831,4,500,,
trial,html.Screen,10_9_0,2023-11-17T22:39:09.596Z,,,,1,-0.0159061451859594,-0.0296598845560212,,0.05,false,lh,8263.069000035757,response,-0.8487429103619056,1.0017178360693957,-1.1218479058535493,0.9778257804233036,1.1131866552345815,-1.1843834896997172,low,high,,ISIC_0072564.JPG,9,ISIC_4554863.JPG,25,false,0.28000000000000014,hl,keypress(j),0,false,977880.4000000358,977879.9000000358,969583.686,969794.1999999881,969616.831,977715.911,4,500,10,
break,html.Screen,10_9_1,2023-11-17T22:39:09.598Z,,,,,,,,,,,NaN,,,,,,,,low,high,,,,,,false,,,,,false,977881.6000000238,977881.3000000119,,977880.8000000119,,977715.911,4,500,,
break_continue,html.Screen,10_9_2,2023-11-17T22:39:09.598Z,,,,,,,,,,,NaN,,,,,,,,low,high,,,,,,false,,,,,false,977882.3000000119,977882.1000000238,,977881.8000000119,,977715.911,4,500,,
sequence,flow.Sequence,10_9,2023-11-17T22:39:09.599Z,,,,,,,,,,,8265.269000023836,completion,,,,,,,low,high,,,,,,false,,,,,false,977882.6000000238,977882.1000000238,969583.686,969794.1999999881,969616.831,977715.911,4,500,,
trial,html.Screen,10_10_0,2023-11-17T22:39:15.620Z,,,,1,0.0107854985447517,0.0478010417136109,,0.05,false,ll,6187.589000000036,response,-1.1642596483638106,1.0017178360693957,-1.1218479058535493,-1.109799097093339,1.1131866552345815,-1.1843834896997172,low,low,,ISIC_0010500.JPG,10,ISIC_0765584.JPG,28,false,0.14,lh,keypress(e),0,false,983903.8000000119,983903.5,977682.73,977882.9000000358,977715.911,983711.018,4,500,11,
break,html.Screen,10_10_1,2023-11-17T22:39:15.621Z,,,,,,,,,,,NaN,,,,,,,,low,low,,,,,,false,,,,,false,983905.1999999881,983904.8000000119,,983904.3000000119,,983711.018,4,500,,
break_continue,html.Screen,10_10_2,2023-11-17T22:39:15.622Z,,,,,,,,,,,NaN,,,,,,,,low,low,,,,,,false,,,,,false,983905.9000000358,983905.6999999881,,983905.3000000119,,983711.018,4,500,,
sequence,flow.Sequence,10_10,2023-11-17T22:39:15.622Z,,,,,,,,,,,6189.788999988115,completion,,,,,,,low,low,,,,,,false,,,,,false,983906.1999999881,983905.6999999881,977682.73,977882.8000000119,977715.911,983711.018,4,500,,
trial,html.Screen,10_11_0,2023-11-17T22:39:20.236Z,,,,1,-0.000047919190197942736,-0.0462652940855003,,0.05,true,ll,4808.582000023802,response,-1.0182453247598051,1.0017178360693957,-1.1218479058535493,-1.3136446508498152,1.1131866552345815,-1.1843834896997172,low,low,,ISIC_0011507.JPG,9,ISIC_2532039.JPG,28,false,0.14,ll,keypress(f),0,false,988519.9000000358,988519.6000000238,983694.433,983906.5,983711.018,988336.661,4,500,12,
break,html.Screen,10_11_1,2023-11-17T22:39:20.237Z,,,,,,,,,,,NaN,,,,,,,,low,low,,,,,,false,,,,,false,988521.1999999881,988520.9000000358,,988520.3000000119,,988336.661,4,500,,
break_continue,html.Screen,10_11_2,2023-11-17T22:39:20.238Z,,,,,,,,,,,NaN,,,,,,,,low,low,,,,,,false,,,,,false,988522,988521.6999999881,,988521.4000000358,,988336.661,4,500,,
sequence,flow.Sequence,10_11,2023-11-17T22:39:20.238Z,,,,,,,,,,,4810.681999988039,completion,,,,,,,low,low,,,,,,false,,,,,false,988522.1999999881,988521.6999999881,983694.433,983906.5,983711.018,988336.661,4,500,,
trial,html.Screen,10_12_0,2023-11-17T22:39:27.837Z,,,,1,-0.0113873532168551,-0.0054999201556291,,0.05,true,hh,7781.739000035799,response,1.0005520482328611,1.0017178360693957,-1.1218479058535493,1.0694936015783003,1.1131866552345815,-1.1843834896997172,high,high,,ISIC_8812621.JPG,9,ISIC_0059891.JPG,33,false,0.1,hh,keypress(i),0,false,996118.5,996118.4000000358,988319.894,988522.5,988336.661,995934.791,4,500,13,
break,html.Screen,10_12_1,2023-11-17T22:39:27.838Z,,,,,,,,,,,NaN,,,,,,,,high,high,,,,,,false,,,,,false,996119.1999999881,996119,,996118.6999999881,,995934.791,4,500,,
break_continue,html.Screen,10_12_2,2023-11-17T22:39:27.838Z,,,,,,,,,,,NaN,,,,,,,,high,high,,,,,,false,,,,,false,996119.6000000238,996119.5,,996119.3000000119,,995934.791,4,500,,
sequence,flow.Sequence,10_12,2023-11-17T22:39:27.839Z,,,,,,,,,,,7782.839000000036,completion,,,,,,,high,high,,,,,,false,,,,,false,996119.8000000119,996119.5,988319.894,988522.4000000358,988336.661,995934.791,4,500,,
trial,html.Screen,10_13_0,2023-11-17T22:39:33.239Z,,,,1,-0.0409338693593207,0.0072462710499874,,0.05,true,hh,5584.709000000032,response,1.0387488172228707,1.0017178360693957,-1.1218479058535493,1.186629690487006,1.1131866552345815,-1.1843834896997172,high,high,,ISIC_3608788.JPG,8,ISIC_0015390.JPG,33,false,0.1,hh,keypress(i),0,false,1001519.8000000119,1001519.5,995918.123,996119.9000000358,995934.791,1001328.559,4,500,14,
break,html.Screen,10_13_1,2023-11-17T22:39:33.240Z,,,,,,,,,,,NaN,,,,,,,,high,high,,,,,,false,,,,,false,1001521,1001520.8000000119,,1001520.1999999881,,1001328.559,4,500,,
break_continue,html.Screen,10_13_2,2023-11-17T22:39:33.241Z,,,,,,,,,,,NaN,,,,,,,,high,high,,,,,,false,,,,,false,1001521.8000000119,1001521.6000000238,,1001521.3000000119,,1001328.559,4,500,,
sequence,flow.Sequence,10_13,2023-11-17T22:39:33.241Z,,,,,,,,,,,5586.8090000238735,completion,,,,,,,high,high,,,,,,false,,,,,false,1001522.1000000238,1001521.6000000238,995918.123,996119.9000000358,995934.791,1001328.559,4,500,,
trial,html.Screen,10_14_0,2023-11-17T22:39:37.087Z,,,,1,-0.0409338693593207,0.0072462710499874,,0.05,true,ll,4039.0410000238335,response,-1.0316392011945703,1.0017178360693957,-1.1218479058535493,-1.1580619988377847,1.1131866552345815,-1.1843834896997172,low,low,,ISIC_3608788.JPG,8,ISIC_0054206.JPG,28,false,0.14,ll,keypress(f),0,false,1005367.9000000358,1005367.6000000238,1001312.101,1001522.4000000358,1001328.559,1005202.774,4,500,15,
break,html.Screen,10_14_1,2023-11-17T22:39:37.088Z,,,,,,,,,,,NaN,,,,,,,,low,low,,,,,,false,,,,,false,1005369.1999999881,1005368.9000000358,,1005368.4000000358,,1005202.774,4,500,,
break_continue,html.Screen,10_14_2,2023-11-17T22:39:37.089Z,,,,,,,,,,,NaN,,,,,,,,low,low,,,,,,false,,,,,false,1005369.9000000358,1005369.6999999881,,1005369.4000000358,,1005202.774,4,500,,
sequence,flow.Sequence,10_14,2023-11-17T22:39:37.089Z,,,,,,,,,,,4041.1409999880707,completion,,,,,,,low,low,,,,,,false,,,,,false,1005370.3000000119,1005369.6999999881,1001312.101,1001522.3000000119,1001328.559,1005202.774,4,500,,
trial,html.Screen,10_15_0,2023-11-17T22:39:42.998Z,,,,1,-0.0362376068089956,-0.047825070846155,,0.05,true,lh,6076.526000011945,response,-1.2331439637486756,1.0017178360693957,-1.1218479058535493,0.9691143900156988,1.1131866552345815,-1.1843834896997172,low,high,,ISIC_6985114.JPG,8,ISIC_7877488.JPG,25,false,0.28000000000000014,lh,keypress(e),0,false,1011279.6000000238,1011279.3000000119,1005169.42,1005370.5,1005202.774,1011097.554,4,500,16,
break,html.Screen,10_15_1,2023-11-17T22:39:43.000Z,,,,,,,,,,,NaN,,,,,,,,low,high,,,,,,false,,,,,false,1011280.9000000358,1011280.6000000238,,1011280,,1011097.554,4,500,,
break_continue,html.Screen,10_15_2,2023-11-17T22:39:43.000Z,,,,,,,,,,,NaN,,,,,,,,low,high,,,,,,false,,,,,false,1011281.5,1011281.3000000119,,1011281.1000000238,,1011097.554,4,500,,
sequence,flow.Sequence,10_15,2023-11-17T22:39:43.001Z,,,,,,,,,,,6078.526000011945,completion,,,,,,,low,high,,,,,,false,,,,,false,1011281.8000000119,1011281.3000000119,1005169.42,1005370.4000000358,1005202.774,1011097.554,4,500,,
trial,html.Screen,10_16_0,2023-11-17T22:39:48.943Z,,,,1,0.0027483411352856,0.0100996915276271,,0.05,false,lh,6126.445999999996,response,-0.858338058340649,1.0017178360693957,-1.1218479058535493,0.9540612223480284,1.1131866552345815,-1.1843834896997172,low,high,,ISIC_7364041.JPG,8,ISIC_8922893.JPG,25,false,0.28000000000000014,hh,keypress(i),0,false,1017224.3000000119,1017224,1011081.033,1011282.1000000238,1011097.554,1017042.463,4,500,17,
break,html.Screen,10_16_1,2023-11-17T22:39:48.944Z,,,,,,,,,,,NaN,,,,,,,,low,high,,,,,,false,,,,,false,1017225.5,1017225.1999999881,,1017224.6999999881,,1017042.463,4,500,,
break_continue,html.Screen,10_16_2,2023-11-17T22:39:48.945Z,,,,,,,,,,,NaN,,,,,,,,low,high,,,,,,false,,,,,false,1017226.1999999881,1017226,,1017225.8000000119,,1017042.463,4,500,,
sequence,flow.Sequence,10_16,2023-11-17T22:39:48.945Z,,,,,,,,,,,6128.445999999996,completion,,,,,,,low,high,,,,,,false,,,,,false,1017226.5,1017226,1011081.033,1011282,1011097.554,1017042.463,4,500,,
trial,html.Screen,10_17_0,2023-11-17T22:39:57.118Z,,,,1,0.0389988030702649,0.0143212271490256,,0.05,false,ll,8356.837000011932,response,-0.9859190680307316,1.0017178360693957,-1.1218479058535493,-1.0904756837966545,1.1131866552345815,-1.1843834896997172,low,low,,ISIC_0064669.JPG,8,ISIC_0063151.JPG,28,false,0.14,lh,keypress(e),0,false,1025399.6999999881,1025399.3000000119,1017025.985,1017226.8000000119,1017042.463,1025225.065,4,500,18,
break,html.Screen,10_17_1,2023-11-17T22:39:57.120Z,,,,,,,,,,,NaN,,,,,,,,low,low,,,,,,false,,,,,false,1025400.9000000358,1025400.6999999881,,1025400.1000000238,,1025225.065,4,500,,
break_continue,html.Screen,10_17_2,2023-11-17T22:39:57.120Z,,,,,,,,,,,NaN,,,,,,,,low,low,,,,,,false,,,,,false,1025401.6999999881,1025401.5,,1025401.1999999881,,1025225.065,4,500,,
sequence,flow.Sequence,10_17,2023-11-17T22:39:57.121Z,,,,,,,,,,,8359.037000000011,completion,,,,,,,low,low,,,,,,false,,,,,false,1025402,1025401.5,1017025.985,1017226.6999999881,1017042.463,1025225.065,4,500,,
trial,html.Screen,10_18_0,2023-11-17T22:40:03.351Z,,,,1,-0.013431314305098,0.0140597582944232,,0.05,false,hl,6406.535000023898,response,0.661371304428672,1.0017178360693957,-1.1218479058535493,-1.0907423478129648,1.1131866552345815,-1.1843834896997172,high,low,,ISIC_0069617.JPG,9,ISIC_6860222.JPG,26,false,0.3500000000000002,hh,keypress(i),0,false,1031631.9000000358,1031631.6000000238,1025191.898,1025402.3000000119,1025225.065,1031437.244,4,500,19,
break,html.Screen,10_18_1,2023-11-17T22:40:03.352Z,,,,,,,,,,,NaN,,,,,,,,high,low,,,,,,false,,,,,false,1031633.3000000119,1031632.9000000358,,1031632.3000000119,,1031437.244,4,500,,
break_continue,html.Screen,10_18_2,2023-11-17T22:40:03.353Z,,,,,,,,,,,NaN,,,,,,,,high,low,,,,,,false,,,,,false,1031634,1031633.8000000119,,1031633.5,,1031437.244,4,500,,
sequence,flow.Sequence,10_18,2023-11-17T22:40:03.353Z,,,,,,,,,,,6408.735000011977,completion,,,,,,,high,low,,,,,,false,,,,,false,1031634.3000000119,1031633.8000000119,1025191.898,1025402.1000000238,1025225.065,1031437.244,4,500,,
trial,html.Screen,10_19_0,2023-11-17T22:40:09.990Z,,,,1,-0.0097091270150747,0.0417921315885292,,0.05,true,hh,6834.056000011973,response,0.934130994804294,1.0017178360693957,-1.1218479058535493,1.0454436589399478,1.1131866552345815,-1.1843834896997172,high,high,,ISIC_3967213.JPG,9,ISIC_0053916.JPG,33,false,0.1,hh,keypress(i),0,false,1038271.6000000238,1038271.3000000119,1031420.615,1031634.5,1031437.244,1038083.41,4,500,20,
break,html.Screen,10_19_1,2023-11-17T22:40:09.991Z,,,,,,,,,,,NaN,,,,,,,,high,high,,,,,,false,,,,,false,1038272.6999999881,1038272.4000000358,,1038271.9000000358,,1038083.41,4,500,,
break_continue,html.Screen,10_19_2,2023-11-17T22:40:09.992Z,,,,,,,,,,,NaN,,,,,,,,high,high,,,,,,false,,,,,false,1038273.4000000358,1038273.1999999881,,1038272.9000000358,,1038083.41,4,500,,
sequence,flow.Sequence,10_19,2023-11-17T22:40:09.992Z,,,,,,,,,,,6835.955999988131,completion,,,,,,,high,high,,,,,,false,,,,,false,1038273.6000000238,1038273.1999999881,1031420.615,1031634.4000000358,1031437.244,1038083.41,4,500,,
trial,html.Screen,10_20_0,2023-11-17T22:40:14.087Z,,,,1,0.0363437082783146,0.0333332186217051,,0.05,true,ll,4284.089999999967,response,-1.0789197754694622,1.0017178360693957,-1.1218479058535493,-1.1654690806750023,1.1131866552345815,-1.1843834896997172,low,low,,ISIC_3314555.JPG,9,ISIC_1576437.JPG,28,false,0.14,ll,keypress(f),0,false,1042367.9000000358,1042367.5,1038066.689,1038273.9000000358,1038083.41,1042174.808,4,500,21,
break,html.Screen,10_20_1,2023-11-17T22:40:14.088Z,,,,,,,,,,,NaN,,,,,,,,low,low,,,,,,false,,,,,false,1042369,1042368.6999999881,,1042368.1999999881,,1042174.808,4,500,,
break_continue,html.Screen,10_20_2,2023-11-17T22:40:14.089Z,,,,,,,,,,,NaN,,,,,,,,low,low,,,,,,false,,,,,false,1042369.8000000119,1042369.5,,1042369.3000000119,,1042174.808,4,500,,
sequence,flow.Sequence,10_20,2023-11-17T22:40:14.089Z,,,,,,,,,,,4286.089999999967,completion,,,,,,,low,low,,,,,,false,,,,,false,1042370,1042369.5,1038066.689,1038273.9000000358,1038083.41,1042174.808,4,500,,
trial,html.Screen,10_21_0,2023-11-17T22:40:20.511Z,,,,1,-0.0348234368746005,0.0236866303880924,,0.05,true,ll,6616.692000000039,response,-1.1653123206802332,1.0017178360693957,-1.1218479058535493,-1.2976858999596654,1.1131866552345815,-1.1843834896997172,low,low,,ISIC_0011099.JPG,9,ISIC_0071508.JPG,28,false,0.14,ll,keypress(f),0,false,1048791.800000012,1048791.5,1042158.23,1042370.1999999881,1042174.808,1048603.915,4,500,22,
break,html.Screen,10_21_1,2023-11-17T22:40:20.512Z,,,,,,,,,,,NaN,,,,,,,,low,low,,,,,,false,,,,,false,1048793.1000000238,1048792.800000012,,1048792.199999988,,1048603.915,4,500,,
break_continue,html.Screen,10_21_2,2023-11-17T22:40:20.513Z,,,,,,,,,,,NaN,,,,,,,,low,low,,,,,,false,,,,,false,1048793.9000000358,1048793.6000000238,,1048793.4000000358,,1048603.915,4,500,,
sequence,flow.Sequence,10_21,2023-11-17T22:40:20.513Z,,,,,,,,,,,6618.792000023881,completion,,,,,,,low,low,,,,,,false,,,,,false,1048794.199999988,1048793.6000000238,1042158.23,1042370.1999999881,1042174.808,1048603.915,4,500,,
trial,html.Screen,10_22_0,2023-11-17T22:40:23.594Z,,,,1,0.0363437082783146,0.0333332186217051,,0.05,true,ll,3267.6850000238046,response,-1.0717785279820962,1.0017178360693957,-1.1218479058535493,-1.1267239445830604,1.1131866552345815,-1.1843834896997172,low,low,,ISIC_3314555.JPG,9,ISIC_9948815.JPG,28,false,0.14,ll,keypress(f),0,false,1051872,1051871.6000000238,1048587.344,1048794.5,1048603.915,1051694.291,4,500,23,
break,html.Screen,10_22_1,2023-11-17T22:40:23.595Z,,,,,,,,,,,NaN,,,,,,,,low,low,,,,,,false,,,,,false,1051873.199999988,1051872.9000000358,,1051872.4000000358,,1051694.291,4,500,,
break_continue,html.Screen,10_22_2,2023-11-17T22:40:23.596Z,,,,,,,,,,,NaN,,,,,,,,low,low,,,,,,false,,,,,false,1051874.1000000238,1051873.800000012,,1051873.6000000238,,1051694.291,4,500,,
sequence,flow.Sequence,10_22,2023-11-17T22:40:23.596Z,,,,,,,,,,,3269.8850000118837,completion,,,,,,,low,low,,,,,,false,,,,,false,1051874.4000000358,1051873.800000012,1048587.344,1048794.4000000358,1048603.915,1051694.291,4,500,,
trial,html.Screen,10_23_0,2023-11-17T22:40:32.202Z,,,,1,-0.000047919190197942736,-0.0462652940855003,,0.05,true,hl,8785.309000023874,response,0.8947611078712571,1.0017178360693957,-1.1218479058535493,-0.8960964505004638,1.1131866552345815,-1.1843834896997172,high,low,,ISIC_0011507.JPG,9,ISIC_6441128.JPG,26,false,0.3500000000000002,hl,keypress(j),0,false,1060479.9000000358,1060479.6000000238,1051660.065,1051874.699999988,1051694.291,1060310.015,4,500,24,
break,html.Screen,10_23_1,2023-11-17T22:40:32.203Z,,,,,,,,,,,NaN,,,,,,,,high,low,,,,,,false,,,,,false,1060481.199999988,1060480.800000012,,1060480.300000012,,1060310.015,4,500,,
break_continue,html.Screen,10_23_2,2023-11-17T22:40:32.204Z,,,,,,,,,,,NaN,,,,,,,,high,low,,,,,,false,,,,,false,1060481.9000000358,1060481.699999988,,1060481.4000000358,,1060310.015,4,500,,
sequence,flow.Sequence,10_23,2023-11-17T22:40:32.204Z,,,,,,,,,,,8787.40899998811,completion,,,,,,,high,low,,,,,,false,,,,,false,1060482.199999988,1060481.699999988,1051660.065,1051874.5,1051694.291,1060310.015,4,500,,
trial,html.Screen,10_24_0,2023-11-17T22:40:36.713Z,,,,1,-0.0159061451859594,-0.0296598845560212,,0.05,false,hl,4681.385000035865,response,0.8092423703106274,1.0017178360693957,-1.1218479058535493,-1.1870093485714288,1.1131866552345815,-1.1843834896997172,high,low,,ISIC_0072564.JPG,9,ISIC_8592235.JPG,26,false,0.3500000000000002,hh,keypress(i),0,false,1064991.699999988,1064991.4000000358,1060276.816,1060482.5,1060310.015,1064802.15,4,500,25,
break,html.Screen,10_24_1,2023-11-17T22:40:36.715Z,,,,,,,,,,,NaN,,,,,,,,high,low,,,,,,false,,,,,false,1064992.699999988,1064992.5,,1064992,,1064802.15,4,500,,
break_continue,html.Screen,10_24_2,2023-11-17T22:40:36.715Z,,,,,,,,,,,NaN,,,,,,,,high,low,,,,,,false,,,,,false,1064993.4000000358,1064993.1000000238,,1064992.9000000358,,1064802.15,4,500,,
sequence,flow.Sequence,10_24,2023-11-17T22:40:36.715Z,,,,,,,,,,,4683.085000023944,completion,,,,,,,high,low,,,,,,false,,,,,false,1064993.699999988,1064993.1000000238,1060276.816,1060482.4000000358,1060310.015,1064802.15,4,500,,
trial,html.Screen,10_25_0,2023-11-17T22:40:40.161Z,,,,1,0.0057914759495055,0.0074667911845194,,0.05,true,hh,3637.049999988172,response,0.9090432487160188,1.0017178360693957,-1.1218479058535493,1.033319341099857,1.1131866552345815,-1.1843834896997172,high,high,,ISIC_0058723.JPG,9,ISIC_4119029.JPG,33,false,0.1,hh,keypress(i),0,false,1068439.5,1068439.199999988,1064785.503,1064993.9000000358,1064802.15,1068258.839,4,500,26,
break,html.Screen,10_25_1,2023-11-17T22:40:40.162Z,,,,,,,,,,,NaN,,,,,,,,high,high,,,,,,false,,,,,false,1068440.6000000238,1068440.300000012,,1068439.9000000358,,1068258.839,4,500,,
break_continue,html.Screen,10_25_2,2023-11-17T22:40:40.163Z,,,,,,,,,,,NaN,,,,,,,,high,high,,,,,,false,,,,,false,1068441.300000012,1068441.1000000238,,1068440.800000012,,1068258.839,4,500,,
sequence,flow.Sequence,10_25,2023-11-17T22:40:40.163Z,,,,,,,,,,,3638.950000023935,completion,,,,,,,high,high,,,,,,false,,,,,false,1068441.5,1068441.1000000238,1064785.503,1064993.9000000358,1064802.15,1068258.839,4,500,,
trial,html.Screen,10_26_0,2023-11-17T22:40:44.922Z,,,,1,0.0050679133050021,-0.0009714874637896,,0.05,true,hh,4940.961000012001,response,1.0377676235641546,1.0017178360693957,-1.1218479058535493,1.0836906473836847,1.1131866552345815,-1.1843834896997172,high,high,,ISIC_9848743.JPG,9,ISIC_0010540.JPG,33,false,0.1,hh,keypress(i),0,false,1073200.199999988,1073199.800000012,1068242.357,1068441.699999988,1068258.839,1073018.102,4,500,27,
break,html.Screen,10_26_1,2023-11-17T22:40:44.923Z,,,,,,,,,,,NaN,,,,,,,,high,high,,,,,,false,,,,,false,1073201.4000000358,1073201,,1073200.5,,1073018.102,4,500,,
break_continue,html.Screen,10_26_2,2023-11-17T22:40:44.924Z,,,,,,,,,,,NaN,,,,,,,,high,high,,,,,,false,,,,,false,1073202.199999988,1073201.9000000358,,1073201.6000000238,,1073018.102,4,500,,
sequence,flow.Sequence,10_26,2023-11-17T22:40:44.924Z,,,,,,,,,,,4943.061000035843,completion,,,,,,,high,high,,,,,,false,,,,,false,1073202.5,1073201.9000000358,1068242.357,1068441.699999988,1068258.839,1073018.102,4,500,,
trial,html.Screen,10_27_0,2023-11-17T22:40:51.986Z,,,,1,-0.0051189696037511,0.0396625911332438,,0.05,false,hl,7245.398000000045,response,0.7871162143493278,1.0017178360693957,-1.1218479058535493,-0.8429329800778957,1.1131866552345815,-1.1843834896997172,high,low,,ISIC_9742891.JPG,9,ISIC_3439215.JPG,26,false,0.3500000000000002,ll,keypress(f),0,false,1080263.9000000358,1080263.5,1073001.65,1073202.699999988,1073018.102,1080081.857,4,500,28,
break,html.Screen,10_27_1,2023-11-17T22:40:51.987Z,,,,,,,,,,,NaN,,,,,,,,high,low,,,,,,false,,,,,false,1080265.1000000238,1080264.800000012,,1080264.199999988,,1080081.857,4,500,,
break_continue,html.Screen,10_27_2,2023-11-17T22:40:51.988Z,,,,,,,,,,,NaN,,,,,,,,high,low,,,,,,false,,,,,false,1080265.9000000358,1080265.6000000238,,1080265.300000012,,1080081.857,4,500,,
sequence,flow.Sequence,10_27,2023-11-17T22:40:51.988Z,,,,,,,,,,,7247.498000023887,completion,,,,,,,high,low,,,,,,false,,,,,false,1080266.199999988,1080265.6000000238,1073001.65,1073202.6000000238,1073018.102,1080081.857,4,500,,
trial,html.Screen,10_28_0,2023-11-17T22:40:59.570Z,,,,1,-0.0362376068089956,-0.047825070846155,,0.05,false,ll,7765.943000011845,response,-1.0406934755278734,1.0017178360693957,-1.1218479058535493,-1.2406966347110775,1.1131866552345815,-1.1843834896997172,low,low,,ISIC_6985114.JPG,9,ISIC_2687641.JPG,28,false,0.14,hl,keypress(j),0,false,1087848.199999988,1087847.800000012,1080065.391,1080266.5,1080081.857,1087679.979,4,500,29,
break,html.Screen,10_28_1,2023-11-17T22:40:59.571Z,,,,,,,,,,,NaN,,,,,,,,low,low,,,,,,false,,,,,false,1087849.4000000358,1087849.199999988,,1087848.6000000238,,1087679.979,4,500,,
break_continue,html.Screen,10_28_2,2023-11-17T22:40:59.572Z,,,,,,,,,,,NaN,,,,,,,,low,low,,,,,,false,,,,,false,1087850.1000000238,1087849.9000000358,,1087849.699999988,,1087679.979,4,500,,
sequence,flow.Sequence,10_28,2023-11-17T22:40:59.572Z,,,,,,,,,,,7768.043000035686,completion,,,,,,,low,low,,,,,,false,,,,,false,1087850.4000000358,1087849.9000000358,1080065.391,1080266.300000012,1080081.857,1087679.979,4,500,,
trial,html.Screen,10_29_0,2023-11-17T22:41:07.385Z,,,,1,0.0116094682222121,-0.0258434522530318,,0.05,false,hl,7982.621000023792,response,0.661371304428672,1.0017178360693957,-1.1218479058535493,-1.0907423478129648,1.1131866552345815,-1.1843834896997172,high,low,,ISIC_9239632.JPG,9,ISIC_6860222.JPG,26,false,0.3500000000000002,hh,keypress(i),0,false,1095662.699999988,1095662.6000000238,1087646.516,1087850.699999988,1087679.979,1095511.877,4,500,30,
break,html.Screen,10_29_1,2023-11-17T22:41:07.385Z,,,,,,,,,,,NaN,,,,,,,,high,low,,,,,,false,,,,,false,1095663.199999988,1095663.1000000238,,1095662.9000000358,,1095511.877,4,500,,
break_continue,html.Screen,10_29_2,2023-11-17T22:41:07.385Z,,,,,,,,,,,NaN,,,,,,,,high,low,,,,,,false,,,,,false,1095663.6000000238,1095663.5,,1095663.4000000358,,1095511.877,4,500,,
sequence,flow.Sequence,10_29,2023-11-17T22:41:07.386Z,,,,,,,,,,,7983.52099999995,completion,,,,,,,high,low,,,,,,false,,,,,false,1095663.699999988,1095663.5,1087646.516,1087850.699999988,1087679.979,1095511.877,4,500,,
trial,html.Screen,10_30_0,2023-11-17T22:41:14.042Z,,,,1,0.0324770283903853,0.0249968632204382,,0.05,false,hl,6808.023000035668,response,0.948927472020595,1.0017178360693957,-1.1218479058535493,-1.0660437155921598,1.1131866552345815,-1.1843834896997172,high,low,,ISIC_7266462.JPG,8,ISIC_5808758.JPG,26,false,0.3500000000000002,ll,keypress(f),0,false,1102320.300000012,1102319.9000000358,1095461.8,1095663.800000012,1095511.877,1102142.397,4,500,31,
break,html.Screen,10_30_1,2023-11-17T22:41:14.043Z,,,,,,,,,,,NaN,,,,,,,,high,low,,,,,,false,,,,,false,1102321.4000000358,1102321.199999988,,1102320.699999988,,1102142.397,4,500,,
break_continue,html.Screen,10_30_2,2023-11-17T22:41:14.044Z,,,,,,,,,,,NaN,,,,,,,,high,low,,,,,,false,,,,,false,1102322.1000000238,1102321.9000000358,,1102321.699999988,,1102142.397,4,500,,
sequence,flow.Sequence,10_30,2023-11-17T22:41:14.044Z,,,,,,,,,,,6810.023000035668,completion,,,,,,,high,low,,,,,,false,,,,,false,1102322.5,1102321.9000000358,1095461.8,1095663.800000012,1095511.877,1102142.397,4,500,,
trial,html.Screen,10_31_0,2023-11-17T22:41:19.306Z,,,,1,0.0085520978188085,-0.0464691161264081,,0.05,true,lh,5441.203000023728,response,-1.331700944308701,1.0017178360693957,-1.1218479058535493,0.9395196143259436,1.1131866552345815,-1.1843834896997172,low,high,,ISIC_0758797.JPG,9,ISIC_1668831.JPG,25,false,0.28000000000000014,lh,keypress(e),0,false,1107583.9000000358,1107583.6000000238,1102108.265,1102322.6000000238,1102142.397,1107401.695,4,500,32,
break,html.Screen,10_31_1,2023-11-17T22:41:19.307Z,,,,,,,,,,,NaN,,,,,,,,low,high,,,,,,false,,,,,false,1107585.1000000238,1107584.800000012,,1107584.300000012,,1107401.695,4,500,,
break_continue,html.Screen,10_31_2,2023-11-17T22:41:19.308Z,,,,,,,,,,,NaN,,,,,,,,low,high,,,,,,false,,,,,false,1107585.699999988,1107585.5,,1107585.300000012,,1107401.695,4,500,,
sequence,flow.Sequence,10_31,2023-11-17T22:41:19.308Z,,,,,,,,,,,5443.102999999886,completion,,,,,,,low,high,,,,,,false,,,,,false,1107586.1000000238,1107585.5,1102108.265,1102322.6000000238,1102142.397,1107401.695,4,500,,
trial,html.Screen,10_32_0,2023-11-17T22:41:22.186Z,,,,1,0.0389988030702649,0.0143212271490256,,0.05,true,hh,3061.7050000356976,response,1.0351900568634125,1.0017178360693957,-1.1218479058535493,1.060448537312289,1.1131866552345815,-1.1843834896997172,high,high,,ISIC_0064669.JPG,9,ISIC_4377208.JPG,33,false,0.1,hh,keypress(i),0,false,1110463.699999988,1110463.4000000358,1107385.154,1107586.300000012,1107401.695,1110290.646,4,500,33,
break,html.Screen,10_32_1,2023-11-17T22:41:22.187Z,,,,,,,,,,,NaN,,,,,,,,high,high,,,,,,false,,,,,false,1110464.800000012,1110464.5,,1110464.1000000238,,1110290.646,4,500,,
break_continue,html.Screen,10_32_2,2023-11-17T22:41:22.187Z,,,,,,,,,,,NaN,,,,,,,,high,high,,,,,,false,,,,,false,1110465.6000000238,1110465.4000000358,,1110465.1000000238,,1110290.646,4,500,,
sequence,flow.Sequence,10_32,2023-11-17T22:41:22.188Z,,,,,,,,,,,3063.7050000356976,completion,,,,,,,high,high,,,,,,false,,,,,false,1110465.9000000358,1110465.4000000358,1107385.154,1107586.199999988,1107401.695,1110290.646,4,500,,
trial,html.Screen,10_33_0,2023-11-17T22:41:28.421Z,,,,1,-0.0188047466661863,0.0288346930436979,,0.05,false,hl,6405.154000011971,response,0.991146183030456,1.0017178360693957,-1.1218479058535493,-0.9949639823722534,1.1131866552345815,-1.1843834896997172,high,low,,ISIC_0014157.JPG,9,ISIC_6342224.JPG,26,false,0.3500000000000002,ll,keypress(f),0,false,1116696.1000000238,1116695.800000012,1110257.444,1110466.199999988,1110290.646,1116519.439,4,500,34,
break,html.Screen,10_33_1,2023-11-17T22:41:28.422Z,,,,,,,,,,,NaN,,,,,,,,high,low,,,,,,false,,,,,false,1116697.4000000358,1116697.1000000238,,1116696.6000000238,,1116519.439,4,500,,
break_continue,html.Screen,10_33_2,2023-11-17T22:41:28.423Z,,,,,,,,,,,NaN,,,,,,,,high,low,,,,,,false,,,,,false,1116698.1000000238,1116697.9000000358,,1116697.699999988,,1116519.439,4,500,,
sequence,flow.Sequence,10_33,2023-11-17T22:41:28.423Z,,,,,,,,,,,6407.254000035813,completion,,,,,,,high,low,,,,,,false,,,,,false,1116698.4000000358,1116697.9000000358,1110257.444,1110466.1000000238,1110290.646,1116519.439,4,500,,
trial,html.Screen,10_34_0,2023-11-17T22:41:35.805Z,,,,1,-0.0134764727102299,-0.0033499036460912,,0.05,false,lh,7559.96100003575,response,-0.9579209317488,1.0017178360693957,-1.1218479058535493,1.0147487101263497,1.1131866552345815,-1.1843834896997172,low,high,,ISIC_0009998.JPG,9,ISIC_8124482.JPG,25,false,0.28000000000000014,hh,keypress(i),0,false,1124079.9000000358,1124079.4000000358,1116486.011,1116698.699999988,1116519.439,1123900.551,4,500,35,
break,html.Screen,10_34_1,2023-11-17T22:41:35.806Z,,,,,,,,,,,NaN,,,,,,,,low,high,,,,,,false,,,,,false,1124081,1124080.699999988,,1124080.199999988,,1123900.551,4,500,,
break_continue,html.Screen,10_34_2,2023-11-17T22:41:35.807Z,,,,,,,,,,,NaN,,,,,,,,low,high,,,,,,false,,,,,false,1124081.9000000358,1124081.6000000238,,1124081.300000012,,1123900.551,4,500,,
sequence,flow.Sequence,10_34,2023-11-17T22:41:35.807Z,,,,,,,,,,,7562.161000023829,completion,,,,,,,low,high,,,,,,false,,,,,false,1124082.199999988,1124081.6000000238,1116486.011,1116698.6000000238,1116519.439,1123900.551,4,500,,
trial,html.Screen,10_35_0,2023-11-17T22:41:40.981Z,,,,1,-0.0134764727102299,-0.0033499036460912,,0.05,true,hh,5355.449000000022,response,1.101346104814838,1.0017178360693957,-1.1218479058535493,1.1225813067473052,1.1131866552345815,-1.1843834896997172,high,high,,ISIC_0009998.JPG,9,ISIC_8175453.JPG,33,false,0.1,hh,keypress(i),0,false,1129256.4000000358,1129256,1123883.871,1124082.4000000358,1123900.551,1129077.222,4,500,36,
break,html.Screen,10_35_1,2023-11-17T22:41:40.982Z,,,,,,,,,,,NaN,,,,,,,,high,high,,,,,,false,,,,,false,1129257.6000000238,1129257.300000012,,1129256.800000012,,1129077.222,4,500,,
break_continue,html.Screen,10_35_2,2023-11-17T22:41:40.983Z,,,,,,,,,,,NaN,,,,,,,,high,high,,,,,,false,,,,,false,1129258.5,1129258.199999988,,1129257.9000000358,,1129077.222,4,500,,
sequence,flow.Sequence,10_35,2023-11-17T22:41:40.984Z,,,,,,,,,,,5357.648999988101,completion,,,,,,,high,high,,,,,,false,,,,,false,1129258.800000012,1129258.199999988,1123883.871,1124082.4000000358,1123900.551,1129077.222,4,500,,
trial,html.Screen,10_36_0,2023-11-17T22:41:46.869Z,,,,1,-0.013431314305098,0.0140597582944232,,0.05,false,hl,6066.477999988012,response,0.7870237732709365,1.0017178360693957,-1.1218479058535493,-0.9172955251119376,1.1131866552345815,-1.1843834896997172,high,low,,ISIC_0069617.JPG,8,ISIC_0057716.JPG,26,false,0.3500000000000002,hh,keypress(i),0,false,1135144,1135143.699999988,1129044.07,1129259,1129077.222,1134955.332,4,500,37,
break,html.Screen,10_36_1,2023-11-17T22:41:46.870Z,,,,,,,,,,,NaN,,,,,,,,high,low,,,,,,false,,,,,false,1135145.199999988,1135144.9000000358,,1135144.4000000358,,1134955.332,4,500,,
break_continue,html.Screen,10_36_2,2023-11-17T22:41:46.871Z,,,,,,,,,,,NaN,,,,,,,,high,low,,,,,,false,,,,,false,1135146,1135145.699999988,,1135145.4000000358,,1134955.332,4,500,,
sequence,flow.Sequence,10_36,2023-11-17T22:41:46.871Z,,,,,,,,,,,6068.477999988012,completion,,,,,,,high,low,,,,,,false,,,,,false,1135146.199999988,1135145.699999988,1129044.07,1129258.9000000358,1129077.222,1134955.332,4,500,,
trial,html.Screen,10_37_0,2023-11-17T22:41:51.989Z,,,,1,-0.0277178575053843,0.0395587463147856,,0.05,false,ll,5308.668000000063,response,-1.0858641668099058,1.0017178360693957,-1.1218479058535493,-1.1638942560200525,1.1131866552345815,-1.1843834896997172,low,low,,ISIC_0010807.JPG,9,ISIC_5439597.JPG,28,false,0.14,lh,keypress(e),0,false,1140264.4000000358,1140264,1134938.773,1135146.5,1134955.332,1140081.997,4,500,38,
break,html.Screen,10_37_1,2023-11-17T22:41:51.990Z,,,,,,,,,,,NaN,,,,,,,,low,low,,,,,,false,,,,,false,1140265.6000000238,1140265.300000012,,1140264.800000012,,1140081.997,4,500,,
break_continue,html.Screen,10_37_2,2023-11-17T22:41:51.991Z,,,,,,,,,,,NaN,,,,,,,,low,low,,,,,,false,,,,,false,1140266.4000000358,1140266.1000000238,,1140265.9000000358,,1140081.997,4,500,,
sequence,flow.Sequence,10_37,2023-11-17T22:41:51.992Z,,,,,,,,,,,5310.768000023905,completion,,,,,,,low,low,,,,,,false,,,,,false,1140266.699999988,1140266.1000000238,1134938.773,1135146.4000000358,1134955.332,1140081.997,4,500,,
