sender,sender_type,sender_id,timestamp,meta,,age,blockNo,c1,c2,condition,control_tolerance,correct,correctResponse,duration,ended_on,f1,f1_high,f1_low,f2,f2_high,f2_low,feature_level1,feature_level2,gender,img_left,img_reveal,img_right,n_target_images,practice,range_tolerance,response,response_action,selection_duration,staircase,time_commit,time_end,time_render,time_run,time_show,time_switch,total_blocks,total_trials,trialNo,url
informed_consent,html.Screen,0,2023-11-17T21:36:08.614Z,"{""labjs_version"":""20.2.4"",""labjs_build"":{""flavor"":""development"",""commit"":""f5b4a49f956347addd546a832a3327688c2c0fef""},""location"":""https://labjs.felixhenninger.com/api/labjs_preview/index.html"",""userAgent"":""Mozilla/5.0 (Windows NT 10.0; Win64; x64) AppleWebKit/537.36 (KHTML, like Gecko) Chrome/119.0.0.0 Safari/537.36"",""platform"":""Win32"",""language"":""en-US"",""locale"":""en-US"",""timeZone"":""America/Chicago"",""timezoneOffset"":360,""screen_width"":1680,""screen_height"":1050,""scroll_width"":825,""scroll_height"":888,""window_innerWidth"":825,""window_innerHeight"":936,""devicePixelRatio"":1}",,,,,,,,,,10585.376,response,,,,,,,,,,,,,,,,consent,click button,,,11181.600000023842,11173.5,571.436,558.4000000953674,588.124,11175.286,,,,{}
Demography form,html.Form,1,2023-11-17T21:36:15.982Z,,,18,,,,,,,,7374.714,form submission,,,,,,,,,female,,,,,,,,,,,18550.200000047684,18550,11158.635,11181.800000071526,11175.286,18573.256,,,,
Welcome,html.Screen,2,2023-11-17T21:36:35.838Z,,,,,,,"[""bor"",""col""]",,,,19832.144000095366,response,,,,,,,,,,,,,,,,continue,click button,,,38406,38405.40000009537,18556.328,18550.200000047684,18573.256,38428.421,,,,
demo_instructions,html.Screen,3,2023-11-17T21:37:06.662Z,,,,,,,,,,,30800.979000095365,response,,,,,,,,,,,,,,,,continue,click button,,,69230,69229.40000009537,38411.667,38406.10000002384,38428.421,69254.891,,,,
trial,html.Screen,4_0_0,2023-11-17T21:37:15.084Z,,,,0,0.9544693251394116,-1.0727539917203766,,,true,lh,8396.709000023839,response,-1.0887164761389951,1.2,-1.2,1.5357518752548716,1.2,-1.2,low,high,,ISIC_0055147.JPG,,ISIC_0028127.JPG,26,true,0.4500000000000003,lh,keypress(e),100,false,77651.70000004768,77651.60000002384,69221.74,69230.10000002384,69254.891,77671.228,1,16,1,
sequence,flow.Sequence,4_0,2023-11-17T21:37:15.084Z,,,,,,,,,,,8396.709000023839,completion,,,,,,,low,high,,,,,,true,,,,,false,77651.90000009537,77651.60000002384,69221.74,69230.10000002384,69254.891,77671.228,1,16,,
trial,html.Screen,4_1_0,2023-11-17T21:37:22.863Z,,,,0,1.168911077628813,-1.2181838235193114,,,true,lh,7759.672000095365,response,-0.8034318937720549,1.2,-1.2,1.0024917298189338,1.2,-1.2,low,high,,ISIC_7358691.JPG,,ISIC_0032766.JPG,26,true,0.4500000000000003,lh,keypress(e),100,false,85431.10000002384,85430.90000009537,77654.587,77652,77671.228,85453.036,1,16,2,
sequence,flow.Sequence,4_1,2023-11-17T21:37:22.863Z,,,,,,,,,,,7759.672000095365,completion,,,,,,,low,high,,,,,,true,,,,,false,85431.40000009537,85430.90000009537,77654.587,77652,77671.228,85453.036,1,16,,
trial,html.Screen,4_2_0,2023-11-17T21:37:29.318Z,,,,0,0.9617893983965208,-0.9453006131304652,,,true,lh,6432.864000095375,response,-1.0329549150636406,1.2,-1.2,1.01584100839286,1.2,-1.2,low,high,,ISIC_4229473.JPG,,ISIC_0054670.JPG,26,true,0.4500000000000003,lh,keypress(e),100,false,91886,91885.90000009537,85436.403,85431.5,85453.036,91915.638,1,16,3,
sequence,flow.Sequence,4_2,2023-11-17T21:37:29.318Z,,,,,,,,,,,6432.864000095375,completion,,,,,,,low,high,,,,,,true,,,,,false,91886.30000007153,91885.90000009537,85436.403,85431.5,85453.036,91915.638,1,16,,
trial,html.Screen,4_3_0,2023-11-17T21:37:34.027Z,,,,0,1.0685314915436992,-0.8203833713472237,,,true,lh,4679.462000023836,response,-0.7883321712536753,1.2,-1.2,1.0011430756825364,1.2,-1.2,low,high,,ISIC_0029374.JPG,,ISIC_9828853.JPG,26,true,0.4500000000000003,lh,keypress(e),100,false,96595.30000007153,96595.10000002384,91898.925,91886.40000009537,91915.638,96625.062,1,16,4,
sequence,flow.Sequence,4_3,2023-11-17T21:37:34.028Z,,,,,,,,,,,4679.462000023836,completion,,,,,,,low,high,,,,,,true,,,,,false,96595.5,96595.10000002384,91898.925,91886.40000009537,91915.638,96625.062,1,16,,
trial,html.Screen,4_4_0,2023-11-17T21:37:52.098Z,,,,0,1.0769708994456726,1.2196503533725178,,,true,ll,18040.23800007152,response,-1.089291922030205,1.2,-1.2,-1.539318535703043,1.2,-1.2,low,low,,ISIC_0063824.JPG,,ISIC_0001923.JPG,203,true,0.40000000000000024,ll,keypress(f),100,false,114665.5,114665.30000007153,96608.271,96595.60000002384,96625.062,114693.287,1,16,5,
sequence,flow.Sequence,4_4,2023-11-17T21:37:52.098Z,,,,,,,,,,,18040.23800007152,completion,,,,,,,low,low,,,,,,true,,,,,false,114665.70000004768,114665.30000007153,96608.271,96595.5,96625.062,114693.287,1,16,,
trial,html.Screen,4_5_0,2023-11-17T21:38:00.009Z,,,,0,1.2749714218614645,1.1578619398362149,,,true,ll,7882.513000071529,response,-1.2246024683501224,1.2,-1.2,-1.2904526351590244,1.2,-1.2,low,low,,ISIC_0024999.JPG,,ISIC_4730066.JPG,25,true,0.14,ll,keypress(f),100,false,122576.20000004768,122575.80000007153,114676.594,114665.70000004768,114693.287,122591.942,1,16,6,
sequence,flow.Sequence,4_5,2023-11-17T21:38:00.009Z,,,,,,,,,,,7882.513000071529,completion,,,,,,,low,low,,,,,,true,,,,,false,122576.70000004768,122575.80000007153,114676.594,114665.70000004768,114693.287,122591.942,1,16,,
trial,html.Screen,4_6_0,2023-11-17T21:38:05.513Z,,,,0,1.1392972253022884,1.208510423375335,,,true,ll,5488.35800007153,response,-1.109799097093339,1.2,-1.2,-1.091507924157762,1.2,-1.2,low,low,,ISIC_0046526.JPG,,ISIC_0765584.JPG,25,true,0.14,ll,keypress(f),100,false,128080.5,128080.30000007153,122575.284,122577,122591.942,128102.705,1,16,7,
sequence,flow.Sequence,4_6,2023-11-17T21:38:05.513Z,,,,,,,,,,,5488.35800007153,completion,,,,,,,low,low,,,,,,true,,,,,false,128080.70000004768,128080.30000007153,122575.284,122576.90000009537,122591.942,128102.705,1,16,,
trial,html.Screen,4_7_0,2023-11-17T21:38:11.505Z,,,,0,1.2194553326562725,1.2381726989215684,,,true,ll,5969.695000095366,response,-1.077278111180185,1.2,-1.2,-1.1530533996184025,1.2,-1.2,low,low,,ISIC_0068975.JPG,,ISIC_9525136.JPG,25,true,0.14,ll,keypress(f),100,false,134072.70000004768,134072.40000009537,128086.006,128080.80000007153,128102.705,134097.654,1,16,8,
sequence,flow.Sequence,4_7,2023-11-17T21:38:11.505Z,,,,,,,,,,,5969.695000095366,completion,,,,,,,low,low,,,,,,true,,,,,false,134072.90000009537,134072.40000009537,128086.006,128080.70000004768,128102.705,134097.654,1,16,,
trial,html.Screen,4_8_0,2023-11-17T21:38:15.893Z,,,,0,-1.0887164761389951,1.5357518752548716,,,false,hl,4362.446000023832,response,0.8987343013179191,1.2,-1.2,-0.8149073454566363,1.2,-1.2,high,low,,ISIC_0028127.JPG,,ISIC_0472513.JPG,27,true,0.40000000000000024,ll,keypress(f),100,false,138460.20000004768,138460.10000002384,134081.004,134073,134097.654,138489.734,1,16,9,
sequence,flow.Sequence,4_8,2023-11-17T21:38:15.893Z,,,,,,,,,,,4362.446000023832,completion,,,,,,,high,low,,,,,,true,,,,,false,138460.40000009537,138460.10000002384,134081.004,134073,134097.654,138489.734,1,16,,
trial,html.Screen,4_9_0,2023-11-17T21:38:21.641Z,,,,0,-0.8472024037189965,0.986370061404882,,,true,hl,5718.066000071529,response,0.7856143618373893,1.2,-1.2,-1.0273608829432213,1.2,-1.2,high,low,,ISIC_0054355.JPG,,ISIC_9303849.JPG,40,true,0.4500000000000003,hl,keypress(j),100,false,144208.10000002384,144207.80000007153,138472.865,138460.5,138489.734,144234.035,1,16,10,
sequence,flow.Sequence,4_9,2023-11-17T21:38:21.641Z,,,,,,,,,,,5718.066000071529,completion,,,,,,,high,low,,,,,,true,,,,,false,144208.30000007153,144207.80000007153,138472.865,138460.5,138489.734,144234.035,1,16,,
trial,html.Screen,4_10_0,2023-11-17T21:38:24.901Z,,,,0,-1.0453124399868816,0.8986747280184286,,,true,hl,3233.865000095364,response,0.8307508446051526,1.2,-1.2,-1.1707575338936729,1.2,-1.2,high,low,,ISIC_0013967.JPG,,ISIC_0028606.JPG,40,true,0.4500000000000003,hl,keypress(j),100,false,147468,147467.90000009537,144217.391,144208.5,144234.035,147490.383,1,16,11,
sequence,flow.Sequence,4_10,2023-11-17T21:38:24.901Z,,,,,,,,,,,3233.865000095364,completion,,,,,,,high,low,,,,,,true,,,,,false,147468.30000007153,147467.90000009537,144217.391,144208.5,144234.035,147490.383,1,16,,
trial,html.Screen,4_11_0,2023-11-17T21:38:31.262Z,,,,0,-1.2362557973341337,1.2548266183352603,,,true,hl,6339.116999999998,response,0.9244148283103414,1.2,-1.2,-0.9712966348713286,1.2,-1.2,high,low,,ISIC_0033886.JPG,,ISIC_7927525.JPG,40,true,0.4500000000000003,hl,keypress(j),100,false,153829.70000004768,153829.5,147473.715,147468.40000009537,147490.383,153853.009,1,16,12,
sequence,flow.Sequence,4_11,2023-11-17T21:38:31.263Z,,,,,,,,,,,6339.116999999998,completion,,,,,,,high,low,,,,,,true,,,,,false,153830.10000002384,153829.5,147473.715,147468.30000007153,147490.383,153853.009,1,16,,
trial,html.Screen,4_12_0,2023-11-17T21:38:37.993Z,,,,0,-1.2100527057059796,-1.2159112471537263,,,true,hh,6706.991000000009,response,0.8949188450526304,1.2,-1.2,0.9064772839637844,1.2,-1.2,high,high,,ISIC_0008055.JPG,,ISIC_0057067.JPG,359,true,0.4500000000000003,hh,keypress(i),100,false,160560.10000002384,160560,153836.101,153830.20000004768,153853.009,160582.642,1,16,13,
sequence,flow.Sequence,4_12,2023-11-17T21:38:37.993Z,,,,,,,,,,,6706.991000000009,completion,,,,,,,high,high,,,,,,true,,,,,false,160560.40000009537,160560,153836.101,153830.10000002384,153853.009,160582.642,1,16,,
trial,html.Screen,4_13_0,2023-11-17T21:38:41.648Z,,,,0,-1.2253191093367526,-1.241905252673026,,,true,hh,3632.158000071533,response,1.2691569063625474,1.2,-1.2,1.1264228993232308,1.2,-1.2,high,high,,ISIC_1195689.JPG,,ISIC_4980656.JPG,40,true,0.14,hh,keypress(i),100,false,164215.10000002384,164214.80000007153,160565.81,160560.40000009537,160582.642,164239.816,1,16,14,
sequence,flow.Sequence,4_13,2023-11-17T21:38:41.648Z,,,,,,,,,,,3632.158000071533,completion,,,,,,,high,high,,,,,,true,,,,,false,164215.30000007153,164214.80000007153,160565.81,160560.40000009537,160582.642,164239.816,1,16,,
trial,html.Screen,4_14_0,2023-11-17T21:38:44.379Z,,,,0,-1.2946277435220357,-1.255157480204324,,,true,hh,2706.084000095376,response,1.219634566983089,1.2,-1.2,1.0648460966097275,1.2,-1.2,high,high,,ISIC_1870309.JPG,,ISIC_0030552.JPG,40,true,0.14,hh,keypress(i),100,false,166946,166945.90000009537,164222.97,164215.5,164239.816,166978.309,1,16,15,
sequence,flow.Sequence,4_14,2023-11-17T21:38:44.379Z,,,,,,,,,,,2706.084000095376,completion,,,,,,,high,high,,,,,,true,,,,,false,166946.20000004768,166945.90000009537,164222.97,164215.5,164239.816,166978.309,1,16,,
trial,html.Screen,4_15_0,2023-11-17T21:38:48.608Z,,,,0,-1.274752206258116,-1.2988509166163749,,,true,hh,4196.7910000238335,response,1.1017564906891342,1.2,-1.2,1.293633394635193,1.2,-1.2,high,high,,ISIC_6704623.JPG,,ISIC_0029026.JPG,40,true,0.14,hh,keypress(i),100,false,171175.40000009537,171175.10000002384,166961.605,166946.30000007153,166978.309,171203.174,1,16,16,
sequence,flow.Sequence,4_15,2023-11-17T21:38:48.608Z,,,,,,,,,,,4196.7910000238335,completion,,,,,,,high,high,,,,,,true,,,,,false,171175.5,171175.10000002384,166961.605,166946.30000007153,166978.309,171203.174,1,16,,
demonstration_loop,flow.Loop,4,2023-11-17T21:38:48.608Z,,,,,,,,,,,101920.20900002384,completion,,,,,,,,,,,,,,true,,,,,false,171175.70000004768,171175.10000002384,69221.74,69230.10000002384,69254.891,171203.174,1,16,,
practice_instructions,html.Screen,5,2023-11-17T21:39:18.303Z,,,,,,,,,,,29658.126000071527,response,,,,,,,,,,,,,,,,continue,click button,,,200869.80000007153,200861.30000007153,171186.453,171175.70000004768,171203.174,200877.545,,,,
trial,html.Screen,6_0_0,2023-11-17T21:39:33.359Z,,,,1,1.1117876838408909,1.2957497771092716,,,true,ll,15048.454999999987,response,-1.151139267005652,1.2,-1.2,-1.0838749490501327,1.2,-1.2,low,low,,ISIC_0061915.JPG,,ISIC_0002566.JPG,25,true,0.14,ll,keypress(f),0,false,215926.20000004768,215926,200860.913,200869.90000009537,200877.545,215956.869,1,40,1,
sequence,flow.Sequence,6_0,2023-11-17T21:39:33.359Z,,,,,,,,,,,15048.454999999987,completion,,,,,,,low,low,,,,,,true,,,,,false,215926.40000009537,215926,200860.913,200869.90000009537,200877.545,215956.869,1,40,,
trial,html.Screen,6_1_0,2023-11-17T21:39:37.766Z,,,,1,0.9089402323867112,-0.8034544077281132,,,true,lh,4376.731000023836,response,-0.7518277461369444,1.2,-1.2,1.3860759020802074,1.2,-1.2,low,high,,ISIC_3585381.JPG,,ISIC_7967397.JPG,26,true,0.4500000000000003,lh,keypress(e),0,false,220333.70000004768,220333.60000002384,215923.375,215926.5,215956.869,220348.913,1,40,2,
sequence,flow.Sequence,6_1,2023-11-17T21:39:37.767Z,,,,,,,,,,,4376.731000023836,completion,,,,,,,low,high,,,,,,true,,,,,false,220333.90000009537,220333.60000002384,215923.375,215926.5,215956.869,220348.913,1,40,,
trial,html.Screen,6_2_0,2023-11-17T21:39:45.687Z,,,,1,1.1936751736668425,1.2584308630745344,,,true,ll,7904.987000095367,response,-0.8764429645297487,1.2,-1.2,-0.9319282086996942,1.2,-1.2,low,low,,ISIC_0061265.JPG,,ISIC_9538004.JPG,203,true,0.40000000000000024,ll,keypress(f),0,false,228254.10000002384,228253.90000009537,220332.149,220333.90000009537,220348.913,228280.836,1,40,3,
sequence,flow.Sequence,6_2,2023-11-17T21:39:45.687Z,,,,,,,,,,,7904.987000095367,completion,,,,,,,low,low,,,,,,true,,,,,false,228254.20000004768,228253.90000009537,220332.149,220333.90000009537,220348.913,228280.836,1,40,,
trial,html.Screen,6_3_0,2023-11-17T21:39:53.463Z,,,,1,0.8307508446051526,-1.1707575338936729,,,false,lh,7749.464000071515,response,-0.8472024037189965,1.2,-1.2,0.986370061404882,1.2,-1.2,low,high,,ISIC_0028606.JPG,,ISIC_0054355.JPG,26,true,0.4500000000000003,hh,keypress(i),0,false,236030.5,236030.30000007153,228247.492,228254.30000007153,228280.836,236046.008,1,40,4,
sequence,flow.Sequence,6_3,2023-11-17T21:39:53.464Z,,,,,,,,,,,7749.464000071515,completion,,,,,,,low,high,,,,,,true,,,,,false,236030.80000007153,236030.30000007153,228247.492,228254.20000004768,228280.836,236046.008,1,40,,
trial,html.Screen,6_4_0,2023-11-17T21:40:00.295Z,,,,1,-1.252716660627398,-1.183977080937476,,,true,hh,6816.292000071524,response,1.0059228250363343,1.2,-1.2,1.3139143825328468,1.2,-1.2,high,high,,ISIC_0034194.JPG,,ISIC_0033479.JPG,288,true,0.40000000000000024,hh,keypress(i),0,false,242862.5,242862.30000007153,236029.408,236031,236046.008,242892.577,1,40,5,
sequence,flow.Sequence,6_4,2023-11-17T21:40:00.296Z,,,,,,,,,,,6816.292000071524,completion,,,,,,,high,high,,,,,,true,,,,,false,242862.80000007153,242862.30000007153,236029.408,236030.90000009537,236046.008,242892.577,1,40,,
trial,html.Screen,6_5_0,2023-11-17T21:40:10.840Z,,,,1,-0.8830264383952469,0.8635562538060516,,,true,hl,10514.123000047693,response,0.8987343013179191,1.2,-1.2,-0.8149073454566363,1.2,-1.2,high,low,,ISIC_0032258.JPG,,ISIC_0472513.JPG,27,true,0.40000000000000024,hl,keypress(j),0,false,253407,253406.70000004768,242859.285,242862.90000009537,242892.577,253413.024,1,40,6,
sequence,flow.Sequence,6_5,2023-11-17T21:40:10.840Z,,,,,,,,,,,10514.123000047693,completion,,,,,,,high,low,,,,,,true,,,,,false,253407.30000007153,253406.70000004768,242859.285,242862.90000009537,242892.577,253413.024,1,40,,
trial,html.Screen,6_6_0,2023-11-17T21:40:16.407Z,,,,1,1.1441767540243375,1.0949087392471728,,,true,ll,5560.8760000953625,response,-0.7629009971296202,1.2,-1.2,-0.961622576439298,1.2,-1.2,low,low,,ISIC_0054146.JPG,,ISIC_4237064.JPG,265,true,0.4500000000000003,ll,keypress(f),0,false,258974.10000002384,258973.90000009537,253396.389,253407.5,253413.024,258990.535,1,40,7,
sequence,flow.Sequence,6_6,2023-11-17T21:40:16.407Z,,,,,,,,,,,5560.8760000953625,completion,,,,,,,low,low,,,,,,true,,,,,false,258974.20000004768,258973.90000009537,253396.389,253407.5,253413.024,258990.535,1,40,,
trial,html.Screen,6_7_0,2023-11-17T21:40:23.976Z,,,,1,-1.2578167348825195,0.8371819698254004,,,false,hl,7552.065000023838,response,1.0685314915436992,1.2,-1.2,-0.8203833713472237,1.2,-1.2,high,low,,ISIC_9613570.JPG,,ISIC_0029374.JPG,27,true,0.40000000000000024,ll,keypress(f),0,false,266542.8000000715,266542.60000002384,258974.019,258974.30000007153,258990.535,266555.291,1,40,8,
sequence,flow.Sequence,6_7,2023-11-17T21:40:23.976Z,,,,,,,,,,,7552.065000023838,completion,,,,,,,high,low,,,,,,true,,,,,false,266543.10000002384,266542.60000002384,258974.019,258974.30000007153,258990.535,266555.291,1,40,,
trial,html.Screen,6_8_0,2023-11-17T21:40:27.728Z,,,,1,1.2691569063625474,1.1264228993232308,,,true,ll,3739.2089999999735,response,-1.1903131706835868,1.2,-1.2,-0.8022149865267544,1.2,-1.2,low,low,,ISIC_4980656.JPG,,ISIC_1233104.JPG,265,true,0.4500000000000003,ll,keypress(f),0,false,270294.8000000715,270294.5,266538.748,266543.3000000715,266555.291,270312.674,1,40,9,
sequence,flow.Sequence,6_8,2023-11-17T21:40:27.728Z,,,,,,,,,,,3739.2089999999735,completion,,,,,,,low,low,,,,,,true,,,,,false,270295.10000002384,270294.5,266538.748,266543.2000000477,266555.291,270312.674,1,40,,
trial,html.Screen,6_9_0,2023-11-17T21:40:32.207Z,,,,1,1.0769708994456726,1.2196503533725178,,,true,ll,4460.926000023843,response,-1.274417010249866,1.2,-1.2,-1.0725495669014795,1.2,-1.2,low,low,,ISIC_0063824.JPG,,ISIC_8849004.JPG,25,true,0.14,ll,keypress(f),0,false,274773.8000000715,274773.60000002384,270279.413,270295.40000009537,270312.674,274787.953,1,40,10,
sequence,flow.Sequence,6_9,2023-11-17T21:40:32.207Z,,,,,,,,,,,4460.926000023843,completion,,,,,,,low,low,,,,,,true,,,,,false,274773.90000009537,274773.60000002384,270279.413,270295.3000000715,270312.674,274787.953,1,40,,
trial,html.Screen,6_10_0,2023-11-17T21:40:39.040Z,,,,1,-1.2054195059663604,0.7760611240296147,,,true,hl,6818.5470000000205,response,0.8987343013179191,1.2,-1.2,-0.8149073454566363,1.2,-1.2,high,low,,ISIC_8712559.JPG,,ISIC_0472513.JPG,27,true,0.40000000000000024,hl,keypress(j),0,false,281606.90000009537,281606.5,274771.426,274774,274787.953,281617.874,1,40,11,
sequence,flow.Sequence,6_10,2023-11-17T21:40:39.040Z,,,,,,,,,,,6818.5470000000205,completion,,,,,,,high,low,,,,,,true,,,,,false,281607.3000000715,281606.5,274771.426,274774,274787.953,281617.874,1,40,,
trial,html.Screen,6_11_0,2023-11-17T21:40:48.144Z,,,,1,-1.2219550761700546,-1.2809901875733454,,,false,hh,9092.62599999999,response,0.9405746940315332,1.2,-1.2,0.7847785203585506,1.2,-1.2,high,high,,ISIC_6463417.JPG,,ISIC_0034237.JPG,359,true,0.4500000000000003,lh,keypress(e),0,false,290710.8000000715,290710.5,281601.237,281607.5,281617.874,290752.316,1,40,12,
sequence,flow.Sequence,6_11,2023-11-17T21:40:48.144Z,,,,,,,,,,,9092.62599999999,completion,,,,,,,high,high,,,,,,true,,,,,false,290711.2000000477,290710.5,281601.237,281607.40000009537,281617.874,290752.316,1,40,,
trial,html.Screen,6_12_0,2023-11-17T21:40:53.623Z,,,,1,-1.2362557973341337,1.2548266183352603,,,true,hl,5437.384000047692,response,0.9138670886161264,1.2,-1.2,-0.8414121478342018,1.2,-1.2,high,low,,ISIC_0033886.JPG,,ISIC_6709052.JPG,27,true,0.40000000000000024,hl,keypress(j),0,false,296189.7000000477,296189.7000000477,290702.378,290711.5,290752.316,296196.221,1,40,13,
sequence,flow.Sequence,6_12,2023-11-17T21:40:53.623Z,,,,,,,,,,,5437.384000047692,completion,,,,,,,high,low,,,,,,true,,,,,false,296189.8000000715,296189.7000000477,290702.378,290711.40000009537,290752.316,296196.221,1,40,,
trial,html.Screen,6_13_0,2023-11-17T21:41:01.047Z,,,,1,-1.077278111180185,-1.1530533996184025,,,true,hh,7417.379000023822,response,0.8081647819600901,1.2,-1.2,1.1160850003056948,1.2,-1.2,high,high,,ISIC_9525136.JPG,,ISIC_0033476.JPG,359,true,0.4500000000000003,hh,keypress(i),0,false,303613.7000000477,303613.60000002384,296179.51,296189.90000009537,296196.221,303627.593,1,40,14,
sequence,flow.Sequence,6_13,2023-11-17T21:41:01.047Z,,,,,,,,,,,7417.379000023822,completion,,,,,,,high,high,,,,,,true,,,,,false,303613.90000009537,303613.60000002384,296179.51,296189.8000000715,296196.221,303627.593,1,40,,
trial,html.Screen,6_14_0,2023-11-17T21:41:15.000Z,,,,1,1.136677654701082,1.2647850993872314,,,true,ll,13939.307000095374,response,-1.2246024683501224,1.2,-1.2,-1.2904526351590244,1.2,-1.2,low,low,,ISIC_0015436.JPG,,ISIC_4730066.JPG,25,true,0.14,ll,keypress(f),0,false,317567.2000000477,317566.90000009537,303610.758,303613.90000009537,303627.593,317587.863,1,40,15,
sequence,flow.Sequence,6_14,2023-11-17T21:41:15.001Z,,,,,,,,,,,13939.307000095374,completion,,,,,,,low,low,,,,,,true,,,,,false,317567.60000002384,317566.90000009537,303610.758,303613.90000009537,303627.593,317587.863,1,40,,
trial,html.Screen,6_15_0,2023-11-17T21:41:22.567Z,,,,1,-0.7883321712536753,1.0011430756825364,,,true,hl,7545.9370000715135,response,0.9089402323867112,1.2,-1.2,-0.8034544077281132,1.2,-1.2,high,low,,ISIC_9828853.JPG,,ISIC_3585381.JPG,27,true,0.40000000000000024,hl,keypress(j),0,false,325133.90000009537,325133.8000000715,317554.311,317567.8000000715,317587.863,325135.881,1,40,16,
sequence,flow.Sequence,6_15,2023-11-17T21:41:22.567Z,,,,,,,,,,,7545.9370000715135,completion,,,,,,,high,low,,,,,,true,,,,,false,325134.10000002384,325133.8000000715,317554.311,317567.7000000477,317587.863,325135.881,1,40,,
trial,html.Screen,6_16_0,2023-11-17T21:41:29.687Z,,,,1,-1.1989130276493527,-1.2666195460149832,,,true,hh,7117.919000071532,response,1.0980226451001782,1.2,-1.2,0.9421419207281913,1.2,-1.2,high,high,,ISIC_0031705.JPG,,ISIC_0060481.JPG,359,true,0.4500000000000003,hh,keypress(i),0,false,332253.90000009537,332253.8000000715,325119.351,325134.2000000477,325135.881,332266.415,1,40,17,
sequence,flow.Sequence,6_16,2023-11-17T21:41:29.687Z,,,,,,,,,,,7117.919000071532,completion,,,,,,,high,high,,,,,,true,,,,,false,332254.10000002384,332253.8000000715,325119.351,325134.10000002384,325135.881,332266.415,1,40,,
trial,html.Screen,6_17_0,2023-11-17T21:41:34.488Z,,,,1,1.1048559518249943,1.2252457981338687,,,true,ll,4787.985000095388,response,-1.0659165756604234,1.2,-1.2,-1.0867497316848906,1.2,-1.2,low,low,,ISIC_0060817.JPG,,ISIC_5807608.JPG,25,true,0.14,ll,keypress(f),0,false,337054.7000000477,337054.40000009537,332249.752,332254.2000000477,332266.415,337059.079,1,40,18,
sequence,flow.Sequence,6_17,2023-11-17T21:41:34.488Z,,,,,,,,,,,4787.985000095388,completion,,,,,,,low,low,,,,,,true,,,,,false,337055,337054.40000009537,332249.752,332254.2000000477,332266.415,337059.079,1,40,,
trial,html.Screen,6_18_0,2023-11-17T21:41:37.535Z,,,,1,1.0865209011322887,1.1401461171952545,,,true,ll,3042.920999999973,response,-1.1409143352872226,1.2,-1.2,-1.1323007949069106,1.2,-1.2,low,low,,ISIC_0016145.JPG,,ISIC_0030291.JPG,25,true,0.14,ll,keypress(f),0,false,340102.2000000477,340102,337042.478,337055.2000000477,337059.079,340131.696,1,40,19,
sequence,flow.Sequence,6_18,2023-11-17T21:41:37.536Z,,,,,,,,,,,3042.920999999973,completion,,,,,,,low,low,,,,,,true,,,,,false,340102.5,340102,337042.478,337055.10000002384,337059.079,340131.696,1,40,,
trial,html.Screen,6_19_0,2023-11-17T21:41:42.440Z,,,,1,0.9662688541319592,-0.929746784178986,,,true,lh,4874.504000047687,response,-0.8926515927689261,1.2,-1.2,0.7935960767768927,1.2,-1.2,low,high,,ISIC_0011077.JPG,,ISIC_8901371.JPG,26,true,0.4500000000000003,lh,keypress(e),0,false,345006.40000009537,345006.2000000477,340098.52,340102.7000000477,340131.696,345026.075,1,40,20,
sequence,flow.Sequence,6_19,2023-11-17T21:41:42.440Z,,,,,,,,,,,4874.504000047687,completion,,,,,,,low,high,,,,,,true,,,,,false,345006.7000000477,345006.2000000477,340098.52,340102.60000002384,340131.696,345026.075,1,40,,
trial,html.Screen,6_20_0,2023-11-17T21:41:46.735Z,,,,1,1.2646773654288392,-0.952963803634235,,,true,lh,4275.225000071514,response,-1.0329549150636406,1.2,-1.2,1.01584100839286,1.2,-1.2,low,high,,ISIC_1996356.JPG,,ISIC_0054670.JPG,26,true,0.4500000000000003,lh,keypress(e),0,false,349301.40000009537,349301.3000000715,344991.12,345006.8000000715,345026.075,349316.25,1,40,21,
sequence,flow.Sequence,6_20,2023-11-17T21:41:46.735Z,,,,,,,,,,,4275.225000071514,completion,,,,,,,low,high,,,,,,true,,,,,false,349301.60000002384,349301.3000000715,344991.12,345006.8000000715,345026.075,349316.25,1,40,,
trial,html.Screen,6_21_0,2023-11-17T21:41:51.591Z,,,,1,-1.2946277435220357,-1.255157480204324,,,false,hh,4841.350000023842,response,0.8954798455174807,1.2,-1.2,1.224456631184783,1.2,-1.2,high,high,,ISIC_1870309.JPG,,ISIC_0033024.JPG,288,true,0.40000000000000024,ll,keypress(f),0,false,354157.7000000477,354157.60000002384,349299.744,349301.60000002384,349316.25,354176.371,1,40,22,
sequence,flow.Sequence,6_21,2023-11-17T21:41:51.591Z,,,,,,,,,,,4841.350000023842,completion,,,,,,,high,high,,,,,,true,,,,,false,354157.8000000715,354157.60000002384,349299.744,349301.60000002384,349316.25,354176.371,1,40,,
trial,html.Screen,6_22_0,2023-11-17T21:42:00.872Z,,,,1,-0.7518277461369444,1.3860759020802074,,,true,hl,9261.729000023857,response,1.168911077628813,1.2,-1.2,-1.2181838235193114,1.2,-1.2,high,low,,ISIC_7967397.JPG,,ISIC_7358691.JPG,27,true,0.40000000000000024,hl,keypress(j),0,false,363438.3000000715,363438.10000002384,354142.524,354157.8000000715,354176.371,363443.683,1,40,23,
sequence,flow.Sequence,6_22,2023-11-17T21:42:00.872Z,,,,,,,,,,,9261.729000023857,completion,,,,,,,high,low,,,,,,true,,,,,false,363438.5,363438.10000002384,354142.524,354157.8000000715,354176.371,363443.683,1,40,,
trial,html.Screen,6_23_0,2023-11-17T21:42:06.087Z,,,,1,1.2118207001489876,1.3164676315545727,,,true,ll,5210.017000047665,response,-0.8666323445825409,1.2,-1.2,-0.9101747326852082,1.2,-1.2,low,low,,ISIC_0066476.JPG,,ISIC_9155028.JPG,265,true,0.4500000000000003,ll,keypress(f),0,false,368653.8000000715,368653.7000000477,363427.039,363438.7000000477,363443.683,368687.245,1,40,24,
sequence,flow.Sequence,6_23,2023-11-17T21:42:06.087Z,,,,,,,,,,,5210.017000047665,completion,,,,,,,low,low,,,,,,true,,,,,false,368654,368653.7000000477,363427.039,363438.7000000477,363443.683,368687.245,1,40,,
trial,html.Screen,6_24_0,2023-11-17T21:42:10.311Z,,,,1,0.9662688541319592,-0.929746784178986,,,true,lh,4190.55500007153,response,-1.0887164761389951,1.2,-1.2,1.5357518752548716,1.2,-1.2,low,high,,ISIC_0011077.JPG,,ISIC_0028127.JPG,26,true,0.4500000000000003,lh,keypress(e),0,false,372878,372877.8000000715,368654.011,368654,368687.245,372895.649,1,40,25,
sequence,flow.Sequence,6_24,2023-11-17T21:42:10.311Z,,,,,,,,,,,4190.55500007153,completion,,,,,,,low,high,,,,,,true,,,,,false,372878.2000000477,372877.8000000715,368654.011,368654,368687.245,372895.649,1,40,,
trial,html.Screen,6_25_0,2023-11-17T21:42:15.433Z,,,,1,1.1936751736668425,1.2584308630745344,,,true,ll,5103.551000047708,response,-1.00975234958099,1.2,-1.2,-0.958677033057289,1.2,-1.2,low,low,,ISIC_0061265.JPG,,ISIC_0976232.JPG,203,true,0.40000000000000024,ll,keypress(f),0,false,377999.40000009537,377999.2000000477,372862.174,372878.3000000715,372895.649,378022.062,1,40,26,
sequence,flow.Sequence,6_25,2023-11-17T21:42:15.433Z,,,,,,,,,,,5103.551000047708,completion,,,,,,,low,low,,,,,,true,,,,,false,377999.60000002384,377999.2000000477,372862.174,372878.3000000715,372895.649,378022.062,1,40,,
trial,html.Screen,6_26_0,2023-11-17T21:42:20.047Z,,,,1,1.2646773654288392,-0.952963803634235,,,true,lh,4591.538000023866,response,-1.0329549150636406,1.2,-1.2,1.01584100839286,1.2,-1.2,low,high,,ISIC_1996356.JPG,,ISIC_0054670.JPG,26,true,0.4500000000000003,lh,keypress(e),0,false,382613.7000000477,382613.60000002384,377988.877,377999.8000000715,378022.062,382631.025,1,40,27,
sequence,flow.Sequence,6_26,2023-11-17T21:42:20.047Z,,,,,,,,,,,4591.538000023866,completion,,,,,,,low,high,,,,,,true,,,,,false,382613.8000000715,382613.60000002384,377988.877,377999.8000000715,378022.062,382631.025,1,40,,
trial,html.Screen,6_27_0,2023-11-17T21:42:29.760Z,,,,1,-1.0369885917487718,0.8486937878412699,,,false,hl,9695.17500004766,response,0.8443403196524287,1.2,-1.2,-0.8858525429102605,1.2,-1.2,high,low,,ISIC_6917681.JPG,,ISIC_8777813.JPG,27,true,0.40000000000000024,hh,keypress(i),0,false,392326.40000009537,392326.2000000477,382597.82,382613.90000009537,382631.025,392366.614,1,40,28,
sequence,flow.Sequence,6_27,2023-11-17T21:42:29.760Z,,,,,,,,,,,9695.17500004766,completion,,,,,,,high,low,,,,,,true,,,,,false,392326.7000000477,392326.2000000477,382597.82,382613.8000000715,382631.025,392366.614,1,40,,
trial,html.Screen,6_28_0,2023-11-17T21:42:33.551Z,,,,1,-0.8830264383952469,0.8635562538060516,,,true,hl,3750.8859999999986,response,0.8544507134472948,1.2,-1.2,-0.9244388608707323,1.2,-1.2,high,low,,ISIC_0032258.JPG,,ISIC_3565564.JPG,40,true,0.4500000000000003,hl,keypress(j),0,false,396117.60000002384,396117.5,392316.526,392326.8000000715,392366.614,396123.995,1,40,29,
sequence,flow.Sequence,6_28,2023-11-17T21:42:33.551Z,,,,,,,,,,,3750.8859999999986,completion,,,,,,,high,low,,,,,,true,,,,,false,396117.7000000477,396117.5,392316.526,392326.8000000715,392366.614,396123.995,1,40,,
trial,html.Screen,6_29_0,2023-11-17T21:42:43.271Z,,,,1,-1.109799097093339,-1.091507924157762,,,false,hh,9713.30500007153,response,0.9984751310732674,1.2,-1.2,0.7993808609040723,1.2,-1.2,high,high,,ISIC_0765584.JPG,,ISIC_0032510.JPG,359,true,0.4500000000000003,ll,keypress(f),0,false,405837.40000009537,405837.3000000715,396107.253,396117.8000000715,396123.995,405859.533,1,40,30,
sequence,flow.Sequence,6_29,2023-11-17T21:42:43.271Z,,,,,,,,,,,9713.30500007153,completion,,,,,,,high,high,,,,,,true,,,,,false,405837.5,405837.3000000715,396107.253,396117.8000000715,396123.995,405859.533,1,40,,
trial,html.Screen,6_30_0,2023-11-17T21:42:48.447Z,,,,1,1.168911077628813,-1.2181838235193114,,,true,lh,5153.967000000004,response,-0.7518277461369444,1.2,-1.2,1.3860759020802074,1.2,-1.2,low,high,,ISIC_7358691.JPG,,ISIC_7967397.JPG,26,true,0.4500000000000003,lh,keypress(e),0,false,411013.7000000477,411013.5,405826.281,405837.60000002384,405859.533,411019.544,1,40,31,
sequence,flow.Sequence,6_30,2023-11-17T21:42:48.447Z,,,,,,,,,,,5153.967000000004,completion,,,,,,,low,high,,,,,,true,,,,,false,411013.90000009537,411013.5,405826.281,405837.5,405859.533,411019.544,1,40,,
trial,html.Screen,6_31_0,2023-11-17T21:42:51.887Z,,,,1,-0.7883321712536753,1.0011430756825364,,,true,hl,3434.0560000238474,response,0.8867328775712738,1.2,-1.2,-1.0063426986460375,1.2,-1.2,high,low,,ISIC_9828853.JPG,,ISIC_0055759.JPG,27,true,0.40000000000000024,hl,keypress(j),0,false,414453.7000000477,414453.60000002384,411002.912,411013.90000009537,411019.544,414459.568,1,40,32,
sequence,flow.Sequence,6_31,2023-11-17T21:42:51.887Z,,,,,,,,,,,3434.0560000238474,completion,,,,,,,high,low,,,,,,true,,,,,false,414453.8000000715,414453.60000002384,411002.912,411013.90000009537,411019.544,414459.568,1,40,,
trial,html.Screen,6_32_0,2023-11-17T21:42:56.264Z,,,,1,-1.2100527057059796,-1.2159112471537263,,,true,hh,4370.431999999972,response,1.5470937147118164,1.2,-1.2,0.919293859431201,1.2,-1.2,high,high,,ISIC_0008055.JPG,,ISIC_0063164.JPG,359,true,0.4500000000000003,hh,keypress(i),0,false,418830.2000000477,418830,414443.095,414453.90000009537,414459.568,418834.794,1,40,33,
sequence,flow.Sequence,6_32,2023-11-17T21:42:56.264Z,,,,,,,,,,,4370.431999999972,completion,,,,,,,high,high,,,,,,true,,,,,false,418830.40000009537,418830,414443.095,414453.90000009537,414459.568,418834.794,1,40,,
trial,html.Screen,6_33_0,2023-11-17T21:42:58.911Z,,,,1,-1.2541318165695772,-1.085289936617366,,,true,hh,2642.8060000238474,response,1.1195710731537871,1.2,-1.2,1.1961732733209125,1.2,-1.2,high,high,,ISIC_4277207.JPG,,ISIC_0067170.JPG,40,true,0.14,hh,keypress(i),0,false,421477.7000000477,421477.60000002384,418818.232,418830.5,418834.794,421506.593,1,40,34,
sequence,flow.Sequence,6_33,2023-11-17T21:42:58.911Z,,,,,,,,,,,2642.8060000238474,completion,,,,,,,high,high,,,,,,true,,,,,false,421477.90000009537,421477.60000002384,418818.232,418830.5,418834.794,421506.593,1,40,,
trial,html.Screen,6_34_0,2023-11-17T21:43:02.783Z,,,,1,0.8987343013179191,-0.8149073454566363,,,true,lh,3842.6070000476902,response,-0.989300717252516,1.2,-1.2,0.7908280206937478,1.2,-1.2,low,high,,ISIC_0472513.JPG,,ISIC_6416533.JPG,26,true,0.4500000000000003,lh,keypress(e),0,false,425349.3000000715,425349.2000000477,421473.278,421478.10000002384,421506.593,425364.089,1,40,35,
sequence,flow.Sequence,6_34,2023-11-17T21:43:02.783Z,,,,,,,,,,,3842.6070000476902,completion,,,,,,,low,high,,,,,,true,,,,,false,425349.3000000715,425349.2000000477,421473.278,421478.10000002384,421506.593,425364.089,1,40,,
trial,html.Screen,6_35_0,2023-11-17T21:43:06.223Z,,,,1,0.8867328775712738,-1.0063426986460375,,,true,lh,3425.5110000238637,response,-1.0453124399868816,1.2,-1.2,0.8986747280184286,1.2,-1.2,low,high,,ISIC_0055759.JPG,,ISIC_0013967.JPG,26,true,0.4500000000000003,lh,keypress(e),0,false,428789.7000000477,428789.60000002384,425347.513,425349.40000009537,425364.089,428804.147,1,40,36,
sequence,flow.Sequence,6_35,2023-11-17T21:43:06.223Z,,,,,,,,,,,3425.5110000238637,completion,,,,,,,low,high,,,,,,true,,,,,false,428789.8000000715,428789.60000002384,425347.513,425349.3000000715,425364.089,428804.147,1,40,,
trial,html.Screen,6_36_0,2023-11-17T21:43:09.312Z,,,,1,-0.7883321712536753,1.0011430756825364,,,true,hl,3073.853000000003,response,0.8544507134472948,1.2,-1.2,-0.9244388608707323,1.2,-1.2,high,low,,ISIC_9828853.JPG,,ISIC_3565564.JPG,27,true,0.40000000000000024,hl,keypress(j),0,false,431878.2000000477,431878,428787.639,428789.90000009537,428804.147,431893.758,1,40,37,
sequence,flow.Sequence,6_36,2023-11-17T21:43:09.312Z,,,,,,,,,,,3073.853000000003,completion,,,,,,,high,low,,,,,,true,,,,,false,431878.5,431878,428787.639,428789.8000000715,428804.147,431893.758,1,40,,
trial,html.Screen,6_37_0,2023-11-17T21:43:23.000Z,,,,1,-1.274417010249866,-1.0725495669014795,,,true,hh,13672.142000095395,response,1.410963159394321,1.2,-1.2,0.8873094399918428,1.2,-1.2,high,high,,ISIC_8849004.JPG,,ISIC_0011356.JPG,359,true,0.4500000000000003,hh,keypress(i),0,false,445566.10000002384,445565.90000009537,431876.774,431878.60000002384,431893.758,445586.801,1,40,38,
sequence,flow.Sequence,6_37,2023-11-17T21:43:23.000Z,,,,,,,,,,,13672.142000095395,completion,,,,,,,high,high,,,,,,true,,,,,false,445566.40000009537,445565.90000009537,431876.774,431878.5,431893.758,445586.801,1,40,,
trial,html.Screen,6_38_0,2023-11-17T21:43:27.807Z,,,,1,1.0788024398087033,-0.9911875460374616,,,true,lh,4786.999000071548,response,-0.8828738626295417,1.2,-1.2,0.8288177599439582,1.2,-1.2,low,high,,ISIC_5951430.JPG,,ISIC_0056041.JPG,26,true,0.4500000000000003,lh,keypress(e),0,false,450373.8000000715,450373.8000000715,445553.454,445566.5,445586.801,450379.426,1,40,39,
sequence,flow.Sequence,6_38,2023-11-17T21:43:27.807Z,,,,,,,,,,,4786.999000071548,completion,,,,,,,low,high,,,,,,true,,,,,false,450374,450373.8000000715,445553.454,445566.40000009537,445586.801,450379.426,1,40,,
trial,html.Screen,6_39_0,2023-11-17T21:43:34.439Z,,,,1,-1.1870093485714288,-1.3339880978442629,,,false,hh,6626.374000071548,response,0.8505116507724536,1.2,-1.2,1.198340108680766,1.2,-1.2,high,high,,ISIC_8592235.JPG,,ISIC_0054851.JPG,288,true,0.40000000000000024,ll,keypress(f),0,false,457006,457005.8000000715,450362.869,450374.10000002384,450379.426,457009.025,1,40,40,
sequence,flow.Sequence,6_39,2023-11-17T21:43:34.440Z,,,,,,,,,,,6626.374000071548,completion,,,,,,,high,high,,,,,,true,,,,,false,457006.10000002384,457005.8000000715,450362.869,450374,450379.426,457009.025,1,40,,
practice_loop,flow.Loop,6,2023-11-17T21:43:34.440Z,,,,,,,,,,,256128.2550000715,completion,,,,,,,,,,,,,,true,,,,,false,457006.3000000715,457005.8000000715,200860.913,200869.80000007153,200877.545,457009.025,1,40,,
stair_instructions,html.Screen,7,2023-11-17T21:43:43.247Z,,,,,,,,,,,8803.974999999977,response,,,,,,,,,,,,,,,,continue,click button,,,465813.5,465813,456992.363,457006.3000000715,457009.025,465826.159,,,,
trial,html.Screen,8_0_0,2023-11-17T21:43:59.241Z,,,,2,0.0198696495649504,-0.0387952353063878,,0.04,,,16014.733000000007,timeout,-1.0369885917487718,1.2,-1.2,0.8486937878412699,1.2,-1.2,low,high,,ISIC_6735970.JPG,,ISIC_6917681.JPG,26,false,0.4500000000000003,,,0,true,481808,481807.8000000715,465809.649,465813.60000002384,465826.159,481840.892,1,40,1,
sequence,flow.Sequence,8_0,2023-11-17T21:43:59.241Z,,,,,,,,,,,15981.64100007154,completion,,,,,,,low,high,,,,,,false,,,,,true,481808.3000000715,481807.8000000715,465809.649,465813.60000002384,465826.159,481840.892,1,40,,
trial,html.Screen,8_1_0,2023-11-17T21:44:05.751Z,,,,2,-0.0258224118104549,0.0029364553353019,,0.04,false,hl,6476.708000023849,response,1.2081146885025262,1.2,-1.2,-1.195668832085049,1.2,-1.2,high,low,,ISIC_8325226.JPG,,ISIC_7369690.JPG,27,false,0.40000000000000024,lh,keypress(e),0,true,488317.60000002384,488317.60000002384,481823.941,481808.40000009537,481840.892,488319.891,1,40,2,
sequence,flow.Sequence,8_1,2023-11-17T21:44:05.751Z,,,,,,,,,,,6476.708000023849,completion,,,,,,,high,low,,,,,,false,,,,,true,488317.8000000715,488317.60000002384,481823.941,481808.40000009537,481840.892,488319.891,1,40,,
trial,html.Screen,8_2_0,2023-11-17T21:44:09.199Z,,,,2,-0.0258224118104549,0.0029364553353019,,0.04,false,ll,3445.6089999999967,response,-1.274417010249866,1.2,-1.15,-1.0725495669014795,1.15,-1.2,low,low,,ISIC_8325226.JPG,,ISIC_8849004.JPG,25,false,0.14,lh,keypress(e),0,true,491765.60000002384,491765.5,488303.229,488317.8000000715,488319.891,491776.626,1,40,3,
sequence,flow.Sequence,8_2,2023-11-17T21:44:09.199Z,,,,,,,,,,,3445.6089999999967,completion,,,,,,,low,low,,,,,,false,,,,,true,491765.8000000715,491765.5,488303.229,488317.8000000715,488319.891,491776.626,1,40,,
trial,html.Screen,8_3_0,2023-11-17T21:44:14.240Z,,,,2,-0.0076984477620101,-0.0069458408496562,,0.04,false,hl,5029.874000000011,response,0.90812608370647,1.15,-1.15,-1.2720026872926935,1.15,-1.2,high,low,,ISIC_0000434.JPG,,ISIC_0450295.JPG,25,false,0.3700000000000002,ll,keypress(f),0,true,496806.90000009537,496806.5,491760.003,491765.90000009537,491776.626,496819.749,1,40,4,
sequence,flow.Sequence,8_3,2023-11-17T21:44:14.240Z,,,,,,,,,,,5029.874000000011,completion,,,,,,,high,low,,,,,,false,,,,,true,496807.2000000477,496806.5,491760.003,491765.90000009537,491776.626,496819.749,1,40,,
trial,html.Screen,8_4_0,2023-11-17T21:44:21.903Z,,,,2,-0.0044063257337227,-0.0172548282859886,,0.04,false,lh,7650.151000095357,response,-0.7882758084023446,1.15,-1.15,0.8296405881378283,1.15,-1.15,low,high,,ISIC_7413786.JPG,,ISIC_0065882.JPG,26,false,0.40000000000000024,ll,keypress(f),0,true,504470.2000000477,504469.90000009537,496803.154,496807.40000009537,496819.749,504484.74,1,40,5,
sequence,flow.Sequence,8_4,2023-11-17T21:44:21.903Z,,,,,,,,,,,7650.151000095357,completion,,,,,,,low,high,,,,,,false,,,,,true,504470.40000009537,504469.90000009537,496803.154,496807.40000009537,496819.749,504484.74,1,40,,
trial,html.Screen,8_5_0,2023-11-17T21:44:28.456Z,,,,2,-0.0220026381002083,0.0170756452911772,,0.04,true,ll,6537.660000095377,response,-0.9170020765489288,1.15,-0.980139247847519,-1.1743572988147262,1.15,-1.15,low,low,,ISIC_5347806.JPG,,ISIC_5458290.JPG,27,false,0.12,ll,keypress(f),0,true,511022.5,511022.40000009537,504468.142,504470.5,504484.74,511030.707,1,40,6,
sequence,flow.Sequence,8_5,2023-11-17T21:44:28.456Z,,,,,,,,,,,6537.660000095377,completion,,,,,,,low,low,,,,,,false,,,,,true,511022.8000000715,511022.40000009537,504468.142,504470.5,504484.74,511030.707,1,40,,
trial,html.Screen,8_6_0,2023-11-17T21:44:38.719Z,,,,2,0.0374659946425444,0.0086043094957617,,0.04,false,lh,10255.293000000005,response,-0.7883321712536753,1.15,-0.980139247847519,1.0011430756825364,1.15,-0.9956796876818275,low,high,,ISIC_0033051.JPG,,ISIC_9828853.JPG,26,false,0.3200000000000002,hl,keypress(j),0,true,521286.2000000477,521286,511014.215,511023,511030.707,521300.726,1,40,7,
sequence,flow.Sequence,8_6,2023-11-17T21:44:38.719Z,,,,,,,,,,,10255.293000000005,completion,,,,,,,low,high,,,,,,false,,,,,true,521286.40000009537,521286,511014.215,511023,511030.707,521300.726,1,40,,
trial,html.Screen,8_7_0,2023-11-17T21:44:42.407Z,,,,2,-0.0367744112927588,-0.0324865661712824,,0.04,true,hh,3672.8740000238176,response,1.1243896694621007,1.15,-1.030139247847519,1.1772340944704969,1.15,-0.9956796876818275,high,high,,ISIC_4523565.JPG,,ISIC_0062765.JPG,27,false,0.1,hh,keypress(i),0,true,524973.7000000477,524973.6000000238,521284.103,521286.5,521300.726,524991.597,1,40,8,
sequence,flow.Sequence,8_7,2023-11-17T21:44:42.407Z,,,,,,,,,,,3672.8740000238176,completion,,,,,,,high,high,,,,,,false,,,,,true,524973.9000000954,524973.6000000238,521284.103,521286.5,521300.726,524991.597,1,40,,
trial,html.Screen,8_8_0,2023-11-17T21:44:45.239Z,,,,2,-0.0308384937406319,0.0038396364323947,,0.04,true,hh,2813.703000071575,response,1.063036912656269,1.15,-1.030139247847519,1.1534875859179432,1.15,-0.9956796876818275,high,high,,ISIC_0029825.JPG,,ISIC_0010772.JPG,27,false,0.1,hh,keypress(i),0,true,527805.4000000954,527805.3000000715,524958.029,524973.9000000954,524991.597,527813.371,1,40,9,
sequence,flow.Sequence,8_8,2023-11-17T21:44:45.239Z,,,,,,,,,,,2813.703000071575,completion,,,,,,,high,high,,,,,,false,,,,,true,527805.5,527805.3000000715,524958.029,524973.9000000954,524991.597,527813.371,1,40,,
trial,html.Screen,8_9_0,2023-11-17T21:44:49.271Z,,,,2,-0.0220026381002083,0.0170756452911772,,0.04,false,lh,4024.229000023799,response,-1.199471562817528,1.11536084019422,-1.030139247847519,0.8631260534979347,1.11536084019422,-0.9956796876818275,low,high,,ISIC_5347806.JPG,,ISIC_0030754.JPG,26,false,0.3300000000000002,hh,keypress(i),0,true,531837.7000000477,531837.6000000238,527796.859,527805.5,527813.371,531854.569,1,40,10,
sequence,flow.Sequence,8_9,2023-11-17T21:44:49.272Z,,,,,,,,,,,4024.229000023799,completion,,,,,,,low,high,,,,,,false,,,,,true,531837.8000000715,531837.6000000238,527796.859,527805.5,527813.371,531854.569,1,40,,
trial,html.Screen,8_10_0,2023-11-17T21:44:54.672Z,,,,2,0.0065172941585523,-0.0118857043117315,,0.04,true,lh,5383.33100009535,response,-1.058275612142778,1.11536084019422,-1.0801392478475191,0.7824898568540655,1.11536084019422,-0.9956796876818275,low,high,,ISIC_6119202.JPG,,ISIC_4906385.JPG,26,false,0.3500000000000002,lh,keypress(e),0,true,537238.1000000238,537237.9000000954,531838.052,531837.8000000715,531854.569,537248.435,1,40,11,
sequence,flow.Sequence,8_10,2023-11-17T21:44:54.672Z,,,,,,,,,,,5383.33100009535,completion,,,,,,,low,high,,,,,,false,,,,,true,537238.5,537237.9000000954,531838.052,531837.8000000715,531854.569,537248.435,1,40,,
trial,html.Screen,8_11_0,2023-11-17T21:44:58.744Z,,,,2,-0.0367744112927588,-0.0324865661712824,,0.04,false,ll,4061.265000047628,response,-1.0659165756604234,1.11536084019422,-1.0801392478475191,-1.0867497316848906,1.06536084019422,-0.9956796876818275,low,low,,ISIC_4523565.JPG,,ISIC_5807608.JPG,27,false,0.1,hl,keypress(j),0,true,541309.8000000715,541309.7000000477,537231.886,537238.6000000238,537248.435,541322.968,1,40,12,
sequence,flow.Sequence,8_11,2023-11-17T21:44:58.744Z,,,,,,,,,,,4061.265000047628,completion,,,,,,,low,low,,,,,,false,,,,,true,541310.2000000477,541309.7000000477,537231.886,537238.6000000238,537248.435,541322.968,1,40,,
trial,html.Screen,8_12_0,2023-11-17T21:45:02.672Z,,,,2,-0.0119001144851157,0.0063430114540141,,0.04,true,hl,3915.1320000238484,response,0.9617893983965208,1.11536084019422,-1.1301392478475192,-0.9453006131304652,1.06536084019422,-0.9956796876818275,high,low,,ISIC_0003822.JPG,,ISIC_4229473.JPG,25,false,0.27000000000000013,hl,keypress(j),0,true,545238.1000000238,545238.1000000238,541306.486,541310.3000000715,541322.968,545247.429,1,40,13,
sequence,flow.Sequence,8_12,2023-11-17T21:45:02.672Z,,,,,,,,,,,3915.1320000238484,completion,,,,,,,high,low,,,,,,false,,,,,true,545238.3000000715,545238.1000000238,541306.486,541310.3000000715,541322.968,545247.429,1,40,,
trial,html.Screen,8_13_0,2023-11-17T21:45:11.320Z,,,,2,-0.0118382036798625,-0.0300588245877227,,0.04,true,hh,8638.671000023838,response,1.0679712388489528,1.11536084019422,-1.1301392478475192,1.0509600192807842,1.06536084019422,-0.9456796876818274,high,high,,ISIC_4748605.JPG,,ISIC_0015180.JPG,32,false,0.1,hh,keypress(i),0,true,553886.2000000477,553886.1000000238,545230.723,545238.3000000715,545247.429,553897.408,1,40,14,
sequence,flow.Sequence,8_13,2023-11-17T21:45:11.320Z,,,,,,,,,,,8638.671000023838,completion,,,,,,,high,high,,,,,,false,,,,,true,553886.5,553886.1000000238,545230.723,545238.3000000715,545247.429,553897.408,1,40,,
trial,html.Screen,8_14_0,2023-11-17T21:45:17.336Z,,,,2,0.0109416414475118,0.005246498750811,,0.04,false,hl,6004.392000071472,response,0.9752130063130028,1.0094656290648685,-1.1301392478475192,-0.7248550908059443,1.06536084019422,-0.9456796876818274,high,low,,ISIC_0064279.JPG,,ISIC_5190484.JPG,28,false,0.2300000000000001,hh,keypress(i),0,true,559901.8000000715,559901.8000000715,553880.841,553886.6000000238,553897.408,559909.118,1,40,15,
sequence,flow.Sequence,8_14,2023-11-17T21:45:17.336Z,,,,,,,,,,,6004.392000071472,completion,,,,,,,high,low,,,,,,false,,,,,true,559901.9000000954,559901.8000000715,553880.841,553886.6000000238,553897.408,559909.118,1,40,,
trial,html.Screen,8_15_0,2023-11-17T21:45:25.344Z,,,,2,0.0164027439304477,-0.0082910758715273,,0.04,true,ll,8000.782000095351,response,-1.2101243893950622,1.0094656290648685,-1.1301392478475192,-0.9721089662087676,1.06536084019422,-0.9956796876818275,low,low,,ISIC_7381224.JPG,,ISIC_0760740.JPG,25,false,0.11,ll,keypress(f),0,true,567910.1000000238,567909.9000000954,559892.376,559902,559909.118,567924.919,1,40,16,
sequence,flow.Sequence,8_15,2023-11-17T21:45:25.344Z,,,,,,,,,,,8000.782000095351,completion,,,,,,,low,low,,,,,,false,,,,,true,567910.4000000954,567909.9000000954,559892.376,559902,559909.118,567924.919,1,40,,
trial,html.Screen,8_16_0,2023-11-17T21:45:27.824Z,,,,2,0.0388181790775959,-0.0049623405709465,,0.04,false,hh,2464.6810000238474,response,1.071312313440387,1.0094656290648685,-1.1301392478475192,1.0935391476164529,1.06536084019422,-0.9956796876818275,high,high,,ISIC_0061880.JPG,,ISIC_0063680.JPG,46,false,0.1,hl,keypress(j),0,true,570389.8000000715,570389.6000000238,567908.14,567910.4000000954,567924.919,570396.207,1,40,17,
sequence,flow.Sequence,8_16,2023-11-17T21:45:27.824Z,,,,,,,,,,,2464.6810000238474,completion,,,,,,,high,high,,,,,,false,,,,,true,570390,570389.6000000238,567908.14,567910.4000000954,567924.919,570396.207,1,40,,
trial,html.Screen,8_17_0,2023-11-17T21:45:32.768Z,,,,2,-0.0118382036798625,-0.0300588245877227,,0.04,false,hh,4937.792999999947,response,0.9430679164922772,0.9594656290648684,-1.1301392478475192,1.124157865127501,1.11536084019422,-0.9956796876818275,high,high,,ISIC_4748605.JPG,,ISIC_0062111.JPG,37,false,0.1,hl,keypress(j),0,true,575334.1000000238,575334,570379.701,570390.1000000238,570396.207,575339.173,1,40,18,
sequence,flow.Sequence,8_17,2023-11-17T21:45:32.768Z,,,,,,,,,,,4937.792999999947,completion,,,,,,,high,high,,,,,,false,,,,,true,575334.4000000954,575334,570379.701,570390,570396.207,575339.173,1,40,,
trial,html.Screen,8_18_0,2023-11-17T21:45:37.936Z,,,,2,-0.0367744112927588,-0.0324865661712824,,0.04,true,ll,5162.92700002389,response,-1.0757050222000146,0.9594656290648684,-1.1301392478475192,-0.9214423600454036,1.1653608401942201,-0.9956796876818275,low,low,,ISIC_4523565.JPG,,ISIC_5152859.JPG,25,false,0.11,ll,keypress(f),0,true,580502.3000000715,580502.1000000238,575322.644,575334.6000000238,575339.173,580515.879,1,40,19,
sequence,flow.Sequence,8_18,2023-11-17T21:45:37.936Z,,,,,,,,,,,5162.92700002389,completion,,,,,,,low,low,,,,,,false,,,,,true,580502.6000000238,580502.1000000238,575322.644,575334.5,575339.173,580515.879,1,40,,
trial,html.Screen,8_19_0,2023-11-17T21:45:45.975Z,,,,2,,0.0102871556606504,,0.04,false,lh,8025.421000071568,response,-0.7882758084023446,0.9594656290648684,-1.0801392478475191,0.8296405881378283,1.1653608401942201,-0.9456796876818274,low,high,,ISIC_1805163.JPG,,ISIC_0065882.JPG,27,false,0.3800000000000002,hh,keypress(i),0,true,588541.3000000715,588541.3000000715,580499.364,580502.8000000715,580515.879,588548.15,1,40,20,
sequence,flow.Sequence,8_19,2023-11-17T21:45:45.975Z,,,,,,,,,,,8025.421000071568,completion,,,,,,,low,high,,,,,,false,,,,,true,588541.4000000954,588541.3000000715,580499.364,580502.7000000477,580515.879,588548.15,1,40,,
trial,html.Screen,8_20_0,2023-11-17T21:45:51.232Z,,,,2,0.0198696495649504,-0.0387952353063878,,0.04,true,hh,5249.349999999977,response,1.011046725964536,0.9594656290648684,-1.1301392478475192,1.2027346117133495,1.1653608401942201,-0.9456796876818274,high,high,,ISIC_6735970.JPG,,ISIC_0000292.JPG,31,false,0.1,hh,keypress(i),0,true,593797.7000000477,593797.5,588531.425,588541.5,588548.15,593808.395,1,40,21,
sequence,flow.Sequence,8_20,2023-11-17T21:45:51.232Z,,,,,,,,,,,5249.349999999977,completion,,,,,,,high,high,,,,,,false,,,,,true,593797.9000000954,593797.5,588531.425,588541.5,588548.15,593808.395,1,40,,
trial,html.Screen,8_21_0,2023-11-17T21:46:00.408Z,,,,2,0.0074667911845194,-0.018500200317654,,0.04,true,hh,9165.405000071507,response,0.9314324055507326,0.9661875999255889,-1.1301392478475192,0.974030949255159,0.9661875999255889,-0.9456796876818274,high,high,,ISIC_0058723.JPG,,ISIC_9024529.JPG,39,false,0.1,hh,keypress(i),0,true,602974.1000000238,602973.8000000715,593791.891,593798.1000000238,593808.395,602976.242,1,40,22,
sequence,flow.Sequence,8_21,2023-11-17T21:46:00.408Z,,,,,,,,,,,9165.405000071507,completion,,,,,,,high,high,,,,,,false,,,,,true,602974.4000000954,602973.8000000715,593791.891,593798.1000000238,593808.395,602976.242,1,40,,
trial,html.Screen,8_22_0,2023-11-17T21:46:06.912Z,,,,2,-0.0200295718112167,-0.0155559071275806,,0.04,true,ll,6501.758000000031,response,-1.0235331176078744,0.9661875999255889,-1.1301392478475192,-0.9330258572707198,0.9661875999255889,-0.9456796876818274,low,low,,ISIC_0061343.JPG,,ISIC_0026889.JPG,25,false,0.11,ll,keypress(f),0,true,609478.1000000238,609478,602959.69,602974.5,602976.242,609488.872,1,40,23,
sequence,flow.Sequence,8_22,2023-11-17T21:46:06.912Z,,,,,,,,,,,6501.758000000031,completion,,,,,,,low,low,,,,,,false,,,,,true,609478.4000000954,609478,602959.69,602974.5,602976.242,609488.872,1,40,,
trial,html.Screen,8_23_0,2023-11-17T21:46:10.496Z,,,,2,-0.0283578106329894,0.0088840758711548,,0.04,false,hl,3572.9280000715517,response,0.9111352818043872,0.9661875999255889,-1.1301392478475192,-0.7517932332411794,0.9661875999255889,-0.9456796876818274,high,low,,ISIC_0060707.JPG,,ISIC_3346045.JPG,29,false,0.20000000000000007,ll,keypress(f),0,true,613062.1000000238,613061.8000000715,609472.274,609478.6000000238,609488.872,613079.208,1,40,24,
sequence,flow.Sequence,8_23,2023-11-17T21:46:10.496Z,,,,,,,,,,,3572.9280000715517,completion,,,,,,,high,low,,,,,,false,,,,,true,613062.4000000954,613061.8000000715,609472.274,609478.5,609488.872,613079.208,1,40,,
trial,html.Screen,8_24_0,2023-11-17T21:46:13.792Z,,,,2,0.0388334549081915,-0.0303399972963369,,0.04,true,hl,3278.5920000715414,response,0.8544507134472948,1.016187599925589,-1.1301392478475192,-0.9244388608707323,0.9661875999255889,-0.7924095452559496,high,low,,ISIC_4961708.JPG,,ISIC_3565564.JPG,25,false,0.18000000000000005,hl,keypress(j),0,true,616357.9000000954,616357.8000000715,613062.628,613062.5,613079.208,616368.941,1,40,25,
sequence,flow.Sequence,8_24,2023-11-17T21:46:13.792Z,,,,,,,,,,,3278.5920000715414,completion,,,,,,,high,low,,,,,,false,,,,,true,616358.3000000715,616357.8000000715,613062.628,613062.5,613079.208,616368.941,1,40,,
trial,html.Screen,8_25_0,2023-11-17T21:46:16.848Z,,,,2,-0.0044063257337227,-0.0172548282859886,,0.04,true,hl,3044.6590000238502,response,0.9752130063130028,1.016187599925589,-1.1301392478475192,-0.7248550908059443,0.9661875999255889,-0.7924095452559496,high,low,,ISIC_7413786.JPG,,ISIC_5190484.JPG,25,false,0.18000000000000005,hl,keypress(j),0,true,619413.7000000477,619413.6000000238,616352.387,616358.5,616368.941,619425.056,1,40,26,
sequence,flow.Sequence,8_25,2023-11-17T21:46:16.848Z,,,,,,,,,,,3044.6590000238502,completion,,,,,,,high,low,,,,,,false,,,,,true,619413.9000000954,619413.6000000238,616352.387,616358.5,616368.941,619425.056,1,40,,
trial,html.Screen,8_26_0,2023-11-17T21:46:22.423Z,,,,2,-0.0220026381002083,0.0170756452911772,,0.04,true,ll,5564.244000071543,response,-1.0667712753225895,0.9661875999255889,-1.1301392478475192,-0.7415337434376102,0.9661875999255889,-0.7746469758383383,low,low,,ISIC_5347806.JPG,,ISIC_8626941.JPG,27,false,0.1,ll,keypress(f),0,true,624989.4000000954,624989.3000000715,619408.168,619414,619425.056,625002.656,1,40,27,
sequence,flow.Sequence,8_26,2023-11-17T21:46:22.423Z,,,,,,,,,,,5564.244000071543,completion,,,,,,,low,low,,,,,,false,,,,,true,624989.5,624989.3000000715,619408.168,619414,619425.056,625002.656,1,40,,
trial,html.Screen,8_27_0,2023-11-17T21:46:30.936Z,,,,2,-0.0220026381002083,0.0170756452911772,,0.04,true,ll,8499.344000000041,response,-0.7745726760243283,0.9661875999255889,-0.8541525093800999,-0.7707329634201495,0.9661875999255889,-0.7746469758383383,low,low,,ISIC_5347806.JPG,,ISIC_0027088.JPG,52,false,0.1,ll,keypress(f),0,true,633502.3000000715,633502,624985.645,624989.7000000477,625002.656,633518.953,1,40,28,
sequence,flow.Sequence,8_27,2023-11-17T21:46:30.937Z,,,,,,,,,,,8499.344000000041,completion,,,,,,,low,low,,,,,,false,,,,,true,633502.6000000238,633502,624985.645,624989.6000000238,625002.656,633518.953,1,40,,
trial,html.Screen,8_28_0,2023-11-17T21:46:37.303Z,,,,2,-0.0200295718112167,-0.0155559071275806,,0.04,false,lh,6350.447000095388,response,-0.6904571159175875,0.9661875999255889,-0.8541525093800999,0.8338159233479188,0.9661875999255889,-0.7226528197222388,low,high,,ISIC_0061343.JPG,,ISIC_6381981.JPG,26,false,0.20000000000000007,hh,keypress(i),0,true,639869.5,639869.4000000954,633502.209,633502.8000000715,633518.953,639881.419,1,40,29,
sequence,flow.Sequence,8_28,2023-11-17T21:46:37.303Z,,,,,,,,,,,6350.447000095388,completion,,,,,,,low,high,,,,,,false,,,,,true,639869.6000000238,639869.4000000954,633502.209,633502.7000000477,633518.953,639881.419,1,40,,
trial,html.Screen,8_29_0,2023-11-17T21:46:40.632Z,,,,2,0.0074667911845194,-0.018500200317654,,0.04,true,hh,3316.381000071531,response,0.9837331918354912,0.9661875999255889,-0.9041525093801,0.9130384672883698,0.9161875999255888,-0.7226528197222388,high,high,,ISIC_0058723.JPG,,ISIC_0001108.JPG,41,false,0.1,hh,keypress(i),0,true,643198,643197.8000000715,639864.81,639869.7000000477,639881.419,643204.454,1,40,30,
sequence,flow.Sequence,8_29,2023-11-17T21:46:40.632Z,,,,,,,,,,,3316.381000071531,completion,,,,,,,high,high,,,,,,false,,,,,true,643198.3000000715,643197.8000000715,639864.81,639869.7000000477,639881.419,643204.454,1,40,,
trial,html.Screen,8_30_0,2023-11-17T21:46:47.441Z,,,,2,0.0374659946425444,0.0086043094957617,,0.04,false,lh,6801.045999999973,response,-1.0453124399868816,0.9661875999255889,-0.9041525093801,0.8986747280184286,0.9161875999255888,-0.7226528197222388,low,high,,ISIC_0033051.JPG,,ISIC_0013967.JPG,26,false,0.20000000000000007,ll,keypress(f),0,true,650005.6000000238,650005.5,643187.809,643198.5,643204.454,650017.694,1,40,31,
sequence,flow.Sequence,8_30,2023-11-17T21:46:47.441Z,,,,,,,,,,,6801.045999999973,completion,,,,,,,low,high,,,,,,false,,,,,true,650005.8000000715,650005.5,643187.809,643198.5,643204.454,650017.694,1,40,,
trial,html.Screen,8_31_0,2023-11-17T21:46:57.560Z,,,,2,0.0109416414475118,0.005246498750811,,0.04,false,hh,10107.406000023824,response,0.9314324055507326,0.9661875999255889,-0.9041525093801,0.974030949255159,0.9661875999255889,-0.7226528197222388,high,high,,ISIC_0064279.JPG,,ISIC_9024529.JPG,39,false,0.1,ll,keypress(f),0,true,660125.1000000238,660125.1000000238,650001.215,650005.8000000715,650017.694,660137.374,1,40,32,
sequence,flow.Sequence,8_31,2023-11-17T21:46:57.560Z,,,,,,,,,,,10107.406000023824,completion,,,,,,,high,high,,,,,,false,,,,,true,660125.3000000715,660125.1000000238,650001.215,650005.8000000715,650017.694,660137.374,1,40,,
trial,html.Screen,8_32_0,2023-11-17T21:47:09.034Z,,,,2,-0.0286056110007553,-0.036125199756515,,0.04,false,ll,11460.926000071573,response,-0.9443728789860508,1.016187599925589,-0.9041525093801,-0.6395826405669953,1.016187599925589,-0.7226528197222388,low,low,,ISIC_6535558.JPG,,ISIC_3163773.JPG,64,false,0.1,hh,keypress(i),0,true,671598.5,671598.3000000715,660120.721,660125.3000000715,660137.374,671609.678,1,40,33,
sequence,flow.Sequence,8_32,2023-11-17T21:47:09.034Z,,,,,,,,,,,11460.926000071573,completion,,,,,,,low,low,,,,,,false,,,,,true,671598.9000000954,671598.3000000715,660120.721,660125.3000000715,660137.374,671609.678,1,40,,
trial,html.Screen,8_33_0,2023-11-17T21:47:12.929Z,,,,2,-0.0009714874637896,0.0174815595031679,,0.04,true,hh,3884.0220000477275,response,1.0063353542987443,1.016187599925589,-0.9541525093801,0.9468739614220908,1.016187599925589,-0.7726528197222389,high,high,,ISIC_9848743.JPG,,ISIC_0072382.JPG,39,false,0.1,hh,keypress(i),0,true,675493.8000000715,675493.7000000477,671593.13,671599,671609.678,675500.625,1,40,34,
sequence,flow.Sequence,8_33,2023-11-17T21:47:12.929Z,,,,,,,,,,,3884.0220000477275,completion,,,,,,,high,high,,,,,,false,,,,,true,675494.1000000238,675493.7000000477,671593.13,671599,671609.678,675500.625,1,40,,
trial,html.Screen,8_34_0,2023-11-17T21:47:21.073Z,,,,2,0.0374659946425444,0.0086043094957617,,0.04,true,hl,8136.675000071526,response,0.8363561555798741,1.016187599925589,-0.9541525093801,-0.6434076918813489,1.016187599925589,-0.7726528197222389,high,low,,ISIC_0033051.JPG,,ISIC_4343552.JPG,25,false,0.18000000000000005,hl,keypress(j),0,true,683637.5,683637.3000000715,675484.124,675494.2000000477,675500.625,683649.759,1,40,35,
sequence,flow.Sequence,8_34,2023-11-17T21:47:21.073Z,,,,,,,,,,,8136.675000071526,completion,,,,,,,high,low,,,,,,false,,,,,true,683637.6000000238,683637.3000000715,675484.124,675494.1000000238,675500.625,683649.759,1,40,,
trial,html.Screen,8_35_0,2023-11-17T21:47:25.537Z,,,,2,-0.0200295718112167,-0.0155559071275806,,0.04,false,hl,4451.441000047722,response,0.9321091908076364,0.9661875999255889,-0.9541525093801,-0.6555598709090513,1.016187599925589,-0.7726528197222389,high,low,,ISIC_0061343.JPG,,ISIC_0160831.JPG,28,false,0.16000000000000003,hh,keypress(i),0,true,688101.4000000954,688101.2000000477,683633.288,683637.7000000477,683649.759,688108.452,1,40,36,
sequence,flow.Sequence,8_35,2023-11-17T21:47:25.537Z,,,,,,,,,,,4451.441000047722,completion,,,,,,,high,low,,,,,,false,,,,,true,688101.5,688101.2000000477,683633.288,683637.7000000477,683649.759,688108.452,1,40,,
trial,html.Screen,8_36_0,2023-11-17T21:47:38.027Z,,,,2,0.0164027439304477,-0.0082910758715273,,0.04,false,lh,12483.248000047635,response,-0.7246771568562105,0.9661875999255889,-0.9541525093801,0.9161385080362604,1.016187599925589,-0.8226528197222389,low,high,,ISIC_7381224.JPG,,ISIC_0028225.JPG,28,false,0.2600000000000001,hh,keypress(i),0,true,700591.9000000954,700591.7000000477,688091.852,688101.5,688108.452,700599.434,1,40,37,
sequence,flow.Sequence,8_36,2023-11-17T21:47:38.027Z,,,,,,,,,,,12483.248000047635,completion,,,,,,,low,high,,,,,,false,,,,,true,700592.2000000477,700591.7000000477,688091.852,688101.5,688108.452,700599.434,1,40,,
trial,html.Screen,8_37_0,2023-11-17T21:47:40.569Z,,,,2,-0.0258224118104549,0.0029364553353019,,0.04,true,lh,2534.1660000238335,response,-1.0453124399868816,0.9661875999255889,-1.0041525093801,0.8986747280184286,0.8741238494219483,-0.8226528197222389,low,high,,ISIC_8325226.JPG,,ISIC_0013967.JPG,28,false,0.21000000000000008,lh,keypress(e),0,true,703133.8000000715,703133.6000000238,700582.843,700592.4000000954,700599.434,703137.713,1,40,38,
sequence,flow.Sequence,8_37,2023-11-17T21:47:40.569Z,,,,,,,,,,,2534.1660000238335,completion,,,,,,,low,high,,,,,,false,,,,,true,703134,703133.6000000238,700582.843,700592.3000000715,700599.434,703137.713,1,40,,
trial,html.Screen,8_38_0,2023-11-17T21:47:47.860Z,,,,2,-0.0119001144851157,0.0063430114540141,,0.04,false,ll,7283.187000095379,response,-1.0622023082418524,0.9661875999255889,-1.0041525093801,-0.8319500041964579,0.8741238494219483,-0.8226528197222389,low,low,,ISIC_0003822.JPG,,ISIC_0056707.JPG,41,false,0.1,hh,keypress(i),0,true,710421,710420.9000000954,703121.135,703134.1000000238,703137.713,710435.209,1,40,39,
sequence,flow.Sequence,8_38,2023-11-17T21:47:47.860Z,,,,,,,,,,,7283.187000095379,completion,,,,,,,low,low,,,,,,false,,,,,true,710421.1000000238,710420.9000000954,703121.135,703134,703137.713,710435.209,1,40,,
trial,html.Screen,8_39_0,2023-11-17T21:47:50.462Z,,,,2,0.0109416414475118,0.005246498750811,,0.04,true,hl,2587.39100002381,response,0.8350129142228142,0.9661875999255889,-1.0541525093801,-0.8172547818270586,0.8741238494219483,-0.872652819722239,high,low,,ISIC_0064279.JPG,,ISIC_0301568.JPG,25,false,0.18000000000000005,hl,keypress(j),0,true,713022.8000000715,713022.6000000238,710418.678,710421.2000000477,710435.209,713040.526,1,40,40,
sequence,flow.Sequence,8_39,2023-11-17T21:47:50.462Z,,,,,,,,,,,2587.39100002381,completion,,,,,,,high,low,,,,,,false,,,,,true,713023.3000000715,713022.6000000238,710418.678,710421.2000000477,710435.209,713040.526,1,40,,
stair_loop,flow.Loop,8,2023-11-17T21:47:50.463Z,,,,,,,,,,,247196.44100002386,completion,,,,,,,,,,,,,,false,,,,,true,713023.6000000238,713022.6000000238,465809.649,465813.60000002384,465826.159,713040.526,1,40,,
exp_instructions,html.Screen,9,2023-11-17T21:48:01.757Z,,,,,,,,,,,11276.67400004773,response,,,,,,,,,,,,,,,,continue,keypress(Space),,,724318,724317.2000000477,713023.656,713023.8000000715,713040.526,724328.933,,,,
trial,html.Screen,10_0_0,2023-11-17T21:48:07.637Z,,,,1,-0.0258224118104549,0.0029364553353019,,0.04,false,ll,5868.767000047723,response,-1.0828565020249128,0.978351501382553,-1.0057478678436966,-0.7576926748805504,0.9698366993634746,-0.8094332814791375,low,low,,ISIC_8325226.JPG,9,ISIC_3105924.JPG,41,false,0.1,lh,keypress(e),0,false,730198,730197.7000000477,724312.398,724318.3000000715,724328.933,730207,4,500,1,
break,html.Screen,10_0_1,2023-11-17T21:48:07.638Z,,,,,,,,,,,NaN,,,,,,,,low,low,,,,,,false,,,,,false,730198.8000000715,730198.6000000238,,730198.2000000477,,730207,4,500,,
break_continue,html.Screen,10_0_2,2023-11-17T21:48:07.638Z,,,,,,,,,,,NaN,,,,,,,,low,low,,,,,,false,,,,,false,730199.5,730199.1000000238,,730199,,730207,4,500,,
sequence,flow.Sequence,10_0,2023-11-17T21:48:07.639Z,,,,,,,,,,,5870.167000023881,completion,,,,,,,low,low,,,,,,false,,,,,false,730199.6000000238,730199.1000000238,724312.398,724318.3000000715,724328.933,730207,4,500,,
trial,html.Screen,10_1_0,2023-11-17T21:48:15.797Z,,,,1,-0.0118382036798625,-0.0300588245877227,,0.04,false,ll,8150.900000095367,response,-1.0008081653938232,0.978351501382553,-1.0057478678436966,-0.7832040253954599,0.9698366993634746,-0.8094332814791375,low,low,,ISIC_4748605.JPG,9,ISIC_8796632.JPG,41,false,0.1,hl,keypress(j),0,false,738358.1000000238,738357.9000000954,730190.49,730199.8000000715,730207,738372.894,4,500,2,
break,html.Screen,10_1_1,2023-11-17T21:48:15.798Z,,,,,,,,,,,NaN,,,,,,,,low,low,,,,,,false,,,,,false,738358.7000000477,738358.6000000238,,738358.3000000715,,738372.894,4,500,,
break_continue,html.Screen,10_1_2,2023-11-17T21:48:15.798Z,,,,,,,,,,,NaN,,,,,,,,low,low,,,,,,false,,,,,false,738359.2000000477,738359,,738358.8000000715,,738372.894,4,500,,
sequence,flow.Sequence,10_1,2023-11-17T21:48:15.798Z,,,,,,,,,,,8152,completion,,,,,,,low,low,,,,,,false,,,,,false,738359.4000000954,738359,730190.49,730199.8000000715,730207,738372.894,4,500,,
trial,html.Screen,10_2_0,2023-11-17T21:48:26.021Z,,,,1,-0.0009714874637896,0.0174815595031679,,0.04,false,lh,10208.506000095396,response,-0.84290786638064,0.978351501382553,-1.0057478678436966,0.7332521189371746,0.9698366993634746,-0.8094332814791375,low,high,,ISIC_9848743.JPG,9,ISIC_4708642.JPG,25,false,0.2500000000000001,ll,keypress(f),0,false,748581.6000000238,748581.4000000954,738356.235,738359.5,738372.894,748592.806,4,500,3,
break,html.Screen,10_2_1,2023-11-17T21:48:26.021Z,,,,,,,,,,,NaN,,,,,,,,low,high,,,,,,false,,,,,false,748582,748581.9000000954,,748581.7000000477,,748592.806,4,500,,
break_continue,html.Screen,10_2_2,2023-11-17T21:48:26.021Z,,,,,,,,,,,NaN,,,,,,,,low,high,,,,,,false,,,,,false,748582.2000000477,748582.1000000238,,748582,,748592.806,4,500,,
sequence,flow.Sequence,10_2,2023-11-17T21:48:26.021Z,,,,,,,,,,,10209.20600002387,completion,,,,,,,low,high,,,,,,false,,,,,false,748582.3000000715,748582.1000000238,738356.235,738359.4000000954,738372.894,748592.806,4,500,,
trial,html.Screen,10_3_0,2023-11-17T21:48:28.348Z,,,,1,-0.0220026381002083,0.0170756452911772,,0.04,false,hh,2316.4940000715433,response,0.9159664042920548,0.978351501382553,-1.0057478678436966,0.96519839238634,0.9698366993634746,-0.8094332814791375,high,high,,ISIC_5347806.JPG,9,ISIC_0053617.JPG,33,false,0.1,hl,keypress(j),0,false,750909.4000000954,750909.3000000715,748576.243,748582.4000000954,748592.806,750913.944,4,500,4,
break,html.Screen,10_3_1,2023-11-17T21:48:28.349Z,,,,,,,,,,,NaN,,,,,,,,high,high,,,,,,false,,,,,false,750909.8000000715,750909.7000000477,,750909.6000000238,,750913.944,4,500,,
break_continue,html.Screen,10_3_2,2023-11-17T21:48:28.349Z,,,,,,,,,,,NaN,,,,,,,,high,high,,,,,,false,,,,,false,750910,750909.9000000954,,750909.8000000715,,750913.944,4,500,,
sequence,flow.Sequence,10_3,2023-11-17T21:48:28.349Z,,,,,,,,,,,2317.094000095385,completion,,,,,,,high,high,,,,,,false,,,,,false,750910.2000000477,750909.9000000954,748576.243,748582.4000000954,748592.806,750913.944,4,500,,
trial,html.Screen,10_4_0,2023-11-17T21:48:32.565Z,,,,1,-0.0258224118104549,0.0029364553353019,,0.04,false,lh,4211.856000071508,response,-0.8828738626295417,0.978351501382553,-1.0057478678436966,0.8288177599439582,0.9698366993634746,-0.8094332814791375,low,high,,ISIC_8325226.JPG,9,ISIC_0056041.JPG,25,false,0.2500000000000001,hh,keypress(i),0,false,755126.1000000238,755125.8000000715,750897.226,750910.2000000477,750913.944,755138.845,4,500,5,
break,html.Screen,10_4_1,2023-11-17T21:48:32.566Z,,,,,,,,,,,NaN,,,,,,,,low,high,,,,,,false,,,,,false,755126.9000000954,755126.8000000715,,755126.3000000715,,755138.845,4,500,,
break_continue,html.Screen,10_4_2,2023-11-17T21:48:32.567Z,,,,,,,,,,,NaN,,,,,,,,low,high,,,,,,false,,,,,false,755127.6000000238,755127.3000000715,,755127.1000000238,,755138.845,4,500,,
sequence,flow.Sequence,10_4,2023-11-17T21:48:32.567Z,,,,,,,,,,,4213.356000071508,completion,,,,,,,low,high,,,,,,false,,,,,false,755127.8000000715,755127.3000000715,750897.226,750910.2000000477,750913.944,755138.845,4,500,,
trial,html.Screen,10_5_0,2023-11-17T21:48:35.277Z,,,,1,0.039520186367207,0.0377961575607372,,0.04,true,lh,2698.655000000028,response,-0.7883321712536753,0.978351501382553,-1.0057478678436966,1.0011430756825364,0.9698366993634746,-0.8094332814791375,low,high,,ISIC_6356149.JPG,8,ISIC_9828853.JPG,25,false,0.2500000000000001,lh,keypress(e),0,false,757837.7000000477,757837.5,755122.212,755127.9000000954,755138.845,757844.127,4,500,6,
break,html.Screen,10_5_1,2023-11-17T21:48:35.277Z,,,,,,,,,,,NaN,,,,,,,,low,high,,,,,,false,,,,,false,757838.2000000477,757838,,757837.8000000715,,757844.127,4,500,,
break_continue,html.Screen,10_5_2,2023-11-17T21:48:35.278Z,,,,,,,,,,,NaN,,,,,,,,low,high,,,,,,false,,,,,false,757838.6000000238,757838.4000000954,,757838.3000000715,,757844.127,4,500,,
sequence,flow.Sequence,10_5,2023-11-17T21:48:35.278Z,,,,,,,,,,,2699.5550000953954,completion,,,,,,,low,high,,,,,,false,,,,,false,757838.7000000477,757838.4000000954,755122.212,755127.9000000954,755138.845,757844.127,4,500,,
trial,html.Screen,10_6_0,2023-11-17T21:48:42.149Z,,,,1,-0.0257631352671967,-0.0202837002774028,,0.04,false,lh,6865.573000047705,response,-0.930804711032185,0.978351501382553,-1.0057478678436966,0.7294067991476295,0.9698366993634746,-0.8094332814791375,low,high,,ISIC_0032797.JPG,9,ISIC_5067317.JPG,25,false,0.2500000000000001,hh,keypress(i),0,false,764709.9000000954,764709.7000000477,757827.518,757838.8000000715,757844.127,764724.149,4,500,7,
break,html.Screen,10_6_1,2023-11-17T21:48:42.149Z,,,,,,,,,,,NaN,,,,,,,,low,high,,,,,,false,,,,,false,764710.5,764710.3000000715,,764710,,764724.149,4,500,,
break_continue,html.Screen,10_6_2,2023-11-17T21:48:42.150Z,,,,,,,,,,,NaN,,,,,,,,low,high,,,,,,false,,,,,false,764710.8000000715,764710.7000000477,,764710.5,,764724.149,4,500,,
sequence,flow.Sequence,10_6,2023-11-17T21:48:42.150Z,,,,,,,,,,,6866.573000047705,completion,,,,,,,low,high,,,,,,false,,,,,false,764710.9000000954,764710.7000000477,757827.518,757838.8000000715,757844.127,764724.149,4,500,,
trial,html.Screen,10_7_0,2023-11-17T21:48:46.456Z,,,,1,0.0388334549081915,-0.0303399972963369,,0.04,false,hl,4289.351000000024,response,0.8363561555798741,0.978351501382553,-1.0057478678436966,-0.6434076918813489,0.9698366993634746,-0.8094332814791375,high,low,,ISIC_4961708.JPG,14,ISIC_4343552.JPG,27,false,0.17000000000000004,lh,keypress(e),0,false,769013.6000000238,769013.5,764707.575,764711,764724.149,769015.819,4,500,8,
break,html.Screen,10_7_1,2023-11-17T21:48:46.457Z,,,,,,,,,,,NaN,,,,,,,,high,low,,,,,,false,,,,,false,769014.1000000238,769013.9000000954,,769013.8000000715,,769015.819,4,500,,
break_continue,html.Screen,10_7_2,2023-11-17T21:48:46.457Z,,,,,,,,,,,NaN,,,,,,,,high,low,,,,,,false,,,,,false,769014.3000000715,769014.2000000477,,769014.1000000238,,769015.819,4,500,,
sequence,flow.Sequence,10_7,2023-11-17T21:48:46.457Z,,,,,,,,,,,4290.051000047708,completion,,,,,,,high,low,,,,,,false,,,,,false,769014.4000000954,769014.2000000477,764707.575,764711,764724.149,769015.819,4,500,,
trial,html.Screen,10_8_0,2023-11-17T21:48:50.296Z,,,,1,0.001445457736793,0.0165307427449982,,0.04,true,hh,3837.781000023824,response,0.9314324055507326,0.978351501382553,-1.0057478678436966,0.974030949255159,0.9698366993634746,-0.8094332814791375,high,high,,ISIC_0027350.JPG,9,ISIC_9024529.JPG,33,false,0.1,hh,keypress(i),0,false,772853.8000000715,772853.6000000238,768999.291,769014.5,769015.819,772856.635,4,500,9,
break,html.Screen,10_8_1,2023-11-17T21:48:50.297Z,,,,,,,,,,,NaN,,,,,,,,high,high,,,,,,false,,,,,false,772854.4000000954,772854.3000000715,,772854,,772856.635,4,500,,
break_continue,html.Screen,10_8_2,2023-11-17T21:48:50.298Z,,,,,,,,,,,NaN,,,,,,,,high,high,,,,,,false,,,,,false,772854.9000000954,772854.7000000477,,772854.6000000238,,772856.635,4,500,,
sequence,flow.Sequence,10_8,2023-11-17T21:48:50.298Z,,,,,,,,,,,3838.881000047666,completion,,,,,,,high,high,,,,,,false,,,,,false,772855.1000000238,772854.7000000477,768999.291,769014.5,769015.819,772856.635,4,500,,
trial,html.Screen,10_9_0,2023-11-17T21:48:54.320Z,,,,1,0.0198696495649504,-0.0387952353063878,,0.04,true,lh,4020.6650000715163,response,-0.7882758084023446,0.978351501382553,-1.0057478678436966,0.8296405881378283,0.9698366993634746,-0.8094332814791375,low,high,,ISIC_6735970.JPG,10,ISIC_0065882.JPG,25,false,0.2500000000000001,lh,keypress(e),0,false,776877.4000000954,776877.3000000715,772840.043,772855.2000000477,772856.635,776881.106,4,500,10,
break,html.Screen,10_9_1,2023-11-17T21:48:54.320Z,,,,,,,,,,,NaN,,,,,,,,low,high,,,,,,false,,,,,false,776877.7000000477,776877.7000000477,,776877.5,,776881.106,4,500,,
break_continue,html.Screen,10_9_2,2023-11-17T21:48:54.321Z,,,,,,,,,,,NaN,,,,,,,,low,high,,,,,,false,,,,,false,776877.9000000954,776877.8000000715,,776877.8000000715,,776881.106,4,500,,
sequence,flow.Sequence,10_9,2023-11-17T21:48:54.321Z,,,,,,,,,,,4021.1650000715163,completion,,,,,,,low,high,,,,,,false,,,,,false,776878,776877.8000000715,772840.043,772855.2000000477,772856.635,776881.106,4,500,,
trial,html.Screen,10_10_0,2023-11-17T21:49:00.392Z,,,,1,0.0374659946425444,0.0086043094957617,,0.04,false,hh,6068.194000071497,response,1.068995482830036,0.978351501382553,-1.0057478678436966,1.02189095692261,0.9698366993634746,-0.8094332814791375,high,high,,ISIC_0033051.JPG,8,ISIC_0046405.JPG,33,false,0.1,hl,keypress(j),0,false,782949.4000000954,782949.3000000715,776864.625,776878,776881.106,782959.648,4,500,11,
break,html.Screen,10_10_1,2023-11-17T21:49:00.392Z,,,,,,,,,,,NaN,,,,,,,,high,high,,,,,,false,,,,,false,782949.8000000715,782949.7000000477,,782949.5,,782959.648,4,500,,
break_continue,html.Screen,10_10_2,2023-11-17T21:49:00.393Z,,,,,,,,,,,NaN,,,,,,,,high,high,,,,,,false,,,,,false,782949.9000000954,782949.9000000954,,782949.8000000715,,782959.648,4,500,,
sequence,flow.Sequence,10_10,2023-11-17T21:49:00.393Z,,,,,,,,,,,6068.794000095339,completion,,,,,,,high,high,,,,,,false,,,,,false,782950.1000000238,782949.9000000954,776864.625,776878,776881.106,782959.648,4,500,,
trial,html.Screen,10_11_0,2023-11-17T21:49:08.137Z,,,,1,0.0374659946425444,0.0086043094957617,,0.04,false,ll,7734.152000071481,response,-0.9381357191664412,0.978351501382553,-1.0057478678436966,-0.7568873197636701,0.9698366993634746,-0.8094332814791375,low,low,,ISIC_0033051.JPG,10,ISIC_9808863.JPG,41,false,0.1,hl,keypress(j),0,false,790694,790693.8000000715,782943.12,782950.1000000238,782959.648,790708.19,4,500,12,
break,html.Screen,10_11_1,2023-11-17T21:49:08.137Z,,,,,,,,,,,NaN,,,,,,,,low,low,,,,,,false,,,,,false,790694.5,790694.4000000954,,790694.2000000477,,790708.19,4,500,,
break_continue,html.Screen,10_11_2,2023-11-17T21:49:08.138Z,,,,,,,,,,,NaN,,,,,,,,low,low,,,,,,false,,,,,false,790695,790694.8000000715,,790694.7000000477,,790708.19,4,500,,
sequence,flow.Sequence,10_11,2023-11-17T21:49:08.138Z,,,,,,,,,,,7735.152000071481,completion,,,,,,,low,low,,,,,,false,,,,,false,790695.1000000238,790694.8000000715,782943.12,782950.1000000238,782959.648,790708.19,4,500,,
trial,html.Screen,10_12_0,2023-11-17T21:49:15.666Z,,,,1,0.0164027439304477,-0.0082910758715273,,0.04,false,ll,7514.410000023898,response,-0.9672217489045032,0.978351501382553,-1.0057478678436966,-0.8148676897881278,0.9698366993634746,-0.8094332814791375,low,low,,ISIC_7381224.JPG,8,ISIC_0010358.JPG,41,false,0.1,lh,keypress(e),0,false,798223.1000000238,798222.6000000238,790691.504,790695.3000000715,790708.19,798239.324,4,500,13,
break,html.Screen,10_12_1,2023-11-17T21:49:15.667Z,,,,,,,,,,,NaN,,,,,,,,low,low,,,,,,false,,,,,false,798224.7000000477,798224.2000000477,,798223.5,,798239.324,4,500,,
break_continue,html.Screen,10_12_2,2023-11-17T21:49:15.668Z,,,,,,,,,,,NaN,,,,,,,,low,low,,,,,,false,,,,,false,798225.6000000238,798225.2000000477,,798224.9000000954,,798239.324,4,500,,
sequence,flow.Sequence,10_12,2023-11-17T21:49:15.669Z,,,,,,,,,,,7517.01000004774,completion,,,,,,,low,low,,,,,,false,,,,,false,798225.9000000954,798225.2000000477,790691.504,790695.3000000715,790708.19,798239.324,4,500,,
trial,html.Screen,10_13_0,2023-11-17T21:49:19.456Z,,,,1,-0.0118382036798625,-0.0300588245877227,,0.04,true,ll,3773.976000071503,response,-1.0058354021163274,0.978351501382553,-1.0057478678436966,-0.8916720716393026,0.9698366993634746,-0.8094332814791375,low,low,,ISIC_4748605.JPG,9,ISIC_5581936.JPG,41,false,0.1,ll,keypress(f),0,false,802013.4000000954,802013.3000000715,798222.786,798226.1000000238,798239.324,802030.107,4,500,14,
break,html.Screen,10_13_1,2023-11-17T21:49:19.456Z,,,,,,,,,,,NaN,,,,,,,,low,low,,,,,,false,,,,,false,802013.7000000477,802013.6000000238,,802013.5,,802030.107,4,500,,
break_continue,html.Screen,10_13_2,2023-11-17T21:49:19.457Z,,,,,,,,,,,NaN,,,,,,,,low,low,,,,,,false,,,,,false,802013.9000000954,802013.8000000715,,802013.8000000715,,802030.107,4,500,,
sequence,flow.Sequence,10_13,2023-11-17T21:49:19.457Z,,,,,,,,,,,3774.476000071503,completion,,,,,,,low,low,,,,,,false,,,,,false,802014,802013.8000000715,798222.786,798226,798239.324,802030.107,4,500,,
trial,html.Screen,10_14_0,2023-11-17T21:49:22.824Z,,,,1,-0.0257631352671967,-0.0202837002774028,,0.04,true,lh,3351.1930000715656,response,-1.1711869602302662,0.978351501382553,-1.0057478678436966,0.7434626355969514,0.9698366993634746,-0.8094332814791375,low,high,,ISIC_0032797.JPG,9,ISIC_0059052.JPG,25,false,0.2500000000000001,lh,keypress(e),0,false,805381.4000000954,805381.3000000715,802013.402,802014,802030.107,805386.528,4,500,15,
break,html.Screen,10_14_1,2023-11-17T21:49:22.824Z,,,,,,,,,,,NaN,,,,,,,,low,high,,,,,,false,,,,,false,805381.8000000715,805381.7000000477,,805381.5,,805386.528,4,500,,
break_continue,html.Screen,10_14_2,2023-11-17T21:49:22.825Z,,,,,,,,,,,NaN,,,,,,,,low,high,,,,,,false,,,,,false,805382,805381.9000000954,,805381.8000000715,,805386.528,4,500,,
sequence,flow.Sequence,10_14,2023-11-17T21:49:22.825Z,,,,,,,,,,,3351.7930000954075,completion,,,,,,,low,high,,,,,,false,,,,,false,805382.1000000238,805381.9000000954,802013.402,802014,802030.107,805386.528,4,500,,
trial,html.Screen,10_15_0,2023-11-17T21:49:29.320Z,,,,1,-0.0009714874637896,0.0174815595031679,,0.04,true,ll,6490.971999999951,response,-1.006091591942289,0.978351501382553,-1.0057478678436966,-0.8039345947564286,0.9698366993634746,-0.8094332814791375,low,low,,ISIC_9848743.JPG,8,ISIC_6993129.JPG,41,false,0.1,ll,keypress(f),0,false,811877.7000000477,811877.5,805370.011,805382.1000000238,805386.528,811899.449,4,500,16,
break,html.Screen,10_15_1,2023-11-17T21:49:29.321Z,,,,,,,,,,,NaN,,,,,,,,low,low,,,,,,false,,,,,false,811878.3000000715,811878.2000000477,,811877.9000000954,,811899.449,4,500,,
break_continue,html.Screen,10_15_2,2023-11-17T21:49:29.322Z,,,,,,,,,,,NaN,,,,,,,,low,low,,,,,,false,,,,,false,811878.8000000715,811878.6000000238,,811878.5,,811899.449,4,500,,
sequence,flow.Sequence,10_15,2023-11-17T21:49:29.322Z,,,,,,,,,,,6492.0720000237925,completion,,,,,,,low,low,,,,,,false,,,,,false,811878.9000000954,811878.6000000238,805370.011,805382.1000000238,805386.528,811899.449,4,500,,
trial,html.Screen,10_16_0,2023-11-17T21:49:32.976Z,,,,1,-0.0118382036798625,-0.0300588245877227,,0.04,true,hl,3633.851000071503,response,1.0099417584598938,0.978351501382553,-1.0057478678436966,-0.6898515052486707,0.9698366993634746,-0.8094332814791375,high,low,,ISIC_4748605.JPG,9,ISIC_8929288.JPG,27,false,0.17000000000000004,hl,keypress(j),0,false,815533.6000000238,815533.3000000715,811882.581,811879.1000000238,811899.449,815539.622,4,500,17,
break,html.Screen,10_16_1,2023-11-17T21:49:32.977Z,,,,,,,,,,,NaN,,,,,,,,high,low,,,,,,false,,,,,false,815533.8000000715,815533.8000000715,,815533.6000000238,,815539.622,4,500,,
break_continue,html.Screen,10_16_2,2023-11-17T21:49:32.977Z,,,,,,,,,,,NaN,,,,,,,,high,low,,,,,,false,,,,,false,815534.1000000238,815534,,815533.9000000954,,815539.622,4,500,,
sequence,flow.Sequence,10_16,2023-11-17T21:49:32.977Z,,,,,,,,,,,3634.5509999999776,completion,,,,,,,high,low,,,,,,false,,,,,false,815534.1000000238,815534,811882.581,811879,811899.449,815539.622,4,500,,
trial,html.Screen,10_17_0,2023-11-17T21:49:34.921Z,,,,1,0.0198696495649504,-0.0387952353063878,,0.04,false,lh,1938.478000023868,response,-0.8472024037189965,0.978351501382553,-1.0057478678436966,0.986370061404882,0.9698366993634746,-0.8094332814791375,low,high,,ISIC_6735970.JPG,9,ISIC_0054355.JPG,25,false,0.2500000000000001,hl,keypress(j),0,false,817478.3000000715,817478.1000000238,815523.103,815534.2000000477,815539.622,817493.404,4,500,18,
break,html.Screen,10_17_1,2023-11-17T21:49:34.922Z,,,,,,,,,,,NaN,,,,,,,,low,high,,,,,,false,,,,,false,817479.3000000715,817479,,817478.6000000238,,817493.404,4,500,,
break_continue,html.Screen,10_17_2,2023-11-17T21:49:34.923Z,,,,,,,,,,,NaN,,,,,,,,low,high,,,,,,false,,,,,false,817479.9000000954,817479.6000000238,,817479.5,,817493.404,4,500,,
sequence,flow.Sequence,10_17,2023-11-17T21:49:34.923Z,,,,,,,,,,,1939.978000023868,completion,,,,,,,low,high,,,,,,false,,,,,false,817480.2000000477,817479.6000000238,815523.103,815534.1000000238,815539.622,817493.404,4,500,,
trial,html.Screen,10_18_0,2023-11-17T21:49:39.296Z,,,,1,-0.0076984477620101,-0.0069458408496562,,0.04,false,lh,4359.496000095387,response,-0.8034318937720549,0.978351501382553,-1.0057478678436966,1.0024917298189338,0.9698366993634746,-0.8094332814791375,low,high,,ISIC_0000434.JPG,9,ISIC_0032766.JPG,25,false,0.2500000000000001,ll,keypress(f),0,false,821853.1000000238,821852.9000000954,817476.924,817480.3000000715,817493.404,821885.564,4,500,19,
break,html.Screen,10_18_1,2023-11-17T21:49:39.296Z,,,,,,,,,,,NaN,,,,,,,,low,high,,,,,,false,,,,,false,821853.3000000715,821853.3000000715,,821853.2000000477,,821885.564,4,500,,
break_continue,html.Screen,10_18_2,2023-11-17T21:49:39.296Z,,,,,,,,,,,NaN,,,,,,,,low,high,,,,,,false,,,,,false,821853.5,821853.5,,821853.4000000954,,821885.564,4,500,,
sequence,flow.Sequence,10_18,2023-11-17T21:49:39.296Z,,,,,,,,,,,4360.09600000002,completion,,,,,,,low,high,,,,,,false,,,,,false,821853.6000000238,821853.5,817476.924,817480.2000000477,817493.404,821885.564,4,500,,
trial,html.Screen,10_19_0,2023-11-17T21:49:41.952Z,,,,1,0.0065172941585523,-0.0118857043117315,,0.04,false,ll,2623.536000023829,response,-0.9473579617457568,0.978351501382553,-1.0057478678436966,-0.7787784704155521,0.9698366993634746,-0.8094332814791375,low,low,,ISIC_6119202.JPG,9,ISIC_0012037.JPG,41,false,0.1,lh,keypress(e),0,false,824509.1000000238,824509.1000000238,821868.702,821853.7000000477,821885.564,824524.019,4,500,20,
break,html.Screen,10_19_1,2023-11-17T21:49:41.952Z,,,,,,,,,,,NaN,,,,,,,,low,low,,,,,,false,,,,,false,824509.6000000238,824509.5,,824509.3000000715,,824524.019,4,500,,
break_continue,html.Screen,10_19_2,2023-11-17T21:49:41.953Z,,,,,,,,,,,NaN,,,,,,,,low,low,,,,,,false,,,,,false,824509.9000000954,824509.7000000477,,824509.6000000238,,824524.019,4,500,,
sequence,flow.Sequence,10_19,2023-11-17T21:49:41.953Z,,,,,,,,,,,2624.1360000476707,completion,,,,,,,low,low,,,,,,false,,,,,false,824510,824509.7000000477,821868.702,821853.6000000238,821885.564,824524.019,4,500,,
trial,html.Screen,10_20_0,2023-11-17T21:49:46.036Z,,,,1,-0.0220026381002083,0.0170756452911772,,0.04,true,hh,4065.481000000029,response,0.985308473785524,0.978351501382553,-1.0057478678436966,0.958447814554682,0.9698366993634746,-0.8094332814791375,high,high,,ISIC_5347806.JPG,8,ISIC_0054914.JPG,33,false,0.1,hh,keypress(i),0,false,828589.6000000238,828589.5,824507.12,824510,824524.019,828598.367,4,500,21,
break,html.Screen,10_20_1,2023-11-17T21:49:46.036Z,,,,,,,,,,,NaN,,,,,,,,high,high,,,,,,false,,,,,false,828590,828589.9000000954,,828589.7000000477,,828598.367,4,500,,
break_continue,html.Screen,10_20_2,2023-11-17T21:49:46.037Z,,,,,,,,,,,NaN,,,,,,,,high,high,,,,,,false,,,,,false,828590.3000000715,828590.1000000238,,828590.1000000238,,828598.367,4,500,,
sequence,flow.Sequence,10_20,2023-11-17T21:49:46.037Z,,,,,,,,,,,4066.0810000238707,completion,,,,,,,high,high,,,,,,false,,,,,false,828590.4000000954,828590.1000000238,824507.12,824510,824524.019,828598.367,4,500,,
trial,html.Screen,10_21_0,2023-11-17T21:49:50.885Z,,,,1,-0.0118382036798625,-0.0300588245877227,,0.04,false,lh,4839.533000095398,response,-0.989300717252516,0.978351501382553,-1.0057478678436966,0.7908280206937478,0.9698366993634746,-0.8094332814791375,low,high,,ISIC_4748605.JPG,10,ISIC_6416533.JPG,25,false,0.2500000000000001,hh,keypress(i),0,false,833438.1000000238,833437.9000000954,828581.914,828590.5,828598.367,833441.14,4,500,22,
break,html.Screen,10_21_1,2023-11-17T21:49:50.885Z,,,,,,,,,,,NaN,,,,,,,,low,high,,,,,,false,,,,,false,833438.9000000954,833438.8000000715,,833438.4000000954,,833441.14,4,500,,
break_continue,html.Screen,10_21_2,2023-11-17T21:49:50.886Z,,,,,,,,,,,NaN,,,,,,,,low,high,,,,,,false,,,,,false,833439.4000000954,833439.3000000715,,833439,,833441.14,4,500,,
sequence,flow.Sequence,10_21,2023-11-17T21:49:50.886Z,,,,,,,,,,,4840.933000071556,completion,,,,,,,low,high,,,,,,false,,,,,false,833439.5,833439.3000000715,828581.914,828590.4000000954,828598.367,833441.14,4,500,,
trial,html.Screen,10_22_0,2023-11-17T21:49:54.133Z,,,,1,0.0164027439304477,-0.0082910758715273,,0.04,true,lh,3244.859999999986,response,-1.0453124399868816,0.978351501382553,-1.0057478678436966,0.8986747280184286,0.9698366993634746,-0.8094332814791375,low,high,,ISIC_7381224.JPG,9,ISIC_0013967.JPG,25,false,0.2500000000000001,lh,keypress(e),0,false,836686.2000000477,836686,833424.364,833439.7000000477,833441.14,836697.47,4,500,23,
break,html.Screen,10_22_1,2023-11-17T21:49:54.133Z,,,,,,,,,,,NaN,,,,,,,,low,high,,,,,,false,,,,,false,836686.9000000954,836686.8000000715,,836686.5,,836697.47,4,500,,
break_continue,html.Screen,10_22_2,2023-11-17T21:49:54.134Z,,,,,,,,,,,NaN,,,,,,,,low,high,,,,,,false,,,,,false,836687.5,836687.3000000715,,836687.1000000238,,836697.47,4,500,,
sequence,flow.Sequence,10_22,2023-11-17T21:49:54.134Z,,,,,,,,,,,3246.1600000715116,completion,,,,,,,low,high,,,,,,false,,,,,false,836687.7000000477,836687.3000000715,833424.364,833439.6000000238,833441.14,836697.47,4,500,,
trial,html.Screen,10_23_0,2023-11-17T21:49:57.364Z,,,,1,-0.0308384937406319,0.0038396364323947,,0.04,true,hl,3219.8300000715535,response,1.0153439398566937,0.978351501382553,-1.0057478678436966,-0.93001438372942,0.9698366993634746,-0.8094332814791375,high,low,,ISIC_0029825.JPG,9,ISIC_8211214.JPG,27,false,0.17000000000000004,hl,keypress(j),0,false,839917.3000000715,839917.3000000715,836680.924,836687.9000000954,836697.47,839920.373,4,500,24,
break,html.Screen,10_23_1,2023-11-17T21:49:57.364Z,,,,,,,,,,,NaN,,,,,,,,high,low,,,,,,false,,,,,false,839917.7000000477,839917.6000000238,,839917.4000000954,,839920.373,4,500,,
break_continue,html.Screen,10_23_2,2023-11-17T21:49:57.364Z,,,,,,,,,,,NaN,,,,,,,,high,low,,,,,,false,,,,,false,839917.9000000954,839917.7000000477,,839917.7000000477,,839920.373,4,500,,
sequence,flow.Sequence,10_23,2023-11-17T21:49:57.364Z,,,,,,,,,,,3220.2300000477117,completion,,,,,,,high,low,,,,,,false,,,,,false,839918,839917.7000000477,836680.924,836687.8000000715,836697.47,839920.373,4,500,,
trial,html.Screen,10_24_0,2023-11-17T21:50:04.172Z,,,,1,0.0088741920055285,0.0058246074740588,,0.04,false,hl,6804.626999999979,response,0.8586825315141272,0.978351501382553,-1.0057478678436966,-0.6478987351677682,0.9698366993634746,-0.8094332814791375,high,low,,ISIC_4136663.JPG,8,ISIC_0271408.JPG,27,false,0.17000000000000004,lh,keypress(e),0,false,846725.1000000238,846725,839903.79,839918,839920.373,846750.356,4,500,25,
break,html.Screen,10_24_1,2023-11-17T21:50:04.172Z,,,,,,,,,,,NaN,,,,,,,,high,low,,,,,,false,,,,,false,846725.5,846725.4000000954,,846725.2000000477,,846750.356,4,500,,
break_continue,html.Screen,10_24_2,2023-11-17T21:50:04.172Z,,,,,,,,,,,NaN,,,,,,,,high,low,,,,,,false,,,,,false,846725.7000000477,846725.6000000238,,846725.6000000238,,846750.356,4,500,,
sequence,flow.Sequence,10_24,2023-11-17T21:50:04.172Z,,,,,,,,,,,6805.22700002382,completion,,,,,,,high,low,,,,,,false,,,,,false,846725.7000000477,846725.6000000238,839903.79,839918,839920.373,846750.356,4,500,,
trial,html.Screen,10_25_0,2023-11-17T21:50:11.356Z,,,,1,0.0374659946425444,0.0086043094957617,,0.04,false,ll,7158.744000023813,response,-0.9966799416482932,0.978351501382553,-1.0057478678436966,-0.7513707283535042,0.9698366993634746,-0.8094332814791375,low,low,,ISIC_0033051.JPG,9,ISIC_7489895.JPG,41,false,0.1,hl,keypress(j),0,false,853909.3000000715,853909.1000000238,846733.863,846725.8000000715,846750.356,853914.255,4,500,26,
break,html.Screen,10_25_1,2023-11-17T21:50:11.356Z,,,,,,,,,,,NaN,,,,,,,,low,low,,,,,,false,,,,,false,853909.6000000238,853909.5,,853909.4000000954,,853914.255,4,500,,
break_continue,html.Screen,10_25_2,2023-11-17T21:50:11.356Z,,,,,,,,,,,NaN,,,,,,,,low,low,,,,,,false,,,,,false,853909.8000000715,853909.7000000477,,853909.7000000477,,853914.255,4,500,,
sequence,flow.Sequence,10_25,2023-11-17T21:50:11.356Z,,,,,,,,,,,7159.344000047655,completion,,,,,,,low,low,,,,,,false,,,,,false,853909.9000000954,853909.7000000477,846733.863,846725.8000000715,846750.356,853914.255,4,500,,
trial,html.Screen,10_26_0,2023-11-17T21:50:13.349Z,,,,1,0.0199950873045219,0.0172506388509166,,0.04,false,hh,1987.7449999999953,response,0.9314324055507326,0.978351501382553,-1.0057478678436966,0.974030949255159,0.9698366993634746,-0.8094332814791375,high,high,,ISIC_0029906.JPG,9,ISIC_9024529.JPG,33,false,0.1,hl,keypress(j),0,false,855902.3000000715,855902,853897.627,853909.9000000954,853914.255,855918.167,4,500,27,
break,html.Screen,10_26_1,2023-11-17T21:50:13.350Z,,,,,,,,,,,NaN,,,,,,,,high,high,,,,,,false,,,,,false,855903.1000000238,855902.9000000954,,855902.6000000238,,855918.167,4,500,,
break_continue,html.Screen,10_26_2,2023-11-17T21:50:13.350Z,,,,,,,,,,,NaN,,,,,,,,high,high,,,,,,false,,,,,false,855904.1000000238,855903.6000000238,,855903.4000000954,,855918.167,4,500,,
sequence,flow.Sequence,10_26,2023-11-17T21:50:13.351Z,,,,,,,,,,,1989.3450000238372,completion,,,,,,,high,high,,,,,,false,,,,,false,855904.5,855903.6000000238,853897.627,853909.9000000954,853914.255,855918.167,4,500,,
trial,html.Screen,10_27_0,2023-11-17T21:50:24.068Z,,,,1,-0.0257631352671967,-0.0202837002774028,,0.04,true,hl,10703.13300007151,response,1.0153439398566937,0.978351501382553,-1.0057478678436966,-0.93001438372942,0.9698366993634746,-0.8094332814791375,high,low,,ISIC_0032797.JPG,9,ISIC_8211214.JPG,27,false,0.17000000000000004,hl,keypress(j),0,false,866621.5,866621.3000000715,855901.454,855904.8000000715,855918.167,866639.488,4,500,28,
break,html.Screen,10_27_1,2023-11-17T21:50:24.068Z,,,,,,,,,,,NaN,,,,,,,,high,low,,,,,,false,,,,,false,866621.8000000715,866621.7000000477,,866621.5,,866639.488,4,500,,
break_continue,html.Screen,10_27_2,2023-11-17T21:50:24.068Z,,,,,,,,,,,NaN,,,,,,,,high,low,,,,,,false,,,,,false,866622,866621.9000000954,,866621.8000000715,,866639.488,4,500,,
sequence,flow.Sequence,10_27,2023-11-17T21:50:24.068Z,,,,,,,,,,,10703.733000095352,completion,,,,,,,high,low,,,,,,false,,,,,false,866622,866621.9000000954,855901.454,855904.6000000238,855918.167,866639.488,4,500,,
trial,html.Screen,10_28_0,2023-11-17T21:50:28.075Z,,,,1,,0.0102871556606504,,0.04,false,hh,3989.4120000953553,response,0.9866910776752168,0.978351501382553,-1.0057478678436966,0.9730788960408626,0.9698366993634746,-0.8094332814791375,high,high,,ISIC_1805163.JPG,8,ISIC_0070003.JPG,33,false,0.1,lh,keypress(e),0,false,870629,870628.9000000954,866605.648,866622.1000000238,866639.488,870647.244,4,500,29,
break,html.Screen,10_28_1,2023-11-17T21:50:28.076Z,,,,,,,,,,,NaN,,,,,,,,high,high,,,,,,false,,,,,false,870629.4000000954,870629.2000000477,,870629.1000000238,,870647.244,4,500,,
break_continue,html.Screen,10_28_2,2023-11-17T21:50:28.076Z,,,,,,,,,,,NaN,,,,,,,,high,high,,,,,,false,,,,,false,870629.7000000477,870629.5,,870629.4000000954,,870647.244,4,500,,
sequence,flow.Sequence,10_28,2023-11-17T21:50:28.076Z,,,,,,,,,,,3990.011999999988,completion,,,,,,,high,high,,,,,,false,,,,,false,870629.7000000477,870629.5,866605.648,866622.1000000238,866639.488,870647.244,4,500,,
trial,html.Screen,10_29_0,2023-11-17T21:50:32.452Z,,,,1,0.0065172941585523,-0.0118857043117315,,0.04,true,hh,4358.256000000052,response,0.9837331918354912,0.978351501382553,-1.0057478678436966,0.9130384672883698,0.9698366993634746,-0.8094332814791375,high,high,,ISIC_6119202.JPG,10,ISIC_0001108.JPG,33,false,0.1,hh,keypress(i),0,false,875005.6000000238,875005.5,870613.509,870629.9000000954,870647.244,875022.026,4,500,30,
break,html.Screen,10_29_1,2023-11-17T21:50:32.453Z,,,,,,,,,,,NaN,,,,,,,,high,high,,,,,,false,,,,,false,875006.2000000477,875006.1000000238,,875005.9000000954,,875022.026,4,500,,
break_continue,html.Screen,10_29_2,2023-11-17T21:50:32.453Z,,,,,,,,,,,NaN,,,,,,,,high,high,,,,,,false,,,,,false,875006.6000000238,875006.5,,875006.3000000715,,875022.026,4,500,,
sequence,flow.Sequence,10_29,2023-11-17T21:50:32.453Z,,,,,,,,,,,4359.256000000052,completion,,,,,,,high,high,,,,,,false,,,,,false,875006.8000000715,875006.5,870613.509,870629.8000000715,870647.244,875022.026,4,500,,
trial,html.Screen,10_30_0,2023-11-17T21:50:48.454Z,,,,1,-0.0367744112927588,-0.0324865661712824,,0.04,,,16014.429000000004,timeout,0.9377879738246,0.978351501382553,-1.0057478678436966,-0.6684167919118053,0.9698366993634746,-0.8094332814791375,high,low,,ISIC_4523565.JPG,9,ISIC_0028986.JPG,27,false,0.17000000000000004,,,0,false,891003.9000000954,891003.8000000715,875005.242,875006.8000000715,875022.026,891036.455,4,500,31,
break,html.Screen,10_30_1,2023-11-17T21:50:48.454Z,,,,,,,,,,,NaN,,,,,,,,high,low,,,,,,false,,,,,false,891004.2000000477,891004.1000000238,,891004,,891036.455,4,500,,
break_continue,html.Screen,10_30_2,2023-11-17T21:50:48.455Z,,,,,,,,,,,NaN,,,,,,,,high,low,,,,,,false,,,,,false,891004.4000000954,891004.4000000954,,891004.3000000715,,891036.455,4,500,,
sequence,flow.Sequence,10_30,2023-11-17T21:50:48.455Z,,,,,,,,,,,15982.374000095413,completion,,,,,,,high,low,,,,,,false,,,,,false,891004.5,891004.4000000954,875005.242,875006.8000000715,875022.026,891036.455,4,500,,
trial,html.Screen,10_31_0,2023-11-17T21:50:56.656Z,,,,1,0.039520186367207,0.0377961575607372,,0.04,true,ll,8169.145000023884,response,-0.9867903749582616,0.978351501382553,-1.0057478678436966,-0.779537769597012,0.9698366993634746,-0.8094332814791375,low,low,,ISIC_6356149.JPG,9,ISIC_7168122.JPG,41,false,0.1,ll,keypress(f),0,false,899205.8000000715,899205.6000000238,891019.905,891004.6000000238,891036.455,899219.075,4,500,32,
break,html.Screen,10_31_1,2023-11-17T21:50:56.657Z,,,,,,,,,,,NaN,,,,,,,,low,low,,,,,,false,,,,,false,899206.5,899206.3000000715,,899206.1000000238,,899219.075,4,500,,
break_continue,html.Screen,10_31_2,2023-11-17T21:50:56.657Z,,,,,,,,,,,NaN,,,,,,,,low,low,,,,,,false,,,,,false,899207.1000000238,899206.8000000715,,899206.7000000477,,899219.075,4,500,,
sequence,flow.Sequence,10_31,2023-11-17T21:50:56.657Z,,,,,,,,,,,8170.3450000715675,completion,,,,,,,low,low,,,,,,false,,,,,false,899207.2000000477,899206.8000000715,891019.905,891004.6000000238,891036.455,899219.075,4,500,,
trial,html.Screen,10_32_0,2023-11-17T21:51:04.575Z,,,,1,-0.0257631352671967,-0.0202837002774028,,0.04,false,lh,7906.225000071572,response,-1.0369885917487718,0.978351501382553,-1.0057478678436966,0.8486937878412699,0.9698366993634746,-0.8094332814791375,low,high,,ISIC_0032797.JPG,9,ISIC_6917681.JPG,25,false,0.2500000000000001,hl,keypress(j),0,false,907125.4000000954,907125.3000000715,899202.455,899207.3000000715,899219.075,907134.495,4,500,33,
break,html.Screen,10_32_1,2023-11-17T21:51:04.576Z,,,,,,,,,,,NaN,,,,,,,,low,high,,,,,,false,,,,,false,907125.7000000477,907125.6000000238,,907125.4000000954,,907134.495,4,500,,
break_continue,html.Screen,10_32_2,2023-11-17T21:51:04.576Z,,,,,,,,,,,NaN,,,,,,,,low,high,,,,,,false,,,,,false,907125.8000000715,907125.7000000477,,907125.7000000477,,907134.495,4,500,,
sequence,flow.Sequence,10_32,2023-11-17T21:51:04.576Z,,,,,,,,,,,7906.62500004773,completion,,,,,,,low,high,,,,,,false,,,,,false,907125.9000000954,907125.7000000477,899202.455,899207.3000000715,899219.075,907134.495,4,500,,
trial,html.Screen,10_33_0,2023-11-17T21:51:08.801Z,,,,1,-0.0367706518941078,0.0161069838272154,,0.04,false,hh,4215.6050000238465,response,0.9866910776752168,0.978351501382553,-1.0057478678436966,0.9730788960408626,0.9698366993634746,-0.8094332814791375,high,high,,ISIC_0033419.JPG,9,ISIC_0070003.JPG,33,false,0.1,lh,keypress(e),0,false,911350.3000000715,911350.1000000238,907117.854,907125.9000000954,907134.495,911359.33,4,500,34,
break,html.Screen,10_33_1,2023-11-17T21:51:08.801Z,,,,,,,,,,,NaN,,,,,,,,high,high,,,,,,false,,,,,false,911351.2000000477,911351.1000000238,,911350.7000000477,,911359.33,4,500,,
break_continue,html.Screen,10_33_2,2023-11-17T21:51:08.802Z,,,,,,,,,,,NaN,,,,,,,,high,high,,,,,,false,,,,,false,911352,911351.6000000238,,911351.4000000954,,911359.33,4,500,,
sequence,flow.Sequence,10_33,2023-11-17T21:51:08.802Z,,,,,,,,,,,4217.1050000238465,completion,,,,,,,high,high,,,,,,false,,,,,false,911352.1000000238,911351.6000000238,907117.854,907125.9000000954,907134.495,911359.33,4,500,,
trial,html.Screen,10_34_0,2023-11-17T21:51:11.801Z,,,,1,0.039520186367207,0.0377961575607372,,0.04,false,hh,2990.7700000238838,response,1.0333845898785206,0.978351501382553,-1.0057478678436966,0.998838774713298,0.9698366993634746,-0.8094332814791375,high,high,,ISIC_6356149.JPG,9,ISIC_0010486.JPG,33,false,0.1,hl,keypress(j),0,false,914350.4000000954,914350.1000000238,911342.771,911352.3000000715,911359.33,914365.193,4,500,35,
break,html.Screen,10_34_1,2023-11-17T21:51:11.801Z,,,,,,,,,,,NaN,,,,,,,,high,high,,,,,,false,,,,,false,914351.2000000477,914351,,914350.7000000477,,914365.193,4,500,,
break_continue,html.Screen,10_34_2,2023-11-17T21:51:11.802Z,,,,,,,,,,,NaN,,,,,,,,high,high,,,,,,false,,,,,false,914351.8000000715,914351.6000000238,,914351.4000000954,,914365.193,4,500,,
sequence,flow.Sequence,10_34,2023-11-17T21:51:11.802Z,,,,,,,,,,,2992.2700000238838,completion,,,,,,,high,high,,,,,,false,,,,,false,914352,914351.6000000238,911342.771,911352.2000000477,911359.33,914365.193,4,500,,
trial,html.Screen,10_35_0,2023-11-17T21:51:17.031Z,,,,1,0.0198696495649504,-0.0387952353063878,,0.04,true,ll,5215.907000023872,response,-1.0361104193014674,0.978351501382553,-1.0057478678436966,-0.7632520489027056,0.9698366993634746,-0.8094332814791375,low,low,,ISIC_6735970.JPG,9,ISIC_7017387.JPG,41,false,0.1,ll,keypress(f),0,false,919581.2000000477,919581.1000000238,914348.672,914352.2000000477,914365.193,919591.995,4,500,36,
break,html.Screen,10_35_1,2023-11-17T21:51:17.032Z,,,,,,,,,,,NaN,,,,,,,,low,low,,,,,,false,,,,,false,919581.6000000238,919581.5,,919581.3000000715,,919591.995,4,500,,
break_continue,html.Screen,10_35_2,2023-11-17T21:51:17.032Z,,,,,,,,,,,NaN,,,,,,,,low,low,,,,,,false,,,,,false,919581.7000000477,919581.6000000238,,919581.6000000238,,919591.995,4,500,,
sequence,flow.Sequence,10_35,2023-11-17T21:51:17.032Z,,,,,,,,,,,5216.407000023872,completion,,,,,,,low,low,,,,,,false,,,,,false,919581.8000000715,919581.6000000238,914348.672,914352.2000000477,914365.193,919591.995,4,500,,
trial,html.Screen,10_36_0,2023-11-17T21:51:23.440Z,,,,1,,0.0102871556606504,,0.04,false,ll,6397.705000047688,response,-0.9253985598518948,0.978351501382553,-1.0057478678436966,-0.8253785649083512,0.9698366993634746,-0.8094332814791375,low,low,,ISIC_1805163.JPG,9,ISIC_7509837.JPG,41,false,0.1,lh,keypress(e),0,false,925989.8000000715,925989.7000000477,919575.497,919581.9000000954,919591.995,926004.465,4,500,37,
break,html.Screen,10_36_1,2023-11-17T21:51:23.441Z,,,,,,,,,,,NaN,,,,,,,,low,low,,,,,,false,,,,,false,925990.4000000954,925990.2000000477,,925990,,926004.465,4,500,,
break_continue,html.Screen,10_36_2,2023-11-17T21:51:23.441Z,,,,,,,,,,,NaN,,,,,,,,low,low,,,,,,false,,,,,false,925990.8000000715,925990.6000000238,,925990.4000000954,,926004.465,4,500,,
sequence,flow.Sequence,10_36,2023-11-17T21:51:23.441Z,,,,,,,,,,,6398.6050000238465,completion,,,,,,,low,low,,,,,,false,,,,,false,925990.9000000954,925990.6000000238,919575.497,919581.8000000715,919591.995,926004.465,4,500,,
trial,html.Screen,10_37_0,2023-11-17T21:51:26.503Z,,,,1,-0.0367706518941078,0.0161069838272154,,0.04,true,lh,3048.4350000954,response,-0.9754077946987664,0.978351501382553,-1.0057478678436966,1.1821868813141057,0.9698366993634746,-0.8094332814791375,low,high,,ISIC_0033419.JPG,9,ISIC_0024317.JPG,25,false,0.2500000000000001,lh,keypress(e),0,false,929053,929052.9000000954,925987.949,925991,926004.465,929060.409,4,500,38,
break,html.Screen,10_37_1,2023-11-17T21:51:26.503Z,,,,,,,,,,,NaN,,,,,,,,low,high,,,,,,false,,,,,false,929053.3000000715,929053.2000000477,,929053,,929060.409,4,500,,
break_continue,html.Screen,10_37_2,2023-11-17T21:51:26.504Z,,,,,,,,,,,NaN,,,,,,,,low,high,,,,,,false,,,,,false,929053.4000000954,929053.4000000954,,929053.3000000715,,929060.409,4,500,,
sequence,flow.Sequence,10_37,2023-11-17T21:51:26.504Z,,,,,,,,,,,3048.9350000954,completion,,,,,,,low,high,,,,,,false,,,,,false,929053.5,929053.4000000954,925987.949,925990.9000000954,926004.465,929060.409,4,500,,
trial,html.Screen,10_38_0,2023-11-17T21:51:28.976Z,,,,1,-0.0258224118104549,0.0029364553353019,,0.04,false,ll,2465.4910000953823,response,-1.0828565020249128,0.978351501382553,-1.0057478678436966,-0.7576926748805504,0.9698366993634746,-0.8094332814791375,low,low,,ISIC_8325226.JPG,9,ISIC_3105924.JPG,41,false,0.1,lh,keypress(e),0,false,931526.1000000238,931525.9000000954,929043.886,929053.6000000238,929060.409,931531.935,4,500,39,
break,html.Screen,10_38_1,2023-11-17T21:51:28.977Z,,,,,,,,,,,NaN,,,,,,,,low,low,,,,,,false,,,,,false,931526.8000000715,931526.7000000477,,931526.3000000715,,931531.935,4,500,,
break_continue,html.Screen,10_38_2,2023-11-17T21:51:28.978Z,,,,,,,,,,,NaN,,,,,,,,low,low,,,,,,false,,,,,false,931527.4000000954,931527.1000000238,,931526.9000000954,,931531.935,4,500,,
