sender,sender_type,sender_id,timestamp,meta,,age,blockNo,c1,c2,condition,control_tolerance,correct,correctResponse,duration,ended_on,f1,f1_high,f1_low,f2,f2_high,f2_low,feature_level1,feature_level2,gender,img_left,img_reveal,img_right,n_target_images,practice,range_tolerance,response,response_action,selection_duration,staircase,time_commit,time_end,time_render,time_run,time_show,time_switch,total_blocks,total_trials,trialNo,url
informed_consent,html.Screen,0,2023-11-17T17:46:02.225Z,"{""labjs_version"":""20.2.4"",""labjs_build"":{""flavor"":""development"",""commit"":""f5b4a49f956347addd546a832a3327688c2c0fef""},""location"":""https://labjs.felixhenninger.com/api/labjs_preview/index.html"",""userAgent"":""Mozilla/5.0 (Windows NT 10.0; Win64; x64) AppleWebKit/537.36 (KHTML, like Gecko) Chrome/119.0.0.0 Safari/537.36"",""platform"":""Win32"",""language"":""en-US"",""locale"":""en-US"",""timeZone"":""America/Chicago"",""timezoneOffset"":360,""screen_width"":1680,""screen_height"":1050,""scroll_width"":825,""scroll_height"":888,""window_innerWidth"":825,""window_innerHeight"":936,""devicePixelRatio"":1}",,,,,,,,,,29606.01299997616,response,,,,,,,,,,,,,,,,consent,click button,,,30292.099999904633,30283.399999976158,660.646,858.0999999046326,677.387,30084.57,,,,{}
Demography form,html.Form,1,2023-11-17T17:46:19.875Z,,,19,,,,,,,,17856.029999904633,form submission,,,,,,,,,female,,,,,,,,,,,47940.799999952316,47940.59999990463,30068.117,30292.299999952316,30084.57,47752.367,,,,
Welcome,html.Screen,2,2023-11-17T17:47:22.003Z,,,,,,,"[""asym"",""col""]",,,,62315.332999928476,response,,,,,,,,,,,,,,,,continue,keypress(Space),,,110068.29999995232,110067.69999992847,47735.598,47940.89999997616,47752.367,109873.063,,,,
demo_instructions,html.Screen,3,2023-11-17T17:48:50.427Z,,,,,,,,,,,88618.937,response,,,,,,,,,,,,,,,,continue,keypress(Space),,,198492.69999992847,198492,109856.1,110068.39999997616,109873.063,198328.441,,,,
trial,html.Screen,4_0_0,2023-11-17T17:49:08.202Z,,,,0,1.0700930503975157,-0.923753102263735,,,true,lh,17939.05900000001,response,-1.4727776799485246,1.2,-1.2,0.8779113138076752,1.2,-1.2,low,high,,ISIC_0000022.JPG,,ISIC_0033074.JPG,29,true,0.3600000000000002,lh,keypress(e),100,false,216267.79999995232,216267.5,198277.649,198493,198328.441,216096.465,1,16,1,
sequence,flow.Sequence,4_0,2023-11-17T17:49:08.202Z,,,,,,,,,,,17939.05900000001,completion,,,,,,,low,high,,,,,,true,,,,,false,216267.89999997616,216267.5,198277.649,198493,198328.441,216096.465,1,16,,
trial,html.Screen,4_1_0,2023-11-17T17:49:23.820Z,,,,0,1.2609895831255231,-1.0687377724194886,,,true,lh,15789.035000000003,response,-1.00615481805876,1.2,-1.2,0.8428903771195875,1.2,-1.2,low,high,,ISIC_1367610.JPG,,ISIC_0069970.JPG,29,true,0.3600000000000002,lh,keypress(e),100,false,231885.69999992847,231885.5,216079.645,216268.09999990463,216096.465,231710.276,1,16,2,
sequence,flow.Sequence,4_1,2023-11-17T17:49:23.820Z,,,,,,,,,,,15789.035000000003,completion,,,,,,,low,high,,,,,,true,,,,,false,231885.89999997616,231885.5,216079.645,216268,216096.465,231710.276,1,16,,
trial,html.Screen,4_2_0,2023-11-17T17:49:28.241Z,,,,0,0.887838744955182,-1.3716210719758812,,,true,lh,4595.923999928462,response,-1.4748095371445096,1.2,-1.2,0.9579010801034902,1.2,-1.2,low,high,,ISIC_1488727.JPG,,ISIC_0033216.JPG,29,true,0.3600000000000002,lh,keypress(e),100,false,236306.39999997616,236306.19999992847,231693.371,231886.09999990463,231710.276,236135.307,1,16,3,
sequence,flow.Sequence,4_2,2023-11-17T17:49:28.241Z,,,,,,,,,,,4595.923999928462,completion,,,,,,,low,high,,,,,,true,,,,,false,236306.59999990463,236306.19999992847,231693.371,231886.09999990463,231710.276,236135.307,1,16,,
trial,html.Screen,4_3_0,2023-11-17T17:49:32.414Z,,,,0,1.0345332538240786,-1.4719115945084815,,,true,lh,4344.092999976157,response,-0.8779374983479176,1.2,-1.2,0.9745548032823428,1.2,-1.2,low,high,,ISIC_0192490.JPG,,ISIC_2991354.JPG,29,true,0.3600000000000002,lh,keypress(e),100,false,240479.5,240479.39999997616,236118.82,236306.59999990463,236135.307,240293.384,1,16,4,
sequence,flow.Sequence,4_3,2023-11-17T17:49:32.414Z,,,,,,,,,,,4344.092999976157,completion,,,,,,,low,high,,,,,,true,,,,,false,240479.69999992847,240479.39999997616,236118.82,236306.59999990463,236135.307,240293.384,1,16,,
trial,html.Screen,4_4_0,2023-11-17T17:49:38.995Z,,,,0,1.194799101954455,1.2071632388858642,,,true,ll,6766.915999952325,response,-1.1217390688497193,1.2,-1.2,-1.2276600934505035,1.2,-1.2,low,low,,ISIC_4347535.JPG,,ISIC_0026344.JPG,127,true,0.3300000000000002,ll,keypress(f),100,false,247060.39999997616,247060.29999995232,240276.728,240479.89999997616,240293.384,246889.668,1,16,5,
sequence,flow.Sequence,4_4,2023-11-17T17:49:38.995Z,,,,,,,,,,,6766.915999952325,completion,,,,,,,low,low,,,,,,true,,,,,false,247060.5,247060.29999995232,240276.728,240479.79999995232,240293.384,246889.668,1,16,,
trial,html.Screen,4_5_0,2023-11-17T17:49:49.066Z,,,,0,1.1126049058422398,1.2305421124063929,,,true,ll,10241.331999999995,response,-1.204229955025689,1.2,-1.2,-1.0874249761617445,1.2,-1.2,low,low,,ISIC_0071536.JPG,,ISIC_0056930.JPG,25,true,0.15000000000000002,ll,keypress(f),100,false,257131.09999990463,257131,246872.978,247060.69999992847,246889.668,256959.158,1,16,6,
sequence,flow.Sequence,4_5,2023-11-17T17:49:49.066Z,,,,,,,,,,,10241.331999999995,completion,,,,,,,low,low,,,,,,true,,,,,false,257131.5,257131,246872.978,247060.59999990463,246889.668,256959.158,1,16,,
trial,html.Screen,4_6_0,2023-11-17T17:49:51.655Z,,,,0,1.1227373144244253,1.1886610799377713,,,true,ll,2761.4419999046368,response,-1.1363600109870835,1.2,-1.2,-1.295816345369928,1.2,-1.2,low,low,,ISIC_0059506.JPG,,ISIC_0026141.JPG,25,true,0.15000000000000002,ll,keypress(f),100,false,259720.69999992847,259720.59999990463,256942.568,257131.69999992847,256959.158,259547.551,1,16,7,
sequence,flow.Sequence,4_6,2023-11-17T17:49:51.655Z,,,,,,,,,,,2761.4419999046368,completion,,,,,,,low,low,,,,,,true,,,,,false,259720.79999995232,259720.59999990463,256942.568,257131.69999992847,256959.158,259547.551,1,16,,
trial,html.Screen,4_7_0,2023-11-17T17:49:55.934Z,,,,0,1.2040551955011098,1.2664651062241792,,,true,ll,4451.048999904626,response,-1.3045229691102764,1.2,-1.2,-1.1781544075681951,1.2,-1.2,low,low,,ISIC_0068886.JPG,,ISIC_6148533.JPG,25,true,0.15000000000000002,ll,keypress(f),100,false,263998.89999997616,263998.59999990463,259531.053,259721,259547.551,263822.501,1,16,8,
sequence,flow.Sequence,4_7,2023-11-17T17:49:55.934Z,,,,,,,,,,,4451.048999904626,completion,,,,,,,low,low,,,,,,true,,,,,false,263999.1999999285,263998.59999990463,259531.053,259720.89999997616,259547.551,263822.501,1,16,,
trial,html.Screen,4_8_0,2023-11-17T17:50:05.237Z,,,,0,-1.4748095371445096,0.9579010801034902,,,false,hl,9479.398999976169,response,0.9046170303418553,1.2,-1.2,-1.0063426986460375,1.2,-1.2,high,low,,ISIC_0033216.JPG,,ISIC_0055759.JPG,26,true,0.3300000000000002,hh,keypress(i),100,false,273302,273301.89999997616,263805.855,263999.39999997616,263822.501,273123.97,1,16,9,
sequence,flow.Sequence,4_8,2023-11-17T17:50:05.237Z,,,,,,,,,,,9479.398999976169,completion,,,,,,,high,low,,,,,,true,,,,,false,273302.2999999523,273301.89999997616,263805.855,263999.39999997616,263822.501,273123.97,1,16,,
trial,html.Screen,4_9_0,2023-11-17T17:50:09.002Z,,,,0,-1.2615315960773072,1.194084675079932,,,false,hl,3943.030000000028,response,1.1547137855907486,1.2,-1.2,-1.0185275168641534,1.2,-1.2,high,low,,ISIC_0010044.JPG,,ISIC_7604870.JPG,33,true,0.3600000000000002,hh,keypress(i),100,false,277067.09999990463,277067,273107.234,273302.39999997616,273123.97,276881.207,1,16,10,
sequence,flow.Sequence,4_9,2023-11-17T17:50:09.002Z,,,,,,,,,,,3943.030000000028,completion,,,,,,,high,low,,,,,,true,,,,,false,277067.39999997616,277067,273107.234,273302.39999997616,273123.97,276881.207,1,16,,
trial,html.Screen,4_10_0,2023-11-17T17:50:12.523Z,,,,0,-0.9385447468573198,1.2289860846064424,,,true,hl,3706.9929999284795,response,0.9293545888449,1.2,-1.2,-1.551750455622795,1.2,-1.2,high,low,,ISIC_0032780.JPG,,ISIC_7717907.JPG,33,true,0.3600000000000002,hl,keypress(j),100,false,280588.2999999523,280588.1999999285,276864.564,277067.59999990463,276881.207,280404.909,1,16,11,
sequence,flow.Sequence,4_10,2023-11-17T17:50:12.523Z,,,,,,,,,,,3706.9929999284795,completion,,,,,,,high,low,,,,,,true,,,,,false,280588.6999999285,280588.1999999285,276864.564,277067.5,276881.207,280404.909,1,16,,
trial,html.Screen,4_11_0,2023-11-17T17:50:15.707Z,,,,0,-1.2615315960773072,1.194084675079932,,,true,hl,3367.2909999284893,response,0.9670240379618178,1.2,-1.2,-1.1806404773220665,1.2,-1.2,high,low,,ISIC_0010044.JPG,,ISIC_0002288.JPG,33,true,0.3600000000000002,hl,keypress(j),100,false,283772.39999997616,283772.1999999285,280388.092,280588.7999999523,280404.909,283594.294,1,16,12,
sequence,flow.Sequence,4_11,2023-11-17T17:50:15.707Z,,,,,,,,,,,3367.2909999284893,completion,,,,,,,high,low,,,,,,true,,,,,false,283772.5,283772.1999999285,280388.092,280588.7999999523,280404.909,283594.294,1,16,,
trial,html.Screen,4_12_0,2023-11-17T17:50:21.858Z,,,,0,-1.301795918505203,-1.0518606632781424,,,true,hh,6328.805999904638,response,1.1783311757907324,1.2,-1.2,1.266840220031473,1.2,-1.2,high,high,,ISIC_0027666.JPG,,ISIC_8241457.JPG,249,true,0.3600000000000002,hh,keypress(i),100,false,289923.1999999285,289923.09999990463,283577.785,283772.59999990463,283594.294,289739.824,1,16,13,
sequence,flow.Sequence,4_12,2023-11-17T17:50:21.858Z,,,,,,,,,,,6328.805999904638,completion,,,,,,,high,high,,,,,,true,,,,,false,289923.39999997616,289923.09999990463,283577.785,283772.59999990463,283594.294,289739.824,1,16,,
trial,html.Screen,4_13_0,2023-11-17T17:50:39.866Z,,,,0,-1.0581281450494728,-1.133169116569424,,,true,hh,18191.575999976136,response,1.1671212908494544,1.2,-1.2,1.1286681796701683,1.2,-1.2,high,high,,ISIC_5490352.JPG,,ISIC_0065022.JPG,41,true,0.15000000000000002,hh,keypress(i),100,false,307931.59999990463,307931.39999997616,289722.847,289923.59999990463,289739.824,307758.05,1,16,14,
sequence,flow.Sequence,4_13,2023-11-17T17:50:39.866Z,,,,,,,,,,,18191.575999976136,completion,,,,,,,high,high,,,,,,true,,,,,false,307931.7999999523,307931.39999997616,289722.847,289923.5,289739.824,307758.05,1,16,,
trial,html.Screen,4_14_0,2023-11-17T17:50:41.444Z,,,,0,-1.1638334638021437,-1.0846635401396965,,,true,hh,1750.8499999761698,response,1.1227373144244253,1.2,-1.2,1.1886610799377713,1.2,-1.2,high,high,,ISIC_4718313.JPG,,ISIC_0059506.JPG,41,true,0.15000000000000002,hh,keypress(i),100,false,309509.09999990463,309508.89999997616,307741.365,307931.7999999523,307758.05,309327.69,1,16,15,
sequence,flow.Sequence,4_14,2023-11-17T17:50:41.444Z,,,,,,,,,,,1750.8499999761698,completion,,,,,,,high,high,,,,,,true,,,,,false,309509.5,309508.89999997616,307741.365,307931.7999999523,307758.05,309327.69,1,16,,
trial,html.Screen,4_15_0,2023-11-17T17:50:43.168Z,,,,0,-1.1642596483638106,-1.091507924157762,,,true,hh,1905.109999952314,response,1.1407514641016443,1.2,-1.2,1.280017651202714,1.2,-1.2,high,high,,ISIC_0765584.JPG,,ISIC_0072507.JPG,41,true,0.15000000000000002,hh,keypress(i),100,false,311232.89999997616,311232.7999999523,309310.99,309509.59999990463,309327.69,311047.795,1,16,16,
sequence,flow.Sequence,4_15,2023-11-17T17:50:43.168Z,,,,,,,,,,,1905.109999952314,completion,,,,,,,high,high,,,,,,true,,,,,false,311233.2999999523,311232.7999999523,309310.99,309509.5,309327.69,311047.795,1,16,,
demonstration_loop,flow.Loop,4,2023-11-17T17:50:43.168Z,,,,,,,,,,,112904.35899995232,completion,,,,,,,,,,,,,,true,,,,,false,311233.5,311232.7999999523,198277.649,198492.89999997616,198328.441,311047.795,1,16,,
practice_instructions,html.Screen,5,2023-11-17T17:50:57.462Z,,,,,,,,,,,14467.804999904649,response,,,,,,,,,,,,,,,,continue,keypress(Space),,,325525.89999997616,325515.59999990463,311031.017,311233.5,311047.795,325342.125,,,,
trial,html.Screen,6_0_0,2023-11-17T17:51:04.788Z,,,,1,1.2043484010107477,-1.2178113180138233,,,true,lh,7509.875,response,-0.9087169856594104,1.2,-1.2,0.8835647084207277,1.2,-1.2,low,high,,ISIC_0011917.JPG,,ISIC_0000349.JPG,29,true,0.3600000000000002,lh,keypress(e),0,false,332852.39999997616,332852,325308.834,325526.09999990463,325342.125,332656.352,1,40,1,
sequence,flow.Sequence,6_0,2023-11-17T17:51:04.788Z,,,,,,,,,,,7509.875,completion,,,,,,,low,high,,,,,,true,,,,,false,332852.6999999285,332852,325308.834,325526.09999990463,325342.125,332656.352,1,40,,
trial,html.Screen,6_1_0,2023-11-17T17:51:14.844Z,,,,1,-0.9445114955578736,1.0054210059625863,,,true,hl,10251.447999952303,response,1.0961318727760048,1.2,-1.2,-1.2134960228256146,1.2,-1.2,high,low,,ISIC_0033807.JPG,,ISIC_9768421.JPG,26,true,0.3300000000000002,hl,keypress(j),0,false,342907.89999997616,342907.7999999523,332639.686,332852.89999997616,332656.352,342709.231,1,40,2,
sequence,flow.Sequence,6_1,2023-11-17T17:51:14.844Z,,,,,,,,,,,10251.447999952303,completion,,,,,,,high,low,,,,,,true,,,,,false,342908,342907.7999999523,332639.686,332852.7999999523,332656.352,342709.231,1,40,,
trial,html.Screen,6_2_0,2023-11-17T17:51:22.107Z,,,,1,-0.8479396253253069,1.011054319516718,,,true,hl,7462.468999928446,response,0.8787496315223856,1.2,-1.2,-1.3680901203013998,1.2,-1.2,high,low,,ISIC_0063521.JPG,,ISIC_0023811.JPG,33,true,0.3600000000000002,hl,keypress(j),0,false,350171.7999999523,350171.6999999285,342692.648,342908.09999990463,342709.231,349973.358,1,40,3,
sequence,flow.Sequence,6_2,2023-11-17T17:51:22.108Z,,,,,,,,,,,7462.468999928446,completion,,,,,,,high,low,,,,,,true,,,,,false,350172,350171.6999999285,342692.648,342908.09999990463,342709.231,349973.358,1,40,,
trial,html.Screen,6_3_0,2023-11-17T17:51:28.651Z,,,,1,0.8709576717420565,-1.2795156779072283,,,true,lh,6742.141999999993,response,-1.00615481805876,1.2,-1.2,0.8428903771195875,1.2,-1.2,low,high,,ISIC_1925632.JPG,,ISIC_0069970.JPG,29,true,0.3600000000000002,lh,keypress(e),0,false,356715.59999990463,356715.5,349956.904,350172,349973.358,356519.406,1,40,4,
sequence,flow.Sequence,6_3,2023-11-17T17:51:28.651Z,,,,,,,,,,,6742.141999999993,completion,,,,,,,low,high,,,,,,true,,,,,false,356715.7999999523,356715.5,349956.904,350172,349973.358,356519.406,1,40,,
trial,html.Screen,6_4_0,2023-11-17T17:51:32.948Z,,,,1,1.2315945866020412,1.13226141421557,,,true,ll,4492.793999928457,response,-0.9840050049609405,1.2,-1.2,-1.1927876559115576,1.2,-1.2,low,low,,ISIC_0033595.JPG,,ISIC_8651053.JPG,127,true,0.3300000000000002,ll,keypress(f),0,false,361012.39999997616,361012.1999999285,356502.846,356715.7999999523,356519.406,360811.15,1,40,5,
sequence,flow.Sequence,6_4,2023-11-17T17:51:32.948Z,,,,,,,,,,,4492.793999928457,completion,,,,,,,low,low,,,,,,true,,,,,false,361012.59999990463,361012.1999999285,356502.846,356715.7999999523,356519.406,360811.15,1,40,,
trial,html.Screen,6_5_0,2023-11-17T17:51:40.892Z,,,,1,1.2055236989581275,1.1960893075698802,,,true,ll,8145.149999952293,response,-1.073296525451802,1.2,-1.2,-1.3454282740421717,1.2,-1.2,low,low,,ISIC_0072393.JPG,,ISIC_5787312.JPG,25,true,0.15000000000000002,ll,keypress(f),0,false,368956.59999990463,368956.2999999523,360794.57,361012.6999999285,360811.15,368793.305,1,40,6,
sequence,flow.Sequence,6_5,2023-11-17T17:51:40.892Z,,,,,,,,,,,8145.149999952293,completion,,,,,,,low,low,,,,,,true,,,,,false,368956.89999997616,368956.2999999523,360794.57,361012.6999999285,360811.15,368793.305,1,40,,
trial,html.Screen,6_6_0,2023-11-17T17:51:45.099Z,,,,1,-0.9445114955578736,1.0054210059625863,,,true,hl,4370.394999928481,response,1.0264463986917702,1.2,-1.2,-1.171271535505083,1.2,-1.2,high,low,,ISIC_0033807.JPG,,ISIC_7889838.JPG,26,true,0.3300000000000002,hl,keypress(j),0,false,373163.89999997616,373163.6999999285,368743.158,368957,368793.305,372968.119,1,40,7,
sequence,flow.Sequence,6_6,2023-11-17T17:51:45.100Z,,,,,,,,,,,4370.394999928481,completion,,,,,,,high,low,,,,,,true,,,,,false,373164.09999990463,373163.6999999285,368743.158,368956.89999997616,368793.305,372968.119,1,40,,
trial,html.Screen,6_7_0,2023-11-17T17:51:49.476Z,,,,1,-1.073296525451802,-1.3454282740421717,,,true,hh,4571.780999976152,response,0.892888705264033,1.2,-1.2,1.1616901486941038,1.2,-1.2,high,high,,ISIC_5787312.JPG,,ISIC_0066101.JPG,249,true,0.3600000000000002,hh,keypress(i),0,false,377540,377539.89999997616,372951.491,373164.1999999285,372968.119,377343.256,1,40,8,
sequence,flow.Sequence,6_7,2023-11-17T17:51:49.476Z,,,,,,,,,,,4571.780999976152,completion,,,,,,,high,high,,,,,,true,,,,,false,377540.1999999285,377539.89999997616,372951.491,373164.1999999285,372968.119,377343.256,1,40,,
trial,html.Screen,6_8_0,2023-11-17T17:51:56.267Z,,,,1,1.2609895831255231,-1.0687377724194886,,,true,lh,6988.4439999284805,response,-1.2838089642212804,1.2,-1.2,0.8550527900640753,1.2,-1.2,low,high,,ISIC_1367610.JPG,,ISIC_0034187.JPG,29,true,0.3600000000000002,lh,keypress(e),0,false,384331.89999997616,384331.6999999285,377326.713,377540.39999997616,377343.256,384139.836,1,40,9,
sequence,flow.Sequence,6_8,2023-11-17T17:51:56.268Z,,,,,,,,,,,6988.4439999284805,completion,,,,,,,low,high,,,,,,true,,,,,false,384332,384331.6999999285,377326.713,377540.2999999523,377343.256,384139.836,1,40,,
trial,html.Screen,6_9_0,2023-11-17T17:52:02.268Z,,,,1,1.1227373144244253,1.1886610799377713,,,true,ll,6192.16399999999,response,-1.444494618254804,1.2,-1.2,-1.4967477608870836,1.2,-1.2,low,low,,ISIC_0059506.JPG,,ISIC_9390107.JPG,127,true,0.3300000000000002,ll,keypress(f),0,false,390332.09999990463,390332,384123.285,384332,384139.836,390168.188,1,40,10,
sequence,flow.Sequence,6_9,2023-11-17T17:52:02.268Z,,,,,,,,,,,6192.16399999999,completion,,,,,,,low,low,,,,,,true,,,,,false,390332.2999999523,390332,384123.285,384332,384139.836,390168.188,1,40,,
trial,html.Screen,6_10_0,2023-11-17T17:52:10.036Z,,,,1,-0.8534691366511764,1.276663727068437,,,true,hl,7931.711999976134,response,1.0345332538240786,1.2,-1.2,-1.4719115945084815,1.2,-1.2,high,low,,ISIC_0056788.JPG,,ISIC_0192490.JPG,26,true,0.3300000000000002,hl,keypress(j),0,false,398100.09999990463,398099.89999997616,390118.216,390332.39999997616,390168.188,397899.912,1,40,11,
sequence,flow.Sequence,6_10,2023-11-17T17:52:10.036Z,,,,,,,,,,,7931.711999976134,completion,,,,,,,high,low,,,,,,true,,,,,false,398100.2999999523,398099.89999997616,390118.216,390332.39999997616,390168.188,397899.912,1,40,,
trial,html.Screen,6_11_0,2023-11-17T17:52:13.220Z,,,,1,0.9873794329144926,-0.9500689037516484,,,true,lh,3384.1879999046214,response,-0.9087169856594104,1.2,-1.2,0.8835647084207277,1.2,-1.2,low,high,,ISIC_0013498.JPG,,ISIC_0000349.JPG,29,true,0.3600000000000002,lh,keypress(e),0,false,401284.2999999523,401284.09999990463,397883.361,398100.2999999523,397899.912,401089.447,1,40,12,
sequence,flow.Sequence,6_11,2023-11-17T17:52:13.221Z,,,,,,,,,,,3384.1879999046214,completion,,,,,,,low,high,,,,,,true,,,,,false,401284.6999999285,401284.09999990463,397883.361,398100.2999999523,397899.912,401089.447,1,40,,
trial,html.Screen,6_12_0,2023-11-17T17:52:16.204Z,,,,1,-0.9013888878932071,0.9328095253308732,,,true,hl,3178.0530000000144,response,1.155796217969438,1.2,-1.2,-1.1646564121743912,1.2,-1.2,high,low,,ISIC_0068259.JPG,,ISIC_2685523.JPG,26,true,0.3300000000000002,hl,keypress(j),0,false,404267.59999990463,404267.5,401072.774,401285,401089.447,404078.575,1,40,13,
sequence,flow.Sequence,6_12,2023-11-17T17:52:16.204Z,,,,,,,,,,,3178.0530000000144,completion,,,,,,,high,low,,,,,,true,,,,,false,404267.6999999285,404267.5,401072.774,401284.89999997616,401089.447,404078.575,1,40,,
trial,html.Screen,6_13_0,2023-11-17T17:52:21.997Z,,,,1,0.8787496315223856,-1.3680901203013998,,,true,lh,5981.924999999988,response,-0.9087169856594104,1.2,-1.2,0.8835647084207277,1.2,-1.2,low,high,,ISIC_0023811.JPG,,ISIC_0000349.JPG,29,true,0.3600000000000002,lh,keypress(e),0,false,410060.6999999285,410060.5,404062.019,404267.7999999523,404078.575,409873.343,1,40,14,
sequence,flow.Sequence,6_13,2023-11-17T17:52:21.997Z,,,,,,,,,,,5981.924999999988,completion,,,,,,,low,high,,,,,,true,,,,,false,410061.1999999285,410060.5,404062.019,404267.6999999285,404078.575,409873.343,1,40,,
trial,html.Screen,6_14_0,2023-11-17T17:52:34.780Z,,,,1,-1.073296525451802,-1.3454282740421717,,,true,hh,12970.657000000007,response,0.9249963751334934,1.2,-1.2,1.182095152097272,1.2,-1.2,high,high,,ISIC_5787312.JPG,,ISIC_6404049.JPG,211,true,0.3300000000000002,hh,keypress(i),0,false,422844.1999999285,422844,409856.576,410061.39999997616,409873.343,422647.993,1,40,15,
sequence,flow.Sequence,6_14,2023-11-17T17:52:34.780Z,,,,,,,,,,,12970.657000000007,completion,,,,,,,high,high,,,,,,true,,,,,false,422844.5,422844,409856.576,410061.2999999523,409873.343,422647.993,1,40,,
trial,html.Screen,6_15_0,2023-11-17T17:52:42.652Z,,,,1,-1.1604734171556077,-1.0789312625280616,,,true,hh,8067.706999928458,response,1.1227373144244253,1.2,-1.2,1.1886610799377713,1.2,-1.2,high,high,,ISIC_3950753.JPG,,ISIC_0059506.JPG,41,true,0.15000000000000002,hh,keypress(i),0,false,430715.89999997616,430715.6999999285,422631.307,422844.59999990463,422647.993,430546.948,1,40,16,
sequence,flow.Sequence,6_15,2023-11-17T17:52:42.652Z,,,,,,,,,,,8067.706999928458,completion,,,,,,,high,high,,,,,,true,,,,,false,430716.09999990463,430715.6999999285,422631.307,422844.59999990463,422647.993,430546.948,1,40,,
trial,html.Screen,6_16_0,2023-11-17T17:52:48.613Z,,,,1,1.1715181192107684,1.2251845559044463,,,true,ll,6129.451999976183,response,-1.1638334638021437,1.2,-1.2,-1.0846635401396965,1.2,-1.2,low,low,,ISIC_0011957.JPG,,ISIC_4718313.JPG,25,true,0.15000000000000002,ll,keypress(f),0,false,436676.59999990463,436676.39999997616,430530.174,430716.1999999285,430546.948,436492.851,1,40,17,
sequence,flow.Sequence,6_16,2023-11-17T17:52:48.613Z,,,,,,,,,,,6129.451999976183,completion,,,,,,,low,low,,,,,,true,,,,,false,436677.09999990463,436676.39999997616,430530.174,430716.1999999285,430546.948,436492.851,1,40,,
trial,html.Screen,6_17_0,2023-11-17T17:52:52.692Z,,,,1,1.2704198237183777,-1.138121072015301,,,true,lh,4262.948999952292,response,-0.8591294258188253,1.2,-1.2,0.870797302150167,1.2,-1.2,low,high,,ISIC_0501843.JPG,,ISIC_0055841.JPG,29,true,0.3600000000000002,lh,keypress(e),0,false,440755.89999997616,440755.7999999523,436458.407,436677.1999999285,436492.851,440566.377,1,40,18,
sequence,flow.Sequence,6_17,2023-11-17T17:52:52.692Z,,,,,,,,,,,4262.948999952292,completion,,,,,,,low,high,,,,,,true,,,,,false,440756.1999999285,440755.7999999523,436458.407,436677.09999990463,436492.851,440566.377,1,40,,
trial,html.Screen,6_18_0,2023-11-17T17:52:58.860Z,,,,1,1.3132505134129506,1.0949928516457437,,,true,ll,6357.322999928496,response,-1.09666761087476,1.2,-1.2,-0.9917482735105084,1.2,-1.2,low,low,,ISIC_0066935.JPG,,ISIC_0071754.JPG,127,true,0.3300000000000002,ll,keypress(f),0,false,446923.7999999523,446923.6999999285,440549.65,440756.2999999523,440566.377,446728.151,1,40,19,
sequence,flow.Sequence,6_18,2023-11-17T17:52:58.860Z,,,,,,,,,,,6357.322999928496,completion,,,,,,,low,low,,,,,,true,,,,,false,446924,446923.6999999285,440549.65,440756.2999999523,440566.377,446728.151,1,40,,
trial,html.Screen,6_19_0,2023-11-17T17:53:03.372Z,,,,1,1.1474466950560966,1.173734476257662,,,true,ll,4707.94899990462,response,-1.0581281450494728,1.2,-1.2,-1.133169116569424,1.2,-1.2,low,low,,ISIC_5216586.JPG,,ISIC_5490352.JPG,25,true,0.15000000000000002,ll,keypress(f),0,false,451436.2999999523,451436.09999990463,446711.489,446924,446728.151,451253.673,1,40,20,
sequence,flow.Sequence,6_19,2023-11-17T17:53:03.373Z,,,,,,,,,,,4707.94899990462,completion,,,,,,,low,low,,,,,,true,,,,,false,451436.59999990463,451436.09999990463,446711.489,446924,446728.151,451253.673,1,40,,
trial,html.Screen,6_20_0,2023-11-17T17:53:08.084Z,,,,1,1.296989496412063,-1.1425074323097002,,,true,lh,4894.32699999999,response,-0.8494721812820843,1.2,-1.2,1.3435429139974266,1.2,-1.2,low,high,,ISIC_6356803.JPG,,ISIC_0033585.JPG,29,true,0.3600000000000002,lh,keypress(e),0,false,456148.1999999285,456148,451220.345,451436.7999999523,451253.673,455963.547,1,40,21,
sequence,flow.Sequence,6_20,2023-11-17T17:53:08.085Z,,,,,,,,,,,4894.32699999999,completion,,,,,,,low,high,,,,,,true,,,,,false,456148.39999997616,456148,451220.345,451436.7999999523,451253.673,455963.547,1,40,,
trial,html.Screen,6_21_0,2023-11-17T17:53:13.931Z,,,,1,-1.294521945180264,-1.3078626540563885,,,true,hh,6031.652999928454,response,1.018568530854085,1.2,-1.2,1.1850528225859975,1.2,-1.2,high,high,,ISIC_3601224.JPG,,ISIC_0057180.JPG,211,true,0.3300000000000002,hh,keypress(i),0,false,461995.2999999523,461995.1999999285,455929.56,456148.5,455963.547,461807.54,1,40,22,
sequence,flow.Sequence,6_21,2023-11-17T17:53:13.932Z,,,,,,,,,,,6031.652999928454,completion,,,,,,,high,high,,,,,,true,,,,,false,461995.5,461995.1999999285,455929.56,456148.5,455963.547,461807.54,1,40,,
trial,html.Screen,6_22_0,2023-11-17T17:53:18.796Z,,,,1,-1.212030980680325,-1.139863018685685,,,true,hh,5052.259999952337,response,1.2315945866020412,1.2,-1.2,1.13226141421557,1.2,-1.2,high,high,,ISIC_0008510.JPG,,ISIC_0033595.JPG,41,true,0.15000000000000002,hh,keypress(i),0,false,466860,466859.7999999523,461790.913,461995.59999990463,461807.54,466666.951,1,40,23,
sequence,flow.Sequence,6_22,2023-11-17T17:53:18.796Z,,,,,,,,,,,5052.259999952337,completion,,,,,,,high,high,,,,,,true,,,,,false,466860.09999990463,466859.7999999523,461790.913,461995.59999990463,461807.54,466666.951,1,40,,
trial,html.Screen,6_23_0,2023-11-17T17:53:22.484Z,,,,1,0.9670240379618178,-1.1806404773220665,,,true,lh,3880.7489999284735,response,-0.8591294258188253,1.2,-1.2,0.870797302150167,1.2,-1.2,low,high,,ISIC_0002288.JPG,,ISIC_0055841.JPG,29,true,0.3600000000000002,lh,keypress(e),0,false,470547.89999997616,470547.6999999285,466650.254,466860.1999999285,466666.951,470357.76,1,40,24,
sequence,flow.Sequence,6_23,2023-11-17T17:53:22.484Z,,,,,,,,,,,3880.7489999284735,completion,,,,,,,low,high,,,,,,true,,,,,false,470548.1999999285,470547.6999999285,466650.254,466860.1999999285,466666.951,470357.76,1,40,,
trial,html.Screen,6_24_0,2023-11-17T17:53:28.124Z,,,,1,1.238264833797662,1.176099940770289,,,true,ll,5829.739999999991,response,-1.1864860711009846,1.2,-1.2,-0.899694322339037,1.2,-1.2,low,low,,ISIC_0032861.JPG,,ISIC_0007257.JPG,127,true,0.3300000000000002,ll,keypress(f),0,false,476187.59999990463,476187.5,470340.767,470548.2999999523,470357.76,476001.912,1,40,25,
sequence,flow.Sequence,6_24,2023-11-17T17:53:28.124Z,,,,,,,,,,,5829.739999999991,completion,,,,,,,low,low,,,,,,true,,,,,false,476187.7999999523,476187.5,470340.767,470548.1999999285,470357.76,476001.912,1,40,,
trial,html.Screen,6_25_0,2023-11-17T17:53:32.956Z,,,,1,-1.294521945180264,-1.3078626540563885,,,true,hh,5017.787999928463,response,1.1474466950560966,1.2,-1.2,1.173734476257662,1.2,-1.2,high,high,,ISIC_3601224.JPG,,ISIC_5216586.JPG,27,true,0.12,hh,keypress(i),0,false,481019.89999997616,481019.6999999285,475968.519,476187.89999997616,476001.912,480827.861,1,40,26,
sequence,flow.Sequence,6_25,2023-11-17T17:53:32.956Z,,,,,,,,,,,5017.787999928463,completion,,,,,,,high,high,,,,,,true,,,,,false,481020.09999990463,481019.6999999285,475968.519,476187.89999997616,476001.912,480827.861,1,40,,
trial,html.Screen,6_26_0,2023-11-17T17:53:42.453Z,,,,1,-1.1655508270784471,-1.1162776063248168,,,true,hh,9688.938999952341,response,1.089914260719518,1.2,-1.2,1.1695563571046357,1.2,-1.2,high,high,,ISIC_5509946.JPG,,ISIC_0030695.JPG,41,true,0.15000000000000002,hh,keypress(i),0,false,490517.09999990463,490516.7999999523,480811.205,481020.1999999285,480827.861,490346.377,1,40,27,
sequence,flow.Sequence,6_26,2023-11-17T17:53:42.454Z,,,,,,,,,,,9688.938999952341,completion,,,,,,,high,high,,,,,,true,,,,,false,490517.59999990463,490516.7999999523,480811.205,481020.1999999285,480827.861,490346.377,1,40,,
trial,html.Screen,6_27_0,2023-11-17T17:53:47.380Z,,,,1,-0.8479396253253069,1.011054319516718,,,true,hl,5097.52299997618,response,1.0822170028935367,1.2,-1.2,-1.1654796154432183,1.2,-1.2,high,low,,ISIC_0063521.JPG,,ISIC_7288818.JPG,26,true,0.3300000000000002,hl,keypress(j),0,false,495444.09999990463,495443.89999997616,490313.105,490517.6999999285,490346.377,495256.077,1,40,28,
sequence,flow.Sequence,6_27,2023-11-17T17:53:47.381Z,,,,,,,,,,,5097.52299997618,completion,,,,,,,high,low,,,,,,true,,,,,false,495444.39999997616,495443.89999997616,490313.105,490517.6999999285,490346.377,495256.077,1,40,,
trial,html.Screen,6_28_0,2023-11-17T17:53:53.036Z,,,,1,-1.1510001454240106,-1.132540312667795,,,true,hh,5843.722999952326,response,0.9903724314532812,1.2,-1.2,1.2764699562020247,1.2,-1.2,high,high,,ISIC_0009959.JPG,,ISIC_0034218.JPG,249,true,0.3600000000000002,hh,keypress(i),0,false,501099.7999999523,501099.7999999523,495239.333,495444.5,495256.077,500900.228,1,40,29,
sequence,flow.Sequence,6_28,2023-11-17T17:53:53.036Z,,,,,,,,,,,5843.722999952326,completion,,,,,,,high,high,,,,,,true,,,,,false,501100,501099.7999999523,495239.333,495444.5,495256.077,500900.228,1,40,,
trial,html.Screen,6_29_0,2023-11-17T17:53:58.420Z,,,,1,1.2232482867978696,1.2451219760556858,,,true,ll,5582.971999928472,response,-1.204229955025689,1.2,-1.2,-1.0874249761617445,1.2,-1.2,low,low,,ISIC_0030889.JPG,,ISIC_0056930.JPG,25,true,0.15000000000000002,ll,keypress(f),0,false,506483.1999999285,506483.1999999285,500883.457,501100.09999990463,500900.228,506294.038,1,40,30,
sequence,flow.Sequence,6_29,2023-11-17T17:53:58.420Z,,,,,,,,,,,5582.971999928472,completion,,,,,,,low,low,,,,,,true,,,,,false,506483.2999999523,506483.1999999285,500883.457,501100.09999990463,500900.228,506294.038,1,40,,
trial,html.Screen,6_30_0,2023-11-17T17:54:00.500Z,,,,1,-1.00615481805876,0.8428903771195875,,,true,hl,2269.661999928474,response,1.0264463986917702,1.2,-1.2,-1.171271535505083,1.2,-1.2,high,low,,ISIC_0069970.JPG,,ISIC_7889838.JPG,26,true,0.3300000000000002,hl,keypress(j),0,false,508563.89999997616,508563.6999999285,506277.497,506483.5,506294.038,508364.758,1,40,31,
sequence,flow.Sequence,6_30,2023-11-17T17:54:00.500Z,,,,,,,,,,,2269.661999928474,completion,,,,,,,high,low,,,,,,true,,,,,false,508564,508563.6999999285,506277.497,506483.39999997616,506294.038,508364.758,1,40,,
trial,html.Screen,6_31_0,2023-11-17T17:54:04.436Z,,,,1,1.0961318727760048,-1.2134960228256146,,,true,lh,4135.141999976186,response,-1.2615315960773072,1.2,-1.2,1.194084675079932,1.2,-1.2,low,high,,ISIC_9768421.JPG,,ISIC_0010044.JPG,29,true,0.3600000000000002,lh,keypress(e),0,false,512500.09999990463,512499.89999997616,508348.221,508564.09999990463,508364.758,512305.758,1,40,32,
sequence,flow.Sequence,6_31,2023-11-17T17:54:04.437Z,,,,,,,,,,,4135.141999976186,completion,,,,,,,low,high,,,,,,true,,,,,false,512500.2999999523,512499.89999997616,508348.221,508564.09999990463,508364.758,512305.758,1,40,,
trial,html.Screen,6_32_0,2023-11-17T17:54:09.772Z,,,,1,-0.9013888878932071,0.9328095253308732,,,true,hl,5529.941999928502,response,1.052305774554686,1.2,-1.2,-1.3940181224717798,1.2,-1.2,high,low,,ISIC_0068259.JPG,,ISIC_4175400.JPG,26,true,0.3300000000000002,hl,keypress(j),0,false,517835.6999999285,517835.6999999285,512289.106,512500.39999997616,512305.758,517649.447,1,40,33,
sequence,flow.Sequence,6_32,2023-11-17T17:54:09.772Z,,,,,,,,,,,5529.941999928502,completion,,,,,,,high,low,,,,,,true,,,,,false,517835.89999997616,517835.6999999285,512289.106,512500.39999997616,512305.758,517649.447,1,40,,
trial,html.Screen,6_33_0,2023-11-17T17:54:11.052Z,,,,1,1.0822170028935367,-1.1654796154432183,,,true,lh,1465.9529999761726,response,-1.0143509683988825,1.2,-1.2,1.0281980567462463,1.2,-1.2,low,high,,ISIC_7288818.JPG,,ISIC_0062031.JPG,29,true,0.3600000000000002,lh,keypress(e),0,false,519115.59999990463,519115.39999997616,517632.942,517836,517649.447,518918.608,1,40,34,
sequence,flow.Sequence,6_33,2023-11-17T17:54:11.052Z,,,,,,,,,,,1465.9529999761726,completion,,,,,,,low,high,,,,,,true,,,,,false,519115.6999999285,519115.39999997616,517632.942,517836,517649.447,518918.608,1,40,,
trial,html.Screen,6_34_0,2023-11-17T17:54:13.172Z,,,,1,1.1894733304494307,1.1169761866204877,,,true,ll,2316.591999928467,response,-1.09666761087476,1.2,-1.2,-0.9917482735105084,1.2,-1.2,low,low,,ISIC_0033813.JPG,,ISIC_0071754.JPG,127,true,0.3300000000000002,ll,keypress(f),0,false,521235.1999999285,521235.1999999285,518902.099,519115.7999999523,518918.608,521039.364,1,40,35,
sequence,flow.Sequence,6_34,2023-11-17T17:54:13.172Z,,,,,,,,,,,2316.591999928467,completion,,,,,,,low,low,,,,,,true,,,,,false,521235.2999999523,521235.1999999285,518902.099,519115.7999999523,518918.608,521039.364,1,40,,
trial,html.Screen,6_35_0,2023-11-17T17:54:14.517Z,,,,1,-1.0885984639975343,-1.2042618719491294,,,true,hh,1540.835999928473,response,1.1671212908494544,1.2,-1.2,1.1286681796701683,1.2,-1.2,high,high,,ISIC_0012740.JPG,,ISIC_0065022.JPG,27,true,0.12,hh,keypress(i),0,false,522580.5,522580.1999999285,521022.756,521235.39999997616,521039.364,522392.028,1,40,36,
sequence,flow.Sequence,6_35,2023-11-17T17:54:14.517Z,,,,,,,,,,,1540.835999928473,completion,,,,,,,high,high,,,,,,true,,,,,false,522580.89999997616,522580.1999999285,521022.756,521235.39999997616,521039.364,522392.028,1,40,,
trial,html.Screen,6_36_0,2023-11-17T17:54:22.916Z,,,,1,-1.4727776799485246,0.8779113138076752,,,true,hl,8587.871999976167,response,0.9225524349657857,1.2,-1.2,-0.929746784178986,1.2,-1.2,high,low,,ISIC_0033074.JPG,,ISIC_0011077.JPG,26,true,0.3300000000000002,hl,keypress(j),0,false,530980.0999999046,530979.8999999762,522375.434,522581.09999990463,522392.028,530791.693,1,40,37,
sequence,flow.Sequence,6_36,2023-11-17T17:54:22.917Z,,,,,,,,,,,8587.871999976167,completion,,,,,,,high,low,,,,,,true,,,,,false,530980.2999999523,530979.8999999762,522375.434,522581,522392.028,530791.693,1,40,,
trial,html.Screen,6_37_0,2023-11-17T17:54:26.276Z,,,,1,-1.3411487193830047,1.198640448317381,,,true,hl,3548.0069999285042,response,1.155796217969438,1.2,-1.2,-1.1646564121743912,1.2,-1.2,high,low,,ISIC_3093026.JPG,,ISIC_2685523.JPG,33,true,0.3600000000000002,hl,keypress(j),0,false,534339.8999999762,534339.6999999285,530775.106,530980.5,530791.693,534148.278,1,40,38,
sequence,flow.Sequence,6_37,2023-11-17T17:54:26.276Z,,,,,,,,,,,3548.0069999285042,completion,,,,,,,high,low,,,,,,true,,,,,false,534340.0999999046,534339.6999999285,530775.106,530980.3999999762,530791.693,534148.278,1,40,,
trial,html.Screen,6_38_0,2023-11-17T17:54:30.980Z,,,,1,1.238264833797662,1.176099940770289,,,true,ll,4895.321999904583,response,-0.869721192450462,1.2,-1.2,-0.843152880400445,1.2,-1.2,low,low,,ISIC_0032861.JPG,,ISIC_0000012.JPG,157,true,0.3600000000000002,ll,keypress(f),0,false,539043.5999999046,539043.5999999046,534131.496,534340.2999999523,534148.278,538857.521,1,40,39,
sequence,flow.Sequence,6_38,2023-11-17T17:54:30.980Z,,,,,,,,,,,4895.321999904583,completion,,,,,,,low,low,,,,,,true,,,,,false,539043.7999999523,539043.5999999046,534131.496,534340.0999999046,534148.278,538857.521,1,40,,
trial,html.Screen,6_39_0,2023-11-17T17:54:37.532Z,,,,1,-1.0885984639975343,-1.2042618719491294,,,true,hh,6737.97900000005,response,1.2872758518949912,1.2,-1.2,1.313723254903214,1.2,-1.2,high,high,,ISIC_0012740.JPG,,ISIC_0064376.JPG,27,true,0.12,hh,keypress(i),0,false,545595.6999999285,545595.5,538840.786,539043.8999999762,538857.521,545403.434,1,40,40,
sequence,flow.Sequence,6_39,2023-11-17T17:54:37.532Z,,,,,,,,,,,6737.97900000005,completion,,,,,,,high,high,,,,,,true,,,,,false,545595.8999999762,545595.5,538840.786,539043.8999999762,538857.521,545403.434,1,40,,
practice_loop,flow.Loop,6,2023-11-17T17:54:37.532Z,,,,,,,,,,,220253.375,completion,,,,,,,,,,,,,,true,,,,,false,545596,545595.5,325308.834,325526.09999990463,325342.125,545403.434,1,40,,
stair_instructions,html.Screen,7,2023-11-17T17:54:46.044Z,,,,,,,,,,,8703.865999952308,response,,,,,,,,,,,,,,,,continue,keypress(Space),,,554108,554107.2999999523,545386.815,545596,545403.434,553920.01,,,,
trial,html.Screen,8_0_0,2023-11-17T17:54:55.693Z,,,,2,0.0060934073440827,0.0279108145883031,,0.04,true,hl,9836.189999928465,response,0.9566823908868002,1.2,-1.2,-0.9602125665128364,1.2,-1.2,high,low,,ISIC_0032604.JPG,,ISIC_0056784.JPG,26,false,0.3300000000000002,hl,keypress(j),0,true,563756.2999999523,563756.1999999285,553903.279,554108.2999999523,553920.01,563555.45,1,40,1,
sequence,flow.Sequence,8_0,2023-11-17T17:54:55.693Z,,,,,,,,,,,9836.189999928465,completion,,,,,,,high,low,,,,,,false,,,,,true,563756.5999999046,563756.1999999285,553903.279,554108.1999999285,553920.01,563555.45,1,40,,
trial,html.Screen,8_1_0,2023-11-17T17:55:04.932Z,,,,2,-0.0361875505619981,0.0291457404567876,,0.04,true,ll,9439.949999976205,response,-1.1638334638021437,1.15,-1.15,-1.0846635401396965,1.15,-1.15,low,low,,ISIC_0027480.JPG,,ISIC_4718313.JPG,26,false,0.14,ll,keypress(f),0,true,572995.3999999762,572995.3999999762,563538.788,563756.6999999285,563555.45,572806.695,1,40,2,
sequence,flow.Sequence,8_1,2023-11-17T17:55:04.932Z,,,,,,,,,,,9439.949999976205,completion,,,,,,,low,low,,,,,,false,,,,,true,572995.5999999046,572995.3999999762,563538.788,563756.6999999285,563555.45,572806.695,1,40,,
trial,html.Screen,8_2_0,2023-11-17T17:55:11.909Z,,,,2,-0.0086413421586899,-0.0360184993500958,,0.04,true,hl,7165.404999904684,response,1.2609895831255231,1.15,-1.15,-1.0687377724194886,1.15,-1.07424850197092,high,low,,ISIC_0010767.JPG,,ISIC_1367610.JPG,25,false,0.28000000000000014,hl,keypress(j),0,true,579972.2999999523,579972.0999999046,572789.985,572995.5999999046,572806.695,579787.483,1,40,3,
sequence,flow.Sequence,8_2,2023-11-17T17:55:11.909Z,,,,,,,,,,,7165.404999904684,completion,,,,,,,high,low,,,,,,false,,,,,true,579972.5,579972.0999999046,572789.985,572995.5999999046,572806.695,579787.483,1,40,,
trial,html.Screen,8_3_0,2023-11-17T17:55:16.957Z,,,,2,-0.0127320821962457,0.0315308940184827,,0.04,true,hl,5232.416999976151,response,0.8688859182707874,1.0999999999999999,-1.15,-0.9566733172438716,1.15,-1.07424850197092,high,low,,ISIC_8156101.JPG,,ISIC_0640770.JPG,26,false,0.2500000000000001,hl,keypress(j),0,true,585020.1999999285,585019.8999999762,579753.642,579972.5999999046,579787.483,584830.122,1,40,4,
sequence,flow.Sequence,8_3,2023-11-17T17:55:16.957Z,,,,,,,,,,,5232.416999976151,completion,,,,,,,high,low,,,,,,false,,,,,true,585020.3999999762,585019.8999999762,579753.642,579972.5,579787.483,584830.122,1,40,,
trial,html.Screen,8_4_0,2023-11-17T17:55:24.100Z,,,,2,0.012810673904807,-0.00400964452501,,0.04,true,hh,7333.5779999285005,response,1.0048859018073242,1.0999999999999999,-1.15,1.0825120442937108,1.15,-1.02424850197092,high,high,,ISIC_0064656.JPG,,ISIC_0068080.JPG,29,false,0.11,hh,keypress(i),0,true,592163.8999999762,592163.6999999285,584813.443,585020.5999999046,584830.122,591977.43,1,40,5,
sequence,flow.Sequence,8_4,2023-11-17T17:55:24.101Z,,,,,,,,,,,7333.5779999285005,completion,,,,,,,high,high,,,,,,false,,,,,true,592163.8999999762,592163.6999999285,584813.443,585020.3999999762,584830.122,591977.43,1,40,,
trial,html.Screen,8_5_0,2023-11-17T17:55:39.904Z,,,,2,-0.0086413421586899,-0.0360184993500958,,0.04,,,15797.319999999949,timeout,0.7877592509894734,0.9936989730505175,-1.15,-1.1264694181779615,1.15,-1.02424850197092,high,low,,ISIC_0010767.JPG,,ISIC_9058340.JPG,25,false,0.21000000000000008,,,0,true,607967.0999999046,607966.8999999762,591960.762,592164,591977.43,607774.75,1,40,6,
sequence,flow.Sequence,8_5,2023-11-17T17:55:39.904Z,,,,,,,,,,,15989.469999976107,completion,,,,,,,high,low,,,,,,false,,,,,true,607967.2999999523,607966.8999999762,591960.762,592164,591977.43,607774.75,1,40,,
trial,html.Screen,8_6_0,2023-11-17T17:55:45.692Z,,,,2,-0.0199897690678184,-0.0312486875504497,,0.04,false,hh,5980.75,response,0.9478344010828824,0.9936989730505175,-1.15,1.1218541416084558,1.15,-1.02424850197092,high,high,,ISIC_5482426.JPG,,ISIC_8252406.JPG,31,false,0.1,lh,keypress(e),0,true,613755.6999999285,613755.5,607758.284,607967.5,607774.75,613569.614,1,40,7,
sequence,flow.Sequence,8_6,2023-11-17T17:55:45.692Z,,,,,,,,,,,5980.75,completion,,,,,,,high,high,,,,,,false,,,,,true,613755.7999999523,613755.5,607758.284,607967.3999999762,607774.75,613569.614,1,40,,
trial,html.Screen,8_7_0,2023-11-17T17:55:52.884Z,,,,2,0.00126575685933,0.0325046559638838,,0.04,false,ll,7377.785999976215,response,-1.1432120973785689,1.0436989730505175,-1.15,-0.973254467915268,1.0521830929510834,-1.02424850197092,low,low,,ISIC_5682259.JPG,,ISIC_2072219.JPG,28,false,0.11,lh,keypress(e),0,true,620947.5,620947.3999999762,613552.706,613755.7999999523,613569.614,620749.972,1,40,8,
sequence,flow.Sequence,8_7,2023-11-17T17:55:52.884Z,,,,,,,,,,,7377.785999976215,completion,,,,,,,low,low,,,,,,false,,,,,true,620947.5999999046,620947.3999999762,613552.706,613755.7999999523,613569.614,620749.972,1,40,,
trial,html.Screen,8_8_0,2023-11-17T17:55:58.349Z,,,,2,0.0118555311043871,0.0087774532070196,,0.04,true,lh,5661.627999904682,response,-0.9039158082670506,1.0436989730505175,-1.0999999999999999,1.0517562064343149,1.0521830929510834,-1.07424850197092,low,high,,ISIC_6488658.JPG,,ISIC_0015411.JPG,29,false,0.2600000000000001,lh,keypress(e),0,true,626411.6999999285,626411.5999999046,620733.349,620947.6999999285,620749.972,626210.607,1,40,9,
sequence,flow.Sequence,8_8,2023-11-17T17:55:58.349Z,,,,,,,,,,,5661.627999904682,completion,,,,,,,low,high,,,,,,false,,,,,true,626411.7999999523,626411.5999999046,620733.349,620947.6999999285,620749.972,626210.607,1,40,,
trial,html.Screen,8_9_0,2023-11-17T17:56:06.622Z,,,,2,0.0399381815506136,0.0177751789152893,,0.04,true,hh,8473.89300000004,response,1.0324288349148223,1.0436989730505175,-1.0999999999999999,0.9551989453759216,1.0521830929510834,-1.07424850197092,high,high,,ISIC_3981425.JPG,,ISIC_0033570.JPG,31,false,0.1,hh,keypress(i),0,true,634684.8999999762,634684.5,626194.031,626411.8999999762,626210.607,634493.359,1,40,10,
sequence,flow.Sequence,8_9,2023-11-17T17:56:06.622Z,,,,,,,,,,,8473.89300000004,completion,,,,,,,high,high,,,,,,false,,,,,true,634685.2999999523,634684.5,626194.031,626411.8999999762,626210.607,634493.359,1,40,,
trial,html.Screen,8_10_0,2023-11-17T17:56:11.412Z,,,,2,-0.0199897690678184,-0.0312486875504497,,0.04,true,lh,4982.040999976103,response,-1.0003671514840182,1.0436989730505175,-1.0999999999999999,0.8992716557663581,0.9438138901453719,-1.07424850197092,low,high,,ISIC_5482426.JPG,,ISIC_0061749.JPG,27,false,0.2300000000000001,lh,keypress(e),0,true,639475.5,639475.3999999762,634476.645,634685.5,634493.359,639286.131,1,40,11,
sequence,flow.Sequence,8_10,2023-11-17T17:56:11.412Z,,,,,,,,,,,4982.040999976103,completion,,,,,,,low,high,,,,,,false,,,,,true,639475.5999999046,639475.3999999762,634476.645,634685.5,634493.359,639286.131,1,40,,
trial,html.Screen,8_11_0,2023-11-17T17:56:17.940Z,,,,2,0.0060918352854008,-0.029032683404407,,0.04,true,lh,6716.96899990458,response,-1.1162273456306029,1.0436989730505175,-1.0499999999999998,0.7890271955816722,0.9438138901453719,-1.07424850197092,low,high,,ISIC_8436194.JPG,,ISIC_0011564.JPG,25,false,0.21000000000000008,lh,keypress(e),0,true,646003.2999999523,646003.0999999046,639269.542,639475.6999999285,639286.131,645815.401,1,40,12,
sequence,flow.Sequence,8_11,2023-11-17T17:56:17.940Z,,,,,,,,,,,6716.96899990458,completion,,,,,,,low,high,,,,,,false,,,,,true,646003.3999999762,646003.0999999046,639269.542,639475.6999999285,639286.131,645815.401,1,40,,
trial,html.Screen,8_12_0,2023-11-17T17:56:27.621Z,,,,2,0.0057914759495055,-0.018500200317654,,0.04,true,hh,9868.498999976204,response,1.0353494157291625,1.0436989730505175,-1.0499999999999998,0.9833297148698538,0.8938138901453718,-1.07424850197092,high,high,,ISIC_0058723.JPG,,ISIC_5156491.JPG,46,false,0.1,hh,keypress(i),0,true,655684,655683.8999999762,645798.791,646003.5,645815.401,655484.216,1,40,13,
sequence,flow.Sequence,8_12,2023-11-17T17:56:27.621Z,,,,,,,,,,,9868.498999976204,completion,,,,,,,high,high,,,,,,false,,,,,true,655684.2999999523,655683.8999999762,645798.791,646003.5,645815.401,655484.216,1,40,,
trial,html.Screen,8_13_0,2023-11-17T17:56:31.620Z,,,,2,-0.0365981355399771,-0.0162670920008846,,0.04,false,ll,4199.083999952301,response,-1.1727618800748076,0.959339565299508,-1.0499999999999998,-1.0636787813411093,0.8938138901453718,-1.07424850197092,low,low,,ISIC_0982855.JPG,,ISIC_9690371.JPG,27,false,0.13,lh,keypress(e),0,true,659683.3999999762,659683.2999999523,655467.431,655684.3999999762,655484.216,659491.99,1,40,14,
sequence,flow.Sequence,8_13,2023-11-17T17:56:31.620Z,,,,,,,,,,,4199.083999952301,completion,,,,,,,low,low,,,,,,false,,,,,true,659683.5999999046,659683.2999999523,655467.431,655684.2999999523,655484.216,659491.99,1,40,,
trial,html.Screen,8_14_0,2023-11-17T17:56:39.773Z,,,,2,0.0158987717472563,0.0292472192292015,,0.04,false,lh,8343.909999976167,response,-1.1224745971429997,0.959339565299508,-0.9999999999999998,0.8423270217438888,0.8938138901453718,-1.12424850197092,low,high,,ISIC_1366765.JPG,,ISIC_0057032.JPG,25,false,0.18000000000000005,hh,keypress(i),0,true,667836,667835.8999999762,659475.315,659683.5999999046,659491.99,667641.196,1,40,15,
sequence,flow.Sequence,8_14,2023-11-17T17:56:39.773Z,,,,,,,,,,,8343.909999976167,completion,,,,,,,low,high,,,,,,false,,,,,true,667836.2999999523,667835.8999999762,659475.315,659683.5999999046,659491.99,667641.196,1,40,,
trial,html.Screen,8_15_0,2023-11-17T17:56:46.164Z,,,,2,0.0118555311043871,0.0087774532070196,,0.04,false,ll,6586.304000000004,response,-0.9840050049609405,0.959339565299508,-1.0499999999999998,-1.1927876559115576,0.8628283683068713,-1.12424850197092,low,low,,ISIC_6488658.JPG,,ISIC_8651053.JPG,27,false,0.12,lh,keypress(e),0,true,674227.5,674227.5,667624.508,667836.3999999762,667641.196,674036.993,1,40,16,
sequence,flow.Sequence,8_15,2023-11-17T17:56:46.165Z,,,,,,,,,,,6586.304000000004,completion,,,,,,,low,low,,,,,,false,,,,,true,674227.6999999285,674227.5,667624.508,667836.2999999523,667641.196,674036.993,1,40,,
trial,html.Screen,8_16_0,2023-11-17T17:56:58.358Z,,,,2,-0.0361875505619981,0.0291457404567876,,0.04,false,hh,12383.3069999523,response,1.0228768574896494,0.959339565299508,-1.0499999999999998,0.9413691675751268,0.8628283683068713,-1.1742485019709201,high,high,,ISIC_0027480.JPG,,ISIC_0063492.JPG,49,false,0.1,hl,keypress(j),0,true,686420.5999999046,686420.2999999523,674020.389,674227.7999999523,674036.993,686227.326,1,40,17,
sequence,flow.Sequence,8_16,2023-11-17T17:56:58.358Z,,,,,,,,,,,12383.3069999523,completion,,,,,,,high,high,,,,,,false,,,,,true,686421,686420.2999999523,674020.389,674227.7999999523,674036.993,686227.326,1,40,,
trial,html.Screen,8_17_0,2023-11-17T17:57:08.853Z,,,,2,0.0071892445601978,-0.0246015408628738,,0.04,false,hl,10687.973999952315,response,0.8787496315223856,0.959339565299508,-1.0499999999999998,-1.3680901203013998,0.9128283683068713,-1.1742485019709201,high,low,,ISIC_0014133.JPG,,ISIC_0023811.JPG,25,false,0.21000000000000008,ll,keypress(f),0,true,696915.3999999762,696915.2999999523,686210.627,686421.0999999046,686227.326,696714.383,1,40,18,
sequence,flow.Sequence,8_17,2023-11-17T17:57:08.853Z,,,,,,,,,,,10687.973999952315,completion,,,,,,,high,low,,,,,,false,,,,,true,696915.5999999046,696915.2999999523,686210.627,686421.0999999046,686227.326,696714.383,1,40,,
trial,html.Screen,8_18_0,2023-11-17T17:57:20.533Z,,,,2,-0.0063515208248796,-0.0194177605767913,,0.04,true,ll,11881.016999976127,response,-0.9908691524573628,1.009339565299508,-1.0499999999999998,-1.300224660339869,0.9128283683068713,-1.1742485019709201,low,low,,ISIC_5281908.JPG,,ISIC_2105563.JPG,30,false,0.13,ll,keypress(f),0,true,708595.5,708595.3999999762,696697.785,696915.6999999285,696714.383,708403.786,1,40,19,
sequence,flow.Sequence,8_18,2023-11-17T17:57:20.533Z,,,,,,,,,,,11881.016999976127,completion,,,,,,,low,low,,,,,,false,,,,,true,708595.6999999285,708595.3999999762,696697.785,696915.6999999285,696714.383,708403.786,1,40,,
trial,html.Screen,8_19_0,2023-11-17T17:57:26.029Z,,,,2,-0.0327772618698018,0.0056908372048728,,0.04,true,hl,5687.6139999761945,response,0.8035152873995188,1.009339565299508,-1.2341573903206342,-1.2407642249743125,0.9128283683068713,-1.2341573903206342,high,low,,ISIC_7897925.JPG,,ISIC_0010671.JPG,27,false,0.2400000000000001,hl,keypress(j),0,true,714091.5,714091.3999999762,708387.207,708595.7999999523,708403.786,713897.805,1,40,20,
sequence,flow.Sequence,8_19,2023-11-17T17:57:26.029Z,,,,,,,,,,,5687.6139999761945,completion,,,,,,,high,low,,,,,,false,,,,,true,714091.6999999285,714091.3999999762,708387.207,708595.6999999285,708403.786,713897.805,1,40,,
trial,html.Screen,8_20_0,2023-11-17T17:57:28.501Z,,,,2,-0.0127320821962457,0.0315308940184827,,0.04,true,hl,2665.594999976107,response,0.8035152873995188,1.009339565299508,-1.1841573903206342,-1.2407642249743125,0.9128283683068713,-1.1841573903206342,high,low,,ISIC_8156101.JPG,,ISIC_0010671.JPG,26,false,0.2300000000000001,hl,keypress(j),0,true,716563.5,716563.3999999762,713881.228,714091.6999999285,713897.805,716369.279,1,40,21,
sequence,flow.Sequence,8_20,2023-11-17T17:57:28.501Z,,,,,,,,,,,2665.594999976107,completion,,,,,,,high,low,,,,,,false,,,,,true,716563.5999999046,716563.3999999762,713881.228,714091.6999999285,713897.805,716369.279,1,40,,
trial,html.Screen,8_21_0,2023-11-17T17:57:32.637Z,,,,2,-0.0051046740562181,0.0178832721027728,,0.04,false,lh,4330.320999904652,response,-1.3757843415838396,0.959339565299508,-1.1841573903206342,0.8251853990642339,0.9128283683068713,-1.1907642249743124,low,high,,ISIC_9545819.JPG,,ISIC_0026619.JPG,25,false,0.22000000000000008,hh,keypress(i),0,true,720699.6999999285,720699.5999999046,716352.775,716563.6999999285,716369.279,720510.812,1,40,22,
sequence,flow.Sequence,8_21,2023-11-17T17:57:32.637Z,,,,,,,,,,,4330.320999904652,completion,,,,,,,low,high,,,,,,false,,,,,true,720699.8999999762,720699.5999999046,716352.775,716563.6999999285,716369.279,720510.812,1,40,,
trial,html.Screen,8_22_0,2023-11-17T17:57:34.950Z,,,,2,0.012810673904807,-0.00400964452501,,0.04,true,hh,2501.6879999999655,response,0.8797187572470211,0.959339565299508,-1.1841573903206342,0.9573640085332544,0.9128283683068713,-1.1907642249743124,high,high,,ISIC_0064656.JPG,,ISIC_0010235.JPG,53,false,0.1,hh,keypress(i),0,true,723012.8999999762,723012.5,720494.154,720700,720510.812,722815.204,1,40,23,
sequence,flow.Sequence,8_22,2023-11-17T17:57:34.951Z,,,,,,,,,,,2501.6879999999655,completion,,,,,,,high,high,,,,,,false,,,,,true,723013.6999999285,723012.5,720494.154,720700,720510.812,722815.204,1,40,,
trial,html.Screen,8_23_0,2023-11-17T17:57:42.645Z,,,,2,-0.0365981355399771,-0.0162670920008846,,0.04,true,hh,7891.995999928447,response,0.8751568783563604,0.959339565299508,-1.1841573903206342,0.8649242672115863,0.8685413828901377,-1.1907642249743124,high,high,,ISIC_0982855.JPG,,ISIC_0027742.JPG,53,false,0.1,hh,keypress(i),0,true,730707.5,730707.1999999285,722798.536,723014,722815.204,730513.461,1,40,24,
sequence,flow.Sequence,8_23,2023-11-17T17:57:42.645Z,,,,,,,,,,,7891.995999928447,completion,,,,,,,high,high,,,,,,false,,,,,true,730707.6999999285,730707.1999999285,722798.536,723013.8999999762,722815.204,730513.461,1,40,,
trial,html.Screen,8_24_0,2023-11-17T17:57:51.293Z,,,,2,0.0057914759495055,-0.018500200317654,,0.04,false,ll,8842.338999952306,response,-1.1655508270784471,0.8200405727839732,-1.1841573903206342,-1.1162776063248168,0.8685413828901377,-1.1907642249743124,low,low,,ISIC_0058723.JPG,,ISIC_5509946.JPG,30,false,0.16000000000000003,hl,keypress(j),0,true,739355.8999999762,739355.7999999523,730496.96,730707.6999999285,730513.461,739163.603,1,40,25,
sequence,flow.Sequence,8_24,2023-11-17T17:57:51.293Z,,,,,,,,,,,8842.338999952306,completion,,,,,,,low,low,,,,,,false,,,,,true,739356.1999999285,739355.7999999523,730496.96,730707.6999999285,730513.461,739163.603,1,40,,
trial,html.Screen,8_25_0,2023-11-17T17:57:57.020Z,,,,2,-0.0367218428225813,0.0026956749740767,,0.04,false,lh,5919.49699990463,response,-1.3411203682545034,0.8200405727839732,-1.1841573903206342,0.6747977290425752,0.8685413828901377,-1.1907642249743124,low,high,,ISIC_7212271.JPG,,ISIC_8224270.JPG,26,false,0.20000000000000007,ll,keypress(f),0,true,745083.2999999523,745083.0999999046,739146.83,739356.2999999523,739163.603,744891.398,1,40,26,
sequence,flow.Sequence,8_25,2023-11-17T17:57:57.020Z,,,,,,,,,,,5919.49699990463,completion,,,,,,,low,high,,,,,,false,,,,,true,745083.3999999762,745083.0999999046,739146.83,739356.1999999285,739163.603,744891.398,1,40,,
trial,html.Screen,8_26_0,2023-11-17T17:58:04.149Z,,,,2,0.0057914759495055,-0.018500200317654,,0.04,true,hh,7320.001999976113,response,0.8847502213514871,0.8200405727839732,-1.1841573903206342,0.9725947392713435,0.9185413828901378,-1.1907642249743124,high,high,,ISIC_0058723.JPG,,ISIC_0073044.JPG,55,false,0.1,hh,keypress(i),0,true,752211.5,752211.3999999762,744874.722,745083.3999999762,744891.398,752021.953,1,40,27,
sequence,flow.Sequence,8_26,2023-11-17T17:58:04.149Z,,,,,,,,,,,7320.001999976113,completion,,,,,,,high,high,,,,,,false,,,,,true,752211.5999999046,752211.3999999762,744874.722,745083.3999999762,744891.398,752021.953,1,40,,
trial,html.Screen,8_27_0,2023-11-17T17:58:08.493Z,,,,2,0.0023664502831079,0.0252784582169994,,0.04,true,ll,4533.446999976179,response,-1.204229955025689,0.8200405727839732,-1.1841573903206342,-1.0874249761617445,0.9185413828901378,-1.1907642249743124,low,low,,ISIC_4156010.JPG,,ISIC_0056930.JPG,30,false,0.16000000000000003,ll,keypress(f),0,true,756555.5,756555.3999999762,752005.372,752211.7999999523,752021.953,756363.727,1,40,28,
sequence,flow.Sequence,8_27,2023-11-17T17:58:08.493Z,,,,,,,,,,,4533.446999976179,completion,,,,,,,low,low,,,,,,false,,,,,true,756555.5999999046,756555.3999999762,752005.372,752211.7999999523,752021.953,756363.727,1,40,,
trial,html.Screen,8_28_0,2023-11-17T17:58:17.197Z,,,,2,0.012020985739544,-0.0126097407389903,,0.04,false,lh,8895.97299992852,response,-1.00615481805876,0.8200405727839732,-1.1341573903206341,0.8428903771195875,0.9185413828901378,-1.1407642249743124,low,high,,ISIC_0069379.JPG,,ISIC_0069970.JPG,25,false,0.22000000000000008,hh,keypress(i),0,true,765259.7999999523,765259.6999999285,756347.033,756555.5999999046,756363.727,765063.96,1,40,29,
sequence,flow.Sequence,8_28,2023-11-17T17:58:17.198Z,,,,,,,,,,,8895.97299992852,completion,,,,,,,low,high,,,,,,false,,,,,true,765259.8999999762,765259.6999999285,756347.033,756555.5999999046,756363.727,765063.96,1,40,,
trial,html.Screen,8_29_0,2023-11-17T17:58:27.749Z,,,,2,0.0060918352854008,-0.029032683404407,,0.04,false,hh,10747.339999952354,response,0.7912462399808581,0.8200405727839732,-1.1841573903206342,0.7917788270540937,0.8577425581954654,-1.1407642249743124,high,high,,ISIC_8436194.JPG,,ISIC_2458253.JPG,61,false,0.1,hl,keypress(j),0,true,775811.3999999762,775811.2999999523,765047.231,765260.0999999046,765063.96,775617.831,1,40,30,
sequence,flow.Sequence,8_29,2023-11-17T17:58:27.749Z,,,,,,,,,,,10747.339999952354,completion,,,,,,,high,high,,,,,,false,,,,,true,775811.5,775811.2999999523,765047.231,765260.0999999046,765063.96,775617.831,1,40,,
trial,html.Screen,8_30_0,2023-11-17T17:58:41.813Z,,,,2,-0.0127320821962457,0.0315308940184827,,0.04,false,lh,14257.46899995231,response,-1.2018448523268856,0.8319204896261008,-1.1841573903206342,0.8157731190790072,0.9077425581954655,-1.1407642249743124,low,high,,ISIC_8156101.JPG,,ISIC_7662993.JPG,25,false,0.22000000000000008,hh,keypress(i),0,true,789875.3999999762,789875.2999999523,775601.057,775811.5999999046,775617.831,789678.497,1,40,31,
sequence,flow.Sequence,8_30,2023-11-17T17:58:41.813Z,,,,,,,,,,,14257.46899995231,completion,,,,,,,low,high,,,,,,false,,,,,true,789875.5,789875.2999999523,775601.057,775811.5999999046,775617.831,789678.497,1,40,,
trial,html.Screen,8_31_0,2023-11-17T17:58:53.614Z,,,,2,-0.0361875505619981,0.0291457404567876,,0.04,true,hh,11997.7029999285,response,0.9009408285331614,0.8319204896261008,-1.1841573903206342,0.8985422901220989,0.9077425581954655,-1.1407642249743124,high,high,,ISIC_0027480.JPG,,ISIC_0033834.JPG,55,false,0.1,hh,keypress(i),0,true,801676.5,801676.1999999285,789661.877,789875.5,789678.497,801484.881,1,40,32,
sequence,flow.Sequence,8_31,2023-11-17T17:58:53.614Z,,,,,,,,,,,11997.7029999285,completion,,,,,,,high,high,,,,,,false,,,,,true,801676.8999999762,801676.1999999285,789661.877,789875.5,789678.497,801484.881,1,40,,
trial,html.Screen,8_32_0,2023-11-17T17:59:02.975Z,,,,2,-0.0127320821962457,0.0315308940184827,,0.04,true,lh,9550.518999976106,response,-1.3515962101204746,0.8319204896261008,-1.1841573903206342,0.8414583575292955,0.8497415593276301,-1.1407642249743124,low,high,,ISIC_8156101.JPG,,ISIC_0274382.JPG,25,false,0.19000000000000006,lh,keypress(e),0,true,811035.3999999762,811035.3999999762,801468.26,801677,801484.881,810836.328,1,40,33,
sequence,flow.Sequence,8_32,2023-11-17T17:59:02.975Z,,,,,,,,,,,9550.518999976106,completion,,,,,,,low,high,,,,,,false,,,,,true,811035.5999999046,811035.3999999762,801468.26,801677,801484.881,810836.328,1,40,,
trial,html.Screen,8_33_0,2023-11-17T17:59:18.761Z,,,,2,-0.0365981355399771,-0.0162670920008846,,0.04,,,15797.418999999994,timeout,0.6707413499192771,0.8319204896261008,-1.1841573903206342,-1.176352590105879,0.8497415593276301,-1.1407642249743124,high,low,,ISIC_0982855.JPG,,ISIC_0567814.JPG,26,false,0.17000000000000004,,,0,true,826821.5,826821.2999999523,810819.593,811035.5999999046,810836.328,826633.747,1,40,34,
sequence,flow.Sequence,8_33,2023-11-17T17:59:18.761Z,,,,,,,,,,,15984.971999952337,completion,,,,,,,high,low,,,,,,false,,,,,true,826821.5999999046,826821.2999999523,810819.593,811035.5999999046,810836.328,826633.747,1,40,,
trial,html.Screen,8_34_0,2023-11-17T17:59:28.231Z,,,,2,0.0377791839943904,-0.0227626648172468,,0.04,true,lh,9657.753000000026,response,-1.1162273456306029,0.8319204896261008,-1.1841573903206342,0.7890271955816722,0.8497415593276301,-1.1407642249743124,low,high,,ISIC_7167479.JPG,,ISIC_0011564.JPG,25,false,0.19000000000000006,lh,keypress(e),0,true,836291.5999999046,836291.5,826617.032,826821.6999999285,826633.747,836102.161,1,40,35,
sequence,flow.Sequence,8_34,2023-11-17T17:59:28.232Z,,,,,,,,,,,9657.753000000026,completion,,,,,,,low,high,,,,,,false,,,,,true,836291.7999999523,836291.5,826617.032,826821.6999999285,826633.747,836102.161,1,40,,
trial,html.Screen,8_35_0,2023-11-17T17:59:32.999Z,,,,2,0.0350697500805515,0.0166617848231997,,0.04,true,hl,4957.438999904669,response,0.6669021150735244,0.8319204896261008,-1.1341573903206341,-1.0443315451754065,0.7652427765554839,-1.1407642249743124,high,low,,ISIC_0024423.JPG,,ISIC_9163466.JPG,26,false,0.17000000000000004,hl,keypress(j),0,true,841059.6999999285,841059.5999999046,836085.349,836292,836102.161,840861.415,1,40,36,
sequence,flow.Sequence,8_35,2023-11-17T17:59:33.000Z,,,,,,,,,,,4957.438999904669,completion,,,,,,,high,low,,,,,,false,,,,,true,841059.8999999762,841059.5999999046,836085.349,836292,836102.161,840861.415,1,40,,
trial,html.Screen,8_36_0,2023-11-17T17:59:44.903Z,,,,2,-0.0063515208248796,-0.0194177605767913,,0.04,true,hl,12101.884999952279,response,0.7450700429395554,0.7819204896261007,-1.1341573903206341,-1.1659665266603083,0.7652427765554839,-1.1407642249743124,high,low,,ISIC_5281908.JPG,,ISIC_3736075.JPG,29,false,0.16000000000000003,hl,keypress(j),0,true,852963.5,852963.2999999523,840844.871,841060.0999999046,840861.415,852767.892,1,40,37,
sequence,flow.Sequence,8_36,2023-11-17T17:59:44.903Z,,,,,,,,,,,12101.884999952279,completion,,,,,,,high,low,,,,,,false,,,,,true,852963.5999999046,852963.2999999523,840844.871,841060.0999999046,840861.415,852767.892,1,40,,
trial,html.Screen,8_37_0,2023-11-17T17:59:52.519Z,,,,2,-0.0321039635696159,-0.020496766286318,,0.04,true,ll,7811.407999952324,response,-1.1990772227054871,0.7819204896261007,-1.1341573903206341,-1.1224329926844498,0.7652427765554839,-1.0907642249743124,low,low,,ISIC_0058063.JPG,,ISIC_3425388.JPG,27,false,0.13,ll,keypress(f),0,true,860579.3999999762,860579.2999999523,852751.208,852963.5999999046,852767.892,860382.689,1,40,38,
sequence,flow.Sequence,8_37,2023-11-17T17:59:52.519Z,,,,,,,,,,,7811.407999952324,completion,,,,,,,low,low,,,,,,false,,,,,true,860579.5999999046,860579.2999999523,852751.208,852963.5999999046,852767.892,860382.689,1,40,,
trial,html.Screen,8_38_0,2023-11-17T17:59:57.280Z,,,,2,-0.0086413421586899,-0.0360184993500958,,0.04,false,ll,4957.4109999046195,response,-1.1727618800748076,0.7819204896261007,-1.1341573903206341,-1.0636787813411093,0.7652427765554839,-1.0907642249743124,low,low,,ISIC_0010767.JPG,,ISIC_9690371.JPG,27,false,0.13,lh,keypress(e),0,true,865340.3999999762,865340.0999999046,860366.143,860579.6999999285,860382.689,865141.974,1,40,39,
sequence,flow.Sequence,8_38,2023-11-17T17:59:57.280Z,,,,,,,,,,,4957.4109999046195,completion,,,,,,,low,low,,,,,,false,,,,,true,865340.6999999285,865340.0999999046,860366.143,860579.5999999046,860382.689,865141.974,1,40,,
trial,html.Screen,8_39_0,2023-11-17T18:00:04.081Z,,,,2,0.00126575685933,0.0325046559638838,,0.04,false,ll,6997.125999904587,response,-1.0901635293704552,0.7819204896261007,-1.0975974363796286,-1.0348352814358883,0.7652427765554839,-1.1407642249743124,low,low,,ISIC_5682259.JPG,,ISIC_7583134.JPG,26,false,0.12,hl,keypress(j),0,true,872139.0999999046,872139.0999999046,865125.347,865341,865141.974,871938.493,1,40,40,
sequence,flow.Sequence,8_39,2023-11-17T18:00:04.081Z,,,,,,,,,,,6997.125999904587,completion,,,,,,,low,low,,,,,,false,,,,,true,872139.3999999762,872139.0999999046,865125.347,865340.8999999762,865141.974,871938.493,1,40,,
stair_loop,flow.Loop,8,2023-11-17T18:00:04.081Z,,,,,,,,,,,318219.0899999046,completion,,,,,,,,,,,,,,false,,,,,true,872139.5,872139.0999999046,553903.279,554108.0999999046,553920.01,871938.493,1,40,,
exp_instructions,html.Screen,9,2023-11-17T18:01:26.627Z,,,,,,,,,,,82744.20699992846,response,,,,,,,,,,,,,,,,continue,keypress(Space),,,954683.0999999046,954682.6999999285,871921.782,872139.5,871938.493,954482.341,,,,
trial,html.Screen,10_0_0,2023-11-17T18:01:34.491Z,,,,1,0.0118555311043871,0.0087774532070196,,0.04,false,ll,8064.758999904618,response,-1.1305948371148624,0.8463403297081437,-1.167329392623584,-1.2802709447034604,0.8574199818804074,-1.1554338832416282,low,low,,ISIC_6488658.JPG,10,ISIC_5648111.JPG,27,false,0.14,hl,keypress(j),0,false,962547.2999999523,962547.0999999046,954465.003,954683.1999999285,954482.341,962347.658,4,500,1,
break,html.Screen,10_0_1,2023-11-17T18:01:34.492Z,,,,,,,,,,,NaN,,,,,,,,low,low,,,,,,false,,,,,false,962547.5999999046,962547.3999999762,,962547.2999999523,,962347.658,4,500,,
break_continue,html.Screen,10_0_2,2023-11-17T18:01:34.492Z,,,,,,,,,,,NaN,,,,,,,,low,low,,,,,,false,,,,,false,962547.7999999523,962547.6999999285,,962547.6999999285,,962347.658,4,500,,
sequence,flow.Sequence,10_0,2023-11-17T18:01:34.492Z,,,,,,,,,,,8065.3589999284595,completion,,,,,,,low,low,,,,,,false,,,,,false,962547.8999999762,962547.6999999285,954465.003,954683.1999999285,954482.341,962347.658,4,500,,
trial,html.Screen,10_1_0,2023-11-17T18:01:36.739Z,,,,1,-0.0365981355399771,-0.0162670920008846,,0.04,true,hl,2447.241999976104,response,0.7753299102004093,0.8463403297081437,-1.167329392623584,-1.053851019509641,0.8574199818804074,-1.1554338832416282,high,low,,ISIC_0982855.JPG,10,ISIC_9511832.JPG,26,false,0.18000000000000005,hl,keypress(j),0,false,964795,964794.8999999762,962330.878,962547.8999999762,962347.658,964602.211,4,500,2,
break,html.Screen,10_1_1,2023-11-17T18:01:36.739Z,,,,,,,,,,,NaN,,,,,,,,high,low,,,,,,false,,,,,false,964795.2999999523,964795.2999999523,,964795.0999999046,,964602.211,4,500,,
break_continue,html.Screen,10_1_2,2023-11-17T18:01:36.740Z,,,,,,,,,,,NaN,,,,,,,,high,low,,,,,,false,,,,,false,964795.5999999046,964795.3999999762,,964795.3999999762,,964602.211,4,500,,
sequence,flow.Sequence,10_1,2023-11-17T18:01:36.740Z,,,,,,,,,,,2447.741999976104,completion,,,,,,,high,low,,,,,,false,,,,,false,964795.5999999046,964795.3999999762,962330.878,962547.8999999762,962347.658,964602.211,4,500,,
trial,html.Screen,10_2_0,2023-11-17T18:01:41.811Z,,,,1,0.012810673904807,-0.00400964452501,,0.04,true,hh,5264.988999928464,response,0.8868080718134892,0.8463403297081437,-1.167329392623584,0.8837963869804757,0.8574199818804074,-1.1554338832416282,high,high,,ISIC_0064656.JPG,9,ISIC_0068895.JPG,54,false,0.1,hh,keypress(i),0,false,969867.2999999523,969867.1999999285,964585.492,964795.5999999046,964602.211,969678.574,4,500,3,
break,html.Screen,10_2_1,2023-11-17T18:01:41.812Z,,,,,,,,,,,NaN,,,,,,,,high,high,,,,,,false,,,,,false,969867.7999999523,969867.5999999046,,969867.3999999762,,969678.574,4,500,,
break_continue,html.Screen,10_2_2,2023-11-17T18:01:41.812Z,,,,,,,,,,,NaN,,,,,,,,high,high,,,,,,false,,,,,false,969867.8999999762,969867.8999999762,,969867.7999999523,,969678.574,4,500,,
sequence,flow.Sequence,10_2,2023-11-17T18:01:41.812Z,,,,,,,,,,,5265.688999976148,completion,,,,,,,high,high,,,,,,false,,,,,false,969868.0999999046,969867.8999999762,964585.492,964795.5999999046,964602.211,969678.574,4,500,,
trial,html.Screen,10_3_0,2023-11-17T18:01:44.484Z,,,,1,0.0060934073440827,0.0279108145883031,,0.04,true,hl,2861.52599990461,response,0.7753299102004093,0.8463403297081437,-1.167329392623584,-1.053851019509641,0.8574199818804074,-1.1554338832416282,high,low,,ISIC_0032604.JPG,9,ISIC_9511832.JPG,26,false,0.18000000000000005,hl,keypress(j),0,false,972540.3999999762,972540.0999999046,969661.992,969868.0999999046,969678.574,972350.604,4,500,4,
break,html.Screen,10_3_1,2023-11-17T18:01:44.485Z,,,,,,,,,,,NaN,,,,,,,,high,low,,,,,,false,,,,,false,972541.5,972541.1999999285,,972540.6999999285,,972350.604,4,500,,
break_continue,html.Screen,10_3_2,2023-11-17T18:01:44.486Z,,,,,,,,,,,NaN,,,,,,,,high,low,,,,,,false,,,,,false,972542.1999999285,972541.8999999762,,972541.6999999285,,972350.604,4,500,,
sequence,flow.Sequence,10_3,2023-11-17T18:01:44.486Z,,,,,,,,,,,2863.325999976136,completion,,,,,,,high,low,,,,,,false,,,,,false,972542.3999999762,972541.8999999762,969661.992,969868.0999999046,969678.574,972350.604,4,500,,
trial,html.Screen,10_4_0,2023-11-17T18:01:48.283Z,,,,1,-0.0086413421586899,-0.0360184993500958,,0.04,true,hh,3988.695999952266,response,0.9303292478996148,0.8463403297081437,-1.167329392623584,0.8099604275482958,0.8574199818804074,-1.1554338832416282,high,high,,ISIC_0010767.JPG,9,ISIC_0068580.JPG,54,false,0.1,hh,keypress(i),0,false,976339.3999999762,976339.2999999523,972333.965,972542.6999999285,972350.604,976141.157,4,500,5,
break,html.Screen,10_4_1,2023-11-17T18:01:48.284Z,,,,,,,,,,,NaN,,,,,,,,high,high,,,,,,false,,,,,false,976339.7999999523,976339.6999999285,,976339.5,,976141.157,4,500,,
break_continue,html.Screen,10_4_2,2023-11-17T18:01:48.284Z,,,,,,,,,,,NaN,,,,,,,,high,high,,,,,,false,,,,,false,976339.8999999762,976339.7999999523,,976339.7999999523,,976141.157,4,500,,
sequence,flow.Sequence,10_4,2023-11-17T18:01:48.284Z,,,,,,,,,,,3989.195999952266,completion,,,,,,,high,high,,,,,,false,,,,,false,976340,976339.7999999523,972333.965,972542.5,972350.604,976141.157,4,500,,
trial,html.Screen,10_5_0,2023-11-17T18:01:54.283Z,,,,1,-0.0051046740562181,0.0178832721027728,,0.04,true,ll,6197.942999904626,response,-1.0730492496332733,0.8463403297081437,-1.167329392623584,-1.0252626598876022,0.8574199818804074,-1.1554338832416282,low,low,,ISIC_9545819.JPG,9,ISIC_0007029.JPG,27,false,0.14,ll,keypress(f),0,false,982339.1999999285,982339.0999999046,976124.594,976340,976141.157,982152.865,4,500,6,
break,html.Screen,10_5_1,2023-11-17T18:01:54.284Z,,,,,,,,,,,NaN,,,,,,,,low,low,,,,,,false,,,,,false,982339.5,982339.5,,982339.2999999523,,982152.865,4,500,,
break_continue,html.Screen,10_5_2,2023-11-17T18:01:54.284Z,,,,,,,,,,,NaN,,,,,,,,low,low,,,,,,false,,,,,false,982339.6999999285,982339.6999999285,,982339.5999999046,,982152.865,4,500,,
sequence,flow.Sequence,10_5,2023-11-17T18:01:54.284Z,,,,,,,,,,,6198.542999928468,completion,,,,,,,low,low,,,,,,false,,,,,false,982339.8999999762,982339.6999999285,976124.594,976340,976141.157,982152.865,4,500,,
trial,html.Screen,10_6_0,2023-11-17T18:01:57.356Z,,,,1,0.00126575685933,0.0325046559638838,,0.04,false,hl,3258.5349999761675,response,0.8015753713975186,0.8463403297081437,-1.167329392623584,-1.0067065355978264,0.8574199818804074,-1.1554338832416282,high,low,,ISIC_5682259.JPG,8,ISIC_0002119.JPG,26,false,0.18000000000000005,ll,keypress(f),0,false,985411.5,985411.3999999762,982136.284,982339.8999999762,982152.865,985242.203,4,500,7,
break,html.Screen,10_6_1,2023-11-17T18:01:57.356Z,,,,,,,,,,,NaN,,,,,,,,high,low,,,,,,false,,,,,false,985412,985411.8999999762,,985411.6999999285,,985242.203,4,500,,
break_continue,html.Screen,10_6_2,2023-11-17T18:01:57.356Z,,,,,,,,,,,NaN,,,,,,,,high,low,,,,,,false,,,,,false,985412.1999999285,985412.1999999285,,985412.0999999046,,985242.203,4,500,,
sequence,flow.Sequence,10_6,2023-11-17T18:01:57.356Z,,,,,,,,,,,3259.3349999284837,completion,,,,,,,high,low,,,,,,false,,,,,false,985412.3999999762,985412.1999999285,982136.284,982339.8999999762,982152.865,985242.203,4,500,,
trial,html.Screen,10_7_0,2023-11-17T18:02:03.421Z,,,,1,0.0399381815506136,0.0177751789152893,,0.04,false,hl,6234.196999976179,response,0.9670240379618178,0.8463403297081437,-1.167329392623584,-1.1806404773220665,0.8574199818804074,-1.1554338832416282,high,low,,ISIC_3981425.JPG,8,ISIC_0002288.JPG,26,false,0.18000000000000005,hh,keypress(i),0,false,991476.6999999285,991476.3999999762,985225.742,985412.5,985242.203,991287.365,4,500,8,
break,html.Screen,10_7_1,2023-11-17T18:02:03.422Z,,,,,,,,,,,NaN,,,,,,,,high,low,,,,,,false,,,,,false,991477.6999999285,991477.3999999762,,991477,,991287.365,4,500,,
break_continue,html.Screen,10_7_2,2023-11-17T18:02:03.422Z,,,,,,,,,,,NaN,,,,,,,,high,low,,,,,,false,,,,,false,991478.5,991478.1999999285,,991478,,991287.365,4,500,,
sequence,flow.Sequence,10_7,2023-11-17T18:02:03.423Z,,,,,,,,,,,6235.996999928495,completion,,,,,,,high,low,,,,,,false,,,,,false,991478.6999999285,991478.1999999285,985225.742,985412.3999999762,985242.203,991287.365,4,500,,
trial,html.Screen,10_8_0,2023-11-17T18:02:06.107Z,,,,1,-0.0051046740562181,0.0178832721027728,,0.04,true,hh,2875.8349999284837,response,0.8050443016688825,0.8463403297081437,-1.167329392623584,0.9509237118003132,0.8574199818804074,-1.1554338832416282,high,high,,ISIC_9545819.JPG,9,ISIC_0000554.JPG,54,false,0.1,hh,keypress(i),0,false,994163.3999999762,994163.1999999285,991270.537,991478.8999999762,991287.365,993976.119,4,500,9,
break,html.Screen,10_8_1,2023-11-17T18:02:06.108Z,,,,,,,,,,,NaN,,,,,,,,high,high,,,,,,false,,,,,false,994163.5999999046,994163.5999999046,,994163.5,,993976.119,4,500,,
break_continue,html.Screen,10_8_2,2023-11-17T18:02:06.108Z,,,,,,,,,,,NaN,,,,,,,,high,high,,,,,,false,,,,,false,994163.8999999762,994163.7999999523,,994163.6999999285,,993976.119,4,500,,
sequence,flow.Sequence,10_8,2023-11-17T18:02:06.108Z,,,,,,,,,,,2876.4349999523256,completion,,,,,,,high,high,,,,,,false,,,,,false,994163.8999999762,994163.7999999523,991270.537,991478.8999999762,991287.365,993976.119,4,500,,
trial,html.Screen,10_9_0,2023-11-17T18:02:08.707Z,,,,1,0.0060918352854008,-0.029032683404407,,0.04,true,hh,2787.2809999762103,response,0.8543323078107433,0.8463403297081437,-1.167329392623584,0.9163054072963652,0.8574199818804074,-1.1554338832416282,high,high,,ISIC_8436194.JPG,8,ISIC_0012070.JPG,54,false,0.1,hh,keypress(i),0,false,996763.5,996763.3999999762,993959.173,994164,993976.119,996564.233,4,500,10,
break,html.Screen,10_9_1,2023-11-17T18:02:08.708Z,,,,,,,,,,,NaN,,,,,,,,high,high,,,,,,false,,,,,false,996764,996763.7999999523,,996763.5999999046,,996564.233,4,500,,
break_continue,html.Screen,10_9_2,2023-11-17T18:02:08.708Z,,,,,,,,,,,NaN,,,,,,,,high,high,,,,,,false,,,,,false,996764.1999999285,996764,,996764,,996564.233,4,500,,
sequence,flow.Sequence,10_9,2023-11-17T18:02:08.708Z,,,,,,,,,,,2787.881000000052,completion,,,,,,,high,high,,,,,,false,,,,,false,996764.2999999523,996764,993959.173,994164,993976.119,996564.233,4,500,,
trial,html.Screen,10_10_0,2023-11-17T18:02:13.204Z,,,,1,0.0118555311043871,0.0087774532070196,,0.04,true,lh,4695.266999999993,response,-1.3515962101204746,0.8463403297081437,-1.167329392623584,0.8414583575292955,0.8574199818804074,-1.1554338832416282,low,high,,ISIC_6488658.JPG,9,ISIC_0274382.JPG,25,false,0.19000000000000006,lh,keypress(e),0,false,1001259.6999999285,1001259.5,996547.696,996764.2999999523,996564.233,1001073.003,4,500,11,
break,html.Screen,10_10_1,2023-11-17T18:02:13.204Z,,,,,,,,,,,NaN,,,,,,,,low,high,,,,,,false,,,,,false,1001260.2999999523,1001260.0999999046,,1001259.8999999762,,1001073.003,4,500,,
break_continue,html.Screen,10_10_2,2023-11-17T18:02:13.205Z,,,,,,,,,,,NaN,,,,,,,,low,high,,,,,,false,,,,,false,1001260.6999999285,1001260.5999999046,,1001260.3999999762,,1001073.003,4,500,,
sequence,flow.Sequence,10_10,2023-11-17T18:02:13.205Z,,,,,,,,,,,4696.366999904625,completion,,,,,,,low,high,,,,,,false,,,,,false,1001260.7999999523,1001260.5999999046,996547.696,996764.2999999523,996564.233,1001073.003,4,500,,
trial,html.Screen,10_11_0,2023-11-17T18:02:16.395Z,,,,1,0.0166849894750452,-0.0371614812368835,,0.04,false,ll,3377.79699995229,response,-1.0885984639975343,0.8463403297081437,-1.167329392623584,-1.2042618719491294,0.8574199818804074,-1.1554338832416282,low,low,,ISIC_6231450.JPG,9,ISIC_0012740.JPG,27,false,0.14,lh,keypress(e),0,false,1004450.8999999762,1004450.7999999523,1001056.485,1001261,1001073.003,1004262.576,4,500,12,
break,html.Screen,10_11_1,2023-11-17T18:02:16.395Z,,,,,,,,,,,NaN,,,,,,,,low,low,,,,,,false,,,,,false,1004451.1999999285,1004451.0999999046,,1004451,,1004262.576,4,500,,
break_continue,html.Screen,10_11_2,2023-11-17T18:02:16.395Z,,,,,,,,,,,NaN,,,,,,,,low,low,,,,,,false,,,,,false,1004451.3999999762,1004451.3999999762,,1004451.2999999523,,1004262.576,4,500,,
sequence,flow.Sequence,10_11,2023-11-17T18:02:16.395Z,,,,,,,,,,,3378.396999976132,completion,,,,,,,low,low,,,,,,false,,,,,false,1004451.3999999762,1004451.3999999762,1001056.485,1001260.8999999762,1001073.003,1004262.576,4,500,,
trial,html.Screen,10_12_0,2023-11-17T18:02:25.204Z,,,,1,0.012810673904807,-0.00400964452501,,0.04,true,lh,8997.023999904632,response,-1.2018448523268856,0.8463403297081437,-1.167329392623584,0.8157731190790072,0.8574199818804074,-1.1554338832416282,low,high,,ISIC_0064656.JPG,9,ISIC_7662993.JPG,25,false,0.19000000000000006,lh,keypress(e),0,false,1013259.7999999523,1013259.5999999046,1004245.861,1004451.5,1004262.576,1013063.009,4,500,13,
break,html.Screen,10_12_1,2023-11-17T18:02:25.204Z,,,,,,,,,,,NaN,,,,,,,,low,high,,,,,,false,,,,,false,1013260.5,1013260.2999999523,,1013260,,1013063.009,4,500,,
break_continue,html.Screen,10_12_2,2023-11-17T18:02:25.205Z,,,,,,,,,,,NaN,,,,,,,,low,high,,,,,,false,,,,,false,1013260.7999999523,1013260.6999999285,,1013260.5999999046,,1013063.009,4,500,,
sequence,flow.Sequence,10_12,2023-11-17T18:02:25.205Z,,,,,,,,,,,8998.123999928473,completion,,,,,,,low,high,,,,,,false,,,,,false,1013261,1013260.6999999285,1004245.861,1004451.5,1004262.576,1013063.009,4,500,,
trial,html.Screen,10_13_0,2023-11-17T18:02:30.926Z,,,,1,-0.0361875505619981,0.0291457404567876,,0.04,true,hl,5916.590999904671,response,0.7753299102004093,0.8463403297081437,-1.167329392623584,-1.053851019509641,0.8574199818804074,-1.1554338832416282,high,low,,ISIC_0027480.JPG,9,ISIC_9511832.JPG,26,false,0.18000000000000005,hl,keypress(j),0,false,1018979.7999999523,1018979.5999999046,1013046.363,1013261.1999999285,1013063.009,1018790.741,4,500,14,
break,html.Screen,10_13_1,2023-11-17T18:02:30.927Z,,,,,,,,,,,NaN,,,,,,,,high,low,,,,,,false,,,,,false,1018980.5,1018980.2999999523,,1018980,,1018790.741,4,500,,
break_continue,html.Screen,10_13_2,2023-11-17T18:02:30.928Z,,,,,,,,,,,NaN,,,,,,,,high,low,,,,,,false,,,,,false,1018981,1018980.7999999523,,1018980.6999999285,,1018790.741,4,500,,
sequence,flow.Sequence,10_13,2023-11-17T18:02:30.928Z,,,,,,,,,,,5917.7909999523545,completion,,,,,,,high,low,,,,,,false,,,,,false,1018981.0999999046,1018980.7999999523,1013046.363,1013261.0999999046,1013063.009,1018790.741,4,500,,
trial,html.Screen,10_14_0,2023-11-17T18:02:39.262Z,,,,1,0.0057914759495055,-0.018500200317654,,0.04,true,hl,8524.758999999962,response,0.6669021150735244,0.8463403297081437,-1.167329392623584,-1.0443315451754065,0.8574199818804074,-1.1554338832416282,high,low,,ISIC_0058723.JPG,9,ISIC_9163466.JPG,26,false,0.18000000000000005,hl,keypress(j),0,false,1027315.6999999285,1027315.5,1018774.164,1018981.1999999285,1018790.741,1027123.651,4,500,15,
break,html.Screen,10_14_1,2023-11-17T18:02:39.263Z,,,,,,,,,,,NaN,,,,,,,,high,low,,,,,,false,,,,,false,1027316.2999999523,1027316.0999999046,,1027315.8999999762,,1027123.651,4,500,,
break_continue,html.Screen,10_14_2,2023-11-17T18:02:39.263Z,,,,,,,,,,,NaN,,,,,,,,high,low,,,,,,false,,,,,false,1027316.8999999762,1027316.6999999285,,1027316.5,,1027123.651,4,500,,
sequence,flow.Sequence,10_14,2023-11-17T18:02:39.264Z,,,,,,,,,,,8525.958999928436,completion,,,,,,,high,low,,,,,,false,,,,,false,1027317.0999999046,1027316.6999999285,1018774.164,1018981.1999999285,1018790.741,1027123.651,4,500,,
trial,html.Screen,10_15_0,2023-11-17T18:02:46.806Z,,,,1,-0.0321039635696159,-0.020496766286318,,0.04,false,lh,7735.54899992852,response,-1.0481746483551846,0.8463403297081437,-1.167329392623584,0.7465283499508132,0.8574199818804074,-1.1554338832416282,low,high,,ISIC_0058063.JPG,9,ISIC_0031248.JPG,25,false,0.19000000000000006,ll,keypress(f),0,false,1034859.1999999285,1034859.1999999285,1027106.937,1027317.2999999523,1027123.651,1034671.811,4,500,16,
break,html.Screen,10_15_1,2023-11-17T18:02:46.806Z,,,,,,,,,,,NaN,,,,,,,,low,high,,,,,,false,,,,,false,1034859.5999999046,1034859.5,,1034859.3999999762,,1034671.811,4,500,,
break_continue,html.Screen,10_15_2,2023-11-17T18:02:46.806Z,,,,,,,,,,,NaN,,,,,,,,low,high,,,,,,false,,,,,false,1034859.6999999285,1034859.6999999285,,1034859.5999999046,,1034671.811,4,500,,
sequence,flow.Sequence,10_15,2023-11-17T18:02:46.806Z,,,,,,,,,,,7736.04899992852,completion,,,,,,,low,high,,,,,,false,,,,,false,1034859.7999999523,1034859.6999999285,1027106.937,1027317.1999999285,1027123.651,1034671.811,4,500,,
trial,html.Screen,10_16_0,2023-11-17T18:03:01.046Z,,,,1,0.012810673904807,-0.00400964452501,,0.04,false,ll,14427.288999904646,response,-1.0831477774866454,0.8463403297081437,-1.167329392623584,-1.0347343776726454,0.8574199818804074,-1.1554338832416282,low,low,,ISIC_0064656.JPG,10,ISIC_9475559.JPG,27,false,0.14,hh,keypress(i),0,false,1049099.1999999285,1049099.0999999046,1034655.109,1034859.8999999762,1034671.811,1048899.32,4,500,17,
break,html.Screen,10_16_1,2023-11-17T18:03:01.046Z,,,,,,,,,,,NaN,,,,,,,,low,low,,,,,,false,,,,,false,1049099.5,1049099.5,,1049099.2999999523,,1048899.32,4,500,,
break_continue,html.Screen,10_16_2,2023-11-17T18:03:01.046Z,,,,,,,,,,,NaN,,,,,,,,low,low,,,,,,false,,,,,false,1049099.6999999285,1049099.5999999046,,1049099.5999999046,,1048899.32,4,500,,
sequence,flow.Sequence,10_16,2023-11-17T18:03:01.046Z,,,,,,,,,,,14427.788999904646,completion,,,,,,,low,low,,,,,,false,,,,,false,1049099.7999999523,1049099.5999999046,1034655.109,1034859.7999999523,1034671.811,1048899.32,4,500,,
trial,html.Screen,10_17_0,2023-11-17T18:03:14.078Z,,,,1,-0.0051046740562181,0.0178832721027728,,0.04,false,hh,13231.679999999935,response,0.7571779700096857,0.8463403297081437,-1.167329392623584,0.7705794129828005,0.8574199818804074,-1.1554338832416282,high,high,,ISIC_9545819.JPG,10,ISIC_0011343.JPG,54,false,0.1,hl,keypress(j),0,false,1062131.0999999046,1062131,1048882.886,1049099.7999999523,1048899.32,1061941.37,4,500,18,
break,html.Screen,10_17_1,2023-11-17T18:03:14.078Z,,,,,,,,,,,NaN,,,,,,,,high,high,,,,,,false,,,,,false,1062131.5,1062131.3999999762,,1062131.2999999523,,1061941.37,4,500,,
break_continue,html.Screen,10_17_2,2023-11-17T18:03:14.078Z,,,,,,,,,,,NaN,,,,,,,,high,high,,,,,,false,,,,,false,1062131.5999999046,1062131.5999999046,,1062131.5,,1061941.37,4,500,,
sequence,flow.Sequence,10_17,2023-11-17T18:03:14.078Z,,,,,,,,,,,13232.279999904567,completion,,,,,,,high,high,,,,,,false,,,,,false,1062131.5999999046,1062131.5999999046,1048882.886,1049099.7999999523,1048899.32,1061941.37,4,500,,
trial,html.Screen,10_18_0,2023-11-17T18:03:18.310Z,,,,1,-0.0189295602385628,-0.0128812415435153,,0.04,true,hl,4421.529999976046,response,0.7871162143493278,0.8463403297081437,-1.167329392623584,-1.2153707004941214,0.8574199818804074,-1.1554338832416282,high,low,,ISIC_0010372.JPG,9,ISIC_3439215.JPG,26,false,0.18000000000000005,hl,keypress(j),0,false,1066363.0999999046,1066362.8999999762,1061924.76,1062131.6999999285,1061941.37,1066166.24,4,500,19,
break,html.Screen,10_18_1,2023-11-17T18:03:18.310Z,,,,,,,,,,,NaN,,,,,,,,high,low,,,,,,false,,,,,false,1066363.3999999762,1066363.2999999523,,1066363.1999999285,,1066166.24,4,500,,
break_continue,html.Screen,10_18_2,2023-11-17T18:03:18.310Z,,,,,,,,,,,NaN,,,,,,,,high,low,,,,,,false,,,,,false,1066363.5,1066363.5,,1066363.3999999762,,1066166.24,4,500,,
sequence,flow.Sequence,10_18,2023-11-17T18:03:18.310Z,,,,,,,,,,,4422.129999999888,completion,,,,,,,high,low,,,,,,false,,,,,false,1066363.5999999046,1066363.5,1061924.76,1062131.6999999285,1061941.37,1066166.24,4,500,,
trial,html.Screen,10_19_0,2023-11-17T18:03:25.957Z,,,,1,-0.0327772618698018,0.0056908372048728,,0.04,true,lh,7844.559999952326,response,-1.225025174430573,0.8463403297081437,-1.167329392623584,0.8422679054456499,0.8574199818804074,-1.1554338832416282,low,high,,ISIC_7897925.JPG,8,ISIC_7503950.JPG,25,false,0.19000000000000006,lh,keypress(e),0,false,1074010.8999999762,1074010.7999999523,1066149.769,1066363.6999999285,1066166.24,1073814.406,4,500,20,
break,html.Screen,10_19_1,2023-11-17T18:03:25.958Z,,,,,,,,,,,NaN,,,,,,,,low,high,,,,,,false,,,,,false,1074011.1999999285,1074011.0999999046,,1074011,,1073814.406,4,500,,
break_continue,html.Screen,10_19_2,2023-11-17T18:03:25.958Z,,,,,,,,,,,NaN,,,,,,,,low,high,,,,,,false,,,,,false,1074011.3999999762,1074011.3999999762,,1074011.1999999285,,1073814.406,4,500,,
sequence,flow.Sequence,10_19,2023-11-17T18:03:25.958Z,,,,,,,,,,,7845.1599999761675,completion,,,,,,,low,high,,,,,,false,,,,,false,1074011.5,1074011.3999999762,1066149.769,1066363.5999999046,1066166.24,1073814.406,4,500,,
trial,html.Screen,10_20_0,2023-11-17T18:03:30.240Z,,,,1,-0.0321039635696159,-0.020496766286318,,0.04,false,lh,4476.893999952357,response,-1.0143509683988825,0.8463403297081437,-1.167329392623584,1.0281980567462463,0.8574199818804074,-1.1554338832416282,low,high,,ISIC_0058063.JPG,11,ISIC_0062031.JPG,25,false,0.19000000000000006,hl,keypress(j),0,false,1078291.5999999046,1078291.2999999523,1073797.722,1074011.5,1073814.406,1078107.347,4,500,21,
break,html.Screen,10_20_1,2023-11-17T18:03:30.240Z,,,,,,,,,,,NaN,,,,,,,,low,high,,,,,,false,,,,,false,1078292.0999999046,1078292,,1078291.7999999523,,1078107.347,4,500,,
break_continue,html.Screen,10_20_2,2023-11-17T18:03:30.241Z,,,,,,,,,,,NaN,,,,,,,,low,high,,,,,,false,,,,,false,1078292.5999999046,1078292.3999999762,,1078292.2999999523,,1078107.347,4,500,,
sequence,flow.Sequence,10_20,2023-11-17T18:03:30.241Z,,,,,,,,,,,4477.993999976199,completion,,,,,,,low,high,,,,,,false,,,,,false,1078292.6999999285,1078292.3999999762,1073797.722,1074011.5,1073814.406,1078107.347,4,500,,
trial,html.Screen,10_21_0,2023-11-17T18:03:37.695Z,,,,1,-0.0051046740562181,0.0178832721027728,,0.04,false,lh,7639.552999976091,response,-1.1890109863264902,0.8463403297081437,-1.167329392623584,0.8867825318561365,0.8574199818804074,-1.1554338832416282,low,high,,ISIC_9545819.JPG,9,ISIC_0072576.JPG,25,false,0.19000000000000006,ll,keypress(f),0,false,1085747,1085746.8999999762,1078072.874,1078292.6999999285,1078107.347,1085553.935,4,500,22,
break,html.Screen,10_21_1,2023-11-17T18:03:37.695Z,,,,,,,,,,,NaN,,,,,,,,low,high,,,,,,false,,,,,false,1085747.2999999523,1085747.1999999285,,1085747.0999999046,,1085553.935,4,500,,
break_continue,html.Screen,10_21_2,2023-11-17T18:03:37.696Z,,,,,,,,,,,NaN,,,,,,,,low,high,,,,,,false,,,,,false,1085747.3999999762,1085747.3999999762,,1085747.2999999523,,1085553.935,4,500,,
sequence,flow.Sequence,10_21,2023-11-17T18:03:37.696Z,,,,,,,,,,,7640.052999976091,completion,,,,,,,low,high,,,,,,false,,,,,false,1085747.5,1085747.3999999762,1078072.874,1078292.6999999285,1078107.347,1085553.935,4,500,,
trial,html.Screen,10_22_0,2023-11-17T18:03:44.872Z,,,,1,0.0118555311043871,0.0087774532070196,,0.04,false,lh,7369.86499995226,response,-1.1598623261077452,0.8463403297081437,-1.167329392623584,0.6961047103031557,0.8574199818804074,-1.1554338832416282,low,high,,ISIC_6488658.JPG,10,ISIC_0002639.JPG,25,false,0.19000000000000006,hl,keypress(j),0,false,1092924,1092923.7999999523,1085537.229,1085747.5999999046,1085553.935,1092734.648,4,500,23,
break,html.Screen,10_22_1,2023-11-17T18:03:44.873Z,,,,,,,,,,,NaN,,,,,,,,low,high,,,,,,false,,,,,false,1092924.7999999523,1092924.6999999285,,1092924.2999999523,,1092734.648,4,500,,
break_continue,html.Screen,10_22_2,2023-11-17T18:03:44.874Z,,,,,,,,,,,NaN,,,,,,,,low,high,,,,,,false,,,,,false,1092925.3999999762,1092925.1999999285,,1092925,,1092734.648,4,500,,
sequence,flow.Sequence,10_22,2023-11-17T18:03:44.874Z,,,,,,,,,,,7371.264999928419,completion,,,,,,,low,high,,,,,,false,,,,,false,1092925.5999999046,1092925.1999999285,1085537.229,1085747.5,1085553.935,1092734.648,4,500,,
trial,html.Screen,10_23_0,2023-11-17T18:03:49.720Z,,,,1,-0.0327772618698018,0.0056908372048728,,0.04,false,lh,5037.451999904588,response,-1.0481746483551846,0.8463403297081437,-1.167329392623584,0.7465283499508132,0.8574199818804074,-1.1554338832416282,low,high,,ISIC_7897925.JPG,8,ISIC_0031248.JPG,25,false,0.19000000000000006,hh,keypress(i),0,false,1097772.2999999523,1097772.0999999046,1092717.854,1092925.6999999285,1092734.648,1097577.316,4,500,24,
break,html.Screen,10_23_1,2023-11-17T18:03:49.721Z,,,,,,,,,,,NaN,,,,,,,,low,high,,,,,,false,,,,,false,1097773.0999999046,1097773,,1097772.5999999046,,1097577.316,4,500,,
break_continue,html.Screen,10_23_2,2023-11-17T18:03:49.722Z,,,,,,,,,,,NaN,,,,,,,,low,high,,,,,,false,,,,,false,1097773.6999999285,1097773.5,,1097773.1999999285,,1097577.316,4,500,,
sequence,flow.Sequence,10_23,2023-11-17T18:03:49.722Z,,,,,,,,,,,5038.851999999955,completion,,,,,,,low,high,,,,,,false,,,,,false,1097773.7999999523,1097773.5,1092717.854,1092925.6999999285,1092734.648,1097577.316,4,500,,
trial,html.Screen,10_24_0,2023-11-17T18:03:56.671Z,,,,1,0.00126575685933,0.0325046559638838,,0.04,true,hh,7145.683999999892,response,0.9286162906661966,0.8463403297081437,-1.167329392623584,0.8993115431771105,0.8574199818804074,-1.1554338832416282,high,high,,ISIC_5682259.JPG,8,ISIC_0011857.JPG,54,false,0.1,hh,keypress(i),0,false,1104723.1999999285,1104723,1097560.72,1097774,1097577.316,1104524.174,4,500,25,
break,html.Screen,10_24_1,2023-11-17T18:03:56.672Z,,,,,,,,,,,NaN,,,,,,,,high,high,,,,,,false,,,,,false,1104723.5,1104723.3999999762,,1104723.2999999523,,1104524.174,4,500,,
break_continue,html.Screen,10_24_2,2023-11-17T18:03:56.672Z,,,,,,,,,,,NaN,,,,,,,,high,high,,,,,,false,,,,,false,1104723.6999999285,1104723.5999999046,,1104723.5,,1104524.174,4,500,,
sequence,flow.Sequence,10_24,2023-11-17T18:03:56.672Z,,,,,,,,,,,7146.2839999045245,completion,,,,,,,high,high,,,,,,false,,,,,false,1104723.6999999285,1104723.5999999046,1097560.72,1097774,1097577.316,1104524.174,4,500,,
trial,html.Screen,10_25_0,2023-11-17T18:04:01.216Z,,,,1,0.0060918352854008,-0.029032683404407,,0.04,true,hl,4743.625999952201,response,0.7753299102004093,0.8463403297081437,-1.167329392623584,-1.053851019509641,0.8574199818804074,-1.1554338832416282,high,low,,ISIC_8436194.JPG,9,ISIC_9511832.JPG,26,false,0.18000000000000005,hl,keypress(j),0,false,1109268,1109267.7999999523,1104507.625,1104723.7999999523,1104524.174,1109083.99,4,500,26,
break,html.Screen,10_25_1,2023-11-17T18:04:01.217Z,,,,,,,,,,,NaN,,,,,,,,high,low,,,,,,false,,,,,false,1109268.7999999523,1109268.5999999046,,1109268.2999999523,,1109083.99,4,500,,
break_continue,html.Screen,10_25_2,2023-11-17T18:04:01.217Z,,,,,,,,,,,NaN,,,,,,,,high,low,,,,,,false,,,,,false,1109269.2999999523,1109269.1999999285,,1109269,,1109083.99,4,500,,
sequence,flow.Sequence,10_25,2023-11-17T18:04:01.218Z,,,,,,,,,,,4745.025999928359,completion,,,,,,,high,low,,,,,,false,,,,,false,1109269.5,1109269.1999999285,1104507.625,1104723.6999999285,1104524.174,1109083.99,4,500,,
trial,html.Screen,10_26_0,2023-11-17T18:04:13.520Z,,,,1,-0.0361875505619981,0.0291457404567876,,0.04,false,lh,12487.51000000001,response,-1.1890109863264902,0.8463403297081437,-1.167329392623584,0.8867825318561365,0.8574199818804074,-1.1554338832416282,low,high,,ISIC_0027480.JPG,9,ISIC_0072576.JPG,25,false,0.19000000000000006,ll,keypress(f),0,false,1121571.5999999046,1121571.5,1109049.732,1109269.5999999046,1109083.99,1121373.585,4,500,27,
break,html.Screen,10_26_1,2023-11-17T18:04:13.520Z,,,,,,,,,,,NaN,,,,,,,,low,high,,,,,,false,,,,,false,1121572.0999999046,1121572,,1121571.6999999285,,1121373.585,4,500,,
break_continue,html.Screen,10_26_2,2023-11-17T18:04:13.521Z,,,,,,,,,,,NaN,,,,,,,,low,high,,,,,,false,,,,,false,1121572.2999999523,1121572.2999999523,,1121572.1999999285,,1121373.585,4,500,,
sequence,flow.Sequence,10_26,2023-11-17T18:04:13.521Z,,,,,,,,,,,12488.309999952326,completion,,,,,,,low,high,,,,,,false,,,,,false,1121572.5,1121572.2999999523,1109049.732,1109269.5999999046,1109083.99,1121373.585,4,500,,
trial,html.Screen,10_27_0,2023-11-17T18:04:18.089Z,,,,1,-0.0127320821962457,0.0315308940184827,,0.04,true,hh,4767.114999928512,response,0.8752617287758995,0.8463403297081437,-1.167329392623584,0.8023740329006754,0.8574199818804074,-1.1554338832416282,high,high,,ISIC_8156101.JPG,9,ISIC_0033968.JPG,54,false,0.1,hh,keypress(i),0,false,1126141,1126140.6999999285,1121356.938,1121572.5999999046,1121373.585,1125949.238,4,500,28,
break,html.Screen,10_27_1,2023-11-17T18:04:18.090Z,,,,,,,,,,,NaN,,,,,,,,high,high,,,,,,false,,,,,false,1126142.2999999523,1126142,,1126141.5,,1125949.238,4,500,,
break_continue,html.Screen,10_27_2,2023-11-17T18:04:18.091Z,,,,,,,,,,,NaN,,,,,,,,high,high,,,,,,false,,,,,false,1126143.0999999046,1126142.7999999523,,1126142.5,,1125949.238,4,500,,
sequence,flow.Sequence,10_27,2023-11-17T18:04:18.092Z,,,,,,,,,,,4769.2149999523535,completion,,,,,,,high,high,,,,,,false,,,,,false,1126143.3999999762,1126142.7999999523,1121356.938,1121572.5999999046,1121373.585,1125949.238,4,500,,
trial,html.Screen,10_28_0,2023-11-17T18:04:22.423Z,,,,1,0.0060918352854008,-0.029032683404407,,0.04,false,ll,4525.661999976262,response,-1.1510001454240106,0.8463403297081437,-1.167329392623584,-1.132540312667795,0.8574199818804074,-1.1554338832416282,low,low,,ISIC_8436194.JPG,9,ISIC_0009959.JPG,27,false,0.14,hl,keypress(j),0,false,1130475,1130474.8999999762,1125932.594,1126143.5999999046,1125949.238,1130274.261,4,500,29,
break,html.Screen,10_28_1,2023-11-17T18:04:22.424Z,,,,,,,,,,,NaN,,,,,,,,low,low,,,,,,false,,,,,false,1130475.3999999762,1130475.2999999523,,1130475.1999999285,,1130274.261,4,500,,
break_continue,html.Screen,10_28_2,2023-11-17T18:04:22.424Z,,,,,,,,,,,NaN,,,,,,,,low,low,,,,,,false,,,,,false,1130475.6999999285,1130475.5999999046,,1130475.5,,1130274.261,4,500,,
sequence,flow.Sequence,10_28,2023-11-17T18:04:22.424Z,,,,,,,,,,,4526.361999904737,completion,,,,,,,low,low,,,,,,false,,,,,false,1130475.6999999285,1130475.5999999046,1125932.594,1126143.5,1125949.238,1130274.261,4,500,,
trial,html.Screen,10_29_0,2023-11-17T18:04:25.016Z,,,,1,0.0118555311043871,0.0087774532070196,,0.04,true,hl,2793.6389999762177,response,0.6800290589484806,0.8463403297081437,-1.167329392623584,-1.2806277136291266,0.8574199818804074,-1.1554338832416282,high,low,,ISIC_6488658.JPG,9,ISIC_7236842.JPG,26,false,0.18000000000000005,hl,keypress(j),0,false,1133068.1999999285,1133067.8999999762,1130257.772,1130475.7999999523,1130274.261,1132879.422,4,500,30,
break,html.Screen,10_29_1,2023-11-17T18:04:25.017Z,,,,,,,,,,,NaN,,,,,,,,high,low,,,,,,false,,,,,false,1133068.8999999762,1133068.7999999523,,1133068.3999999762,,1132879.422,4,500,,
break_continue,html.Screen,10_29_2,2023-11-17T18:04:25.018Z,,,,,,,,,,,NaN,,,,,,,,high,low,,,,,,false,,,,,false,1133069.5,1133069.3999999762,,1133069.0999999046,,1132879.422,4,500,,
sequence,flow.Sequence,10_29,2023-11-17T18:04:25.018Z,,,,,,,,,,,2795.1389999762177,completion,,,,,,,high,low,,,,,,false,,,,,false,1133069.7999999523,1133069.3999999762,1130257.772,1130475.7999999523,1130274.261,1132879.422,4,500,,
trial,html.Screen,10_30_0,2023-11-17T18:04:30.088Z,,,,1,0.0077673378094614,0.0021810768579373,,0.04,true,lh,5259.177999904612,response,-1.1264523937924051,0.8463403297081437,-1.167329392623584,0.729579583367798,0.8574199818804074,-1.1554338832416282,low,high,,ISIC_0067621.JPG,8,ISIC_0032095.JPG,25,false,0.19000000000000006,lh,keypress(e),0,false,1138138.6999999285,1138138.5999999046,1132862.825,1133070,1132879.422,1137939.162,4,500,31,
break,html.Screen,10_30_1,2023-11-17T18:04:30.089Z,,,,,,,,,,,NaN,,,,,,,,low,high,,,,,,false,,,,,false,1138138.8999999762,1138138.8999999762,,1138138.7999999523,,1137939.162,4,500,,
break_continue,html.Screen,10_30_2,2023-11-17T18:04:30.089Z,,,,,,,,,,,NaN,,,,,,,,low,high,,,,,,false,,,,,false,1138139.1999999285,1138139.0999999046,,1138139.0999999046,,1137939.162,4,500,,
sequence,flow.Sequence,10_30,2023-11-17T18:04:30.089Z,,,,,,,,,,,5259.677999904612,completion,,,,,,,low,high,,,,,,false,,,,,false,1138139.1999999285,1138139.0999999046,1132862.825,1133069.8999999762,1132879.422,1137939.162,4,500,,
trial,html.Screen,10_31_0,2023-11-17T18:04:33.417Z,,,,1,0.0158987717472563,0.0292472192292015,,0.04,true,lh,3527.737999976147,response,-1.064425982109969,0.8463403297081437,-1.167329392623584,0.958564243697126,0.8574199818804074,-1.1554338832416282,low,high,,ISIC_1366765.JPG,9,ISIC_3203344.JPG,25,false,0.19000000000000006,lh,keypress(e),0,false,1141467,1141466.8999999762,1137922.677,1138139.2999999523,1137939.162,1141279.073,4,500,32,
break,html.Screen,10_31_1,2023-11-17T18:04:33.417Z,,,,,,,,,,,NaN,,,,,,,,low,high,,,,,,false,,,,,false,1141467.5,1141467.3999999762,,1141467.1999999285,,1141279.073,4,500,,
break_continue,html.Screen,10_31_2,2023-11-17T18:04:33.417Z,,,,,,,,,,,NaN,,,,,,,,low,high,,,,,,false,,,,,false,1141467.6999999285,1141467.5999999046,,1141467.5,,1141279.073,4,500,,
sequence,flow.Sequence,10_31,2023-11-17T18:04:33.417Z,,,,,,,,,,,3528.4379999046214,completion,,,,,,,low,high,,,,,,false,,,,,false,1141467.7999999523,1141467.5999999046,1137922.677,1138139.2999999523,1137939.162,1141279.073,4,500,,
trial,html.Screen,10_32_0,2023-11-17T18:04:48.393Z,,,,1,0.0377791839943904,-0.0227626648172468,,0.04,false,ll,15164.526999904541,response,-1.1305948371148624,0.8463403297081437,-1.167329392623584,-1.2802709447034604,0.8574199818804074,-1.1554338832416282,low,low,,ISIC_7167479.JPG,8,ISIC_5648111.JPG,27,false,0.14,hl,keypress(j),0,false,1156443.6999999285,1156443.5999999046,1141262.309,1141467.8999999762,1141279.073,1156259.164,4,500,33,
break,html.Screen,10_32_1,2023-11-17T18:04:48.394Z,,,,,,,,,,,NaN,,,,,,,,low,low,,,,,,false,,,,,false,1156444.2999999523,1156444.2999999523,,1156444,,1156259.164,4,500,,
break_continue,html.Screen,10_32_2,2023-11-17T18:04:48.394Z,,,,,,,,,,,NaN,,,,,,,,low,low,,,,,,false,,,,,false,1156444.7999999523,1156444.5999999046,,1156444.5,,1156259.164,4,500,,
sequence,flow.Sequence,10_32,2023-11-17T18:04:48.395Z,,,,,,,,,,,15165.526999904541,completion,,,,,,,low,low,,,,,,false,,,,,false,1156444.8999999762,1156444.5999999046,1141262.309,1141467.8999999762,1141279.073,1156259.164,4,500,,
trial,html.Screen,10_33_0,2023-11-17T18:04:51.569Z,,,,1,0.0060918352854008,-0.029032683404407,,0.04,false,ll,3359.735999976052,response,-1.0375203228848855,0.8463403297081437,-1.167329392623584,-1.0256934713188917,0.8574199818804074,-1.1554338832416282,low,low,,ISIC_8436194.JPG,9,ISIC_4264600.JPG,27,false,0.14,lh,keypress(e),0,false,1159619,1159618.8999999762,1156224.937,1156445.0999999046,1156259.164,1159430.968,4,500,34,
break,html.Screen,10_33_1,2023-11-17T18:04:51.569Z,,,,,,,,,,,NaN,,,,,,,,low,low,,,,,,false,,,,,false,1159619.2999999523,1159619.2999999523,,1159619.1999999285,,1159430.968,4,500,,
break_continue,html.Screen,10_33_2,2023-11-17T18:04:51.569Z,,,,,,,,,,,NaN,,,,,,,,low,low,,,,,,false,,,,,false,1159619.5,1159619.5,,1159619.3999999762,,1159430.968,4,500,,
sequence,flow.Sequence,10_33,2023-11-17T18:04:51.569Z,,,,,,,,,,,3360.335999999894,completion,,,,,,,low,low,,,,,,false,,,,,false,1159619.6999999285,1159619.5,1156224.937,1156444.8999999762,1156259.164,1159430.968,4,500,,
trial,html.Screen,10_34_0,2023-11-17T18:04:59.337Z,,,,1,0.0350697500805515,0.0166617848231997,,0.04,true,ll,7956.03199999989,response,-1.1305948371148624,0.8463403297081437,-1.167329392623584,-1.2802709447034604,0.8574199818804074,-1.1554338832416282,low,low,,ISIC_0024423.JPG,10,ISIC_5648111.JPG,27,false,0.14,ll,keypress(f),0,false,1167387.0999999046,1167387,1159414.468,1159619.6999999285,1159430.968,1167196.118,4,500,35,
break,html.Screen,10_34_1,2023-11-17T18:04:59.337Z,,,,,,,,,,,NaN,,,,,,,,low,low,,,,,,false,,,,,false,1167387.5,1167387.3999999762,,1167387.1999999285,,1167196.118,4,500,,
break_continue,html.Screen,10_34_2,2023-11-17T18:04:59.337Z,,,,,,,,,,,NaN,,,,,,,,low,low,,,,,,false,,,,,false,1167387.5999999046,1167387.5,,1167387.5,,1167196.118,4,500,,
sequence,flow.Sequence,10_34,2023-11-17T18:04:59.337Z,,,,,,,,,,,7956.53199999989,completion,,,,,,,low,low,,,,,,false,,,,,false,1167387.7999999523,1167387.5,1159414.468,1159619.6999999285,1159430.968,1167196.118,4,500,,
trial,html.Screen,10_35_0,2023-11-17T18:05:09.266Z,,,,1,0.0399381815506136,0.0177751789152893,,0.04,false,ll,10119.781999976141,response,-1.2555541172897566,0.8463403297081437,-1.167329392623584,-1.0235056423601527,0.8574199818804074,-1.1554338832416282,low,low,,ISIC_3981425.JPG,9,ISIC_1578399.JPG,27,false,0.14,lh,keypress(e),0,false,1177316,1177315.8999999762,1167179.362,1167387.7999999523,1167196.118,1177132.077,4,500,36,
break,html.Screen,10_35_1,2023-11-17T18:05:09.267Z,,,,,,,,,,,NaN,,,,,,,,low,low,,,,,,false,,,,,false,1177317,1177316.6999999285,,1177316.2999999523,,1177132.077,4,500,,
break_continue,html.Screen,10_35_2,2023-11-17T18:05:09.267Z,,,,,,,,,,,NaN,,,,,,,,low,low,,,,,,false,,,,,false,1177317.5,1177317.2999999523,,1177317.0999999046,,1177132.077,4,500,,
sequence,flow.Sequence,10_35,2023-11-17T18:05:09.267Z,,,,,,,,,,,10121.1819999523,completion,,,,,,,low,low,,,,,,false,,,,,false,1177317.5999999046,1177317.2999999523,1167179.362,1167387.7999999523,1167196.118,1177132.077,4,500,,
trial,html.Screen,10_36_0,2023-11-17T18:05:17.945Z,,,,1,-0.0086413421586899,-0.0360184993500958,,0.04,false,lh,8863.32299997611,response,-1.1264523937924051,0.8463403297081437,-1.167329392623584,0.729579583367798,0.8574199818804074,-1.1554338832416282,low,high,,ISIC_0010767.JPG,9,ISIC_0032095.JPG,25,false,0.19000000000000006,hh,keypress(i),0,false,1185995.3999999762,1185995.3999999762,1177098.616,1177317.7999999523,1177132.077,1185798.923,4,500,37,
break,html.Screen,10_36_1,2023-11-17T18:05:17.946Z,,,,,,,,,,,NaN,,,,,,,,low,high,,,,,,false,,,,,false,1185996,1185995.8999999762,,1185995.6999999285,,1185798.923,4,500,,
break_continue,html.Screen,10_36_2,2023-11-17T18:05:17.946Z,,,,,,,,,,,NaN,,,,,,,,low,high,,,,,,false,,,,,false,1185996.2999999523,1185996.1999999285,,1185996.0999999046,,1185798.923,4,500,,
sequence,flow.Sequence,10_36,2023-11-17T18:05:17.946Z,,,,,,,,,,,8864.122999928426,completion,,,,,,,low,high,,,,,,false,,,,,false,1185996.2999999523,1185996.1999999285,1177098.616,1177317.6999999285,1177132.077,1185798.923,4,500,,
trial,html.Screen,10_37_0,2023-11-17T18:05:22.330Z,,,,1,0.0050679133050021,0.0174815595031679,,0.04,true,hl,4580.876999952365,response,0.6971413872676647,0.8463403297081437,-1.167329392623584,-1.040122402473425,0.8574199818804074,-1.1554338832416282,high,low,,ISIC_9848743.JPG,9,ISIC_8195528.JPG,26,false,0.18000000000000005,hl,keypress(j),0,false,1190380.0999999046,1190379.7999999523,1185782.354,1185996.3999999762,1185798.923,1190190.804,4,500,38,
break,html.Screen,10_37_1,2023-11-17T18:05:22.331Z,,,,,,,,,,,NaN,,,,,,,,high,low,,,,,,false,,,,,false,1190381.2999999523,1190381,,1190380.5,,1190190.804,4,500,,
break_continue,html.Screen,10_37_2,2023-11-17T18:05:22.331Z,,,,,,,,,,,NaN,,,,,,,,high,low,,,,,,false,,,,,false,1190381.6999999285,1190381.5,,1190381.3999999762,,1190190.804,4,500,,
