sender,sender_type,sender_id,timestamp,meta,,age,blockNo,c1,c2,condition,control_tolerance,correct,correctResponse,duration,ended_on,f1,f1_high,f1_low,f2,f2_high,f2_low,feature_level1,feature_level2,gender,img_left,img_reveal,img_right,n_target_images,practice,range_tolerance,response,response_action,selection_duration,staircase,time_commit,time_end,time_render,time_run,time_show,time_switch,total_blocks,total_trials,trialNo,url
informed_consent,html.Screen,0,2023-11-17T20:32:09.849Z,"{""labjs_version"":""20.2.4"",""labjs_build"":{""flavor"":""development"",""commit"":""f5b4a49f956347addd546a832a3327688c2c0fef""},""location"":""https://labjs.felixhenninger.com/api/labjs_preview/index.html"",""userAgent"":""Mozilla/5.0 (Windows NT 10.0; Win64; x64) AppleWebKit/537.36 (KHTML, like Gecko) Chrome/119.0.0.0 Safari/537.36"",""platform"":""Win32"",""language"":""en-US"",""locale"":""en-US"",""timeZone"":""America/Chicago"",""timezoneOffset"":360,""screen_width"":1920,""screen_height"":1080,""scroll_width"":945,""scroll_height"":918,""window_innerWidth"":945,""window_innerHeight"":966,""devicePixelRatio"":1}",,,,,,,,,,37589.12699998808,response,,,,,,,,,,,,,,,,consent,click button,,,38224.299999952316,38215.19999998808,609.32,601.7999999523163,626.073,38246.967,,,,{}
Demography form,html.Form,1,2023-11-17T20:32:17.960Z,,,18,,,,,,,,8089.13299996424,form submission,,,,,,,,,male,,,,,,,,,,,46336.19999998808,46336.09999996424,38230.344,38224.59999996424,38246.967,46338.383,,,,
Welcome,html.Screen,2,2023-11-17T20:32:25.977Z,,,,,,,"[""asym"",""bor""]",,,,8012.816999988077,response,,,,,,,,,,,,,,,,continue,click button,,,54351.799999952316,54351.19999998808,46321.709,46336.299999952316,46338.383,54363.254,,,,
demo_instructions,html.Screen,3,2023-11-17T20:32:33.177Z,,,,,,,,,,,7188.0459999523155,response,,,,,,,,,,,,,,,,continue,click button,,,61551.69999998808,61551.299999952316,54346.617,54351.799999952316,54363.254,61570.32,,,,
trial,html.Screen,4_0_0,2023-11-17T20:32:39.212Z,,,,0,0.8623414234919863,-0.782830143980698,,,true,lh,6015.579999976158,response,-1.2331439637486756,1.2,-1.2,0.9691143900156988,1.2,-1.2,low,high,,ISIC_2727016.JPG,,ISIC_7877488.JPG,26,true,0.3600000000000002,lh,keypress(e),100,false,67586.09999996424,67585.89999997616,61537.029,61551.89999997616,61570.32,67609.951,1,16,1,
sequence,flow.Sequence,4_0,2023-11-17T20:32:39.212Z,,,,,,,,,,,6015.579999976158,completion,,,,,,,low,high,,,,,,true,,,,,false,67586.29999995232,67585.89999997616,61537.029,61551.799999952316,61570.32,67609.951,1,16,,
trial,html.Screen,4_1_0,2023-11-17T20:32:41.343Z,,,,0,0.948927472020595,-1.0660437155921598,,,true,lh,2107.1489999642363,response,-0.8579451262594331,1.2,-1.2,0.9633172970727744,1.2,-1.2,low,high,,ISIC_5808758.JPG,,ISIC_0067172.JPG,33,true,0.42000000000000026,lh,keypress(e),100,false,69717.29999995232,69717.09999996424,67593.011,67586.5,67609.951,69745.197,1,16,2,
sequence,flow.Sequence,4_1,2023-11-17T20:32:41.343Z,,,,,,,,,,,2107.1489999642363,completion,,,,,,,low,high,,,,,,true,,,,,false,69717.39999997616,69717.09999996424,67593.011,67586.5,67609.951,69745.197,1,16,,
trial,html.Screen,4_2_0,2023-11-17T20:32:43.702Z,,,,0,0.8655167308525522,-0.9298580423306444,,,false,lh,2330.602999952316,response,-0.8809306963311293,1.2,-1.2,0.8614910030038974,1.2,-1.2,low,high,,ISIC_4603706.JPG,,ISIC_0013731.JPG,33,true,0.42000000000000026,hh,keypress(i),100,false,72076.09999996424,72075.79999995232,69728.534,69717.59999996424,69745.197,72097.528,1,16,3,
sequence,flow.Sequence,4_2,2023-11-17T20:32:43.702Z,,,,,,,,,,,2330.602999952316,completion,,,,,,,low,high,,,,,,true,,,,,false,72076.5,72075.79999995232,69728.534,69717.59999996424,69745.197,72097.528,1,16,,
trial,html.Screen,4_3_0,2023-11-17T20:32:52.334Z,,,,0,0.9873794329144926,-0.7991077882008257,,,true,lh,8610.471999999994,response,-1.27543269240326,1.2,-1.2,0.80839597388021,1.2,-1.2,low,high,,ISIC_0013498.JPG,,ISIC_3296136.JPG,33,true,0.42000000000000026,lh,keypress(e),100,false,80708.29999995232,80708,72080.943,72076.69999998808,72097.528,80739.571,1,16,4,
sequence,flow.Sequence,4_3,2023-11-17T20:32:52.334Z,,,,,,,,,,,8610.471999999994,completion,,,,,,,low,high,,,,,,true,,,,,false,80708.59999996424,80708,72080.943,72076.69999998808,72097.528,80739.571,1,16,,
trial,html.Screen,4_4_0,2023-11-17T20:33:01.811Z,,,,0,1.2254187569955004,1.174555235109734,,,true,ll,9445.929000000004,response,-0.9358725198038064,1.2,-1.2,-0.9938776615596308,1.2,-1.2,low,low,,ISIC_0027187.JPG,,ISIC_3365692.JPG,253,true,0.42000000000000026,ll,keypress(f),100,false,90185.59999996424,90185.5,80722.908,80708.79999995232,80739.571,90215.684,1,16,5,
sequence,flow.Sequence,4_4,2023-11-17T20:33:01.811Z,,,,,,,,,,,9445.929000000004,completion,,,,,,,low,low,,,,,,true,,,,,false,90185.79999995232,90185.5,80722.908,80708.69999998808,80739.571,90215.684,1,16,,
trial,html.Screen,4_5_0,2023-11-17T20:33:04.746Z,,,,0,1.101346104814838,1.1225813067473052,,,true,ll,2904.816000000006,response,-1.2318069697449794,1.2,-1.2,-1.1703576816778267,1.2,-1.2,low,low,,ISIC_8175453.JPG,,ISIC_2732573.JPG,26,true,0.15000000000000002,ll,keypress(f),100,false,93120.69999998808,93120.5,90199.17,90185.89999997616,90215.684,93152.092,1,16,6,
sequence,flow.Sequence,4_5,2023-11-17T20:33:04.746Z,,,,,,,,,,,2904.816000000006,completion,,,,,,,low,low,,,,,,true,,,,,false,93120.89999997616,93120.5,90199.17,90185.89999997616,90215.684,93152.092,1,16,,
trial,html.Screen,4_6_0,2023-11-17T20:33:07.492Z,,,,0,1.247270138097585,1.1704704713504994,,,true,ll,2714.107999988075,response,-1.2503149164557643,1.2,-1.2,-1.0796591227570405,1.2,-1.2,low,low,,ISIC_0065774.JPG,,ISIC_2466892.JPG,26,true,0.15000000000000002,ll,keypress(f),100,false,95866.39999997616,95866.19999998808,93135.502,93121.19999998808,93152.092,95888.241,1,16,7,
sequence,flow.Sequence,4_6,2023-11-17T20:33:07.492Z,,,,,,,,,,,2714.107999988075,completion,,,,,,,low,low,,,,,,true,,,,,false,95866.69999998808,95866.19999998808,93135.502,93121.19999998808,93152.092,95888.241,1,16,,
trial,html.Screen,4_7_0,2023-11-17T20:33:09.965Z,,,,0,1.1346217981791904,1.1555132168806113,,,true,ll,2451.2590000000055,response,-1.09666761087476,1.2,-1.2,-1.1072126870290426,1.2,-1.2,low,low,,ISIC_0032771.JPG,,ISIC_0071754.JPG,26,true,0.15000000000000002,ll,keypress(f),100,false,98339.59999996424,98339.5,95871.368,95866.79999995232,95888.241,98357.147,1,16,8,
sequence,flow.Sequence,4_7,2023-11-17T20:33:09.965Z,,,,,,,,,,,2451.2590000000055,completion,,,,,,,low,low,,,,,,true,,,,,false,98339.79999995232,98339.5,95871.368,95866.79999995232,95888.241,98357.147,1,16,,
trial,html.Screen,4_8_0,2023-11-17T20:33:17.256Z,,,,0,-0.991282840649944,0.9397921099839784,,,true,hl,7273.652999952319,response,0.7809949855371787,1.2,-1.2,-0.8493861117004308,1.2,-1.2,high,low,,ISIC_0000463.JPG,,ISIC_7450481.JPG,27,true,0.42000000000000026,hl,keypress(j),100,false,105631,105630.79999995232,98340.498,98340,98357.147,105647.746,1,16,9,
sequence,flow.Sequence,4_8,2023-11-17T20:33:17.257Z,,,,,,,,,,,7273.652999952319,completion,,,,,,,high,low,,,,,,true,,,,,false,105631.29999995232,105630.79999995232,98340.498,98340,98357.147,105647.746,1,16,,
trial,html.Screen,4_9_0,2023-11-17T20:33:19.277Z,,,,0,-0.991282840649944,0.9397921099839784,,,true,hl,2003.9539999880799,response,0.948927472020595,1.2,-1.2,-1.0660437155921598,1.2,-1.2,high,low,,ISIC_0000463.JPG,,ISIC_5808758.JPG,27,true,0.42000000000000026,hl,keypress(j),100,false,107652,107651.69999998808,105631.091,105631.5,105647.746,107683.32,1,16,10,
sequence,flow.Sequence,4_9,2023-11-17T20:33:19.278Z,,,,,,,,,,,2003.9539999880799,completion,,,,,,,high,low,,,,,,true,,,,,false,107652.29999995232,107651.69999998808,105631.091,105631.5,105647.746,107683.32,1,16,,
trial,html.Screen,4_10_0,2023-11-17T20:33:23.058Z,,,,0,-0.9454713230140772,0.9245167441969216,,,true,hl,3748.379999988072,response,1.0213365328004047,1.2,-1.2,-1.088524359911891,1.2,-1.2,high,low,,ISIC_9101055.JPG,,ISIC_5434229.JPG,27,true,0.42000000000000026,hl,keypress(j),100,false,111432,111431.69999998808,107666.444,107652.5,107683.32,111453.596,1,16,11,
sequence,flow.Sequence,4_10,2023-11-17T20:33:23.058Z,,,,,,,,,,,3748.379999988072,completion,,,,,,,high,low,,,,,,true,,,,,false,111432.19999998808,111431.69999998808,107666.444,107652.39999997616,107683.32,111453.596,1,16,,
trial,html.Screen,4_11_0,2023-11-17T20:33:25.407Z,,,,0,-0.8579451262594331,0.9633172970727744,,,false,hl,2327.7039999523113,response,0.8200962008791046,1.2,-1.2,-0.7936051642828523,1.2,-1.2,high,low,,ISIC_0067172.JPG,,ISIC_0027031.JPG,27,true,0.42000000000000026,hh,keypress(i),100,false,113781.5,113781.29999995232,111436.949,111432.39999997616,111453.596,113805.947,1,16,12,
sequence,flow.Sequence,4_11,2023-11-17T20:33:25.408Z,,,,,,,,,,,2327.7039999523113,completion,,,,,,,high,low,,,,,,true,,,,,false,113781.89999997616,113781.29999995232,111436.949,111432.29999995232,111453.596,113805.947,1,16,,
trial,html.Screen,4_12_0,2023-11-17T20:33:27.350Z,,,,0,-1.2706447584800626,-1.0903308007916603,,,true,hh,1918.252999988079,response,1.247270138097585,1.2,-1.2,1.1704704713504994,1.2,-1.2,high,high,,ISIC_9425937.JPG,,ISIC_0065774.JPG,245,true,0.3600000000000002,hh,keypress(i),100,false,115724.29999995232,115724.19999998808,113789.312,113782,113805.947,115741.355,1,16,13,
sequence,flow.Sequence,4_12,2023-11-17T20:33:27.350Z,,,,,,,,,,,1918.252999988079,completion,,,,,,,high,high,,,,,,true,,,,,false,115724.5,115724.19999998808,113789.312,113782,113805.947,115741.355,1,16,,
trial,html.Screen,4_13_0,2023-11-17T20:33:38.571Z,,,,0,-1.0717785279820962,-1.1267239445830604,,,true,hh,11204.044999976162,response,1.3188821610161792,1.2,-1.2,1.1433456871226346,1.2,-1.2,high,high,,ISIC_9948815.JPG,,ISIC_0030798.JPG,53,true,0.15000000000000002,hh,keypress(i),100,false,126945.5,126945.39999997616,115724.555,115724.5,115741.355,126969.137,1,16,14,
sequence,flow.Sequence,4_13,2023-11-17T20:33:38.571Z,,,,,,,,,,,11204.044999976162,completion,,,,,,,high,high,,,,,,true,,,,,false,126945.59999996424,126945.39999997616,115724.555,115724.5,115741.355,126969.137,1,16,,
trial,html.Screen,4_14_0,2023-11-17T20:33:41.634Z,,,,0,-1.1642596483638106,-1.109799097093339,,,true,hh,3039.162999952314,response,1.1033977063872138,1.2,-1.2,1.2513071571733083,1.2,-1.2,high,high,,ISIC_0765584.JPG,,ISIC_0025472.JPG,53,true,0.15000000000000002,hh,keypress(i),100,false,130008.39999997616,130008.29999995232,126952.425,126945.69999998808,126969.137,130038.881,1,16,15,
sequence,flow.Sequence,4_14,2023-11-17T20:33:41.634Z,,,,,,,,,,,3039.162999952314,completion,,,,,,,high,high,,,,,,true,,,,,false,130008.5,130008.29999995232,126952.425,126945.69999998808,126969.137,130038.881,1,16,,
trial,html.Screen,4_15_0,2023-11-17T20:33:44.777Z,,,,0,-1.131522954199764,-1.1047184491749509,,,true,hh,3112.518999976164,response,1.082730232773217,1.2,-1.2,1.2594580992890123,1.2,-1.2,high,high,,ISIC_1868816.JPG,,ISIC_0011933.JPG,53,true,0.15000000000000002,hh,keypress(i),100,false,133151.59999996424,133151.39999997616,130022.215,130008.59999996424,130038.881,133175.399,1,16,16,
sequence,flow.Sequence,4_15,2023-11-17T20:33:44.778Z,,,,,,,,,,,3112.518999976164,completion,,,,,,,high,high,,,,,,true,,,,,false,133151.79999995232,133151.39999997616,130022.215,130008.59999996424,130038.881,133175.399,1,16,,
demonstration_loop,flow.Loop,4,2023-11-17T20:33:44.778Z,,,,,,,,,,,71581.07999997615,completion,,,,,,,,,,,,,,true,,,,,false,133152,133151.39999997616,61537.029,61551.799999952316,61570.32,133175.399,1,16,,
practice_instructions,html.Screen,5,2023-11-17T20:33:59.754Z,,,,,,,,,,,14952.500999976153,response,,,,,,,,,,,,,,,,continue,keypress(Space),,,148128.5,148127.89999997616,133158.692,133152.09999996424,133175.399,148156.962,,,,
trial,html.Screen,6_0_0,2023-11-17T20:34:04.466Z,,,,1,0.7998855902596425,-1.1518579145663017,,,true,lh,4682.7379999880795,response,-1.0751036484083878,1.2,-1.2,1.143906455483852,1.2,-1.2,low,high,,ISIC_0025061.JPG,,ISIC_0064406.JPG,26,true,0.3600000000000002,lh,keypress(e),0,false,152839.79999995232,152839.69999998808,148123.286,148128.79999995232,148156.962,152844.99,1,40,1,
sequence,flow.Sequence,6_0,2023-11-17T20:34:04.466Z,,,,,,,,,,,4682.7379999880795,completion,,,,,,,low,high,,,,,,true,,,,,false,152839.89999997616,152839.69999998808,148123.286,148128.69999998808,148156.962,152844.99,1,40,,
trial,html.Screen,6_1_0,2023-11-17T20:34:20.456Z,,,,1,1.1164729501046406,1.2978935747992253,,,,,16016.162000000011,timeout,-1.451286336515085,1.2,-1.2,-1.1603052285758575,1.2,-1.2,low,low,,ISIC_0034166.JPG,,ISIC_0884550.JPG,253,true,0.42000000000000026,,,0,false,168828.29999995232,168828.19999998808,152828.346,152839.89999997616,152844.99,168861.152,1,40,2,
sequence,flow.Sequence,6_1,2023-11-17T20:34:20.456Z,,,,,,,,,,,15983.209999988088,completion,,,,,,,low,low,,,,,,true,,,,,false,168828.39999997616,168828.19999998808,152828.346,152839.89999997616,152844.99,168861.152,1,40,,
trial,html.Screen,6_2_0,2023-11-17T20:34:24.283Z,,,,1,-1.1388430156686884,-1.2700552354887775,,,true,hh,3794.6479999523144,response,1.185875658992962,1.2,-1.2,1.2635548590325487,1.2,-1.2,high,high,,ISIC_9939653.JPG,,ISIC_0011703.JPG,30,true,0.1,hh,keypress(i),0,false,172656,172655.79999995232,168844.625,168828.5,168861.152,172681.492,1,40,3,
sequence,flow.Sequence,6_2,2023-11-17T20:34:24.284Z,,,,,,,,,,,3794.6479999523144,completion,,,,,,,high,high,,,,,,true,,,,,false,172656.09999996424,172655.79999995232,168844.625,168828.39999997616,168861.152,172681.492,1,40,,
trial,html.Screen,6_3_0,2023-11-17T20:34:28.732Z,,,,1,0.991146183030456,-0.9949639823722534,,,true,lh,4423.008000000002,response,-1.011737552725394,1.2,-1.2,0.8500530224490773,1.2,-1.2,low,high,,ISIC_6342224.JPG,,ISIC_2998367.JPG,26,true,0.3600000000000002,lh,keypress(e),0,false,177104.69999998808,177104.5,172648.341,172656.29999995232,172681.492,177119.346,1,40,4,
sequence,flow.Sequence,6_3,2023-11-17T20:34:28.732Z,,,,,,,,,,,4423.008000000002,completion,,,,,,,low,high,,,,,,true,,,,,false,177105,177104.5,172648.341,172656.19999998808,172681.492,177119.346,1,40,,
trial,html.Screen,6_4_0,2023-11-17T20:34:33.524Z,,,,1,-0.8579451262594331,0.9633172970727744,,,false,hl,4776.753999964247,response,0.8092423703106274,1.2,-1.2,-1.1870093485714288,1.2,-1.2,high,low,,ISIC_0067172.JPG,,ISIC_8592235.JPG,27,true,0.42000000000000026,ll,keypress(f),0,false,181896.19999998808,181896.09999996424,177102.57,177105.19999998808,177119.346,181907.651,1,40,5,
sequence,flow.Sequence,6_4,2023-11-17T20:34:33.524Z,,,,,,,,,,,4776.753999964247,completion,,,,,,,high,low,,,,,,true,,,,,false,181896.29999995232,181896.09999996424,177102.57,177105.09999996424,177119.346,181907.651,1,40,,
trial,html.Screen,6_5_0,2023-11-17T20:34:39.908Z,,,,1,1.2750452296609045,1.1682369131232675,,,true,ll,6372.848999999987,response,-1.227935316040483,1.2,-1.2,-1.0211808747755002,1.2,-1.2,low,low,,ISIC_0066399.JPG,,ISIC_1211506.JPG,179,true,0.3600000000000002,ll,keypress(f),0,false,188280.59999996424,188280.5,181890.924,181896.39999997616,181907.651,188330.571,1,40,6,
sequence,flow.Sequence,6_5,2023-11-17T20:34:39.908Z,,,,,,,,,,,6372.848999999987,completion,,,,,,,low,low,,,,,,true,,,,,false,188281,188280.5,181890.924,181896.39999997616,181907.651,188330.571,1,40,,
trial,html.Screen,6_6_0,2023-11-17T20:34:42.772Z,,,,1,-0.8579451262594331,0.9633172970727744,,,false,hl,2813.628999988083,response,0.8947611078712571,1.2,-1.2,-0.8960964505004638,1.2,-1.2,high,low,,ISIC_0067172.JPG,,ISIC_6441128.JPG,27,true,0.42000000000000026,hh,keypress(i),0,false,191144.29999995232,191144.19999998808,188280.508,188281.09999996424,188330.571,191166.713,1,40,7,
sequence,flow.Sequence,6_6,2023-11-17T20:34:42.772Z,,,,,,,,,,,2813.628999988083,completion,,,,,,,high,low,,,,,,true,,,,,false,191144.5,191144.19999998808,188280.508,188281.09999996424,188330.571,191166.713,1,40,,
trial,html.Screen,6_7_0,2023-11-17T20:34:58.508Z,,,,1,-0.879102500583965,1.0933081951979773,,,false,hl,15713.787000000011,response,0.7833710010171356,1.2,-1.2,-0.9315588090336896,1.2,-1.2,high,low,,ISIC_0046223.JPG,,ISIC_3826102.JPG,27,true,0.42000000000000026,ll,keypress(f),0,false,206880.59999996424,206880.5,191133.32,191144.69999998808,191166.713,206899.103,1,40,8,
sequence,flow.Sequence,6_7,2023-11-17T20:34:58.508Z,,,,,,,,,,,15713.787000000011,completion,,,,,,,high,low,,,,,,true,,,,,false,206880.79999995232,206880.5,191133.32,191144.59999996424,191166.713,206899.103,1,40,,
trial,html.Screen,6_8_0,2023-11-17T20:35:03.780Z,,,,1,-1.2695509547992938,0.9641099676945492,,,false,hl,5253.396999999997,response,0.7998855902596425,1.2,-1.2,-1.1518579145663017,1.2,-1.2,high,low,,ISIC_0025841.JPG,,ISIC_0025061.JPG,27,true,0.42000000000000026,ll,keypress(f),0,false,212152.79999995232,212152.5,206865.419,206880.89999997616,206899.103,212172.236,1,40,9,
sequence,flow.Sequence,6_8,2023-11-17T20:35:03.780Z,,,,,,,,,,,5253.396999999997,completion,,,,,,,high,low,,,,,,true,,,,,false,212153,212152.5,206865.419,206880.89999997616,206899.103,212172.236,1,40,,
trial,html.Screen,6_9_0,2023-11-17T20:35:05.572Z,,,,1,-1.201100953917304,-1.1751492358160105,,,true,hh,1772.4639999880746,response,0.9152802917888962,1.2,-1.2,0.8414601987949015,1.2,-1.2,high,high,,ISIC_0647224.JPG,,ISIC_0060341.JPG,245,true,0.3600000000000002,hh,keypress(i),0,false,213945,213944.69999998808,212137.744,212153.29999995232,212172.236,213972.854,1,40,10,
sequence,flow.Sequence,6_9,2023-11-17T20:35:05.573Z,,,,,,,,,,,1772.4639999880746,completion,,,,,,,high,high,,,,,,true,,,,,false,213945.39999997616,213944.69999998808,212137.744,212153.19999998808,212172.236,213972.854,1,40,,
trial,html.Screen,6_10_0,2023-11-17T20:35:07.005Z,,,,1,0.8947611078712571,-0.8960964505004638,,,true,lh,1404.2459999642451,response,-1.1181734135756094,1.2,-1.2,0.944560381774994,1.2,-1.2,low,high,,ISIC_6441128.JPG,,ISIC_9688534.JPG,26,true,0.3600000000000002,lh,keypress(e),0,false,215377.39999997616,215377.09999996424,213939.457,213945.59999996424,213972.854,215390.932,1,40,11,
sequence,flow.Sequence,6_10,2023-11-17T20:35:07.005Z,,,,,,,,,,,1404.2459999642451,completion,,,,,,,low,high,,,,,,true,,,,,false,215377.79999995232,215377.09999996424,213939.457,213945.59999996424,213972.854,215390.932,1,40,,
trial,html.Screen,6_11_0,2023-11-17T20:35:09.707Z,,,,1,0.7871162143493278,-0.8429329800778957,,,false,lh,2688.9679999761574,response,-1.2331439637486756,1.2,-1.2,0.9691143900156988,1.2,-1.2,low,high,,ISIC_3439215.JPG,,ISIC_7877488.JPG,33,true,0.42000000000000026,ll,keypress(f),0,false,218080,218079.89999997616,215374.518,215378,215390.932,218093.67,1,40,12,
sequence,flow.Sequence,6_11,2023-11-17T20:35:09.708Z,,,,,,,,,,,2688.9679999761574,completion,,,,,,,low,high,,,,,,true,,,,,false,218080.19999998808,218079.89999997616,215374.518,215377.89999997616,215390.932,218093.67,1,40,,
trial,html.Screen,6_12_0,2023-11-17T20:35:12.796Z,,,,1,-0.8809306963311293,0.8614910030038974,,,true,hl,3074.6299999523035,response,0.8035152873995188,1.2,-1.2,-0.82868450251632,1.2,-1.2,high,low,,ISIC_0013731.JPG,,ISIC_0010671.JPG,27,true,0.42000000000000026,hl,keypress(j),0,false,221168.39999997616,221168.29999995232,218077.099,218080.19999998808,218093.67,221180.106,1,40,13,
sequence,flow.Sequence,6_12,2023-11-17T20:35:12.796Z,,,,,,,,,,,3074.6299999523035,completion,,,,,,,high,low,,,,,,true,,,,,false,221168.59999996424,221168.29999995232,218077.099,218080.19999998808,218093.67,221180.106,1,40,,
trial,html.Screen,6_13_0,2023-11-17T20:35:15.405Z,,,,1,1.1474466950560966,1.268445326285509,,,true,ll,2596.7939999761584,response,-1.200284020742371,1.2,-1.2,-1.0002918079433898,1.2,-1.2,low,low,,ISIC_5216586.JPG,,ISIC_0678758.JPG,179,true,0.3600000000000002,ll,keypress(f),0,false,223777.09999996424,223776.89999997616,221163.428,221168.79999995232,221180.106,223782.747,1,40,14,
sequence,flow.Sequence,6_13,2023-11-17T20:35:15.405Z,,,,,,,,,,,2596.7939999761584,completion,,,,,,,low,low,,,,,,true,,,,,false,223777.5,223776.89999997616,221163.428,221168.69999998808,221180.106,223782.747,1,40,,
trial,html.Screen,6_14_0,2023-11-17T20:35:18.637Z,,,,1,1.272699544571422,1.12917997553565,,,false,ll,3226.252999999997,response,-1.2012395086389958,1.2,-1.2,-1.0618985767073823,1.2,-1.2,low,low,,ISIC_0012057.JPG,,ISIC_9876004.JPG,26,true,0.15000000000000002,lh,keypress(e),0,false,227009.19999998808,227009,223766.191,223777.69999998808,223782.747,227035.947,1,40,15,
sequence,flow.Sequence,6_14,2023-11-17T20:35:18.637Z,,,,,,,,,,,3226.252999999997,completion,,,,,,,low,low,,,,,,true,,,,,false,227009.59999996424,227009,223766.191,223777.69999998808,223782.747,227035.947,1,40,,
trial,html.Screen,6_15_0,2023-11-17T20:35:21.844Z,,,,1,-0.8579451262594331,0.9633172970727744,,,false,hl,3180.1529999642516,response,0.8947611078712571,1.2,-1.2,-0.8960964505004638,1.2,-1.2,high,low,,ISIC_0067172.JPG,,ISIC_6441128.JPG,27,true,0.42000000000000026,hh,keypress(i),0,false,230216.19999998808,230216.09999996424,227002.717,227009.79999995232,227035.947,230222.433,1,40,16,
sequence,flow.Sequence,6_15,2023-11-17T20:35:21.845Z,,,,,,,,,,,3180.1529999642516,completion,,,,,,,high,low,,,,,,true,,,,,false,230216.29999995232,230216.09999996424,227002.717,227009.79999995232,227035.947,230222.433,1,40,,
trial,html.Screen,6_16_0,2023-11-17T20:35:25.669Z,,,,1,1.29026082950341,1.144672688339213,,,true,ll,3818.06700000001,response,-0.9749941933567357,1.2,-1.2,-1.4504933838974337,1.2,-1.2,low,low,,ISIC_0054317.JPG,,ISIC_8855102.JPG,179,true,0.3600000000000002,ll,keypress(f),0,false,234040.69999998808,234040.5,230205.886,230216.5,230222.433,234042.946,1,40,17,
sequence,flow.Sequence,6_16,2023-11-17T20:35:25.669Z,,,,,,,,,,,3818.06700000001,completion,,,,,,,low,low,,,,,,true,,,,,false,234040.89999997616,234040.5,230205.886,230216.39999997616,230222.433,234042.946,1,40,,
trial,html.Screen,6_17_0,2023-11-17T20:35:27.933Z,,,,1,1.29026082950341,1.144672688339213,,,false,ll,2261.453999976162,response,-1.2503149164557643,1.2,-1.2,-1.0796591227570405,1.2,-1.2,low,low,,ISIC_0054317.JPG,,ISIC_2466892.JPG,26,true,0.15000000000000002,lh,keypress(e),0,false,236304.5,236304.39999997616,234026.193,234041.09999996424,234042.946,236311.934,1,40,18,
sequence,flow.Sequence,6_17,2023-11-17T20:35:27.933Z,,,,,,,,,,,2261.453999976162,completion,,,,,,,low,low,,,,,,true,,,,,false,236304.79999995232,236304.39999997616,234026.193,234041,234042.946,236311.934,1,40,,
trial,html.Screen,6_18_0,2023-11-17T20:35:31.820Z,,,,1,1.2181031651370575,1.2158573487067317,,,true,ll,3879.865999952308,response,-1.3189473926989124,1.2,-1.2,-1.0770264364718942,1.2,-1.2,low,low,,ISIC_7242312.JPG,,ISIC_6093728.JPG,26,true,0.15000000000000002,ll,keypress(f),0,false,240192,240191.79999995232,236295.316,236304.89999997616,236311.934,240199.135,1,40,19,
sequence,flow.Sequence,6_18,2023-11-17T20:35:31.820Z,,,,,,,,,,,3879.865999952308,completion,,,,,,,low,low,,,,,,true,,,,,false,240192,240191.79999995232,236295.316,236304.89999997616,236311.934,240199.135,1,40,,
trial,html.Screen,6_19_0,2023-11-17T20:35:34.501Z,,,,1,-1.2724584600905462,-1.1411016103695344,,,true,hh,2673.3649999999907,response,1.2282561398079586,1.2,-1.2,1.210457198775374,1.2,-1.2,high,high,,ISIC_0059625.JPG,,ISIC_9141817.JPG,30,true,0.1,hh,keypress(i),0,false,242872.59999996424,242872.5,240182.525,240192.09999996424,240199.135,242885.275,1,40,20,
sequence,flow.Sequence,6_19,2023-11-17T20:35:34.501Z,,,,,,,,,,,2673.3649999999907,completion,,,,,,,high,high,,,,,,true,,,,,false,242872.89999997616,242872.5,240182.525,240192.09999996424,240199.135,242885.275,1,40,,
trial,html.Screen,6_20_0,2023-11-17T20:35:37.229Z,,,,1,1.2249552940807693,1.1723015116910682,,,true,ll,2715.024999952322,response,-1.3411179702686655,1.2,-1.2,-1.255103311449152,1.2,-1.2,low,low,,ISIC_0055251.JPG,,ISIC_5611010.JPG,26,true,0.15000000000000002,ll,keypress(f),0,false,245600.39999997616,245600.29999995232,242868.561,242873,242885.275,245637.91,1,40,21,
sequence,flow.Sequence,6_20,2023-11-17T20:35:37.229Z,,,,,,,,,,,2715.024999952322,completion,,,,,,,low,low,,,,,,true,,,,,false,245600.59999996424,245600.29999995232,242868.561,242873,242885.275,245637.91,1,40,,
trial,html.Screen,6_21_0,2023-11-17T20:35:39.941Z,,,,1,-1.0865333402803938,1.0542635307358266,,,false,hl,2674.7899999880756,response,0.8655167308525522,1.2,-1.2,-0.9298580423306444,1.2,-1.2,high,low,,ISIC_0034006.JPG,,ISIC_4603706.JPG,27,true,0.42000000000000026,lh,keypress(e),0,false,248313,248312.69999998808,245587.854,245600.69999998808,245637.91,248323.931,1,40,22,
sequence,flow.Sequence,6_21,2023-11-17T20:35:39.942Z,,,,,,,,,,,2674.7899999880756,completion,,,,,,,high,low,,,,,,true,,,,,false,248313.39999997616,248312.69999998808,245587.854,245600.69999998808,245637.91,248323.931,1,40,,
trial,html.Screen,6_22_0,2023-11-17T20:35:43.844Z,,,,1,1.2322060291690602,1.2686491386389651,,,true,ll,3892.168999964226,response,-1.35536833905707,1.2,-1.2,-1.0348000491894005,1.2,-1.2,low,low,,ISIC_0011697.JPG,,ISIC_2565154.JPG,179,true,0.3600000000000002,ll,keypress(f),0,false,252216.19999998808,252216.09999996424,248307.281,248313.5,248323.931,252227.837,1,40,23,
sequence,flow.Sequence,6_22,2023-11-17T20:35:43.845Z,,,,,,,,,,,3892.168999964226,completion,,,,,,,low,low,,,,,,true,,,,,false,252216.39999997616,252216.09999996424,248307.281,248313.5,248323.931,252227.837,1,40,,
trial,html.Screen,6_23_0,2023-11-17T20:35:49.669Z,,,,1,-1.0858641668099058,-1.1638942560200525,,,false,hh,5812.562999976159,response,1.185875658992962,1.2,-1.2,1.2635548590325487,1.2,-1.2,high,high,,ISIC_5439597.JPG,,ISIC_0011703.JPG,30,true,0.1,hl,keypress(j),0,false,258040.69999998808,258040.39999997616,252211.231,252216.5,252227.837,258050.333,1,40,24,
sequence,flow.Sequence,6_23,2023-11-17T20:35:49.669Z,,,,,,,,,,,5812.562999976159,completion,,,,,,,high,high,,,,,,true,,,,,false,258040.89999997616,258040.39999997616,252211.231,252216.39999997616,252227.837,258050.333,1,40,,
trial,html.Screen,6_24_0,2023-11-17T20:35:54.373Z,,,,1,-1.0789197754694622,-1.1654690806750023,,,false,hh,4693.866999988066,response,1.29026082950341,1.2,-1.2,1.144672688339213,1.2,-1.2,high,high,,ISIC_1576437.JPG,,ISIC_0054317.JPG,53,true,0.15000000000000002,hl,keypress(j),0,false,262744.2999999523,262744.1999999881,258033.584,258041,258050.333,262771.716,1,40,25,
sequence,flow.Sequence,6_24,2023-11-17T20:35:54.373Z,,,,,,,,,,,4693.866999988066,completion,,,,,,,high,high,,,,,,true,,,,,false,262744.59999996424,262744.1999999881,258033.584,258041,258050.333,262771.716,1,40,,
trial,html.Screen,6_25_0,2023-11-17T20:35:57.708Z,,,,1,0.809764442462202,-1.005337148078696,,,true,lh,3308.283999999985,response,-0.8979276789594874,1.2,-1.2,0.925374811016654,1.2,-1.2,low,high,,ISIC_2379379.JPG,,ISIC_4208361.JPG,26,true,0.3600000000000002,lh,keypress(e),0,false,266080.09999996424,266080,262738.277,262744.59999996424,262771.716,266091.832,1,40,26,
sequence,flow.Sequence,6_25,2023-11-17T20:35:57.708Z,,,,,,,,,,,3308.283999999985,completion,,,,,,,low,high,,,,,,true,,,,,false,266080.2999999523,266080,262738.277,262744.59999996424,262771.716,266091.832,1,40,,
trial,html.Screen,6_26_0,2023-11-17T20:36:00.205Z,,,,1,-1.2318069697449794,-1.1703576816778267,,,true,hh,2484.4679999523214,response,1.2952503640839694,1.2,-1.2,1.107234527385344,1.2,-1.2,high,high,,ISIC_2732573.JPG,,ISIC_0034134.JPG,339,true,0.42000000000000026,hh,keypress(i),0,false,268576.39999997616,268576.2999999523,266075.131,266080.39999997616,266091.832,268595.329,1,40,27,
sequence,flow.Sequence,6_26,2023-11-17T20:36:00.205Z,,,,,,,,,,,2484.4679999523214,completion,,,,,,,high,high,,,,,,true,,,,,false,268576.59999996424,268576.2999999523,266075.131,266080.39999997616,266091.832,268595.329,1,40,,
trial,html.Screen,6_27_0,2023-11-17T20:36:03.461Z,,,,1,-1.2695509547992938,0.9641099676945492,,,false,hl,3237.370999988052,response,0.8623414234919863,1.2,-1.2,-0.782830143980698,1.2,-1.2,high,low,,ISIC_0025841.JPG,,ISIC_2727016.JPG,27,true,0.42000000000000026,hh,keypress(i),0,false,271832.89999997616,271832.6999999881,268561.049,268576.59999996424,268595.329,271847.465,1,40,28,
sequence,flow.Sequence,6_27,2023-11-17T20:36:03.461Z,,,,,,,,,,,3237.370999988052,completion,,,,,,,high,low,,,,,,true,,,,,false,271833.1999999881,271832.6999999881,268561.049,268576.59999996424,268595.329,271847.465,1,40,,
trial,html.Screen,6_28_0,2023-11-17T20:36:06.829Z,,,,1,0.9235571765207048,-1.0008081653938232,,,true,lh,3353.2349999880535,response,-1.1181734135756094,1.2,-1.2,0.944560381774994,1.2,-1.2,low,high,,ISIC_8796632.JPG,,ISIC_9688534.JPG,26,true,0.3600000000000002,lh,keypress(e),0,false,275200.7999999523,275200.6999999881,271830.905,271833.39999997616,271847.465,275217.51,1,40,29,
sequence,flow.Sequence,6_28,2023-11-17T20:36:06.829Z,,,,,,,,,,,3353.2349999880535,completion,,,,,,,low,high,,,,,,true,,,,,false,275201.09999996424,275200.6999999881,271830.905,271833.39999997616,271847.465,275217.51,1,40,,
trial,html.Screen,6_29_0,2023-11-17T20:36:09.589Z,,,,1,1.2493792664822851,1.1336008561684745,,,true,ll,2742.789999952307,response,-0.8399241413841876,1.2,-1.2,-0.9343381610425818,1.2,-1.2,low,low,,ISIC_0061475.JPG,,ISIC_9203914.JPG,253,true,0.42000000000000026,ll,keypress(f),0,false,277960.39999997616,277960.2999999523,275200.905,275201.09999996424,275217.51,277970.285,1,40,30,
sequence,flow.Sequence,6_29,2023-11-17T20:36:09.589Z,,,,,,,,,,,2742.789999952307,completion,,,,,,,low,low,,,,,,true,,,,,false,277960.59999996424,277960.2999999523,275200.905,275201.09999996424,275217.51,277970.285,1,40,,
trial,html.Screen,6_30_0,2023-11-17T20:36:12.445Z,,,,1,-1.2012395086389958,-1.0618985767073823,,,true,hh,2846.514999952342,response,1.242586748440878,1.2,-1.2,1.1207933200172129,1.2,-1.2,high,high,,ISIC_9876004.JPG,,ISIC_0013073.JPG,30,true,0.1,hh,keypress(i),0,false,280817.1999999881,280816.7999999523,277953.707,277960.7999999523,277970.285,280839.766,1,40,31,
sequence,flow.Sequence,6_30,2023-11-17T20:36:12.446Z,,,,,,,,,,,2846.514999952342,completion,,,,,,,high,high,,,,,,true,,,,,false,280817.5,280816.7999999523,277953.707,277960.7999999523,277970.285,280839.766,1,40,,
trial,html.Screen,6_31_0,2023-11-17T20:36:15.413Z,,,,1,0.796241477082623,-0.9017449335975743,,,false,lh,2944.433999988076,response,-1.1181734135756094,1.2,-1.2,0.944560381774994,1.2,-1.2,low,high,,ISIC_8588033.JPG,,ISIC_9688534.JPG,26,true,0.3600000000000002,ll,keypress(f),0,false,283784.39999997616,283784.1999999881,280806.368,280817.6999999881,280839.766,283792.751,1,40,32,
sequence,flow.Sequence,6_31,2023-11-17T20:36:15.413Z,,,,,,,,,,,2944.433999988076,completion,,,,,,,low,high,,,,,,true,,,,,false,283784.5,283784.1999999881,280806.368,280817.59999996424,280839.766,283792.751,1,40,,
trial,html.Screen,6_32_0,2023-11-17T20:36:18.637Z,,,,1,-1.011737552725394,0.8500530224490773,,,false,hl,3216.148999976169,response,0.7809949855371787,1.2,-1.2,-0.8493861117004308,1.2,-1.2,high,low,,ISIC_2998367.JPG,,ISIC_7450481.JPG,27,true,0.42000000000000026,hh,keypress(i),0,false,287009.09999996424,287008.89999997616,283776.113,283784.5,283792.751,287012.701,1,40,33,
sequence,flow.Sequence,6_32,2023-11-17T20:36:18.638Z,,,,,,,,,,,3216.148999976169,completion,,,,,,,high,low,,,,,,true,,,,,false,287009.39999997616,287008.89999997616,283776.113,283784.5,283792.751,287012.701,1,40,,
trial,html.Screen,6_33_0,2023-11-17T20:36:22.261Z,,,,1,-1.131522954199764,-1.1047184491749509,,,false,hh,3619.298999999999,response,1.3698832213751586,1.2,-1.2,0.8401042149661134,1.2,-1.2,high,high,,ISIC_1868816.JPG,,ISIC_0046659.JPG,245,true,0.3600000000000002,hl,keypress(j),0,false,290632.09999996424,290632,286995.94,287009.6999999881,287012.701,290650.165,1,40,34,
sequence,flow.Sequence,6_33,2023-11-17T20:36:22.261Z,,,,,,,,,,,3619.298999999999,completion,,,,,,,high,high,,,,,,true,,,,,false,290632.1999999881,290632,286995.94,287009.5,287012.701,290650.165,1,40,,
trial,html.Screen,6_34_0,2023-11-17T20:36:25.269Z,,,,1,-1.2695509547992938,0.9641099676945492,,,true,hl,2990.234999976179,response,0.8092423703106274,1.2,-1.2,-1.1870093485714288,1.2,-1.2,high,low,,ISIC_0025841.JPG,,ISIC_8592235.JPG,27,true,0.42000000000000026,hl,keypress(j),0,false,293640.5,293640.39999997616,290616.333,290632.2999999523,290650.165,293652.653,1,40,35,
sequence,flow.Sequence,6_34,2023-11-17T20:36:25.270Z,,,,,,,,,,,2990.234999976179,completion,,,,,,,high,low,,,,,,true,,,,,false,293640.59999996424,293640.39999997616,290616.333,290632.2999999523,290650.165,293652.653,1,40,,
trial,html.Screen,6_35_0,2023-11-17T20:36:30.101Z,,,,1,-1.1598623261077452,-1.203269031614007,,,true,hh,4819.246999976167,response,0.8990371936242809,1.2,-1.2,0.9654850730344297,1.2,-1.2,high,high,,ISIC_0002639.JPG,,ISIC_0010308.JPG,245,true,0.3600000000000002,hh,keypress(i),0,false,298472,298471.89999997616,293636.11,293640.7999999523,293652.653,298490.806,1,40,36,
sequence,flow.Sequence,6_35,2023-11-17T20:36:30.101Z,,,,,,,,,,,4819.246999976167,completion,,,,,,,high,high,,,,,,true,,,,,false,298472.09999996424,298471.89999997616,293636.11,293640.7999999523,293652.653,298490.806,1,40,,
trial,html.Screen,6_36_0,2023-11-17T20:36:33.701Z,,,,1,0.8947611078712571,-0.8960964505004638,,,false,lh,3581.293999964255,response,-1.4747161152848791,1.2,-1.2,0.847048591307387,1.2,-1.2,low,high,,ISIC_6441128.JPG,,ISIC_0016092.JPG,26,true,0.3600000000000002,ll,keypress(f),0,false,302072.1999999881,302072.09999996424,298457.449,298472.1999999881,298490.806,302077.719,1,40,37,
sequence,flow.Sequence,6_36,2023-11-17T20:36:33.701Z,,,,,,,,,,,3581.293999964255,completion,,,,,,,low,high,,,,,,true,,,,,false,302072.2999999523,302072.09999996424,298457.449,298472.1999999881,298490.806,302077.719,1,40,,
trial,html.Screen,6_37_0,2023-11-17T20:36:35.710Z,,,,1,1.0213365328004047,-1.088524359911891,,,true,lh,2003.4809999880963,response,-0.9696118525781644,1.2,-1.2,0.9244148283103414,1.2,-1.2,low,high,,ISIC_5434229.JPG,,ISIC_7927525.JPG,33,true,0.42000000000000026,lh,keypress(e),0,false,304081.39999997616,304081.1999999881,302061.104,302072.2999999523,302077.719,304096.399,1,40,38,
sequence,flow.Sequence,6_37,2023-11-17T20:36:35.711Z,,,,,,,,,,,2003.4809999880963,completion,,,,,,,low,high,,,,,,true,,,,,false,304081.7999999523,304081.1999999881,302061.104,302072.2999999523,302077.719,304096.399,1,40,,
trial,html.Screen,6_38_0,2023-11-17T20:36:37.958Z,,,,1,1.276222161935671,-0.9657780821973284,,,true,lh,2232.2009999642614,response,-0.991282840649944,1.2,-1.2,0.9397921099839784,1.2,-1.2,low,high,,ISIC_6710411.JPG,,ISIC_0000463.JPG,33,true,0.42000000000000026,lh,keypress(e),0,false,306328.89999997616,306328.59999996424,304079.719,304081.89999997616,304096.399,306331.993,1,40,39,
sequence,flow.Sequence,6_38,2023-11-17T20:36:37.958Z,,,,,,,,,,,2232.2009999642614,completion,,,,,,,low,high,,,,,,true,,,,,false,306329.09999996424,306328.59999996424,304079.719,304081.89999997616,304096.399,306331.993,1,40,,
trial,html.Screen,6_39_0,2023-11-17T20:36:39.270Z,,,,1,-1.057008495826831,-1.1278122585028287,,,true,hh,1308.5069999999832,response,1.3898185622183723,1.2,-1.2,1.0059228250363343,1.2,-1.2,high,high,,ISIC_2819798.JPG,,ISIC_0033479.JPG,339,true,0.42000000000000026,hh,keypress(i),0,false,307640.6999999881,307640.5,306315.441,306329.2999999523,306331.993,307649.999,1,40,40,
sequence,flow.Sequence,6_39,2023-11-17T20:36:39.270Z,,,,,,,,,,,1308.5069999999832,completion,,,,,,,high,high,,,,,,true,,,,,false,307641,307640.5,306315.441,306329.1999999881,306331.993,307649.999,1,40,,
practice_loop,flow.Loop,6,2023-11-17T20:36:39.270Z,,,,,,,,,,,159483.538,completion,,,,,,,,,,,,,,true,,,,,false,307641.1999999881,307640.5,148123.286,148128.69999998808,148156.962,307649.999,1,40,,
stair_instructions,html.Screen,7,2023-11-17T20:36:41.989Z,,,,,,,,,,,2709.8009999523056,response,,,,,,,,,,,,,,,,continue,keypress(Space),,,310360.39999997616,310359.7999999523,307633.427,307641.1999999881,307649.999,310369.335,,,,
trial,html.Screen,8_0_0,2023-11-17T20:36:45.742Z,,,,2,0.039728379742806,-0.0228701131373768,,0.05,false,lh,3743.364999988058,response,-1.2075172235545184,1.2,-1.2,0.9116724966267612,1.2,-1.2,low,high,,ISIC_0054073.JPG,,ISIC_0024235.JPG,26,false,0.3600000000000002,hh,keypress(i),0,true,314112.89999997616,314112.6999999881,310352.715,310360.59999996424,310369.335,314123.17,1,40,1,
sequence,flow.Sequence,8_0,2023-11-17T20:36:45.742Z,,,,,,,,,,,3743.364999988058,completion,,,,,,,low,high,,,,,,false,,,,,true,314113.1999999881,314112.6999999881,310352.715,310360.59999996424,310369.335,314123.17,1,40,,
trial,html.Screen,8_1_0,2023-11-17T20:36:50.302Z,,,,2,0.0456515796420274,-0.0273567130070961,,0.05,false,ll,4549.729999976174,response,-1.2503149164557643,1.15,-1.2,-1.0796591227570405,1.15,-1.15,low,low,,ISIC_0068610.JPG,,ISIC_2466892.JPG,26,false,0.13,lh,keypress(e),0,true,318673.09999996424,318672.89999997616,314106.534,314113.2999999523,314123.17,318694.376,1,40,2,
sequence,flow.Sequence,8_1,2023-11-17T20:36:50.302Z,,,,,,,,,,,4549.729999976174,completion,,,,,,,low,low,,,,,,false,,,,,true,318673.5,318672.89999997616,314106.534,314113.1999999881,314123.17,318694.376,1,40,,
trial,html.Screen,8_2_0,2023-11-17T20:36:56.429Z,,,,2,-0.013431314305098,0.0140597582944232,,0.05,false,lh,6105.82399998809,response,-1.0751036484083878,1.15,-1.15,1.143906455483852,1.15,-1.15,low,high,,ISIC_0069617.JPG,,ISIC_0064406.JPG,25,false,0.31000000000000016,ll,keypress(f),0,true,324800.1999999881,324800.1999999881,318661.06,318673.59999996424,318694.376,324817.222,1,40,3,
sequence,flow.Sequence,8_2,2023-11-17T20:36:56.429Z,,,,,,,,,,,6105.82399998809,completion,,,,,,,low,high,,,,,,false,,,,,true,324800.39999997616,324800.1999999881,318661.06,318673.59999996424,318694.376,324817.222,1,40,,
trial,html.Screen,8_3_0,2023-11-17T20:37:01.957Z,,,,2,-0.000047919190197942736,-0.0462652940855003,,0.05,true,ll,5511.077999952307,response,-1.0406934755278734,1.15,-1.112709282432076,-1.2406966347110775,1.15,-1.15,low,low,,ISIC_0011507.JPG,,ISIC_2687641.JPG,30,false,0.13,ll,keypress(f),0,true,330328.39999997616,330328.2999999523,324800.437,324800.5,324817.222,330339.295,1,40,4,
sequence,flow.Sequence,8_3,2023-11-17T20:37:01.957Z,,,,,,,,,,,5511.077999952307,completion,,,,,,,low,low,,,,,,false,,,,,true,330328.59999996424,330328.2999999523,324800.437,324800.5,324817.222,330339.295,1,40,,
trial,html.Screen,8_4_0,2023-11-17T20:37:04.677Z,,,,2,0.0107854985447517,0.0478010417136109,,0.05,true,lh,2708.8049999642535,response,-1.011737552725394,1.15,-1.112709282432076,0.8500530224490773,1.15,-1.15,low,high,,ISIC_0010500.JPG,,ISIC_2998367.JPG,26,false,0.30000000000000016,lh,keypress(e),0,true,333048.1999999881,333048.09999996424,330322.578,330328.6999999881,330339.295,333058.999,1,40,5,
sequence,flow.Sequence,8_4,2023-11-17T20:37:04.677Z,,,,,,,,,,,2708.8049999642535,completion,,,,,,,low,high,,,,,,false,,,,,true,333048.39999997616,333048.09999996424,330322.578,330328.6999999881,330339.295,333058.999,1,40,,
trial,html.Screen,8_5_0,2023-11-17T20:37:07.869Z,,,,2,0.0363437082783146,0.0333332186217051,,0.05,false,hh,3181.4009999761474,response,1.0698162624196283,1.15,-1.0627092824320759,1.219634566983089,1.15,-1.15,high,high,,ISIC_3314555.JPG,,ISIC_0030552.JPG,27,false,0.1,lh,keypress(e),0,true,336240.5,336240.39999997616,333042.248,333048.39999997616,333058.999,336245.256,1,40,6,
sequence,flow.Sequence,8_5,2023-11-17T20:37:07.870Z,,,,,,,,,,,3181.4009999761474,completion,,,,,,,high,high,,,,,,false,,,,,true,336240.6999999881,336240.39999997616,333042.248,333048.39999997616,333058.999,336245.256,1,40,,
trial,html.Screen,8_6_0,2023-11-17T20:37:11.437Z,,,,2,-0.013431314305098,0.0140597582944232,,0.05,true,hl,3563.143999976164,response,1.0264463986917702,1.15,-1.0627092824320759,-1.2804054832904397,0.9848437947160831,-1.15,high,low,,ISIC_0069617.JPG,,ISIC_7889838.JPG,27,false,0.3700000000000002,hl,keypress(j),0,true,339808.5,339808.39999997616,336228.658,336240.6999999881,336245.256,339815.505,1,40,7,
sequence,flow.Sequence,8_6,2023-11-17T20:37:11.438Z,,,,,,,,,,,3563.143999976164,completion,,,,,,,high,low,,,,,,false,,,,,true,339808.6999999881,339808.39999997616,336228.658,336240.6999999881,336245.256,339815.505,1,40,,
trial,html.Screen,8_7_0,2023-11-17T20:37:15.038Z,,,,2,0.0324770283903853,0.0249968632204382,,0.05,false,hl,3593.0949999642326,response,0.8655167308525522,1.15,-1.0627092824320759,-0.9298580423306444,0.9848437947160831,-1.0999999999999999,high,low,,ISIC_7266462.JPG,,ISIC_4603706.JPG,25,false,0.3600000000000002,lh,keypress(e),0,true,343408.7999999523,343408.59999996424,339798.947,339808.7999999523,339815.505,343419.123,1,40,8,
sequence,flow.Sequence,8_7,2023-11-17T20:37:15.038Z,,,,,,,,,,,3593.0949999642326,completion,,,,,,,high,low,,,,,,false,,,,,true,343409,343408.59999996424,339798.947,339808.7999999523,339815.505,343419.123,1,40,,
trial,html.Screen,8_8_0,2023-11-17T20:37:19.085Z,,,,2,-0.0409338693593207,0.0072462710499874,,0.05,false,hl,4037.176999952295,response,1.4092385398614515,1.15,-1.0627092824320759,-1.3046237992197836,0.9848437947160831,-1.15,high,low,,ISIC_3608788.JPG,,ISIC_7254359.JPG,27,false,0.3700000000000002,hh,keypress(i),0,true,347456.39999997616,347456.2999999523,343402.605,343409.09999996424,343419.123,347473.322,1,40,9,
sequence,flow.Sequence,8_8,2023-11-17T20:37:19.085Z,,,,,,,,,,,4037.176999952295,completion,,,,,,,high,low,,,,,,false,,,,,true,347456.59999996424,347456.2999999523,343402.605,343409,343419.123,347473.322,1,40,,
trial,html.Screen,8_9_0,2023-11-17T20:37:23.990Z,,,,2,0.0324770283903853,0.0249968632204382,,0.05,true,lh,4887.3779999880935,response,-1.0026266089287914,1.15,-1.0627092824320759,1.0913275913920335,0.9848437947160831,-1.15,low,high,,ISIC_7266462.JPG,,ISIC_0033520.JPG,27,false,0.22000000000000008,lh,keypress(e),0,true,352360.89999997616,352360.6999999881,347456.543,347456.6999999881,347473.322,352378.055,1,40,10,
sequence,flow.Sequence,8_9,2023-11-17T20:37:23.991Z,,,,,,,,,,,4887.3779999880935,completion,,,,,,,low,high,,,,,,false,,,,,true,352361.1999999881,352360.6999999881,347456.543,347456.59999996424,347473.322,352378.055,1,40,,
trial,html.Screen,8_10_0,2023-11-17T20:37:26.566Z,,,,2,-0.0348234368746005,0.0236866303880924,,0.05,true,hl,2558.544999964244,response,1.4092385398614515,1.15,-1.0627092824320759,-1.3046237992197836,0.9848437947160831,-1.15,high,low,,ISIC_0011099.JPG,,ISIC_7254359.JPG,27,false,0.3700000000000002,hl,keypress(j),0,true,354936.6999999881,354936.59999996424,352361.345,352361.1999999881,352378.055,354947.314,1,40,11,
sequence,flow.Sequence,8_10,2023-11-17T20:37:26.566Z,,,,,,,,,,,2558.544999964244,completion,,,,,,,high,low,,,,,,false,,,,,true,354936.89999997616,354936.59999996424,352361.345,352361.1999999881,352378.055,354947.314,1,40,,
trial,html.Screen,8_11_0,2023-11-17T20:37:30.326Z,,,,2,0.0050679133050021,-0.0009714874637896,,0.05,false,lh,3748.9859999523032,response,-0.879102500583965,1.0999999999999999,-1.0627092824320759,1.0933081951979773,0.9848437947160831,-1.15,low,high,,ISIC_9848743.JPG,,ISIC_0046223.JPG,27,false,0.22000000000000008,hl,keypress(j),0,true,358696.39999997616,358696.2999999523,354930.557,354937,354947.314,358701.065,1,40,12,
sequence,flow.Sequence,8_11,2023-11-17T20:37:30.326Z,,,,,,,,,,,3748.9859999523032,completion,,,,,,,low,high,,,,,,false,,,,,true,358696.5,358696.2999999523,354930.557,354937,354947.314,358701.065,1,40,,
trial,html.Screen,8_12_0,2023-11-17T20:37:34.190Z,,,,2,0.0217698886732706,-0.0410870915161425,,0.05,false,hl,3859.234999952314,response,0.8947611078712571,1.0999999999999999,-1.112709282432076,-0.8960964505004638,1.0348437947160831,-1.15,high,low,,ISIC_0072173.JPG,,ISIC_6441128.JPG,28,false,0.3600000000000002,lh,keypress(e),0,true,362560.39999997616,362560.2999999523,358684.556,358696.59999996424,358701.065,362571.76,1,40,13,
sequence,flow.Sequence,8_12,2023-11-17T20:37:34.190Z,,,,,,,,,,,3859.234999952314,completion,,,,,,,high,low,,,,,,false,,,,,true,362560.5,362560.2999999523,358684.556,358696.59999996424,358701.065,362571.76,1,40,,
trial,html.Screen,8_13_0,2023-11-17T20:37:36.542Z,,,,2,0.0027483411352856,0.0100996915276271,,0.05,true,hh,2340.4399999880698,response,1.188743606919222,1.15,-1.112709282432076,1.0980226451001782,1.0348437947160831,-1.15,high,high,,ISIC_7364041.JPG,,ISIC_0060481.JPG,30,false,0.1,hh,keypress(i),0,true,364912.2999999523,364912.1999999881,362554.853,362560.5,362571.76,364923.98,1,40,14,
sequence,flow.Sequence,8_13,2023-11-17T20:37:36.542Z,,,,,,,,,,,2340.4399999880698,completion,,,,,,,high,high,,,,,,false,,,,,true,364912.5,364912.1999999881,362554.853,362560.5,362571.76,364923.98,1,40,,
trial,html.Screen,8_14_0,2023-11-17T20:37:40.302Z,,,,2,-0.013431314305098,0.0140597582944232,,0.05,false,hl,3748.119999964256,response,1.0115965332688306,1.15,-1.112709282432076,-0.8282633603842442,1.0348437947160831,-1.15,high,low,,ISIC_0069617.JPG,,ISIC_1069587.JPG,27,false,0.3700000000000002,lh,keypress(e),0,true,368672.1999999881,368672.09999996424,364907.438,364912.5,364923.98,368677.728,1,40,15,
sequence,flow.Sequence,8_14,2023-11-17T20:37:40.302Z,,,,,,,,,,,3748.119999964256,completion,,,,,,,high,low,,,,,,false,,,,,true,368672.39999997616,368672.09999996424,364907.438,364912.5,364923.98,368677.728,1,40,,
trial,html.Screen,8_15_0,2023-11-17T20:37:42.662Z,,,,2,,-0.0264544974620926,,0.05,true,hh,2354.9719999880763,response,1.152619213055059,1.15,-1.112709282432076,1.1117876838408909,1.0348437947160831,-1.15,high,high,,ISIC_0056991.JPG,,ISIC_0061915.JPG,30,false,0.1,hh,keypress(i),0,true,371032.89999997616,371032.6999999881,368661.047,368672.39999997616,368677.728,371046.789,1,40,16,
sequence,flow.Sequence,8_15,2023-11-17T20:37:42.663Z,,,,,,,,,,,2354.9719999880763,completion,,,,,,,high,high,,,,,,false,,,,,true,371033.1999999881,371032.6999999881,368661.047,368672.39999997616,368677.728,371046.789,1,40,,
trial,html.Screen,8_16_0,2023-11-17T20:37:46.397Z,,,,2,0.0107854985447517,0.0478010417136109,,0.05,false,hh,3721.0109999523265,response,1.1682648288591504,1.15,-1.112709282432076,1.004142980655507,1.0822034484479748,-1.15,high,high,,ISIC_0010500.JPG,,ISIC_3936223.JPG,32,false,0.1,hl,keypress(j),0,true,374768,374767.7999999523,371030.207,371033.2999999523,371046.789,374783.846,1,40,17,
sequence,flow.Sequence,8_16,2023-11-17T20:37:46.398Z,,,,,,,,,,,3721.0109999523265,completion,,,,,,,high,high,,,,,,false,,,,,true,374768.09999996424,374767.7999999523,371030.207,371033.1999999881,371046.789,374783.846,1,40,,
trial,html.Screen,8_17_0,2023-11-17T20:37:49.470Z,,,,2,-0.0102460616775615,0.0309670599545429,,0.05,false,ll,3056.8539999880595,response,-1.0959058628476686,1.1104420209571046,-1.112709282432076,-1.1684835186766898,1.1322034484479748,-1.15,low,low,,ISIC_0072041.JPG,,ISIC_5920470.JPG,30,false,0.13,lh,keypress(e),0,true,377840.89999997616,377840.6999999881,374767.105,374768.1999999881,374783.846,377853.593,1,40,18,
sequence,flow.Sequence,8_17,2023-11-17T20:37:49.471Z,,,,,,,,,,,3056.8539999880595,completion,,,,,,,low,low,,,,,,false,,,,,true,377841,377840.6999999881,374767.105,374768.1999999881,374783.846,377853.593,1,40,,
trial,html.Screen,8_18_0,2023-11-17T20:37:51.479Z,,,,2,0.039728379742806,-0.0228701131373768,,0.05,false,lh,1995.2069999523228,response,-1.2695509547992938,1.1104420209571046,-1.112709282432076,0.9641099676945492,1.1322034484479748,-1.15,low,high,,ISIC_0054073.JPG,,ISIC_0025841.JPG,25,false,0.29000000000000015,ll,keypress(f),0,true,379849.09999996424,379848.7999999523,377837.078,377841.1999999881,377853.593,379855.613,1,40,19,
sequence,flow.Sequence,8_18,2023-11-17T20:37:51.479Z,,,,,,,,,,,1995.2069999523228,completion,,,,,,,low,high,,,,,,false,,,,,true,379849.39999997616,379848.7999999523,377837.078,377841.1999999881,377853.593,379855.613,1,40,,
trial,html.Screen,8_19_0,2023-11-17T20:37:54.854Z,,,,2,0.007397293189458,0.0174716772037504,,0.05,true,ll,3369.086999988067,response,-1.072671714258808,1.1104420209571046,-1.1327284088234812,-1.0208498389771272,1.1822034484479749,-1.15,low,low,,ISIC_0056226.JPG,,ISIC_5218773.JPG,28,false,0.13,ll,keypress(f),0,true,383224.89999997616,383224.6999999881,379838.98,379849.59999996424,379855.613,383242.454,1,40,20,
sequence,flow.Sequence,8_19,2023-11-17T20:37:54.855Z,,,,,,,,,,,3369.086999988067,completion,,,,,,,low,low,,,,,,false,,,,,true,383225.09999996424,383224.6999999881,379838.98,379849.5,379855.613,383242.454,1,40,,
trial,html.Screen,8_20_0,2023-11-17T20:37:59.494Z,,,,2,0.0116094682222121,-0.0258434522530318,,0.05,false,ll,4621.845999952289,response,-1.0858641668099058,1.1104420209571046,-1.1327284088234812,-1.1638942560200525,1.1822034484479749,-1.15,low,low,,ISIC_9239632.JPG,,ISIC_5439597.JPG,28,false,0.13,hl,keypress(j),0,true,387864.5,387864.2999999523,383209.115,383225.2999999523,383242.454,387880.27,1,40,21,
sequence,flow.Sequence,8_20,2023-11-17T20:37:59.494Z,,,,,,,,,,,4621.845999952289,completion,,,,,,,low,low,,,,,,false,,,,,true,387864.6999999881,387864.2999999523,383209.115,383225.1999999881,383242.454,387880.27,1,40,,
trial,html.Screen,8_21_0,2023-11-17T20:38:01.742Z,,,,2,0.0107854985447517,0.0478010417136109,,0.05,false,lh,2232.2299999999814,response,-0.8487429103619056,1.1104420209571046,-1.1827284088234813,0.9778257804233036,1.1822034484479749,-1.0423720474985898,low,high,,ISIC_0010500.JPG,,ISIC_4554863.JPG,26,false,0.3400000000000002,hh,keypress(i),0,true,390112.59999996424,390112.5,387863.525,387864.6999999881,387880.27,390115.846,1,40,22,
sequence,flow.Sequence,8_21,2023-11-17T20:38:01.742Z,,,,,,,,,,,2232.2299999999814,completion,,,,,,,low,high,,,,,,false,,,,,true,390112.89999997616,390112.5,387863.525,387864.6999999881,387880.27,390115.846,1,40,,
trial,html.Screen,8_22_0,2023-11-17T20:38:03.734Z,,,,2,0.0116094682222121,-0.0258434522530318,,0.05,true,ll,1988.3539999880595,response,-1.1210325063849345,1.1104420209571046,-1.1827284088234813,-1.1498648320956202,1.1822034484479749,-1.0423720474985898,low,low,,ISIC_9239632.JPG,,ISIC_0032162.JPG,25,false,0.11,ll,keypress(f),0,true,392104.1999999881,392104.1999999881,390099.407,390113.09999996424,390115.846,392118.105,1,40,23,
sequence,flow.Sequence,8_22,2023-11-17T20:38:03.734Z,,,,,,,,,,,1988.3539999880595,completion,,,,,,,low,low,,,,,,false,,,,,true,392104.39999997616,392104.1999999881,390099.407,390113,390115.846,392118.105,1,40,,
trial,html.Screen,8_23_0,2023-11-17T20:38:06.198Z,,,,2,-0.0112310719058792,0.0469047359904117,,0.05,false,ll,2449.7949999761768,response,-1.241406480986552,1.1104420209571046,-1.1827284088234813,-1.081912821786771,1.1822034484479749,-1.0423720474985898,low,low,,ISIC_0068184.JPG,,ISIC_4223155.JPG,25,false,0.11,lh,keypress(e),0,true,394568,394567.89999997616,392101.376,392104.39999997616,392118.105,394570.305,1,40,24,
sequence,flow.Sequence,8_23,2023-11-17T20:38:06.198Z,,,,,,,,,,,2449.7949999761768,completion,,,,,,,low,low,,,,,,false,,,,,true,394568.09999996424,394567.89999997616,392101.376,392104.39999997616,392118.105,394570.305,1,40,,
trial,html.Screen,8_24_0,2023-11-17T20:38:10.174Z,,,,2,0.0456515796420274,-0.0273567130070961,,0.05,false,hh,3974.094999976165,response,1.1383813631375823,1.1104420209571046,-1.1456356565410861,1.1319312220332556,1.1822034484479749,-1.0923720474985898,high,high,,ISIC_0068610.JPG,,ISIC_6227397.JPG,29,false,0.1,ll,keypress(f),0,true,398544.5,398544.39999997616,394553.773,394568.1999999881,394570.305,398557.634,1,40,25,
sequence,flow.Sequence,8_24,2023-11-17T20:38:10.174Z,,,,,,,,,,,3974.094999976165,completion,,,,,,,high,high,,,,,,false,,,,,true,398544.6999999881,398544.39999997616,394553.773,394568.09999996424,394570.305,398557.634,1,40,,
trial,html.Screen,8_25_0,2023-11-17T20:38:12.590Z,,,,2,-0.0112310719058792,0.0469047359904117,,0.05,true,hl,2402.6659999522963,response,0.8035152873995188,1.1604420209571047,-1.1456356565410861,-0.82868450251632,1.1822034484479749,-1.0923720474985898,high,low,,ISIC_0068184.JPG,,ISIC_0010671.JPG,26,false,0.3700000000000002,hl,keypress(j),0,true,400960.39999997616,400960.2999999523,398541.12,398544.7999999523,398557.634,400976.732,1,40,26,
sequence,flow.Sequence,8_25,2023-11-17T20:38:12.590Z,,,,,,,,,,,2402.6659999522963,completion,,,,,,,high,low,,,,,,false,,,,,true,400960.39999997616,400960.2999999523,398541.12,398544.7999999523,398557.634,400976.732,1,40,,
trial,html.Screen,8_26_0,2023-11-17T20:38:16.558Z,,,,2,0.0069555338059566,-0.0310100918136373,,0.05,true,lh,3951.767999999982,response,-0.8809306963311293,1.1604420209571047,-1.1456356565410861,0.8614910030038974,1.1822034484479749,-1.0923720474985898,low,high,,ISIC_0011177.JPG,,ISIC_0013731.JPG,25,false,0.3300000000000002,lh,keypress(e),0,true,404928.59999996424,404928.5,400960.209,400960.5,400976.732,404930.679,1,40,27,
sequence,flow.Sequence,8_26,2023-11-17T20:38:16.558Z,,,,,,,,,,,3951.767999999982,completion,,,,,,,low,high,,,,,,false,,,,,true,404928.6999999881,404928.5,400960.209,400960.5,400976.732,404930.679,1,40,,
trial,html.Screen,8_27_0,2023-11-17T20:38:18.670Z,,,,2,-0.0245376145053177,0.0436993426328401,,0.05,false,hl,2109.7209999761544,response,1.2429840165564423,1.1604420209571047,-1.1456356565410861,-0.7308963943423881,1.1822034484479749,-1.0923720474985898,high,low,,ISIC_0056444.JPG,,ISIC_1264576.JPG,26,false,0.3700000000000002,hh,keypress(i),0,true,407040.5,407040.39999997616,404913.968,404928.7999999523,404930.679,407049.478,1,40,28,
sequence,flow.Sequence,8_27,2023-11-17T20:38:18.670Z,,,,,,,,,,,2109.7209999761544,completion,,,,,,,high,low,,,,,,false,,,,,true,407040.6999999881,407040.39999997616,404913.968,404928.7999999523,404930.679,407049.478,1,40,,
trial,html.Screen,8_28_0,2023-11-17T20:38:21.279Z,,,,2,-0.013431314305098,0.0140597582944232,,0.05,false,hh,2599.521999999997,response,1.0215600067367807,1.00223750978017,-1.1456356565410861,1.1866489745604327,1.1822034484479749,-1.14237204749859,high,high,,ISIC_0069617.JPG,,ISIC_0000173.JPG,27,false,0.1,lh,keypress(e),0,true,409649.09999996424,409649,407032.906,407040.7999999523,407049.478,409652.071,1,40,29,
sequence,flow.Sequence,8_28,2023-11-17T20:38:21.279Z,,,,,,,,,,,2599.521999999997,completion,,,,,,,high,high,,,,,,false,,,,,true,409649.2999999523,409649,407032.906,407040.7999999523,407049.478,409652.071,1,40,,
trial,html.Screen,8_29_0,2023-11-17T20:38:24.023Z,,,,2,-0.0097091270150747,0.0417921315885292,,0.05,true,ll,2740.4290000000037,response,-1.1388430156686884,1.05223750978017,-1.1456356565410861,-1.2700552354887775,0.9740699887821649,-1.14237204749859,low,low,,ISIC_3967213.JPG,,ISIC_9939653.JPG,33,false,0.13,ll,keypress(f),0,true,412392.7999999523,412392.5,409635.354,409649.39999997616,409652.071,412404.867,1,40,30,
sequence,flow.Sequence,8_29,2023-11-17T20:38:24.023Z,,,,,,,,,,,2740.4290000000037,completion,,,,,,,low,low,,,,,,false,,,,,true,412393,412392.5,409635.354,409649.39999997616,409652.071,412404.867,1,40,,
trial,html.Screen,8_30_0,2023-11-17T20:38:25.942Z,,,,2,-0.0277178575053843,0.0395587463147856,,0.05,true,hh,1907.2329999642097,response,1.120374872349494,1.05223750978017,-1.154449125578733,0.9666765976151852,0.9740699887821649,-1.14237204749859,high,high,,ISIC_0010807.JPG,,ISIC_0011948.JPG,27,false,0.1,hh,keypress(i),0,true,414312.1999999881,414312.09999996424,412388.12,412393.09999996424,412404.867,414323.387,1,40,31,
sequence,flow.Sequence,8_30,2023-11-17T20:38:25.942Z,,,,,,,,,,,1907.2329999642097,completion,,,,,,,high,high,,,,,,false,,,,,true,414312.1999999881,414312.09999996424,412388.12,412393.09999996424,412404.867,414323.387,1,40,,
trial,html.Screen,8_31_0,2023-11-17T20:38:28.343Z,,,,2,0.0217698886732706,-0.0410870915161425,,0.05,true,hl,2389.312999988091,response,0.7870237732709365,1.05223750978017,-1.154449125578733,-0.9172955251119376,0.9740699887821649,-1.14237204749859,high,low,,ISIC_0072173.JPG,,ISIC_0057716.JPG,31,false,0.3500000000000002,hl,keypress(j),0,true,416712.89999997616,416712.6999999881,414306.854,414312.2999999523,414323.387,416725.776,1,40,32,
sequence,flow.Sequence,8_31,2023-11-17T20:38:28.343Z,,,,,,,,,,,2389.312999988091,completion,,,,,,,high,low,,,,,,false,,,,,true,416713.09999996424,416712.6999999881,414306.854,414312.2999999523,414323.387,416725.776,1,40,,
trial,html.Screen,8_32_0,2023-11-17T20:38:30.046Z,,,,2,-0.0112310719058792,0.0469047359904117,,0.05,true,hh,1690.4239999880665,response,1.0351900568634125,1.00223750978017,-1.154449125578733,1.060448537312289,0.9740699887821649,-1.0923720474985898,high,high,,ISIC_0068184.JPG,,ISIC_4377208.JPG,42,false,0.1,hh,keypress(i),0,true,418416.1999999881,418416.1999999881,416709.123,416713.1999999881,416725.776,418427.522,1,40,33,
sequence,flow.Sequence,8_32,2023-11-17T20:38:30.047Z,,,,,,,,,,,1690.4239999880665,completion,,,,,,,high,high,,,,,,false,,,,,true,418416.39999997616,418416.1999999881,416709.123,416713.1999999881,416725.776,418427.522,1,40,,
trial,html.Screen,8_33_0,2023-11-17T20:38:31.670Z,,,,2,0.0070725527271049,0.0049995141077508,,0.05,false,lh,1612.777999952319,response,-0.991282840649944,1.00223750978017,-1.154449125578733,0.9397921099839784,0.9978192970878508,-1.0923720474985898,low,high,,ISIC_6124481.JPG,,ISIC_0000463.JPG,26,false,0.28000000000000014,hl,keypress(j),0,true,420040.39999997616,420040.2999999523,418410.836,418416.5,418427.522,420045.801,1,40,34,
sequence,flow.Sequence,8_33,2023-11-17T20:38:31.671Z,,,,,,,,,,,1612.777999952319,completion,,,,,,,low,high,,,,,,false,,,,,true,420040.39999997616,420040.2999999523,418410.836,418416.5,418427.522,420045.801,1,40,,
trial,html.Screen,8_34_0,2023-11-17T20:38:34.207Z,,,,2,-0.000047919190197942736,-0.0462652940855003,,0.05,false,hl,2530.6990000000224,response,1.0213365328004047,1.00223750978017,-1.154449125578733,-1.088524359911891,1.0478192970878508,-1.0923720474985898,high,low,,ISIC_0011507.JPG,,ISIC_5434229.JPG,31,false,0.30000000000000016,lh,keypress(e),0,true,422576.5,422576.5,420029.205,420040.5,420045.801,422581.669,1,40,35,
sequence,flow.Sequence,8_34,2023-11-17T20:38:34.207Z,,,,,,,,,,,2530.6990000000224,completion,,,,,,,high,low,,,,,,false,,,,,true,422576.6999999881,422576.5,420029.205,420040.5,420045.801,422581.669,1,40,,
trial,html.Screen,8_35_0,2023-11-17T20:38:36.342Z,,,,2,-0.0188047466661863,0.0288346930436979,,0.05,true,ll,2130.430999964243,response,-1.2706447584800626,1.05223750978017,-1.154449125578733,-1.0903308007916603,1.0478192970878508,-1.14237204749859,low,low,,ISIC_0014157.JPG,,ISIC_9425937.JPG,25,false,0.12,ll,keypress(f),0,true,424712.1999999881,424712.09999996424,422565.105,422576.7999999523,422581.669,424717.158,1,40,36,
sequence,flow.Sequence,8_35,2023-11-17T20:38:36.342Z,,,,,,,,,,,2130.430999964243,completion,,,,,,,low,low,,,,,,false,,,,,true,424712.39999997616,424712.09999996424,422565.105,422576.6999999881,422581.669,424717.158,1,40,,
trial,html.Screen,8_36_0,2023-11-17T20:38:38.504Z,,,,2,-0.0113873532168551,-0.0054999201556291,,0.05,true,hh,2156.0419999880833,response,1.1253220985777015,1.05223750978017,-1.154449125578733,1.108725659461368,1.0478192970878508,-1.14237204749859,high,high,,ISIC_8812621.JPG,,ISIC_0054954.JPG,29,false,0.1,hh,keypress(i),0,true,426873.59999996424,426873.1999999881,424700.457,424712.5,424717.158,426886.016,1,40,37,
sequence,flow.Sequence,8_36,2023-11-17T20:38:38.504Z,,,,,,,,,,,2156.0419999880833,completion,,,,,,,high,high,,,,,,false,,,,,true,426873.89999997616,426873.1999999881,424700.457,424712.5,424717.158,426886.016,1,40,,
trial,html.Screen,8_37_0,2023-11-17T20:38:41.654Z,,,,2,,-0.0264544974620926,,0.05,false,ll,3138.183999988076,response,-1.1210325063849345,1.05223750978017,-1.154449125578733,-1.1498648320956202,1.0478192970878508,-1.14237204749859,low,low,,ISIC_0056991.JPG,,ISIC_0032162.JPG,25,false,0.12,lh,keypress(e),0,true,430024.39999997616,430024.1999999881,426869.403,426874.09999996424,426886.016,430039.198,1,40,38,
sequence,flow.Sequence,8_37,2023-11-17T20:38:41.655Z,,,,,,,,,,,3138.183999988076,completion,,,,,,,low,low,,,,,,false,,,,,true,430024.59999996424,430024.1999999881,426869.403,426874.09999996424,426886.016,430039.198,1,40,,
trial,html.Screen,8_38_0,2023-11-17T20:38:44.567Z,,,,2,-0.0245376145053177,0.0436993426328401,,0.05,false,hh,2897.7019999761833,response,0.9562051868665176,1.05223750978017,-1.104449125578733,1.110797661774712,1.0478192970878508,-1.19237204749859,high,high,,ISIC_0056444.JPG,,ISIC_0061199.JPG,29,false,0.1,hl,keypress(j),0,true,432937,432936.89999997616,430022.486,430024.6999999881,430039.198,432958.737,1,40,39,
sequence,flow.Sequence,8_38,2023-11-17T20:38:44.567Z,,,,,,,,,,,2897.7019999761833,completion,,,,,,,high,high,,,,,,false,,,,,true,432937.2999999523,432936.89999997616,430022.486,430024.59999996424,430039.198,432958.737,1,40,,
trial,html.Screen,8_39_0,2023-11-17T20:38:47.231Z,,,,2,,-0.0264544974620926,,0.05,true,lh,2641.6629999761353,response,-0.9696118525781644,0.9824654231639427,-1.104449125578733,0.9244148283103414,1.0978192970878509,-1.19237204749859,low,high,,ISIC_0056991.JPG,,ISIC_7927525.JPG,25,false,0.2600000000000001,lh,keypress(e),0,true,435600.59999996424,435600.39999997616,432925.491,432937.39999997616,432958.737,435611.555,1,40,40,
sequence,flow.Sequence,8_39,2023-11-17T20:38:47.231Z,,,,,,,,,,,2641.6629999761353,completion,,,,,,,low,high,,,,,,false,,,,,true,435600.7999999523,435600.39999997616,432925.491,432937.39999997616,432958.737,435611.555,1,40,,
stair_loop,flow.Loop,8,2023-11-17T20:38:47.231Z,,,,,,,,,,,125231.06499997614,completion,,,,,,,,,,,,,,false,,,,,true,435600.89999997616,435600.39999997616,310352.715,310360.5,310369.335,435611.555,1,40,,
exp_instructions,html.Screen,9,2023-11-17T20:38:48.854Z,,,,,,,,,,,1612.5449999642442,response,,,,,,,,,,,,,,,,continue,keypress(Space),,,437224.2999999523,437224.09999996424,435594.65,435601,435611.555,437229.647,,,,
trial,html.Screen,10_0_0,2023-11-17T20:38:52.534Z,,,,1,0.007397293189458,0.0174716772037504,,0.05,true,ll,3674.552999988082,response,-1.0909285203537074,1.0695307099201323,-1.1499609415163885,-1.013890238726642,1.09354230353877,-1.1152534451236604,low,low,,ISIC_0056226.JPG,9,ISIC_0033799.JPG,26,false,0.11,ll,keypress(f),0,false,440904.39999997616,440904.1999999881,437212.965,437224.5,437229.647,440916.676,4,500,1,
break,html.Screen,10_0_1,2023-11-17T20:38:52.535Z,,,,,,,,,,,NaN,,,,,,,,low,low,,,,,,false,,,,,false,440904.6999999881,440904.59999996424,,440904.5,,440916.676,4,500,,
break_continue,html.Screen,10_0_2,2023-11-17T20:38:52.535Z,,,,,,,,,,,NaN,,,,,,,,low,low,,,,,,false,,,,,false,440905,440904.89999997616,,440904.7999999523,,440916.676,4,500,,
sequence,flow.Sequence,10_0,2023-11-17T20:38:52.535Z,,,,,,,,,,,3675.252999976161,completion,,,,,,,low,low,,,,,,false,,,,,false,440905.09999996424,440904.89999997616,437212.965,437224.5,437229.647,440916.676,4,500,,
trial,html.Screen,10_1_0,2023-11-17T20:38:57.110Z,,,,1,-0.0051189696037511,0.0396625911332438,,0.05,false,lh,4563.324000000022,response,-0.8579451262594331,1.0695307099201323,-1.1499609415163885,0.9633172970727744,1.09354230353877,-1.1152534451236604,low,high,,ISIC_9742891.JPG,10,ISIC_0067172.JPG,27,false,0.30000000000000016,hl,keypress(j),0,false,445480.1999999881,445480,440900,440905.09999996424,440916.676,445487.924,4,500,2,
break,html.Screen,10_1_1,2023-11-17T20:38:57.111Z,,,,,,,,,,,NaN,,,,,,,,low,high,,,,,,false,,,,,false,445480.59999996424,445480.5,,445480.2999999523,,445487.924,4,500,,
break_continue,html.Screen,10_1_2,2023-11-17T20:38:57.111Z,,,,,,,,,,,NaN,,,,,,,,low,high,,,,,,false,,,,,false,445480.7999999523,445480.6999999881,,445480.59999996424,,445487.924,4,500,,
sequence,flow.Sequence,10_1,2023-11-17T20:38:57.111Z,,,,,,,,,,,4564.023999988101,completion,,,,,,,low,high,,,,,,false,,,,,false,445480.7999999523,445480.6999999881,440900,440905.09999996424,440916.676,445487.924,4,500,,
trial,html.Screen,10_2_0,2023-11-17T20:39:00.702Z,,,,1,0.0116094682222121,-0.0258434522530318,,0.05,false,lh,3584.175999964238,response,-0.991282840649944,1.0695307099201323,-1.1499609415163885,0.9397921099839784,1.09354230353877,-1.1152534451236604,low,high,,ISIC_9239632.JPG,10,ISIC_0000463.JPG,27,false,0.30000000000000016,hh,keypress(i),0,false,449072.2999999523,449072.09999996424,445471.344,445480.89999997616,445487.924,449074.872,4,500,3,
break,html.Screen,10_2_1,2023-11-17T20:39:00.703Z,,,,,,,,,,,NaN,,,,,,,,low,high,,,,,,false,,,,,false,449072.59999996424,449072.59999996424,,449072.39999997616,,449074.872,4,500,,
break_continue,html.Screen,10_2_2,2023-11-17T20:39:00.703Z,,,,,,,,,,,NaN,,,,,,,,low,high,,,,,,false,,,,,false,449072.7999999523,449072.7999999523,,449072.6999999881,,449074.872,4,500,,
sequence,flow.Sequence,10_2,2023-11-17T20:39:00.703Z,,,,,,,,,,,3584.875999952317,completion,,,,,,,low,high,,,,,,false,,,,,false,449072.89999997616,449072.7999999523,445471.344,445480.89999997616,445487.924,449074.872,4,500,,
trial,html.Screen,10_3_0,2023-11-17T20:39:04.630Z,,,,1,,-0.0264544974620926,,0.05,false,lh,3925.327999988105,response,-1.0751036484083878,1.0695307099201323,-1.1499609415163885,1.143906455483852,1.09354230353877,-1.1152534451236604,low,high,,ISIC_0056991.JPG,9,ISIC_0064406.JPG,27,false,0.30000000000000016,hl,keypress(j),0,false,453000.2999999523,453000.1999999881,449058.106,449073,449074.872,453012.108,4,500,4,
break,html.Screen,10_3_1,2023-11-17T20:39:04.631Z,,,,,,,,,,,NaN,,,,,,,,low,high,,,,,,false,,,,,false,453000.6999999881,453000.59999996424,,453000.39999997616,,453012.108,4,500,,
break_continue,html.Screen,10_3_2,2023-11-17T20:39:04.631Z,,,,,,,,,,,NaN,,,,,,,,low,high,,,,,,false,,,,,false,453000.7999999523,453000.7999999523,,453000.6999999881,,453012.108,4,500,,
sequence,flow.Sequence,10_3,2023-11-17T20:39:04.631Z,,,,,,,,,,,3925.9279999523424,completion,,,,,,,low,high,,,,,,false,,,,,false,453000.89999997616,453000.7999999523,449058.106,449072.89999997616,449074.872,453012.108,4,500,,
trial,html.Screen,10_4_0,2023-11-17T20:39:08.230Z,,,,1,-0.0188047466661863,0.0288346930436979,,0.05,false,hh,3587.9919999642298,response,1.0088070132449485,1.0695307099201323,-1.1499609415163885,1.0292526683018866,1.09354230353877,-1.1152534451236604,high,high,,ISIC_0014157.JPG,10,ISIC_0059314.JPG,31,false,0.1,hl,keypress(j),0,false,456600.1999999881,456600.09999996424,452995.652,453000.89999997616,453012.108,456615.737,4,500,5,
break,html.Screen,10_4_1,2023-11-17T20:39:08.231Z,,,,,,,,,,,NaN,,,,,,,,high,high,,,,,,false,,,,,false,456600.5,456600.39999997616,,456600.2999999523,,456615.737,4,500,,
break_continue,html.Screen,10_4_2,2023-11-17T20:39:08.231Z,,,,,,,,,,,NaN,,,,,,,,high,high,,,,,,false,,,,,false,456600.7999999523,456600.7999999523,,456600.59999996424,,456615.737,4,500,,
sequence,flow.Sequence,10_4,2023-11-17T20:39:08.231Z,,,,,,,,,,,3588.691999952309,completion,,,,,,,high,high,,,,,,false,,,,,false,456600.89999997616,456600.7999999523,452995.652,453000.89999997616,453012.108,456615.737,4,500,,
trial,html.Screen,10_5_0,2023-11-17T20:39:11.183Z,,,,1,0.0217698886732706,-0.0410870915161425,,0.05,true,hh,2936.5629999522935,response,0.9787884514439864,1.0695307099201323,-1.1499609415163885,1.139528725910855,1.09354230353877,-1.1152534451236604,high,high,,ISIC_0072173.JPG,9,ISIC_0032726.JPG,31,false,0.1,hh,keypress(i),0,false,459552.5,459552.2999999523,456599.043,456600.89999997616,456615.737,459568.753,4,500,6,
break,html.Screen,10_5_1,2023-11-17T20:39:11.183Z,,,,,,,,,,,NaN,,,,,,,,high,high,,,,,,false,,,,,false,459552.89999997616,459552.89999997616,,459552.59999996424,,459568.753,4,500,,
break_continue,html.Screen,10_5_2,2023-11-17T20:39:11.183Z,,,,,,,,,,,NaN,,,,,,,,high,high,,,,,,false,,,,,false,459553.09999996424,459553.09999996424,,459553,,459568.753,4,500,,
sequence,flow.Sequence,10_5,2023-11-17T20:39:11.183Z,,,,,,,,,,,2937.3629999642144,completion,,,,,,,high,high,,,,,,false,,,,,false,459553.2999999523,459553.09999996424,456599.043,456600.89999997616,456615.737,459568.753,4,500,,
trial,html.Screen,10_6_0,2023-11-17T20:39:13.167Z,,,,1,0.0027483411352856,0.0100996915276271,,0.05,false,hh,1968.146999976132,response,1.135372722680314,1.0695307099201323,-1.1499609415163885,1.0926414044454305,1.09354230353877,-1.1152534451236604,high,high,,ISIC_7364041.JPG,9,ISIC_2355513.JPG,31,false,0.1,lh,keypress(e),0,false,461537.1999999881,461536.89999997616,459551.959,459553.2999999523,459568.753,461553.998,4,500,7,
break,html.Screen,10_6_1,2023-11-17T20:39:13.168Z,,,,,,,,,,,NaN,,,,,,,,high,high,,,,,,false,,,,,false,461537.89999997616,461537.7999999523,,461537.39999997616,,461553.998,4,500,,
break_continue,html.Screen,10_6_2,2023-11-17T20:39:13.169Z,,,,,,,,,,,NaN,,,,,,,,high,high,,,,,,false,,,,,false,461538.5,461538.2999999523,,461538.1999999881,,461553.998,4,500,,
sequence,flow.Sequence,10_6,2023-11-17T20:39:13.169Z,,,,,,,,,,,1969.5469999522902,completion,,,,,,,high,high,,,,,,false,,,,,false,461538.7999999523,461538.2999999523,459551.959,459553.2999999523,459568.753,461553.998,4,500,,
trial,html.Screen,10_7_0,2023-11-17T20:39:16.295Z,,,,1,0.0069555338059566,-0.0310100918136373,,0.05,false,hl,3110.7019999880577,response,1.0115965332688306,1.0695307099201323,-1.1499609415163885,-0.8282633603842442,1.09354230353877,-1.1152534451236604,high,low,,ISIC_0011177.JPG,9,ISIC_1069587.JPG,25,false,0.3200000000000002,lh,keypress(e),0,false,464664.7999999523,464664.6999999881,461537.39,461538.89999997616,461553.998,464673.788,4,500,8,
break,html.Screen,10_7_1,2023-11-17T20:39:16.296Z,,,,,,,,,,,NaN,,,,,,,,high,low,,,,,,false,,,,,false,464665.5,464665.39999997616,,464665.09999996424,,464673.788,4,500,,
break_continue,html.Screen,10_7_2,2023-11-17T20:39:16.296Z,,,,,,,,,,,NaN,,,,,,,,high,low,,,,,,false,,,,,false,464665.89999997616,464665.6999999881,,464665.6999999881,,464673.788,4,500,,
sequence,flow.Sequence,10_7,2023-11-17T20:39:16.296Z,,,,,,,,,,,3111.7019999880577,completion,,,,,,,high,low,,,,,,false,,,,,false,464666,464665.6999999881,461537.39,461538.7999999523,461553.998,464673.788,4,500,,
trial,html.Screen,10_8_0,2023-11-17T20:39:19.303Z,,,,1,0.0329095507339554,-0.0382899749693245,,0.05,true,lh,2998.6119999761577,response,-0.9433720631499012,1.0695307099201323,-1.1499609415163885,1.0582071940347648,1.09354230353877,-1.1152534451236604,low,high,,ISIC_8812781.JPG,8,ISIC_4890201.JPG,27,false,0.30000000000000016,lh,keypress(e),0,false,467672.59999996424,467672.39999997616,464657.169,464666.09999996424,464673.788,467676.829,4,500,9,
break,html.Screen,10_8_1,2023-11-17T20:39:19.303Z,,,,,,,,,,,NaN,,,,,,,,low,high,,,,,,false,,,,,false,467673.09999996424,467672.89999997616,,467672.7999999523,,467676.829,4,500,,
break_continue,html.Screen,10_8_2,2023-11-17T20:39:19.303Z,,,,,,,,,,,NaN,,,,,,,,low,high,,,,,,false,,,,,false,467673.2999999523,467673.1999999881,,467673.1999999881,,467676.829,4,500,,
sequence,flow.Sequence,10_8,2023-11-17T20:39:19.304Z,,,,,,,,,,,2999.4119999880786,completion,,,,,,,low,high,,,,,,false,,,,,false,467673.39999997616,467673.1999999881,464657.169,464666.09999996424,464673.788,467676.829,4,500,,
trial,html.Screen,10_9_0,2023-11-17T20:39:22.664Z,,,,1,-0.000047919190197942736,-0.0462652940855003,,0.05,false,hh,3356.070999976131,response,1.135372722680314,1.0695307099201323,-1.1499609415163885,1.0926414044454305,1.09354230353877,-1.1152534451236604,high,high,,ISIC_0011507.JPG,9,ISIC_2355513.JPG,31,false,0.1,hl,keypress(j),0,false,471033.09999996424,471032.89999997616,467660.202,467673.59999996424,467676.829,471063.555,4,500,10,
break,html.Screen,10_9_1,2023-11-17T20:39:22.664Z,,,,,,,,,,,NaN,,,,,,,,high,high,,,,,,false,,,,,false,471033.7999999523,471033.6999999881,,471033.2999999523,,471063.555,4,500,,
break_continue,html.Screen,10_9_2,2023-11-17T20:39:22.665Z,,,,,,,,,,,NaN,,,,,,,,high,high,,,,,,false,,,,,false,471034.1999999881,471034,,471033.7999999523,,471063.555,4,500,,
sequence,flow.Sequence,10_9,2023-11-17T20:39:22.665Z,,,,,,,,,,,3357.170999999973,completion,,,,,,,high,high,,,,,,false,,,,,false,471034.2999999523,471034,467660.202,467673.5,467676.829,471063.555,4,500,,
trial,html.Screen,10_10_0,2023-11-17T20:39:26.657Z,,,,1,0.0069555338059566,-0.0310100918136373,,0.05,false,lh,3962.445000000007,response,-0.8979276789594874,1.0695307099201323,-1.1499609415163885,0.925374811016654,1.09354230353877,-1.1152534451236604,low,high,,ISIC_0011177.JPG,10,ISIC_4208361.JPG,27,false,0.30000000000000016,hh,keypress(i),0,false,475026.1999999881,475026,471030.326,471034.39999997616,471063.555,475034.261,4,500,11,
break,html.Screen,10_10_1,2023-11-17T20:39:26.658Z,,,,,,,,,,,NaN,,,,,,,,low,high,,,,,,false,,,,,false,475027.1999999881,475027,,475026.5,,475034.261,4,500,,
break_continue,html.Screen,10_10_2,2023-11-17T20:39:26.658Z,,,,,,,,,,,NaN,,,,,,,,low,high,,,,,,false,,,,,false,475027.7999999523,475027.59999996424,,475027.39999997616,,475034.261,4,500,,
sequence,flow.Sequence,10_10,2023-11-17T20:39:26.659Z,,,,,,,,,,,3964.044999964244,completion,,,,,,,low,high,,,,,,false,,,,,false,475027.89999997616,475027.59999996424,471030.326,471034.39999997616,471063.555,475034.261,4,500,,
trial,html.Screen,10_11_0,2023-11-17T20:39:31.231Z,,,,1,0.0070725527271049,0.0049995141077508,,0.05,true,ll,4566.338999964239,response,-1.135787555082309,1.0695307099201323,-1.1499609415163885,-1.0095789588135065,1.09354230353877,-1.1152534451236604,low,low,,ISIC_6124481.JPG,9,ISIC_0032526.JPG,26,false,0.11,ll,keypress(f),0,false,479600.6999999881,479600.59999996424,475017.709,475028.09999996424,475034.261,479605.431,4,500,12,
break,html.Screen,10_11_1,2023-11-17T20:39:31.232Z,,,,,,,,,,,NaN,,,,,,,,low,low,,,,,,false,,,,,false,479601.1999999881,479601.09999996424,,479600.89999997616,,479605.431,4,500,,
break_continue,html.Screen,10_11_2,2023-11-17T20:39:31.232Z,,,,,,,,,,,NaN,,,,,,,,low,low,,,,,,false,,,,,false,479601.5,479601.5,,479601.39999997616,,479605.431,4,500,,
sequence,flow.Sequence,10_11,2023-11-17T20:39:31.232Z,,,,,,,,,,,4567.239000000001,completion,,,,,,,low,low,,,,,,false,,,,,false,479601.6999999881,479601.5,475017.709,475028.09999996424,475034.261,479605.431,4,500,,
trial,html.Screen,10_12_0,2023-11-17T20:39:33.832Z,,,,1,-0.0409338693593207,0.0072462710499874,,0.05,false,ll,2595.468999976176,response,-1.2318069697449794,1.0695307099201323,-1.1499609415163885,-1.1703576816778267,1.09354230353877,-1.1152534451236604,low,low,,ISIC_3608788.JPG,10,ISIC_2732573.JPG,26,false,0.11,lh,keypress(e),0,false,482201,482200.89999997616,479588.868,479601.7999999523,479605.431,482208.025,4,500,13,
break,html.Screen,10_12_1,2023-11-17T20:39:33.832Z,,,,,,,,,,,NaN,,,,,,,,low,low,,,,,,false,,,,,false,482201.6999999881,482201.59999996424,,482201.2999999523,,482208.025,4,500,,
break_continue,html.Screen,10_12_2,2023-11-17T20:39:33.833Z,,,,,,,,,,,NaN,,,,,,,,low,low,,,,,,false,,,,,false,482202,482201.7999999523,,482201.7999999523,,482208.025,4,500,,
sequence,flow.Sequence,10_12,2023-11-17T20:39:33.833Z,,,,,,,,,,,2596.368999952334,completion,,,,,,,low,low,,,,,,false,,,,,false,482202.09999996424,482201.7999999523,479588.868,479601.6999999881,479605.431,482208.025,4,500,,
trial,html.Screen,10_13_0,2023-11-17T20:39:36.855Z,,,,1,0.0363437082783146,0.0333332186217051,,0.05,false,lh,3016.274999952293,response,-1.0865333402803938,1.0695307099201323,-1.1499609415163885,1.0542635307358266,1.09354230353877,-1.1152534451236604,low,high,,ISIC_3314555.JPG,8,ISIC_0034006.JPG,27,false,0.30000000000000016,hl,keypress(j),0,false,485224.39999997616,485224.2999999523,482191.465,482202.2999999523,482208.025,485227.711,4,500,14,
break,html.Screen,10_13_1,2023-11-17T20:39:36.855Z,,,,,,,,,,,NaN,,,,,,,,low,high,,,,,,false,,,,,false,485224.6999999881,485224.59999996424,,485224.59999996424,,485227.711,4,500,,
break_continue,html.Screen,10_13_2,2023-11-17T20:39:36.856Z,,,,,,,,,,,NaN,,,,,,,,low,high,,,,,,false,,,,,false,485224.89999997616,485224.89999997616,,485224.6999999881,,485227.711,4,500,,
sequence,flow.Sequence,10_13,2023-11-17T20:39:36.856Z,,,,,,,,,,,3016.874999976135,completion,,,,,,,low,high,,,,,,false,,,,,false,485225,485224.89999997616,482191.465,482202.1999999881,482208.025,485227.711,4,500,,
trial,html.Screen,10_14_0,2023-11-17T20:39:40.903Z,,,,1,0.0057914759495055,0.0074667911845194,,0.05,false,hl,4044.888999964227,response,0.948927472020595,1.0695307099201323,-1.1499609415163885,-1.0660437155921598,1.09354230353877,-1.1152534451236604,high,low,,ISIC_0058723.JPG,9,ISIC_5808758.JPG,25,false,0.3200000000000002,lh,keypress(e),0,false,489272.89999997616,489272.59999996424,485211.201,485225,485227.711,489298.482,4,500,15,
break,html.Screen,10_14_1,2023-11-17T20:39:40.904Z,,,,,,,,,,,NaN,,,,,,,,high,low,,,,,,false,,,,,false,489273.39999997616,489273.1999999881,,489273,,489298.482,4,500,,
break_continue,html.Screen,10_14_2,2023-11-17T20:39:40.904Z,,,,,,,,,,,NaN,,,,,,,,high,low,,,,,,false,,,,,false,489273.7999999523,489273.59999996424,,489273.5,,489298.482,4,500,,
sequence,flow.Sequence,10_14,2023-11-17T20:39:40.905Z,,,,,,,,,,,4045.888999964227,completion,,,,,,,high,low,,,,,,false,,,,,false,489273.89999997616,489273.59999996424,485211.201,485225,485227.711,489298.482,4,500,,
trial,html.Screen,10_15_0,2023-11-17T20:39:43.487Z,,,,1,-0.0051189696037511,0.0396625911332438,,0.05,false,hl,2557.717999988061,response,0.796241477082623,1.0695307099201323,-1.1499609415163885,-0.9017449335975743,1.09354230353877,-1.1152534451236604,high,low,,ISIC_9742891.JPG,9,ISIC_8588033.JPG,25,false,0.3200000000000002,hh,keypress(i),0,false,491856.1999999881,491856.1999999881,489265.242,489274,489298.482,491867.677,4,500,16,
break,html.Screen,10_15_1,2023-11-17T20:39:43.487Z,,,,,,,,,,,NaN,,,,,,,,high,low,,,,,,false,,,,,false,491856.59999996424,491856.5,,491856.39999997616,,491867.677,4,500,,
break_continue,html.Screen,10_15_2,2023-11-17T20:39:43.487Z,,,,,,,,,,,NaN,,,,,,,,high,low,,,,,,false,,,,,false,491856.89999997616,491856.7999999523,,491856.6999999881,,491867.677,4,500,,
sequence,flow.Sequence,10_15,2023-11-17T20:39:43.488Z,,,,,,,,,,,2558.317999952298,completion,,,,,,,high,low,,,,,,false,,,,,false,491857,491856.7999999523,489265.242,489274,489298.482,491867.677,4,500,,
trial,html.Screen,10_16_0,2023-11-17T20:39:46.103Z,,,,1,0.0027483411352856,0.0100996915276271,,0.05,false,hl,2604.722999976133,response,1.0213365328004047,1.0695307099201323,-1.1499609415163885,-1.088524359911891,1.09354230353877,-1.1152534451236604,high,low,,ISIC_7364041.JPG,9,ISIC_5434229.JPG,25,false,0.3200000000000002,hh,keypress(i),0,false,494472.5,494472.39999997616,491850.997,491857,491867.677,494486.962,4,500,17,
break,html.Screen,10_16_1,2023-11-17T20:39:46.103Z,,,,,,,,,,,NaN,,,,,,,,high,low,,,,,,false,,,,,false,494472.7999999523,494472.6999999881,,494472.6999999881,,494486.962,4,500,,
break_continue,html.Screen,10_16_2,2023-11-17T20:39:46.104Z,,,,,,,,,,,NaN,,,,,,,,high,low,,,,,,false,,,,,false,494473,494472.89999997616,,494472.89999997616,,494486.962,4,500,,
sequence,flow.Sequence,10_16,2023-11-17T20:39:46.104Z,,,,,,,,,,,2605.222999976133,completion,,,,,,,high,low,,,,,,false,,,,,false,494473,494472.89999997616,491850.997,491857,491867.677,494486.962,4,500,,
trial,html.Screen,10_17_0,2023-11-17T20:39:49.559Z,,,,1,0.007397293189458,0.0174716772037504,,0.05,true,lh,3441.3379999523167,response,-1.0656673213158945,1.0695307099201323,-1.1499609415163885,0.8082541692781954,1.09354230353877,-1.1152534451236604,low,high,,ISIC_0056226.JPG,9,ISIC_0033985.JPG,27,false,0.30000000000000016,lh,keypress(e),0,false,497928.39999997616,497928.2999999523,494470.304,494473,494486.962,497940.451,4,500,18,
break,html.Screen,10_17_1,2023-11-17T20:39:49.559Z,,,,,,,,,,,NaN,,,,,,,,low,high,,,,,,false,,,,,false,497928.6999999881,497928.59999996424,,497928.5,,497940.451,4,500,,
break_continue,html.Screen,10_17_2,2023-11-17T20:39:49.559Z,,,,,,,,,,,NaN,,,,,,,,low,high,,,,,,false,,,,,false,497928.7999999523,497928.7999999523,,497928.6999999881,,497940.451,4,500,,
sequence,flow.Sequence,10_17,2023-11-17T20:39:49.560Z,,,,,,,,,,,3441.8379999523167,completion,,,,,,,low,high,,,,,,false,,,,,false,497928.89999997616,497928.7999999523,494470.304,494473,494486.962,497940.451,4,500,,
trial,html.Screen,10_18_0,2023-11-17T20:39:52.552Z,,,,1,0.0050679133050021,-0.0009714874637896,,0.05,true,hl,2980.548999999999,response,0.8816288864119318,1.0695307099201323,-1.1499609415163885,-0.801867301188093,1.09354230353877,-1.1152534451236604,high,low,,ISIC_9848743.JPG,10,ISIC_9196783.JPG,25,false,0.3200000000000002,hl,keypress(j),0,false,500921.1999999881,500921,497923.843,497929,497940.451,500926.764,4,500,19,
break,html.Screen,10_18_1,2023-11-17T20:39:52.553Z,,,,,,,,,,,NaN,,,,,,,,high,low,,,,,,false,,,,,false,500922,500921.7999999523,,500921.39999997616,,500926.764,4,500,,
break_continue,html.Screen,10_18_2,2023-11-17T20:39:52.553Z,,,,,,,,,,,NaN,,,,,,,,high,low,,,,,,false,,,,,false,500922.5,500922.39999997616,,500922.09999996424,,500926.764,4,500,,
sequence,flow.Sequence,10_18,2023-11-17T20:39:52.553Z,,,,,,,,,,,2981.948999976157,completion,,,,,,,high,low,,,,,,false,,,,,false,500922.7999999523,500922.39999997616,497923.843,497929,497940.451,500926.764,4,500,,
trial,html.Screen,10_19_0,2023-11-17T20:39:55.879Z,,,,1,,-0.0264544974620926,,0.05,false,ll,3321.4359999880544,response,-1.227935316040483,1.0695307099201323,-1.1499609415163885,-1.0211808747755002,1.09354230353877,-1.1152534451236604,low,low,,ISIC_0056991.JPG,9,ISIC_1211506.JPG,26,false,0.11,hl,keypress(j),0,false,504248.39999997616,504248.1999999881,500910.057,500922.89999997616,500926.764,504263.445,4,500,20,
break,html.Screen,10_19_1,2023-11-17T20:39:55.879Z,,,,,,,,,,,NaN,,,,,,,,low,low,,,,,,false,,,,,false,504248.7999999523,504248.59999996424,,504248.5,,504263.445,4,500,,
break_continue,html.Screen,10_19_2,2023-11-17T20:39:55.880Z,,,,,,,,,,,NaN,,,,,,,,low,low,,,,,,false,,,,,false,504249,504249,,504248.89999997616,,504263.445,4,500,,
sequence,flow.Sequence,10_19,2023-11-17T20:39:55.880Z,,,,,,,,,,,3322.2359999999753,completion,,,,,,,low,low,,,,,,false,,,,,false,504249,504249,500910.057,500922.89999997616,500926.764,504263.445,4,500,,
trial,html.Screen,10_20_0,2023-11-17T20:39:57.912Z,,,,1,-0.0134764727102299,-0.0033499036460912,,0.05,false,hl,2017.6549999642302,response,1.0022829373011404,1.0695307099201323,-1.1499609415163885,-0.8311726972863814,1.09354230353877,-1.1152534451236604,high,low,,ISIC_0009998.JPG,9,ISIC_0033287.JPG,25,false,0.3200000000000002,ll,keypress(f),0,false,506281.2999999523,506281.09999996424,504246.837,504249.09999996424,504263.445,506298.938,4,500,21,
break,html.Screen,10_20_1,2023-11-17T20:39:57.913Z,,,,,,,,,,,NaN,,,,,,,,high,low,,,,,,false,,,,,false,506281.89999997616,506281.7999999523,,506281.5,,506298.938,4,500,,
break_continue,html.Screen,10_20_2,2023-11-17T20:39:57.913Z,,,,,,,,,,,NaN,,,,,,,,high,low,,,,,,false,,,,,false,506282.5,506282.2999999523,,506282.09999996424,,506298.938,4,500,,
sequence,flow.Sequence,10_20,2023-11-17T20:39:57.913Z,,,,,,,,,,,2018.8549999523093,completion,,,,,,,high,low,,,,,,false,,,,,false,506282.59999996424,506282.2999999523,504246.837,504249,504263.445,506298.938,4,500,,
trial,html.Screen,10_21_0,2023-11-17T20:39:59.831Z,,,,1,0.0329095507339554,-0.0382899749693245,,0.05,false,hl,1901.2619999880553,response,0.7723849213858904,1.0695307099201323,-1.1499609415163885,-0.888372424147899,1.09354230353877,-1.1152534451236604,high,low,,ISIC_8812781.JPG,9,ISIC_3884221.JPG,25,false,0.3200000000000002,hh,keypress(i),0,false,508200.2999999523,508200.1999999881,506265.54,506282.6999999881,506298.938,508234.215,4,500,22,
break,html.Screen,10_21_1,2023-11-17T20:39:59.831Z,,,,,,,,,,,NaN,,,,,,,,high,low,,,,,,false,,,,,false,508200.6999999881,508200.59999996424,,508200.39999997616,,508234.215,4,500,,
break_continue,html.Screen,10_21_2,2023-11-17T20:39:59.832Z,,,,,,,,,,,NaN,,,,,,,,high,low,,,,,,false,,,,,false,508200.89999997616,508200.89999997616,,508200.6999999881,,508234.215,4,500,,
sequence,flow.Sequence,10_21,2023-11-17T20:39:59.832Z,,,,,,,,,,,1901.9619999761344,completion,,,,,,,high,low,,,,,,false,,,,,false,508201,508200.89999997616,506265.54,506282.6999999881,506298.938,508234.215,4,500,,
trial,html.Screen,10_22_0,2023-11-17T20:40:01.791Z,,,,1,0.0217698886732706,-0.0410870915161425,,0.05,false,hl,1926.0849999522907,response,0.8035152873995188,1.0695307099201323,-1.1499609415163885,-0.82868450251632,1.09354230353877,-1.1152534451236604,high,low,,ISIC_0072173.JPG,10,ISIC_0010671.JPG,25,false,0.3200000000000002,ll,keypress(f),0,false,510160.39999997616,510160.2999999523,508217.377,508201,508234.215,510169.364,4,500,23,
break,html.Screen,10_22_1,2023-11-17T20:40:01.791Z,,,,,,,,,,,NaN,,,,,,,,high,low,,,,,,false,,,,,false,510160.7999999523,510160.6999999881,,510160.59999996424,,510169.364,4,500,,
break_continue,html.Screen,10_22_2,2023-11-17T20:40:01.792Z,,,,,,,,,,,NaN,,,,,,,,high,low,,,,,,false,,,,,false,510161.09999996424,510160.89999997616,,510160.89999997616,,510169.364,4,500,,
sequence,flow.Sequence,10_22,2023-11-17T20:40:01.792Z,,,,,,,,,,,1926.6849999761325,completion,,,,,,,high,low,,,,,,false,,,,,false,510161.1999999881,510160.89999997616,508217.377,508201,508234.215,510169.364,4,500,,
trial,html.Screen,10_23_0,2023-11-17T20:40:05.464Z,,,,1,0.0389988030702649,0.0143212271490256,,0.05,false,ll,3663.435999952315,response,-1.241406480986552,1.0695307099201323,-1.1499609415163885,-1.081912821786771,1.09354230353877,-1.1152534451236604,low,low,,ISIC_0064669.JPG,9,ISIC_4223155.JPG,26,false,0.11,lh,keypress(e),0,false,513833,513832.7999999523,510152.778,510161.1999999881,510169.364,513856.384,4,500,24,
break,html.Screen,10_23_1,2023-11-17T20:40:05.464Z,,,,,,,,,,,NaN,,,,,,,,low,low,,,,,,false,,,,,false,513833.59999996424,513833.5,,513833.09999996424,,513856.384,4,500,,
break_continue,html.Screen,10_23_2,2023-11-17T20:40:05.465Z,,,,,,,,,,,NaN,,,,,,,,low,low,,,,,,false,,,,,false,513834.09999996424,513833.89999997616,,513833.6999999881,,513856.384,4,500,,
sequence,flow.Sequence,10_23,2023-11-17T20:40:05.465Z,,,,,,,,,,,3664.5359999761567,completion,,,,,,,low,low,,,,,,false,,,,,false,513834.1999999881,513833.89999997616,510152.778,510161.1999999881,510169.364,513856.384,4,500,,
trial,html.Screen,10_24_0,2023-11-17T20:40:08.143Z,,,,1,0.0070725527271049,0.0049995141077508,,0.05,false,lh,2656.315999988059,response,-0.9433720631499012,1.0695307099201323,-1.1499609415163885,1.0582071940347648,1.09354230353877,-1.1152534451236604,low,high,,ISIC_6124481.JPG,10,ISIC_4890201.JPG,27,false,0.30000000000000016,ll,keypress(f),0,false,516512.7999999523,516512.6999999881,513823.153,513834.2999999523,513856.384,516525.796,4,500,25,
break,html.Screen,10_24_1,2023-11-17T20:40:08.144Z,,,,,,,,,,,NaN,,,,,,,,low,high,,,,,,false,,,,,false,516513.39999997616,516513.1999999881,,516513,,516525.796,4,500,,
break_continue,html.Screen,10_24_2,2023-11-17T20:40:08.144Z,,,,,,,,,,,NaN,,,,,,,,low,high,,,,,,false,,,,,false,516513.59999996424,516513.59999996424,,516513.5,,516525.796,4,500,,
sequence,flow.Sequence,10_24,2023-11-17T20:40:08.144Z,,,,,,,,,,,2657.215999964217,completion,,,,,,,low,high,,,,,,false,,,,,false,516513.7999999523,516513.59999996424,513823.153,513834.2999999523,513856.384,516525.796,4,500,,
trial,html.Screen,10_25_0,2023-11-17T20:40:10.552Z,,,,1,0.039728379742806,-0.0228701131373768,,0.05,true,hh,2395.403999988106,response,0.9991183219041097,1.0695307099201323,-1.1499609415163885,1.0098382533872188,1.09354230353877,-1.1152534451236604,high,high,,ISIC_0054073.JPG,10,ISIC_0010415.JPG,31,false,0.1,hh,keypress(i),0,false,518921.39999997616,518921.1999999881,516509.204,516514,516525.796,518928.123,4,500,26,
break,html.Screen,10_25_1,2023-11-17T20:40:10.553Z,,,,,,,,,,,NaN,,,,,,,,high,high,,,,,,false,,,,,false,518922.39999997616,518922.09999996424,,518921.6999999881,,518928.123,4,500,,
break_continue,html.Screen,10_25_2,2023-11-17T20:40:10.554Z,,,,,,,,,,,NaN,,,,,,,,high,high,,,,,,false,,,,,false,518922.89999997616,518922.7999999523,,518922.5,,518928.123,4,500,,
sequence,flow.Sequence,10_25,2023-11-17T20:40:10.554Z,,,,,,,,,,,2397.0039999523433,completion,,,,,,,high,high,,,,,,false,,,,,false,518923.09999996424,518922.7999999523,516509.204,516513.89999997616,516525.796,518928.123,4,500,,
trial,html.Screen,10_26_0,2023-11-17T20:40:15.151Z,,,,1,-0.0102460616775615,0.0309670599545429,,0.05,false,hh,4592.276999976137,response,1.0376573622140812,1.0695307099201323,-1.1499609415163885,1.0000402707486682,1.09354230353877,-1.1152534451236604,high,high,,ISIC_0072041.JPG,10,ISIC_0068798.JPG,31,false,0.1,lh,keypress(e),0,false,523520.5,523520.39999997616,518911.41,518923.2999999523,518928.123,523532.737,4,500,27,
break,html.Screen,10_26_1,2023-11-17T20:40:15.152Z,,,,,,,,,,,NaN,,,,,,,,high,high,,,,,,false,,,,,false,523520.89999997616,523520.7999999523,,523520.59999996424,,523532.737,4,500,,
break_continue,html.Screen,10_26_2,2023-11-17T20:40:15.152Z,,,,,,,,,,,NaN,,,,,,,,high,high,,,,,,false,,,,,false,523521.1999999881,523521,,523521,,523532.737,4,500,,
sequence,flow.Sequence,10_26,2023-11-17T20:40:15.152Z,,,,,,,,,,,4592.876999999979,completion,,,,,,,high,high,,,,,,false,,,,,false,523521.1999999881,523521,518911.41,518923.1999999881,518928.123,523532.737,4,500,,
trial,html.Screen,10_27_0,2023-11-17T20:40:17.088Z,,,,1,-0.0159061451859594,-0.0296598845560212,,0.05,false,hl,1924.2629999999772,response,0.991146183030456,1.0695307099201323,-1.1499609415163885,-0.9949639823722534,1.09354230353877,-1.1152534451236604,high,low,,ISIC_0072564.JPG,9,ISIC_6342224.JPG,25,false,0.3200000000000002,hh,keypress(i),0,false,525457.2999999523,525457,523516.194,523521.2999999523,523532.737,525468.001,4,500,28,
break,html.Screen,10_27_1,2023-11-17T20:40:17.088Z,,,,,,,,,,,NaN,,,,,,,,high,low,,,,,,false,,,,,false,525457.6999999881,525457.5999999642,,525457.3999999762,,525468.001,4,500,,
break_continue,html.Screen,10_27_2,2023-11-17T20:40:17.088Z,,,,,,,,,,,NaN,,,,,,,,high,low,,,,,,false,,,,,false,525457.7999999523,525457.6999999881,,525457.6999999881,,525468.001,4,500,,
sequence,flow.Sequence,10_27,2023-11-17T20:40:17.088Z,,,,,,,,,,,1924.9629999880563,completion,,,,,,,high,low,,,,,,false,,,,,false,525457.8999999762,525457.6999999881,523516.194,523521.2999999523,523532.737,525468.001,4,500,,
trial,html.Screen,10_28_0,2023-11-17T20:40:19.088Z,,,,1,-0.0159061451859594,-0.0296598845560212,,0.05,false,hl,1989.2989999522688,response,0.9235571765207048,1.0695307099201323,-1.1499609415163885,-1.0008081653938232,1.09354230353877,-1.1152534451236604,high,low,,ISIC_0072564.JPG,9,ISIC_8796632.JPG,25,false,0.3200000000000002,hh,keypress(i),0,false,527457.5,527457.2999999523,525451.498,525457.8999999762,525468.001,527486.698,4,500,29,
break,html.Screen,10_28_1,2023-11-17T20:40:19.089Z,,,,,,,,,,,NaN,,,,,,,,high,low,,,,,,false,,,,,false,527458.3999999762,527458.1999999881,,527457.7999999523,,527486.698,4,500,,
break_continue,html.Screen,10_28_2,2023-11-17T20:40:19.090Z,,,,,,,,,,,NaN,,,,,,,,high,low,,,,,,false,,,,,false,527459,527458.8999999762,,527458.5,,527486.698,4,500,,
sequence,flow.Sequence,10_28,2023-11-17T20:40:19.090Z,,,,,,,,,,,1990.8989999761106,completion,,,,,,,high,low,,,,,,false,,,,,false,527459.1999999881,527458.8999999762,525451.498,525457.8999999762,525468.001,527486.698,4,500,,
trial,html.Screen,10_29_0,2023-11-17T20:40:20.784Z,,,,1,0.0050679133050021,-0.0009714874637896,,0.05,false,hl,1665.6019999523414,response,0.7833710010171356,1.0695307099201323,-1.1499609415163885,-0.9315588090336896,1.09354230353877,-1.1152534451236604,high,low,,ISIC_9848743.JPG,10,ISIC_3826102.JPG,25,false,0.3200000000000002,lh,keypress(e),0,false,529152.3999999762,529152.2999999523,527453.555,527459.2999999523,527486.698,529155.026,4,500,30,
break,html.Screen,10_29_1,2023-11-17T20:40:20.784Z,,,,,,,,,,,NaN,,,,,,,,high,low,,,,,,false,,,,,false,529152.6999999881,529152.6999999881,,529152.5999999642,,529155.026,4,500,,
break_continue,html.Screen,10_29_2,2023-11-17T20:40:20.784Z,,,,,,,,,,,NaN,,,,,,,,high,low,,,,,,false,,,,,false,529152.8999999762,529152.8999999762,,529152.7999999523,,529155.026,4,500,,
sequence,flow.Sequence,10_29,2023-11-17T20:40:20.784Z,,,,,,,,,,,1666.2019999761833,completion,,,,,,,high,low,,,,,,false,,,,,false,529153,529152.8999999762,527453.555,527459.2999999523,527486.698,529155.026,4,500,,
trial,html.Screen,10_30_0,2023-11-17T20:40:22.432Z,,,,1,-0.0409338693593207,0.0072462710499874,,0.05,false,ll,1645.5739999642828,response,-1.0909285203537074,1.0695307099201323,-1.1499609415163885,-1.013890238726642,1.09354230353877,-1.1152534451236604,low,low,,ISIC_3608788.JPG,9,ISIC_0033799.JPG,26,false,0.11,hl,keypress(j),0,false,530800.7999999523,530800.5999999642,529138.588,529153.0999999642,529155.026,530806.681,4,500,31,
break,html.Screen,10_30_1,2023-11-17T20:40:22.432Z,,,,,,,,,,,NaN,,,,,,,,low,low,,,,,,false,,,,,false,530801.0999999642,530801,,530800.8999999762,,530806.681,4,500,,
break_continue,html.Screen,10_30_2,2023-11-17T20:40:22.433Z,,,,,,,,,,,NaN,,,,,,,,low,low,,,,,,false,,,,,false,530801.2999999523,530801.1999999881,,530801.0999999642,,530806.681,4,500,,
sequence,flow.Sequence,10_30,2023-11-17T20:40:22.433Z,,,,,,,,,,,1646.1739999881247,completion,,,,,,,low,low,,,,,,false,,,,,false,530801.3999999762,530801.1999999881,529138.588,529153,529155.026,530806.681,4,500,,
trial,html.Screen,10_31_0,2023-11-17T20:40:24.760Z,,,,1,0.0070725527271049,0.0049995141077508,,0.05,true,ll,2321.718999976176,response,-1.0858641668099058,1.0695307099201323,-1.1499609415163885,-1.1638942560200525,1.09354230353877,-1.1152534451236604,low,low,,ISIC_6124481.JPG,10,ISIC_5439597.JPG,26,false,0.11,ll,keypress(f),0,false,533128.3999999762,533128.3999999762,530790.152,530801.3999999762,530806.681,533142.525,4,500,32,
break,html.Screen,10_31_1,2023-11-17T20:40:24.760Z,,,,,,,,,,,NaN,,,,,,,,low,low,,,,,,false,,,,,false,533128.7999999523,533128.6999999881,,533128.5999999642,,533142.525,4,500,,
break_continue,html.Screen,10_31_2,2023-11-17T20:40:24.760Z,,,,,,,,,,,NaN,,,,,,,,low,low,,,,,,false,,,,,false,533128.8999999762,533128.7999999523,,533128.7999999523,,533142.525,4,500,,
sequence,flow.Sequence,10_31,2023-11-17T20:40:24.760Z,,,,,,,,,,,2322.118999952334,completion,,,,,,,low,low,,,,,,false,,,,,false,533128.8999999762,533128.7999999523,530790.152,530801.3999999762,530806.681,533142.525,4,500,,
trial,html.Screen,10_32_0,2023-11-17T20:40:26.952Z,,,,1,-0.0277178575053843,0.0395587463147856,,0.05,false,ll,2177.774999952293,response,-1.2012395086389958,1.0695307099201323,-1.1499609415163885,-1.0618985767073823,1.09354230353877,-1.1152534451236604,low,low,,ISIC_0010807.JPG,9,ISIC_9876004.JPG,26,false,0.11,hh,keypress(i),0,false,535320.2999999523,535320.2999999523,533125.634,533129.0999999642,533142.525,535344.802,4,500,33,
break,html.Screen,10_32_1,2023-11-17T20:40:26.952Z,,,,,,,,,,,NaN,,,,,,,,low,low,,,,,,false,,,,,false,535320.6999999881,535320.5999999642,,535320.3999999762,,535344.802,4,500,,
break_continue,html.Screen,10_32_2,2023-11-17T20:40:26.952Z,,,,,,,,,,,NaN,,,,,,,,low,low,,,,,,false,,,,,false,535320.7999999523,535320.6999999881,,535320.6999999881,,535344.802,4,500,,
sequence,flow.Sequence,10_32,2023-11-17T20:40:26.952Z,,,,,,,,,,,2178.174999988056,completion,,,,,,,low,low,,,,,,false,,,,,false,535320.8999999762,535320.6999999881,533125.634,533129,533142.525,535344.802,4,500,,
trial,html.Screen,10_33_0,2023-11-17T20:40:29.224Z,,,,1,0.0217698886732706,-0.0410870915161425,,0.05,false,ll,2247.397999988054,response,-1.131522954199764,1.0695307099201323,-1.1499609415163885,-1.1047184491749509,1.09354230353877,-1.1152534451236604,low,low,,ISIC_0072173.JPG,9,ISIC_1868816.JPG,26,false,0.11,lh,keypress(e),0,false,537592.2999999523,537592.1999999881,535328.11,535320.8999999762,535344.802,537596.806,4,500,34,
break,html.Screen,10_33_1,2023-11-17T20:40:29.224Z,,,,,,,,,,,NaN,,,,,,,,low,low,,,,,,false,,,,,false,537592.5999999642,537592.5,,537592.3999999762,,537596.806,4,500,,
break_continue,html.Screen,10_33_2,2023-11-17T20:40:29.224Z,,,,,,,,,,,NaN,,,,,,,,low,low,,,,,,false,,,,,false,537592.7999999523,537592.6999999881,,537592.6999999881,,537596.806,4,500,,
sequence,flow.Sequence,10_33,2023-11-17T20:40:29.224Z,,,,,,,,,,,2247.897999988054,completion,,,,,,,low,low,,,,,,false,,,,,false,537592.7999999523,537592.6999999881,535328.11,535320.8999999762,535344.802,537596.806,4,500,,
trial,html.Screen,10_34_0,2023-11-17T20:40:31.240Z,,,,1,0.0363437082783146,0.0333332186217051,,0.05,true,ll,2011.6940000000177,response,-1.1137763092539212,1.0695307099201323,-1.1499609415163885,-1.1599906701455132,1.09354230353877,-1.1152534451236604,low,low,,ISIC_3314555.JPG,8,ISIC_5413788.JPG,26,false,0.11,ll,keypress(f),0,false,539608.6999999881,539608.5,537580.312,537592.8999999762,537596.806,539615.506,4,500,35,
break,html.Screen,10_34_1,2023-11-17T20:40:31.240Z,,,,,,,,,,,NaN,,,,,,,,low,low,,,,,,false,,,,,false,539609.0999999642,539609,,539608.7999999523,,539615.506,4,500,,
break_continue,html.Screen,10_34_2,2023-11-17T20:40:31.241Z,,,,,,,,,,,NaN,,,,,,,,low,low,,,,,,false,,,,,false,539609.2999999523,539609.1999999881,,539609.1999999881,,539615.506,4,500,,
sequence,flow.Sequence,10_34,2023-11-17T20:40:31.241Z,,,,,,,,,,,2012.3939999880968,completion,,,,,,,low,low,,,,,,false,,,,,false,539609.2999999523,539609.1999999881,537580.312,537592.7999999523,537596.806,539615.506,4,500,,
trial,html.Screen,10_35_0,2023-11-17T20:40:33.496Z,,,,1,0.0329095507339554,-0.0382899749693245,,0.05,true,ll,2248.993999999948,response,-1.1210325063849345,1.0695307099201323,-1.1499609415163885,-1.1498648320956202,1.09354230353877,-1.1152534451236604,low,low,,ISIC_8812781.JPG,10,ISIC_0032162.JPG,26,false,0.11,ll,keypress(f),0,false,541864.5,541864.5,539598.923,539609.3999999762,539615.506,541867.742,4,500,36,
break,html.Screen,10_35_1,2023-11-17T20:40:33.496Z,,,,,,,,,,,NaN,,,,,,,,low,low,,,,,,false,,,,,false,541864.8999999762,541864.7999999523,,541864.5999999642,,541867.742,4,500,,
break_continue,html.Screen,10_35_2,2023-11-17T20:40:33.496Z,,,,,,,,,,,NaN,,,,,,,,low,low,,,,,,false,,,,,false,541865,541865,,541864.8999999762,,541867.742,4,500,,
sequence,flow.Sequence,10_35,2023-11-17T20:40:33.496Z,,,,,,,,,,,2249.493999999948,completion,,,,,,,low,low,,,,,,false,,,,,false,541865,541865,539598.923,539609.3999999762,539615.506,541867.742,4,500,,
trial,html.Screen,10_36_0,2023-11-17T20:40:35.873Z,,,,1,0.007397293189458,0.0174716772037504,,0.05,false,hh,2373.557999952347,response,1.101346104814838,1.0695307099201323,-1.1499609415163885,1.1225813067473052,1.09354230353877,-1.1152534451236604,high,high,,ISIC_0056226.JPG,9,ISIC_8175453.JPG,31,false,0.1,lh,keypress(e),0,false,544241.5,544241.2999999523,541851.201,541865.0999999642,541867.742,544253.538,4,500,37,
break,html.Screen,10_36_1,2023-11-17T20:40:35.874Z,,,,,,,,,,,NaN,,,,,,,,high,high,,,,,,false,,,,,false,544242.3999999762,544242.1999999881,,544241.7999999523,,544253.538,4,500,,
break_continue,html.Screen,10_36_2,2023-11-17T20:40:35.874Z,,,,,,,,,,,NaN,,,,,,,,high,high,,,,,,false,,,,,false,544242.7999999523,544242.6999999881,,544242.5,,544253.538,4,500,,
sequence,flow.Sequence,10_36,2023-11-17T20:40:35.874Z,,,,,,,,,,,2374.95799998811,completion,,,,,,,high,high,,,,,,false,,,,,false,544243,544242.6999999881,541851.201,541865.0999999642,541867.742,544253.538,4,500,,
trial,html.Screen,10_37_0,2023-11-17T20:40:38.753Z,,,,1,-0.000047919190197942736,-0.0462652940855003,,0.05,false,ll,2867.561999964295,response,-1.1598623261077452,1.0695307099201323,-1.1499609415163885,-1.203269031614007,1.09354230353877,-1.1152534451236604,low,low,,ISIC_0011507.JPG,9,ISIC_0002639.JPG,26,false,0.11,hl,keypress(j),0,false,547121.3999999762,547121.0999999642,544236.876,544243.1999999881,544253.538,547140.423,4,500,38,
break,html.Screen,10_37_1,2023-11-17T20:40:38.754Z,,,,,,,,,,,NaN,,,,,,,,low,low,,,,,,false,,,,,false,547122.2999999523,547122.0999999642,,547121.6999999881,,547140.423,4,500,,
break_continue,html.Screen,10_37_2,2023-11-17T20:40:38.754Z,,,,,,,,,,,NaN,,,,,,,,low,low,,,,,,false,,,,,false,547122.6999999881,547122.5999999642,,547122.2999999523,,547140.423,4,500,,
sequence,flow.Sequence,10_37,2023-11-17T20:40:38.754Z,,,,,,,,,,,2869.061999964295,completion,,,,,,,low,low,,,,,,false,,,,,false,547122.8999999762,547122.5999999642,544236.876,544243.1999999881,544253.538,547140.423,4,500,,
trial,html.Screen,10_38_0,2023-11-17T20:40:41.304Z,,,,1,-0.0348234368746005,0.0236866303880924,,0.05,true,hh,2532.1769999642856,response,1.0376573622140812,1.0695307099201323,-1.1499609415163885,1.0000402707486682,1.09354230353877,-1.1152534451236604,high,high,,ISIC_0011099.JPG,9,ISIC_0068798.JPG,31,false,0.1,hh,keypress(i),0,false,549672.7999999523,549672.5999999642,547106.49,547123,547140.423,549675.57,4,500,39,
break,html.Screen,10_38_1,2023-11-17T20:40:41.304Z,,,,,,,,,,,NaN,,,,,,,,high,high,,,,,,false,,,,,false,549673.0999999642,549673,,549672.8999999762,,549675.57,4,500,,
