sender,sender_type,sender_id,timestamp,meta,,age,blockNo,c1,c2,condition,control_tolerance,correct,correctResponse,duration,ended_on,f1,f1_high,f1_low,f2,f2_high,f2_low,feature_level1,feature_level2,gender,img_left,img_reveal,img_right,n_target_images,practice,range_tolerance,response,response_action,selection_duration,staircase,time_commit,time_end,time_render,time_run,time_show,time_switch,total_blocks,total_trials,trialNo,url
informed_consent,html.Screen,0,2023-11-17T15:31:45.403Z,"{""labjs_version"":""20.2.4"",""labjs_build"":{""flavor"":""development"",""commit"":""f5b4a49f956347addd546a832a3327688c2c0fef""},""location"":""https://labjs.felixhenninger.com/api/labjs_preview/index.html"",""userAgent"":""Mozilla/5.0 (Windows NT 10.0; Win64; x64) AppleWebKit/537.36 (KHTML, like Gecko) Chrome/119.0.0.0 Safari/537.36"",""platform"":""Win32"",""language"":""en-US"",""locale"":""en-US"",""timeZone"":""America/Chicago"",""timezoneOffset"":360,""screen_width"":1920,""screen_height"":1080,""scroll_width"":945,""scroll_height"":918,""window_innerWidth"":945,""window_innerHeight"":966,""devicePixelRatio"":1}",,,,,,,,,,14450.861999982119,response,,,,,,,,,,,,,,,,consent,click button,,,15363.59999999404,15354.299999982119,886.709,896.5,903.438,15370.052,,,,{}
Demography form,html.Form,1,2023-11-17T15:31:50.429Z,,,21,,,,,,,,5019.3479999761585,form submission,,,,,,,,,female,,,,,,,,,,,20389.5,20389.399999976158,15353.434,15363.799999982119,15370.052,20403.39,,,,
Welcome,html.Screen,2,2023-11-17T15:32:14.922Z,,,,,,,"[""asym"",""bor""]",,,,24478.90999998212,response,,,,,,,,,,,,,,,,continue,click button,,,44882.79999998212,44882.29999998212,20386.89,20389.69999998808,20403.39,44886.755,,,,
demo_instructions,html.Screen,3,2023-11-17T15:32:45.035Z,,,,,,,,,,,30107.44499998808,response,,,,,,,,,,,,,,,,continue,click button,,,74994.59999999404,74994.19999998808,44870.271,44883,44886.755,75036.786,,,,
trial,html.Screen,4_0_0,2023-11-17T15:32:49.894Z,,,,0,0.948927472020595,-1.0660437155921598,,,true,lh,4816.214000000007,response,-1.0026266089287914,1.2,-1.2,1.0913275913920335,1.2,-1.2,low,high,,ISIC_5808758.JPG,,ISIC_0033520.JPG,26,true,0.3600000000000002,lh,keypress(e),100,false,79853.29999998212,79853,74986.997,74994.79999998212,75036.786,79870.162,1,16,1,
sequence,flow.Sequence,4_0,2023-11-17T15:32:49.894Z,,,,,,,,,,,4816.214000000007,completion,,,,,,,low,high,,,,,,true,,,,,false,79853.69999998808,79853,74986.997,74994.79999998212,75036.786,79870.162,1,16,,
trial,html.Screen,4_1_0,2023-11-17T15:32:52.429Z,,,,0,0.7871162143493278,-0.8429329800778957,,,true,lh,2518.5379999880824,response,-0.9433720631499012,1.2,-1.2,1.0582071940347648,1.2,-1.2,low,high,,ISIC_3439215.JPG,,ISIC_4890201.JPG,33,true,0.42000000000000026,lh,keypress(e),100,false,82388.89999997616,82388.69999998808,79853.507,79853.79999998212,79870.162,82420.268,1,16,2,
sequence,flow.Sequence,4_1,2023-11-17T15:32:52.430Z,,,,,,,,,,,2518.5379999880824,completion,,,,,,,low,high,,,,,,true,,,,,false,82389.29999998212,82388.69999998808,79853.507,79853.79999998212,79870.162,82420.268,1,16,,
trial,html.Screen,4_2_0,2023-11-17T15:32:56.767Z,,,,0,1.276222161935671,-0.9657780821973284,,,true,lh,4305.931999988083,response,-0.869932994914832,1.2,-1.2,0.8880533324432531,1.2,-1.2,low,high,,ISIC_6710411.JPG,,ISIC_8617084.JPG,33,true,0.42000000000000026,lh,keypress(e),100,false,86726.5,86726.19999998808,82403.494,82389.59999999404,82420.268,86753.473,1,16,3,
sequence,flow.Sequence,4_2,2023-11-17T15:32:56.767Z,,,,,,,,,,,4305.931999988083,completion,,,,,,,low,high,,,,,,true,,,,,false,86726.89999997616,86726.19999998808,82403.494,82389.5,82420.268,86753.473,1,16,,
trial,html.Screen,4_3_0,2023-11-17T15:32:59.099Z,,,,0,0.796241477082623,-0.9017449335975743,,,true,lh,2304.8269999821205,response,-0.8809306963311293,1.2,-1.2,0.8614910030038974,1.2,-1.2,low,high,,ISIC_8588033.JPG,,ISIC_0013731.JPG,33,true,0.42000000000000026,lh,keypress(e),100,false,89058.39999997616,89058.29999998212,86736.878,86727.09999999404,86753.473,89086.896,1,16,4,
sequence,flow.Sequence,4_3,2023-11-17T15:32:59.099Z,,,,,,,,,,,2304.8269999821205,completion,,,,,,,low,high,,,,,,true,,,,,false,89058.69999998808,89058.29999998212,86736.878,86727.09999999404,86753.473,89086.896,1,16,,
trial,html.Screen,4_4_0,2023-11-17T15:33:03.182Z,,,,0,1.2952503640839694,1.107234527385344,,,true,ll,4055.003999976165,response,-0.8150954316817084,1.2,-1.2,-1.1100289789666156,1.2,-1.2,low,low,,ISIC_0034134.JPG,,ISIC_0026552.JPG,253,true,0.42000000000000026,ll,keypress(f),100,false,93142.09999999404,93141.89999997616,89070.19,89058.79999998212,89086.896,93170.194,1,16,5,
sequence,flow.Sequence,4_4,2023-11-17T15:33:03.183Z,,,,,,,,,,,4055.003999976165,completion,,,,,,,low,low,,,,,,true,,,,,false,93142.39999997616,93141.89999997616,89070.19,89058.69999998808,89086.896,93170.194,1,16,,
trial,html.Screen,4_5_0,2023-11-17T15:33:08.485Z,,,,0,1.29026082950341,1.144672688339213,,,true,ll,5274.6059999821155,response,-1.241406480986552,1.2,-1.2,-1.081912821786771,1.2,-1.2,low,low,,ISIC_0054317.JPG,,ISIC_4223155.JPG,26,true,0.15000000000000002,ll,keypress(f),100,false,98445.19999998808,98444.79999998212,93153.517,93142.39999997616,93170.194,98470.284,1,16,6,
sequence,flow.Sequence,4_5,2023-11-17T15:33:08.486Z,,,,,,,,,,,5274.6059999821155,completion,,,,,,,low,low,,,,,,true,,,,,false,98445.59999999404,98444.79999998212,93153.517,93142.39999997616,93170.194,98470.284,1,16,,
trial,html.Screen,4_6_0,2023-11-17T15:33:13.234Z,,,,0,1.2071341803968807,1.235960269089932,,,true,ll,4722.81599999404,response,-1.1598623261077452,1.2,-1.2,-1.203269031614007,1.2,-1.2,low,low,,ISIC_0058174.JPG,,ISIC_0002639.JPG,26,true,0.15000000000000002,ll,keypress(f),100,false,103193.39999997616,103193.09999999404,98453.507,98445.59999999404,98470.284,103220.209,1,16,7,
sequence,flow.Sequence,4_6,2023-11-17T15:33:13.234Z,,,,,,,,,,,4722.81599999404,completion,,,,,,,low,low,,,,,,true,,,,,false,103193.69999998808,103193.09999999404,98453.507,98445.59999999404,98470.284,103220.209,1,16,,
trial,html.Screen,4_7_0,2023-11-17T15:33:17.260Z,,,,0,1.2254187569955004,1.174555235109734,,,true,ll,3999.6909999761556,response,-1.0717785279820962,1.2,-1.2,-1.1267239445830604,1.2,-1.2,low,low,,ISIC_0027187.JPG,,ISIC_9948815.JPG,26,true,0.15000000000000002,ll,keypress(f),100,false,107220.09999999404,107219.89999997616,103203.556,103193.79999998212,103220.209,107236.838,1,16,8,
sequence,flow.Sequence,4_7,2023-11-17T15:33:17.261Z,,,,,,,,,,,3999.6909999761556,completion,,,,,,,low,low,,,,,,true,,,,,false,107220.29999998212,107219.89999997616,103203.556,103193.79999998212,103220.209,107236.838,1,16,,
trial,html.Screen,4_8_0,2023-11-17T15:33:21.079Z,,,,0,-1.331700944308701,0.9395196143259436,,,true,hl,3801.3619999880757,response,0.796241477082623,1.2,-1.2,-0.9017449335975743,1.2,-1.2,high,low,,ISIC_1668831.JPG,,ISIC_8588033.JPG,27,true,0.42000000000000026,hl,keypress(j),100,false,111038.29999998212,111038.19999998808,107220.162,107220.39999997616,107236.838,111070.203,1,16,9,
sequence,flow.Sequence,4_8,2023-11-17T15:33:21.079Z,,,,,,,,,,,3801.3619999880757,completion,,,,,,,high,low,,,,,,true,,,,,false,111038.39999997616,111038.19999998808,107220.162,107220.39999997616,107236.838,111070.203,1,16,,
trial,html.Screen,4_9_0,2023-11-17T15:33:23.527Z,,,,0,-0.8809306963311293,0.8614910030038974,,,true,hl,2416.696999976164,response,0.8200962008791046,1.2,-1.2,-0.7936051642828523,1.2,-1.2,high,low,,ISIC_0013731.JPG,,ISIC_0027031.JPG,27,true,0.42000000000000026,hl,keypress(j),100,false,113487,113486.89999997616,111053.466,111038.5,111070.203,113503.512,1,16,10,
sequence,flow.Sequence,4_9,2023-11-17T15:33:23.528Z,,,,,,,,,,,2416.696999976164,completion,,,,,,,high,low,,,,,,true,,,,,false,113487.29999998212,113486.89999997616,111053.466,111038.39999997616,111070.203,113503.512,1,16,,
trial,html.Screen,4_10_0,2023-11-17T15:33:25.626Z,,,,0,-0.8809306963311293,0.8614910030038974,,,true,hl,2081.9879999999976,response,0.991146183030456,1.2,-1.2,-0.9949639823722534,1.2,-1.2,high,low,,ISIC_0013731.JPG,,ISIC_6342224.JPG,27,true,0.42000000000000026,hl,keypress(j),100,false,115585.69999998808,115585.5,113486.831,113487.39999997616,113503.512,115603.541,1,16,11,
sequence,flow.Sequence,4_10,2023-11-17T15:33:25.626Z,,,,,,,,,,,2081.9879999999976,completion,,,,,,,high,low,,,,,,true,,,,,false,115586,115585.5,113486.831,113487.39999997616,113503.512,115603.541,1,16,,
trial,html.Screen,4_11_0,2023-11-17T15:33:28.104Z,,,,0,-1.2331439637486756,0.9691143900156988,,,true,hl,2460.058999994042,response,1.0115965332688306,1.2,-1.2,-0.8282633603842442,1.2,-1.2,high,low,,ISIC_7877488.JPG,,ISIC_1069587.JPG,27,true,0.42000000000000026,hl,keypress(j),100,false,118063.69999998808,118063.59999999404,115586.9,115586.09999999404,115603.541,118086.841,1,16,12,
sequence,flow.Sequence,4_11,2023-11-17T15:33:28.104Z,,,,,,,,,,,2460.058999994042,completion,,,,,,,high,low,,,,,,true,,,,,false,118064,118063.59999999404,115586.9,115586.09999999404,115603.541,118086.841,1,16,,
trial,html.Screen,4_12_0,2023-11-17T15:33:34.398Z,,,,0,-1.0717785279820962,-1.1267239445830604,,,true,hh,6270.659,response,0.9263931440503964,1.2,-1.2,0.9159664042920548,1.2,-1.2,high,high,,ISIC_9948815.JPG,,ISIC_0053617.JPG,245,true,0.3600000000000002,hh,keypress(i),100,false,124357.69999998808,124357.5,118070.35,118064,118086.841,124386.958,1,16,13,
sequence,flow.Sequence,4_12,2023-11-17T15:33:34.398Z,,,,,,,,,,,6270.659,completion,,,,,,,high,high,,,,,,true,,,,,false,124358,124357.5,118070.35,118064,118086.841,124386.958,1,16,,
trial,html.Screen,4_13_0,2023-11-17T15:33:37.526Z,,,,0,-1.2711018615747949,-1.1042234044781618,,,true,hh,3098.84199998212,response,1.255256820488545,1.2,-1.2,1.1206426433062562,1.2,-1.2,high,high,,ISIC_8603734.JPG,,ISIC_0024652.JPG,53,true,0.15000000000000002,hh,keypress(i),100,false,127485.89999997616,127485.79999998212,124370.421,124358,124386.958,127503.679,1,16,14,
sequence,flow.Sequence,4_13,2023-11-17T15:33:37.526Z,,,,,,,,,,,3098.84199998212,completion,,,,,,,high,high,,,,,,true,,,,,false,127486,127485.79999998212,124370.421,124358,124386.958,127503.679,1,16,,
trial,html.Screen,4_14_0,2023-11-17T15:33:39.612Z,,,,0,-1.2318069697449794,-1.1703576816778267,,,true,hh,2068.2209999761544,response,1.1783311757907324,1.2,-1.2,1.0915173513546716,1.2,-1.2,high,high,,ISIC_2732573.JPG,,ISIC_8241457.JPG,53,true,0.15000000000000002,hh,keypress(i),100,false,129572,129571.89999997616,127486.857,127486,127503.679,129603.57,1,16,15,
sequence,flow.Sequence,4_14,2023-11-17T15:33:39.613Z,,,,,,,,,,,2068.2209999761544,completion,,,,,,,high,high,,,,,,true,,,,,false,129572.39999997616,129571.89999997616,127486.857,127486,127503.679,129603.57,1,16,,
trial,html.Screen,4_15_0,2023-11-17T15:33:41.398Z,,,,0,-1.2318069697449794,-1.1703576816778267,,,true,hh,1754.5299999940326,response,1.255256820488545,1.2,-1.2,1.1206426433062562,1.2,-1.2,high,high,,ISIC_2732573.JPG,,ISIC_0024652.JPG,53,true,0.15000000000000002,hh,keypress(i),100,false,131358.19999998808,131358.09999999404,129586.917,129572.39999997616,129603.57,131386.97,1,16,16,
sequence,flow.Sequence,4_15,2023-11-17T15:33:41.399Z,,,,,,,,,,,1754.5299999940326,completion,,,,,,,high,high,,,,,,true,,,,,false,131358.39999997616,131358.09999999404,129586.917,129572.39999997616,129603.57,131386.97,1,16,,
demonstration_loop,flow.Loop,4,2023-11-17T15:33:41.399Z,,,,,,,,,,,56321.31399999405,completion,,,,,,,,,,,,,,true,,,,,false,131358.39999997616,131358.09999999404,74986.997,74994.79999998212,75036.786,131386.97,1,16,,
practice_instructions,html.Screen,5,2023-11-17T15:33:50.084Z,,,,,,,,,,,8647.329999982117,response,,,,,,,,,,,,,,,,continue,click button,,,140043,140034.29999998212,131370.188,131358.39999997616,131386.97,140070.209,,,,
trial,html.Screen,6_0_0,2023-11-17T15:33:54.274Z,,,,1,-0.879102500583965,1.0933081951979773,,,true,hl,4155.4909999880765,response,1.276222161935671,1.2,-1.2,-0.9657780821973284,1.2,-1.2,high,low,,ISIC_0046223.JPG,,ISIC_6710411.JPG,27,true,0.42000000000000026,hl,keypress(j),0,false,144233.5,144225.69999998808,140020.435,140043.19999998808,140070.209,144236.89,1,40,1,
sequence,flow.Sequence,6_0,2023-11-17T15:33:54.275Z,,,,,,,,,,,4155.4909999880765,completion,,,,,,,high,low,,,,,,true,,,,,false,144233.59999999404,144225.69999998808,140020.435,140043.19999998808,140070.209,144236.89,1,40,,
trial,html.Screen,6_1_0,2023-11-17T15:33:58.100Z,,,,1,-1.2724584600905462,-1.1411016103695344,,,true,hh,3821.809999988065,response,1.1562451639812497,1.2,-1.2,0.8551038865291761,1.2,-1.2,high,high,,ISIC_0059625.JPG,,ISIC_0011958.JPG,245,true,0.3600000000000002,hh,keypress(i),0,false,148058.89999997616,148058.69999998808,144220.238,144233.69999998808,144236.89,148070.235,1,40,2,
sequence,flow.Sequence,6_1,2023-11-17T15:33:58.100Z,,,,,,,,,,,3821.809999988065,completion,,,,,,,high,high,,,,,,true,,,,,false,148059.09999999404,148058.69999998808,144220.238,144233.69999998808,144236.89,148070.235,1,40,,
trial,html.Screen,6_2_0,2023-11-17T15:34:00.588Z,,,,1,-1.2012395086389958,-1.0618985767073823,,,true,hh,2476.765000000014,response,1.1033977063872138,1.2,-1.2,1.2513071571733083,1.2,-1.2,high,high,,ISIC_9876004.JPG,,ISIC_0025472.JPG,53,true,0.15000000000000002,hh,keypress(i),0,false,150547.09999999404,150547,148053.52,148059.19999998808,148070.235,150570.229,1,40,3,
sequence,flow.Sequence,6_2,2023-11-17T15:34:00.588Z,,,,,,,,,,,2476.765000000014,completion,,,,,,,high,high,,,,,,true,,,,,false,150547.19999998808,150547,148053.52,148059.09999999404,148070.235,150570.229,1,40,,
trial,html.Screen,6_3_0,2023-11-17T15:34:04.820Z,,,,1,1.4092385398614515,-1.3046237992197836,,,true,lh,4209.0709999821265,response,-0.991282840649944,1.2,-1.2,0.9397921099839784,1.2,-1.2,low,high,,ISIC_7254359.JPG,,ISIC_0000463.JPG,26,true,0.3600000000000002,lh,keypress(e),0,false,154779.5,154779.29999998212,150536.848,150547.29999998212,150570.229,154786.894,1,40,4,
sequence,flow.Sequence,6_3,2023-11-17T15:34:04.821Z,,,,,,,,,,,4209.0709999821265,completion,,,,,,,low,high,,,,,,true,,,,,false,154779.69999998808,154779.29999998212,150536.848,150547.29999998212,150570.229,154786.894,1,40,,
trial,html.Screen,6_4_0,2023-11-17T15:34:07.797Z,,,,1,1.152619213055059,1.1117876838408909,,,true,ll,2968.7059999940393,response,-1.0366777133497644,1.2,-1.2,-0.8674472391512381,1.2,-1.2,low,low,,ISIC_0061915.JPG,,ISIC_0014431.JPG,253,true,0.42000000000000026,ll,keypress(f),0,false,157755.79999998212,157755.59999999404,154770.3,154779.79999998212,154786.894,157770.354,1,40,5,
sequence,flow.Sequence,6_4,2023-11-17T15:34:07.797Z,,,,,,,,,,,2968.7059999940393,completion,,,,,,,low,low,,,,,,true,,,,,false,157756.19999998808,157755.59999999404,154770.3,154779.79999998212,154786.894,157770.354,1,40,,
trial,html.Screen,6_5_0,2023-11-17T15:34:12.628Z,,,,1,1.2181031651370575,1.2158573487067317,,,true,ll,4816.545999976166,response,-1.241406480986552,1.2,-1.2,-1.081912821786771,1.2,-1.2,low,low,,ISIC_7242312.JPG,,ISIC_4223155.JPG,26,true,0.15000000000000002,ll,keypress(f),0,false,162587.09999999404,162586.89999997616,157753.593,157756.39999997616,157770.354,162603.818,1,40,6,
sequence,flow.Sequence,6_5,2023-11-17T15:34:12.628Z,,,,,,,,,,,4816.545999976166,completion,,,,,,,low,low,,,,,,true,,,,,false,162587.19999998808,162586.89999997616,157753.593,157756.29999998212,157770.354,162603.818,1,40,,
trial,html.Screen,6_6_0,2023-11-17T15:34:18.117Z,,,,1,-1.2024083555600384,-1.149077673153018,,,true,hh,5471.78199999404,response,1.2249552940807693,1.2,-1.2,1.1723015116910682,1.2,-1.2,high,high,,ISIC_3566243.JPG,,ISIC_0055251.JPG,30,true,0.1,hh,keypress(i),0,false,168075.79999998212,168075.59999999404,162586.74,162587.19999998808,162603.818,168103.598,1,40,7,
sequence,flow.Sequence,6_6,2023-11-17T15:34:18.117Z,,,,,,,,,,,5471.78199999404,completion,,,,,,,high,high,,,,,,true,,,,,false,168076.09999999404,168075.59999999404,162586.74,162587.19999998808,162603.818,168103.598,1,40,,
trial,html.Screen,6_7_0,2023-11-17T15:34:21.372Z,,,,1,0.9388660854518424,-0.79533948698576,,,true,lh,3227.101999988081,response,-1.4747161152848791,1.2,-1.2,0.847048591307387,1.2,-1.2,low,high,,ISIC_9291926.JPG,,ISIC_0016092.JPG,26,true,0.3600000000000002,lh,keypress(e),0,false,171330.79999998212,171330.69999998808,168070.29,168076.29999998212,168103.598,171336.913,1,40,8,
sequence,flow.Sequence,6_7,2023-11-17T15:34:21.372Z,,,,,,,,,,,3227.101999988081,completion,,,,,,,low,high,,,,,,true,,,,,false,171331.09999999404,171330.69999998808,168070.29,168076.29999998212,168103.598,171336.913,1,40,,
trial,html.Screen,6_8_0,2023-11-17T15:34:25.108Z,,,,1,1.2952503640839694,1.107234527385344,,,true,ll,3729.9869999761577,response,-1.241406480986552,1.2,-1.2,-1.081912821786771,1.2,-1.2,low,low,,ISIC_0034134.JPG,,ISIC_4223155.JPG,253,true,0.42000000000000026,ll,keypress(f),0,false,175067,175066.89999997616,171320.389,171331.09999999404,171336.913,175086.913,1,40,9,
sequence,flow.Sequence,6_8,2023-11-17T15:34:25.108Z,,,,,,,,,,,3729.9869999761577,completion,,,,,,,low,low,,,,,,true,,,,,false,175067.09999999404,175066.89999997616,171320.389,171331.09999999404,171336.913,175086.913,1,40,,
trial,html.Screen,6_9_0,2023-11-17T15:34:31.308Z,,,,1,0.8200962008791046,-0.7936051642828523,,,true,lh,6180.0869999999995,response,-1.0026266089287914,1.2,-1.2,1.0913275913920335,1.2,-1.2,low,high,,ISIC_0027031.JPG,,ISIC_0033520.JPG,26,true,0.3600000000000002,lh,keypress(e),0,false,181267.19999998808,181267,175053.595,175067.09999999404,175086.913,181270.228,1,40,10,
sequence,flow.Sequence,6_9,2023-11-17T15:34:31.308Z,,,,,,,,,,,6180.0869999999995,completion,,,,,,,low,high,,,,,,true,,,,,false,181267.29999998212,181267,175053.595,175067.09999999404,175086.913,181270.228,1,40,,
trial,html.Screen,6_10_0,2023-11-17T15:34:34.748Z,,,,1,-1.1653123206802332,-1.2976858999596654,,,true,hh,3436.9719999880763,response,0.9054613726799198,1.2,-1.2,1.0522064490699743,1.2,-1.2,high,high,,ISIC_0071508.JPG,,ISIC_0064860.JPG,339,true,0.42000000000000026,hh,keypress(i),0,false,184707.29999998212,184707.19999998808,181253.523,181267.5,181270.228,184720.282,1,40,11,
sequence,flow.Sequence,6_10,2023-11-17T15:34:34.749Z,,,,,,,,,,,3436.9719999880763,completion,,,,,,,high,high,,,,,,true,,,,,false,184707.5,184707.19999998808,181253.523,181267.5,181270.228,184720.282,1,40,,
trial,html.Screen,6_11_0,2023-11-17T15:34:37.612Z,,,,1,1.1474466950560966,1.268445326285509,,,true,ll,2850.6179999761516,response,-1.3189473926989124,1.2,-1.2,-1.0770264364718942,1.2,-1.2,low,low,,ISIC_5216586.JPG,,ISIC_6093728.JPG,26,true,0.15000000000000002,ll,keypress(f),0,false,187571,187570.89999997616,184703.733,184707.59999999404,184720.282,187586.931,1,40,12,
sequence,flow.Sequence,6_11,2023-11-17T15:34:37.612Z,,,,,,,,,,,2850.6179999761516,completion,,,,,,,low,low,,,,,,true,,,,,false,187571.19999998808,187570.89999997616,184703.733,184707.59999999404,184720.282,187586.931,1,40,,
trial,html.Screen,6_12_0,2023-11-17T15:34:39.685Z,,,,1,-0.9579209317488,1.0147487101263497,,,true,hl,2056.5689999999886,response,1.0264463986917702,1.2,-1.2,-1.2804054832904397,1.2,-1.2,high,low,,ISIC_8124482.JPG,,ISIC_7889838.JPG,27,true,0.42000000000000026,hl,keypress(j),0,false,189643.69999998808,189643.5,187570.308,187571.29999998212,187586.931,189653.59,1,40,13,
sequence,flow.Sequence,6_12,2023-11-17T15:34:39.685Z,,,,,,,,,,,2056.5689999999886,completion,,,,,,,high,low,,,,,,true,,,,,false,189644,189643.5,187570.308,187571.29999998212,187586.931,189653.59,1,40,,
trial,html.Screen,6_13_0,2023-11-17T15:34:44.260Z,,,,1,-1.131522954199764,-1.1047184491749509,,,true,hh,4565.209999982122,response,1.2055236989581275,1.2,-1.2,0.9077872390456172,1.2,-1.2,high,high,,ISIC_1868816.JPG,,ISIC_0072393.JPG,245,true,0.3600000000000002,hh,keypress(i),0,false,194218.79999998212,194218.79999998212,189637.043,189644.19999998808,189653.59,194238.014,1,40,14,
sequence,flow.Sequence,6_13,2023-11-17T15:34:44.260Z,,,,,,,,,,,4565.209999982122,completion,,,,,,,high,high,,,,,,true,,,,,false,194219,194218.79999998212,189637.043,189644.09999999404,189653.59,194238.014,1,40,,
trial,html.Screen,6_14_0,2023-11-17T15:34:49.398Z,,,,1,0.7809949855371787,-0.8493861117004308,,,true,lh,5117.486000000004,response,-1.2075172235545184,1.2,-1.2,0.9116724966267612,1.2,-1.2,low,high,,ISIC_7450481.JPG,,ISIC_0024235.JPG,26,true,0.3600000000000002,lh,keypress(e),0,false,199355.69999998808,199355.5,194203.453,194219.09999999404,194238.014,199370.424,1,40,15,
sequence,flow.Sequence,6_14,2023-11-17T15:34:49.399Z,,,,,,,,,,,5117.486000000004,completion,,,,,,,low,high,,,,,,true,,,,,false,199356,199355.5,194203.453,194219.09999999404,194238.014,199370.424,1,40,,
trial,html.Screen,6_15_0,2023-11-17T15:34:52.070Z,,,,1,-1.2503149164557643,-1.0796591227570405,,,true,hh,2656.8759999821195,response,0.9476874253010668,1.2,-1.2,1.0189744362243829,1.2,-1.2,high,high,,ISIC_2466892.JPG,,ISIC_0033878.JPG,339,true,0.42000000000000026,hh,keypress(i),0,false,202027.5,202027.29999998212,199353.518,199356.19999998808,199370.424,202036.967,1,40,16,
sequence,flow.Sequence,6_15,2023-11-17T15:34:52.070Z,,,,,,,,,,,2656.8759999821195,completion,,,,,,,high,high,,,,,,true,,,,,false,202027.79999998212,202027.29999998212,199353.518,199356.09999999404,199370.424,202036.967,1,40,,
trial,html.Screen,6_16_0,2023-11-17T15:34:55.702Z,,,,1,0.8623414234919863,-0.782830143980698,,,true,lh,3622.3329999821144,response,-1.2331439637486756,1.2,-1.2,0.9691143900156988,1.2,-1.2,low,high,,ISIC_2727016.JPG,,ISIC_7877488.JPG,26,true,0.3600000000000002,lh,keypress(e),0,false,205659.29999998212,205659.29999998212,202020.214,202027.79999998212,202036.967,205670.357,1,40,17,
sequence,flow.Sequence,6_16,2023-11-17T15:34:55.702Z,,,,,,,,,,,3622.3329999821144,completion,,,,,,,low,high,,,,,,true,,,,,false,205659.59999999404,205659.29999998212,202020.214,202027.79999998212,202036.967,205670.357,1,40,,
trial,html.Screen,6_17_0,2023-11-17T15:34:59.575Z,,,,1,1.2750452296609045,1.1682369131232675,,,true,ll,3861.34299998809,response,-0.8297121564547995,1.2,-1.2,-0.9292144567580788,1.2,-1.2,low,low,,ISIC_0066399.JPG,,ISIC_4108397.JPG,253,true,0.42000000000000026,ll,keypress(f),0,false,209531.89999997616,209531.69999998808,205653.537,205659.79999998212,205670.357,209536.945,1,40,18,
sequence,flow.Sequence,6_17,2023-11-17T15:34:59.575Z,,,,,,,,,,,3861.34299998809,completion,,,,,,,low,low,,,,,,true,,,,,false,209532.29999998212,209531.69999998808,205653.537,205659.69999998808,205670.357,209536.945,1,40,,
trial,html.Screen,6_18_0,2023-11-17T15:35:01.646Z,,,,1,1.2254187569955004,1.174555235109734,,,true,ll,2065.8549999821116,response,-1.0717785279820962,1.2,-1.2,-1.1267239445830604,1.2,-1.2,low,low,,ISIC_0027187.JPG,,ISIC_9948815.JPG,26,true,0.15000000000000002,ll,keypress(f),0,false,211602.89999997616,211602.79999998212,209520.249,209532.5,209536.945,211620.844,1,40,19,
sequence,flow.Sequence,6_18,2023-11-17T15:35:01.646Z,,,,,,,,,,,2065.8549999821116,completion,,,,,,,low,low,,,,,,true,,,,,false,211603,211602.79999998212,209520.249,209532.39999997616,209536.945,211620.844,1,40,,
trial,html.Screen,6_19_0,2023-11-17T15:35:03.542Z,,,,1,1.1383813631375823,1.1319312220332556,,,true,ll,1878.1559999999881,response,-1.0717785279820962,1.2,-1.2,-1.1267239445830604,1.2,-1.2,low,low,,ISIC_6227397.JPG,,ISIC_9948815.JPG,26,true,0.15000000000000002,ll,keypress(f),0,false,213499.09999999404,213499,211586.943,211603.09999999404,211620.844,213503.636,1,40,20,
sequence,flow.Sequence,6_19,2023-11-17T15:35:03.542Z,,,,,,,,,,,1878.1559999999881,completion,,,,,,,low,low,,,,,,true,,,,,false,213499.29999998212,213499,211586.943,211603.09999999404,211620.844,213503.636,1,40,,
trial,html.Screen,6_20_0,2023-11-17T15:35:05.734Z,,,,1,-1.1598623261077452,-1.203269031614007,,,true,hh,2187.8640000000014,response,1.1164729501046406,1.2,-1.2,1.2978935747992253,1.2,-1.2,high,high,,ISIC_0002639.JPG,,ISIC_0034166.JPG,30,true,0.1,hh,keypress(i),0,false,215691.79999998212,215691.5,213487.083,213499.39999997616,213503.636,215703.712,1,40,21,
sequence,flow.Sequence,6_20,2023-11-17T15:35:05.735Z,,,,,,,,,,,2187.8640000000014,completion,,,,,,,high,high,,,,,,true,,,,,false,215692.09999999404,215691.5,213487.083,213499.39999997616,213503.636,215703.712,1,40,,
trial,html.Screen,6_21_0,2023-11-17T15:35:08.141Z,,,,1,-1.0858641668099058,-1.1638942560200525,,,true,hh,2394.9879999880795,response,1.2249552940807693,1.2,-1.2,1.1723015116910682,1.2,-1.2,high,high,,ISIC_5439597.JPG,,ISIC_0055251.JPG,53,true,0.15000000000000002,hh,keypress(i),0,false,218098.89999997616,218098.69999998808,215687.155,215692.29999998212,215703.712,218120.309,1,40,22,
sequence,flow.Sequence,6_21,2023-11-17T15:35:08.142Z,,,,,,,,,,,2394.9879999880795,completion,,,,,,,high,high,,,,,,true,,,,,false,218099,218098.69999998808,215687.155,215692.19999998808,215703.712,218120.309,1,40,,
trial,html.Screen,6_22_0,2023-11-17T15:35:10.918Z,,,,1,0.7998855902596425,-1.1518579145663017,,,true,lh,2755.290999994031,response,-1.0026266089287914,1.2,-1.2,1.0913275913920335,1.2,-1.2,low,high,,ISIC_0025061.JPG,,ISIC_0033520.JPG,26,true,0.3600000000000002,lh,keypress(e),0,false,220875.79999998212,220875.59999999404,218086.914,218099.09999999404,218120.309,220887.044,1,40,23,
sequence,flow.Sequence,6_22,2023-11-17T15:35:10.919Z,,,,,,,,,,,2755.290999994031,completion,,,,,,,low,high,,,,,,true,,,,,false,220876.19999998808,220875.59999999404,218086.914,218099.09999999404,218120.309,220887.044,1,40,,
trial,html.Screen,6_23_0,2023-11-17T15:35:15.813Z,,,,1,-1.0143509683988825,1.3163955902021656,,,true,hl,4883.655999988085,response,0.948927472020595,1.2,-1.2,-1.0660437155921598,1.2,-1.2,high,low,,ISIC_0062031.JPG,,ISIC_5808758.JPG,27,true,0.42000000000000026,hl,keypress(j),0,false,225770.79999998212,225770.69999998808,220870.244,220876.39999997616,220887.044,225786.995,1,40,24,
sequence,flow.Sequence,6_23,2023-11-17T15:35:15.814Z,,,,,,,,,,,4883.655999988085,completion,,,,,,,high,low,,,,,,true,,,,,false,225771,225770.69999998808,220870.244,220876.29999998212,220887.044,225786.995,1,40,,
trial,html.Screen,6_24_0,2023-11-17T15:35:18.918Z,,,,1,-1.011737552725394,0.8500530224490773,,,true,hl,3087.8049999821233,response,0.7809949855371787,1.2,-1.2,-0.8493861117004308,1.2,-1.2,high,low,,ISIC_2998367.JPG,,ISIC_7450481.JPG,27,true,0.42000000000000026,hl,keypress(j),0,false,228874.89999997616,228874.79999998212,225770.126,225771,225786.995,228887.236,1,40,25,
sequence,flow.Sequence,6_24,2023-11-17T15:35:18.918Z,,,,,,,,,,,3087.8049999821233,completion,,,,,,,high,low,,,,,,true,,,,,false,228875.09999999404,228874.79999998212,225770.126,225771,225786.995,228887.236,1,40,,
trial,html.Screen,6_25_0,2023-11-17T15:35:22.846Z,,,,1,1.2952503640839694,1.107234527385344,,,true,ll,3915.863999994035,response,-0.8626849314423831,1.2,-1.2,-0.8919402924145458,1.2,-1.2,low,low,,ISIC_0034134.JPG,,ISIC_0026371.JPG,179,true,0.3600000000000002,ll,keypress(f),0,false,232803.29999998212,232803.09999999404,228870.461,228875.19999998808,228887.236,232820.311,1,40,26,
sequence,flow.Sequence,6_25,2023-11-17T15:35:22.846Z,,,,,,,,,,,3915.863999994035,completion,,,,,,,low,low,,,,,,true,,,,,false,232803.5,232803.09999999404,228870.461,228875.19999998808,228887.236,232820.311,1,40,,
trial,html.Screen,6_26_0,2023-11-17T15:35:26.222Z,,,,1,-0.8487429103619056,0.9778257804233036,,,true,hl,3358.588999976171,response,0.8035152873995188,1.2,-1.2,-0.82868450251632,1.2,-1.2,high,low,,ISIC_4554863.JPG,,ISIC_0010671.JPG,27,true,0.42000000000000026,hl,keypress(j),0,false,236179.09999999404,236178.89999997616,232803.654,232803.59999999404,232820.311,236186.999,1,40,27,
sequence,flow.Sequence,6_26,2023-11-17T15:35:26.222Z,,,,,,,,,,,3358.588999976171,completion,,,,,,,high,low,,,,,,true,,,,,false,236179.19999998808,236178.89999997616,232803.654,232803.59999999404,232820.311,236186.999,1,40,,
trial,html.Screen,6_27_0,2023-11-17T15:35:29.134Z,,,,1,-0.9579209317488,1.0147487101263497,,,true,hl,2904.600999994029,response,0.809764442462202,1.2,-1.2,-1.005337148078696,1.2,-1.2,high,low,,ISIC_8124482.JPG,,ISIC_2379379.JPG,27,true,0.42000000000000026,hl,keypress(j),0,false,239091.89999997616,239091.59999999404,236170.328,236179.29999998212,236186.999,239103.682,1,40,28,
sequence,flow.Sequence,6_27,2023-11-17T15:35:29.135Z,,,,,,,,,,,2904.600999994029,completion,,,,,,,high,low,,,,,,true,,,,,false,239092.19999998808,239091.59999999404,236170.328,236179.29999998212,236186.999,239103.682,1,40,,
trial,html.Screen,6_28_0,2023-11-17T15:35:34.174Z,,,,1,0.7911024675435955,-0.7975977016137676,,,true,lh,5027.417999994039,response,-0.8809306963311293,1.2,-1.2,0.8614910030038974,1.2,-1.2,low,high,,ISIC_5813642.JPG,,ISIC_0013731.JPG,26,true,0.3600000000000002,lh,keypress(e),0,false,244131.29999998212,244131.09999999404,239087.032,239092.39999997616,239103.682,244137.044,1,40,29,
sequence,flow.Sequence,6_28,2023-11-17T15:35:34.174Z,,,,,,,,,,,5027.417999994039,completion,,,,,,,low,high,,,,,,true,,,,,false,244131.39999997616,244131.09999999404,239087.032,239092.29999998212,239103.682,244137.044,1,40,,
trial,html.Screen,6_29_0,2023-11-17T15:35:38.094Z,,,,1,1.2493792664822851,1.1336008561684745,,,true,ll,3914.555999994045,response,-1.030423594637164,1.2,-1.2,-0.9418036199165556,1.2,-1.2,low,low,,ISIC_0061475.JPG,,ISIC_0010299.JPG,253,true,0.42000000000000026,ll,keypress(f),0,false,248051.69999998808,248051.59999999404,244120.186,244131.5,244137.044,248070.976,1,40,30,
sequence,flow.Sequence,6_29,2023-11-17T15:35:38.095Z,,,,,,,,,,,3914.555999994045,completion,,,,,,,low,low,,,,,,true,,,,,false,248052.09999999404,248051.59999999404,244120.186,244131.5,244137.044,248070.976,1,40,,
trial,html.Screen,6_30_0,2023-11-17T15:35:42.662Z,,,,1,-1.0026266089287914,1.0913275913920335,,,true,hl,4548.423999976163,response,1.0213365328004047,1.2,-1.2,-1.088524359911891,1.2,-1.2,high,low,,ISIC_0033520.JPG,,ISIC_5434229.JPG,27,true,0.42000000000000026,hl,keypress(j),0,false,252619.59999999404,252619.39999997616,248036.882,248052.19999998808,248070.976,252637.018,1,40,31,
sequence,flow.Sequence,6_30,2023-11-17T15:35:42.663Z,,,,,,,,,,,4548.423999976163,completion,,,,,,,high,low,,,,,,true,,,,,false,252619.89999997616,252619.39999997616,248036.882,248052.19999998808,248070.976,252637.018,1,40,,
trial,html.Screen,6_31_0,2023-11-17T15:35:45.566Z,,,,1,-0.9454713230140772,0.9245167441969216,,,true,hl,2885.881999976147,response,1.0022829373011404,1.2,-1.2,-0.8311726972863814,1.2,-1.2,high,low,,ISIC_9101055.JPG,,ISIC_0033287.JPG,27,true,0.42000000000000026,hl,keypress(j),0,false,255523.09999999404,255522.89999997616,252620.226,252620.09999999404,252637.018,255537.025,1,40,32,
sequence,flow.Sequence,6_31,2023-11-17T15:35:45.566Z,,,,,,,,,,,2885.881999976147,completion,,,,,,,high,low,,,,,,true,,,,,false,255523.19999998808,255522.89999997616,252620.226,252620.09999999404,252637.018,255537.025,1,40,,
trial,html.Screen,6_32_0,2023-11-17T15:35:49.622Z,,,,1,0.991146183030456,-0.9949639823722534,,,true,lh,4041.7749999821244,response,-1.331700944308701,1.2,-1.2,0.9395196143259436,1.2,-1.2,low,high,,ISIC_6342224.JPG,,ISIC_1668831.JPG,26,true,0.3600000000000002,lh,keypress(e),0,false,259578.89999997616,259578.79999998212,255520.305,255523.29999998212,255537.025,259587.05,1,40,33,
sequence,flow.Sequence,6_32,2023-11-17T15:35:49.623Z,,,,,,,,,,,4041.7749999821244,completion,,,,,,,low,high,,,,,,true,,,,,false,259579.09999999404,259578.79999998212,255520.305,255523.29999998212,255537.025,259587.05,1,40,,
trial,html.Screen,6_33_0,2023-11-17T15:35:52.439Z,,,,1,1.276222161935671,-0.9657780821973284,,,true,lh,2808.2499999821302,response,-0.869932994914832,1.2,-1.2,0.8880533324432531,1.2,-1.2,low,high,,ISIC_6710411.JPG,,ISIC_8617084.JPG,33,true,0.42000000000000026,lh,keypress(e),0,false,262395.59999999404,262395.2999999821,259570.407,259579.29999998212,259587.05,262403.768,1,40,34,
sequence,flow.Sequence,6_33,2023-11-17T15:35:52.439Z,,,,,,,,,,,2808.2499999821302,completion,,,,,,,low,high,,,,,,true,,,,,false,262395.89999997616,262395.2999999821,259570.407,259579.19999998808,259587.05,262403.768,1,40,,
trial,html.Screen,6_34_0,2023-11-17T15:35:55.663Z,,,,1,-0.9579209317488,1.0147487101263497,,,true,hl,3215.1319999761763,response,0.8947611078712571,1.2,-1.2,-0.8960964505004638,1.2,-1.2,high,low,,ISIC_8124482.JPG,,ISIC_6441128.JPG,27,true,0.42000000000000026,hl,keypress(j),0,false,265619,265618.89999997616,262387.18,262396.09999999404,262403.768,265638.447,1,40,35,
sequence,flow.Sequence,6_34,2023-11-17T15:35:55.663Z,,,,,,,,,,,3215.1319999761763,completion,,,,,,,high,low,,,,,,true,,,,,false,265619.1999999881,265618.89999997616,262387.18,262396.09999999404,262403.768,265638.447,1,40,,
trial,html.Screen,6_35_0,2023-11-17T15:35:57.894Z,,,,1,-1.2706447584800626,-1.0903308007916603,,,true,hh,2212.352999982133,response,1.3106425847970045,1.2,-1.2,1.5470937147118164,1.2,-1.2,high,high,,ISIC_9425937.JPG,,ISIC_0063164.JPG,245,true,0.3600000000000002,hh,keypress(i),0,false,267851,267850.7999999821,265603.704,265619.1999999881,265638.447,267870.384,1,40,36,
sequence,flow.Sequence,6_35,2023-11-17T15:35:57.895Z,,,,,,,,,,,2212.352999982133,completion,,,,,,,high,high,,,,,,true,,,,,false,267851,267850.7999999821,265603.704,265619.1999999881,265638.447,267870.384,1,40,,
trial,html.Screen,6_36_0,2023-11-17T15:36:00.704Z,,,,1,-0.991282840649944,0.9397921099839784,,,true,hl,2789.815999988059,response,0.991146183030456,1.2,-1.2,-0.9949639823722534,1.2,-1.2,high,low,,ISIC_0000463.JPG,,ISIC_6342224.JPG,27,true,0.42000000000000026,hl,keypress(j),0,false,270660.39999997616,270660.1999999881,267837.065,267851.1999999881,267870.384,270670.35,1,40,37,
sequence,flow.Sequence,6_36,2023-11-17T15:36:00.704Z,,,,,,,,,,,2789.815999988059,completion,,,,,,,high,low,,,,,,true,,,,,false,270660.7999999821,270660.1999999881,267837.065,267851.09999999404,267870.384,270670.35,1,40,,
trial,html.Screen,6_37_0,2023-11-17T15:36:03.031Z,,,,1,1.247270138097585,1.1704704713504994,,,true,ll,2316.5499999761814,response,-0.9949403898803344,1.2,-1.2,-1.0036806409150678,1.2,-1.2,low,low,,ISIC_0065774.JPG,,ISIC_0012450.JPG,179,true,0.3600000000000002,ll,keypress(f),0,false,272987.09999999404,272986.89999997616,270653.838,270661,270670.35,273003.726,1,40,38,
sequence,flow.Sequence,6_37,2023-11-17T15:36:03.031Z,,,,,,,,,,,2316.5499999761814,completion,,,,,,,low,low,,,,,,true,,,,,false,272987.2999999821,272986.89999997616,270653.838,270661,270670.35,273003.726,1,40,,
trial,html.Screen,6_38_0,2023-11-17T15:36:05.831Z,,,,1,0.7809949855371787,-0.8493861117004308,,,true,lh,2783.8739999940153,response,-0.9696118525781644,1.2,-1.2,0.9244148283103414,1.2,-1.2,low,high,,ISIC_7450481.JPG,,ISIC_7927525.JPG,26,true,0.3600000000000002,lh,keypress(e),0,false,275787.7999999821,275787.59999999404,272987.075,272987.39999997616,273003.726,275803.967,1,40,39,
sequence,flow.Sequence,6_38,2023-11-17T15:36:05.832Z,,,,,,,,,,,2783.8739999940153,completion,,,,,,,low,high,,,,,,true,,,,,false,275788.09999999404,275787.59999999404,272987.075,272987.39999997616,273003.726,275803.967,1,40,,
trial,html.Screen,6_39_0,2023-11-17T15:36:08.799Z,,,,1,-1.2706447584800626,-1.0903308007916603,,,true,hh,2950.932999976154,response,1.3712599219012442,1.2,-1.2,1.101407494584436,1.2,-1.2,high,high,,ISIC_9425937.JPG,,ISIC_0062318.JPG,339,true,0.42000000000000026,hh,keypress(i),0,false,278755.09999999404,278754.89999997616,275787.21,275788.2999999821,275803.967,278770.646,1,40,40,
sequence,flow.Sequence,6_39,2023-11-17T15:36:08.799Z,,,,,,,,,,,2950.932999976154,completion,,,,,,,high,high,,,,,,true,,,,,false,278755.2999999821,278754.89999997616,275787.21,275788.1999999881,275803.967,278770.646,1,40,,
practice_loop,flow.Loop,6,2023-11-17T15:36:08.799Z,,,,,,,,,,,138684.69099997616,completion,,,,,,,,,,,,,,true,,,,,false,278755.2999999821,278754.89999997616,140020.435,140043.09999999404,140070.209,278770.646,1,40,,
stair_instructions,html.Screen,7,2023-11-17T15:36:21.566Z,,,,,,,,,,,12751.553999988071,response,,,,,,,,,,,,,,,,continue,click button,,,291522.6999999881,291522.1999999881,278753.694,278755.39999997616,278770.646,291537.154,,,,
trial,html.Screen,8_0_0,2023-11-17T15:36:30.061Z,,,,2,-0.0112310719058792,0.0469047359904117,,0.05,false,ll,8480.34600000002,response,-1.0789197754694622,1.2,-1.2,-1.1654690806750023,1.2,-1.2,low,low,,ISIC_0068184.JPG,,ISIC_1576437.JPG,26,false,0.15000000000000002,lh,keypress(e),0,true,300017.59999999404,300017.5,291520.46,291522.89999997616,291537.154,300037.111,1,40,1,
sequence,flow.Sequence,8_0,2023-11-17T15:36:30.061Z,,,,,,,,,,,8480.34600000002,completion,,,,,,,low,low,,,,,,false,,,,,true,300018,300017.5,291520.46,291522.89999997616,291537.154,300037.111,1,40,,
trial,html.Screen,8_1_0,2023-11-17T15:36:34.912Z,,,,2,0.0116094682222121,-0.0258434522530318,,0.05,false,hl,4830.889000000025,response,1.0022829373011404,1.15,-1.15,-0.8311726972863814,1.15,-1.2,high,low,,ISIC_9239632.JPG,,ISIC_0033287.JPG,28,false,0.41000000000000025,ll,keypress(f),0,true,304868.2999999821,304868,300020.455,300018.09999999404,300037.111,304870.491,1,40,2,
sequence,flow.Sequence,8_1,2023-11-17T15:36:34.912Z,,,,,,,,,,,4830.889000000025,completion,,,,,,,high,low,,,,,,false,,,,,true,304868.7999999821,304868,300020.455,300018,300037.111,304870.491,1,40,,
trial,html.Screen,8_2_0,2023-11-17T15:36:40.615Z,,,,2,0.0389988030702649,0.0143212271490256,,0.05,true,hh,5701.10899999406,response,1.0698162624196283,1.15,-1.15,1.219634566983089,1.15,-1.15,high,high,,ISIC_0064669.JPG,,ISIC_0030552.JPG,27,false,0.1,hh,keypress(i),0,true,310571.89999997616,310571.59999999404,304853.701,304868.7999999821,304870.491,310587.165,1,40,3,
sequence,flow.Sequence,8_2,2023-11-17T15:36:40.616Z,,,,,,,,,,,5701.10899999406,completion,,,,,,,high,high,,,,,,false,,,,,true,310572.1999999881,310571.59999999404,304853.701,304868.7999999821,304870.491,310587.165,1,40,,
trial,html.Screen,8_3_0,2023-11-17T15:36:51.516Z,,,,2,-0.0188047466661863,0.0288346930436979,,0.05,true,ll,10883.835000000021,response,-1.0565911491759823,1.15,-1.15,-1.0221582682700174,1.15,-1.15,low,low,,ISIC_0014157.JPG,,ISIC_6604862.JPG,30,false,0.13,ll,keypress(f),0,true,321471.09999999404,321471,310570.37,310572.39999997616,310587.165,321487.125,1,40,4,
sequence,flow.Sequence,8_3,2023-11-17T15:36:51.516Z,,,,,,,,,,,10883.835000000021,completion,,,,,,,low,low,,,,,,false,,,,,true,321471.2999999821,321471,310570.37,310572.2999999821,310587.165,321487.125,1,40,,
trial,html.Screen,8_4_0,2023-11-17T15:36:53.968Z,,,,2,0.0450282431170921,,,0.05,true,hh,2436.574999988079,response,1.2249552940807693,1.15,-1.0999999999999999,1.1723015116910682,1.15,-1.0999999999999999,high,high,,ISIC_1805163.JPG,,ISIC_0055251.JPG,27,false,0.1,hh,keypress(i),0,true,323923.89999997616,323923.6999999881,321470.016,321471.39999997616,321487.125,323937.1,1,40,5,
sequence,flow.Sequence,8_4,2023-11-17T15:36:53.969Z,,,,,,,,,,,2436.574999988079,completion,,,,,,,high,high,,,,,,false,,,,,true,323924.2999999821,323923.6999999881,321470.016,321471.39999997616,321487.125,323937.1,1,40,,
trial,html.Screen,8_5_0,2023-11-17T15:37:00.928Z,,,,2,0.0116094682222121,-0.0258434522530318,,0.05,false,hh,6946.400000000023,response,1.135372722680314,1.1459680393370786,-1.0999999999999999,1.0926414044454305,1.1459680393370786,-1.0999999999999999,high,high,,ISIC_9239632.JPG,,ISIC_2355513.JPG,26,false,0.1,hl,keypress(j),0,true,330883.59999999404,330883.5,323920.407,323924.39999997616,323937.1,330887.138,1,40,6,
sequence,flow.Sequence,8_5,2023-11-17T15:37:00.928Z,,,,,,,,,,,6946.400000000023,completion,,,,,,,high,high,,,,,,false,,,,,true,330883.7999999821,330883.5,323920.407,323924.39999997616,323937.1,330887.138,1,40,,
trial,html.Screen,8_6_0,2023-11-17T15:37:05.688Z,,,,2,0.0027483411352856,0.0100996915276271,,0.05,false,ll,4756.261999976181,response,-1.037577073517966,1.1459680393370786,-1.0999999999999999,-1.027048110709042,1.1959680393370786,-1.0999999999999999,low,low,,ISIC_7364041.JPG,,ISIC_0004932.JPG,30,false,0.11,lh,keypress(e),0,true,335643.6999999881,335643.39999997616,330870.213,330884,330887.138,335653.803,1,40,7,
sequence,flow.Sequence,8_6,2023-11-17T15:37:05.688Z,,,,,,,,,,,4756.261999976181,completion,,,,,,,low,low,,,,,,false,,,,,true,335643.89999997616,335643.39999997616,330870.213,330883.89999997616,330887.138,335653.803,1,40,,
trial,html.Screen,8_7_0,2023-11-17T15:37:09.999Z,,,,2,-0.0102460616775615,0.0309670599545429,,0.05,false,hl,4301.196999999986,response,0.7871162143493278,1.1459680393370786,-1.0999999999999999,-0.8429329800778957,1.1959680393370786,-1.15,high,low,,ISIC_0072041.JPG,,ISIC_3439215.JPG,27,false,0.3700000000000002,ll,keypress(f),0,true,339955.09999999404,339955,335637.047,335643.89999997616,335653.803,339970.634,1,40,8,
sequence,flow.Sequence,8_7,2023-11-17T15:37:10.000Z,,,,,,,,,,,4301.196999999986,completion,,,,,,,high,low,,,,,,false,,,,,true,339955.2999999821,339955,335637.047,335643.89999997616,335653.803,339970.634,1,40,,
trial,html.Screen,8_8_0,2023-11-17T15:37:13.888Z,,,,2,-0.0051189696037511,0.0396625911332438,,0.05,true,ll,3872.86599999998,response,-1.1210325063849345,1.1959680393370786,-1.0999999999999999,-1.1498648320956202,1.1959680393370786,-1.15,low,low,,ISIC_9742891.JPG,,ISIC_0032162.JPG,30,false,0.13,ll,keypress(f),0,true,343843.6999999881,343843.5,339953.909,339955.2999999821,339970.634,343853.829,1,40,9,
sequence,flow.Sequence,8_8,2023-11-17T15:37:13.888Z,,,,,,,,,,,3872.86599999998,completion,,,,,,,low,low,,,,,,false,,,,,true,343844,343843.5,339953.909,339955.2999999821,339970.634,343853.829,1,40,,
trial,html.Screen,8_9_0,2023-11-17T15:37:15.752Z,,,,2,-0.0362376068089956,-0.047825070846155,,0.05,true,hh,1853.870999988052,response,1.101214461533281,1.1959680393370786,-0.9463989060867579,1.1849883512428183,1.1959680393370786,-0.9463989060867579,high,high,,ISIC_6985114.JPG,,ISIC_0064943.JPG,30,false,0.1,hh,keypress(i),0,true,345707.89999997616,345707.6999999881,343837.26,343844.09999999404,343853.829,345720.518,1,40,10,
sequence,flow.Sequence,8_9,2023-11-17T15:37:15.753Z,,,,,,,,,,,1853.870999988052,completion,,,,,,,high,high,,,,,,false,,,,,true,345708.1999999881,345707.6999999881,343837.26,343844.09999999404,343853.829,345720.518,1,40,,
trial,html.Screen,8_10_0,2023-11-17T15:37:18.272Z,,,,2,-0.0188047466661863,0.0288346930436979,,0.05,false,hl,2506.8819999761763,response,1.3439633576785148,1.1959680393370786,-0.9463989060867579,-0.632627305170864,1.1959680393370786,-0.9463989060867579,high,low,,ISIC_0014157.JPG,,ISIC_9482251.JPG,26,false,0.3200000000000002,hh,keypress(i),0,true,348227.6999999881,348227.39999997616,345704.022,345708.2999999821,345720.518,348237.224,1,40,11,
sequence,flow.Sequence,8_10,2023-11-17T15:37:18.272Z,,,,,,,,,,,2506.8819999761763,completion,,,,,,,high,low,,,,,,false,,,,,true,348227.89999997616,348227.39999997616,345704.022,345708.2999999821,345720.518,348237.224,1,40,,
trial,html.Screen,8_11_0,2023-11-17T15:37:22.952Z,,,,2,-0.013431314305098,0.0140597582944232,,0.05,false,hh,4669.875999994052,response,1.1346217981791904,1.1644758544606666,-0.9463989060867579,1.1555132168806113,1.1959680393370786,-0.996398906086758,high,high,,ISIC_0069617.JPG,,ISIC_0032771.JPG,29,false,0.1,hl,keypress(j),0,true,352907.1999999881,352907.09999999404,348220.67,348228.09999999404,348237.224,352920.481,1,40,12,
sequence,flow.Sequence,8_11,2023-11-17T15:37:22.952Z,,,,,,,,,,,4669.875999994052,completion,,,,,,,high,high,,,,,,false,,,,,true,352907.39999997616,352907.09999999404,348220.67,348228.09999999404,348237.224,352920.481,1,40,,
trial,html.Screen,8_12_0,2023-11-17T15:37:26.912Z,,,,2,0.0050679133050021,-0.0009714874637896,,0.05,false,hl,3947.1189999940107,response,0.9388660854518424,1.1644758544606666,-0.9463989060867579,-0.79533948698576,1.1959680393370786,-0.996398906086758,high,low,,ISIC_9848743.JPG,,ISIC_9291926.JPG,25,false,0.31000000000000016,hh,keypress(i),0,true,356867.7999999821,356867.59999999404,352903.689,352907.5,352920.481,356887.2,1,40,13,
sequence,flow.Sequence,8_12,2023-11-17T15:37:26.913Z,,,,,,,,,,,3947.1189999940107,completion,,,,,,,high,low,,,,,,false,,,,,true,356868.1999999881,356867.59999999404,352903.689,352907.5,352920.481,356887.2,1,40,,
trial,html.Screen,8_13_0,2023-11-17T15:37:29.448Z,,,,2,-0.0051189696037511,0.0396625911332438,,0.05,false,lh,2515.899999994028,response,-1.0751036484083878,0.9867439418155164,-0.9463989060867579,1.143906455483852,1.1959680393370786,-1.046398906086758,low,high,,ISIC_9742891.JPG,,ISIC_0064406.JPG,28,false,0.2600000000000001,hh,keypress(i),0,true,359403.2999999821,359403.09999999404,356853.752,356868.39999997616,356887.2,359420.506,1,40,14,
sequence,flow.Sequence,8_13,2023-11-17T15:37:29.448Z,,,,,,,,,,,2515.899999994028,completion,,,,,,,low,high,,,,,,false,,,,,true,359403.39999997616,359403.09999999404,356853.752,356868.2999999821,356887.2,359420.506,1,40,,
trial,html.Screen,8_14_0,2023-11-17T15:37:31.271Z,,,,2,0.0329095507339554,-0.0382899749693245,,0.05,true,hh,1806.2939999821247,response,0.9049419708812736,0.9867439418155164,-0.996398906086758,1.1525122949771718,1.1959680393370786,-1.046398906086758,high,high,,ISIC_8812781.JPG,,ISIC_0011348.JPG,27,false,0.1,hh,keypress(i),0,true,361226.7999999821,361226.7999999821,359387.342,359403.59999999404,359420.506,361237.245,1,40,15,
sequence,flow.Sequence,8_14,2023-11-17T15:37:31.271Z,,,,,,,,,,,1806.2939999821247,completion,,,,,,,high,high,,,,,,false,,,,,true,361226.89999997616,361226.7999999821,359387.342,359403.5,359420.506,361237.245,1,40,,
trial,html.Screen,8_15_0,2023-11-17T15:37:32.991Z,,,,2,0.0456515796420274,-0.0273567130070961,,0.05,true,hh,1709.3549999940442,response,0.8990371936242809,0.9867439418155164,-0.996398906086758,0.9654850730344297,0.9787271329292226,-1.046398906086758,high,high,,ISIC_0068610.JPG,,ISIC_0010308.JPG,44,false,0.1,hh,keypress(i),0,true,362946.6999999881,362946.59999999404,361220.529,361227,361237.245,362953.852,1,40,16,
sequence,flow.Sequence,8_15,2023-11-17T15:37:32.991Z,,,,,,,,,,,1709.3549999940442,completion,,,,,,,high,high,,,,,,false,,,,,true,362946.7999999821,362946.59999999404,361220.529,361227,361237.245,362953.852,1,40,,
trial,html.Screen,8_16_0,2023-11-17T15:37:38.671Z,,,,2,0.0116094682222121,-0.0258434522530318,,0.05,false,hl,5672.847999988066,response,0.7723849213858904,0.8822611333293553,-0.996398906086758,-0.888372424147899,0.9787271329292226,-1.046398906086758,high,low,,ISIC_9239632.JPG,,ISIC_3884221.JPG,25,false,0.22000000000000008,hh,keypress(i),0,true,368626.7999999821,368626.6999999881,362937.155,362946.89999997616,362953.852,368637.202,1,40,17,
sequence,flow.Sequence,8_16,2023-11-17T15:37:38.671Z,,,,,,,,,,,5672.847999988066,completion,,,,,,,high,low,,,,,,false,,,,,true,368626.89999997616,368626.6999999881,362937.155,362946.89999997616,362953.852,368637.202,1,40,,
trial,html.Screen,8_17_0,2023-11-17T15:37:44.871Z,,,,2,0.0456515796420274,-0.0273567130070961,,0.05,false,ll,6189.397999994049,response,-0.9859190680307316,0.8822611333293553,-0.996398906086758,-1.0904756837966545,0.9787271329292226,-1.096398906086758,low,low,,ISIC_0068610.JPG,,ISIC_0063151.JPG,34,false,0.1,lh,keypress(e),0,true,374826.7999999821,374826.59999999404,368620.305,368627,368637.202,374837.202,1,40,18,
sequence,flow.Sequence,8_17,2023-11-17T15:37:44.871Z,,,,,,,,,,,6189.397999994049,completion,,,,,,,low,low,,,,,,false,,,,,true,374826.7999999821,374826.59999999404,368620.305,368627,368637.202,374837.202,1,40,,
trial,html.Screen,8_18_0,2023-11-17T15:37:52.001Z,,,,2,-0.0112310719058792,0.0469047359904117,,0.05,true,hl,7118.79800000001,response,0.6864497754928831,0.8822611333293553,-0.996398906086758,-1.0456580051873738,0.9787271329292226,-1.146398906086758,high,low,,ISIC_0068184.JPG,,ISIC_0055388.JPG,27,false,0.2600000000000001,hl,keypress(j),0,true,381956.1999999881,381956,374820.333,374826.89999997616,374837.202,381970.55,1,40,19,
sequence,flow.Sequence,8_18,2023-11-17T15:37:52.001Z,,,,,,,,,,,7118.79800000001,completion,,,,,,,high,low,,,,,,false,,,,,true,381956.5,381956,374820.333,374826.89999997616,374837.202,381970.55,1,40,,
trial,html.Screen,8_19_0,2023-11-17T15:37:56.672Z,,,,2,0.0107854985447517,0.0478010417136109,,0.05,false,ll,4656.84999997617,response,-1.0858641668099058,0.8322611333293553,-0.996398906086758,-1.1638942560200525,0.9787271329292226,-1.146398906086758,low,low,,ISIC_0010500.JPG,,ISIC_5439597.JPG,25,false,0.11,lh,keypress(e),0,true,386627.59999999404,386627.39999997616,381953.62,381956.6999999881,381970.55,386653.888,1,40,20,
sequence,flow.Sequence,8_19,2023-11-17T15:37:56.673Z,,,,,,,,,,,4656.84999997617,completion,,,,,,,low,low,,,,,,false,,,,,true,386628,386627.39999997616,381953.62,381956.59999999404,381970.55,386653.888,1,40,,
trial,html.Screen,8_20_0,2023-11-17T15:37:59.312Z,,,,2,0.0085520978188085,-0.0464691161264081,,0.05,false,hl,2613.112000000023,response,0.661371304428672,0.8322611333293553,-1.01576108599864,-1.0907423478129648,0.9787271329292226,-1.1963989060867581,high,low,,ISIC_0758797.JPG,,ISIC_6860222.JPG,27,false,0.27000000000000013,lh,keypress(e),0,true,389267.09999999404,389267,386620.4,386628.09999999404,386653.888,389270.53,1,40,21,
sequence,flow.Sequence,8_20,2023-11-17T15:37:59.312Z,,,,,,,,,,,2613.112000000023,completion,,,,,,,high,low,,,,,,false,,,,,true,389267.1999999881,389267,386620.4,386628,386653.888,389270.53,1,40,,
trial,html.Screen,8_21_0,2023-11-17T15:38:05.128Z,,,,2,-0.0188047466661863,0.0288346930436979,,0.05,false,lh,5812.569999994012,response,-0.869932994914832,0.8822611333293553,-1.01576108599864,0.8880533324432531,0.9787271329292226,-1.1963989060867581,low,high,,ISIC_0014157.JPG,,ISIC_8617084.JPG,26,false,0.22000000000000008,hl,keypress(j),0,true,395083.2999999821,395083.09999999404,389253.824,389267.2999999821,389270.53,395087.246,1,40,22,
sequence,flow.Sequence,8_21,2023-11-17T15:38:05.128Z,,,,,,,,,,,5812.569999994012,completion,,,,,,,low,high,,,,,,false,,,,,true,395083.5,395083.09999999404,389253.824,389267.2999999821,389270.53,395087.246,1,40,,
trial,html.Screen,8_22_0,2023-11-17T15:38:13.201Z,,,,2,0.007397293189458,0.0174716772037504,,0.05,false,lh,8068.453999988094,response,-1.2075172235545184,0.8822611333293553,-1.06576108599864,0.9116724966267612,1.0287271329292227,-1.1963989060867581,low,high,,ISIC_0056226.JPG,,ISIC_0024235.JPG,26,false,0.2300000000000001,ll,keypress(f),0,true,403155.89999997616,403155.6999999881,395070.399,395083.6999999881,395087.246,403170.572,1,40,23,
sequence,flow.Sequence,8_22,2023-11-17T15:38:13.201Z,,,,,,,,,,,8068.453999988094,completion,,,,,,,low,high,,,,,,false,,,,,true,403156.2999999821,403155.6999999881,395070.399,395083.6999999881,395087.246,403170.572,1,40,,
trial,html.Screen,8_23_0,2023-11-17T15:38:18.912Z,,,,2,0.0057914759495055,0.0074667911845194,,0.05,false,lh,5696.327999976173,response,-1.2364994561934892,0.8822611333293553,-1.06576108599864,0.9174173651516624,1.0787271329292227,-1.1963989060867581,low,high,,ISIC_0058723.JPG,,ISIC_3481133.JPG,25,false,0.2500000000000001,hl,keypress(j),0,true,408866.89999997616,408866.89999997616,403153.583,403156.39999997616,403170.572,408870.568,1,40,24,
sequence,flow.Sequence,8_23,2023-11-17T15:38:18.912Z,,,,,,,,,,,5696.327999976173,completion,,,,,,,low,high,,,,,,false,,,,,true,408867,408866.89999997616,403153.583,403156.2999999821,403170.572,408870.568,1,40,,
trial,html.Screen,8_24_0,2023-11-17T15:38:23.176Z,,,,2,0.0363437082783146,0.0333332186217051,,0.05,false,lh,4260.33199997613,response,-0.9579209317488,0.8822611333293553,-1.11576108599864,1.0147487101263497,1.1287271329292228,-1.1963989060867581,low,high,,ISIC_3314555.JPG,,ISIC_8124482.JPG,25,false,0.28000000000000014,hh,keypress(i),0,true,413131,413130.89999997616,408853.849,408867.09999999404,408870.568,413137.237,1,40,25,
sequence,flow.Sequence,8_24,2023-11-17T15:38:23.176Z,,,,,,,,,,,4260.33199997613,completion,,,,,,,low,high,,,,,,false,,,,,true,413131.09999999404,413130.89999997616,408853.849,408867.09999999404,408870.568,413137.237,1,40,,
trial,html.Screen,8_25_0,2023-11-17T15:38:31.536Z,,,,2,,-0.0264544974620926,,0.05,false,hl,8353.562999982096,response,0.618822996451284,0.8822611333293553,-1.16576108599864,-1.3127991243954888,1.1287271329292228,-1.1963989060867581,high,low,,ISIC_0056991.JPG,,ISIC_8613657.JPG,27,false,0.28000000000000014,hh,keypress(i),0,true,421490.89999997616,421490.7999999821,413120.561,413131.09999999404,413137.237,421503.926,1,40,26,
sequence,flow.Sequence,8_25,2023-11-17T15:38:31.536Z,,,,,,,,,,,8353.562999982096,completion,,,,,,,high,low,,,,,,false,,,,,true,421491,421490.7999999821,413120.561,413131.09999999404,413137.237,421503.926,1,40,,
trial,html.Screen,8_26_0,2023-11-17T15:38:33.568Z,,,,2,0.0329095507339554,-0.0382899749693245,,0.05,true,hh,2019.0740000000224,response,0.8826164980777871,0.8822611333293553,-1.16576108599864,1.0773466327271526,1.1287271329292228,-1.1963989060867581,high,high,,ISIC_8812781.JPG,,ISIC_0055169.JPG,41,false,0.1,hh,keypress(i),0,true,423523.1999999881,423523,421486.957,421491.09999999404,421503.926,423537.292,1,40,27,
sequence,flow.Sequence,8_26,2023-11-17T15:38:33.568Z,,,,,,,,,,,2019.0740000000224,completion,,,,,,,high,high,,,,,,false,,,,,true,423523.39999997616,423523,421486.957,421491.09999999404,421503.926,423537.292,1,40,,
trial,html.Screen,8_27_0,2023-11-17T15:38:39.256Z,,,,2,-0.0112310719058792,0.0469047359904117,,0.05,false,lh,5673.607999976142,response,-1.011737552725394,0.7980848145892183,-1.16576108599864,0.8500530224490773,0.7980848145892183,-1.1963989060867581,low,high,,ISIC_0068184.JPG,,ISIC_2998367.JPG,25,false,0.20000000000000007,ll,keypress(f),0,true,429211.09999999404,429210.89999997616,423520.557,423523.5,423537.292,429220.6,1,40,28,
sequence,flow.Sequence,8_27,2023-11-17T15:38:39.256Z,,,,,,,,,,,5673.607999976142,completion,,,,,,,low,high,,,,,,false,,,,,true,429211.1999999881,429210.89999997616,423520.557,423523.39999997616,423537.292,429220.6,1,40,,
trial,html.Screen,8_28_0,2023-11-17T15:38:41.641Z,,,,2,-0.0362376068089956,-0.047825070846155,,0.05,true,ll,2374.999999994063,response,-1.1210325063849345,0.7980848145892183,-1.16576108599864,-1.1498648320956202,0.8480848145892184,-1.1963989060867581,low,low,,ISIC_6985114.JPG,,ISIC_0032162.JPG,26,false,0.14,ll,keypress(f),0,true,431595.7999999821,431595.59999999404,429203.759,429211.1999999881,429220.6,431603.995,1,40,29,
sequence,flow.Sequence,8_28,2023-11-17T15:38:41.641Z,,,,,,,,,,,2374.999999994063,completion,,,,,,,low,low,,,,,,false,,,,,true,431596.09999999404,431595.59999999404,429203.759,429211.1999999881,429220.6,431603.995,1,40,,
trial,html.Screen,8_29_0,2023-11-17T15:38:44.849Z,,,,2,-0.0113873532168551,-0.0054999201556291,,0.05,false,hl,3199.604999994044,response,0.6386144741600837,0.7980848145892183,-1.0854486692402772,-0.9535552759852256,0.8480848145892184,-1.1963989060867581,high,low,,ISIC_8812621.JPG,,ISIC_1744817.JPG,29,false,0.27000000000000013,hh,keypress(i),0,true,434803.7999999821,434803.59999999404,431587.222,431596.2999999821,431603.995,434820.629,1,40,30,
sequence,flow.Sequence,8_29,2023-11-17T15:38:44.849Z,,,,,,,,,,,3199.604999994044,completion,,,,,,,high,low,,,,,,false,,,,,true,434804.1999999881,434803.59999999404,431587.222,431596.1999999881,431603.995,434820.629,1,40,,
trial,html.Screen,8_30_0,2023-11-17T15:38:55.376Z,,,,2,0.0027483411352856,0.0100996915276271,,0.05,true,lh,10510.470999994024,response,-0.8979276789594874,0.7980848145892183,-1.0854486692402772,0.925374811016654,0.8480848145892184,-1.1963989060867581,low,high,,ISIC_7364041.JPG,,ISIC_4208361.JPG,27,false,0.20000000000000007,lh,keypress(e),0,true,445331.09999999404,445331.09999999404,434803.873,434804.39999997616,434820.629,445337.28,1,40,31,
sequence,flow.Sequence,8_30,2023-11-17T15:38:55.377Z,,,,,,,,,,,10510.470999994024,completion,,,,,,,low,high,,,,,,false,,,,,true,445331.2999999821,445331.09999999404,434803.873,434804.2999999821,434820.629,445337.28,1,40,,
trial,html.Screen,8_31_0,2023-11-17T15:38:57.784Z,,,,2,0.0107854985447517,0.0478010417136109,,0.05,false,lh,2401.419999988051,response,-1.020990671779317,0.7980848145892183,-1.0854486692402772,1.0116513850520903,0.8480848145892184,-1.1963989060867581,low,high,,ISIC_0010500.JPG,,ISIC_0011995.JPG,27,false,0.20000000000000007,hh,keypress(i),0,true,447738.89999997616,447738.6999999881,445320.357,445331.2999999821,445337.28,447754.007,1,40,32,
sequence,flow.Sequence,8_31,2023-11-17T15:38:57.784Z,,,,,,,,,,,2401.419999988051,completion,,,,,,,low,high,,,,,,false,,,,,true,447739,447738.6999999881,445320.357,445331.2999999821,445337.28,447754.007,1,40,,
trial,html.Screen,8_32_0,2023-11-17T15:38:59.777Z,,,,2,-0.0245376145053177,0.0436993426328401,,0.05,true,hh,1977.4930000000168,response,0.8665886246441876,0.7980848145892183,-1.1354486692402772,0.8507210279123499,0.9185130980343721,-1.1963989060867581,high,high,,ISIC_0056444.JPG,,ISIC_1071355.JPG,51,false,0.1,hh,keypress(i),0,true,449731.59999999404,449731.5,447737.265,447739.09999999404,447754.007,449737.269,1,40,33,
sequence,flow.Sequence,8_32,2023-11-17T15:38:59.777Z,,,,,,,,,,,1977.4930000000168,completion,,,,,,,high,high,,,,,,false,,,,,true,449732,449731.5,447737.265,447739.09999999404,447754.007,449737.269,1,40,,
trial,html.Screen,8_33_0,2023-11-17T15:39:04.705Z,,,,2,0.0324770283903853,0.0249968632204382,,0.05,true,ll,4922.630999976187,response,-1.2724584600905462,0.8086548262782687,-1.1354486692402772,-1.1411016103695344,0.9185130980343721,-1.1963989060867581,low,low,,ISIC_7266462.JPG,,ISIC_0059625.JPG,28,false,0.14,ll,keypress(f),0,true,454660.1999999881,454659.89999997616,449720.625,449732.1999999881,449737.269,454687.31,1,40,34,
sequence,flow.Sequence,8_33,2023-11-17T15:39:04.706Z,,,,,,,,,,,4922.630999976187,completion,,,,,,,low,low,,,,,,false,,,,,true,454660.59999999404,454659.89999997616,449720.625,449732.09999999404,449737.269,454687.31,1,40,,
trial,html.Screen,8_34_0,2023-11-17T15:39:06.937Z,,,,2,-0.0051189696037511,0.0396625911332438,,0.05,false,lh,2204.489999982121,response,-1.0751036484083878,0.8086548262782687,-1.1354486692402772,1.143906455483852,0.9185130980343721,-1.1963989060867581,low,high,,ISIC_9742891.JPG,,ISIC_0064406.JPG,28,false,0.2400000000000001,hh,keypress(i),0,true,456892.09999999404,456891.7999999821,454653.922,454660.7999999821,454687.31,456904.135,1,40,35,
sequence,flow.Sequence,8_34,2023-11-17T15:39:06.938Z,,,,,,,,,,,2204.489999982121,completion,,,,,,,low,high,,,,,,false,,,,,true,456892.39999997616,456891.7999999821,454653.922,454660.6999999881,454687.31,456904.135,1,40,,
trial,html.Screen,8_35_0,2023-11-17T15:39:13.897Z,,,,2,0.0363437082783146,0.0333332186217051,,0.05,true,ll,6947.264999976149,response,-1.1210325063849345,0.8086548262782687,-1.1854486692402773,-1.1498648320956202,0.868513098034372,-1.1963989060867581,low,low,,ISIC_3314555.JPG,,ISIC_0032162.JPG,25,false,0.14,ll,keypress(f),0,true,463851.59999999404,463851.39999997616,456887.257,456892.59999999404,456904.135,463854.024,1,40,36,
sequence,flow.Sequence,8_35,2023-11-17T15:39:13.897Z,,,,,,,,,,,6947.264999976149,completion,,,,,,,low,low,,,,,,false,,,,,true,463851.89999997616,463851.39999997616,456887.257,456892.5,456904.135,463854.024,1,40,,
trial,html.Screen,8_36_0,2023-11-17T15:39:16.944Z,,,,2,0.0070725527271049,0.0049995141077508,,0.05,true,lh,3045.0759999940637,response,-0.990489579313564,0.8086548262782687,-1.1854486692402773,0.7747897983133127,0.868513098034372,-1.0854486692402772,low,high,,ISIC_6124481.JPG,,ISIC_7030404.JPG,25,false,0.22000000000000008,lh,keypress(e),0,true,466899.1999999881,466899.09999999404,463837.103,463852,463854.024,466903.991,1,40,37,
sequence,flow.Sequence,8_36,2023-11-17T15:39:16.945Z,,,,,,,,,,,3045.0759999940637,completion,,,,,,,low,high,,,,,,false,,,,,true,466899.39999997616,466899.09999999404,463837.103,463851.89999997616,463854.024,466903.991,1,40,,
trial,html.Screen,8_37_0,2023-11-17T15:39:19.120Z,,,,2,0.0389988030702649,0.0143212271490256,,0.05,true,hh,2170.8089999821386,response,0.838482148534353,0.8086548262782687,-1.1354486692402772,0.8179691667073062,0.868513098034372,-1.0854486692402772,high,high,,ISIC_0064669.JPG,,ISIC_0055079.JPG,54,false,0.1,hh,keypress(i),0,true,469074.89999997616,469074.7999999821,466887.332,466899.39999997616,466903.991,469087.348,1,40,38,
sequence,flow.Sequence,8_37,2023-11-17T15:39:19.120Z,,,,,,,,,,,2170.8089999821386,completion,,,,,,,high,high,,,,,,false,,,,,true,469075.09999999404,469074.7999999821,466887.332,466899.39999997616,466903.991,469087.348,1,40,,
trial,html.Screen,8_38_0,2023-11-17T15:39:22.985Z,,,,2,0.0057914759495055,0.0074667911845194,,0.05,true,ll,3852.05199997616,response,-1.0378929077920005,0.8086548262782687,-1.1354486692402772,-1.012953297890337,0.7782256576208295,-1.0854486692402772,low,low,,ISIC_0058723.JPG,,ISIC_0231745.JPG,27,false,0.1,ll,keypress(f),0,true,472939.6999999881,472939.39999997616,469070.782,469075.1999999881,469087.348,472954.103,1,40,39,
sequence,flow.Sequence,8_38,2023-11-17T15:39:22.985Z,,,,,,,,,,,3852.05199997616,completion,,,,,,,low,low,,,,,,false,,,,,true,472939.89999997616,472939.39999997616,469070.782,469075.09999999404,469087.348,472954.103,1,40,,
trial,html.Screen,8_39_0,2023-11-17T15:39:29.257Z,,,,2,0.0027483411352856,0.0100996915276271,,0.05,false,hl,6257.596999988076,response,0.7833710010171356,0.8086548262782687,-1.1354486692402772,-0.9315588090336896,0.7782256576208295,-1.0854486692402772,high,low,,ISIC_7364041.JPG,,ISIC_3826102.JPG,27,false,0.20000000000000007,lh,keypress(e),0,true,479211.89999997616,479211.6999999881,472937.269,472940.09999999404,472954.103,479220.693,1,40,40,
sequence,flow.Sequence,8_39,2023-11-17T15:39:29.257Z,,,,,,,,,,,6257.596999988076,completion,,,,,,,high,low,,,,,,false,,,,,true,479212.1999999881,479211.6999999881,472937.269,472940,472954.103,479220.693,1,40,,
stair_loop,flow.Loop,8,2023-11-17T15:39:29.258Z,,,,,,,,,,,187674.5459999881,completion,,,,,,,,,,,,,,false,,,,,true,479212.2999999821,479211.6999999881,291520.46,291522.7999999821,291537.154,479220.693,1,40,,
exp_instructions,html.Screen,9,2023-11-17T15:39:31.849Z,,,,,,,,,,,2581.906999994011,response,,,,,,,,,,,,,,,,continue,keypress(Space),,,481803.39999997616,481802.59999999404,479203.994,479212.5,479220.693,481820.655,,,,
trial,html.Screen,10_0_0,2023-11-17T15:39:45.341Z,,,,1,0.0057914759495055,0.0074667911845194,,0.05,false,hl,13474.944999994012,response,1.0213365328004047,0.8287460302394336,-1.1190892567815403,-1.088524359911891,0.9279521953449272,-1.1742088587174624,high,low,,ISIC_0058723.JPG,9,ISIC_5434229.JPG,26,false,0.2500000000000001,hh,keypress(i),0,false,495295.6999999881,495295.59999999404,481803.99,481803.59999999404,481820.655,495304.023,4,500,1,
break,html.Screen,10_0_1,2023-11-17T15:39:45.342Z,,,,,,,,,,,NaN,,,,,,,,high,low,,,,,,false,,,,,false,495296.2999999821,495296.1999999881,,495295.89999997616,,495304.023,4,500,,
break_continue,html.Screen,10_0_2,2023-11-17T15:39:45.342Z,,,,,,,,,,,NaN,,,,,,,,high,low,,,,,,false,,,,,false,495296.6999999881,495296.5,,495296.39999997616,,495304.023,4,500,,
sequence,flow.Sequence,10_0,2023-11-17T15:39:45.342Z,,,,,,,,,,,13475.844999999972,completion,,,,,,,high,low,,,,,,false,,,,,false,495296.7999999821,495296.5,481803.99,481803.59999999404,481820.655,495304.023,4,500,,
trial,html.Screen,10_1_0,2023-11-17T15:39:50.993Z,,,,1,0.0389988030702649,0.0143212271490256,,0.05,true,hl,5643.276999982132,response,0.809764442462202,0.8287460302394336,-1.1190892567815403,-1.005337148078696,0.9279521953449272,-1.1742088587174624,high,low,,ISIC_0064669.JPG,9,ISIC_2379379.JPG,26,false,0.2500000000000001,hl,keypress(j),0,false,500947.5,500947.2999999821,495287.068,495296.89999997616,495304.023,500954.038,4,500,2,
break,html.Screen,10_1_1,2023-11-17T15:39:50.994Z,,,,,,,,,,,NaN,,,,,,,,high,low,,,,,,false,,,,,false,500948.09999999404,500947.89999997616,,500947.6999999881,,500954.038,4,500,,
break_continue,html.Screen,10_1_2,2023-11-17T15:39:50.994Z,,,,,,,,,,,NaN,,,,,,,,high,low,,,,,,false,,,,,false,500948.5,500948.39999997616,,500948.2999999821,,500954.038,4,500,,
sequence,flow.Sequence,10_1,2023-11-17T15:39:50.994Z,,,,,,,,,,,5644.376999976172,completion,,,,,,,high,low,,,,,,false,,,,,false,500948.6999999881,500948.39999997616,495287.068,495296.7999999821,495304.023,500954.038,4,500,,
trial,html.Screen,10_2_0,2023-11-17T15:39:55.529Z,,,,1,0.0050679133050021,-0.0009714874637896,,0.05,false,ll,4529.261999982118,response,-1.086647361897092,0.8287460302394336,-1.1190892567815403,-1.1528935990320313,0.9279521953449272,-1.1742088587174624,low,low,,ISIC_9848743.JPG,8,ISIC_3505339.JPG,29,false,0.14,lh,keypress(e),0,false,505483.39999997616,505483.2999999821,500937.167,500948.89999997616,500954.038,505487.363,4,500,3,
break,html.Screen,10_2_1,2023-11-17T15:39:55.530Z,,,,,,,,,,,NaN,,,,,,,,low,low,,,,,,false,,,,,false,505484,505483.7999999821,,505483.59999999404,,505487.363,4,500,,
break_continue,html.Screen,10_2_2,2023-11-17T15:39:55.530Z,,,,,,,,,,,NaN,,,,,,,,low,low,,,,,,false,,,,,false,505484.2999999821,505484.1999999881,,505484,,505487.363,4,500,,
sequence,flow.Sequence,10_2,2023-11-17T15:39:55.530Z,,,,,,,,,,,4530.161999988079,completion,,,,,,,low,low,,,,,,false,,,,,false,505484.39999997616,505484.1999999881,500937.167,500948.7999999821,500954.038,505487.363,4,500,,
trial,html.Screen,10_3_0,2023-11-17T15:39:58.833Z,,,,1,0.0057914759495055,0.0074667911845194,,0.05,false,ll,3300.136999999988,response,-1.0316392011945703,0.8287460302394336,-1.1190892567815403,-1.1580619988377847,0.9279521953449272,-1.1742088587174624,low,low,,ISIC_0058723.JPG,9,ISIC_0054206.JPG,29,false,0.14,lh,keypress(e),0,false,508787.6999999881,508787.5,505470.771,505484.5,505487.363,508804.053,4,500,4,
break,html.Screen,10_3_1,2023-11-17T15:39:58.834Z,,,,,,,,,,,NaN,,,,,,,,low,low,,,,,,false,,,,,false,508788.39999997616,508788.2999999821,,508787.89999997616,,508804.053,4,500,,
break_continue,html.Screen,10_3_2,2023-11-17T15:39:58.835Z,,,,,,,,,,,NaN,,,,,,,,low,low,,,,,,false,,,,,false,508788.89999997616,508788.7999999821,,508788.59999999404,,508804.053,4,500,,
sequence,flow.Sequence,10_3,2023-11-17T15:39:58.835Z,,,,,,,,,,,3301.4369999821065,completion,,,,,,,low,low,,,,,,false,,,,,false,508789.09999999404,508788.7999999821,505470.771,505484.39999997616,505487.363,508804.053,4,500,,
trial,html.Screen,10_4_0,2023-11-17T15:40:03.521Z,,,,1,-0.0113873532168551,-0.0054999201556291,,0.05,false,hh,4671.046999994025,response,0.7712007550862314,0.8287460302394336,-1.1190892567815403,0.9604439431322372,0.9279521953449272,-1.1742088587174624,high,high,,ISIC_8812621.JPG,9,ISIC_0062077.JPG,50,false,0.1,hl,keypress(j),0,false,513475.2999999821,513475.09999999404,508787.284,508789.1999999881,508804.053,513487.431,4,500,5,
break,html.Screen,10_4_1,2023-11-17T15:40:03.521Z,,,,,,,,,,,NaN,,,,,,,,high,high,,,,,,false,,,,,false,513475.6999999881,513475.59999999404,,513475.39999997616,,513487.431,4,500,,
break_continue,html.Screen,10_4_2,2023-11-17T15:40:03.522Z,,,,,,,,,,,NaN,,,,,,,,high,high,,,,,,false,,,,,false,513476.09999999404,513475.89999997616,,513475.7999999821,,513487.431,4,500,,
sequence,flow.Sequence,10_4,2023-11-17T15:40:03.522Z,,,,,,,,,,,4671.846999976144,completion,,,,,,,high,high,,,,,,false,,,,,false,513476.1999999881,513475.89999997616,508787.284,508789.1999999881,508804.053,513487.431,4,500,,
trial,html.Screen,10_5_0,2023-11-17T15:40:06.288Z,,,,1,-0.0277178575053843,0.0395587463147856,,0.05,true,hh,2755.2689999880968,response,0.9152802917888962,0.8287460302394336,-1.1190892567815403,0.8414601987949015,0.9279521953449272,-1.1742088587174624,high,high,,ISIC_0010807.JPG,9,ISIC_0060341.JPG,50,false,0.1,hh,keypress(i),0,false,516242.7999999821,516242.6999999881,513470.726,513476.39999997616,513487.431,516254.052,4,500,6,
break,html.Screen,10_5_1,2023-11-17T15:40:06.289Z,,,,,,,,,,,NaN,,,,,,,,high,high,,,,,,false,,,,,false,516243.09999999404,516243,,516242.89999997616,,516254.052,4,500,,
break_continue,html.Screen,10_5_2,2023-11-17T15:40:06.289Z,,,,,,,,,,,NaN,,,,,,,,high,high,,,,,,false,,,,,false,516243.1999999881,516243.09999999404,,516243.09999999404,,516254.052,4,500,,
sequence,flow.Sequence,10_5,2023-11-17T15:40:06.289Z,,,,,,,,,,,2755.6689999940572,completion,,,,,,,high,high,,,,,,false,,,,,false,516243.2999999821,516243.09999999404,513470.726,513476.2999999821,513487.431,516254.052,4,500,,
trial,html.Screen,10_6_0,2023-11-17T15:40:09.281Z,,,,1,0.0456515796420274,-0.0273567130070961,,0.05,true,ll,2981.447999999975,response,-1.2024083555600384,0.8287460302394336,-1.1190892567815403,-1.149077673153018,0.9279521953449272,-1.1742088587174624,low,low,,ISIC_0068610.JPG,10,ISIC_3566243.JPG,29,false,0.14,ll,keypress(f),0,false,519235.7999999821,519235.5,516237.573,516243.2999999821,516254.052,519255.393,4,500,7,
break,html.Screen,10_6_1,2023-11-17T15:40:09.282Z,,,,,,,,,,,NaN,,,,,,,,low,low,,,,,,false,,,,,false,519236.59999999404,519236.5,,519236,,519255.393,4,500,,
break_continue,html.Screen,10_6_2,2023-11-17T15:40:09.283Z,,,,,,,,,,,NaN,,,,,,,,low,low,,,,,,false,,,,,false,519237.09999999404,519237,,519236.7999999821,,519255.393,4,500,,
sequence,flow.Sequence,10_6,2023-11-17T15:40:09.283Z,,,,,,,,,,,2982.947999999975,completion,,,,,,,low,low,,,,,,false,,,,,false,519237.2999999821,519237,516237.573,516243.2999999821,516254.052,519255.393,4,500,,
trial,html.Screen,10_7_0,2023-11-17T15:40:13.713Z,,,,1,-0.000047919190197942736,-0.0462652940855003,,0.05,false,ll,4411.906999982137,response,-1.0406934755278734,0.8287460302394336,-1.1190892567815403,-1.2406966347110775,0.9279521953449272,-1.1742088587174624,low,low,,ISIC_0011507.JPG,9,ISIC_2687641.JPG,29,false,0.14,lh,keypress(e),0,false,523667.5,523667.2999999821,519220.816,519237.5,519255.393,523670.729,4,500,8,
break,html.Screen,10_7_1,2023-11-17T15:40:13.714Z,,,,,,,,,,,NaN,,,,,,,,low,low,,,,,,false,,,,,false,523668,523667.89999997616,,523667.59999999404,,523670.729,4,500,,
break_continue,html.Screen,10_7_2,2023-11-17T15:40:13.714Z,,,,,,,,,,,NaN,,,,,,,,low,low,,,,,,false,,,,,false,523668.39999997616,523668.2999999821,,523668.1999999881,,523670.729,4,500,,
sequence,flow.Sequence,10_7,2023-11-17T15:40:13.714Z,,,,,,,,,,,4412.906999982137,completion,,,,,,,low,low,,,,,,false,,,,,false,523668.59999999404,523668.2999999821,519220.816,519237.5,519255.393,523670.729,4,500,,
trial,html.Screen,10_8_0,2023-11-17T15:40:19.745Z,,,,1,0.039728379742806,-0.0228701131373768,,0.05,false,ll,6028.271000000008,response,-1.0858641668099058,0.8287460302394336,-1.1190892567815403,-1.1638942560200525,0.9279521953449272,-1.1742088587174624,low,low,,ISIC_0054073.JPG,9,ISIC_5439597.JPG,29,false,0.14,lh,keypress(e),0,false,529699.099999994,529699,523654.186,523668.7999999821,523670.729,529704.068,4,500,9,
break,html.Screen,10_8_1,2023-11-17T15:40:19.745Z,,,,,,,,,,,NaN,,,,,,,,low,low,,,,,,false,,,,,false,529699.5,529699.3999999762,,529699.2999999821,,529704.068,4,500,,
break_continue,html.Screen,10_8_2,2023-11-17T15:40:19.745Z,,,,,,,,,,,NaN,,,,,,,,low,low,,,,,,false,,,,,false,529699.6999999881,529699.599999994,,529699.5,,529704.068,4,500,,
sequence,flow.Sequence,10_8,2023-11-17T15:40:19.745Z,,,,,,,,,,,6028.870999994047,completion,,,,,,,low,low,,,,,,false,,,,,false,529699.7999999821,529699.599999994,523654.186,523668.6999999881,523670.729,529704.068,4,500,,
trial,html.Screen,10_9_0,2023-11-17T15:40:28.169Z,,,,1,0.0116094682222121,-0.0258434522530318,,0.05,false,ll,8419.131999988109,response,-1.2503149164557643,0.8287460302394336,-1.1190892567815403,-1.0796591227570405,0.9279521953449272,-1.1742088587174624,low,low,,ISIC_9239632.JPG,8,ISIC_2466892.JPG,29,false,0.14,lh,keypress(e),0,false,538123.3999999762,538123.1999999881,529687.37,529699.7999999821,529704.068,538137.449,4,500,10,
break,html.Screen,10_9_1,2023-11-17T15:40:28.170Z,,,,,,,,,,,NaN,,,,,,,,low,low,,,,,,false,,,,,false,538124.1999999881,538123.8999999762,,538123.599999994,,538137.449,4,500,,
break_continue,html.Screen,10_9_2,2023-11-17T15:40:28.170Z,,,,,,,,,,,NaN,,,,,,,,low,low,,,,,,false,,,,,false,538124.599999994,538124.5,,538124.2999999821,,538137.449,4,500,,
sequence,flow.Sequence,10_9,2023-11-17T15:40:28.170Z,,,,,,,,,,,8420.43200000003,completion,,,,,,,low,low,,,,,,false,,,,,false,538124.8999999762,538124.5,529687.37,529699.7999999821,529704.068,538137.449,4,500,,
trial,html.Screen,10_10_0,2023-11-17T15:40:30.042Z,,,,1,0.0450282431170921,,,0.05,true,hh,1858.1509999940172,response,0.8068224817535752,0.8287460302394336,-1.1190892567815403,0.8996141262602615,0.9279521953449272,-1.1742088587174624,high,high,,ISIC_1805163.JPG,9,ISIC_0059601.JPG,50,false,0.1,hh,keypress(i),0,false,539995.8999999762,539995.599999994,538120.708,538125,538137.449,540020.759,4,500,11,
break,html.Screen,10_10_1,2023-11-17T15:40:30.042Z,,,,,,,,,,,NaN,,,,,,,,high,high,,,,,,false,,,,,false,539996.6999999881,539996.5,,539996.099999994,,540020.759,4,500,,
break_continue,html.Screen,10_10_2,2023-11-17T15:40:30.043Z,,,,,,,,,,,NaN,,,,,,,,high,high,,,,,,false,,,,,false,539997.2999999821,539997.099999994,,539996.8999999762,,540020.759,4,500,,
sequence,flow.Sequence,10_10,2023-11-17T15:40:30.043Z,,,,,,,,,,,1859.6509999940172,completion,,,,,,,high,high,,,,,,false,,,,,false,539997.3999999762,539997.099999994,538120.708,538125,538137.449,540020.759,4,500,,
trial,html.Screen,10_11_0,2023-11-17T15:40:31.593Z,,,,1,-0.0112310719058792,0.0469047359904117,,0.05,false,lh,1526.1409999761963,response,-1.2331439637486756,0.8287460302394336,-1.1190892567815403,0.9691143900156988,0.9279521953449272,-1.1742088587174624,low,high,,ISIC_0068184.JPG,9,ISIC_7877488.JPG,29,false,0.2400000000000001,hh,keypress(i),0,false,541547,541546.8999999762,539987.51,539997.6999999881,540020.759,541554.092,4,500,12,
break,html.Screen,10_11_1,2023-11-17T15:40:31.593Z,,,,,,,,,,,NaN,,,,,,,,low,high,,,,,,false,,,,,false,541547.5,541547.3999999762,,541547.1999999881,,541554.092,4,500,,
break_continue,html.Screen,10_11_2,2023-11-17T15:40:31.593Z,,,,,,,,,,,NaN,,,,,,,,low,high,,,,,,false,,,,,false,541547.6999999881,541547.599999994,,541547.5,,541554.092,4,500,,
sequence,flow.Sequence,10_11,2023-11-17T15:40:31.593Z,,,,,,,,,,,1526.8409999940777,completion,,,,,,,low,high,,,,,,false,,,,,false,541547.6999999881,541547.599999994,539987.51,539997.599999994,540020.759,541554.092,4,500,,
trial,html.Screen,10_12_0,2023-11-17T15:40:34.298Z,,,,1,-0.0113873532168551,-0.0054999201556291,,0.05,false,ll,2697.908000000054,response,-1.09666761087476,0.8287460302394336,-1.1190892567815403,-1.1072126870290426,0.9279521953449272,-1.1742088587174624,low,low,,ISIC_8812621.JPG,9,ISIC_0071754.JPG,29,false,0.14,lh,keypress(e),0,false,544252.1999999881,544252,541537.507,541547.7999999821,541554.092,544254.137,4,500,13,
break,html.Screen,10_12_1,2023-11-17T15:40:34.299Z,,,,,,,,,,,NaN,,,,,,,,low,low,,,,,,false,,,,,false,544253,544252.7999999821,,544252.5,,544254.137,4,500,,
break_continue,html.Screen,10_12_2,2023-11-17T15:40:34.299Z,,,,,,,,,,,NaN,,,,,,,,low,low,,,,,,false,,,,,false,544253.599999994,544253.2999999821,,544253.1999999881,,544254.137,4,500,,
sequence,flow.Sequence,10_12,2023-11-17T15:40:34.299Z,,,,,,,,,,,2699.2079999821726,completion,,,,,,,low,low,,,,,,false,,,,,false,544253.6999999881,544253.2999999821,541537.507,541547.7999999821,541554.092,544254.137,4,500,,
trial,html.Screen,10_13_0,2023-11-17T15:40:36.569Z,,,,1,0.0324770283903853,0.0249968632204382,,0.05,true,hh,2268.562999988091,response,0.8665886246441876,0.8287460302394336,-1.1190892567815403,0.8507210279123499,0.9279521953449272,-1.1742088587174624,high,high,,ISIC_7266462.JPG,8,ISIC_1071355.JPG,50,false,0.1,hh,keypress(i),0,false,546522.8999999762,546522.6999999881,544237.569,544253.7999999821,544254.137,546537.442,4,500,14,
break,html.Screen,10_13_1,2023-11-17T15:40:36.569Z,,,,,,,,,,,NaN,,,,,,,,high,high,,,,,,false,,,,,false,546523.3999999762,546523.2999999821,,546523,,546537.442,4,500,,
break_continue,html.Screen,10_13_2,2023-11-17T15:40:36.569Z,,,,,,,,,,,NaN,,,,,,,,high,high,,,,,,false,,,,,false,546523.599999994,546523.599999994,,546523.5,,546537.442,4,500,,
sequence,flow.Sequence,10_13,2023-11-17T15:40:36.569Z,,,,,,,,,,,2269.4629999940516,completion,,,,,,,high,high,,,,,,false,,,,,false,546523.7999999821,546523.599999994,544237.569,544253.7999999821,544254.137,546537.442,4,500,,
trial,html.Screen,10_14_0,2023-11-17T15:40:45.937Z,,,,1,-0.0277178575053843,0.0395587463147856,,0.05,false,lh,9354.157999994,response,-0.8860551570327019,0.8287460302394336,-1.1190892567815403,0.8067116931297591,0.9279521953449272,-1.1742088587174624,low,high,,ISIC_0010807.JPG,9,ISIC_1457687.JPG,29,false,0.2400000000000001,ll,keypress(f),0,false,555891.6999999881,555891.599999994,546520.712,546523.7999999821,546537.442,555904.12,4,500,15,
break,html.Screen,10_14_1,2023-11-17T15:40:45.938Z,,,,,,,,,,,NaN,,,,,,,,low,high,,,,,,false,,,,,false,555892.5,555892.2999999821,,555892,,555904.12,4,500,,
break_continue,html.Screen,10_14_2,2023-11-17T15:40:45.938Z,,,,,,,,,,,NaN,,,,,,,,low,high,,,,,,false,,,,,false,555892.8999999762,555892.6999999881,,555892.5,,555904.12,4,500,,
sequence,flow.Sequence,10_14,2023-11-17T15:40:45.939Z,,,,,,,,,,,9355.25799998804,completion,,,,,,,low,high,,,,,,false,,,,,false,555893,555892.6999999881,546520.712,546523.7999999821,546537.442,555904.12,4,500,,
trial,html.Screen,10_15_0,2023-11-17T15:40:48.049Z,,,,1,-0.0134764727102299,-0.0033499036460912,,0.05,true,hh,2099.1799999821233,response,0.9172533965459856,0.8287460302394336,-1.1190892567815403,0.9108989535315742,0.9279521953449272,-1.1742088587174624,high,high,,ISIC_0009998.JPG,9,ISIC_0990298.JPG,50,false,0.1,hh,keypress(i),0,false,558003.5,558003.2999999821,555887.377,555893.099999994,555904.12,558020.766,4,500,16,
break,html.Screen,10_15_1,2023-11-17T15:40:48.050Z,,,,,,,,,,,NaN,,,,,,,,high,high,,,,,,false,,,,,false,558004,558003.7999999821,,558003.6999999881,,558020.766,4,500,,
break_continue,html.Screen,10_15_2,2023-11-17T15:40:48.050Z,,,,,,,,,,,NaN,,,,,,,,high,high,,,,,,false,,,,,false,558004.3999999762,558004.2999999821,,558004.1999999881,,558020.766,4,500,,
sequence,flow.Sequence,10_15,2023-11-17T15:40:48.050Z,,,,,,,,,,,2100.1799999821233,completion,,,,,,,high,high,,,,,,false,,,,,false,558004.5,558004.2999999821,555887.377,555893,555904.12,558020.766,4,500,,
trial,html.Screen,10_16_0,2023-11-17T15:40:49.737Z,,,,1,-0.0097091270150747,0.0417921315885292,,0.05,false,hl,1670.3339999940945,response,1.0213365328004047,0.8287460302394336,-1.1190892567815403,-1.088524359911891,0.9279521953449272,-1.1742088587174624,high,low,,ISIC_3967213.JPG,9,ISIC_5434229.JPG,26,false,0.2500000000000001,hh,keypress(i),0,false,559691.2999999821,559691.099999994,557987.517,558004.6999999881,558020.766,559704.175,4,500,17,
break,html.Screen,10_16_1,2023-11-17T15:40:49.738Z,,,,,,,,,,,NaN,,,,,,,,high,low,,,,,,false,,,,,false,559691.8999999762,559691.7999999821,,559691.5,,559704.175,4,500,,
break_continue,html.Screen,10_16_2,2023-11-17T15:40:49.738Z,,,,,,,,,,,NaN,,,,,,,,high,low,,,,,,false,,,,,false,559692.1999999881,559692.099999994,,559691.8999999762,,559704.175,4,500,,
sequence,flow.Sequence,10_16,2023-11-17T15:40:49.738Z,,,,,,,,,,,1671.3339999940945,completion,,,,,,,high,low,,,,,,false,,,,,false,559692.2999999821,559692.099999994,557987.517,558004.599999994,558020.766,559704.175,4,500,,
trial,html.Screen,10_17_0,2023-11-17T15:40:54.313Z,,,,1,0.0450282431170921,,,0.05,false,hl,4562.824999999953,response,0.6075950353412485,0.8287460302394336,-1.1190892567815403,-1.325659161879417,0.9279521953449272,-1.1742088587174624,high,low,,ISIC_1805163.JPG,9,ISIC_2307760.JPG,26,false,0.2500000000000001,hh,keypress(i),0,false,564267,564267,559687.658,559692.2999999821,559704.175,564270.773,4,500,18,
break,html.Screen,10_17_1,2023-11-17T15:40:54.313Z,,,,,,,,,,,NaN,,,,,,,,high,low,,,,,,false,,,,,false,564267.2999999821,564267.2999999821,,564267.099999994,,564270.773,4,500,,
break_continue,html.Screen,10_17_2,2023-11-17T15:40:54.314Z,,,,,,,,,,,NaN,,,,,,,,high,low,,,,,,false,,,,,false,564267.3999999762,564267.3999999762,,564267.2999999821,,564270.773,4,500,,
sequence,flow.Sequence,10_17,2023-11-17T15:40:54.314Z,,,,,,,,,,,4563.224999976112,completion,,,,,,,high,low,,,,,,false,,,,,false,564267.5,564267.3999999762,559687.658,559692.2999999821,559704.175,564270.773,4,500,,
trial,html.Screen,10_18_0,2023-11-17T15:40:57.402Z,,,,1,-0.0134764727102299,-0.0033499036460912,,0.05,true,ll,3084.7269999999553,response,-1.1653123206802332,0.8287460302394336,-1.1190892567815403,-1.2976858999596654,0.9279521953449272,-1.1742088587174624,low,low,,ISIC_0009998.JPG,9,ISIC_0071508.JPG,29,false,0.14,ll,keypress(f),0,false,567355.6999999881,567355.5,564253.989,564267.599999994,564270.773,567371.016,4,500,19,
break,html.Screen,10_18_1,2023-11-17T15:40:57.403Z,,,,,,,,,,,NaN,,,,,,,,low,low,,,,,,false,,,,,false,567356.5,567356.2999999821,,567356,,567371.016,4,500,,
break_continue,html.Screen,10_18_2,2023-11-17T15:40:57.403Z,,,,,,,,,,,NaN,,,,,,,,low,low,,,,,,false,,,,,false,567357,567356.7999999821,,567356.599999994,,567371.016,4,500,,
sequence,flow.Sequence,10_18,2023-11-17T15:40:57.403Z,,,,,,,,,,,3086.026999982074,completion,,,,,,,low,low,,,,,,false,,,,,false,567357.1999999881,567356.7999999821,564253.989,564267.599999994,564270.773,567371.016,4,500,,
trial,html.Screen,10_19_0,2023-11-17T15:41:00.690Z,,,,1,0.0389988030702649,0.0143212271490256,,0.05,false,hh,3272.383999976213,response,0.7794764467486859,0.8287460302394336,-1.1190892567815403,0.9078715061989836,0.9279521953449272,-1.1742088587174624,high,high,,ISIC_0064669.JPG,9,ISIC_9210255.JPG,50,false,0.1,hl,keypress(j),0,false,570643.5,570643.3999999762,567354.184,567357.2999999821,567371.016,570654.112,4,500,20,
break,html.Screen,10_19_1,2023-11-17T15:41:00.690Z,,,,,,,,,,,NaN,,,,,,,,high,high,,,,,,false,,,,,false,570644.099999994,570643.8999999762,,570643.6999999881,,570654.112,4,500,,
break_continue,html.Screen,10_19_2,2023-11-17T15:41:00.691Z,,,,,,,,,,,NaN,,,,,,,,high,high,,,,,,false,,,,,false,570644.3999999762,570644.2999999821,,570644.1999999881,,570654.112,4,500,,
sequence,flow.Sequence,10_19,2023-11-17T15:41:00.691Z,,,,,,,,,,,3273.2839999821736,completion,,,,,,,high,high,,,,,,false,,,,,false,570644.5,570644.2999999821,567354.184,567357.2999999821,567371.016,570654.112,4,500,,
trial,html.Screen,10_20_0,2023-11-17T15:41:09.729Z,,,,1,0.0363437082783146,0.0333332186217051,,0.05,true,ll,9028.987999994075,response,-1.2012395086389958,0.8287460302394336,-1.1190892567815403,-1.0618985767073823,0.9279521953449272,-1.1742088587174624,low,low,,ISIC_3314555.JPG,10,ISIC_9876004.JPG,29,false,0.14,ll,keypress(f),0,false,579683.1999999881,579683.099999994,570637.647,570644.6999999881,570654.112,579687.462,4,500,21,
break,html.Screen,10_20_1,2023-11-17T15:41:09.730Z,,,,,,,,,,,NaN,,,,,,,,low,low,,,,,,false,,,,,false,579683.5,579683.3999999762,,579683.2999999821,,579687.462,4,500,,
break_continue,html.Screen,10_20_2,2023-11-17T15:41:09.730Z,,,,,,,,,,,NaN,,,,,,,,low,low,,,,,,false,,,,,false,579683.6999999881,579683.6999999881,,579683.599999994,,579687.462,4,500,,
sequence,flow.Sequence,10_20,2023-11-17T15:41:09.730Z,,,,,,,,,,,9029.587999988114,completion,,,,,,,low,low,,,,,,false,,,,,false,579683.6999999881,579683.6999999881,570637.647,570644.599999994,570654.112,579687.462,4,500,,
trial,html.Screen,10_21_0,2023-11-17T15:41:14.825Z,,,,1,-0.0051189696037511,0.0396625911332438,,0.05,true,hl,5091.637999993982,response,0.948927472020595,0.8287460302394336,-1.1190892567815403,-1.0660437155921598,0.9279521953449272,-1.1742088587174624,high,low,,ISIC_9742891.JPG,9,ISIC_5808758.JPG,26,false,0.2500000000000001,hl,keypress(j),0,false,584779.1999999881,584779.099999994,579670.729,579683.7999999821,579687.462,584787.485,4,500,22,
break,html.Screen,10_21_1,2023-11-17T15:41:14.826Z,,,,,,,,,,,NaN,,,,,,,,high,low,,,,,,false,,,,,false,584779.599999994,584779.5,,584779.2999999821,,584787.485,4,500,,
break_continue,html.Screen,10_21_2,2023-11-17T15:41:14.826Z,,,,,,,,,,,NaN,,,,,,,,high,low,,,,,,false,,,,,false,584779.7999999821,584779.7999999821,,584779.6999999881,,584787.485,4,500,,
sequence,flow.Sequence,10_21,2023-11-17T15:41:14.826Z,,,,,,,,,,,5092.337999982061,completion,,,,,,,high,low,,,,,,false,,,,,false,584779.8999999762,584779.7999999821,579670.729,579683.7999999821,579687.462,584787.485,4,500,,
trial,html.Screen,10_22_0,2023-11-17T15:41:24.218Z,,,,1,0.0389988030702649,0.0143212271490256,,0.05,false,lh,9384.114999994054,response,-0.9696118525781644,0.8287460302394336,-1.1190892567815403,0.9244148283103414,0.9279521953449272,-1.1742088587174624,low,high,,ISIC_0064669.JPG,9,ISIC_7927525.JPG,29,false,0.2400000000000001,hh,keypress(i),0,false,594171.7999999821,594171.599999994,584770.644,584780,584787.485,594187.461,4,500,23,
break,html.Screen,10_22_1,2023-11-17T15:41:24.218Z,,,,,,,,,,,NaN,,,,,,,,low,high,,,,,,false,,,,,false,594172.3999999762,594172.2999999821,,594172,,594187.461,4,500,,
break_continue,html.Screen,10_22_2,2023-11-17T15:41:24.219Z,,,,,,,,,,,NaN,,,,,,,,low,high,,,,,,false,,,,,false,594172.7999999821,594172.599999994,,594172.5,,594187.461,4,500,,
sequence,flow.Sequence,10_22,2023-11-17T15:41:24.219Z,,,,,,,,,,,9385.114999994054,completion,,,,,,,low,high,,,,,,false,,,,,false,594173,594172.599999994,584770.644,584779.8999999762,584787.485,594187.461,4,500,,
trial,html.Screen,10_23_0,2023-11-17T15:41:27.586Z,,,,1,0.0057914759495055,0.0074667911845194,,0.05,false,lh,3351.938999976148,response,-1.11969546505004,0.8287460302394336,-1.1190892567815403,0.7169584869657797,0.9279521953449272,-1.1742088587174624,low,high,,ISIC_0058723.JPG,10,ISIC_0033967.JPG,29,false,0.2400000000000001,ll,keypress(f),0,false,597539.599999994,597539.3999999762,594170.751,594173,594187.461,597554.332,4,500,24,
break,html.Screen,10_23_1,2023-11-17T15:41:27.586Z,,,,,,,,,,,NaN,,,,,,,,low,high,,,,,,false,,,,,false,597540.3999999762,597540.099999994,,597539.7999999821,,597554.332,4,500,,
break_continue,html.Screen,10_23_2,2023-11-17T15:41:27.587Z,,,,,,,,,,,NaN,,,,,,,,low,high,,,,,,false,,,,,false,597540.7999999821,597540.6999999881,,597540.5,,597554.332,4,500,,
sequence,flow.Sequence,10_23,2023-11-17T15:41:27.587Z,,,,,,,,,,,3353.238999988069,completion,,,,,,,low,high,,,,,,false,,,,,false,597541,597540.6999999881,594170.751,594173,594187.461,597554.332,4,500,,
trial,html.Screen,10_24_0,2023-11-17T15:41:29.482Z,,,,1,-0.0348234368746005,0.0236866303880924,,0.05,true,hh,1881.067999976105,response,0.9012711689442632,0.8287460302394336,-1.1190892567815403,0.8639942067158306,0.9279521953449272,-1.1742088587174624,high,high,,ISIC_0011099.JPG,8,ISIC_0032718.JPG,50,false,0.1,hh,keypress(i),0,false,599435.599999994,599435.3999999762,597537.441,597541.099999994,597554.332,599437.546,4,500,25,
break,html.Screen,10_24_1,2023-11-17T15:41:29.482Z,,,,,,,,,,,NaN,,,,,,,,high,high,,,,,,false,,,,,false,599436.2999999821,599436.099999994,,599435.7999999821,,599437.546,4,500,,
break_continue,html.Screen,10_24_2,2023-11-17T15:41:29.483Z,,,,,,,,,,,NaN,,,,,,,,high,high,,,,,,false,,,,,false,599436.7999999821,599436.6999999881,,599436.5,,599437.546,4,500,,
sequence,flow.Sequence,10_24,2023-11-17T15:41:29.483Z,,,,,,,,,,,1882.367999988026,completion,,,,,,,high,high,,,,,,false,,,,,false,599437,599436.6999999881,597537.441,597541.099999994,597554.332,599437.546,4,500,,
trial,html.Screen,10_25_0,2023-11-17T15:41:32.065Z,,,,1,-0.0245376145053177,0.0436993426328401,,0.05,false,hh,2581.454000000027,response,0.7303551628669714,0.8287460302394336,-1.1190892567815403,0.8663139955905144,0.9279521953449272,-1.1742088587174624,high,high,,ISIC_0056444.JPG,9,ISIC_0010040.JPG,50,false,0.1,lh,keypress(e),0,false,602019,602019,599420.971,599437.099999994,599437.546,602020.824,4,500,26,
break,html.Screen,10_25_1,2023-11-17T15:41:32.065Z,,,,,,,,,,,NaN,,,,,,,,high,high,,,,,,false,,,,,false,602019.3999999762,602019.2999999821,,602019.1999999881,,602020.824,4,500,,
break_continue,html.Screen,10_25_2,2023-11-17T15:41:32.066Z,,,,,,,,,,,NaN,,,,,,,,high,high,,,,,,false,,,,,false,602019.5,602019.3999999762,,602019.3999999762,,602020.824,4,500,,
sequence,flow.Sequence,10_25,2023-11-17T15:41:32.066Z,,,,,,,,,,,2581.853999976185,completion,,,,,,,high,high,,,,,,false,,,,,false,602019.599999994,602019.3999999762,599420.971,599437.099999994,599437.546,602020.824,4,500,,
trial,html.Screen,10_26_0,2023-11-17T15:41:34.322Z,,,,1,0.0329095507339554,-0.0382899749693245,,0.05,false,hh,2254.4759999820963,response,0.8284509690992466,0.8287460302394336,-1.1190892567815403,1.016636264838755,0.9279521953449272,-1.1742088587174624,high,high,,ISIC_8812781.JPG,9,ISIC_7973598.JPG,50,false,0.1,lh,keypress(e),0,false,604275.3999999762,604275.2999999821,602004.127,602019.6999999881,602020.824,604287.574,4,500,27,
break,html.Screen,10_26_1,2023-11-17T15:41:34.322Z,,,,,,,,,,,NaN,,,,,,,,high,high,,,,,,false,,,,,false,604275.8999999762,604275.7999999821,,604275.5,,604287.574,4,500,,
break_continue,html.Screen,10_26_2,2023-11-17T15:41:34.322Z,,,,,,,,,,,NaN,,,,,,,,high,high,,,,,,false,,,,,false,604276.1999999881,604276,,604275.8999999762,,604287.574,4,500,,
sequence,flow.Sequence,10_26,2023-11-17T15:41:34.322Z,,,,,,,,,,,2255.1759999999776,completion,,,,,,,high,high,,,,,,false,,,,,false,604276.2999999821,604276,602004.127,602019.599999994,602020.824,604287.574,4,500,,
trial,html.Screen,10_27_0,2023-11-17T15:41:37.121Z,,,,1,0.0057914759495055,0.0074667911845194,,0.05,false,hh,2787.4259999999776,response,0.8658216082775305,0.8287460302394336,-1.1190892567815403,0.9788979939580964,0.9279521953449272,-1.1742088587174624,high,high,,ISIC_0058723.JPG,9,ISIC_0331389.JPG,50,false,0.1,hl,keypress(j),0,false,607075.099999994,607075,604270.95,604276.2999999821,604287.574,607087.522,4,500,28,
break,html.Screen,10_27_1,2023-11-17T15:41:37.122Z,,,,,,,,,,,NaN,,,,,,,,high,high,,,,,,false,,,,,false,607075.3999999762,607075.2999999821,,607075.1999999881,,607087.522,4,500,,
break_continue,html.Screen,10_27_2,2023-11-17T15:41:37.122Z,,,,,,,,,,,NaN,,,,,,,,high,high,,,,,,false,,,,,false,607075.599999994,607075.5,,607075.5,,607087.522,4,500,,
sequence,flow.Sequence,10_27,2023-11-17T15:41:37.122Z,,,,,,,,,,,2787.9259999999776,completion,,,,,,,high,high,,,,,,false,,,,,false,607075.6999999881,607075.5,604270.95,604276.2999999821,604287.574,607087.522,4,500,,
trial,html.Screen,10_28_0,2023-11-17T15:41:40.625Z,,,,1,0.0329095507339554,-0.0382899749693245,,0.05,true,lh,3491.377999976161,response,-0.990489579313564,0.8287460302394336,-1.1190892567815403,0.7747897983133127,0.9279521953449272,-1.1742088587174624,low,high,,ISIC_8812781.JPG,9,ISIC_7030404.JPG,29,false,0.2400000000000001,lh,keypress(e),0,false,610579,610578.8999999762,607070.751,607075.6999999881,607087.522,610587.502,4,500,29,
break,html.Screen,10_28_1,2023-11-17T15:41:40.625Z,,,,,,,,,,,NaN,,,,,,,,low,high,,,,,,false,,,,,false,610579.2999999821,610579.1999999881,,610579.099999994,,610587.502,4,500,,
break_continue,html.Screen,10_28_2,2023-11-17T15:41:40.626Z,,,,,,,,,,,NaN,,,,,,,,low,high,,,,,,false,,,,,false,610579.5,610579.3999999762,,610579.2999999821,,610587.502,4,500,,
sequence,flow.Sequence,10_28,2023-11-17T15:41:40.626Z,,,,,,,,,,,3491.877999976161,completion,,,,,,,low,high,,,,,,false,,,,,false,610579.5,610579.3999999762,607070.751,607075.6999999881,607087.522,610587.502,4,500,,
trial,html.Screen,10_29_0,2023-11-17T15:41:42.514Z,,,,1,-0.0409338693593207,0.0072462710499874,,0.05,false,hl,1879.9980000000214,response,0.6455395030138186,0.8287460302394336,-1.1190892567815403,-1.3091676741424545,0.9279521953449272,-1.1742088587174624,high,low,,ISIC_3608788.JPG,9,ISIC_0028285.JPG,26,false,0.2500000000000001,hh,keypress(i),0,false,612467.6999999881,612467.5,610570.972,610579.599999994,610587.502,612470.88,4,500,30,
break,html.Screen,10_29_1,2023-11-17T15:41:42.514Z,,,,,,,,,,,NaN,,,,,,,,high,low,,,,,,false,,,,,false,612468.3999999762,612468.1999999881,,612467.8999999762,,612470.88,4,500,,
break_continue,html.Screen,10_29_2,2023-11-17T15:41:42.515Z,,,,,,,,,,,NaN,,,,,,,,high,low,,,,,,false,,,,,false,612468.8999999762,612468.6999999881,,612468.5,,612470.88,4,500,,
sequence,flow.Sequence,10_29,2023-11-17T15:41:42.515Z,,,,,,,,,,,1881.1979999881005,completion,,,,,,,high,low,,,,,,false,,,,,false,612469.099999994,612468.6999999881,610570.972,610579.599999994,610587.502,612470.88,4,500,,
trial,html.Screen,10_30_0,2023-11-17T15:41:44.106Z,,,,1,0.0329095507339554,-0.0382899749693245,,0.05,false,lh,1588.8199999880744,response,-0.9454713230140772,0.8287460302394336,-1.1190892567815403,0.9245167441969216,0.9279521953449272,-1.1742088587174624,low,high,,ISIC_8812781.JPG,9,ISIC_9101055.JPG,29,false,0.2400000000000001,hh,keypress(i),0,false,614060,614059.6999999881,612454.395,612469.1999999881,612470.88,614070.852,4,500,31,
break,html.Screen,10_30_1,2023-11-17T15:41:44.107Z,,,,,,,,,,,NaN,,,,,,,,low,high,,,,,,false,,,,,false,614060.6999999881,614060.5,,614060.099999994,,614070.852,4,500,,
break_continue,html.Screen,10_30_2,2023-11-17T15:41:44.107Z,,,,,,,,,,,NaN,,,,,,,,low,high,,,,,,false,,,,,false,614061.2999999821,614061.099999994,,614060.8999999762,,614070.852,4,500,,
sequence,flow.Sequence,10_30,2023-11-17T15:41:44.108Z,,,,,,,,,,,1590.2199999940349,completion,,,,,,,low,high,,,,,,false,,,,,false,614061.5,614061.099999994,612454.395,612469.099999994,612470.88,614070.852,4,500,,
trial,html.Screen,10_31_0,2023-11-17T15:41:45.930Z,,,,1,0.0363437082783146,0.0333332186217051,,0.05,true,hh,1813.1480000000447,response,0.832159339500865,0.8287460302394336,-1.1190892567815403,1.0220452236621858,0.9279521953449272,-1.1742088587174624,high,high,,ISIC_3314555.JPG,8,ISIC_0011848.JPG,50,false,0.1,hh,keypress(i),0,false,615884.1999999881,615884,614054.309,614061.599999994,614070.852,615887.528,4,500,32,
break,html.Screen,10_31_1,2023-11-17T15:41:45.931Z,,,,,,,,,,,NaN,,,,,,,,high,high,,,,,,false,,,,,false,615885,615884.7999999821,,615884.5,,615887.528,4,500,,
break_continue,html.Screen,10_31_2,2023-11-17T15:41:45.932Z,,,,,,,,,,,NaN,,,,,,,,high,high,,,,,,false,,,,,false,615885.5,615885.2999999821,,615885.1999999881,,615887.528,4,500,,
sequence,flow.Sequence,10_31,2023-11-17T15:41:45.932Z,,,,,,,,,,,1814.4479999821633,completion,,,,,,,high,high,,,,,,false,,,,,false,615885.6999999881,615885.2999999821,614054.309,614061.599999994,614070.852,615887.528,4,500,,
trial,html.Screen,10_32_0,2023-11-17T15:41:47.777Z,,,,1,-0.013431314305098,0.0140597582944232,,0.05,true,hh,1843.3719999761088,response,0.7916641003387539,0.8287460302394336,-1.1190892567815403,0.8795523971208432,0.9279521953449272,-1.1742088587174624,high,high,,ISIC_0069617.JPG,10,ISIC_0069635.JPG,50,false,0.1,hh,keypress(i),0,false,617731.099999994,617730.8999999762,615870.84,615885.8999999762,615887.528,617737.58,4,500,33,
break,html.Screen,10_32_1,2023-11-17T15:41:47.777Z,,,,,,,,,,,NaN,,,,,,,,high,high,,,,,,false,,,,,false,617731.3999999762,617731.2999999821,,617731.1999999881,,617737.58,4,500,,
break_continue,html.Screen,10_32_2,2023-11-17T15:41:47.778Z,,,,,,,,,,,NaN,,,,,,,,high,high,,,,,,false,,,,,false,617731.5,617731.3999999762,,617731.3999999762,,617737.58,4,500,,
sequence,flow.Sequence,10_32,2023-11-17T15:41:47.778Z,,,,,,,,,,,1843.8719999761088,completion,,,,,,,high,high,,,,,,false,,,,,false,617731.599999994,617731.3999999762,615870.84,615885.8999999762,615887.528,617737.58,4,500,,
trial,html.Screen,10_33_0,2023-11-17T15:41:53.026Z,,,,1,0.0050679133050021,-0.0009714874637896,,0.05,true,hh,5241.7199999821605,response,0.7705311022248598,0.8287460302394336,-1.1190892567815403,0.8320229600727801,0.9279521953449272,-1.1742088587174624,high,high,,ISIC_9848743.JPG,9,ISIC_0026802.JPG,50,false,0.1,hh,keypress(i),0,false,622979.5,622979.2999999821,617720.868,617731.599999994,617737.58,622987.519,4,500,34,
break,html.Screen,10_33_1,2023-11-17T15:41:53.027Z,,,,,,,,,,,NaN,,,,,,,,high,high,,,,,,false,,,,,false,622980.099999994,622979.8999999762,,622979.6999999881,,622987.519,4,500,,
break_continue,html.Screen,10_33_2,2023-11-17T15:41:53.027Z,,,,,,,,,,,NaN,,,,,,,,high,high,,,,,,false,,,,,false,622980.3999999762,622980.1999999881,,622980.1999999881,,622987.519,4,500,,
sequence,flow.Sequence,10_33,2023-11-17T15:41:53.027Z,,,,,,,,,,,5242.619999988121,completion,,,,,,,high,high,,,,,,false,,,,,false,622980.5,622980.1999999881,617720.868,617731.599999994,617737.58,622987.519,4,500,,
trial,html.Screen,10_34_0,2023-11-17T15:41:55.203Z,,,,1,-0.0362376068089956,-0.047825070846155,,0.05,false,hl,2168.680999988108,response,1.0213365328004047,0.8287460302394336,-1.1190892567815403,-1.088524359911891,0.9279521953449272,-1.1742088587174624,high,low,,ISIC_6985114.JPG,9,ISIC_5434229.JPG,26,false,0.2500000000000001,hh,keypress(i),0,false,625156.5,625156.1999999881,622970.977,622980.599999994,622987.519,625171.07,4,500,35,
break,html.Screen,10_34_1,2023-11-17T15:41:55.204Z,,,,,,,,,,,NaN,,,,,,,,high,low,,,,,,false,,,,,false,625157.5,625157.1999999881,,625156.6999999881,,625171.07,4,500,,
break_continue,html.Screen,10_34_2,2023-11-17T15:41:55.205Z,,,,,,,,,,,NaN,,,,,,,,high,low,,,,,,false,,,,,false,625158.2999999821,625158,,625157.7999999821,,625171.07,4,500,,
sequence,flow.Sequence,10_34,2023-11-17T15:41:55.205Z,,,,,,,,,,,2170.481000000029,completion,,,,,,,high,low,,,,,,false,,,,,false,625158.5,625158,622970.977,622980.5,622987.519,625171.07,4,500,,
trial,html.Screen,10_35_0,2023-11-17T15:41:57.898Z,,,,1,-0.0188047466661863,0.0288346930436979,,0.05,true,ll,2680.22999998217,response,-1.2318069697449794,0.8287460302394336,-1.1190892567815403,-1.1703576816778267,0.9279521953449272,-1.1742088587174624,low,low,,ISIC_0014157.JPG,9,ISIC_2732573.JPG,29,false,0.14,ll,keypress(f),0,false,627851.3999999762,627851.2999999821,625154.19,625158.599999994,625171.07,627854.216,4,500,36,
break,html.Screen,10_35_1,2023-11-17T15:41:57.898Z,,,,,,,,,,,NaN,,,,,,,,low,low,,,,,,false,,,,,false,627851.8999999762,627851.6999999881,,627851.5,,627854.216,4,500,,
break_continue,html.Screen,10_35_2,2023-11-17T15:41:57.899Z,,,,,,,,,,,NaN,,,,,,,,low,low,,,,,,false,,,,,false,627852.2999999821,627852.1999999881,,627852,,627854.216,4,500,,
sequence,flow.Sequence,10_35,2023-11-17T15:41:57.899Z,,,,,,,,,,,2681.1299999881303,completion,,,,,,,low,low,,,,,,false,,,,,false,627852.3999999762,627852.1999999881,625154.19,625158.599999994,625171.07,627854.216,4,500,,
trial,html.Screen,10_36_0,2023-11-17T15:41:59.523Z,,,,1,-0.0112310719058792,0.0469047359904117,,0.05,false,hl,1621.5839999821037,response,0.6864497754928831,0.8287460302394336,-1.1190892567815403,-1.0456580051873738,0.9279521953449272,-1.1742088587174624,high,low,,ISIC_0068184.JPG,8,ISIC_0055388.JPG,26,false,0.2500000000000001,ll,keypress(f),0,false,629476.099999994,629475.7999999821,627837.571,627852.5,627854.216,629487.502,4,500,37,
break,html.Screen,10_36_1,2023-11-17T15:41:59.523Z,,,,,,,,,,,NaN,,,,,,,,high,low,,,,,,false,,,,,false,629476.7999999821,629476.599999994,,629476.2999999821,,629487.502,4,500,,
break_continue,html.Screen,10_36_2,2023-11-17T15:41:59.524Z,,,,,,,,,,,NaN,,,,,,,,high,low,,,,,,false,,,,,false,629477.2999999821,629477.099999994,,629477,,629487.502,4,500,,
sequence,flow.Sequence,10_36,2023-11-17T15:41:59.524Z,,,,,,,,,,,1622.8839999940246,completion,,,,,,,high,low,,,,,,false,,,,,false,629477.5,629477.099999994,627837.571,627852.5,627854.216,629487.502,4,500,,
trial,html.Screen,10_37_0,2023-11-17T15:42:01.473Z,,,,1,0.0450282431170921,,,0.05,false,hl,1939.3979999761796,response,0.6159110752639473,0.8287460302394336,-1.1190892567815403,-0.9608461034527604,0.9279521953449272,-1.1742088587174624,high,low,,ISIC_1805163.JPG,9,ISIC_0025215.JPG,26,false,0.2500000000000001,lh,keypress(e),0,false,631427,631426.8999999762,629470.97,629477.599999994,629487.502,631437.505,4,500,38,
break,html.Screen,10_37_1,2023-11-17T15:42:01.474Z,,,,,,,,,,,NaN,,,,,,,,high,low,,,,,,false,,,,,false,631427.3999999762,631427.2999999821,,631427.099999994,,631437.505,4,500,,
break_continue,html.Screen,10_37_2,2023-11-17T15:42:01.474Z,,,,,,,,,,,NaN,,,,,,,,high,low,,,,,,false,,,,,false,631427.599999994,631427.5,,631427.5,,631437.505,4,500,,
sequence,flow.Sequence,10_37,2023-11-17T15:42:01.474Z,,,,,,,,,,,1939.9980000000214,completion,,,,,,,high,low,,,,,,false,,,,,false,631427.599999994,631427.5,629470.97,629477.599999994,629487.502,631437.505,4,500,,
