sender,sender_type,sender_id,timestamp,meta,,age,blockNo,c1,c2,condition,control_tolerance,correct,correctResponse,duration,ended_on,f1,f1_high,f1_low,f2,f2_high,f2_low,feature_level1,feature_level2,gender,img_left,img_reveal,img_right,n_target_images,practice,range_tolerance,response,response_action,selection_duration,staircase,time_commit,time_end,time_render,time_run,time_show,time_switch,total_blocks,total_trials,trialNo,url
informed_consent,html.Screen,0,2023-11-17T19:21:28.647Z,"{""labjs_version"":""20.2.4"",""labjs_build"":{""flavor"":""development"",""commit"":""f5b4a49f956347addd546a832a3327688c2c0fef""},""location"":""https://labjs.felixhenninger.com/api/labjs_preview/index.html"",""userAgent"":""Mozilla/5.0 (Windows NT 10.0; Win64; x64) AppleWebKit/537.36 (KHTML, like Gecko) Chrome/119.0.0.0 Safari/537.36"",""platform"":""Win32"",""language"":""en-US"",""locale"":""en-US"",""timeZone"":""America/Chicago"",""timezoneOffset"":360,""screen_width"":1920,""screen_height"":1080,""scroll_width"":945,""scroll_height"":918,""window_innerWidth"":945,""window_innerHeight"":966,""devicePixelRatio"":1}",,,,,,,,,,7355.860999976158,response,,,,,,,,,,,,,,,,consent,click button,,,8006.699999988079,7998.399999976158,625.765,617.1000000238419,642.539,8025.784,,,,{}
Demography form,html.Form,1,2023-11-17T19:21:52.048Z,,,19,,,,,,,,23381.41599998808,form submission,,,,,,,,,female,,,,,,,,,,,31407.30000001192,31407.19999998808,8009.121,8006.899999976158,8025.784,31425.95,,,,
Welcome,html.Screen,2,2023-11-17T19:21:54.120Z,,,,,,,"[""bor"",""col""]",,,,2052.4499999761574,response,,,,,,,,,,,,,,,,continue,click button,,,33479,33478.39999997616,31409.058,31407.399999976158,31425.95,33509.039,,,,
demo_instructions,html.Screen,3,2023-11-17T19:22:16.169Z,,,,,,,,,,,22016.961000000003,response,,,,,,,,,,,,,,,,continue,click button,,,55526.69999998808,55526,33492.383,33479,33509.039,55558.949,,,,
trial,html.Screen,4_0_0,2023-11-17T19:22:26.613Z,,,,0,1.045301444872812,-1.0872560254441277,,,true,lh,10411.450999976158,response,-0.7882758084023446,1.2,-1.2,0.8296405881378283,1.2,-1.2,low,high,,ISIC_4507700.JPG,,ISIC_0065882.JPG,26,true,0.4500000000000003,lh,keypress(e),100,false,65970.89999997616,65970.39999997616,55542.322,55526.80000001192,55558.949,65992.276,1,16,1,
sequence,flow.Sequence,4_0,2023-11-17T19:22:26.614Z,,,,,,,,,,,10411.450999976158,completion,,,,,,,low,high,,,,,,true,,,,,false,65971.60000002384,65970.39999997616,55542.322,55526.80000001192,55558.949,65992.276,1,16,,
trial,html.Screen,4_1_0,2023-11-17T19:22:33.739Z,,,,0,0.9633172970727744,-0.8472659344792351,,,true,lh,7103.524000011923,response,-1.2054195059663604,1.2,-1.2,0.7760611240296147,1.2,-1.2,low,high,,ISIC_0067172.JPG,,ISIC_8712559.JPG,26,true,0.4500000000000003,lh,keypress(e),100,false,73096.30000001192,73095.80000001192,65975.624,65971.80000001192,65992.276,73125.82,1,16,2,
sequence,flow.Sequence,4_1,2023-11-17T19:22:33.739Z,,,,,,,,,,,7103.524000011923,completion,,,,,,,low,high,,,,,,true,,,,,false,73096.80000001192,73095.80000001192,65975.624,65971.69999998808,65992.276,73125.82,1,16,,
trial,html.Screen,4_2_0,2023-11-17T19:22:39.777Z,,,,0,0.8544507134472948,-0.9244388608707323,,,true,lh,6007.679999999993,response,-0.7883321712536753,1.2,-1.2,1.0011430756825364,1.2,-1.2,low,high,,ISIC_3565564.JPG,,ISIC_9828853.JPG,26,true,0.4500000000000003,lh,keypress(e),100,false,79134,79133.5,73108.925,73097.19999998808,73125.82,79158.863,1,16,3,
sequence,flow.Sequence,4_2,2023-11-17T19:22:39.777Z,,,,,,,,,,,6007.679999999993,completion,,,,,,,low,high,,,,,,true,,,,,false,79134.69999998808,79133.5,73108.925,73097.10000002384,73125.82,79158.863,1,16,,
trial,html.Screen,4_3_0,2023-11-17T19:22:42.771Z,,,,0,0.9089402323867112,-0.8034544077281132,,,true,lh,2969.3369999880815,response,-1.3046390428588206,1.2,-1.2,0.7942099232219556,1.2,-1.2,low,high,,ISIC_3585381.JPG,,ISIC_0013096.JPG,26,true,0.4500000000000003,lh,keypress(e),100,false,82128.69999998808,82128.19999998808,79142.275,79135,79158.863,82158.906,1,16,4,
sequence,flow.Sequence,4_3,2023-11-17T19:22:42.772Z,,,,,,,,,,,2969.3369999880815,completion,,,,,,,low,high,,,,,,true,,,,,false,82129.30000001192,82128.19999998808,79142.275,79134.89999997616,79158.863,82158.906,1,16,,
trial,html.Screen,4_4_0,2023-11-17T19:22:46.811Z,,,,0,1.0769708994456726,1.2196503533725178,,,false,ll,4008.9939999761555,response,-0.9170020765489288,1.2,-1.2,-1.1743572988147262,1.2,-1.2,low,low,,ISIC_0063824.JPG,,ISIC_5458290.JPG,203,true,0.40000000000000024,lh,keypress(e),100,false,86168.19999998808,86167.89999997616,82142.237,82129.60000002384,82158.906,86192.424,1,16,5,
sequence,flow.Sequence,4_4,2023-11-17T19:22:46.811Z,,,,,,,,,,,4008.9939999761555,completion,,,,,,,low,low,,,,,,true,,,,,false,86168.69999998808,86167.89999997616,82142.237,82129.60000002384,82158.906,86192.424,1,16,,
trial,html.Screen,4_5_0,2023-11-17T19:22:52.071Z,,,,0,1.1302628852630028,1.288906469447243,,,true,ll,5235.77599998808,response,-1.2946277435220357,1.2,-1.2,-1.255157480204324,1.2,-1.2,low,low,,ISIC_0071050.JPG,,ISIC_1870309.JPG,25,true,0.14,ll,keypress(f),100,false,91428.5,91428.19999998808,86175.635,86168.89999997616,86192.424,91458.891,1,16,6,
sequence,flow.Sequence,4_5,2023-11-17T19:22:52.071Z,,,,,,,,,,,5235.77599998808,completion,,,,,,,low,low,,,,,,true,,,,,false,91428.60000002384,91428.19999998808,86175.635,86168.89999997616,86192.424,91458.891,1,16,,
trial,html.Screen,4_6_0,2023-11-17T19:22:56.062Z,,,,0,1.136677654701082,1.2647850993872314,,,true,ll,3960.008999976155,response,-1.2724293858920366,1.2,-1.2,-1.149360738769835,1.2,-1.2,low,low,,ISIC_0015436.JPG,,ISIC_1264725.JPG,25,true,0.14,ll,keypress(f),100,false,95419.19999998808,95418.89999997616,91442.182,91428.69999998808,91458.891,95442.255,1,16,7,
sequence,flow.Sequence,4_6,2023-11-17T19:22:56.062Z,,,,,,,,,,,3960.008999976155,completion,,,,,,,low,low,,,,,,true,,,,,false,95419.5,95418.89999997616,91442.182,91428.60000002384,91458.891,95442.255,1,16,,
trial,html.Screen,4_7_0,2023-11-17T19:23:03.256Z,,,,0,1.2691569063625474,1.1264228993232308,,,true,ll,7171.244999999995,response,-1.2253191093367526,1.2,-1.2,-1.241905252673026,1.2,-1.2,low,low,,ISIC_4980656.JPG,,ISIC_1195689.JPG,25,true,0.14,ll,keypress(f),100,false,102613.89999997616,102613.5,95425.562,95419.69999998808,95442.255,102658.816,1,16,8,
sequence,flow.Sequence,4_7,2023-11-17T19:23:03.257Z,,,,,,,,,,,7171.244999999995,completion,,,,,,,low,low,,,,,,true,,,,,false,102614.5,102613.5,95425.562,95419.69999998808,95442.255,102658.816,1,16,,
trial,html.Screen,4_8_0,2023-11-17T19:23:10.572Z,,,,0,-0.8828738626295417,0.8288177599439582,,,true,hl,7270.284000023836,response,0.9662688541319592,1.2,-1.2,-0.929746784178986,1.2,-1.2,high,low,,ISIC_0056041.JPG,,ISIC_0011077.JPG,27,true,0.40000000000000024,hl,keypress(j),100,false,109929.5,109929.10000002384,102625.593,102614.69999998808,102658.816,109958.785,1,16,9,
sequence,flow.Sequence,4_8,2023-11-17T19:23:10.573Z,,,,,,,,,,,7270.284000023836,completion,,,,,,,high,low,,,,,,true,,,,,false,109930,109929.10000002384,102625.593,102614.60000002384,102658.816,109958.785,1,16,,
trial,html.Screen,4_9_0,2023-11-17T19:23:15.492Z,,,,0,-0.8719231363109603,0.7704280220140033,,,true,hl,4889.515000011917,response,0.9544693251394116,1.2,-1.2,-1.0727539917203766,1.2,-1.2,high,low,,ISIC_0029453.JPG,,ISIC_0055147.JPG,40,true,0.4500000000000003,hl,keypress(j),100,false,114848.39999997616,114848.30000001192,109942.145,109930.19999998808,109958.785,114875.451,1,16,10,
sequence,flow.Sequence,4_9,2023-11-17T19:23:15.492Z,,,,,,,,,,,4889.515000011917,completion,,,,,,,high,low,,,,,,true,,,,,false,114848.5,114848.30000001192,109942.145,109930.19999998808,109958.785,114875.451,1,16,,
trial,html.Screen,4_10_0,2023-11-17T19:23:18.216Z,,,,0,-0.8472024037189965,0.986370061404882,,,true,hl,2697.149000023841,response,1.004142980655507,1.2,-1.2,-0.7749773174967559,1.2,-1.2,high,low,,ISIC_0054355.JPG,,ISIC_3936223.JPG,40,true,0.4500000000000003,hl,keypress(j),100,false,117572.89999997616,117572.60000002384,114858.788,114848.60000002384,114875.451,117592.145,1,16,11,
sequence,flow.Sequence,4_10,2023-11-17T19:23:18.217Z,,,,,,,,,,,2697.149000023841,completion,,,,,,,high,low,,,,,,true,,,,,false,117573.30000001192,117572.60000002384,114858.788,114848.60000002384,114875.451,117592.145,1,16,,
trial,html.Screen,4_11_0,2023-11-17T19:23:21.790Z,,,,0,-1.2362557973341337,1.2548266183352603,,,true,hl,3553.455000023838,response,0.8443403196524287,1.2,-1.2,-0.8858525429102605,1.2,-1.2,high,low,,ISIC_0033886.JPG,,ISIC_8777813.JPG,40,true,0.4500000000000003,hl,keypress(j),100,false,121145.89999997616,121145.60000002384,117575.537,117573.39999997616,117592.145,121175.543,1,16,12,
sequence,flow.Sequence,4_11,2023-11-17T19:23:21.790Z,,,,,,,,,,,3553.455000023838,completion,,,,,,,high,low,,,,,,true,,,,,false,121146.60000002384,121145.60000002384,117575.537,117573.39999997616,117592.145,121175.543,1,16,,
trial,html.Screen,4_12_0,2023-11-17T19:23:25.173Z,,,,0,-1.2246024683501224,-1.2904526351590244,,,true,hh,3353.656999988074,response,1.4551607591579043,1.2,-1.2,0.7651591925279058,1.2,-1.2,high,high,,ISIC_4730066.JPG,,ISIC_0069248.JPG,359,true,0.4500000000000003,hh,keypress(i),100,false,124529.5,124529.19999998808,121158.804,121146.80000001192,121175.543,124558.842,1,16,13,
sequence,flow.Sequence,4_12,2023-11-17T19:23:25.173Z,,,,,,,,,,,3353.656999988074,completion,,,,,,,high,high,,,,,,true,,,,,false,124529.80000001192,124529.19999998808,121158.804,121146.80000001192,121175.543,124558.842,1,16,,
trial,html.Screen,4_13_0,2023-11-17T19:23:27.458Z,,,,0,-1.1989130276493527,-1.2666195460149832,,,true,hh,2255.057999976154,response,1.1048559518249943,1.2,-1.2,1.2252457981338687,1.2,-1.2,high,high,,ISIC_0031705.JPG,,ISIC_0060817.JPG,40,true,0.14,hh,keypress(i),100,false,126814.19999998808,126813.89999997616,124542.185,124530,124558.842,126842.141,1,16,14,
sequence,flow.Sequence,4_13,2023-11-17T19:23:27.458Z,,,,,,,,,,,2255.057999976154,completion,,,,,,,high,high,,,,,,true,,,,,false,126814.80000001192,126813.89999997616,124542.185,124530,124558.842,126842.141,1,16,,
trial,html.Screen,4_14_0,2023-11-17T19:23:29.345Z,,,,0,-1.252716660627398,-1.183977080937476,,,true,hh,1858.8589999999967,response,1.268445326285509,1.2,-1.2,1.173734476257662,1.2,-1.2,high,high,,ISIC_0034194.JPG,,ISIC_5216586.JPG,40,true,0.14,hh,keypress(i),100,false,128701.39999997616,128701,126825.522,126815,126842.141,128725.665,1,16,15,
sequence,flow.Sequence,4_14,2023-11-17T19:23:29.345Z,,,,,,,,,,,1858.8589999999967,completion,,,,,,,high,high,,,,,,true,,,,,false,128701.80000001192,128701,126825.522,126815,126842.141,128725.665,1,16,,
trial,html.Screen,4_15_0,2023-11-17T19:23:31.261Z,,,,0,-1.252716660627398,-1.183977080937476,,,true,hh,1891.4350000238483,response,1.2033647433750492,1.2,-1.2,1.0718012192341555,1.2,-1.2,high,high,,ISIC_0034194.JPG,,ISIC_0061606.JPG,40,true,0.14,hh,keypress(i),100,false,130617.39999997616,130617.10000002384,128708.822,128702,128725.665,130642.093,1,16,16,
sequence,flow.Sequence,4_15,2023-11-17T19:23:31.262Z,,,,,,,,,,,1891.4350000238483,completion,,,,,,,high,high,,,,,,true,,,,,false,130617.89999997616,130617.10000002384,128708.822,128702,128725.665,130642.093,1,16,,
demonstration_loop,flow.Loop,4,2023-11-17T19:23:31.262Z,,,,,,,,,,,75058.15100002385,completion,,,,,,,,,,,,,,true,,,,,false,130618.30000001192,130617.10000002384,55542.322,55526.80000001192,55558.949,130642.093,1,16,,
practice_instructions,html.Screen,5,2023-11-17T19:23:40.946Z,,,,,,,,,,,9651.806999976165,response,,,,,,,,,,,,,,,,continue,click button,,,140302.39999997616,140293.89999997616,130625.505,130618.30000001192,130642.093,140325.414,,,,
trial,html.Screen,6_0_0,2023-11-17T19:23:50.725Z,,,,1,0.8047295996345292,-1.551750455622795,,,true,lh,9748.58600000001,response,-1.058275612142778,1.2,-1.2,0.7824898568540655,1.2,-1.2,low,high,,ISIC_7717907.JPG,,ISIC_4906385.JPG,26,true,0.4500000000000003,lh,keypress(e),0,false,150081.30000001192,150074,140308.757,140302.39999997616,140325.414,150092.027,1,40,1,
sequence,flow.Sequence,6_0,2023-11-17T19:23:50.725Z,,,,,,,,,,,9748.58600000001,completion,,,,,,,low,high,,,,,,true,,,,,false,150081.39999997616,150074,140308.757,140302.39999997616,140325.414,150092.027,1,40,,
trial,html.Screen,6_1_0,2023-11-17T19:23:57.916Z,,,,1,-0.8828738626295417,0.8288177599439582,,,true,hl,7180.273000011919,response,1.2020012168275056,1.2,-1.2,-0.923753102263735,1.2,-1.2,high,low,,ISIC_0056041.JPG,,ISIC_0000022.JPG,27,true,0.40000000000000024,hl,keypress(j),0,false,157272.5,157272.30000001192,150075.361,150081.5,150092.027,157275.401,1,40,2,
sequence,flow.Sequence,6_1,2023-11-17T19:23:57.916Z,,,,,,,,,,,7180.273000011919,completion,,,,,,,high,low,,,,,,true,,,,,false,157272.89999997616,157272.30000001192,150075.361,150081.39999997616,150092.027,157275.401,1,40,,
trial,html.Screen,6_2_0,2023-11-17T19:24:04.636Z,,,,1,0.8443403196524287,-0.8858525429102605,,,true,lh,6716.7989999880665,response,-0.7882758084023446,1.2,-1.2,0.8296405881378283,1.2,-1.2,low,high,,ISIC_8777813.JPG,,ISIC_0065882.JPG,26,true,0.4500000000000003,lh,keypress(e),0,false,163992.5,163992.19999998808,157258.686,157273,157275.401,164008.726,1,40,3,
sequence,flow.Sequence,6_2,2023-11-17T19:24:04.636Z,,,,,,,,,,,6716.7989999880665,completion,,,,,,,low,high,,,,,,true,,,,,false,163992.89999997616,163992.19999998808,157258.686,157273,157275.401,164008.726,1,40,,
trial,html.Screen,6_3_0,2023-11-17T19:24:10.996Z,,,,1,1.1746004947382946,1.2207657619249948,,,true,ll,6343.574000011926,response,-0.8482399573167824,1.2,-1.2,-1.2276600934505035,1.2,-1.2,low,low,,ISIC_0012069.JPG,,ISIC_0026344.JPG,203,true,0.40000000000000024,ll,keypress(f),0,false,170352.60000002384,170352.30000001192,163992.062,163993.10000002384,164008.726,170375.292,1,40,4,
sequence,flow.Sequence,6_3,2023-11-17T19:24:10.997Z,,,,,,,,,,,6343.574000011926,completion,,,,,,,low,low,,,,,,true,,,,,false,170353,170352.30000001192,163992.062,163993,164008.726,170375.292,1,40,,
trial,html.Screen,6_4_0,2023-11-17T19:24:16.749Z,,,,1,-0.989300717252516,0.7908280206937478,,,true,hl,5728.708000000013,response,1.2646773654288392,1.2,-1.2,-0.952963803634235,1.2,-1.2,high,low,,ISIC_6416533.JPG,,ISIC_1996356.JPG,27,true,0.40000000000000024,hl,keypress(j),0,false,176104.30000001192,176104,170342.006,170353.30000001192,170375.292,176108.61,1,40,5,
sequence,flow.Sequence,6_4,2023-11-17T19:24:16.749Z,,,,,,,,,,,5728.708000000013,completion,,,,,,,high,low,,,,,,true,,,,,false,176104.60000002384,176104,170342.006,170353.10000002384,170375.292,176108.61,1,40,,
trial,html.Screen,6_5_0,2023-11-17T19:24:18.053Z,,,,1,-1.3246728710248594,-1.1527736000922424,,,true,hh,1299.589999988093,response,1.6007946152845425,1.2,-1.2,1.159278377691306,1.2,-1.2,high,high,,ISIC_6876281.JPG,,ISIC_0027190.JPG,359,true,0.4500000000000003,hh,keypress(i),0,false,177408.60000002384,177408.19999998808,176091.931,176104.89999997616,176108.61,177425.501,1,40,6,
sequence,flow.Sequence,6_5,2023-11-17T19:24:18.054Z,,,,,,,,,,,1299.589999988093,completion,,,,,,,high,high,,,,,,true,,,,,false,177409.10000002384,177408.19999998808,176091.931,176104.80000001192,176108.61,177425.501,1,40,,
trial,html.Screen,6_6_0,2023-11-17T19:24:20.317Z,,,,1,-1.151139267005652,-1.0838749490501327,,,true,hh,2246.4990000000107,response,1.219634566983089,1.2,-1.2,1.0648460966097275,1.2,-1.2,high,high,,ISIC_0002566.JPG,,ISIC_0030552.JPG,40,true,0.14,hh,keypress(i),0,false,179672.30000001192,179672,177408.732,177409.30000001192,177425.501,179691.938,1,40,7,
sequence,flow.Sequence,6_6,2023-11-17T19:24:20.317Z,,,,,,,,,,,2246.4990000000107,completion,,,,,,,high,high,,,,,,true,,,,,false,179672.5,179672,177408.732,177409.30000001192,177425.501,179691.938,1,40,,
trial,html.Screen,6_7_0,2023-11-17T19:24:21.797Z,,,,1,-0.8926515927689261,0.7935960767768927,,,true,hl,1460.2619999880844,response,1.2646773654288392,1.2,-1.2,-0.952963803634235,1.2,-1.2,high,low,,ISIC_8901371.JPG,,ISIC_1996356.JPG,27,true,0.40000000000000024,hl,keypress(j),0,false,181152.39999997616,181152.19999998808,179658.81,179672.80000001192,179691.938,181158.675,1,40,8,
sequence,flow.Sequence,6_7,2023-11-17T19:24:21.797Z,,,,,,,,,,,1460.2619999880844,completion,,,,,,,high,low,,,,,,true,,,,,false,181152.80000001192,181152.19999998808,179658.81,179672.69999998808,179691.938,181158.675,1,40,,
trial,html.Screen,6_8_0,2023-11-17T19:24:25.772Z,,,,1,-1.3246728710248594,-1.1527736000922424,,,true,hh,3968.1250000119326,response,1.017768542725066,1.2,-1.2,0.9045368314063942,1.2,-1.2,high,high,,ISIC_6876281.JPG,,ISIC_0031752.JPG,359,true,0.4500000000000003,hh,keypress(i),0,false,185126.89999997616,185126.80000001192,181142.012,181153,181158.675,185141.913,1,40,9,
sequence,flow.Sequence,6_8,2023-11-17T19:24:25.772Z,,,,,,,,,,,3968.1250000119326,completion,,,,,,,high,high,,,,,,true,,,,,false,185127,185126.80000001192,181142.012,181152.89999997616,181158.675,185141.913,1,40,,
trial,html.Screen,6_9_0,2023-11-17T19:24:28.701Z,,,,1,-0.9754077946987664,1.1821868813141057,,,true,hl,2914.0869999999995,response,0.8350129142228142,1.2,-1.2,-0.8172547818270586,1.2,-1.2,high,low,,ISIC_0024317.JPG,,ISIC_0301568.JPG,27,true,0.40000000000000024,hl,keypress(j),0,false,188056.19999998808,188056,185125.274,185127.10000002384,185141.913,188058.648,1,40,10,
sequence,flow.Sequence,6_9,2023-11-17T19:24:28.701Z,,,,,,,,,,,2914.0869999999995,completion,,,,,,,high,low,,,,,,true,,,,,false,188056.69999998808,188056,185125.274,185127.10000002384,185141.913,188058.648,1,40,,
trial,html.Screen,6_10_0,2023-11-17T19:24:30.093Z,,,,1,1.136677654701082,1.2647850993872314,,,true,ll,1389.2519999761716,response,-1.3319935350898373,1.2,-1.2,-0.8715393829038907,1.2,-1.2,low,low,,ISIC_0015436.JPG,,ISIC_9851899.JPG,265,true,0.4500000000000003,ll,keypress(f),0,false,189448.10000002384,189447.89999997616,188042.153,188056.80000001192,188058.648,189475.242,1,40,11,
sequence,flow.Sequence,6_10,2023-11-17T19:24:30.093Z,,,,,,,,,,,1389.2519999761716,completion,,,,,,,low,low,,,,,,true,,,,,false,189448.5,189447.89999997616,188042.153,188056.69999998808,188058.648,189475.242,1,40,,
trial,html.Screen,6_11_0,2023-11-17T19:24:31.885Z,,,,1,-0.8034318937720549,1.0024917298189338,,,true,hl,1764.7580000000016,response,0.8867328775712738,1.2,-1.2,-1.0063426986460375,1.2,-1.2,high,low,,ISIC_0032766.JPG,,ISIC_0055759.JPG,27,true,0.40000000000000024,hl,keypress(j),0,false,191240.19999998808,191240,189442.127,189448.69999998808,189475.242,191259.173,1,40,12,
sequence,flow.Sequence,6_11,2023-11-17T19:24:31.885Z,,,,,,,,,,,1764.7580000000016,completion,,,,,,,high,low,,,,,,true,,,,,false,191240.60000002384,191240,189442.127,189448.60000002384,189475.242,191259.173,1,40,,
trial,html.Screen,6_12_0,2023-11-17T19:24:33.325Z,,,,1,-1.077278111180185,-1.1530533996184025,,,true,hh,1420.427000023832,response,1.0979080219146429,1.2,-1.2,1.4093178640529949,1.2,-1.2,high,high,,ISIC_9525136.JPG,,ISIC_0056921.JPG,359,true,0.4500000000000003,hh,keypress(i),0,false,192679.89999997616,192679.60000002384,191225.436,191240.89999997616,191259.173,192692.105,1,40,13,
sequence,flow.Sequence,6_12,2023-11-17T19:24:33.325Z,,,,,,,,,,,1420.427000023832,completion,,,,,,,high,high,,,,,,true,,,,,false,192680.19999998808,192679.60000002384,191225.436,191240.80000001192,191259.173,192692.105,1,40,,
trial,html.Screen,6_13_0,2023-11-17T19:24:36.813Z,,,,1,1.266079261381142,1.312161506160336,,,true,ll,3475.9950000238314,response,-1.274752206258116,1.2,-1.2,-1.2988509166163749,1.2,-1.2,low,low,,ISIC_0065449.JPG,,ISIC_6704623.JPG,25,true,0.14,ll,keypress(f),0,false,196168.30000001192,196168.10000002384,192675.495,192680.39999997616,192692.105,196208.559,1,40,14,
sequence,flow.Sequence,6_13,2023-11-17T19:24:36.813Z,,,,,,,,,,,3475.9950000238314,completion,,,,,,,low,low,,,,,,true,,,,,false,196168.69999998808,196168.10000002384,192675.495,192680.39999997616,192692.105,196208.559,1,40,,
trial,html.Screen,6_14_0,2023-11-17T19:24:38.173Z,,,,1,1.0116417541846066,-1.033442916947398,,,true,lh,1319.5410000238335,response,-1.0329549150636406,1.2,-1.2,1.01584100839286,1.2,-1.2,low,high,,ISIC_0031389.JPG,,ISIC_0054670.JPG,26,true,0.4500000000000003,lh,keypress(e),0,false,197528.30000001192,197528.10000002384,196158.713,196168.89999997616,196208.559,197542.173,1,40,15,
sequence,flow.Sequence,6_14,2023-11-17T19:24:38.173Z,,,,,,,,,,,1319.5410000238335,completion,,,,,,,low,high,,,,,,true,,,,,false,197528.69999998808,197528.10000002384,196158.713,196168.80000001192,196208.559,197542.173,1,40,,
trial,html.Screen,6_15_0,2023-11-17T19:24:39.236Z,,,,1,1.0773466327271526,1.1601445610079184,,,true,ll,1049.427000023832,response,-1.5306192961986111,1.2,-1.2,-0.9945790725150012,1.2,-1.2,low,low,,ISIC_0055169.JPG,,ISIC_8909545.JPG,203,true,0.40000000000000024,ll,keypress(f),0,false,198591.60000002384,198591.60000002384,197525.421,197528.80000001192,197542.173,198608.76,1,40,16,
sequence,flow.Sequence,6_15,2023-11-17T19:24:39.237Z,,,,,,,,,,,1049.427000023832,completion,,,,,,,low,low,,,,,,true,,,,,false,198591.80000001192,198591.60000002384,197525.421,197528.80000001192,197542.173,198608.76,1,40,,
trial,html.Screen,6_16_0,2023-11-17T19:24:40.756Z,,,,1,-1.1989130276493527,-1.2666195460149832,,,true,hh,1502.7399999999907,response,1.082709423673037,1.2,-1.2,1.1184338818466155,1.2,-1.2,high,high,,ISIC_0031705.JPG,,ISIC_0058666.JPG,30,true,0.13,hh,keypress(i),0,false,200111.60000002384,200111.5,198592.002,198591.89999997616,198608.76,200125.225,1,40,17,
sequence,flow.Sequence,6_16,2023-11-17T19:24:40.756Z,,,,,,,,,,,1502.7399999999907,completion,,,,,,,high,high,,,,,,true,,,,,false,200111.69999998808,200111.5,198592.002,198591.89999997616,198608.76,200125.225,1,40,,
trial,html.Screen,6_17_0,2023-11-17T19:24:41.860Z,,,,1,-0.7518277461369444,1.3860759020802074,,,true,hl,1089.875000023836,response,0.8307508446051526,1.2,-1.2,-1.1707575338936729,1.2,-1.2,high,low,,ISIC_7967397.JPG,,ISIC_0028606.JPG,27,true,0.40000000000000024,hl,keypress(j),0,false,201215.19999998808,201215.10000002384,200108.722,200111.69999998808,200125.225,201225.221,1,40,18,
sequence,flow.Sequence,6_17,2023-11-17T19:24:41.860Z,,,,,,,,,,,1089.875000023836,completion,,,,,,,high,low,,,,,,true,,,,,false,201215.30000001192,201215.10000002384,200108.722,200111.69999998808,200125.225,201225.221,1,40,,
trial,html.Screen,6_18_0,2023-11-17T19:24:43.245Z,,,,1,-1.058275612142778,0.7824898568540655,,,true,hl,1374.6789999761677,response,1.0685314915436992,1.2,-1.2,-0.8203833713472237,1.2,-1.2,high,low,,ISIC_4906385.JPG,,ISIC_0029374.JPG,40,true,0.4500000000000003,hl,keypress(j),0,false,202600.19999998808,202599.89999997616,201208.815,201215.30000001192,201225.221,202608.554,1,40,19,
sequence,flow.Sequence,6_18,2023-11-17T19:24:43.245Z,,,,,,,,,,,1374.6789999761677,completion,,,,,,,high,low,,,,,,true,,,,,false,202600.69999998808,202599.89999997616,201208.815,201215.30000001192,201225.221,202608.554,1,40,,
trial,html.Screen,6_19_0,2023-11-17T19:24:44.533Z,,,,1,-1.1870093485714288,-1.3339880978442629,,,true,hh,1279.4459999999963,response,1.3827079577591244,1.2,-1.2,1.251855207858803,1.2,-1.2,high,high,,ISIC_8592235.JPG,,ISIC_0028655.JPG,359,true,0.4500000000000003,hh,keypress(i),0,false,203888.30000001192,203888,202591.85,202600.89999997616,202608.554,203891.917,1,40,20,
sequence,flow.Sequence,6_19,2023-11-17T19:24:44.533Z,,,,,,,,,,,1279.4459999999963,completion,,,,,,,high,high,,,,,,true,,,,,false,203888.60000002384,203888,202591.85,202600.80000001192,202608.554,203891.917,1,40,,
trial,html.Screen,6_20_0,2023-11-17T19:24:46.109Z,,,,1,-1.1684835186766898,-1.2921331918483707,,,true,hh,1571.9829999761714,response,1.0642195369108791,1.2,-1.2,1.0897657776277234,1.2,-1.2,high,high,,ISIC_5920470.JPG,,ISIC_0071988.JPG,40,true,0.14,hh,keypress(i),0,false,205464.10000002384,205463.89999997616,203875.256,203888.80000001192,203891.917,205491.867,1,40,21,
sequence,flow.Sequence,6_20,2023-11-17T19:24:46.109Z,,,,,,,,,,,1571.9829999761714,completion,,,,,,,high,high,,,,,,true,,,,,false,205464.39999997616,205463.89999997616,203875.256,203888.69999998808,203891.917,205491.867,1,40,,
trial,html.Screen,6_21_0,2023-11-17T19:24:47.421Z,,,,1,0.9244148283103414,-0.9712966348713286,,,true,lh,1284.0329999761598,response,-0.8472024037189965,1.2,-1.2,0.986370061404882,1.2,-1.2,low,high,,ISIC_7927525.JPG,,ISIC_0054355.JPG,26,true,0.4500000000000003,lh,keypress(e),0,false,206776.19999998808,206775.89999997616,205458.812,205464.69999998808,205491.867,206792.057,1,40,22,
sequence,flow.Sequence,6_21,2023-11-17T19:24:47.421Z,,,,,,,,,,,1284.0329999761598,completion,,,,,,,low,high,,,,,,true,,,,,false,206776.60000002384,206775.89999997616,205458.812,205464.60000002384,205491.867,206792.057,1,40,,
trial,html.Screen,6_22_0,2023-11-17T19:24:48.763Z,,,,1,-1.2541318165695772,-1.085289936617366,,,true,hh,1326.7430000119202,response,1.1302628852630028,1.2,-1.2,1.288906469447243,1.2,-1.2,high,high,,ISIC_4277207.JPG,,ISIC_0071050.JPG,288,true,0.40000000000000024,hh,keypress(i),0,false,208118.80000001192,208118.80000001192,206775.386,206776.80000001192,206792.057,208125.139,1,40,23,
sequence,flow.Sequence,6_22,2023-11-17T19:24:48.764Z,,,,,,,,,,,1326.7430000119202,completion,,,,,,,high,high,,,,,,true,,,,,false,208118.89999997616,208118.80000001192,206775.386,206776.69999998808,206792.057,208125.139,1,40,,
trial,html.Screen,6_23_0,2023-11-17T19:24:50.020Z,,,,1,1.236306205926646,1.116612676102794,,,true,ll,1249.8610000000044,response,-1.274752206258116,1.2,-1.2,-1.2988509166163749,1.2,-1.2,low,low,,ISIC_0054341.JPG,,ISIC_6704623.JPG,25,true,0.14,ll,keypress(f),0,false,209375.10000002384,209375,208108.764,208118.89999997616,208125.139,209391.865,1,40,24,
sequence,flow.Sequence,6_23,2023-11-17T19:24:50.020Z,,,,,,,,,,,1249.8610000000044,completion,,,,,,,low,low,,,,,,true,,,,,false,209375.19999998808,209375,208108.764,208118.89999997616,208125.139,209391.865,1,40,,
trial,html.Screen,6_24_0,2023-11-17T19:24:51.123Z,,,,1,-0.8034318937720549,1.0024917298189338,,,true,hl,1086.7350000238512,response,1.2646773654288392,1.2,-1.2,-0.952963803634235,1.2,-1.2,high,low,,ISIC_0032766.JPG,,ISIC_1996356.JPG,27,true,0.40000000000000024,hl,keypress(j),0,false,210478.69999998808,210478.60000002384,209375.193,209375.39999997616,209391.865,210491.903,1,40,25,
sequence,flow.Sequence,6_24,2023-11-17T19:24:51.124Z,,,,,,,,,,,1086.7350000238512,completion,,,,,,,high,low,,,,,,true,,,,,false,210478.80000001192,210478.60000002384,209375.193,209375.30000001192,209391.865,210491.903,1,40,,
trial,html.Screen,6_25_0,2023-11-17T19:24:52.445Z,,,,1,1.1302628852630028,1.288906469447243,,,true,ll,1307.996999976167,response,-1.3130464853633568,1.2,-1.2,-1.3410234912698384,1.2,-1.2,low,low,,ISIC_0071050.JPG,,ISIC_0004486.JPG,265,true,0.4500000000000003,ll,keypress(f),0,false,211800.10000002384,211799.89999997616,210475.338,210478.89999997616,210491.903,211808.527,1,40,26,
sequence,flow.Sequence,6_25,2023-11-17T19:24:52.445Z,,,,,,,,,,,1307.996999976167,completion,,,,,,,low,low,,,,,,true,,,,,false,211800.60000002384,211799.89999997616,210475.338,210478.89999997616,210491.903,211808.527,1,40,,
trial,html.Screen,6_26_0,2023-11-17T19:24:53.933Z,,,,1,1.1441767540243375,1.0949087392471728,,,true,ll,1479.273000011919,response,-1.1843968275545205,1.2,-1.2,-1.2828739728067764,1.2,-1.2,low,low,,ISIC_0054146.JPG,,ISIC_0002901.JPG,25,true,0.14,ll,keypress(f),0,false,213288,213287.80000001192,211792.063,211800.69999998808,211808.527,213291.915,1,40,27,
sequence,flow.Sequence,6_26,2023-11-17T19:24:53.933Z,,,,,,,,,,,1479.273000011919,completion,,,,,,,low,low,,,,,,true,,,,,false,213288.30000001192,213287.80000001192,211792.063,211800.60000002384,211808.527,213291.915,1,40,,
trial,html.Screen,6_27_0,2023-11-17T19:24:55.102Z,,,,1,-1.2219550761700546,-1.2809901875733454,,,true,hh,1164.8850000119128,response,1.2691569063625474,1.2,-1.2,1.1264228993232308,1.2,-1.2,high,high,,ISIC_6463417.JPG,,ISIC_4980656.JPG,30,true,0.13,hh,keypress(i),0,false,214457,214456.80000001192,213275.412,213288.5,213291.915,214475.61,1,40,28,
sequence,flow.Sequence,6_27,2023-11-17T19:24:55.102Z,,,,,,,,,,,1164.8850000119128,completion,,,,,,,high,high,,,,,,true,,,,,false,214457.39999997616,214456.80000001192,213275.412,213288.39999997616,213291.915,214475.61,1,40,,
trial,html.Screen,6_28_0,2023-11-17T19:24:56.124Z,,,,1,1.1048559518249943,1.2252457981338687,,,true,ll,1003.7899999761721,response,-1.151139267005652,1.2,-1.2,-1.0838749490501327,1.2,-1.2,low,low,,ISIC_0060817.JPG,,ISIC_0002566.JPG,25,true,0.14,ll,keypress(f),0,false,215479.69999998808,215479.39999997616,214442.087,214457.60000002384,214475.61,215508.538,1,40,29,
sequence,flow.Sequence,6_28,2023-11-17T19:24:56.125Z,,,,,,,,,,,1003.7899999761721,completion,,,,,,,low,low,,,,,,true,,,,,false,215480.10000002384,215479.39999997616,214442.087,214457.5,214475.61,215508.538,1,40,,
trial,html.Screen,6_29_0,2023-11-17T19:24:57.413Z,,,,1,1.0116417541846066,-1.033442916947398,,,true,lh,1259.3619999761577,response,-1.2578167348825195,1.2,-1.2,0.8371819698254004,1.2,-1.2,low,high,,ISIC_0031389.JPG,,ISIC_9613570.JPG,26,true,0.4500000000000003,lh,keypress(e),0,false,216768.19999998808,216767.89999997616,215493.184,215480.19999998808,215508.538,216775.142,1,40,30,
sequence,flow.Sequence,6_29,2023-11-17T19:24:57.413Z,,,,,,,,,,,1259.3619999761577,completion,,,,,,,low,high,,,,,,true,,,,,false,216768.5,216767.89999997616,215493.184,215480.19999998808,215508.538,216775.142,1,40,,
trial,html.Screen,6_30_0,2023-11-17T19:24:58.660Z,,,,1,1.2194553326562725,1.2381726989215684,,,true,ll,1239.6580000119284,response,-0.8349608285623907,1.2,-1.2,-1.224273809202855,1.2,-1.2,low,low,,ISIC_0068975.JPG,,ISIC_3021188.JPG,203,true,0.40000000000000024,ll,keypress(f),0,false,218014.89999997616,218014.80000001192,216758.768,216768.60000002384,216775.142,218025.16,1,40,31,
sequence,flow.Sequence,6_30,2023-11-17T19:24:58.660Z,,,,,,,,,,,1239.6580000119284,completion,,,,,,,low,low,,,,,,true,,,,,false,218015,218014.80000001192,216758.768,216768.60000002384,216775.142,218025.16,1,40,,
trial,html.Screen,6_31_0,2023-11-17T19:24:59.822Z,,,,1,-1.2724293858920366,-1.149360738769835,,,true,hh,1151.5399999880756,response,1.1117876838408909,1.2,-1.2,1.2957497771092716,1.2,-1.2,high,high,,ISIC_1264725.JPG,,ISIC_0061915.JPG,30,true,0.13,hh,keypress(i),0,false,219177,219176.69999998808,218008.711,218015,218025.16,219208.469,1,40,32,
sequence,flow.Sequence,6_31,2023-11-17T19:24:59.822Z,,,,,,,,,,,1151.5399999880756,completion,,,,,,,high,high,,,,,,true,,,,,false,219177.39999997616,219176.69999998808,218008.711,218015,218025.16,219208.469,1,40,,
trial,html.Screen,6_32_0,2023-11-17T19:25:01.012Z,,,,1,0.8544507134472948,-0.9244388608707323,,,true,lh,1158.63100002383,response,-0.8719231363109603,1.2,-1.2,0.7704280220140033,1.2,-1.2,low,high,,ISIC_3565564.JPG,,ISIC_0029453.JPG,26,true,0.4500000000000003,lh,keypress(e),0,false,220367.19999998808,220367.10000002384,219175.242,219177.5,219208.469,220375.314,1,40,33,
sequence,flow.Sequence,6_32,2023-11-17T19:25:01.012Z,,,,,,,,,,,1158.63100002383,completion,,,,,,,low,high,,,,,,true,,,,,false,220367.39999997616,220367.10000002384,219175.242,219177.5,219208.469,220375.314,1,40,,
trial,html.Screen,6_33_0,2023-11-17T19:25:02.701Z,,,,1,1.1392972253022884,1.208510423375335,,,true,ll,1681.085999976145,response,-1.1409143352872226,1.2,-1.2,-1.1323007949069106,1.2,-1.2,low,low,,ISIC_0046526.JPG,,ISIC_0030291.JPG,203,true,0.40000000000000024,ll,keypress(f),0,false,222056.60000002384,222056.39999997616,220358.51,220367.39999997616,220375.314,222076.062,1,40,34,
sequence,flow.Sequence,6_33,2023-11-17T19:25:02.702Z,,,,,,,,,,,1681.085999976145,completion,,,,,,,low,low,,,,,,true,,,,,false,222057,222056.39999997616,220358.51,220367.39999997616,220375.314,222076.062,1,40,,
trial,html.Screen,6_34_0,2023-11-17T19:25:04.429Z,,,,1,0.8067116931297591,-1.215898074058027,,,true,lh,1708.0380000238365,response,-0.8472024037189965,1.2,-1.2,0.986370061404882,1.2,-1.2,low,high,,ISIC_1457687.JPG,,ISIC_0054355.JPG,26,true,0.4500000000000003,lh,keypress(e),0,false,223784.39999997616,223784.10000002384,222041.855,222057.19999998808,222076.062,223791.825,1,40,35,
sequence,flow.Sequence,6_34,2023-11-17T19:25:04.429Z,,,,,,,,,,,1708.0380000238365,completion,,,,,,,low,high,,,,,,true,,,,,false,223784.80000001192,223784.10000002384,222041.855,222057.19999998808,222076.062,223791.825,1,40,,
trial,html.Screen,6_35_0,2023-11-17T19:25:05.717Z,,,,1,0.9244148283103414,-0.9712966348713286,,,true,lh,1280.2750000238302,response,-1.0887164761389951,1.2,-1.2,1.5357518752548716,1.2,-1.2,low,high,,ISIC_7927525.JPG,,ISIC_0028127.JPG,26,true,0.4500000000000003,lh,keypress(e),0,false,225072.39999997616,225072.10000002384,223775.398,223784.89999997616,223791.825,225091.831,1,40,36,
sequence,flow.Sequence,6_35,2023-11-17T19:25:05.717Z,,,,,,,,,,,1280.2750000238302,completion,,,,,,,low,high,,,,,,true,,,,,false,225072.69999998808,225072.10000002384,223775.398,223784.89999997616,223791.825,225091.831,1,40,,
trial,html.Screen,6_36_0,2023-11-17T19:25:06.821Z,,,,1,-1.2054195059663604,0.7760611240296147,,,true,hl,1084.5689999761526,response,0.9089402323867112,1.2,-1.2,-0.8034544077281132,1.2,-1.2,high,low,,ISIC_8712559.JPG,,ISIC_3585381.JPG,27,true,0.40000000000000024,hl,keypress(j),0,false,226176.69999998808,226176.39999997616,225058.585,225072.89999997616,225091.831,226191.826,1,40,37,
sequence,flow.Sequence,6_36,2023-11-17T19:25:06.822Z,,,,,,,,,,,1084.5689999761526,completion,,,,,,,high,low,,,,,,true,,,,,false,226177,226176.39999997616,225058.585,225072.89999997616,225091.831,226191.826,1,40,,
trial,html.Screen,6_37_0,2023-11-17T19:25:08.269Z,,,,1,1.0685314915436992,-0.8203833713472237,,,true,lh,1431.97400001192,response,-1.0453124399868816,1.2,-1.2,0.8986747280184286,1.2,-1.2,low,high,,ISIC_0029374.JPG,,ISIC_0013967.JPG,26,true,0.4500000000000003,lh,keypress(e),0,false,227624.10000002384,227623.80000001192,226175.319,226177.10000002384,226191.826,227641.822,1,40,38,
sequence,flow.Sequence,6_37,2023-11-17T19:25:08.269Z,,,,,,,,,,,1431.97400001192,completion,,,,,,,low,high,,,,,,true,,,,,false,227624.39999997616,227623.80000001192,226175.319,226177.10000002384,226191.826,227641.822,1,40,,
trial,html.Screen,6_38_0,2023-11-17T19:25:09.766Z,,,,1,0.9662688541319592,-0.929746784178986,,,true,lh,1478.8779999880935,response,-1.2578167348825195,1.2,-1.2,0.8371819698254004,1.2,-1.2,low,high,,ISIC_0011077.JPG,,ISIC_9613570.JPG,26,true,0.4500000000000003,lh,keypress(e),0,false,229120.89999997616,229120.69999998808,227608.761,227624.60000002384,227641.822,229125.204,1,40,39,
sequence,flow.Sequence,6_38,2023-11-17T19:25:09.766Z,,,,,,,,,,,1478.8779999880935,completion,,,,,,,low,high,,,,,,true,,,,,false,229121.30000001192,229120.69999998808,227608.761,227624.5,227641.822,229125.204,1,40,,
trial,html.Screen,6_39_0,2023-11-17T19:25:10.892Z,,,,1,-0.8034318937720549,1.0024917298189338,,,true,hl,1122.296000000002,response,0.9544693251394116,1.2,-1.2,-1.0727539917203766,1.2,-1.2,high,low,,ISIC_0032766.JPG,,ISIC_0055147.JPG,27,true,0.40000000000000024,hl,keypress(j),0,false,230247.80000001192,230247.5,229108.558,229121.39999997616,229125.204,230258.553,1,40,40,
sequence,flow.Sequence,6_39,2023-11-17T19:25:10.893Z,,,,,,,,,,,1122.296000000002,completion,,,,,,,high,low,,,,,,true,,,,,false,230248.10000002384,230247.5,229108.558,229121.39999997616,229125.204,230258.553,1,40,,
practice_loop,flow.Loop,6,2023-11-17T19:25:10.893Z,,,,,,,,,,,89922.08600000001,completion,,,,,,,,,,,,,,true,,,,,false,230248.39999997616,230247.5,140308.757,140302.39999997616,140325.414,230258.553,1,40,,
stair_instructions,html.Screen,7,2023-11-17T19:25:13.171Z,,,,,,,,,,,2267.1469999880646,response,,,,,,,,,,,,,,,,continue,click button,,,232526.5,232525.69999998808,230241.895,230248.5,230258.553,232558.549,,,,
trial,html.Screen,8_0_0,2023-11-17T19:25:16.999Z,,,,2,-0.0009714874637896,0.0174815595031679,,0.04,true,lh,3794.951000000001,response,-0.8830264383952469,1.2,-1.2,0.8635562538060516,1.2,-1.2,low,high,,ISIC_9848743.JPG,,ISIC_0032258.JPG,26,false,0.4500000000000003,lh,keypress(e),0,true,236353.60000002384,236353.5,232542.063,232526.60000002384,232558.549,236375.092,1,40,1,
sequence,flow.Sequence,8_0,2023-11-17T19:25:16.999Z,,,,,,,,,,,3794.951000000001,completion,,,,,,,low,high,,,,,,false,,,,,true,236353.69999998808,236353.5,232542.063,232526.60000002384,232558.549,236375.092,1,40,,
trial,html.Screen,8_1_0,2023-11-17T19:25:22.294Z,,,,2,0.039520186367207,0.0377961575607372,,0.04,false,hl,5273.008000023838,response,0.8544507134472948,1.15,-1.15,-0.9244388608707323,1.15,-1.15,high,low,,ISIC_6356149.JPG,,ISIC_3565564.JPG,26,false,0.3500000000000002,hh,keypress(i),0,true,241648.39999997616,241648.10000002384,236358.427,236353.80000001192,236375.092,241658.446,1,40,2,
sequence,flow.Sequence,8_1,2023-11-17T19:25:22.294Z,,,,,,,,,,,5273.008000023838,completion,,,,,,,high,low,,,,,,false,,,,,true,241648.80000001192,241648.10000002384,236358.427,236353.80000001192,236375.092,241658.446,1,40,,
trial,html.Screen,8_2_0,2023-11-17T19:25:30.264Z,,,,2,-0.0009714874637896,0.0174815595031679,,0.04,false,hh,7959.253999988083,response,1.0773466327271526,1.15,-1.15,1.1601445610079184,1.15,-1.15,high,high,,ISIC_9848743.JPG,,ISIC_0055169.JPG,27,false,0.1,hl,keypress(j),0,true,249618,249617.69999998808,241641.633,241648.89999997616,241658.446,249625.118,1,40,3,
sequence,flow.Sequence,8_2,2023-11-17T19:25:30.264Z,,,,,,,,,,,7959.253999988083,completion,,,,,,,high,high,,,,,,false,,,,,true,249618.30000001192,249617.69999998808,241641.633,241648.89999997616,241658.446,249625.118,1,40,,
trial,html.Screen,8_3_0,2023-11-17T19:25:35.204Z,,,,2,-0.0286056110007553,-0.036125199756515,,0.04,false,hh,4933.382000000012,response,0.8288414156732227,0.9158986730872236,-1.15,1.238502573714157,1.15,-1.15,high,high,,ISIC_6535558.JPG,,ISIC_7484771.JPG,35,false,0.1,ll,keypress(f),0,true,254558.60000002384,254558.5,249608.152,249618.5,249625.118,254575.341,1,40,4,
sequence,flow.Sequence,8_3,2023-11-17T19:25:35.204Z,,,,,,,,,,,4933.382000000012,completion,,,,,,,high,high,,,,,,false,,,,,true,254558.69999998808,254558.5,249608.152,249618.5,249625.118,254575.341,1,40,,
trial,html.Screen,8_4_0,2023-11-17T19:25:49.966Z,,,,2,-0.0200295718112167,-0.0155559071275806,,0.04,false,ll,14744.959000011935,response,-1.1441960791049337,0.9658986730872237,-1.15,-1.0156321899655198,1.15,-1.15,low,low,,ISIC_0061343.JPG,,ISIC_4023381.JPG,27,false,0.14,hh,keypress(i),0,true,269320.60000002384,269320.3000000119,254558.429,254558.80000001192,254575.341,269325.091,1,40,5,
sequence,flow.Sequence,8_4,2023-11-17T19:25:49.967Z,,,,,,,,,,,14744.959000011935,completion,,,,,,,low,low,,,,,,false,,,,,true,269320.89999997616,269320.3000000119,254558.429,254558.69999998808,254575.341,269325.091,1,40,,
trial,html.Screen,8_5_0,2023-11-17T19:25:52.534Z,,,,2,-0.0283578106329894,0.0088840758711548,,0.04,true,hh,2562.908999999985,response,0.8954798455174807,0.9658986730872237,-1.15,1.224456631184783,1.15,-1.15,high,high,,ISIC_0060707.JPG,,ISIC_0033024.JPG,36,false,0.1,hh,keypress(i),0,true,271888.1999999881,271888,269308.014,269321.10000002384,269325.091,271891.754,1,40,6,
sequence,flow.Sequence,8_5,2023-11-17T19:25:52.534Z,,,,,,,,,,,2562.908999999985,completion,,,,,,,high,high,,,,,,false,,,,,true,271888.60000002384,271888,269308.014,269321,269325.091,271891.754,1,40,,
trial,html.Screen,8_6_0,2023-11-17T19:25:57.901Z,,,,2,-0.0283578106329894,0.0088840758711548,,0.04,false,hl,5363.645999976143,response,0.6761608723588025,0.9658986730872237,-1.15,-1.0058174828582729,1.15,-1.15,high,low,,ISIC_0060707.JPG,,ISIC_1343302.JPG,27,false,0.29000000000000015,ll,keypress(f),0,true,277255.5,277255.39999997616,271875.252,271888.8000000119,271891.754,277275.045,1,40,7,
sequence,flow.Sequence,8_6,2023-11-17T19:25:57.901Z,,,,,,,,,,,5363.645999976143,completion,,,,,,,high,low,,,,,,false,,,,,true,277255.89999997616,277255.39999997616,271875.252,271888.6999999881,271891.754,277275.045,1,40,,
trial,html.Screen,8_7_0,2023-11-17T19:26:03.047Z,,,,2,-0.0258224118104549,0.0029364553353019,,0.04,true,hl,5125.755000011937,response,0.7629099401226335,1.0158986730872237,-1.15,-0.8515956627075536,1.15,-1.15,high,low,,ISIC_8325226.JPG,,ISIC_0028718.JPG,25,false,0.30000000000000016,hl,keypress(j),0,true,282401.10000002384,282400.8000000119,277241.513,277256,277275.045,282408.307,1,40,8,
sequence,flow.Sequence,8_7,2023-11-17T19:26:03.047Z,,,,,,,,,,,5125.755000011937,completion,,,,,,,high,low,,,,,,false,,,,,true,282401.39999997616,282400.8000000119,277241.513,277255.89999997616,277275.045,282408.307,1,40,,
trial,html.Screen,8_8_0,2023-11-17T19:26:05.022Z,,,,2,-0.0257631352671967,-0.0202837002774028,,0.04,false,ll,1967.6930000000284,response,-1.2101243893950622,1.0158986730872237,-1.15,-0.9721089662087676,1.15,-1.0999999999999999,low,low,,ISIC_0032797.JPG,,ISIC_0760740.JPG,27,false,0.13,hl,keypress(j),0,true,284376.3000000119,284376,282391.614,282401.60000002384,282408.307,284391.881,1,40,9,
sequence,flow.Sequence,8_8,2023-11-17T19:26:05.022Z,,,,,,,,,,,1967.6930000000284,completion,,,,,,,low,low,,,,,,false,,,,,true,284376.6999999881,284376,282391.614,282401.5,282408.307,284391.881,1,40,,
trial,html.Screen,8_9_0,2023-11-17T19:26:12.413Z,,,,2,0.039520186367207,0.0377961575607372,,0.04,false,hh,7375.318999988085,response,1.061329542878903,1.0158986730872237,-1.15,1.0605755702127622,1.15,-1.0999999999999999,high,high,,ISIC_6356149.JPG,,ISIC_0065622.JPG,39,false,0.1,lh,keypress(e),0,true,291767.1999999881,291767.1999999881,284375.108,284376.8000000119,284391.881,291774.971,1,40,10,
sequence,flow.Sequence,8_9,2023-11-17T19:26:12.413Z,,,,,,,,,,,7375.318999988085,completion,,,,,,,high,high,,,,,,false,,,,,true,291767.39999997616,291767.1999999881,284375.108,284376.8000000119,284391.881,291774.971,1,40,,
trial,html.Screen,8_10_0,2023-11-17T19:26:17.951Z,,,,2,-0.0118382036798625,-0.0300588245877227,,0.04,false,ll,5529.428999976139,response,-1.2100527057059796,1.0658986730872237,-1.15,-1.2159112471537263,1.0999999999999999,-1.0999999999999999,low,low,,ISIC_4748605.JPG,,ISIC_0008055.JPG,27,false,0.13,hl,keypress(j),0,true,297304.60000002384,297304.39999997616,291758.326,291767.39999997616,291774.971,297308.318,1,40,11,
sequence,flow.Sequence,8_10,2023-11-17T19:26:17.952Z,,,,,,,,,,,5529.428999976139,completion,,,,,,,low,low,,,,,,false,,,,,true,297305.10000002384,297304.39999997616,291758.326,291767.39999997616,291774.971,297308.318,1,40,,
trial,html.Screen,8_11_0,2023-11-17T19:26:21.095Z,,,,2,-0.0009714874637896,0.0174815595031679,,0.04,true,hl,3139.3819999880507,response,1.0153439398566937,1.0658986730872237,-1.15,-0.93001438372942,1.0999999999999999,-1.0440101066812468,high,low,,ISIC_9848743.JPG,,ISIC_8211214.JPG,25,false,0.2500000000000001,hl,keypress(j),0,true,300448,300447.6999999881,297291.623,297305.3000000119,297308.318,300458.461,1,40,12,
sequence,flow.Sequence,8_11,2023-11-17T19:26:21.095Z,,,,,,,,,,,3139.3819999880507,completion,,,,,,,high,low,,,,,,false,,,,,true,300448.39999997616,300447.6999999881,297291.623,297305.3000000119,297308.318,300458.461,1,40,,
trial,html.Screen,8_12_0,2023-11-17T19:26:26.831Z,,,,2,-0.0367706518941078,0.0161069838272154,,0.04,false,hh,5725.339000011911,response,0.9724648821496716,1.0658986730872237,-1.15,1.1397234432581471,1.0999999999999999,-1.0440101066812468,high,high,,ISIC_0033419.JPG,,ISIC_0061029.JPG,39,false,0.1,ll,keypress(f),0,true,306184.10000002384,306183.8000000119,300441.637,300448.5,300458.461,306208.252,1,40,13,
sequence,flow.Sequence,8_12,2023-11-17T19:26:26.831Z,,,,,,,,,,,5725.339000011911,completion,,,,,,,high,high,,,,,,false,,,,,true,306184.5,306183.8000000119,300441.637,300448.5,300458.461,306208.252,1,40,,
trial,html.Screen,8_13_0,2023-11-17T19:26:33.000Z,,,,2,0.0065172941585523,-0.0118857043117315,,0.04,false,hl,6144.64799997618,response,0.9633172970727744,1.1158986730872238,-1.15,-0.8472659344792351,1.15,-1.0440101066812468,high,low,,ISIC_6119202.JPG,,ISIC_0067172.JPG,25,false,0.27000000000000013,ll,keypress(f),0,true,312353.1999999881,312352.89999997616,306174.995,306184.60000002384,306208.252,312374.931,1,40,14,
sequence,flow.Sequence,8_13,2023-11-17T19:26:33.000Z,,,,,,,,,,,6144.64799997618,completion,,,,,,,high,low,,,,,,false,,,,,true,312353.60000002384,312352.89999997616,306174.995,306184.60000002384,306208.252,312374.931,1,40,,
trial,html.Screen,8_14_0,2023-11-17T19:26:37.727Z,,,,2,0.0199950873045219,0.0172506388509166,,0.04,false,lh,4704.968999976176,response,-1.2054195059663604,1.1658986730872238,-1.15,0.7760611240296147,1.15,-0.8386401591043275,low,high,,ISIC_0029906.JPG,,ISIC_8712559.JPG,26,false,0.40000000000000024,hh,keypress(i),0,true,317080.1999999881,317079.89999997616,312341.53,312353.8000000119,312374.931,317091.624,1,40,15,
sequence,flow.Sequence,8_14,2023-11-17T19:26:37.727Z,,,,,,,,,,,4704.968999976176,completion,,,,,,,low,high,,,,,,false,,,,,true,317080.5,317079.89999997616,312341.53,312353.6999999881,312374.931,317091.624,1,40,,
trial,html.Screen,8_15_0,2023-11-17T19:26:42.223Z,,,,2,-0.0258224118104549,0.0029364553353019,,0.04,false,hh,4484.575999988068,response,1.0605529903237636,1.1658986730872238,-1.15,1.1183115777058938,1.15,-0.8386401591043275,high,high,,ISIC_8325226.JPG,,ISIC_0011365.JPG,32,false,0.11,lh,keypress(e),0,true,321576.39999997616,321576.1999999881,317075.029,317080.6999999881,317091.624,321591.537,1,40,16,
sequence,flow.Sequence,8_15,2023-11-17T19:26:42.223Z,,,,,,,,,,,4484.575999988068,completion,,,,,,,high,high,,,,,,false,,,,,true,321576.8000000119,321576.1999999881,317075.029,317080.6999999881,317091.624,321591.537,1,40,,
trial,html.Screen,8_16_0,2023-11-17T19:26:45.719Z,,,,2,0.0164027439304477,-0.0082910758715273,,0.04,false,lh,3480.662999988068,response,-1.203269031614007,1.1658986730872238,-1.15,0.6961047103031557,0.8971863508677542,-0.8386401591043275,low,high,,ISIC_7381224.JPG,,ISIC_0002639.JPG,25,false,0.27000000000000013,ll,keypress(f),0,true,325072.39999997616,325072.1999999881,321575.003,321577,321591.537,325074.948,1,40,17,
sequence,flow.Sequence,8_16,2023-11-17T19:26:45.719Z,,,,,,,,,,,3480.662999988068,completion,,,,,,,low,high,,,,,,false,,,,,true,325072.8000000119,325072.1999999881,321575.003,321577,321591.537,325074.948,1,40,,
trial,html.Screen,8_17_0,2023-11-17T19:26:48.014Z,,,,2,-0.0367744112927588,-0.0324865661712824,,0.04,true,hl,2292.052000000025,response,1.32845627319459,1.1658986730872238,-1.15,-0.6826298758999687,0.9471863508677543,-0.8386401591043275,high,low,,ISIC_4523565.JPG,,ISIC_3026660.JPG,28,false,0.2500000000000001,hl,keypress(j),0,true,327367.10000002384,327367,325058.093,325073,325074.948,327374.859,1,40,18,
sequence,flow.Sequence,8_17,2023-11-17T19:26:48.014Z,,,,,,,,,,,2292.052000000025,completion,,,,,,,high,low,,,,,,false,,,,,true,327367.1999999881,327367,325058.093,325072.89999997616,325074.948,327374.859,1,40,,
trial,html.Screen,8_18_0,2023-11-17T19:26:50.381Z,,,,2,-0.0118382036798625,-0.0300588245877227,,0.04,false,lh,2359.941000011924,response,-0.8954803463300026,1.1658986730872238,-1.15,0.7071819047913821,0.9471863508677543,-0.8386401591043275,low,high,,ISIC_4748605.JPG,,ISIC_0033071.JPG,25,false,0.29000000000000015,hh,keypress(i),0,true,329734.89999997616,329734.8000000119,327358.274,327367.3000000119,327374.859,329741.535,1,40,19,
sequence,flow.Sequence,8_18,2023-11-17T19:26:50.382Z,,,,,,,,,,,2359.941000011924,completion,,,,,,,low,high,,,,,,false,,,,,true,329734.89999997616,329734.8000000119,327358.274,327367.3000000119,327374.859,329741.535,1,40,,
trial,html.Screen,8_19_0,2023-11-17T19:26:51.902Z,,,,2,-0.0076984477620101,-0.0069458408496562,,0.04,false,hh,1514.1649999881047,response,1.1032422846943248,1.1658986730872238,-1.15,0.8526017146535531,0.9471863508677543,-0.8386401591043275,high,high,,ISIC_0000434.JPG,,ISIC_0070170.JPG,29,false,0.11,hl,keypress(j),0,true,331255.89999997616,331255.6999999881,329724.935,329735,329741.535,331258.258,1,40,20,
sequence,flow.Sequence,8_19,2023-11-17T19:26:51.903Z,,,,,,,,,,,1514.1649999881047,completion,,,,,,,high,high,,,,,,false,,,,,true,331256.3000000119,331255.6999999881,329724.935,329735,329741.535,331258.258,1,40,,
trial,html.Screen,8_20_0,2023-11-17T19:26:55.029Z,,,,2,0.0388181790775959,-0.0049623405709465,,0.04,true,ll,3124.4419999881065,response,-1.1450360947247324,0.8552120947428534,-1.15,-0.9543756979111568,0.9971863508677543,-0.8386401591043275,low,low,,ISIC_0061880.JPG,,ISIC_1234463.JPG,30,false,0.12,ll,keypress(f),0,true,334382.6999999881,334382.6999999881,331241.656,331256.39999997616,331258.258,334391.576,1,40,21,
sequence,flow.Sequence,8_20,2023-11-17T19:26:55.029Z,,,,,,,,,,,3124.4419999881065,completion,,,,,,,low,low,,,,,,false,,,,,true,334382.89999997616,334382.6999999881,331241.656,331256.39999997616,331258.258,334391.576,1,40,,
trial,html.Screen,8_21_0,2023-11-17T19:26:58.238Z,,,,2,0.001445457736793,0.0165307427449982,,0.04,false,ll,3199.423999999999,response,-1.1072126870290426,0.8552120947428534,-1.15,-0.9917482735105084,0.9971863508677543,-0.9997058963179446,low,low,,ISIC_0027350.JPG,,ISIC_0071754.JPG,26,false,0.12,hh,keypress(i),0,true,337591.10000002384,337591,334374.923,334383,334391.576,337608.336,1,40,22,
sequence,flow.Sequence,8_21,2023-11-17T19:26:58.238Z,,,,,,,,,,,3199.423999999999,completion,,,,,,,low,low,,,,,,false,,,,,true,337591.1999999881,337591,334374.923,334382.89999997616,334391.576,337608.336,1,40,,
trial,html.Screen,8_22_0,2023-11-17T19:27:04.341Z,,,,2,-0.0367744112927588,-0.0324865661712824,,0.04,false,hl,6086.563999976148,response,0.6588697713356909,0.8552120947428534,-1.15,-0.903230705453214,0.9971863508677543,-1.0497058963179446,high,low,,ISIC_4523565.JPG,,ISIC_0061454.JPG,26,false,0.20000000000000007,ll,keypress(f),0,true,343694.89999997616,343694.89999997616,337575.021,337591.39999997616,337608.336,343708.16,1,40,23,
sequence,flow.Sequence,8_22,2023-11-17T19:27:04.342Z,,,,,,,,,,,6086.563999976148,completion,,,,,,,high,low,,,,,,false,,,,,true,343695,343694.89999997616,337575.021,337591.3000000119,337608.336,343708.16,1,40,,
trial,html.Screen,8_23_0,2023-11-17T19:27:09.951Z,,,,2,0.0241900387072296,-0.0339955304424736,,0.04,false,lh,5595.739999976184,response,-1.203269031614007,0.9052120947428535,-1.15,0.6961047103031557,0.9971863508677543,-1.0497058963179446,low,high,,ISIC_0010789.JPG,,ISIC_0002639.JPG,27,false,0.31000000000000016,hh,keypress(i),0,true,349304.1999999881,349303.89999997616,343691.452,343695.10000002384,343708.16,349308.176,1,40,24,
sequence,flow.Sequence,8_23,2023-11-17T19:27:09.951Z,,,,,,,,,,,5595.739999976184,completion,,,,,,,low,high,,,,,,false,,,,,true,349304.5,349303.89999997616,343691.452,343695.10000002384,343708.16,349308.176,1,40,,
trial,html.Screen,8_24_0,2023-11-17T19:27:14.046Z,,,,2,0.0388334549081915,-0.0303399972963369,,0.04,false,lh,4091.424000023864,response,-1.3046390428588206,0.9052120947428535,-1.15,0.7942099232219556,0.9971863508677543,-1.0497058963179446,low,high,,ISIC_4961708.JPG,,ISIC_0013096.JPG,27,false,0.31000000000000016,hh,keypress(i),0,true,353399.8000000119,353399.60000002384,349291.446,349304.6999999881,349308.176,353408.13,1,40,25,
sequence,flow.Sequence,8_24,2023-11-17T19:27:14.047Z,,,,,,,,,,,4091.424000023864,completion,,,,,,,low,high,,,,,,false,,,,,true,353400.1999999881,353399.60000002384,349291.446,349304.60000002384,349308.176,353408.13,1,40,,
trial,html.Screen,8_25_0,2023-11-17T19:27:19.760Z,,,,2,-0.0076984477620101,-0.0069458408496562,,0.04,false,hh,5704.2699999761535,response,0.9864553897205228,0.9052120947428535,-1.15,0.7203939202840286,0.6951573167625555,-1.0497058963179446,high,high,,ISIC_0000434.JPG,,ISIC_0054334.JPG,56,false,0.1,ll,keypress(f),0,true,359112.6999999881,359112.39999997616,353391.465,353400.39999997616,353408.13,359124.792,1,40,26,
sequence,flow.Sequence,8_25,2023-11-17T19:27:19.760Z,,,,,,,,,,,5704.2699999761535,completion,,,,,,,high,high,,,,,,false,,,,,true,359113,359112.39999997616,353391.465,353400.39999997616,353408.13,359124.792,1,40,,
trial,html.Screen,8_26_0,2023-11-17T19:27:24.398Z,,,,2,0.0065172941585523,-0.0118857043117315,,0.04,false,hl,4626.008000011905,response,1.168911077628813,0.9552120947428535,-1.15,-1.2181838235193114,0.7451573167625556,-1.0497058963179446,high,low,,ISIC_6119202.JPG,,ISIC_7358691.JPG,25,false,0.2300000000000001,lh,keypress(e),0,true,363750.8000000119,363750.8000000119,359108.214,359113.1999999881,359124.792,363758.107,1,40,27,
sequence,flow.Sequence,8_26,2023-11-17T19:27:24.398Z,,,,,,,,,,,4626.008000011905,completion,,,,,,,high,low,,,,,,false,,,,,true,363751,363750.8000000119,359108.214,359113.10000002384,359124.792,363758.107,1,40,,
trial,html.Screen,8_27_0,2023-11-17T19:27:28.175Z,,,,2,0.0241900387072296,-0.0339955304424736,,0.04,false,lh,3769.1930000119028,response,-1.0369885917487718,1.0052120947428536,-1.15,0.8486937878412699,0.7451573167625556,-1.0997058963179447,low,high,,ISIC_0010789.JPG,,ISIC_6917681.JPG,28,false,0.22000000000000008,hl,keypress(j),0,true,367527.39999997616,367527.3000000119,363741.457,363751,363758.107,367541.433,1,40,28,
sequence,flow.Sequence,8_27,2023-11-17T19:27:28.175Z,,,,,,,,,,,3769.1930000119028,completion,,,,,,,low,high,,,,,,false,,,,,true,367527.5,367527.3000000119,363741.457,363751,363758.107,367541.433,1,40,,
trial,html.Screen,8_28_0,2023-11-17T19:27:30.543Z,,,,2,-0.0367744112927588,-0.0324865661712824,,0.04,false,lh,2354.066999999981,response,-0.930804711032185,1.0052120947428536,-1.15,0.7294067991476295,0.7951573167625556,-1.0997058963179447,low,high,,ISIC_4523565.JPG,,ISIC_5067317.JPG,27,false,0.2400000000000001,hh,keypress(i),0,true,369895.6999999881,369895.5,367524.917,367527.60000002384,367541.433,369908.156,1,40,29,
sequence,flow.Sequence,8_28,2023-11-17T19:27:30.544Z,,,,,,,,,,,2354.066999999981,completion,,,,,,,low,high,,,,,,false,,,,,true,369896.10000002384,369895.5,367524.917,367527.60000002384,367541.433,369908.156,1,40,,
trial,html.Screen,8_29_0,2023-11-17T19:27:34.576Z,,,,2,0.0164027439304477,-0.0082910758715273,,0.04,true,lh,4019.8439999999828,response,-1.2578167348825195,1.0052120947428536,-1.15,0.8371819698254004,0.7951573167625556,-1.0997058963179447,low,high,,ISIC_7381224.JPG,,ISIC_9613570.JPG,27,false,0.2400000000000001,lh,keypress(e),0,true,373928.3000000119,373928,369891.605,369896.3000000119,369908.156,373941.445,1,40,30,
sequence,flow.Sequence,8_29,2023-11-17T19:27:34.576Z,,,,,,,,,,,4019.8439999999828,completion,,,,,,,low,high,,,,,,false,,,,,true,373928.6999999881,373928,369891.605,369896.3000000119,369908.156,373941.445,1,40,,
trial,html.Screen,8_30_0,2023-11-17T19:27:39.128Z,,,,2,-0.0258224118104549,0.0029364553353019,,0.04,false,hh,4538.355000011914,response,0.9181084363826326,1.0052120947428536,-1.15,0.6586964144721345,0.7451573167625556,-1.0997058963179447,high,high,,ISIC_8325226.JPG,,ISIC_0056983.JPG,48,false,0.1,ll,keypress(f),0,true,378480.10000002384,378479.8000000119,373924.922,373928.89999997616,373941.445,378491.401,1,40,31,
sequence,flow.Sequence,8_30,2023-11-17T19:27:39.128Z,,,,,,,,,,,4538.355000011914,completion,,,,,,,high,high,,,,,,false,,,,,true,378480.39999997616,378479.8000000119,373924.922,373928.8000000119,373941.445,378491.401,1,40,,
trial,html.Screen,8_31_0,2023-11-17T19:27:44.968Z,,,,2,-0.0119001144851157,0.0063430114540141,,0.04,false,hl,5828.498999976146,response,0.9544693251394116,1.0552120947428536,-1.15,-1.0727539917203766,0.7951573167625556,-1.0997058963179447,high,low,,ISIC_0003822.JPG,,ISIC_0055147.JPG,25,false,0.28000000000000014,lh,keypress(e),0,true,384320.1999999881,384319.89999997616,378474.66,378480.60000002384,378491.401,384324.715,1,40,32,
sequence,flow.Sequence,8_31,2023-11-17T19:27:44.968Z,,,,,,,,,,,5828.498999976146,completion,,,,,,,high,low,,,,,,false,,,,,true,384320.60000002384,384319.89999997616,378474.66,378480.5,378491.401,384324.715,1,40,,
trial,html.Screen,8_32_0,2023-11-17T19:27:50.254Z,,,,2,-0.0119001144851157,0.0063430114540141,,0.04,false,ll,5282.085000011895,response,-1.109799097093339,1.1052120947428536,-1.15,-1.091507924157762,0.7951573167625556,-1.1497058963179447,low,low,,ISIC_0003822.JPG,,ISIC_0765584.JPG,27,false,0.14,hh,keypress(i),0,true,389606.89999997616,389606.8000000119,384308.107,384320.6999999881,384324.715,389625.228,1,40,33,
sequence,flow.Sequence,8_32,2023-11-17T19:27:50.255Z,,,,,,,,,,,5282.085000011895,completion,,,,,,,low,low,,,,,,false,,,,,true,389607.10000002384,389606.8000000119,384308.107,384320.6999999881,384324.715,389625.228,1,40,,
trial,html.Screen,8_33_0,2023-11-17T19:27:53.567Z,,,,2,0.0198696495649504,-0.0387952353063878,,0.04,false,lh,3294.372000023839,response,-0.9292144567580788,1.1052120947428536,-1.15,0.6431072529043046,0.7951573167625556,-1.1997058963179448,low,high,,ISIC_6735970.JPG,,ISIC_4108397.JPG,27,false,0.2400000000000001,hh,keypress(i),0,true,392919.89999997616,392919.60000002384,389591.384,389607.10000002384,389625.228,392924.697,1,40,34,
sequence,flow.Sequence,8_33,2023-11-17T19:27:53.568Z,,,,,,,,,,,3294.372000023839,completion,,,,,,,low,high,,,,,,false,,,,,true,392920.3000000119,392919.60000002384,389591.384,389607.10000002384,389625.228,392924.697,1,40,,
trial,html.Screen,8_34_0,2023-11-17T19:27:58.590Z,,,,2,-0.0308384937406319,0.0038396364323947,,0.04,false,ll,5017.303000000014,response,-1.2246024683501224,1.1052120947428536,-1.15,-1.2904526351590244,0.7951573167625556,-1.1997058963179448,low,low,,ISIC_0029825.JPG,,ISIC_4730066.JPG,25,false,0.14,hl,keypress(j),0,true,397942.10000002384,397942,392908.123,392920.39999997616,392924.697,397957.974,1,40,35,
sequence,flow.Sequence,8_34,2023-11-17T19:27:58.590Z,,,,,,,,,,,5017.303000000014,completion,,,,,,,low,low,,,,,,false,,,,,true,397942.1999999881,397942,392908.123,392920.3000000119,392924.697,397957.974,1,40,,
trial,html.Screen,8_35_0,2023-11-17T19:28:01.279Z,,,,2,-0.0118382036798625,-0.0300588245877227,,0.04,false,hh,2673.2259999880916,response,1.0804044917288194,1.1052120947428536,-1.15,0.7737732725477637,0.7951573167625556,-1.1997058963179448,high,high,,ISIC_4748605.JPG,,ISIC_0011691.JPG,31,false,0.1,ll,keypress(f),0,true,400631.5,400631.1999999881,397941.432,397942.1999999881,397957.974,400641.353,1,40,36,
sequence,flow.Sequence,8_35,2023-11-17T19:28:01.279Z,,,,,,,,,,,2673.2259999880916,completion,,,,,,,high,high,,,,,,false,,,,,true,400631.89999997616,400631.1999999881,397941.432,397942.1999999881,397957.974,400641.353,1,40,,
trial,html.Screen,8_36_0,2023-11-17T19:28:04.838Z,,,,2,,0.0102871556606504,,0.04,false,hl,3549.3469999880763,response,1.2594580992890123,1.1552120947428537,-1.15,-0.8833175387485132,0.8451573167625557,-1.1997058963179448,high,low,,ISIC_1805163.JPG,,ISIC_0011933.JPG,25,false,0.3700000000000002,ll,keypress(f),0,true,404190.8000000119,404190.6999999881,400624.607,400632.10000002384,400641.353,404209.293,1,40,37,
sequence,flow.Sequence,8_36,2023-11-17T19:28:04.838Z,,,,,,,,,,,3549.3469999880763,completion,,,,,,,high,low,,,,,,false,,,,,true,404190.89999997616,404190.6999999881,400624.607,400632,400641.353,404209.293,1,40,,
trial,html.Screen,8_37_0,2023-11-17T19:28:07.688Z,,,,2,0.0388334549081915,-0.0303399972963369,,0.04,false,ll,2830.706999999995,response,-1.1290536173202614,1.1552120947428537,-1.15,-0.9768663240505168,0.8451573167625557,-1.0368850869537687,low,low,,ISIC_4961708.JPG,,ISIC_2196127.JPG,30,false,0.13,lh,keypress(e),0,true,407040.1999999881,407040,404174.812,404190.89999997616,404209.293,407074.953,1,40,38,
sequence,flow.Sequence,8_37,2023-11-17T19:28:07.688Z,,,,,,,,,,,2830.706999999995,completion,,,,,,,low,low,,,,,,false,,,,,true,407040.60000002384,407040,404174.812,404190.89999997616,404209.293,407074.953,1,40,,
trial,html.Screen,8_38_0,2023-11-17T19:28:12.120Z,,,,2,0.0388334549081915,-0.0303399972963369,,0.04,false,ll,4397.647000023862,response,-1.1290536173202614,1.1552120947428537,-1.15,-0.9768663240505168,0.8451573167625557,-1.0868850869537687,low,low,,ISIC_4961708.JPG,,ISIC_2196127.JPG,28,false,0.13,hl,keypress(j),0,true,411472.8000000119,411472.60000002384,407058.13,407040.8000000119,407074.953,411491.897,1,40,39,
sequence,flow.Sequence,8_38,2023-11-17T19:28:12.121Z,,,,,,,,,,,4397.647000023862,completion,,,,,,,low,low,,,,,,false,,,,,true,411473.3000000119,411472.60000002384,407058.13,407040.8000000119,407074.953,411491.897,1,40,,
trial,html.Screen,8_39_0,2023-11-17T19:28:18.167Z,,,,2,0.0388181790775959,-0.0049623405709465,,0.04,true,ll,6026.603000000003,response,-1.274417010249866,1.1552120947428537,-1.15,-1.0725495669014795,0.8451573167625557,-1.0868850869537687,low,low,,ISIC_0061880.JPG,,ISIC_8849004.JPG,28,false,0.13,ll,keypress(f),0,true,417518.60000002384,417518.5,411458.058,411473.39999997616,411491.897,417524.613,1,40,40,
sequence,flow.Sequence,8_39,2023-11-17T19:28:18.167Z,,,,,,,,,,,6026.603000000003,completion,,,,,,,low,low,,,,,,false,,,,,true,417518.6999999881,417518.5,411458.058,411473.39999997616,411491.897,417524.613,1,40,,
stair_loop,flow.Loop,8,2023-11-17T19:28:18.167Z,,,,,,,,,,,184959.951,completion,,,,,,,,,,,,,,false,,,,,true,417518.8000000119,417518.5,232542.063,232526.60000002384,232558.549,417524.613,1,40,,
exp_instructions,html.Screen,9,2023-11-17T19:28:25.007Z,,,,,,,,,,,6833.786999976146,response,,,,,,,,,,,,,,,,continue,keypress(Space),,,424358.6999999881,424358.39999997616,417507.953,417518.8000000119,417524.613,424374.668,,,,
trial,html.Screen,10_0_0,2023-11-17T19:28:29.974Z,,,,1,0.0241900387072296,-0.0339955304424736,,0.04,false,hl,4950.932000023837,response,1.2594580992890123,1.0177120947428535,-1.1499999999999997,-0.8833175387485132,0.8431645752888552,-1.0872294880526372,high,low,,ISIC_0010789.JPG,8,ISIC_0011933.JPG,25,false,0.2500000000000001,ll,keypress(f),0,false,429325.6999999881,429325.60000002384,424357.962,424358.8000000119,424374.668,429341.3,4,500,1,
break,html.Screen,10_0_1,2023-11-17T19:28:29.974Z,,,,,,,,,,,NaN,,,,,,,,high,low,,,,,,false,,,,,false,429326.10000002384,429326.10000002384,,429325.8000000119,,429341.3,4,500,,
break_continue,html.Screen,10_0_2,2023-11-17T19:28:29.975Z,,,,,,,,,,,NaN,,,,,,,,high,low,,,,,,false,,,,,false,429326.39999997616,429326.3000000119,,429326.1999999881,,429341.3,4,500,,
sequence,flow.Sequence,10_0,2023-11-17T19:28:29.975Z,,,,,,,,,,,4951.632000011916,completion,,,,,,,high,low,,,,,,false,,,,,false,429326.60000002384,429326.3000000119,424357.962,424358.8000000119,424374.668,429341.3,4,500,,
trial,html.Screen,10_1_0,2023-11-17T19:28:33.223Z,,,,1,-0.0009714874637896,0.0174815595031679,,0.04,true,lh,3233.59999997617,response,-0.8954803463300026,1.0177120947428535,-1.1499999999999997,0.7071819047913821,0.8431645752888552,-1.0872294880526372,low,high,,ISIC_9848743.JPG,8,ISIC_0033071.JPG,26,false,0.2600000000000001,lh,keypress(e),0,false,432575,432574.89999997616,429324.615,429326.60000002384,429341.3,432591.336,4,500,2,
break,html.Screen,10_1_1,2023-11-17T19:28:33.224Z,,,,,,,,,,,NaN,,,,,,,,low,high,,,,,,false,,,,,false,432575.3000000119,432575.1999999881,,432575,,432591.336,4,500,,
break_continue,html.Screen,10_1_2,2023-11-17T19:28:33.224Z,,,,,,,,,,,NaN,,,,,,,,low,high,,,,,,false,,,,,false,432575.60000002384,432575.39999997616,,432575.39999997616,,432591.336,4,500,,
sequence,flow.Sequence,10_1,2023-11-17T19:28:33.224Z,,,,,,,,,,,3234.09999997617,completion,,,,,,,low,high,,,,,,false,,,,,false,432575.6999999881,432575.39999997616,429324.615,429326.60000002384,429341.3,432591.336,4,500,,
trial,html.Screen,10_2_0,2023-11-17T19:28:35.328Z,,,,1,-0.0286056110007553,-0.036125199756515,,0.04,false,hl,2088.2640000238316,response,0.9633172970727744,1.0177120947428535,-1.1499999999999997,-0.8472659344792351,0.8431645752888552,-1.0872294880526372,high,low,,ISIC_6535558.JPG,9,ISIC_0067172.JPG,25,false,0.2500000000000001,lh,keypress(e),0,false,434679.8000000119,434679.60000002384,432574.766,432575.6999999881,432591.336,434691.254,4,500,3,
break,html.Screen,10_2_1,2023-11-17T19:28:35.329Z,,,,,,,,,,,NaN,,,,,,,,high,low,,,,,,false,,,,,false,434680.8000000119,434680.5,,434680.1999999881,,434691.254,4,500,,
break_continue,html.Screen,10_2_2,2023-11-17T19:28:35.330Z,,,,,,,,,,,NaN,,,,,,,,high,low,,,,,,false,,,,,false,434681.60000002384,434681.1999999881,,434681,,434691.254,4,500,,
sequence,flow.Sequence,10_2,2023-11-17T19:28:35.330Z,,,,,,,,,,,2089.863999988069,completion,,,,,,,high,low,,,,,,false,,,,,false,434681.8000000119,434681.1999999881,432574.766,432575.6999999881,432591.336,434691.254,4,500,,
trial,html.Screen,10_3_0,2023-11-17T19:28:39.183Z,,,,1,0.0199950873045219,0.0172506388509166,,0.04,false,hl,3842.9459999880637,response,1.0153439398566937,1.0177120947428535,-1.1499999999999997,-0.93001438372942,0.8431645752888552,-1.0872294880526372,high,low,,ISIC_0029906.JPG,9,ISIC_8211214.JPG,25,false,0.2500000000000001,ll,keypress(f),0,false,438534.3000000119,438534.1999999881,434674.68,434682,434691.254,438541.232,4,500,4,
break,html.Screen,10_3_1,2023-11-17T19:28:39.183Z,,,,,,,,,,,NaN,,,,,,,,high,low,,,,,,false,,,,,false,438534.60000002384,438534.60000002384,,438534.39999997616,,438541.232,4,500,,
break_continue,html.Screen,10_3_2,2023-11-17T19:28:39.183Z,,,,,,,,,,,NaN,,,,,,,,high,low,,,,,,false,,,,,false,438534.89999997616,438534.6999999881,,438534.6999999881,,438541.232,4,500,,
sequence,flow.Sequence,10_3,2023-11-17T19:28:39.183Z,,,,,,,,,,,3843.4459999880637,completion,,,,,,,high,low,,,,,,false,,,,,false,438534.89999997616,438534.6999999881,434674.68,434681.89999997616,434691.254,438541.232,4,500,,
trial,html.Screen,10_4_0,2023-11-17T19:28:42.854Z,,,,1,-0.0367706518941078,0.0161069838272154,,0.04,false,lh,3664.467999988061,response,-0.9653573371180936,1.0177120947428535,-1.1499999999999997,0.854766800381037,0.8431645752888552,-1.0872294880526372,low,high,,ISIC_0033419.JPG,10,ISIC_9640145.JPG,26,false,0.2600000000000001,hh,keypress(i),0,false,442205.8000000119,442205.6999999881,438524.699,438534.89999997616,438541.232,442207.862,4,500,5,
break,html.Screen,10_4_1,2023-11-17T19:28:42.855Z,,,,,,,,,,,NaN,,,,,,,,low,high,,,,,,false,,,,,false,442206.3000000119,442206.1999999881,,442205.89999997616,,442207.862,4,500,,
break_continue,html.Screen,10_4_2,2023-11-17T19:28:42.855Z,,,,,,,,,,,NaN,,,,,,,,low,high,,,,,,false,,,,,false,442206.5,442206.39999997616,,442206.3000000119,,442207.862,4,500,,
sequence,flow.Sequence,10_4,2023-11-17T19:28:42.855Z,,,,,,,,,,,3665.16799997614,completion,,,,,,,low,high,,,,,,false,,,,,false,442206.60000002384,442206.39999997616,438524.699,438534.89999997616,438541.232,442207.862,4,500,,
trial,html.Screen,10_5_0,2023-11-17T19:28:47.368Z,,,,1,0.0088741920055285,0.0058246074740588,,0.04,false,hh,4511.337999988056,response,1.1032422846943248,1.0177120947428535,-1.1499999999999997,0.8526017146535531,0.8431645752888552,-1.0872294880526372,high,high,,ISIC_4136663.JPG,9,ISIC_0070170.JPG,37,false,0.1,hl,keypress(j),0,false,446719.39999997616,446719.1999999881,442191.113,442206.60000002384,442207.862,446724.563,4,500,6,
break,html.Screen,10_5_1,2023-11-17T19:28:47.368Z,,,,,,,,,,,NaN,,,,,,,,high,high,,,,,,false,,,,,false,446720.1999999881,446719.89999997616,,446719.6999999881,,446724.563,4,500,,
break_continue,html.Screen,10_5_2,2023-11-17T19:28:47.369Z,,,,,,,,,,,NaN,,,,,,,,high,high,,,,,,false,,,,,false,446720.8000000119,446720.60000002384,,446720.39999997616,,446724.563,4,500,,
sequence,flow.Sequence,10_5,2023-11-17T19:28:47.369Z,,,,,,,,,,,4512.738000023819,completion,,,,,,,high,high,,,,,,false,,,,,false,446720.89999997616,446720.60000002384,442191.113,442206.60000002384,442207.862,446724.563,4,500,,
trial,html.Screen,10_6_0,2023-11-17T19:28:50.112Z,,,,1,0.0065172941585523,-0.0118857043117315,,0.04,false,hh,2738.8369999761344,response,1.1032422846943248,1.0177120947428535,-1.1499999999999997,0.8526017146535531,0.8431645752888552,-1.0872294880526372,high,high,,ISIC_6119202.JPG,9,ISIC_0070170.JPG,37,false,0.1,lh,keypress(e),0,false,449463.6999999881,449463.39999997616,446707.811,446721.10000002384,446724.563,449474.539,4,500,7,
break,html.Screen,10_6_1,2023-11-17T19:28:50.113Z,,,,,,,,,,,NaN,,,,,,,,high,high,,,,,,false,,,,,false,449464.60000002384,449464.39999997616,,449463.89999997616,,449474.539,4,500,,
break_continue,html.Screen,10_6_2,2023-11-17T19:28:50.113Z,,,,,,,,,,,NaN,,,,,,,,high,high,,,,,,false,,,,,false,449465.1999999881,449464.89999997616,,449464.6999999881,,449474.539,4,500,,
sequence,flow.Sequence,10_6,2023-11-17T19:28:50.114Z,,,,,,,,,,,2740.3369999761344,completion,,,,,,,high,high,,,,,,false,,,,,false,449465.5,449464.89999997616,446707.811,446721.10000002384,446724.563,449474.539,4,500,,
trial,html.Screen,10_7_0,2023-11-17T19:28:54.320Z,,,,1,0.0241900387072296,-0.0339955304424736,,0.04,false,lh,4196.660999988089,response,-1.2578167348825195,1.0177120947428535,-1.1499999999999997,0.8371819698254004,0.8431645752888552,-1.0872294880526372,low,high,,ISIC_0010789.JPG,9,ISIC_9613570.JPG,26,false,0.2600000000000001,ll,keypress(f),0,false,453671.5,453671.1999999881,449457.957,449465.6999999881,449474.539,453674.59,4,500,8,
break,html.Screen,10_7_1,2023-11-17T19:28:54.321Z,,,,,,,,,,,NaN,,,,,,,,low,high,,,,,,false,,,,,false,453672.3000000119,453672.10000002384,,453671.8000000119,,453674.59,4,500,,
break_continue,html.Screen,10_7_2,2023-11-17T19:28:54.321Z,,,,,,,,,,,NaN,,,,,,,,low,high,,,,,,false,,,,,false,453673,453672.6999999881,,453672.5,,453674.59,4,500,,
sequence,flow.Sequence,10_7,2023-11-17T19:28:54.321Z,,,,,,,,,,,4198.160999988089,completion,,,,,,,low,high,,,,,,false,,,,,false,453673.1999999881,453672.6999999881,449457.957,449465.60000002384,449474.539,453674.59,4,500,,
trial,html.Screen,10_8_0,2023-11-17T19:28:59.161Z,,,,1,-0.0286056110007553,-0.036125199756515,,0.04,false,hl,4838.1099999880535,response,0.7714570894008278,1.0177120947428535,-1.1499999999999997,-0.9113656554657036,0.8431645752888552,-1.0872294880526372,high,low,,ISIC_6535558.JPG,8,ISIC_4529092.JPG,25,false,0.2500000000000001,lh,keypress(e),0,false,458512.89999997616,458512.6999999881,453657.907,453673.39999997616,453674.59,458524.522,4,500,9,
break,html.Screen,10_8_1,2023-11-17T19:28:59.162Z,,,,,,,,,,,NaN,,,,,,,,high,low,,,,,,false,,,,,false,458513.89999997616,458513.60000002384,,458513.3000000119,,458524.522,4,500,,
break_continue,html.Screen,10_8_2,2023-11-17T19:28:59.163Z,,,,,,,,,,,NaN,,,,,,,,high,low,,,,,,false,,,,,false,458514.60000002384,458514.1999999881,,458514.10000002384,,458524.522,4,500,,
sequence,flow.Sequence,10_8,2023-11-17T19:28:59.163Z,,,,,,,,,,,4839.6099999880535,completion,,,,,,,high,low,,,,,,false,,,,,false,458514.89999997616,458514.1999999881,453657.907,453673.3000000119,453674.59,458524.522,4,500,,
trial,html.Screen,10_9_0,2023-11-17T19:29:01.584Z,,,,1,0.0074667911845194,-0.018500200317654,,0.04,false,lh,2410.978000000003,response,-1.3046390428588206,1.0177120947428535,-1.1499999999999997,0.7942099232219556,0.8431645752888552,-1.0872294880526372,low,high,,ISIC_0058723.JPG,9,ISIC_0013096.JPG,26,false,0.2600000000000001,hl,keypress(j),0,false,460935.8000000119,460935.5,458507.926,458515.10000002384,458524.522,460941.174,4,500,10,
break,html.Screen,10_9_1,2023-11-17T19:29:01.585Z,,,,,,,,,,,NaN,,,,,,,,low,high,,,,,,false,,,,,false,460936.60000002384,460936.5,,460936,,460941.174,4,500,,
break_continue,html.Screen,10_9_2,2023-11-17T19:29:01.586Z,,,,,,,,,,,NaN,,,,,,,,low,high,,,,,,false,,,,,false,460937.39999997616,460937,,460936.8000000119,,460941.174,4,500,,
sequence,flow.Sequence,10_9,2023-11-17T19:29:01.586Z,,,,,,,,,,,2412.478000000003,completion,,,,,,,low,high,,,,,,false,,,,,false,460937.60000002384,460937,458507.926,458515,458524.522,460941.174,4,500,,
trial,html.Screen,10_10_0,2023-11-17T19:29:03.929Z,,,,1,0.0088741920055285,0.0058246074740588,,0.04,false,ll,2339.126000011922,response,-1.0325421457475312,1.0177120947428535,-1.1499999999999997,-1.0219157566370058,0.8431645752888552,-1.0872294880526372,low,low,,ISIC_4136663.JPG,8,ISIC_5336548.JPG,28,false,0.13,hl,keypress(j),0,false,463280.5,463280.3000000119,460924.418,460937.8000000119,460941.174,463291.159,4,500,11,
break,html.Screen,10_10_1,2023-11-17T19:29:03.930Z,,,,,,,,,,,NaN,,,,,,,,low,low,,,,,,false,,,,,false,463281.3000000119,463281.1999999881,,463280.8000000119,,463291.159,4,500,,
break_continue,html.Screen,10_10_2,2023-11-17T19:29:03.930Z,,,,,,,,,,,NaN,,,,,,,,low,low,,,,,,false,,,,,false,463282,463281.6999999881,,463281.5,,463291.159,4,500,,
sequence,flow.Sequence,10_10,2023-11-17T19:29:03.930Z,,,,,,,,,,,2340.52599998808,completion,,,,,,,low,low,,,,,,false,,,,,false,463282.1999999881,463281.6999999881,460924.418,460937.6999999881,460941.174,463291.159,4,500,,
trial,html.Screen,10_11_0,2023-11-17T19:29:07.176Z,,,,1,-0.0308384937406319,0.0038396364323947,,0.04,false,ll,3236.141000011936,response,-1.252716660627398,1.0177120947428535,-1.1499999999999997,-1.183977080937476,0.8431645752888552,-1.0872294880526372,low,low,,ISIC_0029825.JPG,9,ISIC_0034194.JPG,28,false,0.13,hh,keypress(i),0,false,466527.5,466527.3000000119,463274.753,463282.39999997616,463291.159,466541.164,4,500,12,
break,html.Screen,10_11_1,2023-11-17T19:29:07.177Z,,,,,,,,,,,NaN,,,,,,,,low,low,,,,,,false,,,,,false,466528.39999997616,466528.1999999881,,466527.6999999881,,466541.164,4,500,,
break_continue,html.Screen,10_11_2,2023-11-17T19:29:07.177Z,,,,,,,,,,,NaN,,,,,,,,low,low,,,,,,false,,,,,false,466529.10000002384,466528.8000000119,,466528.60000002384,,466541.164,4,500,,
sequence,flow.Sequence,10_11,2023-11-17T19:29:07.178Z,,,,,,,,,,,3237.641000011936,completion,,,,,,,low,low,,,,,,false,,,,,false,466529.3000000119,466528.8000000119,463274.753,463282.39999997616,463291.159,466541.164,4,500,,
trial,html.Screen,10_12_0,2023-11-17T19:29:10.822Z,,,,1,0.0388334549081915,-0.0303399972963369,,0.04,true,hl,3632.936000023852,response,0.8500530224490773,1.0177120947428535,-1.1499999999999997,-1.0893360711742854,0.8431645752888552,-1.0872294880526372,high,low,,ISIC_4961708.JPG,9,ISIC_2998367.JPG,25,false,0.2500000000000001,hl,keypress(j),0,false,470174.1999999881,470174.10000002384,466524.665,466529.5,466541.164,470191.116,4,500,13,
break,html.Screen,10_12_1,2023-11-17T19:29:10.823Z,,,,,,,,,,,NaN,,,,,,,,high,low,,,,,,false,,,,,false,470174.5,470174.39999997616,,470174.3000000119,,470191.116,4,500,,
break_continue,html.Screen,10_12_2,2023-11-17T19:29:10.823Z,,,,,,,,,,,NaN,,,,,,,,high,low,,,,,,false,,,,,false,470174.6999999881,470174.60000002384,,470174.5,,470191.116,4,500,,
sequence,flow.Sequence,10_12,2023-11-17T19:29:10.823Z,,,,,,,,,,,3633.436000023852,completion,,,,,,,high,low,,,,,,false,,,,,false,470174.6999999881,470174.60000002384,466524.665,466529.5,466541.164,470191.116,4,500,,
trial,html.Screen,10_13_0,2023-11-17T19:29:14.823Z,,,,1,-0.0257631352671967,-0.0202837002774028,,0.04,false,lh,3983.38400000002,response,-0.8954803463300026,1.0177120947428535,-1.1499999999999997,0.7071819047913821,0.8431645752888552,-1.0872294880526372,low,high,,ISIC_0032797.JPG,8,ISIC_0033071.JPG,26,false,0.2600000000000001,ll,keypress(f),0,false,474174.60000002384,474174.5,470157.986,470174.8000000119,470191.116,474191.407,4,500,14,
break,html.Screen,10_13_1,2023-11-17T19:29:14.823Z,,,,,,,,,,,NaN,,,,,,,,low,high,,,,,,false,,,,,false,474174.89999997616,474174.8000000119,,474174.6999999881,,474191.407,4,500,,
break_continue,html.Screen,10_13_2,2023-11-17T19:29:14.823Z,,,,,,,,,,,NaN,,,,,,,,low,high,,,,,,false,,,,,false,474175.10000002384,474175,,474174.89999997616,,474191.407,4,500,,
sequence,flow.Sequence,10_13,2023-11-17T19:29:14.823Z,,,,,,,,,,,3983.88400000002,completion,,,,,,,low,high,,,,,,false,,,,,false,474175.1999999881,474175,470157.986,470174.8000000119,470191.116,474191.407,4,500,,
trial,html.Screen,10_14_0,2023-11-17T19:29:19.489Z,,,,1,-0.0308384937406319,0.0038396364323947,,0.04,false,hh,4647.893000011914,response,1.017768542725066,1.0177120947428535,-1.1499999999999997,0.9045368314063942,0.8431645752888552,-1.0872294880526372,high,high,,ISIC_0029825.JPG,10,ISIC_0031752.JPG,37,false,0.1,lh,keypress(e),0,false,478839.60000002384,478839.3000000119,474174.579,474175.1999999881,474191.407,478858.801,4,500,15,
break,html.Screen,10_14_1,2023-11-17T19:29:19.489Z,,,,,,,,,,,NaN,,,,,,,,high,high,,,,,,false,,,,,false,478840.5,478840.3000000119,,478839.8000000119,,478858.801,4,500,,
break_continue,html.Screen,10_14_2,2023-11-17T19:29:19.490Z,,,,,,,,,,,NaN,,,,,,,,high,high,,,,,,false,,,,,false,478841.1999999881,478840.89999997616,,478840.6999999881,,478858.801,4,500,,
sequence,flow.Sequence,10_14,2023-11-17T19:29:19.490Z,,,,,,,,,,,4649.492999976152,completion,,,,,,,high,high,,,,,,false,,,,,false,478841.39999997616,478840.89999997616,474174.579,474175.1999999881,474191.407,478858.801,4,500,,
trial,html.Screen,10_15_0,2023-11-17T19:29:26.913Z,,,,1,0.0374659946425444,0.0086043094957617,,0.04,false,lh,7404.799000023864,response,-1.1898494014853933,1.0177120947428535,-1.1499999999999997,0.7016654052924971,0.8431645752888552,-1.0872294880526372,low,high,,ISIC_0033051.JPG,10,ISIC_6324832.JPG,26,false,0.2600000000000001,hh,keypress(i),0,false,486263.8000000119,486263.60000002384,478824.38,478841.60000002384,478858.801,486274.439,4,500,16,
break,html.Screen,10_15_1,2023-11-17T19:29:26.914Z,,,,,,,,,,,NaN,,,,,,,,low,high,,,,,,false,,,,,false,486264.6999999881,486264.5,,486264.1999999881,,486274.439,4,500,,
break_continue,html.Screen,10_15_2,2023-11-17T19:29:26.914Z,,,,,,,,,,,NaN,,,,,,,,low,high,,,,,,false,,,,,false,486265.5,486265.10000002384,,486265,,486274.439,4,500,,
sequence,flow.Sequence,10_15,2023-11-17T19:29:26.915Z,,,,,,,,,,,7406.299000023864,completion,,,,,,,low,high,,,,,,false,,,,,false,486265.6999999881,486265.10000002384,478824.38,478841.60000002384,478858.801,486274.439,4,500,,
trial,html.Screen,10_16_0,2023-11-17T19:29:31.912Z,,,,1,0.0388181790775959,-0.0049623405709465,,0.04,false,ll,4988.760999988066,response,-1.2100527057059796,1.0177120947428535,-1.1499999999999997,-1.2159112471537263,0.8431645752888552,-1.0872294880526372,low,low,,ISIC_0061880.JPG,10,ISIC_0008055.JPG,28,false,0.13,lh,keypress(e),0,false,491263.5,491263.1999999881,486257.698,486265.89999997616,486274.439,491274.398,4,500,17,
break,html.Screen,10_16_1,2023-11-17T19:29:31.913Z,,,,,,,,,,,NaN,,,,,,,,low,low,,,,,,false,,,,,false,491264.39999997616,491264.1999999881,,491263.8000000119,,491274.398,4,500,,
break_continue,html.Screen,10_16_2,2023-11-17T19:29:31.914Z,,,,,,,,,,,NaN,,,,,,,,low,low,,,,,,false,,,,,false,491265.10000002384,491264.8000000119,,491264.60000002384,,491274.398,4,500,,
sequence,flow.Sequence,10_16,2023-11-17T19:29:31.914Z,,,,,,,,,,,4990.361000011908,completion,,,,,,,low,low,,,,,,false,,,,,false,491265.39999997616,491264.8000000119,486257.698,486265.89999997616,486274.439,491274.398,4,500,,
trial,html.Screen,10_17_0,2023-11-17T19:29:35.417Z,,,,1,-0.0118382036798625,-0.0300588245877227,,0.04,true,lh,3492.9020000119344,response,-0.9136649719060708,1.0177120947428535,-1.1499999999999997,0.6197574551927956,0.8431645752888552,-1.0872294880526372,low,high,,ISIC_4748605.JPG,10,ISIC_6297317.JPG,26,false,0.2600000000000001,lh,keypress(e),0,false,494767.60000002384,494767.3000000119,491257.88,491265.5,491274.398,494774.419,4,500,18,
break,html.Screen,10_17_1,2023-11-17T19:29:35.417Z,,,,,,,,,,,NaN,,,,,,,,low,high,,,,,,false,,,,,false,494768.5,494768.3000000119,,494767.89999997616,,494774.419,4,500,,
break_continue,html.Screen,10_17_2,2023-11-17T19:29:35.418Z,,,,,,,,,,,NaN,,,,,,,,low,high,,,,,,false,,,,,false,494769.3000000119,494769,,494768.6999999881,,494774.419,4,500,,
sequence,flow.Sequence,10_17,2023-11-17T19:29:35.418Z,,,,,,,,,,,3494.6020000000135,completion,,,,,,,low,high,,,,,,false,,,,,false,494769.5,494769,491257.88,491265.39999997616,491274.398,494774.419,4,500,,
trial,html.Screen,10_18_0,2023-11-17T19:29:37.849Z,,,,1,0.0065172941585523,-0.0118857043117315,,0.04,false,ll,2425.4809999761637,response,-1.1290536173202614,1.0177120947428535,-1.1499999999999997,-0.9768663240505168,0.8431645752888552,-1.0872294880526372,low,low,,ISIC_6119202.JPG,8,ISIC_2196127.JPG,28,false,0.13,hh,keypress(i),0,false,497200.3000000119,497199.89999997616,494757.919,494769.60000002384,494774.419,497207.743,4,500,19,
break,html.Screen,10_18_1,2023-11-17T19:29:37.850Z,,,,,,,,,,,NaN,,,,,,,,low,low,,,,,,false,,,,,false,497201.1999999881,497201,,497200.5,,497207.743,4,500,,
break_continue,html.Screen,10_18_2,2023-11-17T19:29:37.851Z,,,,,,,,,,,NaN,,,,,,,,low,low,,,,,,false,,,,,false,497202,497201.6999999881,,497201.39999997616,,497207.743,4,500,,
sequence,flow.Sequence,10_18,2023-11-17T19:29:37.851Z,,,,,,,,,,,2427.2809999880847,completion,,,,,,,low,low,,,,,,false,,,,,false,497202.1999999881,497201.6999999881,494757.919,494769.60000002384,494774.419,497207.743,4,500,,
trial,html.Screen,10_19_0,2023-11-17T19:29:42.073Z,,,,1,0.0388334549081915,-0.0303399972963369,,0.04,false,ll,4216.557000011904,response,-1.252716660627398,1.0177120947428535,-1.1499999999999997,-1.183977080937476,0.8431645752888552,-1.0872294880526372,low,low,,ISIC_4961708.JPG,9,ISIC_0034194.JPG,28,false,0.13,hh,keypress(i),0,false,501424.5,501424.3000000119,497191.079,497202.39999997616,497207.743,501441.119,4,500,20,
break,html.Screen,10_19_1,2023-11-17T19:29:42.074Z,,,,,,,,,,,NaN,,,,,,,,low,low,,,,,,false,,,,,false,501425.5,501425.1999999881,,501424.8000000119,,501441.119,4,500,,
break_continue,html.Screen,10_19_2,2023-11-17T19:29:42.075Z,,,,,,,,,,,NaN,,,,,,,,low,low,,,,,,false,,,,,false,501426.1999999881,501425.89999997616,,501425.60000002384,,501441.119,4,500,,
sequence,flow.Sequence,10_19,2023-11-17T19:29:42.075Z,,,,,,,,,,,4218.156999976141,completion,,,,,,,low,low,,,,,,false,,,,,false,501426.39999997616,501425.89999997616,497191.079,497202.3000000119,497207.743,501441.119,4,500,,
trial,html.Screen,10_20_0,2023-11-17T19:29:44.855Z,,,,1,0.0065172941585523,-0.0118857043117315,,0.04,true,lh,2765.280999976152,response,-0.937244118871122,1.0177120947428535,-1.1499999999999997,0.6016155161011499,0.8431645752888552,-1.0872294880526372,low,high,,ISIC_6119202.JPG,8,ISIC_0031611.JPG,26,false,0.2600000000000001,lh,keypress(e),0,false,504206.5,504206.39999997616,501424.657,501426.5,501441.119,504225.75,4,500,21,
break,html.Screen,10_20_1,2023-11-17T19:29:44.856Z,,,,,,,,,,,NaN,,,,,,,,low,high,,,,,,false,,,,,false,504206.8000000119,504206.6999999881,,504206.60000002384,,504225.75,4,500,,
break_continue,html.Screen,10_20_2,2023-11-17T19:29:44.856Z,,,,,,,,,,,NaN,,,,,,,,low,high,,,,,,false,,,,,false,504206.89999997616,504206.89999997616,,504206.8000000119,,504225.75,4,500,,
sequence,flow.Sequence,10_20,2023-11-17T19:29:44.856Z,,,,,,,,,,,2765.780999976152,completion,,,,,,,low,high,,,,,,false,,,,,false,504207,504206.89999997616,501424.657,501426.5,501441.119,504225.75,4,500,,
trial,html.Screen,10_21_0,2023-11-17T19:29:48.241Z,,,,1,0.0374659946425444,0.0086043094957617,,0.04,false,hh,3365.850000023842,response,0.9740596249572724,1.0177120947428535,-1.1499999999999997,0.915332132320829,0.8431645752888552,-1.0872294880526372,high,high,,ISIC_0033051.JPG,9,ISIC_9053910.JPG,37,false,0.1,lh,keypress(e),0,false,507591.8000000119,507591.60000002384,504190.984,504207.10000002384,504225.75,507607.761,4,500,22,
break,html.Screen,10_21_1,2023-11-17T19:29:48.242Z,,,,,,,,,,,NaN,,,,,,,,high,high,,,,,,false,,,,,false,507592.6999999881,507592.5,,507592.10000002384,,507607.761,4,500,,
break_continue,html.Screen,10_21_2,2023-11-17T19:29:48.242Z,,,,,,,,,,,NaN,,,,,,,,high,high,,,,,,false,,,,,false,507593.39999997616,507593.10000002384,,507592.89999997616,,507607.761,4,500,,
sequence,flow.Sequence,10_21,2023-11-17T19:29:48.243Z,,,,,,,,,,,3367.350000023842,completion,,,,,,,high,high,,,,,,false,,,,,false,507593.60000002384,507593.10000002384,504190.984,504207.10000002384,504225.75,507607.761,4,500,,
trial,html.Screen,10_22_0,2023-11-17T19:29:52.673Z,,,,1,-0.0367744112927588,-0.0324865661712824,,0.04,true,ll,4415.6389999761595,response,-1.0777929856705222,1.0177120947428535,-1.1499999999999997,-1.0139833925057518,0.8431645752888552,-1.0872294880526372,low,low,,ISIC_4523565.JPG,9,ISIC_6171084.JPG,28,false,0.13,ll,keypress(f),0,false,512023.6999999881,512023.39999997616,507591.15,507593.8000000119,507607.761,512041.09,4,500,23,
break,html.Screen,10_22_1,2023-11-17T19:29:52.674Z,,,,,,,,,,,NaN,,,,,,,,low,low,,,,,,false,,,,,false,512024.6999999881,512024.39999997616,,512024,,512041.09,4,500,,
break_continue,html.Screen,10_22_2,2023-11-17T19:29:52.674Z,,,,,,,,,,,NaN,,,,,,,,low,low,,,,,,false,,,,,false,512025.3000000119,512024.89999997616,,512024.8000000119,,512041.09,4,500,,
sequence,flow.Sequence,10_22,2023-11-17T19:29:52.675Z,,,,,,,,,,,4417.1389999761595,completion,,,,,,,low,low,,,,,,false,,,,,false,512025.60000002384,512024.89999997616,507591.15,507593.8000000119,507607.761,512041.09,4,500,,
trial,html.Screen,10_23_0,2023-11-17T19:29:54.895Z,,,,1,-0.0257631352671967,-0.0202837002774028,,0.04,false,lh,2204.5100000238162,response,-1.075512775389519,1.0177120947428535,-1.1499999999999997,1.0454702683049502,0.8431645752888552,-1.0872294880526372,low,high,,ISIC_0032797.JPG,8,ISIC_0033603.JPG,26,false,0.2600000000000001,hh,keypress(i),0,false,514245.60000002384,514245.60000002384,512024.475,512025.6999999881,512041.09,514274.621,4,500,24,
break,html.Screen,10_23_1,2023-11-17T19:29:54.895Z,,,,,,,,,,,NaN,,,,,,,,low,high,,,,,,false,,,,,false,514245.89999997616,514245.89999997616,,514245.8000000119,,514274.621,4,500,,
break_continue,html.Screen,10_23_2,2023-11-17T19:29:54.895Z,,,,,,,,,,,NaN,,,,,,,,low,high,,,,,,false,,,,,false,514246.10000002384,514246,,514246,,514274.621,4,500,,
sequence,flow.Sequence,10_23,2023-11-17T19:29:54.895Z,,,,,,,,,,,2204.9099999999744,completion,,,,,,,low,high,,,,,,false,,,,,false,514246.10000002384,514246,512024.475,512025.6999999881,512041.09,514274.621,4,500,,
trial,html.Screen,10_24_0,2023-11-17T19:29:57.809Z,,,,1,0.0088741920055285,0.0058246074740588,,0.04,false,hh,2885.479000023857,response,1.0028306951898116,1.0177120947428535,-1.1499999999999997,0.8421248340065566,0.8431645752888552,-1.0872294880526372,high,high,,ISIC_4136663.JPG,8,ISIC_0026531.JPG,37,false,0.1,lh,keypress(e),0,false,517160.39999997616,517160.10000002384,514257.825,514246.1999999881,514274.621,517174.362,4,500,25,
break,html.Screen,10_24_1,2023-11-17T19:29:57.810Z,,,,,,,,,,,NaN,,,,,,,,high,high,,,,,,false,,,,,false,517161.3000000119,517161.10000002384,,517160.6999999881,,517174.362,4,500,,
break_continue,html.Screen,10_24_2,2023-11-17T19:29:57.811Z,,,,,,,,,,,NaN,,,,,,,,high,high,,,,,,false,,,,,false,517161.89999997616,517161.60000002384,,517161.39999997616,,517174.362,4,500,,
sequence,flow.Sequence,10_24,2023-11-17T19:29:57.811Z,,,,,,,,,,,2886.979000023857,completion,,,,,,,high,high,,,,,,false,,,,,false,517162.10000002384,517161.60000002384,514257.825,514246.1999999881,514274.621,517174.362,4,500,,
trial,html.Screen,10_25_0,2023-11-17T19:30:01.975Z,,,,1,-0.0118382036798625,-0.0300588245877227,,0.04,false,hl,4151.938000011898,response,0.8867328775712738,1.0177120947428535,-1.1499999999999997,-1.0063426986460375,0.8431645752888552,-1.0872294880526372,high,low,,ISIC_4748605.JPG,9,ISIC_0055759.JPG,25,false,0.2500000000000001,ll,keypress(f),0,false,521326.3000000119,521326.3000000119,517157.616,517162.1999999881,517174.362,521341.175,4,500,26,
break,html.Screen,10_25_1,2023-11-17T19:30:01.976Z,,,,,,,,,,,NaN,,,,,,,,high,low,,,,,,false,,,,,false,521326.60000002384,521326.5,,521326.39999997616,,521341.175,4,500,,
break_continue,html.Screen,10_25_2,2023-11-17T19:30:01.976Z,,,,,,,,,,,NaN,,,,,,,,high,low,,,,,,false,,,,,false,521326.8000000119,521326.6999999881,,521326.6999999881,,521341.175,4,500,,
sequence,flow.Sequence,10_25,2023-11-17T19:30:01.976Z,,,,,,,,,,,4152.337999988056,completion,,,,,,,high,low,,,,,,false,,,,,false,521326.89999997616,521326.6999999881,517157.616,517162.1999999881,517174.362,521341.175,4,500,,
trial,html.Screen,10_26_0,2023-11-17T19:30:05.088Z,,,,1,-0.0257631352671967,-0.0202837002774028,,0.04,false,ll,3097.5249999880907,response,-1.274417010249866,1.0177120947428535,-1.1499999999999997,-1.0725495669014795,0.8431645752888552,-1.0872294880526372,low,low,,ISIC_0032797.JPG,9,ISIC_8849004.JPG,28,false,0.13,hh,keypress(i),0,false,524438.8999999762,524438.6999999881,521324.364,521326.89999997616,521341.175,524440.971,4,500,27,
break,html.Screen,10_26_1,2023-11-17T19:30:05.088Z,,,,,,,,,,,NaN,,,,,,,,low,low,,,,,,false,,,,,false,524439.1999999881,524439.1000000238,,524439,,524440.971,4,500,,
break_continue,html.Screen,10_26_2,2023-11-17T19:30:05.088Z,,,,,,,,,,,NaN,,,,,,,,low,low,,,,,,false,,,,,false,524439.3999999762,524439.3000000119,,524439.1999999881,,524440.971,4,500,,
sequence,flow.Sequence,10_26,2023-11-17T19:30:05.088Z,,,,,,,,,,,3098.1250000119326,completion,,,,,,,low,low,,,,,,false,,,,,false,524439.3999999762,524439.3000000119,521324.364,521326.89999997616,521341.175,524440.971,4,500,,
trial,html.Screen,10_27_0,2023-11-17T19:30:08.160Z,,,,1,-0.0200295718112167,-0.0155559071275806,,0.04,false,ll,3069.4289999761386,response,-1.2541318165695772,1.0177120947428535,-1.1499999999999997,-1.085289936617366,0.8431645752888552,-1.0872294880526372,low,low,,ISIC_0061343.JPG,9,ISIC_4277207.JPG,28,false,0.13,hh,keypress(i),0,false,527510.6000000238,527510.3999999762,524424.385,524439.5,524440.971,527524.34,4,500,28,
break,html.Screen,10_27_1,2023-11-17T19:30:08.160Z,,,,,,,,,,,NaN,,,,,,,,low,low,,,,,,false,,,,,false,527511,527510.8999999762,,527510.6999999881,,527524.34,4,500,,
break_continue,html.Screen,10_27_2,2023-11-17T19:30:08.160Z,,,,,,,,,,,NaN,,,,,,,,low,low,,,,,,false,,,,,false,527511.3000000119,527511.1000000238,,527511.1000000238,,527524.34,4,500,,
sequence,flow.Sequence,10_27,2023-11-17T19:30:08.160Z,,,,,,,,,,,3070.1290000238223,completion,,,,,,,low,low,,,,,,false,,,,,false,527511.3999999762,527511.1000000238,524424.385,524439.5,524440.971,527524.34,4,500,,
trial,html.Screen,10_28_0,2023-11-17T19:30:10.391Z,,,,1,0.0388334549081915,-0.0303399972963369,,0.04,false,hh,2217.8599999881117,response,0.9500911450995304,1.0177120947428535,-1.1499999999999997,0.8685004638027202,0.8431645752888552,-1.0872294880526372,high,high,,ISIC_4961708.JPG,9,ISIC_0011094.JPG,37,false,0.1,lh,keypress(e),0,false,529742.3999999762,529742.1999999881,527507.862,527511.5,527524.34,529757.808,4,500,29,
break,html.Screen,10_28_1,2023-11-17T19:30:10.392Z,,,,,,,,,,,NaN,,,,,,,,high,high,,,,,,false,,,,,false,529742.6999999881,529742.6000000238,,529742.3999999762,,529757.808,4,500,,
break_continue,html.Screen,10_28_2,2023-11-17T19:30:10.392Z,,,,,,,,,,,NaN,,,,,,,,high,high,,,,,,false,,,,,false,529742.8000000119,529742.8000000119,,529742.6999999881,,529757.808,4,500,,
sequence,flow.Sequence,10_28,2023-11-17T19:30:10.392Z,,,,,,,,,,,2218.4600000119535,completion,,,,,,,high,high,,,,,,false,,,,,false,529742.8999999762,529742.8000000119,527507.862,527511.5,527524.34,529757.808,4,500,,
trial,html.Screen,10_29_0,2023-11-17T19:30:12.681Z,,,,1,0.0065172941585523,-0.0118857043117315,,0.04,false,hl,2273.792000023881,response,0.9633172970727744,1.0177120947428535,-1.1499999999999997,-0.8472659344792351,0.8431645752888552,-1.0872294880526372,high,low,,ISIC_6119202.JPG,9,ISIC_0067172.JPG,25,false,0.2500000000000001,hh,keypress(i),0,false,532031.8999999762,532031.6000000238,529741.128,529743,529757.808,532041.041,4,500,30,
break,html.Screen,10_29_1,2023-11-17T19:30:12.682Z,,,,,,,,,,,NaN,,,,,,,,high,low,,,,,,false,,,,,false,532032.8000000119,532032.6000000238,,532032.1999999881,,532041.041,4,500,,
break_continue,html.Screen,10_29_2,2023-11-17T19:30:12.682Z,,,,,,,,,,,NaN,,,,,,,,high,low,,,,,,false,,,,,false,532033.5,532033.1999999881,,532032.8999999762,,532041.041,4,500,,
sequence,flow.Sequence,10_29,2023-11-17T19:30:12.683Z,,,,,,,,,,,2275.391999988118,completion,,,,,,,high,low,,,,,,false,,,,,false,532033.6999999881,532033.1999999881,529741.128,529743,529757.808,532041.041,4,500,,
trial,html.Screen,10_30_0,2023-11-17T19:30:16.314Z,,,,1,-0.0119001144851157,0.0063430114540141,,0.04,true,hh,3622.4590000000317,response,0.94165594025755,1.0177120947428535,-1.1499999999999997,0.8169638598102704,0.8431645752888552,-1.0872294880526372,high,high,,ISIC_0003822.JPG,9,ISIC_0072429.JPG,37,false,0.1,hh,keypress(i),0,false,535663.8000000119,535663.5,532024.439,532033.8999999762,532041.041,535690.982,4,500,31,
break,html.Screen,10_30_1,2023-11-17T19:30:16.314Z,,,,,,,,,,,NaN,,,,,,,,high,high,,,,,,false,,,,,false,535664.6000000238,535664.5,,535664.1000000238,,535690.982,4,500,,
break_continue,html.Screen,10_30_2,2023-11-17T19:30:16.315Z,,,,,,,,,,,NaN,,,,,,,,high,high,,,,,,false,,,,,false,535665.3000000119,535665,,535664.8000000119,,535690.982,4,500,,
sequence,flow.Sequence,10_30,2023-11-17T19:30:16.315Z,,,,,,,,,,,3623.9590000000317,completion,,,,,,,high,high,,,,,,false,,,,,false,535665.5,535665,532024.439,532033.8999999762,532041.041,535690.982,4,500,,
trial,html.Screen,10_31_0,2023-11-17T19:30:19.472Z,,,,1,-0.0009714874637896,0.0174815595031679,,0.04,false,lh,3131.51800000004,response,-1.199471562817528,1.0177120947428535,-1.1499999999999997,0.8631260534979347,0.8431645752888552,-1.0872294880526372,low,high,,ISIC_9848743.JPG,10,ISIC_0030754.JPG,26,false,0.2600000000000001,hh,keypress(i),0,false,538822.6000000238,538822.5,535657.649,535665.6999999881,535690.982,538824.277,4,500,32,
break,html.Screen,10_31_1,2023-11-17T19:30:19.473Z,,,,,,,,,,,NaN,,,,,,,,low,high,,,,,,false,,,,,false,538822.8999999762,538822.8000000119,,538822.6999999881,,538824.277,4,500,,
break_continue,html.Screen,10_31_2,2023-11-17T19:30:19.473Z,,,,,,,,,,,NaN,,,,,,,,low,high,,,,,,false,,,,,false,538823,538823,,538823,,538824.277,4,500,,
sequence,flow.Sequence,10_31,2023-11-17T19:30:19.473Z,,,,,,,,,,,3132.01800000004,completion,,,,,,,low,high,,,,,,false,,,,,false,538823.1999999881,538823,535657.649,535665.6000000238,535690.982,538824.277,4,500,,
trial,html.Screen,10_32_0,2023-11-17T19:30:23.962Z,,,,1,-0.0308384937406319,0.0038396364323947,,0.04,false,ll,4487.622999976156,response,-1.2253309214495711,1.0177120947428535,-1.1499999999999997,-1.00408952972084,0.8431645752888552,-1.0872294880526372,low,low,,ISIC_0029825.JPG,10,ISIC_5850699.JPG,28,false,0.13,hl,keypress(j),0,false,543312.1999999881,543311.8999999762,538807.601,538823.1999999881,538824.277,543324.26,4,500,33,
break,html.Screen,10_32_1,2023-11-17T19:30:23.963Z,,,,,,,,,,,NaN,,,,,,,,low,low,,,,,,false,,,,,false,543312.8999999762,543312.8000000119,,543312.5,,543324.26,4,500,,
break_continue,html.Screen,10_32_2,2023-11-17T19:30:23.963Z,,,,,,,,,,,NaN,,,,,,,,low,low,,,,,,false,,,,,false,543313.6000000238,543313.3000000119,,543313.1999999881,,543324.26,4,500,,
sequence,flow.Sequence,10_32,2023-11-17T19:30:23.964Z,,,,,,,,,,,4489.023000011919,completion,,,,,,,low,low,,,,,,false,,,,,false,543313.8000000119,543313.3000000119,538807.601,538823.1999999881,538824.277,543324.26,4,500,,
trial,html.Screen,10_33_0,2023-11-17T19:30:27.096Z,,,,1,0.0074667911845194,-0.018500200317654,,0.04,true,lh,3122.3400000238325,response,-1.058275612142778,1.0177120947428535,-1.1499999999999997,0.7824898568540655,0.8431645752888552,-1.0872294880526372,low,high,,ISIC_0058723.JPG,9,ISIC_4906385.JPG,26,false,0.2600000000000001,lh,keypress(e),0,false,546446.8000000119,546446.6000000238,543307.662,543314,543324.26,546457.638,4,500,34,
break,html.Screen,10_33_1,2023-11-17T19:30:27.097Z,,,,,,,,,,,NaN,,,,,,,,low,high,,,,,,false,,,,,false,546447,546447,,546446.8000000119,,546457.638,4,500,,
break_continue,html.Screen,10_33_2,2023-11-17T19:30:27.097Z,,,,,,,,,,,NaN,,,,,,,,low,high,,,,,,false,,,,,false,546447.1999999881,546447.1000000238,,546447.1000000238,,546457.638,4,500,,
sequence,flow.Sequence,10_33,2023-11-17T19:30:27.097Z,,,,,,,,,,,3122.8400000238325,completion,,,,,,,low,high,,,,,,false,,,,,false,546447.1999999881,546447.1000000238,543307.662,543313.8999999762,543324.26,546457.638,4,500,,
trial,html.Screen,10_34_0,2023-11-17T19:30:30.946Z,,,,1,0.039520186367207,0.0377961575607372,,0.04,false,lh,3838.4620000238065,response,-0.8926515927689261,1.0177120947428535,-1.1499999999999997,0.7935960767768927,0.8431645752888552,-1.0872294880526372,low,high,,ISIC_6356149.JPG,9,ISIC_8901371.JPG,26,false,0.2600000000000001,hh,keypress(i),0,false,550296.3999999762,550296.1000000238,546441.044,546447.3000000119,546457.638,550307.671,4,500,35,
break,html.Screen,10_34_1,2023-11-17T19:30:30.947Z,,,,,,,,,,,NaN,,,,,,,,low,high,,,,,,false,,,,,false,550297.3000000119,550297,,550296.6999999881,,550307.671,4,500,,
break_continue,html.Screen,10_34_2,2023-11-17T19:30:30.948Z,,,,,,,,,,,NaN,,,,,,,,low,high,,,,,,false,,,,,false,550297.8999999762,550297.6000000238,,550297.3999999762,,550307.671,4,500,,
sequence,flow.Sequence,10_34,2023-11-17T19:30:30.948Z,,,,,,,,,,,3839.9620000238065,completion,,,,,,,low,high,,,,,,false,,,,,false,550298.1000000238,550297.6000000238,546441.044,546447.3000000119,546457.638,550307.671,4,500,,
trial,html.Screen,10_35_0,2023-11-17T19:30:33.818Z,,,,1,-0.0258224118104549,0.0029364553353019,,0.04,false,hh,2859.829000000027,response,0.9373876279903552,1.0177120947428535,-1.1499999999999997,0.8494489003914609,0.8431645752888552,-1.0872294880526372,high,high,,ISIC_8325226.JPG,9,ISIC_2554114.JPG,37,false,0.1,ll,keypress(f),0,false,553167.8000000119,553167.5,550290.928,550298.3000000119,550307.671,553174.231,4,500,36,
break,html.Screen,10_35_1,2023-11-17T19:30:33.818Z,,,,,,,,,,,NaN,,,,,,,,high,high,,,,,,false,,,,,false,553168.6000000238,553168.3999999762,,553168.1000000238,,553174.231,4,500,,
break_continue,html.Screen,10_35_2,2023-11-17T19:30:33.819Z,,,,,,,,,,,NaN,,,,,,,,high,high,,,,,,false,,,,,false,553169.3000000119,553169,,553168.8000000119,,553174.231,4,500,,
sequence,flow.Sequence,10_35,2023-11-17T19:30:33.819Z,,,,,,,,,,,2861.329000000027,completion,,,,,,,high,high,,,,,,false,,,,,false,553169.5,553169,550290.928,550298.3000000119,550307.671,553174.231,4,500,,
trial,html.Screen,10_36_0,2023-11-17T19:30:35.968Z,,,,1,-0.0044063257337227,-0.0172548282859886,,0.04,true,ll,2144.069000011892,response,-1.033832433609739,1.0177120947428535,-1.1499999999999997,-1.139863018685685,0.8431645752888552,-1.0872294880526372,low,low,,ISIC_7413786.JPG,9,ISIC_0008510.JPG,28,false,0.13,ll,keypress(f),0,false,555318.3999999762,555318.3000000119,553157.715,553169.6000000238,553174.231,555324.256,4,500,37,
break,html.Screen,10_36_1,2023-11-17T19:30:35.968Z,,,,,,,,,,,NaN,,,,,,,,low,low,,,,,,false,,,,,false,555318.6999999881,555318.6999999881,,555318.5,,555324.256,4,500,,
break_continue,html.Screen,10_36_2,2023-11-17T19:30:35.969Z,,,,,,,,,,,NaN,,,,,,,,low,low,,,,,,false,,,,,false,555318.8999999762,555318.8000000119,,555318.6999999881,,555324.256,4,500,,
sequence,flow.Sequence,10_36,2023-11-17T19:30:35.969Z,,,,,,,,,,,2144.569000011892,completion,,,,,,,low,low,,,,,,false,,,,,false,555318.8999999762,555318.8000000119,553157.715,553169.6000000238,553174.231,555324.256,4,500,,
trial,html.Screen,10_37_0,2023-11-17T19:30:38.034Z,,,,1,0.0388181790775959,-0.0049623405709465,,0.04,false,hh,2060.044000011869,response,1.1078259498922374,1.0177120947428535,-1.1499999999999997,0.9020376444393038,0.8431645752888552,-1.0872294880526372,high,high,,ISIC_0061880.JPG,9,ISIC_0071069.JPG,37,false,0.1,ll,keypress(f),0,false,557384.6000000238,557384.3000000119,555307.646,555319,555324.256,557390.907,4,500,38,
break,html.Screen,10_37_1,2023-11-17T19:30:38.035Z,,,,,,,,,,,NaN,,,,,,,,high,high,,,,,,false,,,,,false,557385.5,557385.3000000119,,557384.8000000119,,557390.907,4,500,,
break_continue,html.Screen,10_37_2,2023-11-17T19:30:38.036Z,,,,,,,,,,,NaN,,,,,,,,high,high,,,,,,false,,,,,false,557386.3000000119,557386,,557385.6999999881,,557390.907,4,500,,
sequence,flow.Sequence,10_37,2023-11-17T19:30:38.036Z,,,,,,,,,,,2061.743999999948,completion,,,,,,,high,high,,,,,,false,,,,,false,557386.5,557386,555307.646,555319,555324.256,557390.907,4,500,,
trial,html.Screen,10_38_0,2023-11-17T19:30:40.576Z,,,,1,0.0074667911845194,-0.018500200317654,,0.04,false,lh,2534.9929999761516,response,-1.0794043929240107,1.0177120947428535,-1.1499999999999997,0.6422352972056817,0.8431645752888552,-1.0872294880526372,low,high,,ISIC_0058723.JPG,8,ISIC_2106823.JPG,26,false,0.2600000000000001,ll,keypress(f),0,false,559926,559925.8999999762,557374.303,557386.6000000238,557390.907,559940.911,4,500,39,
break,html.Screen,10_38_1,2023-11-17T19:30:40.576Z,,,,,,,,,,,NaN,,,,,,,,low,high,,,,,,false,,,,,false,559926.1999999881,559926.1999999881,,559926.1000000238,,559940.911,4,500,,
