sender,sender_type,sender_id,timestamp,meta,,age,blockNo,c1,c2,condition,control_tolerance,correct,correctResponse,duration,ended_on,f1,f1_high,f1_low,f2,f2_high,f2_low,feature_level1,feature_level2,gender,img_left,img_reveal,img_right,n_target_images,practice,range_tolerance,response,response_action,selection_duration,staircase,time_commit,time_end,time_render,time_run,time_show,time_switch,total_blocks,total_trials,trialNo,url
informed_consent,html.Screen,0,2023-11-17T15:38:59.214Z,"{""labjs_version"":""20.2.4"",""labjs_build"":{""flavor"":""development"",""commit"":""f5b4a49f956347addd546a832a3327688c2c0fef""},""location"":""https://labjs.felixhenninger.com/api/labjs_preview/index.html"",""userAgent"":""Mozilla/5.0 (Windows NT 10.0; Win64; x64) AppleWebKit/537.36 (KHTML, like Gecko) Chrome/119.0.0.0 Safari/537.36"",""platform"":""Win32"",""language"":""en-US"",""locale"":""en-US"",""timeZone"":""America/Chicago"",""timezoneOffset"":360,""screen_width"":1920,""screen_height"":1080,""scroll_width"":945,""scroll_height"":918,""window_innerWidth"":945,""window_innerHeight"":966,""devicePixelRatio"":1}",,,,,,,,,,15747.123999976158,response,,,,,,,,,,,,,,,,consent,click button,,,16611.600000023842,16604.899999976158,841.088,1012.6000000238419,857.776,16441.102,,,,{}
Demography form,html.Form,1,2023-11-17T15:39:06.925Z,,,18,,,,,,,,7881.697999952317,form submission,,,,,,,,,female,,,,,,,,,,,24322.899999976158,24322.799999952316,16424.483,16611.799999952316,16441.102,24157.865,,,,
Welcome,html.Screen,2,2023-11-17T15:39:20.616Z,,,,,,,"[""asym"",""bor""]",,,,13854.934999952315,response,,,,,,,,,,,,,,,,continue,click button,,,38013.60000002384,38012.799999952316,24141.108,24322.899999976158,24157.865,37841.09,,,,
demo_instructions,html.Screen,3,2023-11-17T15:40:03.249Z,,,,,,,,,,,42804.70999995232,response,,,,,,,,,,,,,,,,continue,click button,,,80646.60000002384,80645.79999995232,37824.845,38013.799999952316,37841.09,80491.045,,,,
trial,html.Screen,4_0_0,2023-11-17T15:40:12.035Z,,,,0,0.8200962008791046,-0.7936051642828523,,,true,lh,8941.155000047685,response,-1.0865333402803938,1.2,-1.2,1.0542635307358266,1.2,-1.2,low,high,,ISIC_0027031.JPG,,ISIC_0034006.JPG,26,true,0.3600000000000002,lh,keypress(e),100,false,89432.29999995232,89432.20000004768,80474.413,80646.70000004768,80491.045,89274.552,1,16,1,
sequence,flow.Sequence,4_0,2023-11-17T15:40:12.035Z,,,,,,,,,,,8941.155000047685,completion,,,,,,,low,high,,,,,,true,,,,,false,89432.5,89432.20000004768,80474.413,80646.70000004768,80491.045,89274.552,1,16,,
trial,html.Screen,4_1_0,2023-11-17T15:40:19.288Z,,,,0,0.7809949855371787,-0.8493861117004308,,,true,lh,7410.048000023846,response,-0.8179805381029407,1.2,-1.2,0.8578467162767749,1.2,-1.2,low,high,,ISIC_7450481.JPG,,ISIC_0067253.JPG,33,true,0.42000000000000026,lh,keypress(e),100,false,96684.89999997616,96684.60000002384,89257.706,89432.60000002384,89274.552,96524.621,1,16,2,
sequence,flow.Sequence,4_1,2023-11-17T15:40:19.288Z,,,,,,,,,,,7410.048000023846,completion,,,,,,,low,high,,,,,,true,,,,,false,96685.20000004768,96684.60000002384,89257.706,89432.60000002384,89274.552,96524.621,1,16,,
trial,html.Screen,4_2_0,2023-11-17T15:40:25.113Z,,,,0,1.0115965332688306,-0.8282633603842442,,,true,lh,5985.379000000001,response,-0.7951166058716005,1.2,-1.2,1.477327500998078,1.2,-1.2,low,high,,ISIC_1069587.JPG,,ISIC_0033925.JPG,33,true,0.42000000000000026,lh,keypress(e),100,false,102510.20000004768,102510,96507.715,96685.20000004768,96524.621,102357.711,1,16,3,
sequence,flow.Sequence,4_2,2023-11-17T15:40:25.113Z,,,,,,,,,,,5985.379000000001,completion,,,,,,,low,high,,,,,,true,,,,,false,102510.39999997616,102510,96507.715,96685.20000004768,96524.621,102357.711,1,16,,
trial,html.Screen,4_3_0,2023-11-17T15:40:28.424Z,,,,0,1.0022829373011404,-0.8311726972863814,,,true,lh,3462.7890000000043,response,-1.011737552725394,1.2,-1.2,0.8500530224490773,1.2,-1.2,low,high,,ISIC_0033287.JPG,,ISIC_2998367.JPG,33,true,0.42000000000000026,lh,keypress(e),100,false,105820.70000004768,105820.5,102341.16,102510.5,102357.711,105657.727,1,16,4,
sequence,flow.Sequence,4_3,2023-11-17T15:40:28.424Z,,,,,,,,,,,3462.7890000000043,completion,,,,,,,low,high,,,,,,true,,,,,false,105820.89999997616,105820.5,102341.16,102510.5,102357.711,105657.727,1,16,,
trial,html.Screen,4_4_0,2023-11-17T15:40:38.299Z,,,,0,1.1383813631375823,1.1319312220332556,,,true,ll,10037.773000000001,response,-0.8513702094329779,1.2,-1.2,-0.8646686295881743,1.2,-1.2,low,low,,ISIC_6227397.JPG,,ISIC_1881133.JPG,253,true,0.42000000000000026,ll,keypress(f),100,false,115695.79999995232,115695.5,105640.976,105820.89999997616,105657.727,115541.099,1,16,5,
sequence,flow.Sequence,4_4,2023-11-17T15:40:38.299Z,,,,,,,,,,,10037.773000000001,completion,,,,,,,low,low,,,,,,true,,,,,false,115695.89999997616,115695.5,105640.976,105820.89999997616,105657.727,115541.099,1,16,,
trial,html.Screen,4_5_0,2023-11-17T15:40:43.537Z,,,,0,1.2249552940807693,1.1723015116910682,,,true,ll,5393.101000047682,response,-1.086647361897092,1.2,-1.2,-1.1528935990320313,1.2,-1.2,low,low,,ISIC_0055251.JPG,,ISIC_3505339.JPG,26,true,0.15000000000000002,ll,keypress(f),100,false,120934.5,120934.20000004768,115524.591,115696,115541.099,120774.325,1,16,6,
sequence,flow.Sequence,4_5,2023-11-17T15:40:43.537Z,,,,,,,,,,,5393.101000047682,completion,,,,,,,low,low,,,,,,true,,,,,false,120934.70000004768,120934.20000004768,115524.591,115696,115541.099,120774.325,1,16,,
trial,html.Screen,4_6_0,2023-11-17T15:40:49.384Z,,,,0,1.247270138097585,1.1704704713504994,,,true,ll,6006.474999952319,response,-1.1210325063849345,1.2,-1.2,-1.1498648320956202,1.2,-1.2,low,low,,ISIC_0065774.JPG,,ISIC_0032162.JPG,26,true,0.15000000000000002,ll,keypress(f),100,false,126781,126780.79999995232,120758.094,120934.70000004768,120774.325,126624.388,1,16,7,
sequence,flow.Sequence,4_6,2023-11-17T15:40:49.384Z,,,,,,,,,,,6006.474999952319,completion,,,,,,,low,low,,,,,,true,,,,,false,126781.10000002384,126780.79999995232,120758.094,120934.70000004768,120774.325,126624.388,1,16,,
trial,html.Screen,4_7_0,2023-11-17T15:40:52.462Z,,,,0,1.255256820488545,1.1206426433062562,,,true,ll,3234.6119999999937,response,-1.201100953917304,1.2,-1.2,-1.1751492358160105,1.2,-1.2,low,low,,ISIC_0024652.JPG,,ISIC_0647224.JPG,26,true,0.15000000000000002,ll,keypress(f),100,false,129859.20000004768,129859,126607.869,126781.20000004768,126624.388,129691.016,1,16,8,
sequence,flow.Sequence,4_7,2023-11-17T15:40:52.462Z,,,,,,,,,,,3234.6119999999937,completion,,,,,,,low,low,,,,,,true,,,,,false,129859.39999997616,129859,126607.869,126781.20000004768,126624.388,129691.016,1,16,,
trial,html.Screen,4_8_0,2023-11-17T15:41:04.153Z,,,,0,-0.879102500583965,1.0933081951979773,,,true,hl,11858.383999976155,response,0.809764442462202,1.2,-1.2,-1.005337148078696,1.2,-1.2,high,low,,ISIC_0046223.JPG,,ISIC_2379379.JPG,27,true,0.42000000000000026,hl,keypress(j),100,false,141549.60000002384,141549.39999997616,129674.31,129859.39999997616,129691.016,141390.974,1,16,9,
sequence,flow.Sequence,4_8,2023-11-17T15:41:04.153Z,,,,,,,,,,,11858.383999976155,completion,,,,,,,high,low,,,,,,true,,,,,false,141549.79999995232,141549.39999997616,129674.31,129859.39999997616,129691.016,141390.974,1,16,,
trial,html.Screen,4_9_0,2023-11-17T15:41:16.809Z,,,,0,-0.8809306963311293,0.8614910030038974,,,true,hl,12814.226000047696,response,0.9235571765207048,1.2,-1.2,-1.0008081653938232,1.2,-1.2,high,low,,ISIC_0013731.JPG,,ISIC_8796632.JPG,27,true,0.42000000000000026,hl,keypress(j),100,false,154205.39999997616,154205.20000004768,141374.304,141549.89999997616,141390.974,154041.186,1,16,10,
sequence,flow.Sequence,4_9,2023-11-17T15:41:16.809Z,,,,,,,,,,,12814.226000047696,completion,,,,,,,high,low,,,,,,true,,,,,false,154205.60000002384,154205.20000004768,141374.304,141549.89999997616,141390.974,154041.186,1,16,,
trial,html.Screen,4_10_0,2023-11-17T15:41:22.650Z,,,,0,-1.4747161152848791,0.847048591307387,,,true,hl,6005.213999976171,response,0.8655167308525522,1.2,-1.2,-0.9298580423306444,1.2,-1.2,high,low,,ISIC_0016092.JPG,,ISIC_4603706.JPG,27,true,0.42000000000000026,hl,keypress(j),100,false,160046.5,160046.39999997616,154024.302,154205.60000002384,154041.186,159890.949,1,16,11,
sequence,flow.Sequence,4_10,2023-11-17T15:41:22.650Z,,,,,,,,,,,6005.213999976171,completion,,,,,,,high,low,,,,,,true,,,,,false,160046.60000002384,160046.39999997616,154024.302,154205.60000002384,154041.186,159890.949,1,16,,
trial,html.Screen,4_11_0,2023-11-17T15:41:28.105Z,,,,0,-1.0865333402803938,1.0542635307358266,,,true,hl,5610.551000000007,response,0.7833710010171356,1.2,-1.2,-0.9315588090336896,1.2,-1.2,high,low,,ISIC_0034006.JPG,,ISIC_3826102.JPG,27,true,0.42000000000000026,hl,keypress(j),100,false,165501.70000004768,165501.5,159874.285,160046.70000004768,159890.949,165340.948,1,16,12,
sequence,flow.Sequence,4_11,2023-11-17T15:41:28.105Z,,,,,,,,,,,5610.551000000007,completion,,,,,,,high,low,,,,,,true,,,,,false,165501.79999995232,165501.5,159874.285,160046.70000004768,159890.949,165340.948,1,16,,
trial,html.Screen,4_12_0,2023-11-17T15:41:33.935Z,,,,0,-1.086647361897092,-1.1528935990320313,,,true,hh,5990.25200004768,response,1.0215600067367807,1.2,-1.2,1.1866489745604327,1.2,-1.2,high,high,,ISIC_3505339.JPG,,ISIC_0000173.JPG,245,true,0.3600000000000002,hh,keypress(i),100,false,171331.39999997616,171331.20000004768,165324.438,165501.89999997616,165340.948,171174.266,1,16,13,
sequence,flow.Sequence,4_12,2023-11-17T15:41:33.935Z,,,,,,,,,,,5990.25200004768,completion,,,,,,,high,high,,,,,,true,,,,,false,171331.60000002384,171331.20000004768,165324.438,165501.79999995232,165340.948,171174.266,1,16,,
trial,html.Screen,4_13_0,2023-11-17T15:41:40.134Z,,,,0,-1.2724584600905462,-1.1411016103695344,,,true,hh,6355.633999976155,response,1.2169050727663315,1.2,-1.2,1.1067845563421794,1.2,-1.2,high,high,,ISIC_0059625.JPG,,ISIC_7016261.JPG,53,true,0.15000000000000002,hh,keypress(i),100,false,177530,177529.89999997616,171158.048,171331.70000004768,171174.266,177374.445,1,16,14,
sequence,flow.Sequence,4_13,2023-11-17T15:41:40.134Z,,,,,,,,,,,6355.633999976155,completion,,,,,,,high,high,,,,,,true,,,,,false,177530.20000004768,177529.89999997616,171158.048,171331.70000004768,171174.266,177374.445,1,16,,
trial,html.Screen,4_14_0,2023-11-17T15:41:43.884Z,,,,0,-1.2706447584800626,-1.0903308007916603,,,true,hh,3905.554999999993,response,1.156827121261563,1.2,-1.2,1.2544342720917778,1.2,-1.2,high,high,,ISIC_9425937.JPG,,ISIC_0060397.JPG,53,true,0.15000000000000002,hh,keypress(i),100,false,181280.10000002384,181280,177358.028,177530.20000004768,177374.445,181124.271,1,16,15,
sequence,flow.Sequence,4_14,2023-11-17T15:41:43.884Z,,,,,,,,,,,3905.554999999993,completion,,,,,,,high,high,,,,,,true,,,,,false,181280.29999995232,181280,177358.028,177530.20000004768,177374.445,181124.271,1,16,,
trial,html.Screen,4_15_0,2023-11-17T15:41:46.978Z,,,,0,-1.2024083555600384,-1.149077673153018,,,true,hh,3249.5289999523084,response,1.242586748440878,1.2,-1.2,1.1207933200172129,1.2,-1.2,high,high,,ISIC_3566243.JPG,,ISIC_0013073.JPG,53,true,0.15000000000000002,hh,keypress(i),100,false,184374,184373.79999995232,181107.848,181280.29999995232,181124.271,184207.671,1,16,16,
sequence,flow.Sequence,4_15,2023-11-17T15:41:46.978Z,,,,,,,,,,,3249.5289999523084,completion,,,,,,,high,high,,,,,,true,,,,,false,184374.20000004768,184373.79999995232,181107.848,181280.29999995232,181124.271,184207.671,1,16,,
demonstration_loop,flow.Loop,4,2023-11-17T15:41:46.978Z,,,,,,,,,,,103882.75499995232,completion,,,,,,,,,,,,,,true,,,,,false,184374.20000004768,184373.79999995232,80474.413,80646.70000004768,80491.045,184207.671,1,16,,
practice_instructions,html.Screen,5,2023-11-17T15:42:43.720Z,,,,,,,,,,,56900.92900002384,response,,,,,,,,,,,,,,,,continue,click button,,,241115,241108.60000002384,184190.918,184374.20000004768,184207.671,240957.503,,,,
trial,html.Screen,6_0_0,2023-11-17T15:42:56.619Z,,,,1,-1.020990671779317,1.0116513850520903,,,false,hl,13051.097000023845,response,1.0115965332688306,1.2,-1.2,-0.8282633603842442,1.2,-1.2,high,low,,ISIC_0011995.JPG,,ISIC_1069587.JPG,27,true,0.42000000000000026,hh,keypress(i),0,false,254014.20000004768,254008.60000002384,240924.135,241115.20000004768,240957.503,253840.809,1,40,1,
sequence,flow.Sequence,6_0,2023-11-17T15:42:56.619Z,,,,,,,,,,,13051.097000023845,completion,,,,,,,high,low,,,,,,true,,,,,false,254014.39999997616,254008.60000002384,240924.135,241115.20000004768,240957.503,253840.809,1,40,,
trial,html.Screen,6_1_0,2023-11-17T15:43:06.323Z,,,,1,1.0115965332688306,-0.8282633603842442,,,true,lh,9877.291000023833,response,-1.2331439637486756,1.2,-1.2,0.9691143900156988,1.2,-1.2,low,high,,ISIC_1069587.JPG,,ISIC_7877488.JPG,26,true,0.3600000000000002,lh,keypress(e),0,false,263718.2999999523,263718.10000002384,253824.154,254014.5,253840.809,263540.757,1,40,2,
sequence,flow.Sequence,6_1,2023-11-17T15:43:06.323Z,,,,,,,,,,,9877.291000023833,completion,,,,,,,low,high,,,,,,true,,,,,false,263718.39999997616,263718.10000002384,253824.154,254014.5,253840.809,263540.757,1,40,,
trial,html.Screen,6_2_0,2023-11-17T15:43:15.572Z,,,,1,-1.4747161152848791,0.847048591307387,,,true,hl,9425.4430000477,response,0.796241477082623,1.2,-1.2,-0.9017449335975743,1.2,-1.2,high,low,,ISIC_0016092.JPG,,ISIC_8588033.JPG,27,true,0.42000000000000026,hl,keypress(j),0,false,272966.2999999523,272966.2000000477,263524.07,263718.39999997616,263540.757,272790.822,1,40,3,
sequence,flow.Sequence,6_2,2023-11-17T15:43:15.572Z,,,,,,,,,,,9425.4430000477,completion,,,,,,,high,low,,,,,,true,,,,,false,272966.39999997616,272966.2000000477,263524.07,263718.39999997616,263540.757,272790.822,1,40,,
trial,html.Screen,6_3_0,2023-11-17T15:43:20.948Z,,,,1,-1.201100953917304,-1.1751492358160105,,,true,hh,5551.477999952331,response,1.2435042401134029,1.2,-1.2,1.0592032583207498,1.2,-1.2,high,high,,ISIC_0647224.JPG,,ISIC_0056119.JPG,245,true,0.3600000000000002,hh,keypress(i),0,false,278342.5,278342.2999999523,272774.091,272966.5,272790.822,278174.12,1,40,4,
sequence,flow.Sequence,6_3,2023-11-17T15:43:20.948Z,,,,,,,,,,,5551.477999952331,completion,,,,,,,high,high,,,,,,true,,,,,false,278342.5,278342.2999999523,272774.091,272966.39999997616,272790.822,278174.12,1,40,,
trial,html.Screen,6_4_0,2023-11-17T15:43:29.284Z,,,,1,-0.9579209317488,1.0147487101263497,,,true,hl,8504.080000047688,response,0.9235571765207048,1.2,-1.2,-1.0008081653938232,1.2,-1.2,high,low,,ISIC_8124482.JPG,,ISIC_8796632.JPG,27,true,0.42000000000000026,hl,keypress(j),0,false,286678.39999997616,286678.2000000477,278157.539,278342.5,278174.12,286507.446,1,40,5,
sequence,flow.Sequence,6_4,2023-11-17T15:43:29.284Z,,,,,,,,,,,8504.080000047688,completion,,,,,,,high,low,,,,,,true,,,,,false,286678.5,286678.2000000477,278157.539,278342.5,278174.12,286507.446,1,40,,
trial,html.Screen,6_5_0,2023-11-17T15:43:36.723Z,,,,1,-1.0751036484083878,1.143906455483852,,,true,hl,7610.654000023846,response,0.796241477082623,1.2,-1.2,-0.9017449335975743,1.2,-1.2,high,low,,ISIC_0064406.JPG,,ISIC_8588033.JPG,27,true,0.42000000000000026,hl,keypress(j),0,false,294118.2000000477,294118.10000002384,286490.529,286678.5,286507.446,293940.807,1,40,6,
sequence,flow.Sequence,6_5,2023-11-17T15:43:36.724Z,,,,,,,,,,,7610.654000023846,completion,,,,,,,high,low,,,,,,true,,,,,false,294118.2999999523,294118.10000002384,286490.529,286678.5,286507.446,293940.807,1,40,,
trial,html.Screen,6_6_0,2023-11-17T15:43:45.780Z,,,,1,-1.3411179702686655,-1.255103311449152,,,true,hh,9233.393000047712,response,0.8946880006769797,1.2,-1.2,0.9198276163642348,1.2,-1.2,high,high,,ISIC_5611010.JPG,,ISIC_7840728.JPG,245,true,0.3600000000000002,hh,keypress(i),0,false,303174.2999999523,303174.2000000477,293924.337,294118.2999999523,293940.807,303024.301,1,40,7,
sequence,flow.Sequence,6_6,2023-11-17T15:43:45.780Z,,,,,,,,,,,9233.393000047712,completion,,,,,,,high,high,,,,,,true,,,,,false,303174.5,303174.2000000477,293924.337,294118.2999999523,293940.807,303024.301,1,40,,
trial,html.Screen,6_7_0,2023-11-17T15:43:49.107Z,,,,1,-1.2695509547992938,0.9641099676945492,,,true,hl,3477.6990000000224,response,0.7809949855371787,1.2,-1.2,-0.8493861117004308,1.2,-1.2,high,low,,ISIC_0025841.JPG,,ISIC_7450481.JPG,27,true,0.42000000000000026,hl,keypress(j),0,false,306502.2000000477,306502,303007.415,303174.5,303024.301,306324.095,1,40,8,
sequence,flow.Sequence,6_7,2023-11-17T15:43:49.108Z,,,,,,,,,,,3477.6990000000224,completion,,,,,,,high,low,,,,,,true,,,,,false,306502.2999999523,306502,303007.415,303174.5,303024.301,306324.095,1,40,,
trial,html.Screen,6_8_0,2023-11-17T15:44:02.292Z,,,,1,-0.869932994914832,0.8880533324432531,,,true,hl,13362.204999952344,response,0.8092423703106274,1.2,-1.2,-1.1870093485714288,1.2,-1.2,high,low,,ISIC_8617084.JPG,,ISIC_8592235.JPG,27,true,0.42000000000000026,hl,keypress(j),0,false,319686.39999997616,319686.2999999523,306307.606,306502.2999999523,306324.095,319507.435,1,40,9,
sequence,flow.Sequence,6_8,2023-11-17T15:44:02.292Z,,,,,,,,,,,13362.204999952344,completion,,,,,,,high,low,,,,,,true,,,,,false,319686.60000002384,319686.2999999523,306307.606,306502.2999999523,306324.095,319507.435,1,40,,
trial,html.Screen,6_9_0,2023-11-17T15:44:07.140Z,,,,1,-1.0959058628476686,-1.1684835186766898,,,true,hh,5026.864999952319,response,1.0700930503975157,1.2,-1.2,1.2020012168275056,1.2,-1.2,high,high,,ISIC_5920470.JPG,,ISIC_0000022.JPG,245,true,0.3600000000000002,hh,keypress(i),0,false,324534.39999997616,324534.2999999523,319490.557,319686.60000002384,319507.435,324357.559,1,40,10,
sequence,flow.Sequence,6_9,2023-11-17T15:44:07.140Z,,,,,,,,,,,5026.864999952319,completion,,,,,,,high,high,,,,,,true,,,,,false,324534.39999997616,324534.2999999523,319490.557,319686.60000002384,319507.435,324357.559,1,40,,
trial,html.Screen,6_10_0,2023-11-17T15:44:13.251Z,,,,1,1.1164729501046406,1.2978935747992253,,,true,ll,6288.240999952308,response,-1.2711018615747949,1.2,-1.2,-1.1042234044781618,1.2,-1.2,low,low,,ISIC_0034166.JPG,,ISIC_8603734.JPG,26,true,0.15000000000000002,ll,keypress(f),0,false,330645.89999997616,330645.7999999523,324340.868,324534.5,324357.559,330474.088,1,40,11,
sequence,flow.Sequence,6_10,2023-11-17T15:44:13.251Z,,,,,,,,,,,6288.240999952308,completion,,,,,,,low,low,,,,,,true,,,,,false,330646.10000002384,330645.7999999523,324340.868,324534.5,324357.559,330474.088,1,40,,
trial,html.Screen,6_11_0,2023-11-17T15:44:16.676Z,,,,1,1.2254187569955004,1.174555235109734,,,true,ll,3596.012000023853,response,-1.0789197754694622,1.2,-1.2,-1.1654690806750023,1.2,-1.2,low,low,,ISIC_0027187.JPG,,ISIC_1576437.JPG,26,true,0.15000000000000002,ll,keypress(f),0,false,334070.2000000477,334070.10000002384,330457.43,330646.10000002384,330474.088,333907.39,1,40,12,
sequence,flow.Sequence,6_11,2023-11-17T15:44:16.676Z,,,,,,,,,,,3596.012000023853,completion,,,,,,,low,low,,,,,,true,,,,,false,334070.2999999523,334070.10000002384,330457.43,330646.10000002384,330474.088,333907.39,1,40,,
trial,html.Screen,6_12_0,2023-11-17T15:44:23.988Z,,,,1,0.7833710010171356,-0.9315588090336896,,,true,lh,7474.409999952302,response,-0.9454713230140772,1.2,-1.2,0.9245167441969216,1.2,-1.2,low,high,,ISIC_3826102.JPG,,ISIC_9101055.JPG,26,true,0.3600000000000002,lh,keypress(e),0,false,341382,341381.7999999523,333874.177,334070.39999997616,333907.39,341207.386,1,40,13,
sequence,flow.Sequence,6_12,2023-11-17T15:44:23.988Z,,,,,,,,,,,7474.409999952302,completion,,,,,,,low,high,,,,,,true,,,,,false,341382.10000002384,341381.7999999523,333874.177,334070.39999997616,333907.39,341207.386,1,40,,
trial,html.Screen,6_13_0,2023-11-17T15:44:34.340Z,,,,1,0.7871162143493278,-0.8429329800778957,,,true,lh,10526.913999952318,response,-1.1181734135756094,1.2,-1.2,0.944560381774994,1.2,-1.2,low,high,,ISIC_3439215.JPG,,ISIC_9688534.JPG,33,true,0.42000000000000026,lh,keypress(e),0,false,351734.39999997616,351734.2999999523,341190.74,341382.10000002384,341207.386,351557.342,1,40,14,
sequence,flow.Sequence,6_13,2023-11-17T15:44:34.340Z,,,,,,,,,,,10526.913999952318,completion,,,,,,,low,high,,,,,,true,,,,,false,351734.39999997616,351734.2999999523,341190.74,341382.10000002384,341207.386,351557.342,1,40,,
trial,html.Screen,6_14_0,2023-11-17T15:44:43.124Z,,,,1,1.0264463986917702,-1.2804054832904397,,,true,lh,8960.758000023838,response,-1.2695509547992938,1.2,-1.2,0.9641099676945492,1.2,-1.2,low,high,,ISIC_7889838.JPG,,ISIC_0025841.JPG,33,true,0.42000000000000026,lh,keypress(e),0,false,360518.10000002384,360518.10000002384,351540.782,351734.39999997616,351557.342,360340.759,1,40,15,
sequence,flow.Sequence,6_14,2023-11-17T15:44:43.124Z,,,,,,,,,,,8960.758000023838,completion,,,,,,,low,high,,,,,,true,,,,,false,360518.2000000477,360518.10000002384,351540.782,351734.39999997616,351557.342,360340.759,1,40,,
trial,html.Screen,6_15_0,2023-11-17T15:44:49.412Z,,,,1,-0.858338058340649,0.9540612223480284,,,true,hl,6465.24099999998,response,0.7809949855371787,1.2,-1.2,-0.8493861117004308,1.2,-1.2,high,low,,ISIC_8922893.JPG,,ISIC_7450481.JPG,27,true,0.42000000000000026,hl,keypress(j),0,false,366806.2000000477,366806,360323.894,360518.2999999523,360340.759,366624.008,1,40,16,
sequence,flow.Sequence,6_15,2023-11-17T15:44:49.412Z,,,,,,,,,,,6465.24099999998,completion,,,,,,,high,low,,,,,,true,,,,,false,366806.2000000477,366806,360323.894,360518.2999999523,360340.759,366624.008,1,40,,
trial,html.Screen,6_16_0,2023-11-17T15:44:59.540Z,,,,1,0.7998855902596425,-1.1518579145663017,,,true,lh,10310.192000047711,response,-0.869932994914832,1.2,-1.2,0.8880533324432531,1.2,-1.2,low,high,,ISIC_0025061.JPG,,ISIC_8617084.JPG,26,true,0.3600000000000002,lh,keypress(e),0,false,376934.2999999523,376934.2000000477,366607.423,366806.2000000477,366624.008,376757.482,1,40,17,
sequence,flow.Sequence,6_16,2023-11-17T15:44:59.540Z,,,,,,,,,,,10310.192000047711,completion,,,,,,,low,high,,,,,,true,,,,,false,376934.5,376934.2000000477,366607.423,366806.2000000477,366624.008,376757.482,1,40,,
trial,html.Screen,6_17_0,2023-11-17T15:45:04.644Z,,,,1,1.156827121261563,1.2544342720917778,,,true,ll,5280.41799997614,response,-0.964746248973834,1.2,-1.2,-0.9069353065857808,1.2,-1.2,low,low,,ISIC_0060397.JPG,,ISIC_9896801.JPG,253,true,0.42000000000000026,ll,keypress(f),0,false,382038.10000002384,382037.89999997616,376740.599,376934.60000002384,376757.482,381873.99,1,40,18,
sequence,flow.Sequence,6_17,2023-11-17T15:45:04.644Z,,,,,,,,,,,5280.41799997614,completion,,,,,,,low,low,,,,,,true,,,,,false,382038.2000000477,382037.89999997616,376740.599,376934.60000002384,376757.482,381873.99,1,40,,
trial,html.Screen,6_18_0,2023-11-17T15:45:14.772Z,,,,1,0.7809949855371787,-0.8493861117004308,,,true,lh,10292.210000047693,response,-1.0751036484083878,1.2,-1.2,1.143906455483852,1.2,-1.2,low,high,,ISIC_7450481.JPG,,ISIC_0064406.JPG,26,true,0.3600000000000002,lh,keypress(e),0,false,392166.2000000477,392166.2000000477,381840.595,382038.2000000477,381873.99,391990.676,1,40,19,
sequence,flow.Sequence,6_18,2023-11-17T15:45:14.773Z,,,,,,,,,,,10292.210000047693,completion,,,,,,,low,high,,,,,,true,,,,,false,392166.2999999523,392166.2000000477,381840.595,382038.2000000477,381873.99,391990.676,1,40,,
trial,html.Screen,6_19_0,2023-11-17T15:45:19.556Z,,,,1,-1.201100953917304,-1.1751492358160105,,,true,hh,4959.324000000022,response,1.0376573622140812,1.2,-1.2,1.0000402707486682,1.2,-1.2,high,high,,ISIC_0647224.JPG,,ISIC_0068798.JPG,339,true,0.42000000000000026,hh,keypress(i),0,false,396950.10000002384,396950,391973.89,392166.39999997616,391990.676,396774.181,1,40,20,
sequence,flow.Sequence,6_19,2023-11-17T15:45:19.556Z,,,,,,,,,,,4959.324000000022,completion,,,,,,,high,high,,,,,,true,,,,,false,396950.2000000477,396950,391973.89,392166.39999997616,391990.676,396774.181,1,40,,
trial,html.Screen,6_20_0,2023-11-17T15:45:23.540Z,,,,1,1.2282561398079586,1.210457198775374,,,true,ll,4159.91900002386,response,-1.2711018615747949,1.2,-1.2,-1.1042234044781618,1.2,-1.2,low,low,,ISIC_9141817.JPG,,ISIC_8603734.JPG,26,true,0.15000000000000002,ll,keypress(f),0,false,400934.2000000477,400934.10000002384,396757.445,396950.2999999523,396774.181,400757.311,1,40,21,
sequence,flow.Sequence,6_20,2023-11-17T15:45:23.541Z,,,,,,,,,,,4159.91900002386,completion,,,,,,,low,low,,,,,,true,,,,,false,400934.2999999523,400934.10000002384,396757.445,396950.2999999523,396774.181,400757.311,1,40,,
trial,html.Screen,6_21_0,2023-11-17T15:45:30.388Z,,,,1,0.8655167308525522,-0.9298580423306444,,,true,lh,7024.889000047697,response,-0.8534691366511764,1.2,-1.2,1.03975580494588,1.2,-1.2,low,high,,ISIC_4603706.JPG,,ISIC_0056788.JPG,26,true,0.3600000000000002,lh,keypress(e),0,false,407782.2999999523,407782.2000000477,400740.806,400934.2999999523,400757.311,407607.399,1,40,22,
sequence,flow.Sequence,6_21,2023-11-17T15:45:30.389Z,,,,,,,,,,,7024.889000047697,completion,,,,,,,low,high,,,,,,true,,,,,false,407782.39999997616,407782.2000000477,400740.806,400934.2999999523,400757.311,407607.399,1,40,,
trial,html.Screen,6_22_0,2023-11-17T15:45:40.516Z,,,,1,1.1164729501046406,1.2978935747992253,,,true,ll,10302.801000047708,response,-1.101961018205887,1.2,-1.2,-0.891963134716088,1.2,-1.2,low,low,,ISIC_0034166.JPG,,ISIC_5625747.JPG,253,true,0.42000000000000026,ll,keypress(f),0,false,417910.2999999523,417910.2000000477,407590.68,407782.5,407607.399,417740.639,1,40,23,
sequence,flow.Sequence,6_22,2023-11-17T15:45:40.517Z,,,,,,,,,,,10302.801000047708,completion,,,,,,,low,low,,,,,,true,,,,,false,417910.39999997616,417910.2000000477,407590.68,407782.5,407607.399,417740.639,1,40,,
trial,html.Screen,6_23_0,2023-11-17T15:45:50.276Z,,,,1,-1.1181734135756094,0.944560381774994,,,true,hl,9929.461000023817,response,0.7870237732709365,1.2,-1.2,-0.9172955251119376,1.2,-1.2,high,low,,ISIC_9688534.JPG,,ISIC_0057716.JPG,27,true,0.42000000000000026,hl,keypress(j),0,false,427670.2000000477,427670.10000002384,417723.608,417910.39999997616,417740.639,427490.637,1,40,24,
sequence,flow.Sequence,6_23,2023-11-17T15:45:50.276Z,,,,,,,,,,,9929.461000023817,completion,,,,,,,high,low,,,,,,true,,,,,false,427670.2000000477,427670.10000002384,417723.608,417910.39999997616,417740.639,427490.637,1,40,,
trial,html.Screen,6_24_0,2023-11-17T15:45:53.892Z,,,,1,1.2254187569955004,1.174555235109734,,,true,ll,3795.463000023854,response,-0.9684792294535484,1.2,-1.2,-0.9741930282015964,1.2,-1.2,low,low,,ISIC_0027187.JPG,,ISIC_3372750.JPG,179,true,0.3600000000000002,ll,keypress(f),0,false,431286.2000000477,431286.10000002384,427473.823,427670.2999999523,427490.637,431123.932,1,40,25,
sequence,flow.Sequence,6_24,2023-11-17T15:45:53.893Z,,,,,,,,,,,3795.463000023854,completion,,,,,,,low,low,,,,,,true,,,,,false,431286.39999997616,431286.10000002384,427473.823,427670.2000000477,427490.637,431123.932,1,40,,
trial,html.Screen,6_25_0,2023-11-17T15:46:02.452Z,,,,1,1.276222161935671,-0.9657780821973284,,,true,lh,8722.068000000028,response,-0.991282840649944,1.2,-1.2,0.9397921099839784,1.2,-1.2,low,high,,ISIC_6710411.JPG,,ISIC_0000463.JPG,26,true,0.3600000000000002,lh,keypress(e),0,false,439846.10000002384,439846,431090.796,431286.5,431123.932,439674.012,1,40,26,
sequence,flow.Sequence,6_25,2023-11-17T15:46:02.452Z,,,,,,,,,,,8722.068000000028,completion,,,,,,,low,high,,,,,,true,,,,,false,439846.2000000477,439846,431090.796,431286.39999997616,431123.932,439674.012,1,40,,
trial,html.Screen,6_26_0,2023-11-17T15:46:08.820Z,,,,1,-1.2711018615747949,-1.1042234044781618,,,true,hh,6539.688000047696,response,0.8189159620098805,1.2,-1.2,1.5294540283116185,1.2,-1.2,high,high,,ISIC_8603734.JPG,,ISIC_0034101.JPG,339,true,0.42000000000000026,hh,keypress(i),0,false,446213.7999999523,446213.7000000477,439657.254,439846.2000000477,439674.012,446040.785,1,40,27,
sequence,flow.Sequence,6_26,2023-11-17T15:46:08.820Z,,,,,,,,,,,6539.688000047696,completion,,,,,,,high,high,,,,,,true,,,,,false,446213.89999997616,446213.7000000477,439657.254,439846.2000000477,439674.012,446040.785,1,40,,
trial,html.Screen,6_27_0,2023-11-17T15:46:12.787Z,,,,1,-1.131522954199764,-1.1047184491749509,,,true,hh,4140.3150000238675,response,1.2282561398079586,1.2,-1.2,1.210457198775374,1.2,-1.2,high,high,,ISIC_1868816.JPG,,ISIC_9141817.JPG,53,true,0.15000000000000002,hh,keypress(i),0,false,450181.2999999523,450181.10000002384,446023.73,446213.89999997616,446040.785,450007.224,1,40,28,
sequence,flow.Sequence,6_27,2023-11-17T15:46:12.788Z,,,,,,,,,,,4140.3150000238675,completion,,,,,,,high,high,,,,,,true,,,,,false,450181.39999997616,450181.10000002384,446023.73,446213.89999997616,446040.785,450007.224,1,40,,
trial,html.Screen,6_28_0,2023-11-17T15:46:18.373Z,,,,1,1.29026082950341,1.144672688339213,,,true,ll,5758.876000023854,response,-1.1653123206802332,1.2,-1.2,-1.2976858999596654,1.2,-1.2,low,low,,ISIC_0054317.JPG,,ISIC_0071508.JPG,26,true,0.15000000000000002,ll,keypress(f),0,false,455766.2000000477,455766.10000002384,449990.56,450181.39999997616,450007.224,455590.578,1,40,29,
sequence,flow.Sequence,6_28,2023-11-17T15:46:18.373Z,,,,,,,,,,,5758.876000023854,completion,,,,,,,low,low,,,,,,true,,,,,false,455766.2999999523,455766.10000002384,449990.56,450181.39999997616,450007.224,455590.578,1,40,,
trial,html.Screen,6_29_0,2023-11-17T15:46:23.636Z,,,,1,0.8035152873995188,-0.82868450251632,,,true,lh,5439.122000047704,response,-1.2075172235545184,1.2,-1.2,0.9116724966267612,1.2,-1.2,low,high,,ISIC_0010671.JPG,,ISIC_0024235.JPG,26,true,0.3600000000000002,lh,keypress(e),0,false,461029.89999997616,461029.7000000477,455573.817,455766.39999997616,455590.578,460857.428,1,40,30,
sequence,flow.Sequence,6_29,2023-11-17T15:46:23.636Z,,,,,,,,,,,5439.122000047704,completion,,,,,,,low,high,,,,,,true,,,,,false,461030,461029.7000000477,455573.817,455766.39999997616,455590.578,460857.428,1,40,,
trial,html.Screen,6_30_0,2023-11-17T15:46:27.940Z,,,,1,-1.1653123206802332,-1.2976858999596654,,,true,hh,4476.071999999986,response,1.1783311757907324,1.2,-1.2,1.0915173513546716,1.2,-1.2,high,high,,ISIC_0071508.JPG,,ISIC_8241457.JPG,339,true,0.42000000000000026,hh,keypress(i),0,false,465333.60000002384,465333.5,460840.637,461030,460857.428,465157.236,1,40,31,
sequence,flow.Sequence,6_30,2023-11-17T15:46:27.940Z,,,,,,,,,,,4476.071999999986,completion,,,,,,,high,high,,,,,,true,,,,,false,465333.7000000477,465333.5,460840.637,461030,460857.428,465157.236,1,40,,
trial,html.Screen,6_31_0,2023-11-17T15:46:36.516Z,,,,1,0.8623414234919863,-0.782830143980698,,,true,lh,8752.264000000025,response,-1.0026266089287914,1.2,-1.2,1.0913275913920335,1.2,-1.2,low,high,,ISIC_2727016.JPG,,ISIC_0033520.JPG,26,true,0.3600000000000002,lh,keypress(e),0,false,473909.60000002384,473909.5,465140.712,465333.7000000477,465157.236,473740.593,1,40,32,
sequence,flow.Sequence,6_31,2023-11-17T15:46:36.516Z,,,,,,,,,,,8752.264000000025,completion,,,,,,,low,high,,,,,,true,,,,,false,473909.7000000477,473909.5,465140.712,465333.7000000477,465157.236,473740.593,1,40,,
trial,html.Screen,6_32_0,2023-11-17T15:46:46.484Z,,,,1,-0.9579209317488,1.0147487101263497,,,true,hl,10137.007000023848,response,0.7833710010171356,1.2,-1.2,-0.9315588090336896,1.2,-1.2,high,low,,ISIC_8124482.JPG,,ISIC_3826102.JPG,27,true,0.42000000000000026,hl,keypress(j),0,false,483877.7000000477,483877.60000002384,473723.686,473909.7000000477,473740.593,483707.653,1,40,33,
sequence,flow.Sequence,6_32,2023-11-17T15:46:46.484Z,,,,,,,,,,,10137.007000023848,completion,,,,,,,high,low,,,,,,true,,,,,false,483877.7999999523,483877.60000002384,473723.686,473909.7000000477,473740.593,483707.653,1,40,,
trial,html.Screen,6_33_0,2023-11-17T15:46:52.981Z,,,,1,-1.0870240111136478,-1.332340670965917,,,true,hh,6666.347000000009,response,1.135372722680314,1.2,-1.2,1.0926414044454305,1.2,-1.2,high,high,,ISIC_0000660.JPG,,ISIC_2355513.JPG,245,true,0.3600000000000002,hh,keypress(i),0,false,490374.10000002384,490374,483690.392,483877.89999997616,483707.653,490207.437,1,40,34,
sequence,flow.Sequence,6_33,2023-11-17T15:46:52.981Z,,,,,,,,,,,6666.347000000009,completion,,,,,,,high,high,,,,,,true,,,,,false,490374.2000000477,490374,483690.392,483877.89999997616,483707.653,490207.437,1,40,,
trial,html.Screen,6_34_0,2023-11-17T15:46:55.476Z,,,,1,-1.3411179702686655,-1.255103311449152,,,true,hh,2662.2630000477075,response,1.188743606919222,1.2,-1.2,1.0980226451001782,1.2,-1.2,high,high,,ISIC_5611010.JPG,,ISIC_0060481.JPG,53,true,0.15000000000000002,hh,keypress(i),0,false,492869.7999999523,492869.7000000477,490173.878,490374.2999999523,490207.437,492690.547,1,40,35,
sequence,flow.Sequence,6_34,2023-11-17T15:46:55.476Z,,,,,,,,,,,2662.2630000477075,completion,,,,,,,high,high,,,,,,true,,,,,false,492869.89999997616,492869.7000000477,490173.878,490374.2999999523,490207.437,492690.547,1,40,,
trial,html.Screen,6_35_0,2023-11-17T15:47:05.669Z,,,,1,-1.2075172235545184,0.9116724966267612,,,true,hl,10371.45299999998,response,0.809764442462202,1.2,-1.2,-1.005337148078696,1.2,-1.2,high,low,,ISIC_0024235.JPG,,ISIC_2379379.JPG,27,true,0.42000000000000026,hl,keypress(j),0,false,503062.2000000477,503062,492674.264,492870,492690.547,502890.701,1,40,36,
sequence,flow.Sequence,6_35,2023-11-17T15:47:05.669Z,,,,,,,,,,,10371.45299999998,completion,,,,,,,high,low,,,,,,true,,,,,false,503062.2000000477,503062,492674.264,492870,492690.547,502890.701,1,40,,
trial,html.Screen,6_36_0,2023-11-17T15:47:11.492Z,,,,1,-1.2012395086389958,-1.0618985767073823,,,true,hh,5995.098999952315,response,1.3847253236539578,1.2,-1.2,1.1048559518249943,1.2,-1.2,high,high,,ISIC_9876004.JPG,,ISIC_0060817.JPG,245,true,0.3600000000000002,hh,keypress(i),0,false,508886,508885.7999999523,502873.778,503062.2999999523,502890.701,508707.172,1,40,37,
sequence,flow.Sequence,6_36,2023-11-17T15:47:11.493Z,,,,,,,,,,,5995.098999952315,completion,,,,,,,high,high,,,,,,true,,,,,false,508886.10000002384,508885.7999999523,502873.778,503062.2999999523,502890.701,508707.172,1,40,,
trial,html.Screen,6_37_0,2023-11-17T15:47:14.885Z,,,,1,1.2322060291690602,1.2686491386389651,,,true,ll,3570.627999952296,response,-1.2024083555600384,1.2,-1.2,-1.149077673153018,1.2,-1.2,low,low,,ISIC_0011697.JPG,,ISIC_3566243.JPG,26,true,0.15000000000000002,ll,keypress(f),0,false,512277.89999997616,512277.7999999523,508690.522,508886.10000002384,508707.172,512107.625,1,40,38,
sequence,flow.Sequence,6_37,2023-11-17T15:47:14.885Z,,,,,,,,,,,3570.627999952296,completion,,,,,,,low,low,,,,,,true,,,,,false,512278,512277.7999999523,508690.522,508886.10000002384,508707.172,512107.625,1,40,,
trial,html.Screen,6_38_0,2023-11-17T15:47:18.036Z,,,,1,1.255256820488545,1.1206426433062562,,,true,ll,3321.774999976158,response,-1.0959058628476686,1.2,-1.2,-1.1684835186766898,1.2,-1.2,low,low,,ISIC_0024652.JPG,,ISIC_5920470.JPG,26,true,0.15000000000000002,ll,keypress(f),0,false,515429.5,515429.39999997616,512090.561,512278,512107.625,515257.244,1,40,39,
sequence,flow.Sequence,6_38,2023-11-17T15:47:18.036Z,,,,,,,,,,,3321.774999976158,completion,,,,,,,low,low,,,,,,true,,,,,false,515429.7000000477,515429.39999997616,512090.561,512278,512107.625,515257.244,1,40,,
trial,html.Screen,6_39_0,2023-11-17T15:47:20.501Z,,,,1,1.1033977063872138,1.2513071571733083,,,true,ll,2636.655999976152,response,-1.09666761087476,1.2,-1.2,-1.1072126870290426,1.2,-1.2,low,low,,ISIC_0025472.JPG,,ISIC_0071754.JPG,26,true,0.15000000000000002,ll,keypress(f),0,false,517894,517893.89999997616,515240.584,515429.7000000477,515257.244,517724.117,1,40,40,
sequence,flow.Sequence,6_39,2023-11-17T15:47:20.501Z,,,,,,,,,,,2636.655999976152,completion,,,,,,,low,low,,,,,,true,,,,,false,517894.2000000477,517893.89999997616,515240.584,515429.7000000477,515257.244,517724.117,1,40,,
practice_loop,flow.Loop,6,2023-11-17T15:47:20.501Z,,,,,,,,,,,276936.39699997613,completion,,,,,,,,,,,,,,true,,,,,false,517894.2000000477,517893.89999997616,240924.135,241115.20000004768,240957.503,517724.117,1,40,,
stair_instructions,html.Screen,7,2023-11-17T15:47:39.020Z,,,,,,,,,,,18688.18299995229,response,,,,,,,,,,,,,,,,continue,click button,,,536413,536412.2999999523,517707.354,517894.2000000477,517724.117,536240.497,,,,
trial,html.Screen,8_0_0,2023-11-17T15:47:53.944Z,,,,2,,-0.0264544974620926,,0.05,false,hl,15096.302999952342,response,0.7833710010171356,1.2,-1.2,-0.9315588090336896,1.2,-1.2,high,low,,ISIC_0056991.JPG,,ISIC_3826102.JPG,27,false,0.42000000000000026,lh,keypress(e),0,true,551336.7999999523,551336.7999999523,536224.078,536413.1000000238,536240.497,551173.803,1,40,1,
sequence,flow.Sequence,8_0,2023-11-17T15:47:53.944Z,,,,,,,,,,,15096.302999952342,completion,,,,,,,high,low,,,,,,false,,,,,true,551337,551336.7999999523,536224.078,536413.1000000238,536240.497,551173.803,1,40,,
trial,html.Screen,8_1_0,2023-11-17T15:47:58.629Z,,,,2,-0.0348234368746005,0.0236866303880924,,0.05,true,ll,4848.096999976202,response,-1.086647361897092,1.2,-1.15,-1.1528935990320313,1.15,-1.2,low,low,,ISIC_0011099.JPG,,ISIC_3505339.JPG,27,false,0.14,ll,keypress(f),0,true,556022,556021.8999999762,551157.159,551337.1000000238,551173.803,555840.462,1,40,2,
sequence,flow.Sequence,8_1,2023-11-17T15:47:58.629Z,,,,,,,,,,,4848.096999976202,completion,,,,,,,low,low,,,,,,false,,,,,true,556022.1000000238,556021.8999999762,551157.159,551337,551173.803,555840.462,1,40,,
trial,html.Screen,8_2_0,2023-11-17T15:48:04.181Z,,,,2,0.0450282431170921,,,0.05,true,hh,5733.537999999942,response,1.1877026569952844,1.15,-1.15,1.1604367569896263,1.15,-1.15,high,high,,ISIC_1805163.JPG,,ISIC_0064589.JPG,27,false,0.1,hh,keypress(i),0,true,561574.1000000238,561574,555824.105,556022.2000000477,555840.462,561407.384,1,40,3,
sequence,flow.Sequence,8_2,2023-11-17T15:48:04.181Z,,,,,,,,,,,5733.537999999942,completion,,,,,,,high,high,,,,,,false,,,,,true,561574.2000000477,561574,555824.105,556022.2000000477,555840.462,561407.384,1,40,,
trial,html.Screen,8_3_0,2023-11-17T15:48:12.215Z,,,,2,0.0069555338059566,-0.0310100918136373,,0.05,true,ll,8200.71600002388,response,-1.1137763092539212,1.15,-1.15,-1.1599906701455132,1.15,-1.15,low,low,,ISIC_0011177.JPG,,ISIC_5413788.JPG,30,false,0.13,ll,keypress(f),0,true,569608.2000000477,569608.1000000238,561373.888,561574.2999999523,561407.384,569440.509,1,40,4,
sequence,flow.Sequence,8_3,2023-11-17T15:48:12.215Z,,,,,,,,,,,8200.71600002388,completion,,,,,,,low,low,,,,,,false,,,,,true,569608.2999999523,569608.1000000238,561373.888,561574.2000000477,561407.384,569440.509,1,40,,
trial,html.Screen,8_4_0,2023-11-17T15:48:20.181Z,,,,2,-0.0097091270150747,0.0417921315885292,,0.05,false,ll,8133.691000047722,response,-1.1598623261077452,1.15,-1.0999999999999999,-1.203269031614007,1.15,-1.0999999999999999,low,low,,ISIC_3967213.JPG,,ISIC_0002639.JPG,30,false,0.11,hl,keypress(j),0,true,577574.2999999523,577574.2000000477,569423.658,569608.3999999762,569440.509,577407.2,1,40,5,
sequence,flow.Sequence,8_4,2023-11-17T15:48:20.181Z,,,,,,,,,,,8133.691000047722,completion,,,,,,,low,low,,,,,,false,,,,,true,577574.2999999523,577574.2000000477,569423.658,569608.3999999762,569440.509,577407.2,1,40,,
trial,html.Screen,8_5_0,2023-11-17T15:48:26.517Z,,,,2,-0.0409338693593207,0.0072462710499874,,0.05,true,hl,6502.400000023888,response,0.7911024675435955,1.15,-1.15,-0.7975977016137676,1.15,-1.0999999999999999,high,low,,ISIC_3608788.JPG,,ISIC_5813642.JPG,25,false,0.3600000000000002,hl,keypress(j),0,true,583909.7000000477,583909.6000000238,577390.441,577574.3999999762,577407.2,583740.519,1,40,6,
sequence,flow.Sequence,8_5,2023-11-17T15:48:26.517Z,,,,,,,,,,,6502.400000023888,completion,,,,,,,high,low,,,,,,false,,,,,true,583909.7999999523,583909.6000000238,577390.441,577574.3999999762,577407.2,583740.519,1,40,,
trial,html.Screen,8_6_0,2023-11-17T15:48:37.077Z,,,,2,-0.000047919190197942736,-0.0462652940855003,,0.05,false,hl,10729.58100002387,response,0.9235571765207048,1.0999999999999999,-1.15,-1.0008081653938232,1.15,-0.9504333666138873,high,low,,ISIC_0011507.JPG,,ISIC_8796632.JPG,26,false,0.28000000000000014,lh,keypress(e),0,true,594470.2000000477,594470.1000000238,583723.822,583909.7999999523,583740.519,594290.445,1,40,7,
sequence,flow.Sequence,8_6,2023-11-17T15:48:37.077Z,,,,,,,,,,,10729.58100002387,completion,,,,,,,high,low,,,,,,false,,,,,true,594470.3999999762,594470.1000000238,583723.822,583909.7999999523,583740.519,594290.445,1,40,,
trial,html.Screen,8_7_0,2023-11-17T15:48:40.581Z,,,,2,-0.0113873532168551,-0.0054999201556291,,0.05,true,hh,3683.4549999762094,response,1.188743606919222,1.15,-1.15,1.0980226451001782,1.15,-1.0004333666138874,high,high,,ISIC_8812621.JPG,,ISIC_0060481.JPG,27,false,0.1,hh,keypress(i),0,true,597973.8999999762,597973.8999999762,594273.655,594470.3999999762,594290.445,597807.604,1,40,8,
sequence,flow.Sequence,8_7,2023-11-17T15:48:40.581Z,,,,,,,,,,,3683.4549999762094,completion,,,,,,,high,high,,,,,,false,,,,,true,597974.1000000238,597973.8999999762,594273.655,594470.3999999762,594290.445,597807.604,1,40,,
trial,html.Screen,8_8_0,2023-11-17T15:48:42.293Z,,,,2,0.0450282431170921,,,0.05,true,hh,1878.195999952266,response,1.188743606919222,1.15,-1.15,1.0980226451001782,1.0933831260097,-1.0004333666138874,high,high,,ISIC_1805163.JPG,,ISIC_0060481.JPG,32,false,0.1,hh,keypress(i),0,true,599686,599685.7999999523,597773.924,597974.1000000238,597807.604,599507.071,1,40,9,
sequence,flow.Sequence,8_8,2023-11-17T15:48:42.293Z,,,,,,,,,,,1878.195999952266,completion,,,,,,,high,high,,,,,,false,,,,,true,599686.1000000238,599685.7999999523,597773.924,597974.1000000238,597807.604,599507.071,1,40,,
trial,html.Screen,8_9_0,2023-11-17T15:48:58.096Z,,,,2,-0.0245376145053177,0.0436993426328401,,0.05,,,15799.984000000055,timeout,-0.8979276789594874,1.0933831260097,-1.15,0.925374811016654,1.0933831260097,-1.0004333666138874,low,high,,ISIC_0056444.JPG,,ISIC_4208361.JPG,27,false,0.30000000000000016,,,0,true,615488.6000000238,615488.5,599490.574,599686.1000000238,599507.071,615307.055,1,40,10,
sequence,flow.Sequence,8_9,2023-11-17T15:48:58.096Z,,,,,,,,,,,15981.429000000004,completion,,,,,,,low,high,,,,,,false,,,,,true,615488.7000000477,615488.5,599490.574,599686.1000000238,599507.071,615307.055,1,40,,
trial,html.Screen,8_10_0,2023-11-17T15:49:02.533Z,,,,2,0.0085520978188085,-0.0464691161264081,,0.05,true,hh,4618.744999952265,response,1.0088070132449485,1.0933831260097,-1.15,1.0292526683018866,1.0933831260097,-1.0004333666138874,high,high,,ISIC_0758797.JPG,,ISIC_0059314.JPG,32,false,0.1,hh,keypress(i),0,true,619925.8999999762,619925.7999999523,615290.656,615488.7000000477,615307.055,619757.014,1,40,11,
sequence,flow.Sequence,8_10,2023-11-17T15:49:02.533Z,,,,,,,,,,,4618.744999952265,completion,,,,,,,high,high,,,,,,false,,,,,true,619926,619925.7999999523,615290.656,615488.7000000477,615307.055,619757.014,1,40,,
trial,html.Screen,8_11_0,2023-11-17T15:49:05.365Z,,,,2,0.0217698886732706,-0.0410870915161425,,0.05,false,hl,3000.8859999761917,response,0.8816288864119318,1.0933831260097,-1.15,-0.801867301188093,0.9690298407734175,-1.0004333666138874,high,low,,ISIC_0072173.JPG,,ISIC_9196783.JPG,28,false,0.30000000000000016,hh,keypress(i),0,true,622758,622757.8999999762,619740.519,619926.1000000238,619757.014,622590.644,1,40,12,
sequence,flow.Sequence,8_11,2023-11-17T15:49:05.365Z,,,,,,,,,,,3000.8859999761917,completion,,,,,,,high,low,,,,,,false,,,,,true,622758.1000000238,622757.8999999762,619740.519,619926.1000000238,619757.014,622590.644,1,40,,
trial,html.Screen,8_12_0,2023-11-17T15:49:11.413Z,,,,2,0.0070725527271049,0.0049995141077508,,0.05,false,lh,6215.356000000029,response,-0.9696118525781644,0.89521794982844,-1.15,0.9244148283103414,0.9690298407734175,-1.0504333666138874,low,high,,ISIC_6124481.JPG,,ISIC_7927525.JPG,26,false,0.27000000000000013,ll,keypress(f),0,true,628806.1000000238,628806,622573.928,622758.2000000477,622590.644,628623.704,1,40,13,
sequence,flow.Sequence,8_12,2023-11-17T15:49:11.413Z,,,,,,,,,,,6215.356000000029,completion,,,,,,,low,high,,,,,,false,,,,,true,628806.2000000477,628806,622573.928,622758.2000000477,622590.644,628623.704,1,40,,
trial,html.Screen,8_13_0,2023-11-17T15:49:18.725Z,,,,2,-0.0348234368746005,0.0236866303880924,,0.05,true,lh,7494.195999976131,response,-1.27543269240326,0.89521794982844,-1.15,0.80839597388021,1.0190298407734175,-1.0504333666138874,low,high,,ISIC_0011099.JPG,,ISIC_3296136.JPG,26,false,0.29000000000000015,lh,keypress(e),0,true,636117.8999999762,636117.8999999762,628606.983,628806.2000000477,628623.704,635940.365,1,40,14,
sequence,flow.Sequence,8_13,2023-11-17T15:49:18.725Z,,,,,,,,,,,7494.195999976131,completion,,,,,,,low,high,,,,,,false,,,,,true,636118.1000000238,636117.8999999762,628606.983,628806.2000000477,628623.704,635940.365,1,40,,
trial,html.Screen,8_14_0,2023-11-17T15:49:23.845Z,,,,2,0.007397293189458,0.0174716772037504,,0.05,true,hl,5297.434999952326,response,0.948927472020595,0.89521794982844,-1.0999999999999999,-1.0660437155921598,1.0190298407734175,-1.0504333666138874,high,low,,ISIC_0056226.JPG,,ISIC_5808758.JPG,25,false,0.2300000000000001,hl,keypress(j),0,true,641237.8999999762,641237.7999999523,635923.603,636118.1000000238,635940.365,641057.04,1,40,15,
sequence,flow.Sequence,8_14,2023-11-17T15:49:23.845Z,,,,,,,,,,,5297.434999952326,completion,,,,,,,high,low,,,,,,false,,,,,true,641237.8999999762,641237.7999999523,635923.603,636118.1000000238,635940.365,641057.04,1,40,,
trial,html.Screen,8_15_0,2023-11-17T15:49:27.685Z,,,,2,0.039728379742806,-0.0228701131373768,,0.05,false,hl,4020.6600000476465,response,0.7998855902596425,0.89521794982844,-1.0999999999999999,-1.1518579145663017,1.0190298407734175,-1.0504333666138874,high,low,,ISIC_0054073.JPG,,ISIC_0025061.JPG,25,false,0.2300000000000001,ll,keypress(f),0,true,645077.7999999523,645077.7000000477,641040.477,641238,641057.04,644907.288,1,40,16,
sequence,flow.Sequence,8_15,2023-11-17T15:49:27.685Z,,,,,,,,,,,4020.6600000476465,completion,,,,,,,high,low,,,,,,false,,,,,true,645077.8999999762,645077.7000000477,641040.477,641238,641057.04,644907.288,1,40,,
trial,html.Screen,8_16_0,2023-11-17T15:49:30.549Z,,,,2,-0.0409338693593207,0.0072462710499874,,0.05,true,hh,3034.511999952374,response,0.9090432487160188,0.9452179498284401,-1.0999999999999999,1.033319341099857,1.0190298407734175,-1.0589508150792308,high,high,,ISIC_3608788.JPG,,ISIC_4119029.JPG,42,false,0.1,hh,keypress(i),0,true,647941.8999999762,647941.7999999523,644890.237,645077.8999999762,644907.288,647773.803,1,40,17,
sequence,flow.Sequence,8_16,2023-11-17T15:49:30.549Z,,,,,,,,,,,3034.511999952374,completion,,,,,,,high,high,,,,,,false,,,,,true,647942.1000000238,647941.7999999523,644890.237,645077.8999999762,644907.288,647773.803,1,40,,
trial,html.Screen,8_17_0,2023-11-17T15:49:35.749Z,,,,2,0.0107854985447517,0.0478010417136109,,0.05,true,lh,5367.697000000044,response,-1.020990671779317,0.9452179498284401,-1.0999999999999999,1.0116513850520903,0.9211812949079379,-1.0589508150792308,low,high,,ISIC_0010500.JPG,,ISIC_0011995.JPG,28,false,0.2300000000000001,lh,keypress(e),0,true,653141.6000000238,653141.5,647757.223,647942.1000000238,647773.803,652973.861,1,40,18,
sequence,flow.Sequence,8_17,2023-11-17T15:49:35.749Z,,,,,,,,,,,5367.697000000044,completion,,,,,,,low,high,,,,,,false,,,,,true,653141.7000000477,653141.5,647757.223,647942.1000000238,647773.803,652973.861,1,40,,
trial,html.Screen,8_18_0,2023-11-17T15:49:40.325Z,,,,2,0.0085520978188085,-0.0464691161264081,,0.05,true,ll,4744.038999976125,response,-1.008381128411934,0.9452179498284401,-1.0999999999999999,-1.0088020117106191,0.9211812949079379,-1.0589508150792308,low,low,,ISIC_0758797.JPG,,ISIC_6546903.JPG,32,false,0.11,ll,keypress(f),0,true,657718,657717.8999999762,652957.073,653141.7999999523,652973.861,657540.352,1,40,19,
sequence,flow.Sequence,8_18,2023-11-17T15:49:40.325Z,,,,,,,,,,,4744.038999976125,completion,,,,,,,low,low,,,,,,false,,,,,true,657718.1000000238,657717.8999999762,652957.073,653141.7999999523,652973.861,657540.352,1,40,,
trial,html.Screen,8_19_0,2023-11-17T15:49:43.237Z,,,,2,-0.0102460616775615,0.0309670599545429,,0.05,true,ll,3089.447999952361,response,-0.9607077625123552,0.9452179498284401,-0.9585915700612764,-1.0682608339754711,0.9211812949079379,-1.0589508150792308,low,low,,ISIC_0072041.JPG,,ISIC_0064763.JPG,34,false,0.1,ll,keypress(f),0,true,660630,660629.7999999523,657523.624,657718.1000000238,657540.352,660457.205,1,40,20,
sequence,flow.Sequence,8_19,2023-11-17T15:49:43.237Z,,,,,,,,,,,3089.447999952361,completion,,,,,,,low,low,,,,,,false,,,,,true,660630.1000000238,660629.7999999523,657523.624,657718.1000000238,657540.352,660457.205,1,40,,
trial,html.Screen,8_20_0,2023-11-17T15:49:47.109Z,,,,2,-0.0051189696037511,0.0396625911332438,,0.05,true,hh,4044.6949999762,response,0.9209488961172596,0.9452179498284401,-0.9585915700612764,0.9916011869447884,0.9211812949079379,-0.964484298243913,high,high,,ISIC_9742891.JPG,,ISIC_3338629.JPG,36,false,0.1,hh,keypress(i),0,true,664501.8999999762,664501.8999999762,660440.26,660630.1000000238,660457.205,664323.664,1,40,21,
sequence,flow.Sequence,8_20,2023-11-17T15:49:47.109Z,,,,,,,,,,,4044.6949999762,completion,,,,,,,high,high,,,,,,false,,,,,true,664502.1000000238,664501.8999999762,660440.26,660630.1000000238,660457.205,664323.664,1,40,,
trial,html.Screen,8_21_0,2023-11-17T15:49:54.837Z,,,,2,0.0116094682222121,-0.0258434522530318,,0.05,false,hl,7906.1359999523265,response,0.7118141631588264,0.89521794982844,-0.9585915700612764,-1.0369885917487718,0.8711812949079378,-0.964484298243913,high,low,,ISIC_9239632.JPG,,ISIC_6917681.JPG,28,false,0.19000000000000006,lh,keypress(e),0,true,672229.8999999762,672229.7999999523,664306.991,664502.1000000238,664323.664,672057.055,1,40,22,
sequence,flow.Sequence,8_21,2023-11-17T15:49:54.837Z,,,,,,,,,,,7906.1359999523265,completion,,,,,,,high,low,,,,,,false,,,,,true,672229.8999999762,672229.7999999523,664306.991,664502.1000000238,664323.664,672057.055,1,40,,
trial,html.Screen,8_22_0,2023-11-17T15:50:00.613Z,,,,2,0.0217698886732706,-0.0410870915161425,,0.05,true,hl,5948.944999999949,response,0.9388660854518424,0.9452179498284401,-0.9585915700612764,-0.79533948698576,0.8711812949079378,-1.014484298243913,high,low,,ISIC_0072173.JPG,,ISIC_9291926.JPG,26,false,0.2300000000000001,hl,keypress(j),0,true,678006,678006,672040.517,672230,672057.055,677823.673,1,40,23,
sequence,flow.Sequence,8_22,2023-11-17T15:50:00.614Z,,,,,,,,,,,5948.944999999949,completion,,,,,,,high,low,,,,,,false,,,,,true,678006.2000000477,678006,672040.517,672230,672057.055,677823.673,1,40,,
trial,html.Screen,8_23_0,2023-11-17T15:50:04.117Z,,,,2,-0.0245376145053177,0.0436993426328401,,0.05,false,lh,3686.2269999762066,response,-0.7933921755497018,0.9452179498284401,-0.9585915700612764,0.7692916291112835,0.8711812949079378,-1.014484298243913,low,high,,ISIC_0056444.JPG,,ISIC_7844825.JPG,27,false,0.17000000000000004,ll,keypress(f),0,true,681510,681509.8999999762,677807.076,678006.2000000477,677823.673,681340.582,1,40,24,
sequence,flow.Sequence,8_23,2023-11-17T15:50:04.117Z,,,,,,,,,,,3686.2269999762066,completion,,,,,,,low,high,,,,,,false,,,,,true,681510.1000000238,681509.8999999762,677807.076,678006.2000000477,677823.673,681340.582,1,40,,
trial,html.Screen,8_24_0,2023-11-17T15:50:13.237Z,,,,2,-0.0188047466661863,0.0288346930436979,,0.05,false,lh,9289.317999976105,response,-0.869932994914832,0.9452179498284401,-0.7443658312677308,0.8880533324432531,0.9211812949079379,-1.014484298243913,low,high,,ISIC_0014157.JPG,,ISIC_8617084.JPG,29,false,0.14,ll,keypress(f),0,true,690629.8999999762,690629.8999999762,681323.822,681510.2000000477,681340.582,690457.153,1,40,25,
sequence,flow.Sequence,8_24,2023-11-17T15:50:13.237Z,,,,,,,,,,,9289.317999976105,completion,,,,,,,low,high,,,,,,false,,,,,true,690630,690629.8999999762,681323.822,681510.2000000477,681340.582,690457.153,1,40,,
trial,html.Screen,8_25_0,2023-11-17T15:50:19.429Z,,,,2,0.0217698886732706,-0.0410870915161425,,0.05,false,ll,6364.746999976109,response,-0.7870373375006504,0.9452179498284401,-0.7443658312677308,-1.0385104284303668,0.9711812949079379,-1.014484298243913,low,low,,ISIC_0072173.JPG,,ISIC_0002162.JPG,38,false,0.1,hl,keypress(j),0,true,696822,696821.8999999762,690439.995,690630.1000000238,690457.153,696640.291,1,40,26,
sequence,flow.Sequence,8_25,2023-11-17T15:50:19.430Z,,,,,,,,,,,6364.746999976109,completion,,,,,,,low,low,,,,,,false,,,,,true,696822.1000000238,696821.8999999762,690439.995,690630.1000000238,690457.153,696640.291,1,40,,
trial,html.Screen,8_26_0,2023-11-17T15:50:21.429Z,,,,2,0.0050679133050021,-0.0009714874637896,,0.05,true,hh,2181.3090000238735,response,1.00170887975541,0.9452179498284401,-0.7943658312677309,0.8949188450526304,0.9711812949079379,-0.9042217116725993,high,high,,ISIC_9848743.JPG,,ISIC_0057067.JPG,43,false,0.1,hh,keypress(i),0,true,698821.7000000477,698821.6000000238,696623.889,696822.1000000238,696640.291,698640.287,1,40,27,
sequence,flow.Sequence,8_26,2023-11-17T15:50:21.429Z,,,,,,,,,,,2181.3090000238735,completion,,,,,,,high,high,,,,,,false,,,,,true,698821.8999999762,698821.6000000238,696623.889,696822.1000000238,696640.291,698640.287,1,40,,
trial,html.Screen,8_27_0,2023-11-17T15:50:25.285Z,,,,2,-0.0051189696037511,0.0396625911332438,,0.05,true,hh,4037.112999976147,response,0.9106525024234248,0.8983138624040201,-0.7943658312677309,0.944391889009556,0.9711812949079379,-0.9042217116725993,high,high,,ISIC_9742891.JPG,,ISIC_0058676.JPG,46,false,0.1,hh,keypress(i),0,true,702677.3999999762,702677.3999999762,698623.826,698821.8999999762,698640.287,702506.947,1,40,28,
sequence,flow.Sequence,8_27,2023-11-17T15:50:25.285Z,,,,,,,,,,,4037.112999976147,completion,,,,,,,high,high,,,,,,false,,,,,true,702677.6000000238,702677.3999999762,698623.826,698821.8999999762,698640.287,702506.947,1,40,,
trial,html.Screen,8_28_0,2023-11-17T15:50:28.709Z,,,,2,-0.013431314305098,0.0140597582944232,,0.05,true,hh,3594.9529999761144,response,0.9053396132028096,0.8983138624040201,-0.7943658312677309,0.7935069588038893,0.8775221957164903,-0.9042217116725993,high,high,,ISIC_0069617.JPG,,ISIC_0010729.JPG,42,false,0.1,hh,keypress(i),0,true,706101.8999999762,706101.8999999762,702490.198,702677.6000000238,702506.947,705923.707,1,40,29,
sequence,flow.Sequence,8_28,2023-11-17T15:50:28.709Z,,,,,,,,,,,3594.9529999761144,completion,,,,,,,high,high,,,,,,false,,,,,true,706102.1000000238,706101.8999999762,702490.198,702677.6000000238,702506.947,705923.707,1,40,,
trial,html.Screen,8_29_0,2023-11-17T15:50:31.429Z,,,,2,-0.0112310719058792,0.0469047359904117,,0.05,true,hh,2897.592999952263,response,0.8426512029386741,0.7994232860033494,-0.7943658312677309,0.7924499678897714,0.8775221957164903,-0.9042217116725993,high,high,,ISIC_0068184.JPG,,ISIC_0013636.JPG,54,false,0.1,hh,keypress(i),0,true,708821.5,708821.2999999523,705907.038,706102.1000000238,705923.707,708640.276,1,40,30,
sequence,flow.Sequence,8_29,2023-11-17T15:50:31.429Z,,,,,,,,,,,2897.592999952263,completion,,,,,,,high,high,,,,,,false,,,,,true,708821.5,708821.2999999523,705907.038,706102.1000000238,705923.707,708640.276,1,40,,
trial,html.Screen,8_30_0,2023-11-17T15:50:36.756Z,,,,2,0.0116094682222121,-0.0258434522530318,,0.05,false,ll,5508.523999952362,response,-0.8778348457214913,0.7994232860033494,-0.7943658312677309,-0.8379442136072591,0.7675505854142227,-0.9042217116725993,low,low,,ISIC_9239632.JPG,,ISIC_0013213.JPG,51,false,0.1,hh,keypress(i),0,true,714148.8999999762,714148.7999999523,708623.769,708821.6000000238,708640.276,713973.666,1,40,31,
sequence,flow.Sequence,8_30,2023-11-17T15:50:36.756Z,,,,,,,,,,,5508.523999952362,completion,,,,,,,low,low,,,,,,false,,,,,true,714149.1000000238,714148.7999999523,708623.769,708821.5,708640.276,713973.666,1,40,,
trial,html.Screen,8_31_0,2023-11-17T15:50:43.413Z,,,,2,-0.0134764727102299,-0.0033499036460912,,0.05,true,ll,6832.133999952348,response,-0.7543493127539531,0.7994232860033494,-0.8443658312677309,-0.9452304370934528,0.7675505854142227,-0.9542217116725994,low,low,,ISIC_0009998.JPG,,ISIC_0029017.JPG,37,false,0.1,ll,keypress(f),0,true,720805.8999999762,720805.7999999523,713957.066,714149.1000000238,713973.666,720623.6,1,40,32,
sequence,flow.Sequence,8_31,2023-11-17T15:50:43.413Z,,,,,,,,,,,6832.133999952348,completion,,,,,,,low,low,,,,,,false,,,,,true,720806.1000000238,720805.7999999523,713957.066,714149.1000000238,713973.666,720623.6,1,40,,
trial,html.Screen,8_32_0,2023-11-17T15:50:52.853Z,,,,2,-0.0102460616775615,0.0309670599545429,,0.05,false,lh,9622.000000023865,response,-0.8179805381029407,0.7994232860033494,-0.8443658312677309,0.8578467162767749,0.7675505854142227,-0.9542217116725994,low,high,,ISIC_0072041.JPG,,ISIC_0067253.JPG,27,false,0.13,hl,keypress(j),0,true,730245.7000000477,730245.6000000238,720606.735,720806.1000000238,720623.6,730073.669,1,40,33,
sequence,flow.Sequence,8_32,2023-11-17T15:50:52.853Z,,,,,,,,,,,9622.000000023865,completion,,,,,,,low,high,,,,,,false,,,,,true,730245.7999999523,730245.6000000238,720606.735,720806.1000000238,720623.6,730073.669,1,40,,
trial,html.Screen,8_33_0,2023-11-17T15:50:56.581Z,,,,2,-0.0188047466661863,0.0288346930436979,,0.05,true,ll,3900.130999952322,response,-0.7977113275495125,0.7994232860033494,-0.894365831267731,-0.923711824877252,0.8175505854142228,-0.9542217116725994,low,low,,ISIC_0014157.JPG,,ISIC_1023354.JPG,35,false,0.1,ll,keypress(f),0,true,733973.8999999762,733973.7999999523,730056.797,730245.8999999762,730073.669,733807.179,1,40,34,
sequence,flow.Sequence,8_33,2023-11-17T15:50:56.581Z,,,,,,,,,,,3900.130999952322,completion,,,,,,,low,low,,,,,,false,,,,,true,733974,733973.7999999523,730056.797,730245.8999999762,730073.669,733807.179,1,40,,
trial,html.Screen,8_34_0,2023-11-17T15:50:59.349Z,,,,2,0.0456515796420274,-0.0273567130070961,,0.05,false,lh,2934.6209999523126,response,-0.8579451262594331,0.7994232860033494,-0.894365831267731,0.9633172970727744,0.8175505854142228,-0.8107115762133822,low,high,,ISIC_0068610.JPG,,ISIC_0067172.JPG,28,false,0.15000000000000002,ll,keypress(f),0,true,736741.7999999523,736741.7999999523,733773.929,733974,733807.179,736573.718,1,40,35,
sequence,flow.Sequence,8_34,2023-11-17T15:50:59.349Z,,,,,,,,,,,2934.6209999523126,completion,,,,,,,low,high,,,,,,false,,,,,true,736741.8999999762,736741.7999999523,733773.929,733974,733807.179,736573.718,1,40,,
trial,html.Screen,8_35_0,2023-11-17T15:51:05.333Z,,,,2,0.0070725527271049,0.0049995141077508,,0.05,true,ll,6152.081999952323,response,-0.7848009721557384,0.7994232860033494,-0.7778282269044727,-0.750809298734252,0.8675505854142228,-0.8107115762133822,low,low,,ISIC_6124481.JPG,,ISIC_9648812.JPG,58,false,0.1,ll,keypress(f),0,true,742726,742725.7999999523,736557.295,736742,736573.718,742557.085,1,40,36,
sequence,flow.Sequence,8_35,2023-11-17T15:51:05.333Z,,,,,,,,,,,6152.081999952323,completion,,,,,,,low,low,,,,,,false,,,,,true,742726.1000000238,742725.7999999523,736557.295,736742,736573.718,742557.085,1,40,,
trial,html.Screen,8_36_0,2023-11-17T15:51:14.117Z,,,,2,-0.0245376145053177,0.0436993426328401,,0.05,false,hl,8952.415000000037,response,0.887838744955182,0.7994232860033494,-0.7778282269044727,-0.7545096650863988,0.8675505854142228,-0.8107115762133822,high,low,,ISIC_0056444.JPG,,ISIC_1488727.JPG,28,false,0.13,lh,keypress(e),0,true,751509.6000000238,751509.5,742540.085,742726.1000000238,742557.085,751340.315,1,40,37,
sequence,flow.Sequence,8_36,2023-11-17T15:51:14.117Z,,,,,,,,,,,8952.415000000037,completion,,,,,,,high,low,,,,,,false,,,,,true,751509.7000000477,751509.5,742540.085,742726.1000000238,742557.085,751340.315,1,40,,
trial,html.Screen,8_37_0,2023-11-17T15:51:19.701Z,,,,2,0.039728379742806,-0.0228701131373768,,0.05,false,hl,5753.484999952372,response,0.9388660854518424,0.8494232860033495,-0.7778282269044727,-0.79533948698576,0.8675505854142228,-0.8607115762133822,high,low,,ISIC_0054073.JPG,,ISIC_9291926.JPG,27,false,0.15000000000000002,ll,keypress(f),0,true,757093.8999999762,757093.7999999523,751323.268,751509.7000000477,751340.315,756923.663,1,40,38,
sequence,flow.Sequence,8_37,2023-11-17T15:51:19.702Z,,,,,,,,,,,5753.484999952372,completion,,,,,,,high,low,,,,,,false,,,,,true,757093.8999999762,757093.7999999523,751323.268,751509.7000000477,751340.315,756923.663,1,40,,
trial,html.Screen,8_38_0,2023-11-17T15:51:27.157Z,,,,2,0.0450282431170921,,,0.05,true,lh,7625.636999952374,response,-0.7401156491866404,0.8994232860033495,-0.7778282269044727,0.94165594025755,0.8675505854142228,-0.8607115762133822,low,high,,ISIC_1805163.JPG,,ISIC_0072429.JPG,27,false,0.13,lh,keypress(e),0,true,764549.2999999523,764549.2999999523,756906.983,757094,756923.663,764373.559,1,40,39,
sequence,flow.Sequence,8_38,2023-11-17T15:51:27.157Z,,,,,,,,,,,7625.636999952374,completion,,,,,,,low,high,,,,,,false,,,,,true,764549.3999999762,764549.2999999523,756906.983,757094,756923.663,764373.559,1,40,,
trial,html.Screen,8_39_0,2023-11-17T15:51:32.326Z,,,,2,-0.0112310719058792,0.0469047359904117,,0.05,false,lh,5344.440999999992,response,-0.741457422468111,0.8994232860033495,-0.7278282269044727,0.7988724407180966,0.8675505854142228,-0.8607115762133822,low,high,,ISIC_0068184.JPG,,ISIC_0064936.JPG,25,false,0.12,ll,keypress(f),0,true,769718,769718,764356.817,764549.3999999762,764373.559,769540.219,1,40,40,
sequence,flow.Sequence,8_39,2023-11-17T15:51:32.326Z,,,,,,,,,,,5344.440999999992,completion,,,,,,,low,high,,,,,,false,,,,,true,769718.1000000238,769718,764356.817,764549.3999999762,764373.559,769540.219,1,40,,
stair_loop,flow.Loop,8,2023-11-17T15:51:32.326Z,,,,,,,,,,,233477.50300000003,completion,,,,,,,,,,,,,,false,,,,,true,769718.2999999523,769718,536224.078,536413.1000000238,536240.497,769540.219,1,40,,
exp_instructions,html.Screen,9,2023-11-17T15:51:46.422Z,,,,,,,,,,,14273.180999976117,response,,,,,,,,,,,,,,,,continue,keypress(Space),,,783813.8999999762,783813.3999999762,769523.509,769718.2999999523,769540.219,783640.266,,,,
trial,html.Screen,10_0_0,2023-11-17T15:51:52.647Z,,,,1,0.0363437082783146,0.0333332186217051,,0.05,true,lh,6399.033999952371,response,-0.9644643328174062,0.8703404759821985,-0.8305765779356257,0.745333984830218,0.8700000302419355,-0.9192474470062283,low,high,,ISIC_3314555.JPG,8,ISIC_0058046.JPG,25,false,0.14,lh,keypress(e),0,false,790039.3999999762,790039.2999999523,783623.232,783814,783640.266,789856.845,4,500,1,
break,html.Screen,10_0_1,2023-11-17T15:51:52.647Z,,,,,,,,,,,NaN,,,,,,,,low,high,,,,,,false,,,,,false,790039.7999999523,790039.7000000477,,790039.5,,789856.845,4,500,,
break_continue,html.Screen,10_0_2,2023-11-17T15:51:52.648Z,,,,,,,,,,,NaN,,,,,,,,low,high,,,,,,false,,,,,false,790040.1000000238,790040,,790040,,789856.845,4,500,,
sequence,flow.Sequence,10_0,2023-11-17T15:51:52.648Z,,,,,,,,,,,6399.734000000055,completion,,,,,,,low,high,,,,,,false,,,,,false,790040.1000000238,790040,783623.232,783813.8999999762,783640.266,789856.845,4,500,,
trial,html.Screen,10_1_0,2023-11-17T15:51:57.414Z,,,,1,-0.0112310719058792,0.0469047359904117,,0.05,false,ll,4948.954999952344,response,-0.7422736922357102,0.8703404759821985,-0.8305765779356257,-0.9021253278345898,0.8700000302419355,-0.9192474470062283,low,low,,ISIC_0068184.JPG,9,ISIC_0031582.JPG,41,false,0.1,lh,keypress(e),0,false,794806,794805.7999999523,789840.071,790040.2000000477,789856.845,794623.505,4,500,2,
break,html.Screen,10_1_1,2023-11-17T15:51:57.414Z,,,,,,,,,,,NaN,,,,,,,,low,low,,,,,,false,,,,,false,794806.2000000477,794806.1000000238,,794806.1000000238,,794623.505,4,500,,
break_continue,html.Screen,10_1_2,2023-11-17T15:51:57.414Z,,,,,,,,,,,NaN,,,,,,,,low,low,,,,,,false,,,,,false,794806.5,794806.5,,794806.2999999523,,794623.505,4,500,,
sequence,flow.Sequence,10_1,2023-11-17T15:51:57.414Z,,,,,,,,,,,4949.655000000028,completion,,,,,,,low,low,,,,,,false,,,,,false,794806.5,794806.5,789840.071,790040.2000000477,789856.845,794623.505,4,500,,
trial,html.Screen,10_2_0,2023-11-17T15:52:03.157Z,,,,1,-0.0051189696037511,0.0396625911332438,,0.05,false,lh,5925.8949999761535,response,-0.8487429103619056,0.8703404759821985,-0.8305765779356257,0.9778257804233036,0.8700000302419355,-0.9192474470062283,low,high,,ISIC_9742891.JPG,8,ISIC_4554863.JPG,25,false,0.14,hl,keypress(j),0,false,800549.5,800549.3999999762,794606.707,794806.6000000238,794623.505,800373.523,4,500,3,
break,html.Screen,10_2_1,2023-11-17T15:52:03.157Z,,,,,,,,,,,NaN,,,,,,,,low,high,,,,,,false,,,,,false,800549.7999999523,800549.7999999523,,800549.6000000238,,800373.523,4,500,,
break_continue,html.Screen,10_2_2,2023-11-17T15:52:03.158Z,,,,,,,,,,,NaN,,,,,,,,low,high,,,,,,false,,,,,false,800550.1000000238,800550,,800549.8999999762,,800373.523,4,500,,
sequence,flow.Sequence,10_2,2023-11-17T15:52:03.158Z,,,,,,,,,,,5926.494999999995,completion,,,,,,,low,high,,,,,,false,,,,,false,800550.1000000238,800550,794606.707,794806.6000000238,794623.505,800373.523,4,500,,
trial,html.Screen,10_3_0,2023-11-17T15:52:07.349Z,,,,1,-0.0348234368746005,0.0236866303880924,,0.05,false,hh,4368.177000047639,response,0.8068224817535752,0.8703404759821985,-0.8305765779356257,0.8996141262602615,0.8700000302419355,-0.9192474470062283,high,high,,ISIC_0011099.JPG,9,ISIC_0059601.JPG,49,false,0.1,hl,keypress(j),0,false,804741.7999999523,804741.7000000477,800357.074,800550.2000000477,800373.523,804573.692,4,500,4,
break,html.Screen,10_3_1,2023-11-17T15:52:07.350Z,,,,,,,,,,,NaN,,,,,,,,high,high,,,,,,false,,,,,false,804742.2000000477,804742.1000000238,,804742,,804573.692,4,500,,
break_continue,html.Screen,10_3_2,2023-11-17T15:52:07.350Z,,,,,,,,,,,NaN,,,,,,,,high,high,,,,,,false,,,,,false,804742.3999999762,804742.2999999523,,804742.2000000477,,804573.692,4,500,,
sequence,flow.Sequence,10_3,2023-11-17T15:52:07.350Z,,,,,,,,,,,4368.776999952272,completion,,,,,,,high,high,,,,,,false,,,,,false,804742.3999999762,804742.2999999523,800357.074,800550.2000000477,800373.523,804573.692,4,500,,
trial,html.Screen,10_4_0,2023-11-17T15:52:11.925Z,,,,1,-0.0097091270150747,0.0417921315885292,,0.05,true,hh,4744.107999952277,response,0.7951907368136324,0.8703404759821985,-0.8305765779356257,0.8943547811786065,0.8700000302419355,-0.9192474470062283,high,high,,ISIC_3967213.JPG,9,ISIC_0071771.JPG,49,false,0.1,hh,keypress(i),0,false,809317.8999999762,809317.7999999523,804557.065,804742.3999999762,804573.692,809140.223,4,500,5,
break,html.Screen,10_4_1,2023-11-17T15:52:11.926Z,,,,,,,,,,,NaN,,,,,,,,high,high,,,,,,false,,,,,false,809318.1000000238,809318.1000000238,,809318,,809140.223,4,500,,
break_continue,html.Screen,10_4_2,2023-11-17T15:52:11.926Z,,,,,,,,,,,NaN,,,,,,,,high,high,,,,,,false,,,,,false,809318.3999999762,809318.2999999523,,809318.2999999523,,809140.223,4,500,,
sequence,flow.Sequence,10_4,2023-11-17T15:52:11.926Z,,,,,,,,,,,4744.607999952277,completion,,,,,,,high,high,,,,,,false,,,,,false,809318.3999999762,809318.2999999523,804557.065,804742.3999999762,804573.692,809140.223,4,500,,
trial,html.Screen,10_5_0,2023-11-17T15:52:20.198Z,,,,1,-0.0102460616775615,0.0309670599545429,,0.05,false,ll,8449.576999952318,response,-0.7977113275495125,0.8703404759821985,-0.8305765779356257,-0.923711824877252,0.8700000302419355,-0.9192474470062283,low,low,,ISIC_0072041.JPG,9,ISIC_1023354.JPG,41,false,0.1,lh,keypress(e),0,false,817589.8999999762,817589.7999999523,809123.361,809318.3999999762,809140.223,817424.002,4,500,6,
break,html.Screen,10_5_1,2023-11-17T15:52:20.198Z,,,,,,,,,,,NaN,,,,,,,,low,low,,,,,,false,,,,,false,817590.2999999523,817590.1000000238,,817590,,817424.002,4,500,,
break_continue,html.Screen,10_5_2,2023-11-17T15:52:20.198Z,,,,,,,,,,,NaN,,,,,,,,low,low,,,,,,false,,,,,false,817590.3999999762,817590.3999999762,,817590.2999999523,,817424.002,4,500,,
sequence,flow.Sequence,10_5,2023-11-17T15:52:20.198Z,,,,,,,,,,,8450.17699997616,completion,,,,,,,low,low,,,,,,false,,,,,false,817590.6000000238,817590.3999999762,809123.361,809318.3999999762,809140.223,817424.002,4,500,,
trial,html.Screen,10_6_0,2023-11-17T15:52:22.502Z,,,,1,0.0389988030702649,0.0143212271490256,,0.05,false,lh,2469.5980000238633,response,-0.7401156491866404,0.8703404759821985,-0.8305765779356257,0.94165594025755,0.8700000302419355,-0.9192474470062283,low,high,,ISIC_0064669.JPG,10,ISIC_0072429.JPG,25,false,0.14,ll,keypress(f),0,false,819893.7999999523,819893.6000000238,817390.304,817590.6000000238,817424.002,819723.747,4,500,7,
break,html.Screen,10_6_1,2023-11-17T15:52:22.502Z,,,,,,,,,,,NaN,,,,,,,,low,high,,,,,,false,,,,,false,819894.1000000238,819894,,819893.8999999762,,819723.747,4,500,,
break_continue,html.Screen,10_6_2,2023-11-17T15:52:22.502Z,,,,,,,,,,,NaN,,,,,,,,low,high,,,,,,false,,,,,false,819894.2999999523,819894.2000000477,,819894.2000000477,,819723.747,4,500,,
sequence,flow.Sequence,10_6,2023-11-17T15:52:22.502Z,,,,,,,,,,,2470.198000047705,completion,,,,,,,low,high,,,,,,false,,,,,false,819894.3999999762,819894.2000000477,817390.304,817590.6000000238,817424.002,819723.747,4,500,,
trial,html.Screen,10_7_0,2023-11-17T15:52:27.317Z,,,,1,-0.0409338693593207,0.0072462710499874,,0.05,false,lh,4985.652999976184,response,-0.7306047092126615,0.8703404759821985,-0.8305765779356257,0.9725548307155644,0.8700000302419355,-0.9192474470062283,low,high,,ISIC_3608788.JPG,9,ISIC_0065469.JPG,25,false,0.14,ll,keypress(f),0,false,824709.3999999762,824709.3999999762,819706.768,819894.3999999762,819723.747,824540.357,4,500,8,
break,html.Screen,10_7_1,2023-11-17T15:52:27.317Z,,,,,,,,,,,NaN,,,,,,,,low,high,,,,,,false,,,,,false,824709.7000000477,824709.7000000477,,824709.6000000238,,824540.357,4,500,,
break_continue,html.Screen,10_7_2,2023-11-17T15:52:27.318Z,,,,,,,,,,,NaN,,,,,,,,low,high,,,,,,false,,,,,false,824710,824709.7999999523,,824709.7999999523,,824540.357,4,500,,
sequence,flow.Sequence,10_7,2023-11-17T15:52:27.318Z,,,,,,,,,,,4986.052999952342,completion,,,,,,,low,high,,,,,,false,,,,,false,824710,824709.7999999523,819706.768,819894.3999999762,819723.747,824540.357,4,500,,
trial,html.Screen,10_8_0,2023-11-17T15:52:30.645Z,,,,1,0.0057914759495055,0.0074667911845194,,0.05,false,ll,3496.8430000477238,response,-0.7798182602765784,0.8703404759821985,-0.8305765779356257,-0.8643036808931337,0.8700000302419355,-0.9192474470062283,low,low,,ISIC_0058723.JPG,10,ISIC_6703027.JPG,41,false,0.1,lh,keypress(e),0,false,828037.2999999523,828037.2000000477,824523.515,824710,824540.357,827856.804,4,500,9,
break,html.Screen,10_8_1,2023-11-17T15:52:30.645Z,,,,,,,,,,,NaN,,,,,,,,low,low,,,,,,false,,,,,false,828037.6000000238,828037.6000000238,,828037.3999999762,,827856.804,4,500,,
break_continue,html.Screen,10_8_2,2023-11-17T15:52:30.646Z,,,,,,,,,,,NaN,,,,,,,,low,low,,,,,,false,,,,,false,828037.8999999762,828037.7999999523,,828037.7000000477,,827856.804,4,500,,
sequence,flow.Sequence,10_8,2023-11-17T15:52:30.646Z,,,,,,,,,,,3497.4429999523563,completion,,,,,,,low,low,,,,,,false,,,,,false,828037.8999999762,828037.7999999523,824523.515,824710,824540.357,827856.804,4,500,,
trial,html.Screen,10_9_0,2023-11-17T15:52:35.925Z,,,,1,0.0329095507339554,-0.0382899749693245,,0.05,true,hh,5460.595999976154,response,0.7942487684199633,0.8703404759821985,-0.8305765779356257,0.7711092153701026,0.8700000302419355,-0.9192474470062283,high,high,,ISIC_8812781.JPG,10,ISIC_3810274.JPG,49,false,0.1,hh,keypress(i),0,false,833317.6000000238,833317.3999999762,827840.297,828038,827856.804,833140.227,4,500,10,
break,html.Screen,10_9_1,2023-11-17T15:52:35.926Z,,,,,,,,,,,NaN,,,,,,,,high,high,,,,,,false,,,,,false,833317.8999999762,833317.7999999523,,833317.7000000477,,833140.227,4,500,,
break_continue,html.Screen,10_9_2,2023-11-17T15:52:35.926Z,,,,,,,,,,,NaN,,,,,,,,high,high,,,,,,false,,,,,false,833318.2000000477,833318,,833317.8999999762,,833140.227,4,500,,
sequence,flow.Sequence,10_9,2023-11-17T15:52:35.926Z,,,,,,,,,,,5461.195999999996,completion,,,,,,,high,high,,,,,,false,,,,,false,833318.2999999523,833318,827840.297,828038,827856.804,833140.227,4,500,,
trial,html.Screen,10_10_0,2023-11-17T15:52:45.365Z,,,,1,0.0050679133050021,-0.0009714874637896,,0.05,false,hh,9617.473000047728,response,0.8691120116185356,0.8703404759821985,-0.8305765779356257,0.7932562349979263,0.8700000302419355,-0.9192474470062283,high,high,,ISIC_9848743.JPG,9,ISIC_0031350.JPG,49,false,0.1,lh,keypress(e),0,false,842757.7000000477,842757.7000000477,833123.816,833318.2999999523,833140.227,842590.391,4,500,11,
break,html.Screen,10_10_1,2023-11-17T15:52:45.366Z,,,,,,,,,,,NaN,,,,,,,,high,high,,,,,,false,,,,,false,842758,842758,,842757.7999999523,,842590.391,4,500,,
break_continue,html.Screen,10_10_2,2023-11-17T15:52:45.366Z,,,,,,,,,,,NaN,,,,,,,,high,high,,,,,,false,,,,,false,842758.2999999523,842758.1000000238,,842758.1000000238,,842590.391,4,500,,
sequence,flow.Sequence,10_10,2023-11-17T15:52:45.366Z,,,,,,,,,,,9617.873000023887,completion,,,,,,,high,high,,,,,,false,,,,,false,842758.2999999523,842758.1000000238,833123.816,833318.2999999523,833140.227,842590.391,4,500,,
trial,html.Screen,10_11_0,2023-11-17T15:52:50.021Z,,,,1,0.0057914759495055,0.0074667911845194,,0.05,false,hl,4823.109000000055,response,1.0115965332688306,0.8703404759821985,-0.8305765779356257,-0.8282633603842442,0.8700000302419355,-0.9192474470062283,high,low,,ISIC_0058723.JPG,9,ISIC_1069587.JPG,26,false,0.16000000000000003,lh,keypress(e),0,false,847413.6000000238,847413.5,842573.537,842758.3999999762,842590.391,847240.227,4,500,12,
break,html.Screen,10_11_1,2023-11-17T15:52:50.022Z,,,,,,,,,,,NaN,,,,,,,,high,low,,,,,,false,,,,,false,847413.8999999762,847413.8999999762,,847413.6000000238,,847240.227,4,500,,
break_continue,html.Screen,10_11_2,2023-11-17T15:52:50.022Z,,,,,,,,,,,NaN,,,,,,,,high,low,,,,,,false,,,,,false,847414.1000000238,847414,,847414,,847240.227,4,500,,
sequence,flow.Sequence,10_11,2023-11-17T15:52:50.022Z,,,,,,,,,,,4823.609000000055,completion,,,,,,,high,low,,,,,,false,,,,,false,847414.2000000477,847414,842573.537,842758.3999999762,842590.391,847240.227,4,500,,
trial,html.Screen,10_12_0,2023-11-17T15:52:55.941Z,,,,1,-0.0245376145053177,0.0436993426328401,,0.05,true,ll,6093.473000047728,response,-0.8399241413841876,0.8703404759821985,-0.8305765779356257,-0.9343381610425818,0.8700000302419355,-0.9192474470062283,low,low,,ISIC_0056444.JPG,9,ISIC_9203914.JPG,41,false,0.1,ll,keypress(f),0,false,853333.7999999523,853333.7000000477,847223.577,847414.2000000477,847240.227,853156.775,4,500,13,
break,html.Screen,10_12_1,2023-11-17T15:52:55.942Z,,,,,,,,,,,NaN,,,,,,,,low,low,,,,,,false,,,,,false,853334.1000000238,853334.1000000238,,853333.8999999762,,853156.775,4,500,,
break_continue,html.Screen,10_12_2,2023-11-17T15:52:55.942Z,,,,,,,,,,,NaN,,,,,,,,low,low,,,,,,false,,,,,false,853334.3999999762,853334.3999999762,,853334.2999999523,,853156.775,4,500,,
sequence,flow.Sequence,10_12,2023-11-17T15:52:55.942Z,,,,,,,,,,,6094.172999976203,completion,,,,,,,low,low,,,,,,false,,,,,false,853334.5,853334.3999999762,847223.577,847414.2000000477,847240.227,853156.775,4,500,,
trial,html.Screen,10_13_0,2023-11-17T15:53:03.814Z,,,,1,-0.013431314305098,0.0140597582944232,,0.05,true,hl,8049.124999976135,response,1.0022829373011404,0.8703404759821985,-0.8305765779356257,-0.8311726972863814,0.8700000302419355,-0.9192474470062283,high,low,,ISIC_0069617.JPG,9,ISIC_0033287.JPG,26,false,0.16000000000000003,hl,keypress(j),0,false,861206.1000000238,861205.8999999762,853140.344,853334.5,853156.775,861023.43,4,500,14,
break,html.Screen,10_13_1,2023-11-17T15:53:03.814Z,,,,,,,,,,,NaN,,,,,,,,high,low,,,,,,false,,,,,false,861206.2999999523,861206.2000000477,,861206.1000000238,,861023.43,4,500,,
break_continue,html.Screen,10_13_2,2023-11-17T15:53:03.814Z,,,,,,,,,,,NaN,,,,,,,,high,low,,,,,,false,,,,,false,861206.5,861206.3999999762,,861206.2999999523,,861023.43,4,500,,
sequence,flow.Sequence,10_13,2023-11-17T15:53:03.814Z,,,,,,,,,,,8049.624999976135,completion,,,,,,,high,low,,,,,,false,,,,,false,861206.5,861206.3999999762,853140.344,853334.5,853156.775,861023.43,4,500,,
trial,html.Screen,10_14_0,2023-11-17T15:53:09.110Z,,,,1,0.007397293189458,0.0174716772037504,,0.05,true,lh,5478.2700000476325,response,-0.8979276789594874,0.8703404759821985,-0.8305765779356257,0.925374811016654,0.8700000302419355,-0.9192474470062283,low,high,,ISIC_0056226.JPG,8,ISIC_4208361.JPG,25,false,0.14,lh,keypress(e),0,false,866501.7999999523,866501.7000000477,861006.884,861206.6000000238,861023.43,866323.446,4,500,15,
break,html.Screen,10_14_1,2023-11-17T15:53:09.110Z,,,,,,,,,,,NaN,,,,,,,,low,high,,,,,,false,,,,,false,866502.2000000477,866502.1000000238,,866501.8999999762,,866323.446,4,500,,
break_continue,html.Screen,10_14_2,2023-11-17T15:53:09.110Z,,,,,,,,,,,NaN,,,,,,,,low,high,,,,,,false,,,,,false,866502.3999999762,866502.2999999523,,866502.2000000477,,866323.446,4,500,,
sequence,flow.Sequence,10_14,2023-11-17T15:53:09.110Z,,,,,,,,,,,5478.869999952265,completion,,,,,,,low,high,,,,,,false,,,,,false,866502.3999999762,866502.2999999523,861006.884,861206.6000000238,861023.43,866323.446,4,500,,
trial,html.Screen,10_15_0,2023-11-17T15:53:14.566Z,,,,1,-0.0051189696037511,0.0396625911332438,,0.05,false,ll,5634.254000047687,response,-0.8626849314423831,0.8703404759821985,-0.8305765779356257,-0.8919402924145458,0.8700000302419355,-0.9192474470062283,low,low,,ISIC_9742891.JPG,9,ISIC_0026371.JPG,41,false,0.1,hl,keypress(j),0,false,871957.7999999523,871957.7000000477,866307.085,866502.3999999762,866323.446,871790.359,4,500,16,
break,html.Screen,10_15_1,2023-11-17T15:53:14.566Z,,,,,,,,,,,NaN,,,,,,,,low,low,,,,,,false,,,,,false,871958.2000000477,871958.1000000238,,871957.8999999762,,871790.359,4,500,,
break_continue,html.Screen,10_15_2,2023-11-17T15:53:14.566Z,,,,,,,,,,,NaN,,,,,,,,low,low,,,,,,false,,,,,false,871958.2999999523,871958.2999999523,,871958.2000000477,,871790.359,4,500,,
sequence,flow.Sequence,10_15,2023-11-17T15:53:14.566Z,,,,,,,,,,,5634.85399995232,completion,,,,,,,low,low,,,,,,false,,,,,false,871958.3999999762,871958.2999999523,866307.085,866502.3999999762,866323.446,871790.359,4,500,,
trial,html.Screen,10_16_0,2023-11-17T15:53:18.870Z,,,,1,0.0217698886732706,-0.0410870915161425,,0.05,false,hl,4471.341000047629,response,0.809764442462202,0.8703404759821985,-0.8305765779356257,-1.005337148078696,0.8700000302419355,-0.9192474470062283,high,low,,ISIC_0072173.JPG,8,ISIC_2379379.JPG,26,false,0.16000000000000003,ll,keypress(f),0,false,876261.7999999523,876261.7000000477,871773.643,871958.3999999762,871790.359,876090.278,4,500,17,
break,html.Screen,10_16_1,2023-11-17T15:53:18.870Z,,,,,,,,,,,NaN,,,,,,,,high,low,,,,,,false,,,,,false,876262.1000000238,876262,,876261.7999999523,,876090.278,4,500,,
break_continue,html.Screen,10_16_2,2023-11-17T15:53:18.870Z,,,,,,,,,,,NaN,,,,,,,,high,low,,,,,,false,,,,,false,876262.2999999523,876262.2000000477,,876262.2000000477,,876090.278,4,500,,
sequence,flow.Sequence,10_16,2023-11-17T15:53:18.870Z,,,,,,,,,,,4471.841000047629,completion,,,,,,,high,low,,,,,,false,,,,,false,876262.2999999523,876262.2000000477,871773.643,871958.3999999762,871790.359,876090.278,4,500,,
trial,html.Screen,10_17_0,2023-11-17T15:53:23.686Z,,,,1,0.0050679133050021,-0.0009714874637896,,0.05,true,lh,4987.521999952267,response,-0.9644643328174062,0.8703404759821985,-0.8305765779356257,0.745333984830218,0.8700000302419355,-0.9192474470062283,low,high,,ISIC_9848743.JPG,9,ISIC_0058046.JPG,25,false,0.14,lh,keypress(e),0,false,881077.7999999523,881077.7999999523,876073.854,876262.3999999762,876090.278,880907.188,4,500,18,
break,html.Screen,10_17_1,2023-11-17T15:53:23.686Z,,,,,,,,,,,NaN,,,,,,,,low,high,,,,,,false,,,,,false,881078.1000000238,881078.1000000238,,881077.8999999762,,880907.188,4,500,,
break_continue,html.Screen,10_17_2,2023-11-17T15:53:23.686Z,,,,,,,,,,,NaN,,,,,,,,low,high,,,,,,false,,,,,false,881078.3999999762,881078.2999999523,,881078.2999999523,,880907.188,4,500,,
sequence,flow.Sequence,10_17,2023-11-17T15:53:23.686Z,,,,,,,,,,,4988.021999952267,completion,,,,,,,low,high,,,,,,false,,,,,false,881078.3999999762,881078.2999999523,876073.854,876262.3999999762,876090.278,880907.188,4,500,,
trial,html.Screen,10_18_0,2023-11-17T15:53:26.549Z,,,,1,-0.0097091270150747,0.0417921315885292,,0.05,false,hl,3034.2119999761926,response,0.8816288864119318,0.8703404759821985,-0.8305765779356257,-0.801867301188093,0.8700000302419355,-0.9192474470062283,high,low,,ISIC_3967213.JPG,9,ISIC_9196783.JPG,26,false,0.16000000000000003,hh,keypress(i),0,false,883941.5,883941.3999999762,880889.958,881078.5,880907.188,883773.433,4,500,19,
break,html.Screen,10_18_1,2023-11-17T15:53:26.550Z,,,,,,,,,,,NaN,,,,,,,,high,low,,,,,,false,,,,,false,883941.8999999762,883941.7999999523,,883941.7000000477,,883773.433,4,500,,
break_continue,html.Screen,10_18_2,2023-11-17T15:53:26.550Z,,,,,,,,,,,NaN,,,,,,,,high,low,,,,,,false,,,,,false,883942.1000000238,883942,,883941.8999999762,,883773.433,4,500,,
sequence,flow.Sequence,10_18,2023-11-17T15:53:26.550Z,,,,,,,,,,,3034.8120000000345,completion,,,,,,,high,low,,,,,,false,,,,,false,883942.1000000238,883942,880889.958,881078.5,880907.188,883773.433,4,500,,
trial,html.Screen,10_19_0,2023-11-17T15:53:32.470Z,,,,1,0.0363437082783146,0.0333332186217051,,0.05,true,hl,6088.167000023881,response,0.7638895244791114,0.8703404759821985,-0.8305765779356257,-0.7780412100090998,0.8700000302419355,-0.9192474470062283,high,low,,ISIC_3314555.JPG,9,ISIC_0026516.JPG,26,false,0.16000000000000003,hl,keypress(j),0,false,889861.7000000477,889861.6000000238,883756.742,883942.1000000238,883773.433,889690.24,4,500,20,
break,html.Screen,10_19_1,2023-11-17T15:53:32.470Z,,,,,,,,,,,NaN,,,,,,,,high,low,,,,,,false,,,,,false,889862,889861.8999999762,,889861.8999999762,,889690.24,4,500,,
break_continue,html.Screen,10_19_2,2023-11-17T15:53:32.470Z,,,,,,,,,,,NaN,,,,,,,,high,low,,,,,,false,,,,,false,889862.2000000477,889862.1000000238,,889862.1000000238,,889690.24,4,500,,
sequence,flow.Sequence,10_19,2023-11-17T15:53:32.470Z,,,,,,,,,,,6088.667000023881,completion,,,,,,,high,low,,,,,,false,,,,,false,889862.2999999523,889862.1000000238,883756.742,883942.1000000238,883773.433,889690.24,4,500,,
trial,html.Screen,10_20_0,2023-11-17T15:53:39.286Z,,,,1,0.0456515796420274,-0.0273567130070961,,0.05,false,lh,6987.460000047693,response,-0.9454713230140772,0.8703404759821985,-0.8305765779356257,0.9245167441969216,0.8700000302419355,-0.9192474470062283,low,high,,ISIC_0068610.JPG,9,ISIC_9101055.JPG,25,false,0.14,hl,keypress(j),0,false,896677.7000000477,896677.7000000477,889673.424,889862.2999999523,889690.24,896506.843,4,500,21,
break,html.Screen,10_20_1,2023-11-17T15:53:39.286Z,,,,,,,,,,,NaN,,,,,,,,low,high,,,,,,false,,,,,false,896678.1000000238,896678,,896677.7999999523,,896506.843,4,500,,
break_continue,html.Screen,10_20_2,2023-11-17T15:53:39.286Z,,,,,,,,,,,NaN,,,,,,,,low,high,,,,,,false,,,,,false,896678.2999999523,896678.2000000477,,896678.2000000477,,896506.843,4,500,,
sequence,flow.Sequence,10_20,2023-11-17T15:53:39.286Z,,,,,,,,,,,6987.960000047693,completion,,,,,,,low,high,,,,,,false,,,,,false,896678.3999999762,896678.2000000477,889673.424,889862.2999999523,889690.24,896506.843,4,500,,
trial,html.Screen,10_21_0,2023-11-17T15:53:49.846Z,,,,1,0.0027483411352856,0.0100996915276271,,0.05,false,hl,10730.85700004769,response,0.8623414234919863,0.8703404759821985,-0.8305765779356257,-0.782830143980698,0.8700000302419355,-0.9192474470062283,high,low,,ISIC_7364041.JPG,8,ISIC_2727016.JPG,26,false,0.16000000000000003,hh,keypress(i),0,false,907237.7999999523,907237.7000000477,896490.386,896678.3999999762,896506.843,907056.707,4,500,22,
break,html.Screen,10_21_1,2023-11-17T15:53:49.846Z,,,,,,,,,,,NaN,,,,,,,,high,low,,,,,,false,,,,,false,907238.1000000238,907238,,907237.8999999762,,907056.707,4,500,,
break_continue,html.Screen,10_21_2,2023-11-17T15:53:49.846Z,,,,,,,,,,,NaN,,,,,,,,high,low,,,,,,false,,,,,false,907238.2999999523,907238.2000000477,,907238.1000000238,,907056.707,4,500,,
sequence,flow.Sequence,10_21,2023-11-17T15:53:49.846Z,,,,,,,,,,,10731.35700004769,completion,,,,,,,high,low,,,,,,false,,,,,false,907238.3999999762,907238.2000000477,896490.386,896678.3999999762,896506.843,907056.707,4,500,,
trial,html.Screen,10_22_0,2023-11-17T15:53:54.021Z,,,,1,0.0107854985447517,0.0478010417136109,,0.05,false,lh,4356.792999999947,response,-0.7784583866003763,0.8703404759821985,-0.8305765779356257,0.9641514808986528,0.8700000302419355,-0.9192474470062283,low,high,,ISIC_0010500.JPG,9,ISIC_0011924.JPG,25,false,0.14,ll,keypress(f),0,false,911413.6000000238,911413.5,907040.055,907238.3999999762,907056.707,911240.102,4,500,23,
break,html.Screen,10_22_1,2023-11-17T15:53:54.022Z,,,,,,,,,,,NaN,,,,,,,,low,high,,,,,,false,,,,,false,911413.8999999762,911413.8999999762,,911413.7000000477,,911240.102,4,500,,
break_continue,html.Screen,10_22_2,2023-11-17T15:53:54.022Z,,,,,,,,,,,NaN,,,,,,,,low,high,,,,,,false,,,,,false,911414.2000000477,911414.1000000238,,911414,,911240.102,4,500,,
sequence,flow.Sequence,10_22,2023-11-17T15:53:54.022Z,,,,,,,,,,,4357.393000023789,completion,,,,,,,low,high,,,,,,false,,,,,false,911414.2000000477,911414.1000000238,907040.055,907238.3999999762,907056.707,911240.102,4,500,,
trial,html.Screen,10_23_0,2023-11-17T15:54:00.454Z,,,,1,-0.0245376145053177,0.0436993426328401,,0.05,false,ll,6605.598000047728,response,-0.8513702094329779,0.8703404759821985,-0.8305765779356257,-0.8646686295881743,0.8700000302419355,-0.9192474470062283,low,low,,ISIC_0056444.JPG,9,ISIC_1881133.JPG,41,false,0.1,lh,keypress(e),0,false,917845.7000000477,917845.7000000477,911223.696,911414.2999999523,911240.102,917673.523,4,500,24,
break,html.Screen,10_23_1,2023-11-17T15:54:00.454Z,,,,,,,,,,,NaN,,,,,,,,low,low,,,,,,false,,,,,false,917846.2000000477,917846.1000000238,,917845.8999999762,,917673.523,4,500,,
break_continue,html.Screen,10_23_2,2023-11-17T15:54:00.454Z,,,,,,,,,,,NaN,,,,,,,,low,low,,,,,,false,,,,,false,917846.2999999523,917846.2999999523,,917846.2000000477,,917673.523,4,500,,
sequence,flow.Sequence,10_23,2023-11-17T15:54:00.454Z,,,,,,,,,,,6606.197999952361,completion,,,,,,,low,low,,,,,,false,,,,,false,917846.3999999762,917846.2999999523,911223.696,911414.2999999523,911240.102,917673.523,4,500,,
trial,html.Screen,10_24_0,2023-11-17T15:54:06.645Z,,,,1,-0.0097091270150747,0.0417921315885292,,0.05,true,lh,6363.976999999955,response,-0.6956738789487171,0.8703404759821985,-0.8305765779356257,0.9798803024739164,0.8700000302419355,-0.9192474470062283,low,high,,ISIC_3967213.JPG,8,ISIC_0046340.JPG,25,false,0.14,lh,keypress(e),0,false,924037.7000000477,924037.5,917656.924,917846.5,917673.523,923856.687,4,500,25,
break,html.Screen,10_24_1,2023-11-17T15:54:06.646Z,,,,,,,,,,,NaN,,,,,,,,low,high,,,,,,false,,,,,false,924037.8999999762,924037.8999999762,,924037.7999999523,,923856.687,4,500,,
break_continue,html.Screen,10_24_2,2023-11-17T15:54:06.646Z,,,,,,,,,,,NaN,,,,,,,,low,high,,,,,,false,,,,,false,924038.1000000238,924038.1000000238,,924038,,923856.687,4,500,,
sequence,flow.Sequence,10_24,2023-11-17T15:54:06.646Z,,,,,,,,,,,6364.577000023797,completion,,,,,,,low,high,,,,,,false,,,,,false,924038.2000000477,924038.1000000238,917656.924,917846.5,917673.523,923856.687,4,500,,
trial,html.Screen,10_25_0,2023-11-17T15:54:12.421Z,,,,1,0.0069555338059566,-0.0310100918136373,,0.05,true,lh,5956.8129999999655,response,-0.7745450008355167,0.8703404759821985,-0.8305765779356257,0.7385127154484312,0.8700000302419355,-0.9192474470062283,low,high,,ISIC_0011177.JPG,8,ISIC_0015401.JPG,25,false,0.14,lh,keypress(e),0,false,929813.6000000238,929813.5,923840.358,924038.2000000477,923856.687,929640.154,4,500,26,
break,html.Screen,10_25_1,2023-11-17T15:54:12.422Z,,,,,,,,,,,NaN,,,,,,,,low,high,,,,,,false,,,,,false,929814,929813.8999999762,,929813.7000000477,,929640.154,4,500,,
break_continue,html.Screen,10_25_2,2023-11-17T15:54:12.422Z,,,,,,,,,,,NaN,,,,,,,,low,high,,,,,,false,,,,,false,929814.1000000238,929814,,929814,,929640.154,4,500,,
sequence,flow.Sequence,10_25,2023-11-17T15:54:12.422Z,,,,,,,,,,,5957.3129999999655,completion,,,,,,,low,high,,,,,,false,,,,,false,929814.2000000477,929814,923840.358,924038.2000000477,923856.687,929640.154,4,500,,
trial,html.Screen,10_26_0,2023-11-17T15:54:16.438Z,,,,1,0.0085520978188085,-0.0464691161264081,,0.05,false,hh,4189.34600000002,response,0.7902359375375733,0.8703404759821985,-0.8305765779356257,0.8607451825540537,0.8700000302419355,-0.9192474470062283,high,high,,ISIC_0758797.JPG,8,ISIC_0899961.JPG,49,false,0.1,lh,keypress(e),0,false,933829.5,933829.5,929623.713,929814.2000000477,929640.154,933656.686,4,500,27,
break,html.Screen,10_26_1,2023-11-17T15:54:16.438Z,,,,,,,,,,,NaN,,,,,,,,high,high,,,,,,false,,,,,false,933829.7999999523,933829.7000000477,,933829.6000000238,,933656.686,4,500,,
break_continue,html.Screen,10_26_2,2023-11-17T15:54:16.438Z,,,,,,,,,,,NaN,,,,,,,,high,high,,,,,,false,,,,,false,933830,933830,,933829.8999999762,,933656.686,4,500,,
sequence,flow.Sequence,10_26,2023-11-17T15:54:16.438Z,,,,,,,,,,,4189.84600000002,completion,,,,,,,high,high,,,,,,false,,,,,false,933830.1000000238,933830,929623.713,929814.2000000477,929640.154,933656.686,4,500,,
trial,html.Screen,10_27_0,2023-11-17T15:54:22.966Z,,,,1,-0.000047919190197942736,-0.0462652940855003,,0.05,true,hh,6700.814000000013,response,0.8177173885584471,0.8703404759821985,-0.8305765779356257,0.8140398867745896,0.8700000302419355,-0.9192474470062283,high,high,,ISIC_0011507.JPG,9,ISIC_7196249.JPG,49,false,0.1,hh,keypress(i),0,false,940357.7000000477,940357.5,933640.03,933830.1000000238,933656.686,940190.45,4,500,28,
break,html.Screen,10_27_1,2023-11-17T15:54:22.966Z,,,,,,,,,,,NaN,,,,,,,,high,high,,,,,,false,,,,,false,940357.8999999762,940357.8999999762,,940357.7000000477,,940190.45,4,500,,
break_continue,html.Screen,10_27_2,2023-11-17T15:54:22.966Z,,,,,,,,,,,NaN,,,,,,,,high,high,,,,,,false,,,,,false,940358.1000000238,940358,,940358,,940190.45,4,500,,
sequence,flow.Sequence,10_27,2023-11-17T15:54:22.966Z,,,,,,,,,,,6701.314000000013,completion,,,,,,,high,high,,,,,,false,,,,,false,940358.2000000477,940358,933640.03,933830.1000000238,933656.686,940190.45,4,500,,
trial,html.Screen,10_28_0,2023-11-17T15:54:30.374Z,,,,1,-0.0051189696037511,0.0396625911332438,,0.05,false,lh,7574.949999976205,response,-0.6956738789487171,0.8703404759821985,-0.8305765779356257,0.9798803024739164,0.8700000302419355,-0.9192474470062283,low,high,,ISIC_9742891.JPG,9,ISIC_0046340.JPG,25,false,0.14,hh,keypress(i),0,false,947765.6000000238,947765.3999999762,940173.576,940358.2000000477,940190.45,947590.031,4,500,29,
break,html.Screen,10_28_1,2023-11-17T15:54:30.374Z,,,,,,,,,,,NaN,,,,,,,,low,high,,,,,,false,,,,,false,947765.8999999762,947765.7999999523,,947765.6000000238,,947590.031,4,500,,
break_continue,html.Screen,10_28_2,2023-11-17T15:54:30.374Z,,,,,,,,,,,NaN,,,,,,,,low,high,,,,,,false,,,,,false,947766.1000000238,947766,,947765.8999999762,,947590.031,4,500,,
sequence,flow.Sequence,10_28,2023-11-17T15:54:30.374Z,,,,,,,,,,,7575.550000000047,completion,,,,,,,low,high,,,,,,false,,,,,false,947766.1000000238,947766,940173.576,940358.2000000477,940190.45,947590.031,4,500,,
trial,html.Screen,10_29_0,2023-11-17T15:54:36.054Z,,,,1,-0.0409338693593207,0.0072462710499874,,0.05,false,lh,5855.469000000041,response,-0.9454713230140772,0.8703404759821985,-0.8305765779356257,0.9245167441969216,0.8700000302419355,-0.9192474470062283,low,high,,ISIC_3608788.JPG,8,ISIC_9101055.JPG,25,false,0.14,hl,keypress(j),0,false,953445.6000000238,953445.5,947573.439,947766.2000000477,947590.031,953273.495,4,500,30,
break,html.Screen,10_29_1,2023-11-17T15:54:36.054Z,,,,,,,,,,,NaN,,,,,,,,low,high,,,,,,false,,,,,false,953445.8999999762,953445.8999999762,,953445.7000000477,,953273.495,4,500,,
break_continue,html.Screen,10_29_2,2023-11-17T15:54:36.054Z,,,,,,,,,,,NaN,,,,,,,,low,high,,,,,,false,,,,,false,953446.1000000238,953446.1000000238,,953445.8999999762,,953273.495,4,500,,
sequence,flow.Sequence,10_29,2023-11-17T15:54:36.054Z,,,,,,,,,,,5856.069000023883,completion,,,,,,,low,high,,,,,,false,,,,,false,953446.2000000477,953446.1000000238,947573.439,947766.2000000477,947590.031,953273.495,4,500,,
trial,html.Screen,10_30_0,2023-11-17T15:54:39.029Z,,,,1,0.0324770283903853,0.0249968632204382,,0.05,true,hh,3147.904999976163,response,0.781420271893034,0.8703404759821985,-0.8305765779356257,0.8475699534335533,0.8700000302419355,-0.9192474470062283,high,high,,ISIC_7266462.JPG,10,ISIC_0066429.JPG,49,false,0.1,hh,keypress(i),0,false,956421.6000000238,956421.3999999762,953256.97,953446.2000000477,953273.495,956239.987,4,500,31,
break,html.Screen,10_30_1,2023-11-17T15:54:39.030Z,,,,,,,,,,,NaN,,,,,,,,high,high,,,,,,false,,,,,false,956421.7999999523,956421.7000000477,,956421.6000000238,,956239.987,4,500,,
break_continue,html.Screen,10_30_2,2023-11-17T15:54:39.030Z,,,,,,,,,,,NaN,,,,,,,,high,high,,,,,,false,,,,,false,956422,956422,,956421.8999999762,,956239.987,4,500,,
sequence,flow.Sequence,10_30,2023-11-17T15:54:39.030Z,,,,,,,,,,,3148.5050000000047,completion,,,,,,,high,high,,,,,,false,,,,,false,956422,956422,953256.97,953446.2000000477,953273.495,956239.987,4,500,,
trial,html.Screen,10_31_0,2023-11-17T15:54:45.045Z,,,,1,0.0389988030702649,0.0143212271490256,,0.05,false,hl,6197.4129999761935,response,0.7809949855371787,0.8703404759821985,-0.8305765779356257,-0.8493861117004308,0.8700000302419355,-0.9192474470062283,high,low,,ISIC_0064669.JPG,9,ISIC_7450481.JPG,26,false,0.16000000000000003,ll,keypress(f),0,false,962437.5,962437.3999999762,956223.37,956422,956239.987,962256.654,4,500,32,
break,html.Screen,10_31_1,2023-11-17T15:54:45.046Z,,,,,,,,,,,NaN,,,,,,,,high,low,,,,,,false,,,,,false,962437.7999999523,962437.7000000477,,962437.6000000238,,962256.654,4,500,,
break_continue,html.Screen,10_31_2,2023-11-17T15:54:45.046Z,,,,,,,,,,,NaN,,,,,,,,high,low,,,,,,false,,,,,false,962438,962437.8999999762,,962437.8999999762,,962256.654,4,500,,
sequence,flow.Sequence,10_31,2023-11-17T15:54:45.046Z,,,,,,,,,,,6197.9129999761935,completion,,,,,,,high,low,,,,,,false,,,,,false,962438,962437.8999999762,956223.37,956422,956239.987,962256.654,4,500,,
trial,html.Screen,10_32_0,2023-11-17T15:54:47.925Z,,,,1,0.0329095507339554,-0.0382899749693245,,0.05,true,hh,3060.5460000477033,response,0.7749816372238512,0.8703404759821985,-0.8305765779356257,0.9483461637567244,0.8700000302419355,-0.9192474470062283,high,high,,ISIC_8812781.JPG,9,ISIC_0065943.JPG,49,false,0.1,hh,keypress(i),0,false,965317.2999999523,965317.2000000477,962240.06,962438.1000000238,962256.654,965139.972,4,500,33,
break,html.Screen,10_32_1,2023-11-17T15:54:47.926Z,,,,,,,,,,,NaN,,,,,,,,high,high,,,,,,false,,,,,false,965317.6000000238,965317.5,,965317.3999999762,,965139.972,4,500,,
break_continue,html.Screen,10_32_2,2023-11-17T15:54:47.926Z,,,,,,,,,,,NaN,,,,,,,,high,high,,,,,,false,,,,,false,965317.7999999523,965317.7000000477,,965317.6000000238,,965139.972,4,500,,
sequence,flow.Sequence,10_32,2023-11-17T15:54:47.926Z,,,,,,,,,,,3061.0460000477033,completion,,,,,,,high,high,,,,,,false,,,,,false,965317.7999999523,965317.7000000477,962240.06,962438.1000000238,962256.654,965139.972,4,500,,
trial,html.Screen,10_33_0,2023-11-17T15:54:53.381Z,,,,1,0.0050679133050021,-0.0009714874637896,,0.05,true,lh,5633.028000000049,response,-0.7745450008355167,0.8703404759821985,-0.8305765779356257,0.7385127154484312,0.8700000302419355,-0.9192474470062283,low,high,,ISIC_9848743.JPG,9,ISIC_0015401.JPG,25,false,0.14,lh,keypress(e),0,false,970773.1000000238,970773,965123.454,965317.8999999762,965139.972,970607.151,4,500,34,
break,html.Screen,10_33_1,2023-11-17T15:54:53.381Z,,,,,,,,,,,NaN,,,,,,,,low,high,,,,,,false,,,,,false,970773.3999999762,970773.2999999523,,970773.2000000477,,970607.151,4,500,,
break_continue,html.Screen,10_33_2,2023-11-17T15:54:53.382Z,,,,,,,,,,,NaN,,,,,,,,low,high,,,,,,false,,,,,false,970773.6000000238,970773.6000000238,,970773.5,,970607.151,4,500,,
sequence,flow.Sequence,10_33,2023-11-17T15:54:53.382Z,,,,,,,,,,,5633.628000023891,completion,,,,,,,low,high,,,,,,false,,,,,false,970773.7000000477,970773.6000000238,965123.454,965317.8999999762,965139.972,970607.151,4,500,,
trial,html.Screen,10_34_0,2023-11-17T15:54:59.301Z,,,,1,0.0450282431170921,,,0.05,false,lh,6085.748999976204,response,-0.8979276789594874,0.8703404759821985,-0.8305765779356257,0.925374811016654,0.8700000302419355,-0.9192474470062283,low,high,,ISIC_1805163.JPG,9,ISIC_4208361.JPG,25,false,0.14,hl,keypress(j),0,false,976693.1000000238,976692.8999999762,970573.293,970773.7000000477,970607.151,976523.445,4,500,35,
break,html.Screen,10_34_1,2023-11-17T15:54:59.301Z,,,,,,,,,,,NaN,,,,,,,,low,high,,,,,,false,,,,,false,976693.3999999762,976693.2000000477,,976693.1000000238,,976523.445,4,500,,
break_continue,html.Screen,10_34_2,2023-11-17T15:54:59.301Z,,,,,,,,,,,NaN,,,,,,,,low,high,,,,,,false,,,,,false,976693.5,976693.5,,976693.3999999762,,976523.445,4,500,,
sequence,flow.Sequence,10_34,2023-11-17T15:54:59.302Z,,,,,,,,,,,6086.349000000046,completion,,,,,,,low,high,,,,,,false,,,,,false,976693.6000000238,976693.5,970573.293,970773.7000000477,970607.151,976523.445,4,500,,
trial,html.Screen,10_35_0,2023-11-17T15:55:05.253Z,,,,1,-0.0348234368746005,0.0236866303880924,,0.05,false,hl,6122.055000000051,response,0.809764442462202,0.8703404759821985,-0.8305765779356257,-1.005337148078696,0.8700000302419355,-0.9192474470062283,high,low,,ISIC_0011099.JPG,9,ISIC_2379379.JPG,26,false,0.16000000000000003,ll,keypress(f),0,false,982645.5,982645.5,976506.835,976693.6000000238,976523.445,982473.449,4,500,36,
break,html.Screen,10_35_1,2023-11-17T15:55:05.254Z,,,,,,,,,,,NaN,,,,,,,,high,low,,,,,,false,,,,,false,982645.7999999523,982645.7000000477,,982645.6000000238,,982473.449,4,500,,
break_continue,html.Screen,10_35_2,2023-11-17T15:55:05.254Z,,,,,,,,,,,NaN,,,,,,,,high,low,,,,,,false,,,,,false,982646,982646,,982645.7999999523,,982473.449,4,500,,
sequence,flow.Sequence,10_35,2023-11-17T15:55:05.254Z,,,,,,,,,,,6122.555000000051,completion,,,,,,,high,low,,,,,,false,,,,,false,982646,982646,976506.835,976693.6000000238,976523.445,982473.449,4,500,,
trial,html.Screen,10_36_0,2023-11-17T15:55:13.238Z,,,,1,-0.0348234368746005,0.0236866303880924,,0.05,true,lh,8156.350999952294,response,-0.7474027741495143,0.8703404759821985,-0.8305765779356257,0.7856143618373893,0.8700000302419355,-0.9192474470062283,low,high,,ISIC_0011099.JPG,9,ISIC_9303849.JPG,25,false,0.14,lh,keypress(e),0,false,990629.7999999523,990629.7999999523,982456.98,982646,982473.449,990456.8,4,500,37,
break,html.Screen,10_36_1,2023-11-17T15:55:13.238Z,,,,,,,,,,,NaN,,,,,,,,low,high,,,,,,false,,,,,false,990630.2000000477,990630.1000000238,,990629.8999999762,,990456.8,4,500,,
break_continue,html.Screen,10_36_2,2023-11-17T15:55:13.238Z,,,,,,,,,,,NaN,,,,,,,,low,high,,,,,,false,,,,,false,990630.3999999762,990630.2999999523,,990630.2000000477,,990456.8,4,500,,
sequence,flow.Sequence,10_36,2023-11-17T15:55:13.238Z,,,,,,,,,,,8156.850999952294,completion,,,,,,,low,high,,,,,,false,,,,,false,990630.3999999762,990630.2999999523,982456.98,982646,982473.449,990456.8,4,500,,
trial,html.Screen,10_37_0,2023-11-17T15:55:16.246Z,,,,1,,-0.0264544974620926,,0.05,true,hh,3180.6999999999534,response,0.9585938767259125,0.8703404759821985,-0.8305765779356257,0.8441404886756483,0.8700000302419355,-0.9192474470062283,high,high,,ISIC_0056991.JPG,9,ISIC_0055003.JPG,49,false,0.1,hh,keypress(i),0,false,993637.6000000238,993637.5,990439.833,990630.5,990456.8,993456.584,4,500,38,
break,html.Screen,10_37_1,2023-11-17T15:55:16.246Z,,,,,,,,,,,NaN,,,,,,,,high,high,,,,,,false,,,,,false,993637.8999999762,993637.8999999762,,993637.7000000477,,993456.584,4,500,,
break_continue,html.Screen,10_37_2,2023-11-17T15:55:16.246Z,,,,,,,,,,,NaN,,,,,,,,high,high,,,,,,false,,,,,false,993638.1000000238,993638,,993638,,993456.584,4,500,,
sequence,flow.Sequence,10_37,2023-11-17T15:55:16.246Z,,,,,,,,,,,3181.1999999999534,completion,,,,,,,high,high,,,,,,false,,,,,false,993638.1000000238,993638,990439.833,990630.5,990456.8,993456.584,4,500,,
trial,html.Screen,10_38_0,2023-11-17T15:55:20.518Z,,,,1,0.0050679133050021,-0.0009714874637896,,0.05,false,hh,4452.8159999761265,response,0.8926778502294954,0.8703404759821985,-0.8305765779356257,0.9164454040166848,0.8700000302419355,-0.9192474470062283,high,high,,ISIC_9848743.JPG,8,ISIC_0011460.JPG,49,false,0.1,hl,keypress(j),0,false,997909.5,997909.3999999762,993439.866,993638.2000000477,993456.584,997740.195,4,500,39,
break,html.Screen,10_38_1,2023-11-17T15:55:20.518Z,,,,,,,,,,,NaN,,,,,,,,high,high,,,,,,false,,,,,false,997909.7999999523,997909.7000000477,,997909.6000000238,,997740.195,4,500,,
break_continue,html.Screen,10_38_2,2023-11-17T15:55:20.518Z,,,,,,,,,,,NaN,,,,,,,,high,high,,,,,,false,,,,,false,997910,997909.8999999762,,997909.7999999523,,997740.195,4,500,,
