sender,sender_type,sender_id,timestamp,meta,,age,blockNo,c1,c2,condition,control_tolerance,correct,correctResponse,duration,ended_on,f1,f1_high,f1_low,f2,f2_high,f2_low,feature_level1,feature_level2,gender,img_left,img_reveal,img_right,n_target_images,practice,range_tolerance,response,response_action,selection_duration,staircase,time_commit,time_end,time_render,time_run,time_show,time_switch,total_blocks,total_trials,trialNo,url
informed_consent,html.Screen,0,2023-11-17T18:21:23.373Z,"{""labjs_version"":""20.2.4"",""labjs_build"":{""flavor"":""development"",""commit"":""f5b4a49f956347addd546a832a3327688c2c0fef""},""location"":""https://labjs.felixhenninger.com/api/labjs_preview/index.html"",""userAgent"":""Mozilla/5.0 (Windows NT 10.0; Win64; x64) AppleWebKit/537.36 (KHTML, like Gecko) Chrome/119.0.0.0 Safari/537.36"",""platform"":""Win32"",""language"":""en-US"",""locale"":""en-US"",""timeZone"":""America/Chicago"",""timezoneOffset"":360,""screen_width"":1680,""screen_height"":1050,""scroll_width"":825,""scroll_height"":888,""window_innerWidth"":825,""window_innerHeight"":936,""devicePixelRatio"":1}",,,,,,,,,,26904.367,response,,,,,,,,,,,,,,,,consent,click button,,,27605.200000047684,27596.5,675.407,666.4000000357628,692.133,27611.242,,,,{}
Demography form,html.Form,1,2023-11-17T18:21:30.532Z,,,18,,,,,,,,7153.258000000002,form submission,,,,,,,,,female,,,,,,,,,,,34764.700000047684,34764.5,27594.587,27605.30000001192,27611.242,34758.433,,,,
Welcome,html.Screen,2,2023-11-17T18:21:50.136Z,,,,,,,"[""asym"",""bor""]",,,,19607.167000023845,response,,,,,,,,,,,,,,,,continue,keypress(Space),,,54366.80000001192,54365.60000002384,34741.877,34764.80000001192,34758.433,54380.002,,,,
demo_instructions,html.Screen,3,2023-11-17T18:23:01.223Z,,,,,,,,,,,71073.09800002383,response,,,,,,,,,,,,,,,,continue,keypress(Space),,,125453.60000002384,125453.10000002384,54363.359,54367.10000002384,54380.002,125501.719,,,,
trial,html.Screen,4_0_0,2023-11-17T18:23:10.593Z,,,,0,0.991146183030456,-0.9949639823722534,,,false,lh,9321.281000000003,response,-0.8979276789594874,1.2,-1.2,0.925374811016654,1.2,-1.2,low,high,,ISIC_6342224.JPG,,ISIC_4208361.JPG,26,true,0.3600000000000002,ll,keypress(f),100,false,134823.5,134823,125451.207,125453.70000004768,125501.719,134869.961,1,16,1,
sequence,flow.Sequence,4_0,2023-11-17T18:23:10.594Z,,,,,,,,,,,9321.281000000003,completion,,,,,,,low,high,,,,,,true,,,,,false,134824.40000003576,134823,125451.207,125453.70000004768,125501.719,134869.961,1,16,,
trial,html.Screen,4_1_0,2023-11-17T18:23:13.972Z,,,,0,0.796241477082623,-0.9017449335975743,,,false,lh,3332.2390000476735,response,-0.9696118525781644,1.2,-1.2,0.9244148283103414,1.2,-1.2,low,high,,ISIC_8588033.JPG,,ISIC_7927525.JPG,33,true,0.42000000000000026,ll,keypress(f),100,false,138202.5,138202.20000004768,134836.683,134824.70000004768,134869.961,138243.192,1,16,2,
sequence,flow.Sequence,4_1,2023-11-17T18:23:13.972Z,,,,,,,,,,,3332.2390000476735,completion,,,,,,,low,high,,,,,,true,,,,,false,138203.10000002384,138202.20000004768,134836.683,134824.60000002384,134869.961,138243.192,1,16,,
trial,html.Screen,4_2_0,2023-11-17T18:23:23.284Z,,,,0,0.809764442462202,-1.005337148078696,,,true,lh,9271.608000011911,response,-1.011737552725394,1.2,-1.2,0.8500530224490773,1.2,-1.2,low,high,,ISIC_2379379.JPG,,ISIC_2998367.JPG,33,true,0.42000000000000026,lh,keypress(e),100,false,147515,147514.80000001192,138209.919,138203.40000003576,138243.192,147544.639,1,16,3,
sequence,flow.Sequence,4_2,2023-11-17T18:23:23.284Z,,,,,,,,,,,9271.608000011911,completion,,,,,,,low,high,,,,,,true,,,,,false,147515.20000004768,147514.80000001192,138209.919,138203.20000004768,138243.192,147544.639,1,16,,
trial,html.Screen,4_3_0,2023-11-17T18:23:26.295Z,,,,0,0.7911024675435955,-0.7975977016137676,,,false,lh,2980.8610000000044,response,-1.2695509547992938,1.2,-1.2,0.9641099676945492,1.2,-1.2,low,high,,ISIC_5813642.JPG,,ISIC_0025841.JPG,33,true,0.42000000000000026,ll,keypress(f),100,false,150525.60000002384,150525.5,147527.962,147515.30000001192,147544.639,150550.495,1,16,4,
sequence,flow.Sequence,4_3,2023-11-17T18:23:26.295Z,,,,,,,,,,,2980.8610000000044,completion,,,,,,,low,high,,,,,,true,,,,,false,150525.90000003576,150525.5,147527.962,147515.30000001192,147544.639,150550.495,1,16,,
trial,html.Screen,4_4_0,2023-11-17T18:23:35.885Z,,,,0,1.272699544571422,1.12917997553565,,,false,ll,9565.005000000005,response,-1.6088662007838894,1.2,-1.2,-0.83166078255243,1.2,-1.2,low,low,,ISIC_0012057.JPG,,ISIC_1453671.JPG,253,true,0.42000000000000026,hh,keypress(i),100,false,160115.90000003576,160115.5,150533.827,150526,150550.495,160135.9,1,16,5,
sequence,flow.Sequence,4_4,2023-11-17T18:23:35.886Z,,,,,,,,,,,9565.005000000005,completion,,,,,,,low,low,,,,,,true,,,,,false,160116.60000002384,160115.5,150533.827,150525.90000003576,150550.495,160135.9,1,16,,
trial,html.Screen,4_5_0,2023-11-17T18:23:43.087Z,,,,0,1.247270138097585,1.1704704713504994,,,true,ll,7181.500000035769,response,-1.1653123206802332,1.2,-1.2,-1.2976858999596654,1.2,-1.2,low,low,,ISIC_0065774.JPG,,ISIC_0071508.JPG,26,true,0.15000000000000002,ll,keypress(f),100,false,167317.80000001192,167317.40000003576,160119.23,160116.80000001192,160135.9,167333.218,1,16,6,
sequence,flow.Sequence,4_5,2023-11-17T18:23:43.088Z,,,,,,,,,,,7181.500000035769,completion,,,,,,,low,low,,,,,,true,,,,,false,167318.40000003576,167317.40000003576,160119.23,160116.80000001192,160135.9,167333.218,1,16,,
trial,html.Screen,4_6_0,2023-11-17T18:23:45.725Z,,,,0,1.2282561398079586,1.210457198775374,,,true,ll,2621.7820000000065,response,-1.2024083555600384,1.2,-1.2,-1.149077673153018,1.2,-1.2,low,low,,ISIC_9141817.JPG,,ISIC_3566243.JPG,26,true,0.15000000000000002,ll,keypress(f),100,false,169955.5,169955,167316.653,167318.70000004768,167333.218,169971.684,1,16,7,
sequence,flow.Sequence,4_6,2023-11-17T18:23:45.725Z,,,,,,,,,,,2621.7820000000065,completion,,,,,,,low,low,,,,,,true,,,,,false,169956.10000002384,169955,167316.653,167318.60000002384,167333.218,169971.684,1,16,,
trial,html.Screen,4_7_0,2023-11-17T18:23:48.823Z,,,,0,1.2071341803968807,1.235960269089932,,,true,ll,3081.6160000119125,response,-1.086647361897092,1.2,-1.2,-1.1528935990320313,1.2,-1.2,low,low,,ISIC_0058174.JPG,,ISIC_3505339.JPG,26,true,0.15000000000000002,ll,keypress(f),100,false,173053.70000004768,173053.30000001192,169955.012,169956.30000001192,169971.684,173111.053,1,16,8,
sequence,flow.Sequence,4_7,2023-11-17T18:23:48.823Z,,,,,,,,,,,3081.6160000119125,completion,,,,,,,low,low,,,,,,true,,,,,false,173054.20000004768,173053.30000001192,169955.012,169956.30000001192,169971.684,173111.053,1,16,,
trial,html.Screen,4_8_0,2023-11-17T18:24:03.612Z,,,,0,-1.2331439637486756,0.9691143900156988,,,false,hl,14729.64700004767,response,0.7833710010171356,1.2,-1.2,-0.9315588090336896,1.2,-1.2,high,low,,ISIC_7877488.JPG,,ISIC_3826102.JPG,27,true,0.42000000000000026,hh,keypress(i),100,false,187841.10000002384,187840.70000004768,173061.088,173054.5,173111.053,187889.802,1,16,9,
sequence,flow.Sequence,4_8,2023-11-17T18:24:03.612Z,,,,,,,,,,,14729.64700004767,completion,,,,,,,high,low,,,,,,true,,,,,false,187841.80000001192,187840.70000004768,173061.088,173054.40000003576,173111.053,187889.802,1,16,,
trial,html.Screen,4_9_0,2023-11-17T18:24:12.197Z,,,,0,-0.8534691366511764,1.03975580494588,,,true,hl,8536.398000047688,response,0.8035152873995188,1.2,-1.2,-0.82868450251632,1.2,-1.2,high,low,,ISIC_0056788.JPG,,ISIC_0010671.JPG,27,true,0.42000000000000026,hl,keypress(j),100,false,196426.5,196426.20000004768,187839.93,187842,187889.802,196456.503,1,16,10,
sequence,flow.Sequence,4_9,2023-11-17T18:24:12.198Z,,,,,,,,,,,8536.398000047688,completion,,,,,,,high,low,,,,,,true,,,,,false,196427.20000004768,196426.20000004768,187839.93,187841.90000003576,187889.802,196456.503,1,16,,
trial,html.Screen,4_10_0,2023-11-17T18:24:14.797Z,,,,0,-1.2364994561934892,0.9174173651516624,,,true,hl,2569.397000035766,response,1.276222161935671,1.2,-1.2,-0.9657780821973284,1.2,-1.2,high,low,,ISIC_3481133.JPG,,ISIC_6710411.JPG,27,true,0.42000000000000026,hl,keypress(j),100,false,199026.40000003576,199025.90000003576,196439.841,196427.40000003576,196456.503,199061.595,1,16,11,
sequence,flow.Sequence,4_10,2023-11-17T18:24:14.797Z,,,,,,,,,,,2569.397000035766,completion,,,,,,,high,low,,,,,,true,,,,,false,199027,199025.90000003576,196439.841,196427.40000003576,196456.503,199061.595,1,16,,
trial,html.Screen,4_11_0,2023-11-17T18:24:19.841Z,,,,0,-1.2331439637486756,0.9691143900156988,,,false,hl,5008.305000035762,response,1.0022829373011404,1.2,-1.2,-0.8311726972863814,1.2,-1.2,high,low,,ISIC_7877488.JPG,,ISIC_0033287.JPG,27,true,0.42000000000000026,hh,keypress(i),100,false,204070.20000004768,204069.90000003576,199028.249,199027.30000001192,199061.595,204088.052,1,16,12,
sequence,flow.Sequence,4_11,2023-11-17T18:24:19.841Z,,,,,,,,,,,5008.305000035762,completion,,,,,,,high,low,,,,,,true,,,,,false,204070.70000004768,204069.90000003576,199028.249,199027.20000004768,199061.595,204088.052,1,16,,
trial,html.Screen,4_12_0,2023-11-17T18:24:21.944Z,,,,0,-1.2711018615747949,-1.1042234044781618,,,true,hh,2085.3480000357667,response,1.0215600067367807,1.2,-1.2,1.1866489745604327,1.2,-1.2,high,high,,ISIC_8603734.JPG,,ISIC_0000173.JPG,245,true,0.3600000000000002,hh,keypress(i),100,false,206173.80000001192,206173.40000003576,204071.451,204071,204088.052,206192.159,1,16,13,
sequence,flow.Sequence,4_12,2023-11-17T18:24:21.945Z,,,,,,,,,,,2085.3480000357667,completion,,,,,,,high,high,,,,,,true,,,,,false,206174.40000003576,206173.40000003576,204071.451,204071,204088.052,206192.159,1,16,,
trial,html.Screen,4_13_0,2023-11-17T18:24:23.826Z,,,,0,-1.1598623261077452,-1.203269031614007,,,true,hh,1863.4410000238277,response,1.1721505400949757,1.2,-1.2,1.3324676785261087,1.2,-1.2,high,high,,ISIC_0002639.JPG,,ISIC_0000167.JPG,53,true,0.15000000000000002,hh,keypress(i),100,false,208056,208055.60000002384,206175.545,206174.60000002384,206192.159,208079.379,1,16,14,
sequence,flow.Sequence,4_13,2023-11-17T18:24:23.827Z,,,,,,,,,,,1863.4410000238277,completion,,,,,,,high,high,,,,,,true,,,,,false,208056.60000002384,208055.60000002384,206175.545,206174.5,206192.159,208079.379,1,16,,
trial,html.Screen,4_14_0,2023-11-17T18:24:26.002Z,,,,0,-1.1137763092539212,-1.1599906701455132,,,true,hh,2152.3210000476975,response,1.2750452296609045,1.2,-1.2,1.1682369131232675,1.2,-1.2,high,high,,ISIC_5413788.JPG,,ISIC_0066399.JPG,53,true,0.15000000000000002,hh,keypress(i),100,false,210232,210231.70000004768,208062.523,208056.90000003576,208079.379,210250.042,1,16,15,
sequence,flow.Sequence,4_14,2023-11-17T18:24:26.003Z,,,,,,,,,,,2152.3210000476975,completion,,,,,,,high,high,,,,,,true,,,,,false,210232.5,210231.70000004768,208062.523,208056.90000003576,208079.379,210250.042,1,16,,
trial,html.Screen,4_15_0,2023-11-17T18:24:27.784Z,,,,0,-1.0789197754694622,-1.1654690806750023,,,true,hh,1763.5580000238551,response,1.188743606919222,1.2,-1.2,1.0980226451001782,1.2,-1.2,high,high,,ISIC_1576437.JPG,,ISIC_0060481.JPG,53,true,0.15000000000000002,hh,keypress(i),100,false,212013.90000003576,212013.60000002384,210233.447,210232.80000001192,210250.042,212036.848,1,16,16,
sequence,flow.Sequence,4_15,2023-11-17T18:24:27.785Z,,,,,,,,,,,1763.5580000238551,completion,,,,,,,high,high,,,,,,true,,,,,false,212014.5,212013.60000002384,210233.447,210232.70000004768,210250.042,212036.848,1,16,,
demonstration_loop,flow.Loop,4,2023-11-17T18:24:27.785Z,,,,,,,,,,,86511.88100002384,completion,,,,,,,,,,,,,,true,,,,,false,212014.90000003576,212013.60000002384,125451.207,125453.70000004768,125501.719,212036.848,1,16,,
practice_instructions,html.Screen,5,2023-11-17T18:24:45.819Z,,,,,,,,,,,18001.152000000002,response,,,,,,,,,,,,,,,,continue,keypress(Space),,,230048.30000001192,230038,212020.263,212015,212036.848,230055.248,,,,
trial,html.Screen,6_0_0,2023-11-17T18:24:52.080Z,,,,1,1.2952503640839694,1.107234527385344,,,true,ll,6254.052000011929,response,-1.3189473926989124,1.2,-1.2,-1.0770264364718942,1.2,-1.2,low,low,,ISIC_0034134.JPG,,ISIC_6093728.JPG,26,true,0.15000000000000002,ll,keypress(f),0,false,236309.5,236309.30000001192,230038.517,230048.40000003576,230055.248,236317.424,1,40,1,
sequence,flow.Sequence,6_0,2023-11-17T18:24:52.080Z,,,,,,,,,,,6254.052000011929,completion,,,,,,,low,low,,,,,,true,,,,,false,236309.60000002384,236309.30000001192,230038.517,230048.40000003576,230055.248,236317.424,1,40,,
trial,html.Screen,6_1_0,2023-11-17T18:24:59.152Z,,,,1,1.272699544571422,1.12917997553565,,,true,ll,7064.276000047685,response,-1.2706447584800626,1.2,-1.2,-1.0903308007916603,1.2,-1.2,low,low,,ISIC_0012057.JPG,,ISIC_9425937.JPG,26,true,0.15000000000000002,ll,keypress(f),0,false,243381.80000001192,243381.70000004768,236300.81,236309.70000004768,236317.424,243431.276,1,40,2,
sequence,flow.Sequence,6_1,2023-11-17T18:24:59.152Z,,,,,,,,,,,7064.276000047685,completion,,,,,,,low,low,,,,,,true,,,,,false,243382,243381.70000004768,236300.81,236309.70000004768,236317.424,243431.276,1,40,,
trial,html.Screen,6_2_0,2023-11-17T18:25:04.738Z,,,,1,-1.020990671779317,1.0116513850520903,,,false,hl,5535.223999999987,response,1.0264463986917702,1.2,-1.2,-1.2804054832904397,1.2,-1.2,high,low,,ISIC_0011995.JPG,,ISIC_7889838.JPG,27,true,0.42000000000000026,lh,keypress(e),0,false,248966.80000001192,248966.5,243381.135,243382.20000004768,243431.276,248975.46,1,40,3,
sequence,flow.Sequence,6_2,2023-11-17T18:25:04.739Z,,,,,,,,,,,5535.223999999987,completion,,,,,,,high,low,,,,,,true,,,,,false,248967.30000001192,248966.5,243381.135,243382.10000002384,243431.276,248975.46,1,40,,
trial,html.Screen,6_3_0,2023-11-17T18:25:08.968Z,,,,1,-1.2012395086389958,-1.0618985767073823,,,true,hh,4221.64000002385,response,0.8835058339726064,1.2,-1.2,1.035612893059322,1.2,-1.2,high,high,,ISIC_9876004.JPG,,ISIC_0069595.JPG,245,true,0.3600000000000002,hh,keypress(i),0,false,253197.20000004768,253197.10000002384,248958.968,248967.60000002384,248975.46,253233.714,1,40,4,
sequence,flow.Sequence,6_3,2023-11-17T18:25:08.968Z,,,,,,,,,,,4221.64000002385,completion,,,,,,,high,high,,,,,,true,,,,,false,253197.30000001192,253197.10000002384,248958.968,248967.5,248975.46,253233.714,1,40,,
trial,html.Screen,6_4_0,2023-11-17T18:25:13.514Z,,,,1,1.0213365328004047,-1.088524359911891,,,false,lh,4508.9860000476765,response,-1.2075172235545184,1.2,-1.2,0.9116724966267612,1.2,-1.2,low,high,,ISIC_5434229.JPG,,ISIC_0024235.JPG,26,true,0.3600000000000002,hl,keypress(j),0,false,257743,257742.70000004768,253183.703,253197.30000001192,253233.714,257759.171,1,40,5,
sequence,flow.Sequence,6_4,2023-11-17T18:25:13.515Z,,,,,,,,,,,4508.9860000476765,completion,,,,,,,low,high,,,,,,true,,,,,false,257743.5,257742.70000004768,253183.703,253197.30000001192,253233.714,257759.171,1,40,,
trial,html.Screen,6_5_0,2023-11-17T18:25:17.122Z,,,,1,0.809764442462202,-1.005337148078696,,,true,lh,3591.328999999998,response,-1.27543269240326,1.2,-1.2,0.80839597388021,1.2,-1.2,low,high,,ISIC_2379379.JPG,,ISIC_3296136.JPG,33,true,0.42000000000000026,lh,keypress(e),0,false,261350.90000003576,261350.5,257742.588,257743.70000004768,257759.171,261366.197,1,40,6,
sequence,flow.Sequence,6_5,2023-11-17T18:25:17.123Z,,,,,,,,,,,3591.328999999998,completion,,,,,,,low,high,,,,,,true,,,,,false,261351.5,261350.5,257742.588,257743.60000002384,257759.171,261366.197,1,40,,
trial,html.Screen,6_6_0,2023-11-17T18:25:19.370Z,,,,1,0.991146183030456,-0.9949639823722534,,,true,lh,2232.203000035777,response,-1.1181734135756094,1.2,-1.2,0.944560381774994,1.2,-1.2,low,high,,ISIC_6342224.JPG,,ISIC_9688534.JPG,33,true,0.42000000000000026,lh,keypress(e),0,false,263598.7000000477,263598.40000003576,261349.557,261351.70000004768,261366.197,263603.877,1,40,7,
sequence,flow.Sequence,6_6,2023-11-17T18:25:19.370Z,,,,,,,,,,,2232.203000035777,completion,,,,,,,low,high,,,,,,true,,,,,false,263599.2000000477,263598.40000003576,261349.557,261351.60000002384,261366.197,263603.877,1,40,,
trial,html.Screen,6_7_0,2023-11-17T18:25:21.650Z,,,,1,-1.2706447584800626,-1.0903308007916603,,,true,hh,2274.7230000238633,response,0.9735583105865782,1.2,-1.2,0.9340146106918494,1.2,-1.2,high,high,,ISIC_9425937.JPG,,ISIC_0065204.JPG,339,true,0.42000000000000026,hh,keypress(i),0,false,265878.90000003576,265878.60000002384,263587.386,263599.5,263603.877,265891.747,1,40,8,
sequence,flow.Sequence,6_7,2023-11-17T18:25:21.651Z,,,,,,,,,,,2274.7230000238633,completion,,,,,,,high,high,,,,,,true,,,,,false,265879.40000003576,265878.60000002384,263587.386,263599.5,263603.877,265891.747,1,40,,
trial,html.Screen,6_8_0,2023-11-17T18:25:25.682Z,,,,1,1.156827121261563,1.2544342720917778,,,true,ll,4018.853000023868,response,-1.2724584600905462,1.2,-1.2,-1.1411016103695344,1.2,-1.2,low,low,,ISIC_0060397.JPG,,ISIC_0059625.JPG,26,true,0.15000000000000002,ll,keypress(f),0,false,269910.90000003576,269910.60000002384,265875.216,265879.60000002384,265891.747,269949.56,1,40,9,
sequence,flow.Sequence,6_8,2023-11-17T18:25:25.683Z,,,,,,,,,,,4018.853000023868,completion,,,,,,,low,low,,,,,,true,,,,,false,269911.40000003576,269910.60000002384,265875.216,265879.5,265891.747,269949.56,1,40,,
trial,html.Screen,6_9_0,2023-11-17T18:25:28.034Z,,,,1,-0.8979276789594874,0.925374811016654,,,false,hl,2313.040000023844,response,1.4092385398614515,1.2,-1.2,-1.3046237992197836,1.2,-1.2,high,low,,ISIC_4208361.JPG,,ISIC_7254359.JPG,27,true,0.42000000000000026,hh,keypress(i),0,false,272262.90000003576,272262.60000002384,269899.45,269911.7000000477,269949.56,272270.752,1,40,10,
sequence,flow.Sequence,6_9,2023-11-17T18:25:28.035Z,,,,,,,,,,,2313.040000023844,completion,,,,,,,high,low,,,,,,true,,,,,false,272263.40000003576,272262.60000002384,269899.45,269911.60000002384,269949.56,272270.752,1,40,,
trial,html.Screen,6_10_0,2023-11-17T18:25:29.818Z,,,,1,-1.201100953917304,-1.1751492358160105,,,true,hh,1775.8480000238633,response,0.9476874253010668,1.2,-1.2,1.0189744362243829,1.2,-1.2,high,high,,ISIC_0647224.JPG,,ISIC_0033878.JPG,245,true,0.3600000000000002,hh,keypress(i),0,false,274047,274046.60000002384,272254.292,272263.60000002384,272270.752,274090.95,1,40,11,
sequence,flow.Sequence,6_10,2023-11-17T18:25:29.819Z,,,,,,,,,,,1775.8480000238633,completion,,,,,,,high,high,,,,,,true,,,,,false,274047.40000003576,274046.60000002384,272254.292,272263.60000002384,272270.752,274090.95,1,40,,
trial,html.Screen,6_11_0,2023-11-17T18:25:34.130Z,,,,1,0.8947611078712571,-0.8960964505004638,,,true,lh,4267.350000011909,response,-1.2364994561934892,1.2,-1.2,0.9174173651516624,1.2,-1.2,low,high,,ISIC_6441128.JPG,,ISIC_3481133.JPG,26,true,0.3600000000000002,lh,keypress(e),0,false,278358.60000002384,278358.3000000119,274041.084,274047.7000000477,274090.95,278366.026,1,40,12,
sequence,flow.Sequence,6_11,2023-11-17T18:25:34.130Z,,,,,,,,,,,4267.350000011909,completion,,,,,,,low,high,,,,,,true,,,,,false,278359,278358.3000000119,274041.084,274047.60000002384,274090.95,278366.026,1,40,,
trial,html.Screen,6_12_0,2023-11-17T18:25:37.602Z,,,,1,1.2915523362516486,1.1264977790562936,,,true,ll,3464.5740000238293,response,-1.0103403743290518,1.2,-1.2,-0.8231760770331785,1.2,-1.2,low,low,,ISIC_0502582.JPG,,ISIC_1254469.JPG,253,true,0.42000000000000026,ll,keypress(f),0,false,281831,281830.60000002384,278349.378,278359.3000000119,278366.026,281839.384,1,40,13,
sequence,flow.Sequence,6_12,2023-11-17T18:25:37.603Z,,,,,,,,,,,3464.5740000238293,completion,,,,,,,low,low,,,,,,true,,,,,false,281831.40000003576,281830.60000002384,278349.378,278359.2000000477,278366.026,281839.384,1,40,,
trial,html.Screen,6_13_0,2023-11-17T18:25:39.530Z,,,,1,-1.1653123206802332,-1.2976858999596654,,,true,hh,1919.11599999998,response,1.2282561398079586,1.2,-1.2,1.210457198775374,1.2,-1.2,high,high,,ISIC_0071508.JPG,,ISIC_9141817.JPG,30,true,0.1,hh,keypress(i),0,false,283758.90000003576,283758.5,281822.727,281831.7000000477,281839.384,283793.162,1,40,14,
sequence,flow.Sequence,6_13,2023-11-17T18:25:39.531Z,,,,,,,,,,,1919.11599999998,completion,,,,,,,high,high,,,,,,true,,,,,false,283759.40000003576,283758.5,281822.727,281831.60000002384,281839.384,283793.162,1,40,,
trial,html.Screen,6_14_0,2023-11-17T18:25:46.018Z,,,,1,1.0022829373011404,-0.8311726972863814,,,false,lh,6453.5380000476725,response,-0.9579209317488,1.2,-1.2,1.0147487101263497,1.2,-1.2,low,high,,ISIC_0033287.JPG,,ISIC_8124482.JPG,26,true,0.3600000000000002,hl,keypress(j),0,false,290247.10000002384,290246.7000000477,283759.991,283759.7000000477,283793.162,290272.436,1,40,15,
sequence,flow.Sequence,6_14,2023-11-17T18:25:46.019Z,,,,,,,,,,,6453.5380000476725,completion,,,,,,,low,high,,,,,,true,,,,,false,290247.60000002384,290246.7000000477,283759.991,283759.60000002384,283793.162,290272.436,1,40,,
trial,html.Screen,6_15_0,2023-11-17T18:25:52.874Z,,,,1,0.7871162143493278,-0.8429329800778957,,,true,lh,6830.464000035776,response,-1.011737552725394,1.2,-1.2,0.8500530224490773,1.2,-1.2,low,high,,ISIC_3439215.JPG,,ISIC_2998367.JPG,33,true,0.42000000000000026,lh,keypress(e),0,false,297103.2000000477,297102.90000003576,290239.01,290247.8000000119,290272.436,297119.37,1,40,16,
sequence,flow.Sequence,6_15,2023-11-17T18:25:52.875Z,,,,,,,,,,,6830.464000035776,completion,,,,,,,low,high,,,,,,true,,,,,false,297103.7000000477,297102.90000003576,290239.01,290247.8000000119,290272.436,297119.37,1,40,,
trial,html.Screen,6_16_0,2023-11-17T18:26:03.667Z,,,,1,1.1346217981791904,1.1555132168806113,,,true,ll,10775.430000011926,response,-1.1011373150916248,1.2,-1.2,-0.7816231038128233,1.2,-1.2,low,low,,ISIC_0032771.JPG,,ISIC_8477065.JPG,253,true,0.42000000000000026,ll,keypress(f),0,false,307895.10000002384,307894.8000000119,297102.576,297104,297119.37,307940.161,1,40,17,
sequence,flow.Sequence,6_16,2023-11-17T18:26:03.667Z,,,,,,,,,,,10775.430000011926,completion,,,,,,,low,low,,,,,,true,,,,,false,307895.60000002384,307894.8000000119,297102.576,297103.8000000119,297119.37,307940.161,1,40,,
trial,html.Screen,6_17_0,2023-11-17T18:26:06.075Z,,,,1,0.8092423703106274,-1.1870093485714288,,,true,lh,2362.43900002382,response,-1.2331439637486756,1.2,-1.2,0.9691143900156988,1.2,-1.2,low,high,,ISIC_8592235.JPG,,ISIC_7877488.JPG,26,true,0.3600000000000002,lh,keypress(e),0,false,310303,310302.60000002384,307890.102,307895.8000000119,307940.161,310311.469,1,40,18,
sequence,flow.Sequence,6_17,2023-11-17T18:26:06.076Z,,,,,,,,,,,2362.43900002382,completion,,,,,,,low,high,,,,,,true,,,,,false,310303.90000003576,310302.60000002384,307890.102,307895.8000000119,307940.161,310311.469,1,40,,
trial,html.Screen,6_18_0,2023-11-17T18:26:07.835Z,,,,1,1.2071341803968807,1.235960269089932,,,true,ll,1751.131000023859,response,-0.9487751044258608,1.2,-1.2,-0.875032819970805,1.2,-1.2,low,low,,ISIC_0058174.JPG,,ISIC_4568084.JPG,253,true,0.42000000000000026,ll,keypress(f),0,false,312062.90000003576,312062.60000002384,310294.967,310304.3000000119,310311.469,312098.275,1,40,19,
sequence,flow.Sequence,6_18,2023-11-17T18:26:07.835Z,,,,,,,,,,,1751.131000023859,completion,,,,,,,low,low,,,,,,true,,,,,false,312063.40000003576,312062.60000002384,310294.967,310304.2000000477,310311.469,312098.275,1,40,,
trial,html.Screen,6_19_0,2023-11-17T18:26:15.289Z,,,,1,-1.020990671779317,1.0116513850520903,,,false,hl,7418.825000023819,response,0.948927472020595,1.2,-1.2,-1.0660437155921598,1.2,-1.2,high,low,,ISIC_0011995.JPG,,ISIC_5808758.JPG,27,true,0.42000000000000026,hh,keypress(i),0,false,319517.10000002384,319517.10000002384,312048.202,312063.7000000477,312098.275,319529.649,1,40,20,
sequence,flow.Sequence,6_19,2023-11-17T18:26:15.289Z,,,,,,,,,,,7418.825000023819,completion,,,,,,,high,low,,,,,,true,,,,,false,319517.3000000119,319517.10000002384,312048.202,312063.60000002384,312098.275,319529.649,1,40,,
trial,html.Screen,6_20_0,2023-11-17T18:26:19.899Z,,,,1,1.2169050727663315,1.1067845563421794,,,true,ll,4596.951000023866,response,-1.0393236111814752,1.2,-1.2,-0.850194793725365,1.2,-1.2,low,low,,ISIC_7016261.JPG,,ISIC_8427534.JPG,179,true,0.3600000000000002,ll,keypress(f),0,false,324127,324126.60000002384,319512.859,319517.40000003576,319529.649,324138.331,1,40,21,
sequence,flow.Sequence,6_20,2023-11-17T18:26:19.899Z,,,,,,,,,,,4596.951000023866,completion,,,,,,,low,low,,,,,,true,,,,,false,324127.40000003576,324126.60000002384,319512.859,319517.40000003576,319529.649,324138.331,1,40,,
trial,html.Screen,6_21_0,2023-11-17T18:26:22.402Z,,,,1,-1.2724584600905462,-1.1411016103695344,,,true,hh,2492.069000035757,response,1.1474466950560966,1.2,-1.2,1.268445326285509,1.2,-1.2,high,high,,ISIC_0059625.JPG,,ISIC_5216586.JPG,30,true,0.1,hh,keypress(i),0,false,326630.8000000119,326630.40000003576,324121.805,324127.7000000477,324138.331,326676.652,1,40,22,
sequence,flow.Sequence,6_21,2023-11-17T18:26:22.403Z,,,,,,,,,,,2492.069000035757,completion,,,,,,,high,high,,,,,,true,,,,,false,326631.3000000119,326630.40000003576,324121.805,324127.60000002384,324138.331,326676.652,1,40,,
trial,html.Screen,6_22_0,2023-11-17T18:26:26.419Z,,,,1,-1.4747161152848791,0.847048591307387,,,false,hl,3970.048000047682,response,0.9235571765207048,1.2,-1.2,-1.0008081653938232,1.2,-1.2,high,low,,ISIC_0016092.JPG,,ISIC_8796632.JPG,27,true,0.42000000000000026,hh,keypress(i),0,false,330647.10000002384,330646.7000000477,326626.532,326631.60000002384,326676.652,330667.751,1,40,23,
sequence,flow.Sequence,6_22,2023-11-17T18:26:26.419Z,,,,,,,,,,,3970.048000047682,completion,,,,,,,high,low,,,,,,true,,,,,false,330647.60000002384,330646.7000000477,326626.532,326631.5,326676.652,330667.751,1,40,,
trial,html.Screen,6_23_0,2023-11-17T18:26:29.835Z,,,,1,-0.8487429103619056,0.9778257804233036,,,false,hl,3394.8490000238526,response,0.8655167308525522,1.2,-1.2,-0.9298580423306444,1.2,-1.2,high,low,,ISIC_4554863.JPG,,ISIC_4603706.JPG,27,true,0.42000000000000026,hh,keypress(i),0,false,334062.90000003576,334062.60000002384,330634.439,330647.8000000119,330667.751,334091.08,1,40,24,
sequence,flow.Sequence,6_23,2023-11-17T18:26:29.835Z,,,,,,,,,,,3394.8490000238526,completion,,,,,,,high,low,,,,,,true,,,,,false,334063.40000003576,334062.60000002384,330634.439,330647.8000000119,330667.751,334091.08,1,40,,
trial,html.Screen,6_24_0,2023-11-17T18:26:42.370Z,,,,1,1.0115965332688306,-0.8282633603842442,,,true,lh,12507.419999999984,response,-0.9696118525781644,1.2,-1.2,0.9244148283103414,1.2,-1.2,low,high,,ISIC_1069587.JPG,,ISIC_7927525.JPG,26,true,0.3600000000000002,lh,keypress(e),0,false,346598.8000000119,346598.5,334057.861,334063.7000000477,334091.08,346615.527,1,40,25,
sequence,flow.Sequence,6_24,2023-11-17T18:26:42.371Z,,,,,,,,,,,12507.419999999984,completion,,,,,,,low,high,,,,,,true,,,,,false,346599.40000003576,346598.5,334057.861,334063.60000002384,334091.08,346615.527,1,40,,
trial,html.Screen,6_25_0,2023-11-17T18:26:44.513Z,,,,1,-1.3189473926989124,-1.0770264364718942,,,true,hh,2125.673000047682,response,1.2282561398079586,1.2,-1.2,1.210457198775374,1.2,-1.2,high,high,,ISIC_6093728.JPG,,ISIC_9141817.JPG,339,true,0.42000000000000026,hh,keypress(i),0,false,348741.2000000477,348741.2000000477,346598.878,346599.8000000119,346615.527,348752.933,1,40,26,
sequence,flow.Sequence,6_25,2023-11-17T18:26:44.513Z,,,,,,,,,,,2125.673000047682,completion,,,,,,,high,high,,,,,,true,,,,,false,348741.40000003576,348741.2000000477,346598.878,346599.8000000119,346615.527,348752.933,1,40,,
trial,html.Screen,6_26_0,2023-11-17T18:26:46.755Z,,,,1,-1.1137763092539212,-1.1599906701455132,,,true,hh,2229.566999999981,response,1.101214461533281,1.2,-1.2,1.1849883512428183,1.2,-1.2,high,high,,ISIC_5413788.JPG,,ISIC_0064943.JPG,53,true,0.15000000000000002,hh,keypress(i),0,false,350982.90000003576,350982.5,348736.481,348741.40000003576,348752.933,351024.036,1,40,27,
sequence,flow.Sequence,6_26,2023-11-17T18:26:46.755Z,,,,,,,,,,,2229.566999999981,completion,,,,,,,high,high,,,,,,true,,,,,false,350983.40000003576,350982.5,348736.481,348741.40000003576,348752.933,351024.036,1,40,,
trial,html.Screen,6_27_0,2023-11-17T18:26:48.569Z,,,,1,1.0264463986917702,-1.2804054832904397,,,false,lh,1773.364000035741,response,-1.0143509683988825,1.2,-1.2,1.3163955902021656,1.2,-1.2,low,high,,ISIC_7889838.JPG,,ISIC_0062031.JPG,26,true,0.3600000000000002,hh,keypress(i),0,false,352797.5,352797.40000003576,350974.085,350983.7000000477,351024.036,352810.858,1,40,28,
sequence,flow.Sequence,6_27,2023-11-17T18:26:48.569Z,,,,,,,,,,,1773.364000035741,completion,,,,,,,low,high,,,,,,true,,,,,false,352797.7000000477,352797.40000003576,350974.085,350983.60000002384,351024.036,352810.858,1,40,,
trial,html.Screen,6_28_0,2023-11-17T18:26:54.361Z,,,,1,0.809764442462202,-1.005337148078696,,,false,lh,5778.342000047676,response,-1.0656673213158945,1.2,-1.2,0.8082541692781954,1.2,-1.2,low,high,,ISIC_2379379.JPG,,ISIC_0033985.JPG,33,true,0.42000000000000026,hl,keypress(j),0,false,358589.3000000119,358589.2000000477,352794.4,352797.7000000477,352810.858,358605.468,1,40,29,
sequence,flow.Sequence,6_28,2023-11-17T18:26:54.361Z,,,,,,,,,,,5778.342000047676,completion,,,,,,,low,high,,,,,,true,,,,,false,358589.40000003576,358589.2000000477,352794.4,352797.7000000477,352810.858,358605.468,1,40,,
trial,html.Screen,6_29_0,2023-11-17T18:26:58.819Z,,,,1,-1.331700944308701,0.9395196143259436,,,true,hl,4441.432000035769,response,0.8092423703106274,1.2,-1.2,-1.1870093485714288,1.2,-1.2,high,low,,ISIC_1668831.JPG,,ISIC_8592235.JPG,27,true,0.42000000000000026,hl,keypress(j),0,false,363047.2000000477,363046.90000003576,358588.961,358589.5,358605.468,363064.15,1,40,30,
sequence,flow.Sequence,6_29,2023-11-17T18:26:58.819Z,,,,,,,,,,,4441.432000035769,completion,,,,,,,high,low,,,,,,true,,,,,false,363047.7000000477,363046.90000003576,358588.961,358589.40000003576,358605.468,363064.15,1,40,,
trial,html.Screen,6_30_0,2023-11-17T18:27:01.475Z,,,,1,-1.2695509547992938,0.9641099676945492,,,true,hl,2638.3499999999767,response,0.9388660854518424,1.2,-1.2,-0.79533948698576,1.2,-1.2,high,low,,ISIC_0025841.JPG,,ISIC_9291926.JPG,27,true,0.42000000000000026,hl,keypress(j),0,false,365702.8000000119,365702.5,363047.625,363048,363064.15,365719.514,1,40,31,
sequence,flow.Sequence,6_30,2023-11-17T18:27:01.475Z,,,,,,,,,,,2638.3499999999767,completion,,,,,,,high,low,,,,,,true,,,,,false,365703.40000003576,365702.5,363047.625,363047.8000000119,363064.15,365719.514,1,40,,
trial,html.Screen,6_31_0,2023-11-17T18:27:02.987Z,,,,1,1.1033977063872138,1.2513071571733083,,,true,ll,1495.186000047659,response,-0.952434586184464,1.2,-1.2,-0.870679752281305,1.2,-1.2,low,low,,ISIC_0025472.JPG,,ISIC_5791954.JPG,179,true,0.3600000000000002,ll,keypress(f),0,false,367214.90000003576,367214.7000000477,365702.837,365703.60000002384,365719.514,367222.239,1,40,32,
sequence,flow.Sequence,6_31,2023-11-17T18:27:02.988Z,,,,,,,,,,,1495.186000047659,completion,,,,,,,low,low,,,,,,true,,,,,false,367215.5,367214.7000000477,365702.837,365703.60000002384,365719.514,367222.239,1,40,,
trial,html.Screen,6_32_0,2023-11-17T18:27:04.891Z,,,,1,1.29026082950341,1.144672688339213,,,true,ll,1896.2609999999986,response,-1.0959058628476686,1.2,-1.2,-1.1684835186766898,1.2,-1.2,low,low,,ISIC_0054317.JPG,,ISIC_5920470.JPG,26,true,0.15000000000000002,ll,keypress(f),0,false,369118.90000003576,369118.5,367205.785,367215.7000000477,367222.239,369125.944,1,40,33,
sequence,flow.Sequence,6_32,2023-11-17T18:27:04.891Z,,,,,,,,,,,1896.2609999999986,completion,,,,,,,low,low,,,,,,true,,,,,false,369119.3000000119,369118.5,367205.785,367215.7000000477,367222.239,369125.944,1,40,,
trial,html.Screen,6_33_0,2023-11-17T18:27:07.891Z,,,,1,1.1346217981791904,1.1555132168806113,,,true,ll,2992.656000023824,response,-1.2724584600905462,1.2,-1.2,-1.1411016103695344,1.2,-1.2,low,low,,ISIC_0032771.JPG,,ISIC_0059625.JPG,26,true,0.15000000000000002,ll,keypress(f),0,false,372118.90000003576,372118.60000002384,369109.367,369119.60000002384,369125.944,372165.179,1,40,34,
sequence,flow.Sequence,6_33,2023-11-17T18:27:07.892Z,,,,,,,,,,,2992.656000023824,completion,,,,,,,low,low,,,,,,true,,,,,false,372119.40000003576,372118.60000002384,369109.367,369119.5,369125.944,372165.179,1,40,,
trial,html.Screen,6_34_0,2023-11-17T18:27:13.931Z,,,,1,-1.0751036484083878,1.143906455483852,,,false,hl,5993.621000011917,response,0.809764442462202,1.2,-1.2,-1.005337148078696,1.2,-1.2,high,low,,ISIC_0064406.JPG,,ISIC_2379379.JPG,27,true,0.42000000000000026,lh,keypress(e),0,false,378159.10000002384,378158.8000000119,372115.357,372119.7000000477,372165.179,378176.896,1,40,35,
sequence,flow.Sequence,6_34,2023-11-17T18:27:13.932Z,,,,,,,,,,,5993.621000011917,completion,,,,,,,high,low,,,,,,true,,,,,false,378159.60000002384,378158.8000000119,372115.357,372119.60000002384,372165.179,378176.896,1,40,,
trial,html.Screen,6_35_0,2023-11-17T18:27:16.859Z,,,,1,-0.8809306963311293,0.8614910030038974,,,false,hl,2909.603999999992,response,0.7911024675435955,1.2,-1.2,-0.7975977016137676,1.2,-1.2,high,low,,ISIC_0013731.JPG,,ISIC_5813642.JPG,27,true,0.42000000000000026,hh,keypress(i),0,false,381086.90000003576,381086.5,378160.393,378159.90000003576,378176.896,381099.24,1,40,36,
sequence,flow.Sequence,6_35,2023-11-17T18:27:16.859Z,,,,,,,,,,,2909.603999999992,completion,,,,,,,high,low,,,,,,true,,,,,false,381087.40000003576,381086.5,378160.393,378159.90000003576,378176.896,381099.24,1,40,,
trial,html.Screen,6_36_0,2023-11-17T18:27:18.210Z,,,,1,-1.0870240111136478,-1.332340670965917,,,true,hh,1338.2600000000093,response,1.1762578943048685,1.2,-1.2,1.0434857167145009,1.2,-1.2,high,high,,ISIC_0000660.JPG,,ISIC_0032544.JPG,245,true,0.3600000000000002,hh,keypress(i),0,false,382437.5,382437.5,381082.483,381087.7000000477,381099.24,382468.575,1,40,37,
sequence,flow.Sequence,6_36,2023-11-17T18:27:18.210Z,,,,,,,,,,,1338.2600000000093,completion,,,,,,,high,high,,,,,,true,,,,,false,382437.7000000477,382437.5,381082.483,381087.5,381099.24,382468.575,1,40,,
trial,html.Screen,6_37_0,2023-11-17T18:27:20.226Z,,,,1,-0.8534691366511764,1.03975580494588,,,false,hl,1985.3250000357511,response,0.7870237732709365,1.2,-1.2,-0.9172955251119376,1.2,-1.2,high,low,,ISIC_0056788.JPG,,ISIC_0057716.JPG,27,true,0.42000000000000026,hh,keypress(i),0,false,384454.10000002384,384453.90000003576,382435.42,382437.7000000477,382468.575,384473.524,1,40,38,
sequence,flow.Sequence,6_37,2023-11-17T18:27:20.226Z,,,,,,,,,,,1985.3250000357511,completion,,,,,,,high,low,,,,,,true,,,,,false,384454.40000003576,384453.90000003576,382435.42,382437.7000000477,382468.575,384473.524,1,40,,
trial,html.Screen,6_38_0,2023-11-17T18:27:21.843Z,,,,1,-1.0870240111136478,-1.332340670965917,,,true,hh,1596.876000035787,response,1.24994064298842,1.2,-1.2,0.8554516937538746,1.2,-1.2,high,high,,ISIC_0000660.JPG,,ISIC_0061829.JPG,245,true,0.3600000000000002,hh,keypress(i),0,false,386070.8000000119,386070.40000003576,384439.311,384454.60000002384,384473.524,386075.583,1,40,39,
sequence,flow.Sequence,6_38,2023-11-17T18:27:21.843Z,,,,,,,,,,,1596.876000035787,completion,,,,,,,high,high,,,,,,true,,,,,false,386071.3000000119,386070.40000003576,384439.311,384454.5,384473.524,386075.583,1,40,,
trial,html.Screen,6_39_0,2023-11-17T18:27:23.875Z,,,,1,-1.0858641668099058,-1.1638942560200525,,,true,hh,2027.0170000238577,response,1.242586748440878,1.2,-1.2,1.1207933200172129,1.2,-1.2,high,high,,ISIC_5439597.JPG,,ISIC_0013073.JPG,53,true,0.15000000000000002,hh,keypress(i),0,false,388103,388102.60000002384,386059.035,386071.60000002384,386075.583,388112.978,1,40,40,
sequence,flow.Sequence,6_39,2023-11-17T18:27:23.876Z,,,,,,,,,,,2027.0170000238577,completion,,,,,,,high,high,,,,,,true,,,,,false,388103.40000003576,388102.60000002384,386059.035,386071.60000002384,386075.583,388112.978,1,40,,
practice_loop,flow.Loop,6,2023-11-17T18:27:23.876Z,,,,,,,,,,,158047.35200002385,completion,,,,,,,,,,,,,,true,,,,,false,388103.8000000119,388102.60000002384,230038.517,230048.30000001192,230055.248,388112.978,1,40,,
stair_instructions,html.Screen,7,2023-11-17T18:28:43.771Z,,,,,,,,,,,79884.82200001192,response,,,,,,,,,,,,,,,,continue,keypress(Space),,,467998.5,467997.8000000119,388096.301,388104,388112.978,468001.793,,,,
trial,html.Screen,8_0_0,2023-11-17T18:28:53.476Z,,,,2,-0.0134764727102299,-0.0033499036460912,,0.05,false,ll,9701.307000023837,response,-1.3411179702686655,1.2,-1.2,-1.255103311449152,1.2,-1.2,low,low,,ISIC_0009998.JPG,,ISIC_5611010.JPG,26,false,0.15000000000000002,hl,keypress(j),0,true,477703.40000003576,477703.10000002384,467984.46,467999,468001.793,477720.641,1,40,1,
sequence,flow.Sequence,8_0,2023-11-17T18:28:53.477Z,,,,,,,,,,,9701.307000023837,completion,,,,,,,low,low,,,,,,false,,,,,true,477704.10000002384,477703.10000002384,467984.46,467998.90000003576,468001.793,477720.641,1,40,,
trial,html.Screen,8_1_0,2023-11-17T18:28:57.508Z,,,,2,0.0050679133050021,-0.0009714874637896,,0.05,true,hh,4014.1590000119177,response,1.2015106101917423,1.15,-1.2,1.071085024260525,1.15,-1.15,high,high,,ISIC_9848743.JPG,,ISIC_0072496.JPG,27,false,0.1,hh,keypress(i),0,true,481735.10000002384,481734.8000000119,477704.109,477704.3000000119,477720.641,481745.163,1,40,2,
sequence,flow.Sequence,8_1,2023-11-17T18:28:57.508Z,,,,,,,,,,,4014.1590000119177,completion,,,,,,,high,high,,,,,,false,,,,,true,481735.5,481734.8000000119,477704.109,477704.3000000119,477720.641,481745.163,1,40,,
trial,html.Screen,8_2_0,2023-11-17T18:28:59.812Z,,,,2,0.0070725527271049,0.0049995141077508,,0.05,true,hh,2293.7370000357623,response,1.2071341803968807,1.15,-1.15,1.235960269089932,1.15,-1.15,high,high,,ISIC_6124481.JPG,,ISIC_0058174.JPG,27,false,0.1,hh,keypress(i),0,true,484039.3000000119,484038.90000003576,481728.689,481735.8000000119,481745.163,484049.625,1,40,3,
sequence,flow.Sequence,8_2,2023-11-17T18:28:59.813Z,,,,,,,,,,,2293.7370000357623,completion,,,,,,,high,high,,,,,,false,,,,,true,484039.8000000119,484038.90000003576,481728.689,481735.7000000477,481745.163,484049.625,1,40,,
trial,html.Screen,8_3_0,2023-11-17T18:29:01.588Z,,,,2,-0.0102460616775615,0.0309670599545429,,0.05,true,hh,1765.175000011921,response,1.1254252603792554,1.1035226466752286,-1.15,1.0263116781284176,1.1035226466752286,-1.15,high,high,,ISIC_0072041.JPG,,ISIC_0032420.JPG,30,false,0.1,hh,keypress(i),0,true,485815.10000002384,485814.8000000119,484033.092,484040.10000002384,484049.625,485836.448,1,40,4,
sequence,flow.Sequence,8_3,2023-11-17T18:29:01.588Z,,,,,,,,,,,1765.175000011921,completion,,,,,,,high,high,,,,,,false,,,,,true,485815.7000000477,485814.8000000119,484033.092,484040,484049.625,485836.448,1,40,,
trial,html.Screen,8_4_0,2023-11-17T18:29:03.788Z,,,,2,,-0.0264544974620926,,0.05,true,hl,2178.752000047709,response,0.796241477082623,1.1035226466752286,-1.15,-0.9017449335975743,1.1035226466752286,-1.15,high,low,,ISIC_0056991.JPG,,ISIC_8588033.JPG,28,false,0.3600000000000002,hl,keypress(j),0,true,488015.60000002384,488015.2000000477,485803.227,485815.90000003576,485836.448,488024.049,1,40,5,
sequence,flow.Sequence,8_4,2023-11-17T18:29:03.789Z,,,,,,,,,,,2178.752000047709,completion,,,,,,,high,low,,,,,,false,,,,,true,488016.10000002384,488015.2000000477,485803.227,485815.90000003576,485836.448,488024.049,1,40,,
trial,html.Screen,8_5_0,2023-11-17T18:29:09.364Z,,,,2,0.0085520978188085,-0.0464691161264081,,0.05,true,ll,5566.951000000001,response,-1.200284020742371,1.0535226466752285,-1.15,-1.0002918079433898,1.1035226466752286,-1.0999999999999999,low,low,,ISIC_0758797.JPG,,ISIC_0678758.JPG,25,false,0.1,ll,keypress(f),0,true,493591.3000000119,493591,488007.399,488016.3000000119,488024.049,493601.547,1,40,6,
sequence,flow.Sequence,8_5,2023-11-17T18:29:09.365Z,,,,,,,,,,,5566.951000000001,completion,,,,,,,low,low,,,,,,false,,,,,true,493591.90000003576,493591,488007.399,488016.2000000477,488024.049,493601.547,1,40,,
trial,html.Screen,8_6_0,2023-11-17T18:29:12.148Z,,,,2,0.0069555338059566,-0.0310100918136373,,0.05,false,hl,2773.2530000119004,response,1.0213365328004047,1.0535226466752285,-1.15,-1.088524359911891,1.1035226466752286,-1.0999999999999999,high,low,,ISIC_0011177.JPG,,ISIC_5434229.JPG,27,false,0.31000000000000016,hh,keypress(i),0,true,496375.2000000477,496374.8000000119,493585.025,493592.10000002384,493601.547,496390.305,1,40,7,
sequence,flow.Sequence,8_6,2023-11-17T18:29:12.149Z,,,,,,,,,,,2773.2530000119004,completion,,,,,,,high,low,,,,,,false,,,,,true,496375.7000000477,496374.8000000119,493585.025,493592.10000002384,493601.547,496390.305,1,40,,
trial,html.Screen,8_7_0,2023-11-17T18:29:20.516Z,,,,2,0.0324770283903853,0.0249968632204382,,0.05,false,hl,8352.59500003577,response,0.7871162143493278,1.0535226466752285,-1.15,-0.8429329800778957,1.1035226466752286,-1.15,high,low,,ISIC_7266462.JPG,,ISIC_3439215.JPG,27,false,0.3500000000000002,hh,keypress(i),0,true,504743.2000000477,504742.90000003576,496373.845,496376,496390.305,504756.628,1,40,8,
sequence,flow.Sequence,8_7,2023-11-17T18:29:20.517Z,,,,,,,,,,,8352.59500003577,completion,,,,,,,high,low,,,,,,false,,,,,true,504743.8000000119,504742.90000003576,496373.845,496375.90000003576,496390.305,504756.628,1,40,,
trial,html.Screen,8_8_0,2023-11-17T18:29:23.500Z,,,,2,0.0057914759495055,0.0074667911845194,,0.05,false,lh,2970.2720000357367,response,-0.869932994914832,0.8542263735748662,-1.15,0.8880533324432531,1.1035226466752286,-1.15,low,high,,ISIC_0058723.JPG,,ISIC_8617084.JPG,27,false,0.30000000000000016,hh,keypress(i),0,true,507727.3000000119,507726.90000003576,504740.085,504744,504756.628,507746.592,1,40,9,
sequence,flow.Sequence,8_8,2023-11-17T18:29:23.501Z,,,,,,,,,,,2970.2720000357367,completion,,,,,,,low,high,,,,,,false,,,,,true,507727.7000000477,507726.90000003576,504740.085,504743.90000003576,504756.628,507746.592,1,40,,
trial,html.Screen,8_9_0,2023-11-17T18:29:27.764Z,,,,2,-0.0348234368746005,0.0236866303880924,,0.05,true,lh,4244.008000023838,response,-0.9433720631499012,0.8542263735748662,-1.15,1.0582071940347648,0.9046949326218289,-1.15,low,high,,ISIC_0011099.JPG,,ISIC_4890201.JPG,26,false,0.2300000000000001,lh,keypress(e),0,true,511990.90000003576,511990.60000002384,507712.525,507728,507746.592,512004.058,1,40,10,
sequence,flow.Sequence,8_9,2023-11-17T18:29:27.764Z,,,,,,,,,,,4244.008000023838,completion,,,,,,,low,high,,,,,,false,,,,,true,511991.5,511990.60000002384,507712.525,507727.90000003576,507746.592,512004.058,1,40,,
trial,html.Screen,8_10_0,2023-11-17T18:29:31.866Z,,,,2,-0.0362376068089956,-0.047825070846155,,0.05,false,hl,4089.1420000476646,response,0.7118141631588264,0.8542263735748662,-1.15,-1.0369885917487718,0.9046949326218289,-1.15,high,low,,ISIC_6985114.JPG,,ISIC_6917681.JPG,26,false,0.2400000000000001,lh,keypress(e),0,true,516093.3000000119,516093.2000000477,511987.564,511991.7000000477,512004.058,516095.329,1,40,11,
sequence,flow.Sequence,8_10,2023-11-17T18:29:31.866Z,,,,,,,,,,,4089.1420000476646,completion,,,,,,,high,low,,,,,,false,,,,,true,516093.5,516093.2000000477,511987.564,511991.60000002384,512004.058,516095.329,1,40,,
trial,html.Screen,8_11_0,2023-11-17T18:29:33.700Z,,,,2,0.0329095507339554,-0.0382899749693245,,0.05,true,hh,1831.170999999973,response,0.8068224817535752,0.9042263735748662,-1.15,0.8996141262602615,0.9046949326218289,-1.15,high,high,,ISIC_8812781.JPG,,ISIC_0059601.JPG,41,false,0.1,hh,keypress(i),0,true,517926.8000000119,517926.5,516078.889,516093.5,516095.329,517932.264,1,40,12,
sequence,flow.Sequence,8_11,2023-11-17T18:29:33.700Z,,,,,,,,,,,1831.170999999973,completion,,,,,,,high,high,,,,,,false,,,,,true,517927.2000000477,517926.5,516078.889,516093.5,516095.329,517932.264,1,40,,
trial,html.Screen,8_12_0,2023-11-17T18:29:36.324Z,,,,2,0.0329095507339554,-0.0382899749693245,,0.05,false,lh,2618.336000023817,response,-1.2695509547992938,0.9042263735748662,-1.15,0.9641099676945492,0.8032183040069183,-1.15,low,high,,ISIC_8812781.JPG,,ISIC_0025841.JPG,27,false,0.19000000000000006,ll,keypress(f),0,true,520550.90000003576,520550.60000002384,517915.564,517927.5,517932.264,520554.114,1,40,13,
sequence,flow.Sequence,8_12,2023-11-17T18:29:36.324Z,,,,,,,,,,,2618.336000023817,completion,,,,,,,low,high,,,,,,false,,,,,true,520551.40000003576,520550.60000002384,517915.564,517927.3000000119,517932.264,520554.114,1,40,,
trial,html.Screen,8_13_0,2023-11-17T18:29:38.372Z,,,,2,-0.000047919190197942736,-0.0462652940855003,,0.05,true,ll,2044.3859999999986,response,-1.2024083555600384,0.9042263735748662,-1.0999999999999999,-1.149077673153018,0.8532183040069183,-1.15,low,low,,ISIC_0011507.JPG,,ISIC_3566243.JPG,30,false,0.13,ll,keypress(f),0,true,522598.8000000119,522598.5,520537.474,520551.60000002384,520554.114,522608.03,1,40,14,
sequence,flow.Sequence,8_13,2023-11-17T18:29:38.372Z,,,,,,,,,,,2044.3859999999986,completion,,,,,,,low,low,,,,,,false,,,,,true,522599.2000000477,522598.5,520537.474,520551.5,520554.114,522608.03,1,40,,
trial,html.Screen,8_14_0,2023-11-17T18:29:41.036Z,,,,2,-0.0134764727102299,-0.0033499036460912,,0.05,true,ll,2654.570000023814,response,-1.2148140264214349,0.9042263735748662,-1.0999999999999999,-1.0436713726380966,0.8532183040069183,-1.15,low,low,,ISIC_0009998.JPG,,ISIC_7277310.JPG,30,false,0.13,ll,keypress(f),0,true,525262.9000000358,525262.6000000238,522591.558,522599.40000003576,522608.03,525280.156,1,40,15,
sequence,flow.Sequence,8_14,2023-11-17T18:29:41.036Z,,,,,,,,,,,2654.570000023814,completion,,,,,,,low,low,,,,,,false,,,,,true,525263.3000000119,525262.6000000238,522591.558,522599.40000003576,522608.03,525280.156,1,40,,
trial,html.Screen,8_15_0,2023-11-17T18:29:48.133Z,,,,2,0.039728379742806,-0.0228701131373768,,0.05,false,ll,7078.944000023883,response,-0.9859190680307316,0.9042263735748662,-1.0463745228955572,-1.0904756837966545,0.8532183040069183,-1.0463745228955572,low,low,,ISIC_0054073.JPG,,ISIC_0063151.JPG,25,false,0.1,lh,keypress(e),0,true,532359.4000000358,532359.1000000238,525263.407,525263.6000000238,525280.156,532377.052,1,40,16,
sequence,flow.Sequence,8_15,2023-11-17T18:29:48.133Z,,,,,,,,,,,7078.944000023883,completion,,,,,,,low,low,,,,,,false,,,,,true,532359.9000000358,532359.1000000238,525263.407,525263.5,525280.156,532377.052,1,40,,
trial,html.Screen,8_16_0,2023-11-17T18:29:51.852Z,,,,2,-0.0159061451859594,-0.0296598845560212,,0.05,false,hl,3701.748000011896,response,0.796241477082623,0.9042263735748662,-1.0463745228955572,-0.9017449335975743,0.8532183040069183,-1.0963745228955573,high,low,,ISIC_0072564.JPG,,ISIC_8588033.JPG,27,false,0.2600000000000001,hh,keypress(i),0,true,536079.1000000238,536078.8000000119,532360.477,532360.1000000238,532377.052,536084.263,1,40,17,
sequence,flow.Sequence,8_16,2023-11-17T18:29:51.853Z,,,,,,,,,,,3701.748000011896,completion,,,,,,,high,low,,,,,,false,,,,,true,536079.6000000238,536078.8000000119,532360.477,532360.1000000238,532377.052,536084.263,1,40,,
trial,html.Screen,8_17_0,2023-11-17T18:30:02.845Z,,,,2,-0.0097091270150747,0.0417921315885292,,0.05,false,lh,10986.736999999965,response,-1.034740231914001,0.8542263735748662,-1.0463745228955572,0.6844507507038213,0.8532183040069183,-1.1463745228955573,low,high,,ISIC_3967213.JPG,,ISIC_8569205.JPG,27,false,0.19000000000000006,hl,keypress(j),0,true,547071.4000000358,547071,536067.649,536079.8000000119,536084.263,547089.019,1,40,18,
sequence,flow.Sequence,8_17,2023-11-17T18:30:02.845Z,,,,,,,,,,,10986.736999999965,completion,,,,,,,low,high,,,,,,false,,,,,true,547071.8000000119,547071,536067.649,536079.8000000119,536084.263,547089.019,1,40,,
trial,html.Screen,8_18_0,2023-11-17T18:30:08.707Z,,,,2,0.039728379742806,-0.0228701131373768,,0.05,false,hl,5844.681000047713,response,0.7118141631588264,0.8542263735748662,-1.0963745228955573,-1.0369885917487718,0.9032183040069184,-1.1463745228955573,high,low,,ISIC_0054073.JPG,,ISIC_6917681.JPG,26,false,0.2400000000000001,lh,keypress(e),0,true,552933.9000000358,552933.7000000477,547072.222,547072,547089.019,552950.455,1,40,19,
sequence,flow.Sequence,8_18,2023-11-17T18:30:08.707Z,,,,,,,,,,,5844.681000047713,completion,,,,,,,high,low,,,,,,false,,,,,true,552934.1000000238,552933.7000000477,547072.222,547072,547089.019,552950.455,1,40,,
trial,html.Screen,8_19_0,2023-11-17T18:30:16.491Z,,,,2,0.0050679133050021,-0.0009714874637896,,0.05,false,ll,7766.945000035805,response,-1.1653123206802332,0.9042263735748662,-1.0963745228955573,-1.2976858999596654,0.9032183040069184,-1.1963745228955573,low,low,,ISIC_9848743.JPG,,ISIC_0071508.JPG,26,false,0.13,hl,keypress(j),0,true,560717.5,560717.4000000358,552933.94,552934.1000000238,552950.455,560732.226,1,40,20,
sequence,flow.Sequence,8_19,2023-11-17T18:30:16.491Z,,,,,,,,,,,7766.945000035805,completion,,,,,,,low,low,,,,,,false,,,,,true,560717.7000000477,560717.4000000358,552933.94,552934.1000000238,552950.455,560732.226,1,40,,
trial,html.Screen,8_20_0,2023-11-17T18:30:22.549Z,,,,2,0.0107854985447517,0.0478010417136109,,0.05,true,ll,6042.773999999976,response,-1.241406480986552,0.9042263735748662,-1.1463745228955573,-1.081912821786771,0.9032183040069184,-1.1963745228955573,low,low,,ISIC_0010500.JPG,,ISIC_4223155.JPG,25,false,0.13,ll,keypress(f),0,true,566775.3000000119,566775,560715.695,560717.7000000477,560732.226,566794.647,1,40,21,
sequence,flow.Sequence,8_20,2023-11-17T18:30:22.549Z,,,,,,,,,,,6042.773999999976,completion,,,,,,,low,low,,,,,,false,,,,,true,566775.8000000119,566775,560715.695,560717.7000000477,560732.226,566794.647,1,40,,
trial,html.Screen,8_21_0,2023-11-17T18:30:33.269Z,,,,2,0.0070725527271049,0.0049995141077508,,0.05,true,ll,10700.253000035766,response,-1.09666761087476,0.9042263735748662,-1.1463745228955573,-1.1072126870290426,0.9032183040069184,-1.1116596513866615,low,low,,ISIC_6124481.JPG,,ISIC_0071754.JPG,28,false,0.11,ll,keypress(f),0,true,577495.3000000119,577494.9000000358,566760.728,566776.1000000238,566794.647,577498.301,1,40,22,
sequence,flow.Sequence,8_21,2023-11-17T18:30:33.269Z,,,,,,,,,,,10700.253000035766,completion,,,,,,,low,low,,,,,,false,,,,,true,577495.9000000358,577494.9000000358,566760.728,566776,566794.647,577498.301,1,40,,
trial,html.Screen,8_22_0,2023-11-17T18:30:41.100Z,,,,2,0.0107854985447517,0.0478010417136109,,0.05,true,hh,7828.499000011943,response,0.8488468966866934,0.9042263735748662,-1.0519401489519014,0.9438364121327284,0.9032183040069184,-1.1116596513866615,high,high,,ISIC_0010500.JPG,,ISIC_0010749.JPG,40,false,0.1,hh,keypress(i),0,true,585327.2000000477,585326.8000000119,577481.593,577496.1000000238,577498.301,585363.525,1,40,23,
sequence,flow.Sequence,8_22,2023-11-17T18:30:41.101Z,,,,,,,,,,,7828.499000011943,completion,,,,,,,high,high,,,,,,false,,,,,true,585327.7000000477,585326.8000000119,577481.593,577496.1000000238,577498.301,585363.525,1,40,,
trial,html.Screen,8_23_0,2023-11-17T18:30:43.348Z,,,,2,0.0085520978188085,-0.0464691161264081,,0.05,false,lh,2210.6750000476604,response,-1.1097716037944447,0.9042263735748662,-1.0519401489519014,0.726994437314983,0.9032183040069184,-1.1116596513866615,low,high,,ISIC_0758797.JPG,,ISIC_0000139.JPG,28,false,0.20000000000000007,hh,keypress(i),0,true,587574.4000000358,587574.2000000477,585313.554,585328,585363.525,587584.571,1,40,24,
sequence,flow.Sequence,8_23,2023-11-17T18:30:43.348Z,,,,,,,,,,,2210.6750000476604,completion,,,,,,,low,high,,,,,,false,,,,,true,587574.7000000477,587574.2000000477,585313.554,585327.9000000358,585363.525,587584.571,1,40,,
trial,html.Screen,8_24_0,2023-11-17T18:30:46.885Z,,,,2,-0.0097091270150747,0.0417921315885292,,0.05,true,hh,3526.3290000357665,response,0.9152802917888962,0.9042263735748662,-1.1019401489519014,0.8414601987949015,0.7854154247238556,-1.1116596513866615,high,high,,ISIC_3967213.JPG,,ISIC_0060341.JPG,52,false,0.1,hh,keypress(i),0,true,591111.1000000238,591110.9000000358,587567.963,587574.8000000119,587584.571,591124.734,1,40,25,
sequence,flow.Sequence,8_24,2023-11-17T18:30:46.885Z,,,,,,,,,,,3526.3290000357665,completion,,,,,,,high,high,,,,,,false,,,,,true,591111.7000000477,591110.9000000358,587567.963,587574.8000000119,587584.571,591124.734,1,40,,
trial,html.Screen,8_25_0,2023-11-17T18:30:48.821Z,,,,2,0.0085520978188085,-0.0464691161264081,,0.05,false,lh,1922.366000023787,response,-1.0363634319020814,0.8283702452918988,-1.1019401489519014,0.6512793949410997,0.7854154247238556,-1.1116596513866615,low,high,,ISIC_0758797.JPG,,ISIC_0064979.JPG,25,false,0.18000000000000005,hh,keypress(i),0,true,593047.4000000358,593047.1000000238,591108.21,591111.9000000358,591124.734,593061.843,1,40,26,
sequence,flow.Sequence,8_25,2023-11-17T18:30:48.822Z,,,,,,,,,,,1922.366000023787,completion,,,,,,,low,high,,,,,,false,,,,,true,593047.9000000358,593047.1000000238,591108.21,591111.8000000119,591124.734,593061.843,1,40,,
trial,html.Screen,8_26_0,2023-11-17T18:30:52.259Z,,,,2,0.0456515796420274,-0.0273567130070961,,0.05,true,lh,3423.8570000476902,response,-1.2931758493905836,0.8283702452918988,-1.1519401489519014,0.6816153808056667,0.6963697968680005,-1.1116596513866615,low,high,,ISIC_0068610.JPG,,ISIC_3448630.JPG,30,false,0.19000000000000006,lh,keypress(e),0,true,596485.8000000119,596485.7000000477,593045.371,593048.1000000238,593061.843,596502.159,1,40,27,
sequence,flow.Sequence,8_26,2023-11-17T18:30:52.260Z,,,,,,,,,,,3423.8570000476902,completion,,,,,,,low,high,,,,,,false,,,,,true,596485.9000000358,596485.7000000477,593045.371,593048.1000000238,593061.843,596502.159,1,40,,
trial,html.Screen,8_27_0,2023-11-17T18:30:55.693Z,,,,2,0.0069555338059566,-0.0310100918136373,,0.05,false,hh,3416.841000000015,response,0.7478461908807912,0.8283702452918988,-1.1519401489519014,0.6411642360419201,0.6963697968680005,-1.1116596513866615,high,high,,ISIC_0011177.JPG,,ISIC_0000467.JPG,77,false,0.1,hl,keypress(j),0,true,599919.3000000119,599919,596485.264,596486,596502.159,599941.902,1,40,28,
sequence,flow.Sequence,8_27,2023-11-17T18:30:55.693Z,,,,,,,,,,,3416.841000000015,completion,,,,,,,high,high,,,,,,false,,,,,true,599919.8000000119,599919,596485.264,596486,596502.159,599941.902,1,40,,
trial,html.Screen,8_28_0,2023-11-17T18:30:57.813Z,,,,2,-0.0277178575053843,0.0395587463147856,,0.05,true,hh,2096.898000011919,response,0.7475880944440063,0.8283702452918988,-1.1519401489519014,0.7111625626618838,0.7463697968680005,-1.1116596513866615,high,high,,ISIC_0010807.JPG,,ISIC_0061184.JPG,68,false,0.1,hh,keypress(i),0,true,602039.1000000238,602038.8000000119,599908.464,599920.1000000238,599941.902,602045.992,1,40,29,
sequence,flow.Sequence,8_28,2023-11-17T18:30:57.813Z,,,,,,,,,,,2096.898000011919,completion,,,,,,,high,high,,,,,,false,,,,,true,602039.7000000477,602038.8000000119,599908.464,599920,599941.902,602045.992,1,40,,
trial,html.Screen,8_29_0,2023-11-17T18:31:00.725Z,,,,2,-0.0134764727102299,-0.0033499036460912,,0.05,true,hh,2904.6080000238726,response,0.6654089915804182,0.679375328552945,-1.1519401489519014,0.8008994515111975,0.7463697968680005,-1.1116596513866615,high,high,,ISIC_0009998.JPG,,ISIC_8172822.JPG,68,false,0.1,hh,keypress(i),0,true,604951,604950.6000000238,602029.475,602039.9000000358,602045.992,604968.33,1,40,30,
sequence,flow.Sequence,8_29,2023-11-17T18:31:00.725Z,,,,,,,,,,,2904.6080000238726,completion,,,,,,,high,high,,,,,,false,,,,,true,604951.4000000358,604950.6000000238,602029.475,602039.8000000119,602045.992,604968.33,1,40,,
trial,html.Screen,8_30_0,2023-11-17T18:31:03.805Z,,,,2,0.0456515796420274,-0.0273567130070961,,0.05,false,hl,3062.2700000238838,response,0.5024960662469193,0.679375328552945,-1.1519401489519014,-1.1055185688067006,0.6831542215458077,-1.1116596513866615,high,low,,ISIC_0068610.JPG,,ISIC_4533833.JPG,25,false,0.19000000000000006,hh,keypress(i),0,true,608031,608030.6000000238,604951.815,604951.7000000477,604968.33,608041.006,1,40,31,
sequence,flow.Sequence,8_30,2023-11-17T18:31:03.805Z,,,,,,,,,,,3062.2700000238838,completion,,,,,,,high,low,,,,,,false,,,,,true,608031.5,608030.6000000238,604951.815,604951.7000000477,604968.33,608041.006,1,40,,
trial,html.Screen,8_31_0,2023-11-17T18:31:05.965Z,,,,2,0.0456515796420274,-0.0273567130070961,,0.05,true,hh,2150.0940000237897,response,0.5772401240887587,0.5339525289136687,-1.1519401489519014,0.7740914362745676,0.6831542215458077,-1.1616596513866615,high,high,,ISIC_0068610.JPG,,ISIC_0054312.JPG,88,false,0.1,hh,keypress(i),0,true,610191.4000000358,610191.1000000238,608024.547,608031.7000000477,608041.006,610195.264,1,40,32,
sequence,flow.Sequence,8_31,2023-11-17T18:31:05.966Z,,,,,,,,,,,2150.0940000237897,completion,,,,,,,high,high,,,,,,false,,,,,true,610192,610191.1000000238,608024.547,608031.7000000477,608041.006,610195.264,1,40,,
trial,html.Screen,8_32_0,2023-11-17T18:31:14.268Z,,,,2,0.0363437082783146,0.0333332186217051,,0.05,false,ll,8299.236000000034,response,-1.0717785279820962,0.5339525289136687,-1.1519401489519014,-1.1267239445830604,0.6831542215458077,-1.1616596513866615,low,low,,ISIC_3314555.JPG,,ISIC_9948815.JPG,26,false,0.13,lh,keypress(e),0,true,618494.8000000119,618494.5,610178.716,610192.2000000477,610195.264,618511.463,1,40,33,
sequence,flow.Sequence,8_32,2023-11-17T18:31:14.269Z,,,,,,,,,,,8299.236000000034,completion,,,,,,,low,low,,,,,,false,,,,,true,618495.1000000238,618494.5,610178.716,610192.1000000238,610195.264,618511.463,1,40,,
trial,html.Screen,8_33_0,2023-11-17T18:31:22.515Z,,,,2,0.0116094682222121,-0.0258434522530318,,0.05,true,hl,8230.237000047695,response,0.5208163483939755,0.5339525289136687,-1.1019401489519014,-1.1047904380696325,0.6831542215458077,-1.1616596513866615,high,low,,ISIC_9239632.JPG,,ISIC_2039579.JPG,25,false,0.14,hl,keypress(j),0,true,626741.8000000119,626741.7000000477,618494.659,618495.4000000358,618511.463,626744.04,1,40,34,
sequence,flow.Sequence,8_33,2023-11-17T18:31:22.516Z,,,,,,,,,,,8230.237000047695,completion,,,,,,,high,low,,,,,,false,,,,,true,626742,626741.7000000477,618494.659,618495.3000000119,618511.463,626744.04,1,40,,
trial,html.Screen,8_34_0,2023-11-17T18:31:27.165Z,,,,2,0.0363437082783146,0.0333332186217051,,0.05,true,hl,4646.959999999963,response,0.3442786145275699,0.48395252891366874,-1.1019401489519014,-1.2684137743830226,0.6831542215458077,-1.1616596513866615,high,low,,ISIC_3314555.JPG,,ISIC_9330527.JPG,30,false,0.14,hl,keypress(j),0,true,631391.2000000477,631391,626727.533,626742,626744.04,631403.138,1,40,35,
sequence,flow.Sequence,8_34,2023-11-17T18:31:27.165Z,,,,,,,,,,,4646.959999999963,completion,,,,,,,high,low,,,,,,false,,,,,true,631391.7000000477,631391,626727.533,626742,626744.04,631403.138,1,40,,
trial,html.Screen,8_35_0,2023-11-17T18:31:30.885Z,,,,2,-0.0188047466661863,0.0288346930436979,,0.05,true,ll,3707.5620000476483,response,-1.0316392011945703,0.48395252891366874,-1.1019401489519014,-1.1580619988377847,0.6831542215458077,-1.1116596513866615,low,low,,ISIC_0014157.JPG,,ISIC_0054206.JPG,27,false,0.11,ll,keypress(f),0,true,635111.1000000238,635110.7000000477,631386.593,631392.1000000238,631403.138,635127.131,1,40,36,
sequence,flow.Sequence,8_35,2023-11-17T18:31:30.885Z,,,,,,,,,,,3707.5620000476483,completion,,,,,,,low,low,,,,,,false,,,,,true,635111.6000000238,635110.7000000477,631386.593,631392,631403.138,635127.131,1,40,,
trial,html.Screen,8_36_0,2023-11-17T18:31:33.893Z,,,,2,-0.0362376068089956,-0.047825070846155,,0.05,true,hl,2992.0690000476316,response,0.4722666895990076,0.48395252891366874,-1.1019401489519014,-1.0261538577317344,0.6831542215458077,-1.1116596513866615,high,low,,ISIC_6985114.JPG,,ISIC_0031357.JPG,25,false,0.13,hl,keypress(j),0,true,638119.5,638119.2000000477,635110.572,635111.9000000358,635127.131,638132.902,1,40,37,
sequence,flow.Sequence,8_36,2023-11-17T18:31:33.894Z,,,,,,,,,,,2992.0690000476316,completion,,,,,,,high,low,,,,,,false,,,,,true,638120,638119.2000000477,635110.572,635111.8000000119,635127.131,638132.902,1,40,,
trial,html.Screen,8_37_0,2023-11-17T18:31:38.755Z,,,,2,0.0217698886732706,-0.0410870915161425,,0.05,false,lh,4848.498000035761,response,-1.024809173714207,0.48395252891366874,-1.1019401489519014,0.5647059613890157,0.6831542215458077,-1.0421079282847596,low,high,,ISIC_0072173.JPG,,ISIC_0025783.JPG,28,false,0.17000000000000004,ll,keypress(f),0,true,642981.4000000358,642981.4000000358,638116.412,638120.3000000119,638132.902,642992.378,1,40,38,
sequence,flow.Sequence,8_37,2023-11-17T18:31:38.755Z,,,,,,,,,,,4848.498000035761,completion,,,,,,,low,high,,,,,,false,,,,,true,642981.5,642981.4000000358,638116.412,638120.2000000477,638132.902,642992.378,1,40,,
trial,html.Screen,8_38_0,2023-11-17T18:31:41.349Z,,,,2,-0.0051189696037511,0.0396625911332438,,0.05,false,lh,2582.5220000357367,response,-0.9514031565526356,0.48395252891366874,-1.0414355862759959,0.6052368961457435,0.7331542215458078,-1.0421079282847596,low,high,,ISIC_9742891.JPG,,ISIC_0067412.JPG,27,false,0.17000000000000004,hh,keypress(i),0,true,645575.3000000119,645574.9000000358,642975.633,642981.6000000238,642992.378,645580.709,1,40,39,
sequence,flow.Sequence,8_38,2023-11-17T18:31:41.349Z,,,,,,,,,,,2582.5220000357367,completion,,,,,,,low,high,,,,,,false,,,,,true,645575.8000000119,645574.9000000358,642975.633,642981.6000000238,642992.378,645580.709,1,40,,
trial,html.Screen,8_39_0,2023-11-17T18:31:44.021Z,,,,2,0.0107854985447517,0.0478010417136109,,0.05,false,lh,2666.39100002381,response,-1.1143840156421263,0.48395252891366874,-1.091435586275996,0.5760729760192603,0.7331542215458078,-1.0421079282847596,low,high,,ISIC_0010500.JPG,,ISIC_0572205.JPG,26,false,0.19000000000000006,ll,keypress(f),0,true,648247.5,648247.1000000238,645564.281,645576.1000000238,645580.709,648252.597,1,40,40,
sequence,flow.Sequence,8_39,2023-11-17T18:31:44.022Z,,,,,,,,,,,2666.39100002381,completion,,,,,,,low,high,,,,,,false,,,,,true,648248,648247.1000000238,645564.281,645576,645580.709,648252.597,1,40,,
stair_loop,flow.Loop,8,2023-11-17T18:31:44.022Z,,,,,,,,,,,180245.30700002384,completion,,,,,,,,,,,,,,false,,,,,true,648248.3000000119,648247.1000000238,467984.46,467998.8000000119,468001.793,648252.597,1,40,,
exp_instructions,html.Screen,9,2023-11-17T18:32:30.116Z,,,,,,,,,,,46088.70300001197,response,,,,,,,,,,,,,,,,continue,keypress(Space),,,694341.7000000477,694341.3000000119,648235.991,648248.5,648252.597,694359.741,,,,
trial,html.Screen,10_0_0,2023-11-17T18:32:36.045Z,,,,1,0.039728379742806,-0.0228701131373768,,0.05,false,hh,5911.159000035725,response,0.7217326688439986,0.6849468133185418,-1.1153331300786762,0.7521168894214699,0.7500362734202731,-1.115462636496821,high,high,,ISIC_0054073.JPG,8,ISIC_0030080.JPG,70,false,0.1,hl,keypress(j),0,false,700271.3000000119,700270.9000000358,694341.952,694341.9000000358,694359.741,700287.352,4,500,1,
break,html.Screen,10_0_1,2023-11-17T18:32:36.047Z,,,,,,,,,,,NaN,,,,,,,,high,high,,,,,,false,,,,,false,700272.7000000477,700272.2000000477,,700271.7000000477,,700287.352,4,500,,
break_continue,html.Screen,10_0_2,2023-11-17T18:32:36.048Z,,,,,,,,,,,NaN,,,,,,,,high,high,,,,,,false,,,,,false,700273.7000000477,700273.2000000477,,700272.9000000358,,700287.352,4,500,,
sequence,flow.Sequence,10_0,2023-11-17T18:32:36.048Z,,,,,,,,,,,5913.4590000476455,completion,,,,,,,high,high,,,,,,false,,,,,false,700274,700273.2000000477,694341.952,694341.9000000358,694359.741,700287.352,4,500,,
trial,html.Screen,10_1_0,2023-11-17T18:32:38.637Z,,,,1,-0.0112310719058792,0.0469047359904117,,0.05,true,ll,2575.4480000119656,response,-1.09666761087476,0.6849468133185418,-1.1153331300786762,-1.1072126870290426,0.7500362734202731,-1.115462636496821,low,low,,ISIC_0068184.JPG,9,ISIC_0071754.JPG,27,false,0.11,ll,keypress(f),0,false,702863.1000000238,702862.8000000119,700270.457,700274.4000000358,700287.352,702875.593,4,500,2,
break,html.Screen,10_1_1,2023-11-17T18:32:38.638Z,,,,,,,,,,,NaN,,,,,,,,low,low,,,,,,false,,,,,false,702864.5,702864.1000000238,,702863.6000000238,,702875.593,4,500,,
break_continue,html.Screen,10_1_2,2023-11-17T18:32:38.639Z,,,,,,,,,,,NaN,,,,,,,,low,low,,,,,,false,,,,,false,702865.2000000477,702864.9000000358,,702864.7000000477,,702875.593,4,500,,
sequence,flow.Sequence,10_1,2023-11-17T18:32:38.640Z,,,,,,,,,,,2577.5480000358075,completion,,,,,,,low,low,,,,,,false,,,,,false,702865.5,702864.9000000358,700270.457,700274.3000000119,700287.352,702875.593,4,500,,
trial,html.Screen,10_2_0,2023-11-17T18:32:41.693Z,,,,1,0.0069555338059566,-0.0310100918136373,,0.05,false,hl,3043.4070000000065,response,0.5817380271979394,0.6849468133185418,-1.1153331300786762,-1.2499674737468107,0.7500362734202731,-1.115462636496821,high,low,,ISIC_0011177.JPG,10,ISIC_0013617.JPG,25,false,0.19000000000000006,ll,keypress(f),0,false,705919.3000000119,705919,702859.12,702865.7000000477,702875.593,705931.541,4,500,3,
break,html.Screen,10_2_1,2023-11-17T18:32:41.695Z,,,,,,,,,,,NaN,,,,,,,,high,low,,,,,,false,,,,,false,705920.5,705920.2000000477,,705919.7000000477,,705931.541,4,500,,
break_continue,html.Screen,10_2_2,2023-11-17T18:32:41.695Z,,,,,,,,,,,NaN,,,,,,,,high,low,,,,,,false,,,,,false,705921.2000000477,705921.1000000238,,705920.7000000477,,705931.541,4,500,,
sequence,flow.Sequence,10_2,2023-11-17T18:32:41.696Z,,,,,,,,,,,3045.5070000238484,completion,,,,,,,high,low,,,,,,false,,,,,false,705921.6000000238,705921.1000000238,702859.12,702865.7000000477,702875.593,705931.541,4,500,,
trial,html.Screen,10_3_0,2023-11-17T18:32:44.620Z,,,,1,0.0116094682222121,-0.0258434522530318,,0.05,true,ll,2913.6590000477154,response,-1.0717785279820962,0.6849468133185418,-1.1153331300786762,-1.1267239445830604,0.7500362734202731,-1.115462636496821,low,low,,ISIC_9239632.JPG,9,ISIC_9948815.JPG,27,false,0.11,ll,keypress(f),0,false,708845.4000000358,708845.2000000477,705914.808,705921.7000000477,705931.541,708853.855,4,500,4,
break,html.Screen,10_3_1,2023-11-17T18:32:44.620Z,,,,,,,,,,,NaN,,,,,,,,low,low,,,,,,false,,,,,false,708845.8000000119,708845.6000000238,,708845.5,,708853.855,4,500,,
break_continue,html.Screen,10_3_2,2023-11-17T18:32:44.620Z,,,,,,,,,,,NaN,,,,,,,,low,low,,,,,,false,,,,,false,708846,708845.9000000358,,708845.8000000119,,708853.855,4,500,,
sequence,flow.Sequence,10_3,2023-11-17T18:32:44.620Z,,,,,,,,,,,2914.3590000357945,completion,,,,,,,low,low,,,,,,false,,,,,false,708846,708845.9000000358,705914.808,705921.7000000477,705931.541,708853.855,4,500,,
trial,html.Screen,10_4_0,2023-11-17T18:32:49.589Z,,,,1,-0.0134764727102299,-0.0033499036460912,,0.05,false,hh,4960.94500001194,response,0.7705311022248598,0.6849468133185418,-1.1153331300786762,0.8320229600727801,0.7500362734202731,-1.115462636496821,high,high,,ISIC_0009998.JPG,9,ISIC_0026802.JPG,70,false,0.1,lh,keypress(e),0,false,713815.1000000238,713814.8000000119,708837.448,708846,708853.855,713830.245,4,500,5,
break,html.Screen,10_4_1,2023-11-17T18:32:49.591Z,,,,,,,,,,,NaN,,,,,,,,high,high,,,,,,false,,,,,false,713816.4000000358,713816,,713815.5,,713830.245,4,500,,
break_continue,html.Screen,10_4_2,2023-11-17T18:32:49.591Z,,,,,,,,,,,NaN,,,,,,,,high,high,,,,,,false,,,,,false,713817.2000000477,713816.9000000358,,713816.6000000238,,713830.245,4,500,,
sequence,flow.Sequence,10_4,2023-11-17T18:32:49.592Z,,,,,,,,,,,4963.045000035781,completion,,,,,,,high,high,,,,,,false,,,,,false,713817.4000000358,713816.9000000358,708837.448,708846,708853.855,713830.245,4,500,,
trial,html.Screen,10_5_0,2023-11-17T18:32:51.612Z,,,,1,-0.0159061451859594,-0.0296598845560212,,0.05,false,lh,2007.1550000357674,response,-0.9644643328174062,0.6849468133185418,-1.1153331300786762,0.745333984830218,0.7500362734202731,-1.115462636496821,low,high,,ISIC_0072564.JPG,10,ISIC_0058046.JPG,27,false,0.18000000000000005,hh,keypress(i),0,false,715837.5,715837.4000000358,713813.8,713817.7000000477,713830.245,715867.548,4,500,6,
break,html.Screen,10_5_1,2023-11-17T18:32:51.612Z,,,,,,,,,,,NaN,,,,,,,,low,high,,,,,,false,,,,,false,715837.8000000119,715837.7000000477,,715837.6000000238,,715867.548,4,500,,
break_continue,html.Screen,10_5_2,2023-11-17T18:32:51.612Z,,,,,,,,,,,NaN,,,,,,,,low,high,,,,,,false,,,,,false,715838,715838,,715837.8000000119,,715867.548,4,500,,
sequence,flow.Sequence,10_5,2023-11-17T18:32:51.612Z,,,,,,,,,,,2007.7550000000047,completion,,,,,,,low,high,,,,,,false,,,,,false,715838,715838,713813.8,713817.5,713830.245,715867.548,4,500,,
trial,html.Screen,10_6_0,2023-11-17T18:33:02.333Z,,,,1,0.0050679133050021,-0.0009714874637896,,0.05,false,lh,10691.25200001197,response,-1.11969546505004,0.6849468133185418,-1.1153331300786762,0.7169584869657797,0.7500362734202731,-1.115462636496821,low,high,,ISIC_9848743.JPG,8,ISIC_0033967.JPG,27,false,0.18000000000000005,ll,keypress(f),0,false,726559.2000000477,726558.8000000119,715850.857,715838.1000000238,715867.548,726571.715,4,500,7,
break,html.Screen,10_6_1,2023-11-17T18:33:02.335Z,,,,,,,,,,,NaN,,,,,,,,low,high,,,,,,false,,,,,false,726560.3000000119,726560.1000000238,,726559.5,,726571.715,4,500,,
break_continue,html.Screen,10_6_2,2023-11-17T18:33:02.335Z,,,,,,,,,,,NaN,,,,,,,,low,high,,,,,,false,,,,,false,726561,726560.8000000119,,726560.6000000238,,726571.715,4,500,,
sequence,flow.Sequence,10_6,2023-11-17T18:33:02.336Z,,,,,,,,,,,10693.25200001197,completion,,,,,,,low,high,,,,,,false,,,,,false,726561.4000000358,726560.8000000119,715850.857,715838.1000000238,715867.548,726571.715,4,500,,
trial,html.Screen,10_7_0,2023-11-17T18:33:05.604Z,,,,1,0.0057914759495055,0.0074667911845194,,0.05,false,hl,3258.1850000357954,response,0.6971413872676647,0.6849468133185418,-1.1153331300786762,-0.9786113496628154,0.7500362734202731,-1.115462636496821,high,low,,ISIC_0058723.JPG,8,ISIC_8195528.JPG,25,false,0.19000000000000006,hh,keypress(i),0,false,729830.1000000238,729829.9000000358,726555.308,726561.6000000238,726571.715,729844.907,4,500,8,
break,html.Screen,10_7_1,2023-11-17T18:33:05.605Z,,,,,,,,,,,NaN,,,,,,,,high,low,,,,,,false,,,,,false,729830.6000000238,729830.5,,729830.2000000477,,729844.907,4,500,,
break_continue,html.Screen,10_7_2,2023-11-17T18:33:05.605Z,,,,,,,,,,,NaN,,,,,,,,high,low,,,,,,false,,,,,false,729830.9000000358,729830.9000000358,,729830.7000000477,,729844.907,4,500,,
sequence,flow.Sequence,10_7,2023-11-17T18:33:05.605Z,,,,,,,,,,,3259.1850000357954,completion,,,,,,,high,low,,,,,,false,,,,,false,729831.1000000238,729830.9000000358,726555.308,726561.6000000238,726571.715,729844.907,4,500,,
trial,html.Screen,10_8_0,2023-11-17T18:33:07.318Z,,,,1,-0.013431314305098,0.0140597582944232,,0.05,true,hh,1697.8930000119144,response,0.6281594146956871,0.6849468133185418,-1.1153331300786762,0.7657527703639139,0.7500362734202731,-1.115462636496821,high,high,,ISIC_0069617.JPG,10,ISIC_0067614.JPG,70,false,0.1,hh,keypress(i),0,false,731543.2000000477,731542.8000000119,729828.3,729831.1000000238,729844.907,731564.766,4,500,9,
break,html.Screen,10_8_1,2023-11-17T18:33:07.319Z,,,,,,,,,,,NaN,,,,,,,,high,high,,,,,,false,,,,,false,731544.5,731544.1000000238,,731543.6000000238,,731564.766,4,500,,
break_continue,html.Screen,10_8_2,2023-11-17T18:33:07.319Z,,,,,,,,,,,NaN,,,,,,,,high,high,,,,,,false,,,,,false,731545.2000000477,731545,,731544.7000000477,,731564.766,4,500,,
sequence,flow.Sequence,10_8,2023-11-17T18:33:07.320Z,,,,,,,,,,,1700.0929999999935,completion,,,,,,,high,high,,,,,,false,,,,,false,731545.5,731545,729828.3,729831.1000000238,729844.907,731564.766,4,500,,
trial,html.Screen,10_9_0,2023-11-17T18:33:09.070Z,,,,1,0.0116094682222121,-0.0258434522530318,,0.05,false,lh,1730.3340000238968,response,-1.0363634319020814,0.6849468133185418,-1.1153331300786762,0.6512793949410997,0.7500362734202731,-1.115462636496821,low,high,,ISIC_9239632.JPG,9,ISIC_0064979.JPG,27,false,0.18000000000000005,hh,keypress(i),0,false,733295.4000000358,733295.1000000238,731531.509,731545.7000000477,731564.766,733301.454,4,500,10,
break,html.Screen,10_9_1,2023-11-17T18:33:09.071Z,,,,,,,,,,,NaN,,,,,,,,low,high,,,,,,false,,,,,false,733296.5,733296.3000000119,,733295.7000000477,,733301.454,4,500,,
break_continue,html.Screen,10_9_2,2023-11-17T18:33:09.071Z,,,,,,,,,,,NaN,,,,,,,,low,high,,,,,,false,,,,,false,733297.1000000238,733296.9000000358,,733296.7000000477,,733301.454,4,500,,
sequence,flow.Sequence,10_9,2023-11-17T18:33:09.072Z,,,,,,,,,,,1732.1340000358177,completion,,,,,,,low,high,,,,,,false,,,,,false,733297.4000000358,733296.9000000358,731531.509,731545.6000000238,731564.766,733301.454,4,500,,
trial,html.Screen,10_10_0,2023-11-17T18:33:12.518Z,,,,1,0.0389988030702649,0.0143212271490256,,0.05,false,hl,3441.846000011894,response,0.6629163102028129,0.6849468133185418,-1.1153331300786762,-1.2268098550740514,0.7500362734202731,-1.115462636496821,high,low,,ISIC_0064669.JPG,9,ISIC_9562157.JPG,25,false,0.19000000000000006,hh,keypress(i),0,false,736743.7000000477,736743.3000000119,733284.994,733297.6000000238,733301.454,736774.917,4,500,11,
break,html.Screen,10_10_1,2023-11-17T18:33:12.519Z,,,,,,,,,,,NaN,,,,,,,,high,low,,,,,,false,,,,,false,736744.9000000358,736744.6000000238,,736744.1000000238,,736774.917,4,500,,
break_continue,html.Screen,10_10_2,2023-11-17T18:33:12.520Z,,,,,,,,,,,NaN,,,,,,,,high,low,,,,,,false,,,,,false,736745.6000000238,736745.3000000119,,736745.1000000238,,736774.917,4,500,,
sequence,flow.Sequence,10_10,2023-11-17T18:33:12.520Z,,,,,,,,,,,3443.846000011894,completion,,,,,,,high,low,,,,,,false,,,,,false,736745.9000000358,736745.3000000119,733284.994,733297.5,733301.454,736774.917,4,500,,
trial,html.Screen,10_11_0,2023-11-17T18:33:15.620Z,,,,1,0.0085520978188085,-0.0464691161264081,,0.05,false,lh,3070.983000035747,response,-1.1097716037944447,0.6849468133185418,-1.1153331300786762,0.726994437314983,0.7500362734202731,-1.115462636496821,low,high,,ISIC_0758797.JPG,9,ISIC_0000139.JPG,27,false,0.18000000000000005,ll,keypress(f),0,false,739846.1000000238,739845.9000000358,736741.536,736746.2000000477,736774.917,739864.494,4,500,12,
break,html.Screen,10_11_1,2023-11-17T18:33:15.621Z,,,,,,,,,,,NaN,,,,,,,,low,high,,,,,,false,,,,,false,739846.4000000358,739846.4000000358,,739846.2000000477,,739864.494,4,500,,
break_continue,html.Screen,10_11_2,2023-11-17T18:33:15.621Z,,,,,,,,,,,NaN,,,,,,,,low,high,,,,,,false,,,,,false,739846.7000000477,739846.6000000238,,739846.6000000238,,739864.494,4,500,,
sequence,flow.Sequence,10_11,2023-11-17T18:33:15.621Z,,,,,,,,,,,3071.683000023826,completion,,,,,,,low,high,,,,,,false,,,,,false,739846.9000000358,739846.6000000238,736741.536,736746.1000000238,736774.917,739864.494,4,500,,
trial,html.Screen,10_12_0,2023-11-17T18:33:19.133Z,,,,1,-0.0245376145053177,0.0436993426328401,,0.05,true,hh,3494.206000047736,response,0.6414565107493193,0.6849468133185418,-1.1153331300786762,0.7473386199328566,0.7500362734202731,-1.115462636496821,high,high,,ISIC_0056444.JPG,9,ISIC_7809510.JPG,70,false,0.1,hh,keypress(i),0,false,743359,743358.7000000477,739847.576,739846.9000000358,739864.494,743371.087,4,500,13,
break,html.Screen,10_12_1,2023-11-17T18:33:19.135Z,,,,,,,,,,,NaN,,,,,,,,high,high,,,,,,false,,,,,false,743360.2000000477,743360,,743359.4000000358,,743371.087,4,500,,
break_continue,html.Screen,10_12_2,2023-11-17T18:33:19.135Z,,,,,,,,,,,NaN,,,,,,,,high,high,,,,,,false,,,,,false,743360.9000000358,743360.7000000477,,743360.5,,743371.087,4,500,,
sequence,flow.Sequence,10_12,2023-11-17T18:33:19.136Z,,,,,,,,,,,3496.206000047736,completion,,,,,,,high,high,,,,,,false,,,,,false,743361.2000000477,743360.7000000477,739847.576,739846.9000000358,739864.494,743371.087,4,500,,
trial,html.Screen,10_13_0,2023-11-17T18:33:22.654Z,,,,1,0.0116094682222121,-0.0258434522530318,,0.05,false,lh,3507.813000035705,response,-1.1501717278509027,0.6849468133185418,-1.1153331300786762,0.582309386231274,0.7500362734202731,-1.115462636496821,low,high,,ISIC_9239632.JPG,8,ISIC_8398000.JPG,27,false,0.18000000000000005,hl,keypress(j),0,false,746879.3000000119,746878.9000000358,743354.597,743361.5,743371.087,746894.611,4,500,14,
break,html.Screen,10_13_1,2023-11-17T18:33:22.655Z,,,,,,,,,,,NaN,,,,,,,,low,high,,,,,,false,,,,,false,746880.3000000119,746880.1000000238,,746879.7000000477,,746894.611,4,500,,
break_continue,html.Screen,10_13_2,2023-11-17T18:33:22.655Z,,,,,,,,,,,NaN,,,,,,,,low,high,,,,,,false,,,,,false,746881,746880.7000000477,,746880.5,,746894.611,4,500,,
sequence,flow.Sequence,10_13,2023-11-17T18:33:22.656Z,,,,,,,,,,,3509.613000047626,completion,,,,,,,low,high,,,,,,false,,,,,false,746881.2000000477,746880.7000000477,743354.597,743361.4000000358,743371.087,746894.611,4,500,,
trial,html.Screen,10_14_0,2023-11-17T18:33:28.748Z,,,,1,0.0389988030702649,0.0143212271490256,,0.05,false,lh,6079.3889999999665,response,-1.1501717278509027,0.6849468133185418,-1.1153331300786762,0.582309386231274,0.7500362734202731,-1.115462636496821,low,high,,ISIC_0064669.JPG,9,ISIC_8398000.JPG,27,false,0.18000000000000005,hl,keypress(j),0,false,752974.1000000238,752974,746878.16,746881.4000000358,746894.611,752989.891,4,500,15,
break,html.Screen,10_14_1,2023-11-17T18:33:28.749Z,,,,,,,,,,,NaN,,,,,,,,low,high,,,,,,false,,,,,false,752974.6000000238,752974.6000000238,,752974.3000000119,,752989.891,4,500,,
break_continue,html.Screen,10_14_2,2023-11-17T18:33:28.749Z,,,,,,,,,,,NaN,,,,,,,,low,high,,,,,,false,,,,,false,752975,752974.9000000358,,752974.8000000119,,752989.891,4,500,,
sequence,flow.Sequence,10_14,2023-11-17T18:33:28.749Z,,,,,,,,,,,6080.289000035729,completion,,,,,,,low,high,,,,,,false,,,,,false,752975.1000000238,752974.9000000358,746878.16,746881.4000000358,746894.611,752989.891,4,500,,
trial,html.Screen,10_15_0,2023-11-17T18:33:32.142Z,,,,1,0.0070725527271049,0.0049995141077508,,0.05,true,ll,3377.109000000055,response,-1.0789197754694622,0.6849468133185418,-1.1153331300786762,-1.1654690806750023,0.7500362734202731,-1.115462636496821,low,low,,ISIC_6124481.JPG,9,ISIC_1576437.JPG,27,false,0.11,ll,keypress(f),0,false,756367.5,756367,752973.32,752975.2000000477,752989.891,756379.744,4,500,16,
break,html.Screen,10_15_1,2023-11-17T18:33:32.143Z,,,,,,,,,,,NaN,,,,,,,,low,low,,,,,,false,,,,,false,756368.7000000477,756368.4000000358,,756367.9000000358,,756379.744,4,500,,
break_continue,html.Screen,10_15_2,2023-11-17T18:33:32.144Z,,,,,,,,,,,NaN,,,,,,,,low,low,,,,,,false,,,,,false,756369.5,756369.3000000119,,756369,,756379.744,4,500,,
sequence,flow.Sequence,10_15,2023-11-17T18:33:32.144Z,,,,,,,,,,,3379.409000011976,completion,,,,,,,low,low,,,,,,false,,,,,false,756369.9000000358,756369.3000000119,752973.32,752975.2000000477,752989.891,756379.744,4,500,,
trial,html.Screen,10_16_0,2023-11-17T18:33:34.238Z,,,,1,-0.0362376068089956,-0.047825070846155,,0.05,false,lh,2083.556000011973,response,-1.11969546505004,0.6849468133185418,-1.1153331300786762,0.7169584869657797,0.7500362734202731,-1.115462636496821,low,high,,ISIC_6985114.JPG,9,ISIC_0033967.JPG,27,false,0.18000000000000005,hh,keypress(i),0,false,758463.6000000238,758463.3000000119,756363.179,756370.1000000238,756379.744,758467.147,4,500,17,
break,html.Screen,10_16_1,2023-11-17T18:33:34.239Z,,,,,,,,,,,NaN,,,,,,,,low,high,,,,,,false,,,,,false,758464.8000000119,758464.5,,758463.9000000358,,758467.147,4,500,,
break_continue,html.Screen,10_16_2,2023-11-17T18:33:34.240Z,,,,,,,,,,,NaN,,,,,,,,low,high,,,,,,false,,,,,false,758465.5,758465.3000000119,,758465.1000000238,,758467.147,4,500,,
sequence,flow.Sequence,10_16,2023-11-17T18:33:34.240Z,,,,,,,,,,,2085.556000011973,completion,,,,,,,low,high,,,,,,false,,,,,false,758465.8000000119,758465.3000000119,756363.179,756370,756379.744,758467.147,4,500,,
trial,html.Screen,10_17_0,2023-11-17T18:33:44.022Z,,,,1,0.0363437082783146,0.0333332186217051,,0.05,false,ll,9779.953000023845,response,-1.1642596483638106,0.6849468133185418,-1.1153331300786762,-1.109799097093339,0.7500362734202731,-1.115462636496821,low,low,,ISIC_3314555.JPG,9,ISIC_0765584.JPG,27,false,0.11,lh,keypress(e),0,false,768247.6000000238,768247.1000000238,758450.683,758466.1000000238,758467.147,768252.853,4,500,18,
break,html.Screen,10_17_1,2023-11-17T18:33:44.024Z,,,,,,,,,,,NaN,,,,,,,,low,low,,,,,,false,,,,,false,768249.5,768249,,768248.3000000119,,768252.853,4,500,,
break_continue,html.Screen,10_17_2,2023-11-17T18:33:44.025Z,,,,,,,,,,,NaN,,,,,,,,low,low,,,,,,false,,,,,false,768250.3000000119,768250,,768249.7000000477,,768252.853,4,500,,
sequence,flow.Sequence,10_17,2023-11-17T18:33:44.025Z,,,,,,,,,,,9782.853000000003,completion,,,,,,,low,low,,,,,,false,,,,,false,768250.5,768250,758450.683,758466.1000000238,758467.147,768252.853,4,500,,
trial,html.Screen,10_18_0,2023-11-17T18:33:48.430Z,,,,1,-0.0051189696037511,0.0396625911332438,,0.05,false,ll,4402.247000023839,response,-1.212030980680325,0.6849468133185418,-1.1153331300786762,-1.033832433609739,0.7500362734202731,-1.115462636496821,low,low,,ISIC_9742891.JPG,8,ISIC_0008510.JPG,27,false,0.11,lh,keypress(e),0,false,772655.3000000119,772655.1000000238,768236.301,768250.8000000119,768252.853,772661.428,4,500,19,
break,html.Screen,10_18_1,2023-11-17T18:33:48.431Z,,,,,,,,,,,NaN,,,,,,,,low,low,,,,,,false,,,,,false,772656.5,772656.2000000477,,772655.7000000477,,772661.428,4,500,,
break_continue,html.Screen,10_18_2,2023-11-17T18:33:48.432Z,,,,,,,,,,,NaN,,,,,,,,low,low,,,,,,false,,,,,false,772657.2000000477,772656.9000000358,,772656.7000000477,,772661.428,4,500,,
sequence,flow.Sequence,10_18,2023-11-17T18:33:48.432Z,,,,,,,,,,,4404.04700003576,completion,,,,,,,low,low,,,,,,false,,,,,false,772657.5,772656.9000000358,768236.301,768250.7000000477,768252.853,772661.428,4,500,,
trial,html.Screen,10_19_0,2023-11-17T18:33:51.662Z,,,,1,-0.0362376068089956,-0.047825070846155,,0.05,false,lh,3225.4720000358066,response,-1.1143840156421263,0.6849468133185418,-1.1153331300786762,0.5760729760192603,0.7500362734202731,-1.115462636496821,low,high,,ISIC_6985114.JPG,9,ISIC_0572205.JPG,27,false,0.18000000000000005,ll,keypress(f),0,false,775887.2000000477,775886.9000000358,772644.716,772657.7000000477,772661.428,775917.785,4,500,20,
break,html.Screen,10_19_1,2023-11-17T18:33:51.663Z,,,,,,,,,,,NaN,,,,,,,,low,high,,,,,,false,,,,,false,775888.3000000119,775888.1000000238,,775887.6000000238,,775917.785,4,500,,
break_continue,html.Screen,10_19_2,2023-11-17T18:33:51.664Z,,,,,,,,,,,NaN,,,,,,,,low,high,,,,,,false,,,,,false,775889,775888.7000000477,,775888.5,,775917.785,4,500,,
sequence,flow.Sequence,10_19,2023-11-17T18:33:51.664Z,,,,,,,,,,,3227.2720000477275,completion,,,,,,,low,high,,,,,,false,,,,,false,775889.2000000477,775888.7000000477,772644.716,772657.7000000477,772661.428,775917.785,4,500,,
trial,html.Screen,10_20_0,2023-11-17T18:33:54.974Z,,,,1,,-0.0264544974620926,,0.05,true,hl,3281.0150000118883,response,0.8655167308525522,0.6849468133185418,-1.1153331300786762,-0.9298580423306444,0.7500362734202731,-1.115462636496821,high,low,,ISIC_0056991.JPG,9,ISIC_4603706.JPG,25,false,0.19000000000000006,hl,keypress(j),0,false,779199.1000000238,779198.8000000119,775884.491,775889.5,775917.785,779207.479,4,500,21,
break,html.Screen,10_20_1,2023-11-17T18:33:54.975Z,,,,,,,,,,,NaN,,,,,,,,high,low,,,,,,false,,,,,false,779200.3000000119,779200,,779199.5,,779207.479,4,500,,
break_continue,html.Screen,10_20_2,2023-11-17T18:33:54.976Z,,,,,,,,,,,NaN,,,,,,,,high,low,,,,,,false,,,,,false,779201,779200.7000000477,,779200.5,,779207.479,4,500,,
sequence,flow.Sequence,10_20,2023-11-17T18:33:54.976Z,,,,,,,,,,,3282.915000047651,completion,,,,,,,high,low,,,,,,false,,,,,false,779201.2000000477,779200.7000000477,775884.491,775889.4000000358,775917.785,779207.479,4,500,,
trial,html.Screen,10_21_0,2023-11-17T18:34:02.814Z,,,,1,,-0.0264544974620926,,0.05,false,ll,7831.621000023792,response,-1.212030980680325,0.6849468133185418,-1.1153331300786762,-1.033832433609739,0.7500362734202731,-1.115462636496821,low,low,,ISIC_0056991.JPG,9,ISIC_0008510.JPG,27,false,0.11,lh,keypress(e),0,false,787039.4000000358,787039.1000000238,779190.774,779201.5,779207.479,787056.191,4,500,22,
break,html.Screen,10_21_1,2023-11-17T18:34:02.815Z,,,,,,,,,,,NaN,,,,,,,,low,low,,,,,,false,,,,,false,787040.7000000477,787040.3000000119,,787039.8000000119,,787056.191,4,500,,
break_continue,html.Screen,10_21_2,2023-11-17T18:34:02.816Z,,,,,,,,,,,NaN,,,,,,,,low,low,,,,,,false,,,,,false,787041.4000000358,787041.2000000477,,787040.9000000358,,787056.191,4,500,,
sequence,flow.Sequence,10_21,2023-11-17T18:34:02.816Z,,,,,,,,,,,7833.721000047633,completion,,,,,,,low,low,,,,,,false,,,,,false,787041.7000000477,787041.2000000477,779190.774,779201.5,779207.479,787056.191,4,500,,
trial,html.Screen,10_22_0,2023-11-17T18:34:05.230Z,,,,1,0.0116094682222121,-0.0258434522530318,,0.05,false,ll,2398.709000035771,response,-1.0959058628476686,0.6849468133185418,-1.1153331300786762,-1.1684835186766898,0.7500362734202731,-1.115462636496821,low,low,,ISIC_9239632.JPG,9,ISIC_5920470.JPG,27,false,0.11,lh,keypress(e),0,false,789455.3000000119,789454.9000000358,787039.632,787041.9000000358,787056.191,789460.794,4,500,23,
break,html.Screen,10_22_1,2023-11-17T18:34:05.231Z,,,,,,,,,,,NaN,,,,,,,,low,low,,,,,,false,,,,,false,789456.4000000358,789456.2000000477,,789455.7000000477,,789460.794,4,500,,
break_continue,html.Screen,10_22_2,2023-11-17T18:34:05.232Z,,,,,,,,,,,NaN,,,,,,,,low,low,,,,,,false,,,,,false,789457.4000000358,789457.1000000238,,789456.9000000358,,789460.794,4,500,,
sequence,flow.Sequence,10_22,2023-11-17T18:34:05.232Z,,,,,,,,,,,2400.9090000238502,completion,,,,,,,low,low,,,,,,false,,,,,false,789457.7000000477,789457.1000000238,787039.632,787041.9000000358,787056.191,789460.794,4,500,,
trial,html.Screen,10_23_0,2023-11-17T18:34:08.582Z,,,,1,0.0069555338059566,-0.0310100918136373,,0.05,false,lh,3346.4060000476893,response,-1.0103169548664617,0.6849468133185418,-1.1153331300786762,0.6546071943010454,0.7500362734202731,-1.115462636496821,low,high,,ISIC_0011177.JPG,9,ISIC_8806180.JPG,27,false,0.18000000000000005,hl,keypress(j),0,false,792807.6000000238,792807.2000000477,789444.222,789457.9000000358,789460.794,792817.327,4,500,24,
break,html.Screen,10_23_1,2023-11-17T18:34:08.583Z,,,,,,,,,,,NaN,,,,,,,,low,high,,,,,,false,,,,,false,792808.7000000477,792808.5,,792808,,792817.327,4,500,,
break_continue,html.Screen,10_23_2,2023-11-17T18:34:08.584Z,,,,,,,,,,,NaN,,,,,,,,low,high,,,,,,false,,,,,false,792809.5,792809.2000000477,,792809,,792817.327,4,500,,
sequence,flow.Sequence,10_23,2023-11-17T18:34:08.584Z,,,,,,,,,,,3348.4060000476893,completion,,,,,,,low,high,,,,,,false,,,,,false,792809.7000000477,792809.2000000477,789444.222,789457.8000000119,789460.794,792817.327,4,500,,
trial,html.Screen,10_24_0,2023-11-17T18:34:11.414Z,,,,1,0.0070725527271049,0.0049995141077508,,0.05,false,lh,2821.6729999999516,response,-1.034740231914001,0.6849468133185418,-1.1153331300786762,0.6844507507038213,0.7500362734202731,-1.115462636496821,low,high,,ISIC_6124481.JPG,9,ISIC_8569205.JPG,27,false,0.18000000000000005,hh,keypress(i),0,false,795639.4000000358,795639,792800.788,792809.9000000358,792817.327,795656.194,4,500,25,
break,html.Screen,10_24_1,2023-11-17T18:34:11.415Z,,,,,,,,,,,NaN,,,,,,,,low,high,,,,,,false,,,,,false,795640.5,795640.3000000119,,795639.7000000477,,795656.194,4,500,,
break_continue,html.Screen,10_24_2,2023-11-17T18:34:11.416Z,,,,,,,,,,,NaN,,,,,,,,low,high,,,,,,false,,,,,false,795641.3000000119,795641,,795640.8000000119,,795656.194,4,500,,
sequence,flow.Sequence,10_24,2023-11-17T18:34:11.416Z,,,,,,,,,,,2823.6729999999516,completion,,,,,,,low,high,,,,,,false,,,,,false,795641.6000000238,795641,792800.788,792809.9000000358,792817.327,795656.194,4,500,,
trial,html.Screen,10_25_0,2023-11-17T18:34:13.076Z,,,,1,0.0217698886732706,-0.0410870915161425,,0.05,false,hl,1645.206000035745,response,0.5116577697734059,0.6849468133185418,-1.1153331300786762,-1.0329549150636406,0.7500362734202731,-1.115462636496821,high,low,,ISIC_0072173.JPG,9,ISIC_0054670.JPG,25,false,0.19000000000000006,hh,keypress(i),0,false,797301.5,797301.4000000358,795639.73,795641.8000000119,795656.194,797309.409,4,500,26,
break,html.Screen,10_25_1,2023-11-17T18:34:13.077Z,,,,,,,,,,,NaN,,,,,,,,high,low,,,,,,false,,,,,false,797301.8000000119,797301.8000000119,,797301.6000000238,,797309.409,4,500,,
break_continue,html.Screen,10_25_2,2023-11-17T18:34:13.077Z,,,,,,,,,,,NaN,,,,,,,,high,low,,,,,,false,,,,,false,797302.1000000238,797302,,797301.9000000358,,797309.409,4,500,,
sequence,flow.Sequence,10_25,2023-11-17T18:34:13.077Z,,,,,,,,,,,1645.8059999999823,completion,,,,,,,high,low,,,,,,false,,,,,false,797302.1000000238,797302,795639.73,795641.7000000477,795656.194,797309.409,4,500,,
trial,html.Screen,10_26_0,2023-11-17T18:34:16.206Z,,,,1,-0.0277178575053843,0.0395587463147856,,0.05,false,hl,3121.6910000238568,response,0.8092423703106274,0.6849468133185418,-1.1153331300786762,-1.1870093485714288,0.7500362734202731,-1.115462636496821,high,low,,ISIC_0010807.JPG,10,ISIC_8592235.JPG,25,false,0.19000000000000006,hh,keypress(i),0,false,800431.3000000119,800431.1000000238,797292.937,797302.1000000238,797309.409,800465.545,4,500,27,
break,html.Screen,10_26_1,2023-11-17T18:34:16.207Z,,,,,,,,,,,NaN,,,,,,,,high,low,,,,,,false,,,,,false,800432.5,800432.3000000119,,800431.7000000477,,800465.545,4,500,,
break_continue,html.Screen,10_26_2,2023-11-17T18:34:16.208Z,,,,,,,,,,,NaN,,,,,,,,high,low,,,,,,false,,,,,false,800433.2000000477,800433,,800432.7000000477,,800465.545,4,500,,
sequence,flow.Sequence,10_26,2023-11-17T18:34:16.208Z,,,,,,,,,,,3123.591000000015,completion,,,,,,,high,low,,,,,,false,,,,,false,800433.6000000238,800433,797292.937,797302.1000000238,797309.409,800465.545,4,500,,
trial,html.Screen,10_27_0,2023-11-17T18:34:20.774Z,,,,1,0.007397293189458,0.0174716772037504,,0.05,false,hl,4533.5550000238,response,0.6629163102028129,0.6849468133185418,-1.1153331300786762,-1.2268098550740514,0.7500362734202731,-1.115462636496821,high,low,,ISIC_0056226.JPG,8,ISIC_9562157.JPG,25,false,0.19000000000000006,ll,keypress(f),0,false,804999.4000000358,804999.1000000238,800448.972,800433.8000000119,800465.545,805007.808,4,500,28,
break,html.Screen,10_27_1,2023-11-17T18:34:20.775Z,,,,,,,,,,,NaN,,,,,,,,high,low,,,,,,false,,,,,false,805000.6000000238,805000.4000000358,,804999.9000000358,,805007.808,4,500,,
break_continue,html.Screen,10_27_2,2023-11-17T18:34:20.776Z,,,,,,,,,,,NaN,,,,,,,,high,low,,,,,,false,,,,,false,805001.5,805001.2000000477,,805001,,805007.808,4,500,,
sequence,flow.Sequence,10_27,2023-11-17T18:34:20.776Z,,,,,,,,,,,4535.655000047642,completion,,,,,,,high,low,,,,,,false,,,,,false,805001.8000000119,805001.2000000477,800448.972,800433.7000000477,800465.545,805007.808,4,500,,
trial,html.Screen,10_28_0,2023-11-17T18:34:22.942Z,,,,1,0.0070725527271049,0.0049995141077508,,0.05,true,hh,2158.99200001196,response,0.6541875895526068,0.6849468133185418,-1.1153331300786762,0.8392703619497953,0.7500362734202731,-1.115462636496821,high,high,,ISIC_6124481.JPG,9,ISIC_0060893.JPG,70,false,0.1,hh,keypress(i),0,false,807167.2000000477,807166.8000000119,804991.231,805002.1000000238,805007.808,807195.589,4,500,29,
break,html.Screen,10_28_1,2023-11-17T18:34:22.943Z,,,,,,,,,,,NaN,,,,,,,,high,high,,,,,,false,,,,,false,807168.4000000358,807168.1000000238,,807167.6000000238,,807195.589,4,500,,
break_continue,html.Screen,10_28_2,2023-11-17T18:34:22.944Z,,,,,,,,,,,NaN,,,,,,,,high,high,,,,,,false,,,,,false,807169.1000000238,807168.9000000358,,807168.6000000238,,807195.589,4,500,,
sequence,flow.Sequence,10_28,2023-11-17T18:34:22.944Z,,,,,,,,,,,2161.092000035802,completion,,,,,,,high,high,,,,,,false,,,,,false,807169.3000000119,807168.9000000358,804991.231,805001.9000000358,805007.808,807195.589,4,500,,
trial,html.Screen,10_29_0,2023-11-17T18:34:27.646Z,,,,1,0.0450282431170921,,,0.05,false,lh,4675.611000047647,response,-1.0396927560986136,0.6849468133185418,-1.1153331300786762,0.6700895381759688,0.7500362734202731,-1.115462636496821,low,high,,ISIC_1805163.JPG,9,ISIC_0066149.JPG,27,false,0.18000000000000005,ll,keypress(f),0,false,811871.6000000238,811871.2000000477,807178.63,807169.6000000238,807195.589,811887.797,4,500,30,
break,html.Screen,10_29_1,2023-11-17T18:34:27.647Z,,,,,,,,,,,NaN,,,,,,,,low,high,,,,,,false,,,,,false,811872.9000000358,811872.5,,811872,,811887.797,4,500,,
break_continue,html.Screen,10_29_2,2023-11-17T18:34:27.648Z,,,,,,,,,,,NaN,,,,,,,,low,high,,,,,,false,,,,,false,811873.5,811873.3000000119,,811873,,811887.797,4,500,,
sequence,flow.Sequence,10_29,2023-11-17T18:34:27.649Z,,,,,,,,,,,4677.711000011885,completion,,,,,,,low,high,,,,,,false,,,,,false,811873.8000000119,811873.3000000119,807178.63,807169.6000000238,807195.589,811887.797,4,500,,
trial,html.Screen,10_30_0,2023-11-17T18:34:29.749Z,,,,1,0.0363437082783146,0.0333332186217051,,0.05,false,lh,2086.1030000357423,response,-1.011737552725394,0.6849468133185418,-1.1153331300786762,0.8500530224490773,0.7500362734202731,-1.115462636496821,low,high,,ISIC_3314555.JPG,9,ISIC_2998367.JPG,27,false,0.18000000000000005,hh,keypress(i),0,false,813974,813973.9000000358,811871.328,811874.1000000238,811887.797,813992.397,4,500,31,
break,html.Screen,10_30_1,2023-11-17T18:34:29.749Z,,,,,,,,,,,NaN,,,,,,,,low,high,,,,,,false,,,,,false,813974.5,813974.4000000358,,813974.2000000477,,813992.397,4,500,,
break_continue,html.Screen,10_30_2,2023-11-17T18:34:29.749Z,,,,,,,,,,,NaN,,,,,,,,low,high,,,,,,false,,,,,false,813974.8000000119,813974.6000000238,,813974.6000000238,,813992.397,4,500,,
sequence,flow.Sequence,10_30,2023-11-17T18:34:29.749Z,,,,,,,,,,,2086.8030000238214,completion,,,,,,,low,high,,,,,,false,,,,,false,813974.9000000358,813974.6000000238,811871.328,811874.1000000238,811887.797,813992.397,4,500,,
trial,html.Screen,10_31_0,2023-11-17T18:34:31.662Z,,,,1,-0.0348234368746005,0.0236866303880924,,0.05,true,hh,1894.8030000476865,response,0.7411900799632072,0.6849468133185418,-1.1153331300786762,0.6598478563486729,0.7500362734202731,-1.115462636496821,high,high,,ISIC_0011099.JPG,9,ISIC_0009989.JPG,70,false,0.1,hh,keypress(i),0,false,815887.5,815887.2000000477,813958.694,813974.9000000358,813992.397,815895.583,4,500,32,
break,html.Screen,10_31_1,2023-11-17T18:34:31.663Z,,,,,,,,,,,NaN,,,,,,,,high,high,,,,,,false,,,,,false,815888.7000000477,815888.4000000358,,815887.9000000358,,815895.583,4,500,,
break_continue,html.Screen,10_31_2,2023-11-17T18:34:31.664Z,,,,,,,,,,,NaN,,,,,,,,high,high,,,,,,false,,,,,false,815889.3000000119,815889.1000000238,,815888.8000000119,,815895.583,4,500,,
sequence,flow.Sequence,10_31,2023-11-17T18:34:31.664Z,,,,,,,,,,,1896.7030000238447,completion,,,,,,,high,high,,,,,,false,,,,,false,815889.7000000477,815889.1000000238,813958.694,813974.9000000358,813992.397,815895.583,4,500,,
trial,html.Screen,10_32_0,2023-11-17T18:34:35.676Z,,,,1,0.0050679133050021,-0.0009714874637896,,0.05,false,ll,4006.1170000476995,response,-1.1598623261077452,0.6849468133185418,-1.1153331300786762,-1.203269031614007,0.7500362734202731,-1.115462636496821,low,low,,ISIC_9848743.JPG,9,ISIC_0002639.JPG,27,false,0.11,hh,keypress(i),0,false,819901.8000000119,819901.7000000477,815878.963,815889.8000000119,815895.583,819903.365,4,500,33,
break,html.Screen,10_32_1,2023-11-17T18:34:35.677Z,,,,,,,,,,,NaN,,,,,,,,low,low,,,,,,false,,,,,false,819902.2000000477,819902.1000000238,,819901.9000000358,,819903.365,4,500,,
break_continue,html.Screen,10_32_2,2023-11-17T18:34:35.677Z,,,,,,,,,,,NaN,,,,,,,,low,low,,,,,,false,,,,,false,819902.3000000119,819902.2000000477,,819902.2000000477,,819903.365,4,500,,
sequence,flow.Sequence,10_32,2023-11-17T18:34:35.677Z,,,,,,,,,,,4006.6170000476995,completion,,,,,,,low,low,,,,,,false,,,,,false,819902.4000000358,819902.2000000477,815878.963,815889.8000000119,815895.583,819903.365,4,500,,
trial,html.Screen,10_33_0,2023-11-17T18:34:41.326Z,,,,1,0.0050679133050021,-0.0009714874637896,,0.05,true,hl,5647.93500001193,response,0.5024960662469193,0.6849468133185418,-1.1153331300786762,-1.1055185688067006,0.7500362734202731,-1.115462636496821,high,low,,ISIC_9848743.JPG,8,ISIC_4533833.JPG,25,false,0.19000000000000006,hl,keypress(j),0,false,825551.6000000238,825551.3000000119,819886.802,819902.5,819903.365,825564.465,4,500,34,
break,html.Screen,10_33_1,2023-11-17T18:34:41.327Z,,,,,,,,,,,NaN,,,,,,,,high,low,,,,,,false,,,,,false,825552.8000000119,825552.6000000238,,825552,,825564.465,4,500,,
break_continue,html.Screen,10_33_2,2023-11-17T18:34:41.328Z,,,,,,,,,,,NaN,,,,,,,,high,low,,,,,,false,,,,,false,825553.5,825553.3000000119,,825553,,825564.465,4,500,,
sequence,flow.Sequence,10_33,2023-11-17T18:34:41.328Z,,,,,,,,,,,5649.93500001193,completion,,,,,,,high,low,,,,,,false,,,,,false,825553.8000000119,825553.3000000119,819886.802,819902.4000000358,819903.365,825564.465,4,500,,
trial,html.Screen,10_34_0,2023-11-17T18:34:46.031Z,,,,1,0.007397293189458,0.0174716772037504,,0.05,true,hh,4690.8350000119535,response,0.6223117424621969,0.6849468133185418,-1.1153331300786762,0.7852622372475052,0.7500362734202731,-1.115462636496821,high,high,,ISIC_0056226.JPG,9,ISIC_0010527.JPG,70,false,0.1,hh,keypress(i),0,false,830255.7000000477,830255.3000000119,825547.972,825554.1000000238,825564.465,830273.575,4,500,35,
break,html.Screen,10_34_1,2023-11-17T18:34:46.032Z,,,,,,,,,,,NaN,,,,,,,,high,high,,,,,,false,,,,,false,830257,830256.6000000238,,830256.1000000238,,830273.575,4,500,,
break_continue,html.Screen,10_34_2,2023-11-17T18:34:46.033Z,,,,,,,,,,,NaN,,,,,,,,high,high,,,,,,false,,,,,false,830257.8000000119,830257.5,,830257.2000000477,,830273.575,4,500,,
sequence,flow.Sequence,10_34,2023-11-17T18:34:46.033Z,,,,,,,,,,,4693.035000000033,completion,,,,,,,high,high,,,,,,false,,,,,false,830258,830257.5,825547.972,825554,825564.465,830273.575,4,500,,
trial,html.Screen,10_35_0,2023-11-17T18:34:54.574Z,,,,1,-0.0348234368746005,0.0236866303880924,,0.05,false,lh,8525.12500004773,response,-1.0463961939234825,0.6849468133185418,-1.1153331300786762,0.6271792384365534,0.7500362734202731,-1.115462636496821,low,high,,ISIC_0011099.JPG,9,ISIC_5501183.JPG,27,false,0.18000000000000005,hl,keypress(j),0,false,838799,838798.7000000477,830240.353,830258.3000000119,830273.575,838806.898,4,500,36,
break,html.Screen,10_35_1,2023-11-17T18:34:54.575Z,,,,,,,,,,,NaN,,,,,,,,low,high,,,,,,false,,,,,false,838799.7000000477,838799.5,,838799.2000000477,,838806.898,4,500,,
break_continue,html.Screen,10_35_2,2023-11-17T18:34:54.575Z,,,,,,,,,,,NaN,,,,,,,,low,high,,,,,,false,,,,,false,838800,838800,,838799.8000000119,,838806.898,4,500,,
sequence,flow.Sequence,10_35,2023-11-17T18:34:54.575Z,,,,,,,,,,,8526.425000000047,completion,,,,,,,low,high,,,,,,false,,,,,false,838800.2000000477,838800,830240.353,830258.2000000477,830273.575,838806.898,4,500,,
trial,html.Screen,10_36_0,2023-11-17T18:34:56.726Z,,,,1,-0.0245376145053177,0.0436993426328401,,0.05,true,hh,2144.202000023797,response,0.781420271893034,0.6849468133185418,-1.1153331300786762,0.8475699534335533,0.7500362734202731,-1.115462636496821,high,high,,ISIC_0056444.JPG,9,ISIC_0066429.JPG,70,false,0.1,hh,keypress(i),0,false,840951.4000000358,840951.1000000238,838790.365,838800.3000000119,838806.898,840961.053,4,500,37,
break,html.Screen,10_36_1,2023-11-17T18:34:56.728Z,,,,,,,,,,,NaN,,,,,,,,high,high,,,,,,false,,,,,false,840952.7000000477,840952.3000000119,,840951.8000000119,,840961.053,4,500,,
break_continue,html.Screen,10_36_2,2023-11-17T18:34:56.728Z,,,,,,,,,,,NaN,,,,,,,,high,high,,,,,,false,,,,,false,840953.4000000358,840953.1000000238,,840952.9000000358,,840961.053,4,500,,
sequence,flow.Sequence,10_36,2023-11-17T18:34:56.729Z,,,,,,,,,,,2146.202000023797,completion,,,,,,,high,high,,,,,,false,,,,,false,840953.7000000477,840953.1000000238,838790.365,838800.3000000119,838806.898,840961.053,4,500,,
trial,html.Screen,10_37_0,2023-11-17T18:34:59.494Z,,,,1,0.0217698886732706,-0.0410870915161425,,0.05,false,hl,2758.0470000238856,response,0.6714344890480403,0.6849468133185418,-1.1153331300786762,-0.9362962536620838,0.7500362734202731,-1.115462636496821,high,low,,ISIC_0072173.JPG,10,ISIC_3691320.JPG,25,false,0.19000000000000006,ll,keypress(f),0,false,843719.5,843719.1000000238,840944.581,840953.9000000358,840961.053,843733.079,4,500,38,
break,html.Screen,10_37_1,2023-11-17T18:34:59.496Z,,,,,,,,,,,NaN,,,,,,,,high,low,,,,,,false,,,,,false,843720.6000000238,843720.3000000119,,843719.8000000119,,843733.079,4,500,,
break_continue,html.Screen,10_37_2,2023-11-17T18:34:59.496Z,,,,,,,,,,,NaN,,,,,,,,high,low,,,,,,false,,,,,false,843721.3000000119,843721.2000000477,,843720.9000000358,,843733.079,4,500,,
sequence,flow.Sequence,10_37,2023-11-17T18:34:59.497Z,,,,,,,,,,,2760.1470000477275,completion,,,,,,,high,low,,,,,,false,,,,,false,843721.7000000477,843721.2000000477,840944.581,840953.9000000358,840961.053,843733.079,4,500,,
trial,html.Screen,10_38_0,2023-11-17T18:35:01.678Z,,,,1,-0.0112310719058792,0.0469047359904117,,0.05,false,lh,2170.1210000476567,response,-0.9702972792581116,0.6849468133185418,-1.1153331300786762,0.6881089997215682,0.7500362734202731,-1.115462636496821,low,high,,ISIC_0068184.JPG,9,ISIC_0942056.JPG,27,false,0.18000000000000005,hh,keypress(i),0,false,845903.5,845903.2000000477,843716.638,843722,843733.079,845920.954,4,500,39,
