sender,sender_type,sender_id,timestamp,meta,,age,blockNo,c1,c2,condition,control_tolerance,correct,correctResponse,duration,ended_on,f1,f1_high,f1_low,f2,f2_high,f2_low,feature_level1,feature_level2,gender,img_left,img_reveal,img_right,n_control_images,n_target_images,practice,range_tolerance,response,response_action,selection_duration,staircase,time_commit,time_end,time_render,time_run,time_show,time_switch,total_blocks,total_trials,trialNo,url
informed_consent,html.Screen,0,2023-11-27T19:28:54.188Z,"{""labjs_version"":""20.2.4"",""labjs_build"":{""flavor"":""development"",""commit"":""f5b4a49f956347addd546a832a3327688c2c0fef""},""location"":""https://labjs.felixhenninger.com/api/labjs_preview/index.html"",""userAgent"":""Mozilla/5.0 (Windows NT 10.0; Win64; x64) AppleWebKit/537.36 (KHTML, like Gecko) Chrome/119.0.0.0 Safari/537.36"",""platform"":""Win32"",""language"":""en-US"",""locale"":""en-US"",""timeZone"":""America/Chicago"",""timezoneOffset"":360,""screen_width"":1680,""screen_height"":1050,""scroll_width"":825,""scroll_height"":888,""window_innerWidth"":825,""window_innerHeight"":936,""devicePixelRatio"":1}",,,,,,,,,,103055.97600019074,response,,,,,,,,,,,,,,,,,consent,click button,,,103786.80000019073,103777.80000019073,704.989,703.5,721.824,103788.835,,,,{}
Demography form,html.Form,1,2023-11-27T19:29:19.221Z,,,18,,,,,,,,25029.765000143045,form submission,,,,,,,,,male,,,,,,,,,,,,128818.70000004768,128818.60000014305,103772.353,103787.10000014305,103788.835,128820.835,,,,
Welcome,html.Screen,2,2023-11-27T19:30:29.614Z,,,,,,,"[""bor"",""col""]",,,,70388.76500014304,response,,,,,,,,,,,,,,,,,continue,click button,,,199210.40000009537,199209.60000014305,128804.34,128818.80000019073,128820.835,199224.61,,,,
demo_instructions,html.Screen,3,2023-11-27T19:31:55.920Z,,,,,,,,,,,86289.19000019075,response,,,,,,,,,,,,,,,,,continue,click button,,,285514.40000009537,285513.80000019073,199207.974,199210.40000009537,199224.61,285525.613,,,,
trial,html.Screen,4_0_0,2023-11-27T19:32:33.895Z,,,,0,-1.1117876838408909,-1.2957497771092716,,,true,hh,37963.287000095355,response,1.2600330864275875,1.2,-1.2,1.0958628838888655,1.2,-1.2,high,high,,ISIC_0061915.JPG,,ISIC_0026996.JPG,,25,true,0.14,hh,keypress(i),100,false,323489.2000000477,323488.90000009537,285509.103,285514.60000014305,285525.613,323516.127,1,16,1,
sequence,flow.Sequence,4_0,2023-11-27T19:32:33.896Z,,,,,,,,,,,37963.287000095355,completion,,,,,,,high,high,,,,,,,true,,,,,false,323489.5,323488.90000009537,285509.103,285514.60000014305,285525.613,323516.127,1,16,,
trial,html.Screen,4_1_0,2023-11-27T19:32:46.621Z,,,,0,-1.071312313440387,-1.0935391476164529,,,true,hh,12698.873000000021,response,1.3246728710248594,1.2,-1.2,1.1527736000922424,1.2,-1.2,high,high,,ISIC_0063680.JPG,,ISIC_6876281.JPG,,25,true,0.14,hh,keypress(i),100,false,336215.2000000477,336215,323499.467,323489.7000000477,323516.127,336241.073,1,16,2,
sequence,flow.Sequence,4_1,2023-11-27T19:32:46.621Z,,,,,,,,,,,12698.873000000021,completion,,,,,,,high,high,,,,,,,true,,,,,false,336215.40000009537,336215,323499.467,323489.7000000477,323516.127,336241.073,1,16,,
trial,html.Screen,4_2_0,2023-11-27T19:32:53.252Z,,,,0,-1.1302628852630028,-1.288906469447243,,,true,hh,6604.827000095393,response,1.1870093485714288,1.2,-1.2,1.3339880978442629,1.2,-1.2,high,high,,ISIC_0071050.JPG,,ISIC_8592235.JPG,,25,true,0.14,hh,keypress(i),100,false,342846.10000014305,342845.90000009537,336224.352,336215.60000014305,336241.073,342870.491,1,16,3,
sequence,flow.Sequence,4_2,2023-11-27T19:32:53.252Z,,,,,,,,,,,6604.827000095393,completion,,,,,,,high,high,,,,,,,true,,,,,false,342846.30000019073,342845.90000009537,336224.352,336215.5,336241.073,342870.491,1,16,,
trial,html.Screen,4_3_0,2023-11-27T19:32:58.093Z,,,,0,-1.186629690487006,-1.3269945600040771,,,true,hh,4814.9090000953875,response,1.2541318165695772,1.2,-1.2,1.085289936617366,1.2,-1.2,high,high,,ISIC_0015390.JPG,,ISIC_4277207.JPG,,25,true,0.14,hh,keypress(i),100,false,347685.60000014305,347685.40000009537,342853.811,342846.5,342870.491,347713.245,1,16,4,
sequence,flow.Sequence,4_3,2023-11-27T19:32:58.093Z,,,,,,,,,,,4814.9090000953875,completion,,,,,,,high,high,,,,,,,true,,,,,false,347686,347685.40000009537,342853.811,342846.5,342870.491,347713.245,1,16,,
trial,html.Screen,4_4_0,2023-11-27T19:33:05.222Z,,,,0,1.109799097093339,1.091507924157762,,,true,ll,7101.5550001907395,response,-1.071312313440387,1.2,-1.2,-1.0935391476164529,1.2,-1.2,low,low,,ISIC_0765584.JPG,,ISIC_0063680.JPG,,30,true,0.13,ll,keypress(f),100,false,354815.10000014305,354814.80000019073,347696.674,347686.10000014305,347713.245,354843.791,1,16,5,
sequence,flow.Sequence,4_4,2023-11-27T19:33:05.223Z,,,,,,,,,,,7101.5550001907395,completion,,,,,,,low,low,,,,,,,true,,,,,false,354815.30000019073,354814.80000019073,347696.674,347686.10000014305,347713.245,354843.791,1,16,,
trial,html.Screen,4_5_0,2023-11-27T19:33:10.333Z,,,,0,1.3246728710248594,1.1527736000922424,,,true,ll,5081.509000190708,response,-1.2691569063625474,1.2,-1.2,-1.1264228993232308,1.2,-1.2,low,low,,ISIC_6876281.JPG,,ISIC_4980656.JPG,,40,true,0.14,ll,keypress(f),100,false,359925.40000009537,359925.30000019073,354827.064,354815.5,354843.791,359953.715,1,16,6,
sequence,flow.Sequence,4_5,2023-11-27T19:33:10.333Z,,,,,,,,,,,5081.509000190708,completion,,,,,,,low,low,,,,,,,true,,,,,false,359925.60000014305,359925.30000019073,354827.064,354815.40000009537,354843.791,359953.715,1,16,,
trial,html.Screen,4_6_0,2023-11-27T19:33:14.546Z,,,,0,1.1409143352872226,1.1323007949069106,,,true,ll,4184.284999999974,response,-1.268445326285509,1.2,-1.2,-1.173734476257662,1.2,-1.2,low,low,,ISIC_0030291.JPG,,ISIC_5216586.JPG,,40,true,0.14,ll,keypress(f),100,false,364138.2000000477,364138,359937.219,359925.60000014305,359953.715,364161.904,1,16,7,
sequence,flow.Sequence,4_6,2023-11-27T19:33:14.546Z,,,,,,,,,,,4184.284999999974,completion,,,,,,,low,low,,,,,,,true,,,,,false,364138.40000009537,364138,359937.219,359925.60000014305,359953.715,364161.904,1,16,,
trial,html.Screen,4_7_0,2023-11-27T19:33:20.216Z,,,,0,1.151139267005652,1.0838749490501327,,,true,ll,5645.996000095387,response,-1.060922596470156,1.2,-1.2,-1.152385059054538,1.2,-1.2,low,low,,ISIC_0002566.JPG,,ISIC_0067719.JPG,,40,true,0.14,ll,keypress(f),100,false,369808.2000000477,369807.90000009537,364145.36,364138.5,364161.904,369839.779,1,16,8,
sequence,flow.Sequence,4_7,2023-11-27T19:33:20.216Z,,,,,,,,,,,5645.996000095387,completion,,,,,,,low,low,,,,,,,true,,,,,false,369808.5,369807.90000009537,364145.36,364138.5,364161.904,369839.779,1,16,,
trial,html.Screen,4_8_0,2023-11-27T19:33:33.681Z,,,,0,0.7882758084023446,-0.8296405881378283,,,true,lh,13433.421000047703,response,-0.8867328775712738,1.2,-1.2,1.0063426986460375,1.2,-1.2,low,high,,ISIC_0065882.JPG,,ISIC_0055759.JPG,,27,true,0.40000000000000024,lh,keypress(e),100,false,383273.40000009537,383273.2000000477,369822.916,369808.60000014305,369839.779,383299.064,1,16,9,
sequence,flow.Sequence,4_8,2023-11-27T19:33:33.681Z,,,,,,,,,,,13433.421000047703,completion,,,,,,,low,high,,,,,,,true,,,,,false,383273.5,383273.2000000477,369822.916,369808.60000014305,369839.779,383299.064,1,16,,
trial,html.Screen,4_9_0,2023-11-27T19:33:46.738Z,,,,0,0.8719231363109603,-0.7704280220140033,,,true,lh,13031.236000190722,response,-0.9198276163642348,1.2,-1.2,0.7754915110667046,1.2,-1.2,low,high,,ISIC_0029453.JPG,,ISIC_7840728.JPG,,40,true,0.4500000000000003,lh,keypress(e),100,false,396330.5,396330.30000019073,383282.419,383273.60000014305,383299.064,396358.066,1,16,10,
sequence,flow.Sequence,4_9,2023-11-27T19:33:46.738Z,,,,,,,,,,,13031.236000190722,completion,,,,,,,low,high,,,,,,,true,,,,,false,396330.60000014305,396330.30000019073,383282.419,383273.60000014305,383299.064,396358.066,1,16,,
trial,html.Screen,4_10_0,2023-11-27T19:33:56.345Z,,,,0,0.8828738626295417,-0.8288177599439582,,,true,lh,9577.734000190743,response,-0.8443403196524287,1.2,-1.2,0.8858525429102605,1.2,-1.2,low,high,,ISIC_0056041.JPG,,ISIC_8777813.JPG,,40,true,0.4500000000000003,lh,keypress(e),100,false,405935.90000009537,405935.80000019073,396341.17,396330.7000000477,396358.066,405959.866,1,16,11,
sequence,flow.Sequence,4_10,2023-11-27T19:33:56.345Z,,,,,,,,,,,9577.734000190743,completion,,,,,,,low,high,,,,,,,true,,,,,false,405936,405935.80000019073,396341.17,396330.7000000477,396358.066,405959.866,1,16,,
trial,html.Screen,4_11_0,2023-11-27T19:34:12.473Z,,,,0,1.2578167348825195,-0.8371819698254004,,,true,lh,16104.034000095387,response,-0.8544507134472948,1.2,-1.2,0.9244388608707323,1.2,-1.2,low,high,,ISIC_9613570.JPG,,ISIC_3565564.JPG,,40,true,0.4500000000000003,lh,keypress(e),100,false,422064.10000014305,422063.90000009537,405943.139,405936.10000014305,405959.866,422091.369,1,16,12,
sequence,flow.Sequence,4_11,2023-11-27T19:34:12.473Z,,,,,,,,,,,16104.034000095387,completion,,,,,,,low,high,,,,,,,true,,,,,false,422064.30000019073,422063.90000009537,405943.139,405936.10000014305,405959.866,422091.369,1,16,,
trial,html.Screen,4_12_0,2023-11-27T19:34:28.287Z,,,,0,-1.168911077628813,1.2181838235193114,,,true,hl,15786.731000143045,response,0.7518277461369444,1.2,-1.2,-1.3860759020802074,1.2,-1.2,high,low,,ISIC_7358691.JPG,,ISIC_7967397.JPG,,26,true,0.4500000000000003,hl,keypress(j),100,false,437878.2000000477,437878.10000014305,422074.55,422064.40000009537,422091.369,437905.447,1,16,13,
sequence,flow.Sequence,4_12,2023-11-27T19:34:28.287Z,,,,,,,,,,,15786.731000143045,completion,,,,,,,high,low,,,,,,,true,,,,,false,437878.5,437878.10000014305,422074.55,422064.40000009537,422091.369,437905.447,1,16,,
trial,html.Screen,4_13_0,2023-11-27T19:34:45.109Z,,,,0,-0.9089402323867112,0.8034544077281132,,,true,hl,16794.953000095382,response,0.7991459998473059,1.2,-1.2,-1.0280788723474688,1.2,-1.2,high,low,,ISIC_3585381.JPG,,ISIC_7951202.JPG,,26,true,0.4500000000000003,hl,keypress(j),100,false,454700.60000014305,454700.40000009537,437888.637,437878.5,437905.447,454721.319,1,16,14,
sequence,flow.Sequence,4_13,2023-11-27T19:34:45.110Z,,,,,,,,,,,16794.953000095382,completion,,,,,,,high,low,,,,,,,true,,,,,false,454700.90000009537,454700.40000009537,437888.637,437878.5,437905.447,454721.319,1,16,,
trial,html.Screen,4_14_0,2023-11-27T19:35:00.379Z,,,,0,-1.045301444872812,1.0872560254441277,,,true,hl,15247.881000047666,response,0.8472024037189965,1.2,-1.2,-0.986370061404882,1.2,-1.2,high,low,,ISIC_4507700.JPG,,ISIC_0054355.JPG,,26,true,0.4500000000000003,hl,keypress(j),100,false,469969.40000009537,469969.2000000477,454704.656,454701.10000014305,454721.319,470001.126,1,16,15,
sequence,flow.Sequence,4_14,2023-11-27T19:35:00.380Z,,,,,,,,,,,15247.881000047666,completion,,,,,,,high,low,,,,,,,true,,,,,false,469969.7000000477,469969.2000000477,454704.656,454701.10000014305,454721.319,470001.126,1,16,,
trial,html.Screen,4_15_0,2023-11-27T19:35:06.455Z,,,,0,-0.8500530224490773,1.0893360711742854,,,true,hl,6044.074000047694,response,0.8472024037189965,1.2,-1.2,-0.986370061404882,1.2,-1.2,high,low,,ISIC_2998367.JPG,,ISIC_0054355.JPG,,26,true,0.4500000000000003,hl,keypress(j),100,false,476045.30000019073,476045.2000000477,469984.388,469969.80000019073,470001.126,476062.861,1,16,16,
sequence,flow.Sequence,4_15,2023-11-27T19:35:06.455Z,,,,,,,,,,,6044.074000047694,completion,,,,,,,high,low,,,,,,,true,,,,,false,476045.60000014305,476045.2000000477,469984.388,469969.7000000477,470001.126,476062.861,1,16,,
demonstration_loop,flow.Loop,4,2023-11-27T19:35:06.456Z,,,,,,,,,,,190519.58700004767,completion,,,,,,,,,,,,,,,true,,,,,false,476045.7000000477,476045.2000000477,285509.103,285514.60000014305,285525.613,476062.861,1,16,,
practice_instructions,html.Screen,5,2023-11-27T19:35:27.948Z,,,,,,,,,,,21466.639000000025,response,,,,,,,,,,,,,,,,,continue,click button,,,497538.2000000477,497529.5,476046.2,476045.80000019073,476062.861,497554.642,,,,
trial,html.Screen,6_0_0,2023-11-27T19:35:43.952Z,,,,1,-0.9244148283103414,0.9712966348713286,,,,,16014.478999999992,timeout,1.2362557973341337,1.2,-1.2,-1.2548266183352603,1.2,-1.2,high,low,,ISIC_7927525.JPG,,ISIC_0033886.JPG,,26,true,0.4500000000000003,,,0,false,513542.30000019073,513542,497521.515,497538.30000019073,497554.642,513569.121,1,40,1,
sequence,flow.Sequence,6_0,2023-11-27T19:35:43.952Z,,,,,,,,,,,15987.358000000007,completion,,,,,,,high,low,,,,,,,true,,,,,false,513542.40000009537,513542,497521.515,497538.30000019073,497554.642,513569.121,1,40,,
trial,html.Screen,6_1_0,2023-11-27T19:35:52.302Z,,,,1,-1.136677654701082,-1.2647850993872314,,,true,hh,8322.779000095383,response,0.8086813973201046,1.2,-1.2,0.8107888307699666,1.2,-1.2,high,high,,ISIC_0015436.JPG,,ISIC_3013468.JPG,,203,true,0.40000000000000024,hh,keypress(i),0,false,521892.2000000477,521891.90000009537,513552.457,513542.40000009537,513569.121,521902.024,1,40,2,
sequence,flow.Sequence,6_1,2023-11-27T19:35:52.302Z,,,,,,,,,,,8322.779000095383,completion,,,,,,,high,high,,,,,,,true,,,,,false,521892.5,521891.90000009537,513552.457,513542.40000009537,513569.121,521902.024,1,40,,
trial,html.Screen,6_2_0,2023-11-27T19:35:57.125Z,,,,1,-1.0769708994456726,-1.2196503533725178,,,true,hh,4811.876000095392,response,1.274752206258116,1.2,-1.2,1.2988509166163749,1.2,-1.2,high,high,,ISIC_0063824.JPG,,ISIC_6704623.JPG,,25,true,0.14,hh,keypress(i),0,false,526714,526713.9000000954,521885.34,521892.7000000477,521902.024,526728.213,1,40,3,
sequence,flow.Sequence,6_2,2023-11-27T19:35:57.125Z,,,,,,,,,,,4811.876000095392,completion,,,,,,,high,high,,,,,,,true,,,,,false,526714.2000000477,526713.9000000954,521885.34,521892.60000014305,521902.024,526728.213,1,40,,
trial,html.Screen,6_3_0,2023-11-27T19:36:00.638Z,,,,1,-1.1048559518249943,-1.2252457981338687,,,true,hh,3498.287000000011,response,1.0943527860463682,1.2,-1.2,1.124481746658104,1.2,-1.2,high,high,,ISIC_0060817.JPG,,ISIC_0438136.JPG,,25,true,0.14,hh,keypress(i),0,false,530226.7000000477,530226.5,526711.44,526714.2000000477,526728.213,530251.57,1,40,4,
sequence,flow.Sequence,6_3,2023-11-27T19:36:00.638Z,,,,,,,,,,,3498.287000000011,completion,,,,,,,high,high,,,,,,,true,,,,,false,530227,530226.5,526711.44,526714.2000000477,526728.213,530251.57,1,40,,
trial,html.Screen,6_4_0,2023-11-27T19:36:09.301Z,,,,1,1.0329549150636406,-1.01584100839286,,,true,lh,8638.430000000051,response,-1.2020012168275056,1.2,-1.2,0.923753102263735,1.2,-1.2,low,high,,ISIC_0054670.JPG,,ISIC_0000022.JPG,,27,true,0.40000000000000024,lh,keypress(e),0,false,538890.100000143,538890,530218.389,530227.100000143,530251.57,538901.765,1,40,5,
sequence,flow.Sequence,6_4,2023-11-27T19:36:09.302Z,,,,,,,,,,,8638.430000000051,completion,,,,,,,low,high,,,,,,,true,,,,,false,538890.3000001907,538890,530218.389,530227.100000143,530251.57,538901.765,1,40,,
trial,html.Screen,6_5_0,2023-11-27T19:36:14.486Z,,,,1,-1.2194553326562725,-1.2381726989215684,,,true,hh,5172.43500004767,response,0.7869352105908418,1.2,-1.2,1.003780497631855,1.2,-1.2,high,high,,ISIC_0068975.JPG,,ISIC_4559115.JPG,,265,true,0.4500000000000003,hh,keypress(i),0,false,544074.4000000954,544074.2000000477,538885.172,538890.4000000954,538901.765,544078.464,1,40,6,
sequence,flow.Sequence,6_5,2023-11-27T19:36:14.486Z,,,,,,,,,,,5172.43500004767,completion,,,,,,,high,high,,,,,,,true,,,,,false,544074.600000143,544074.2000000477,538885.172,538890.3000001907,538901.765,544078.464,1,40,,
trial,html.Screen,6_6_0,2023-11-27T19:36:17.405Z,,,,1,-1.0773466327271526,-1.1601445610079184,,,true,hh,2915.5359999999637,response,1.077278111180185,1.2,-1.2,1.1530533996184025,1.2,-1.2,high,high,,ISIC_0055169.JPG,,ISIC_9525136.JPG,,25,true,0.14,hh,keypress(i),0,false,546994.2000000477,546994,544061.815,544074.7000000477,544078.464,547000.806,1,40,7,
sequence,flow.Sequence,6_6,2023-11-27T19:36:17.406Z,,,,,,,,,,,2915.5359999999637,completion,,,,,,,high,high,,,,,,,true,,,,,false,546994.3000001907,546994,544061.815,544074.7000000477,544078.464,547000.806,1,40,,
trial,html.Screen,6_7_0,2023-11-27T19:36:22.669Z,,,,1,1.077278111180185,1.1530533996184025,,,true,ll,5257.094000095385,response,-1.1392972253022884,1.2,-1.2,-1.208510423375335,1.2,-1.2,low,low,,ISIC_9525136.JPG,,ISIC_0046526.JPG,,30,true,0.13,ll,keypress(f),0,false,552258,552257.9000000954,546984.216,546994.4000000954,547000.806,552277.72,1,40,8,
sequence,flow.Sequence,6_7,2023-11-27T19:36:22.669Z,,,,,,,,,,,5257.094000095385,completion,,,,,,,low,low,,,,,,,true,,,,,false,552258.2000000477,552257.9000000954,546984.216,546994.3000001907,547000.806,552277.72,1,40,,
trial,html.Screen,6_8_0,2023-11-27T19:36:31.510Z,,,,1,-0.8350129142228142,0.8172547818270586,,,true,hl,8820.580000190763,response,0.8513427412482127,1.2,-1.2,-0.9295303568095064,1.2,-1.2,high,low,,ISIC_0301568.JPG,,ISIC_0034164.JPG,,26,true,0.4500000000000003,hl,keypress(j),0,false,561098.5,561098.3000001907,552244.431,552258.2000000477,552277.72,561111.586,1,40,9,
sequence,flow.Sequence,6_8,2023-11-27T19:36:31.510Z,,,,,,,,,,,8820.580000190763,completion,,,,,,,high,low,,,,,,,true,,,,,false,561098.9000000954,561098.3000001907,552244.431,552258.2000000477,552277.72,561111.586,1,40,,
trial,html.Screen,6_9_0,2023-11-27T19:36:37.477Z,,,,1,1.3379750533585932,1.1671342614509763,,,true,ll,5954.314000095357,response,-0.8954798455174807,1.2,-1.2,-1.224456631184783,1.2,-1.2,low,low,,ISIC_0063556.JPG,,ISIC_0033024.JPG,,288,true,0.40000000000000024,ll,keypress(f),0,false,567066,567065.9000000954,561094.987,561099,561111.586,567089.856,1,40,10,
sequence,flow.Sequence,6_9,2023-11-27T19:36:37.477Z,,,,,,,,,,,5954.314000095357,completion,,,,,,,low,low,,,,,,,true,,,,,false,567066.100000143,567065.9000000954,561094.987,561098.9000000954,561111.586,567089.856,1,40,,
trial,html.Screen,6_10_0,2023-11-27T19:36:47.077Z,,,,1,0.7882758084023446,-0.8296405881378283,,,true,lh,9576.044000095339,response,-1.168911077628813,1.2,-1.2,1.2181838235193114,1.2,-1.2,low,high,,ISIC_0065882.JPG,,ISIC_7358691.JPG,,27,true,0.40000000000000024,lh,keypress(e),0,false,576666.100000143,576665.9000000954,567056.506,567066.2000000477,567089.856,576675.165,1,40,11,
sequence,flow.Sequence,6_10,2023-11-27T19:36:47.077Z,,,,,,,,,,,9576.044000095339,completion,,,,,,,low,high,,,,,,,true,,,,,false,576666.2000000477,576665.9000000954,567056.506,567066.2000000477,567089.856,576675.165,1,40,,
trial,html.Screen,6_11_0,2023-11-27T19:36:56.351Z,,,,1,-0.9662688541319592,0.929746784178986,,,true,hl,9263.535000047646,response,0.989300717252516,1.2,-1.2,-0.7908280206937478,1.2,-1.2,high,low,,ISIC_0011077.JPG,,ISIC_6416533.JPG,,26,true,0.4500000000000003,hl,keypress(j),0,false,585938.9000000954,585938.7000000477,576658.639,576666.3000001907,576675.165,585959.932,1,40,12,
sequence,flow.Sequence,6_11,2023-11-27T19:36:56.352Z,,,,,,,,,,,9263.535000047646,completion,,,,,,,high,low,,,,,,,true,,,,,false,585939.2000000477,585938.7000000477,576658.639,576666.3000001907,576675.165,585959.932,1,40,,
trial,html.Screen,6_12_0,2023-11-27T19:37:04.351Z,,,,1,0.8034318937720549,-1.0024917298189338,,,true,lh,7978.368000190705,response,-1.2594580992890123,1.2,-1.2,0.8833175387485132,1.2,-1.2,low,high,,ISIC_0032766.JPG,,ISIC_0011933.JPG,,27,true,0.40000000000000024,lh,keypress(e),0,false,593938.5,593938.3000001907,585926.64,585939.4000000954,585959.932,593942.133,1,40,13,
sequence,flow.Sequence,6_12,2023-11-27T19:37:04.351Z,,,,,,,,,,,7978.368000190705,completion,,,,,,,low,high,,,,,,,true,,,,,false,593938.8000001907,593938.3000001907,585926.64,585939.3000001907,585959.932,593942.133,1,40,,
trial,html.Screen,6_13_0,2023-11-27T19:37:10.967Z,,,,1,1.2724293858920366,1.149360738769835,,,true,ll,6612.067000047653,response,-0.845126792258035,1.2,-1.2,-1.6198752837338333,1.2,-1.2,low,low,,ISIC_1264725.JPG,,ISIC_0011219.JPG,,359,true,0.4500000000000003,ll,keypress(f),0,false,600554.3000001907,600554.2000000477,593925.542,593938.9000000954,593942.133,600572.534,1,40,14,
sequence,flow.Sequence,6_13,2023-11-27T19:37:10.967Z,,,,,,,,,,,6612.067000047653,completion,,,,,,,low,low,,,,,,,true,,,,,false,600554.4000000954,600554.2000000477,593925.542,593938.9000000954,593942.133,600572.534,1,40,,
trial,html.Screen,6_14_0,2023-11-27T19:37:18.975Z,,,,1,0.8034318937720549,-1.0024917298189338,,,true,lh,7989.466000000015,response,-0.9544693251394116,1.2,-1.2,1.0727539917203766,1.2,-1.2,low,high,,ISIC_0032766.JPG,,ISIC_0055147.JPG,,27,true,0.40000000000000024,lh,keypress(e),0,false,608562.100000143,608562,600538.245,600554.4000000954,600572.534,608570.544,1,40,15,
sequence,flow.Sequence,6_14,2023-11-27T19:37:18.975Z,,,,,,,,,,,7989.466000000015,completion,,,,,,,low,high,,,,,,,true,,,,,false,608562.2000000477,608562,600538.245,600554.4000000954,600572.534,608570.544,1,40,,
trial,html.Screen,6_15_0,2023-11-27T19:37:29.470Z,,,,1,-0.9662688541319592,0.929746784178986,,,true,hl,10487.25600019074,response,1.0329549150636406,1.2,-1.2,-1.01584100839286,1.2,-1.2,high,low,,ISIC_0011077.JPG,,ISIC_0054670.JPG,,26,true,0.4500000000000003,hl,keypress(j),0,false,619057.8000001907,619057.8000001907,608553.934,608562.3000001907,608570.544,619074.294,1,40,16,
sequence,flow.Sequence,6_15,2023-11-27T19:37:29.470Z,,,,,,,,,,,10487.25600019074,completion,,,,,,,high,low,,,,,,,true,,,,,false,619057.9000000954,619057.8000001907,608553.934,608562.3000001907,608570.544,619074.294,1,40,,
trial,html.Screen,6_16_0,2023-11-27T19:37:37.942Z,,,,1,-1.045301444872812,1.0872560254441277,,,true,hl,8455.206000000006,response,0.8472024037189965,1.2,-1.2,-0.986370061404882,1.2,-1.2,high,low,,ISIC_4507700.JPG,,ISIC_0054355.JPG,,26,true,0.4500000000000003,hl,keypress(j),0,false,627529.600000143,627529.5,619057.65,619058,619074.294,627540.85,1,40,17,
sequence,flow.Sequence,6_16,2023-11-27T19:37:37.942Z,,,,,,,,,,,8455.206000000006,completion,,,,,,,high,low,,,,,,,true,,,,,false,627529.7000000477,627529.5,619057.65,619058,619074.294,627540.85,1,40,,
trial,html.Screen,6_17_0,2023-11-27T19:37:42.631Z,,,,1,1.274417010249866,1.0725495669014795,,,true,ll,4677.650000000023,response,-0.9574234872819756,1.2,-1.2,-1.3003764624334877,1.2,-1.2,low,low,,ISIC_8849004.JPG,,ISIC_0054167.JPG,,288,true,0.40000000000000024,ll,keypress(f),0,false,632218.7000000477,632218.5,627523.97,627529.7000000477,627540.85,632233.416,1,40,18,
sequence,flow.Sequence,6_17,2023-11-27T19:37:42.631Z,,,,,,,,,,,4677.650000000023,completion,,,,,,,low,low,,,,,,,true,,,,,false,632219,632218.5,627523.97,627529.7000000477,627540.85,632233.416,1,40,,
trial,html.Screen,6_18_0,2023-11-27T19:37:45.519Z,,,,1,-1.071312313440387,-1.0935391476164529,,,true,hh,2872.7840000477154,response,1.077278111180185,1.2,-1.2,1.1530533996184025,1.2,-1.2,high,high,,ISIC_0063680.JPG,,ISIC_9525136.JPG,,25,true,0.14,hh,keypress(i),0,false,635106.3000001907,635106.2000000477,632216.648,632219.2000000477,632233.416,635138.854,1,40,19,
sequence,flow.Sequence,6_18,2023-11-27T19:37:45.519Z,,,,,,,,,,,2872.7840000477154,completion,,,,,,,high,high,,,,,,,true,,,,,false,635106.600000143,635106.2000000477,632216.648,632219.100000143,632233.416,635138.854,1,40,,
trial,html.Screen,6_19_0,2023-11-27T19:37:54.015Z,,,,1,0.8828738626295417,-0.8288177599439582,,,true,lh,8463.546000095317,response,-0.8443403196524287,1.2,-1.2,0.8858525429102605,1.2,-1.2,low,high,,ISIC_0056041.JPG,,ISIC_8777813.JPG,,27,true,0.40000000000000024,lh,keypress(e),0,false,643602.5,643602.4000000954,635105.444,635106.7000000477,635138.854,643605.383,1,40,20,
sequence,flow.Sequence,6_19,2023-11-27T19:37:54.015Z,,,,,,,,,,,8463.546000095317,completion,,,,,,,low,high,,,,,,,true,,,,,false,643602.8000001907,643602.4000000954,635105.444,635106.600000143,635138.854,643605.383,1,40,,
trial,html.Screen,6_20_0,2023-11-27T19:37:56.337Z,,,,1,-1.1243896694621007,-1.1772340944704969,,,true,hh,2317.1169999999693,response,0.9249180304825352,1.2,-1.2,0.9557254346276748,1.2,-1.2,high,high,,ISIC_0062765.JPG,,ISIC_6778515.JPG,,265,true,0.4500000000000003,hh,keypress(i),0,false,645922.7000000477,645922.5,643588.628,643602.9000000954,643605.383,645926.556,1,40,21,
sequence,flow.Sequence,6_20,2023-11-27T19:37:56.337Z,,,,,,,,,,,2317.1169999999693,completion,,,,,,,high,high,,,,,,,true,,,,,false,645923.100000143,645922.5,643588.628,643602.9000000954,643605.383,645926.556,1,40,,
trial,html.Screen,6_21_0,2023-11-27T19:38:06.960Z,,,,1,1.077278111180185,1.1530533996184025,,,true,ll,10619.544000143069,response,-1.071312313440387,1.2,-1.2,-1.0935391476164529,1.2,-1.2,low,low,,ISIC_9525136.JPG,,ISIC_0063680.JPG,,30,true,0.13,ll,keypress(f),0,false,656546.3000001907,656546.100000143,645909.933,645923.3000001907,645926.556,656565.222,1,40,22,
sequence,flow.Sequence,6_21,2023-11-27T19:38:06.960Z,,,,,,,,,,,10619.544000143069,completion,,,,,,,low,low,,,,,,,true,,,,,false,656546.4000000954,656546.100000143,645909.933,645923.2000000477,645926.556,656565.222,1,40,,
trial,html.Screen,6_22_0,2023-11-27T19:38:10.184Z,,,,1,1.2253191093367526,1.241905252673026,,,true,ll,3204.7780000000494,response,-1.1243896694621007,1.2,-1.2,-1.1772340944704969,1.2,-1.2,low,low,,ISIC_1195689.JPG,,ISIC_0062765.JPG,,40,true,0.14,ll,keypress(f),0,false,659770.100000143,659770,656530.532,656546.5,656565.222,659787.081,1,40,23,
sequence,flow.Sequence,6_22,2023-11-27T19:38:10.184Z,,,,,,,,,,,3204.7780000000494,completion,,,,,,,low,low,,,,,,,true,,,,,false,659770.4000000954,659770,656530.532,656546.5,656565.222,659787.081,1,40,,
trial,html.Screen,6_23_0,2023-11-27T19:38:18.504Z,,,,1,-1.1017564906891342,-1.293633394635193,,,true,hh,8302.819000095362,response,1.2804054832904397,1.2,-1.2,1.171271535505083,1.2,-1.2,high,high,,ISIC_0029026.JPG,,ISIC_7889838.JPG,,25,true,0.14,hh,keypress(i),0,false,668089.9000000954,668089.9000000954,659770.248,659770.600000143,659787.081,668103.002,1,40,24,
sequence,flow.Sequence,6_23,2023-11-27T19:38:18.504Z,,,,,,,,,,,8302.819000095362,completion,,,,,,,high,high,,,,,,,true,,,,,false,668090.2000000477,668089.9000000954,659770.248,659770.5,659787.081,668103.002,1,40,,
trial,html.Screen,6_24_0,2023-11-27T19:38:26.416Z,,,,1,-0.9662688541319592,0.929746784178986,,,true,hl,7899.198000047705,response,0.989300717252516,1.2,-1.2,-0.7908280206937478,1.2,-1.2,high,low,,ISIC_0011077.JPG,,ISIC_6416533.JPG,,26,true,0.4500000000000003,hl,keypress(j),0,false,676002.3000001907,676002.2000000477,668086.394,668090.2000000477,668103.002,676018.394,1,40,25,
sequence,flow.Sequence,6_24,2023-11-27T19:38:26.416Z,,,,,,,,,,,7899.198000047705,completion,,,,,,,high,low,,,,,,,true,,,,,false,676002.600000143,676002.2000000477,668086.394,668090.2000000477,668103.002,676018.394,1,40,,
trial,html.Screen,6_25_0,2023-11-27T19:38:32.424Z,,,,1,0.989300717252516,-0.7908280206937478,,,true,lh,5991.70600014308,response,-0.9544693251394116,1.2,-1.2,1.0727539917203766,1.2,-1.2,low,high,,ISIC_6416533.JPG,,ISIC_0055147.JPG,,27,true,0.40000000000000024,lh,keypress(e),0,false,682010.3000001907,682010.100000143,676001.727,676002.7000000477,676018.394,682013.395,1,40,26,
sequence,flow.Sequence,6_25,2023-11-27T19:38:32.424Z,,,,,,,,,,,5991.70600014308,completion,,,,,,,low,high,,,,,,,true,,,,,false,682010.4000000954,682010.100000143,676001.727,676002.7000000477,676018.394,682013.395,1,40,,
trial,html.Screen,6_26_0,2023-11-27T19:38:39.079Z,,,,1,-1.2646773654288392,0.952963803634235,,,true,hl,6652.104999999981,response,1.0329549150636406,1.2,-1.2,-1.01584100839286,1.2,-1.2,high,low,,ISIC_1996356.JPG,,ISIC_0054670.JPG,,26,true,0.4500000000000003,hl,keypress(j),0,false,688665.5,688665.5,681996.834,682010.600000143,682013.395,688676.292,1,40,27,
sequence,flow.Sequence,6_26,2023-11-27T19:38:39.079Z,,,,,,,,,,,6652.104999999981,completion,,,,,,,high,low,,,,,,,true,,,,,false,688665.7000000477,688665.5,681996.834,682010.600000143,682013.395,688676.292,1,40,,
trial,html.Screen,6_27_0,2023-11-27T19:38:46.344Z,,,,1,-0.8307508446051526,1.1707575338936729,,,true,hl,7254.108000095352,response,1.2362557973341337,1.2,-1.2,-1.2548266183352603,1.2,-1.2,high,low,,ISIC_0028606.JPG,,ISIC_0033886.JPG,,26,true,0.4500000000000003,hl,keypress(j),0,false,695930.600000143,695930.4000000954,688659.812,688665.7000000477,688676.292,695940.506,1,40,28,
sequence,flow.Sequence,6_27,2023-11-27T19:38:46.345Z,,,,,,,,,,,7254.108000095352,completion,,,,,,,high,low,,,,,,,true,,,,,false,695930.9000000954,695930.4000000954,688659.812,688665.7000000477,688676.292,695940.506,1,40,,
trial,html.Screen,6_28_0,2023-11-27T19:38:54.232Z,,,,1,0.7991459998473059,-1.0280788723474688,,,true,lh,7877.394000095315,response,-1.0788024398087033,1.2,-1.2,0.9911875460374616,1.2,-1.2,low,high,,ISIC_7951202.JPG,,ISIC_5951430.JPG,,27,true,0.40000000000000024,lh,keypress(e),0,false,703818,703817.9000000954,695923.958,695931,695940.506,703822.464,1,40,29,
sequence,flow.Sequence,6_28,2023-11-27T19:38:54.232Z,,,,,,,,,,,7877.394000095315,completion,,,,,,,low,high,,,,,,,true,,,,,false,703818.2000000477,703817.9000000954,695923.958,695931,695940.506,703822.464,1,40,,
trial,html.Screen,6_29_0,2023-11-27T19:38:58.074Z,,,,1,1.160746324899676,1.1927876559115576,,,true,ll,3835.936000095331,response,-1.1117876838408909,1.2,-1.2,-1.2957497771092716,1.2,-1.2,low,low,,ISIC_8651053.JPG,,ISIC_0061915.JPG,,359,true,0.4500000000000003,ll,keypress(f),0,false,707658.600000143,707658.4000000954,703805.77,703818.2000000477,703822.464,707663.302,1,40,30,
sequence,flow.Sequence,6_29,2023-11-27T19:38:58.074Z,,,,,,,,,,,3835.936000095331,completion,,,,,,,low,low,,,,,,,true,,,,,false,707659,707658.4000000954,703805.77,703818.2000000477,703822.464,707663.302,1,40,,
trial,html.Screen,6_30_0,2023-11-27T19:39:01.553Z,,,,1,1.2219550761700546,1.2809901875733454,,,true,ll,3474.4980001907097,response,-1.2033647433750492,1.2,-1.2,-1.0718012192341555,1.2,-1.2,low,low,,ISIC_6463417.JPG,,ISIC_0061606.JPG,,40,true,0.14,ll,keypress(f),0,false,711137.9000000954,711137.8000001907,707646.665,707659.100000143,707663.302,711153.377,1,40,31,
sequence,flow.Sequence,6_30,2023-11-27T19:39:01.553Z,,,,,,,,,,,3474.4980001907097,completion,,,,,,,low,low,,,,,,,true,,,,,false,711138.100000143,711137.8000001907,707646.665,707659.100000143,707663.302,711153.377,1,40,,
trial,html.Screen,6_31_0,2023-11-27T19:39:09.586Z,,,,1,-0.8867328775712738,1.0063426986460375,,,true,hl,8017.423000190756,response,1.058275612142778,1.2,-1.2,-0.7824898568540655,1.2,-1.2,high,low,,ISIC_0055759.JPG,,ISIC_4906385.JPG,,26,true,0.4500000000000003,hl,keypress(j),0,false,719171,719170.8000001907,711136.684,711138.100000143,711153.377,719202.398,1,40,32,
sequence,flow.Sequence,6_31,2023-11-27T19:39:09.586Z,,,,,,,,,,,8017.423000190756,completion,,,,,,,high,low,,,,,,,true,,,,,false,719171.3000001907,719170.8000001907,711136.684,711138.100000143,711153.377,719202.398,1,40,,
trial,html.Screen,6_32_0,2023-11-27T19:39:15.249Z,,,,1,-1.0153439398566937,0.93001438372942,,,true,hl,5631.302000047639,response,0.9754077946987664,1.2,-1.2,-1.1821868813141057,1.2,-1.2,high,low,,ISIC_8211214.JPG,,ISIC_0024317.JPG,,26,true,0.4500000000000003,hl,keypress(j),0,false,724833.9000000954,724833.7000000477,719169.145,719171.5,719202.398,724846.675,1,40,33,
sequence,flow.Sequence,6_32,2023-11-27T19:39:15.249Z,,,,,,,,,,,5631.302000047639,completion,,,,,,,high,low,,,,,,,true,,,,,false,724834,724833.7000000477,719169.145,719171.5,719202.398,724846.675,1,40,,
trial,html.Screen,6_33_0,2023-11-27T19:39:22.010Z,,,,1,1.2362557973341337,-1.2548266183352603,,,true,lh,6747.824999999953,response,-0.9544693251394116,1.2,-1.2,1.0727539917203766,1.2,-1.2,low,high,,ISIC_0033886.JPG,,ISIC_0055147.JPG,,27,true,0.40000000000000024,lh,keypress(e),0,false,731594.600000143,731594.5,724830.169,724834.100000143,724846.675,731609.839,1,40,34,
sequence,flow.Sequence,6_33,2023-11-27T19:39:22.010Z,,,,,,,,,,,6747.824999999953,completion,,,,,,,low,high,,,,,,,true,,,,,false,731594.8000001907,731594.5,724830.169,724834.100000143,724846.675,731609.839,1,40,,
trial,html.Screen,6_34_0,2023-11-27T19:39:28.681Z,,,,1,1.2219550761700546,1.2809901875733454,,,true,ll,6656.061000095331,response,-0.900981242677363,1.2,-1.2,-0.8834104283484265,1.2,-1.2,low,low,,ISIC_6463417.JPG,,ISIC_7236365.JPG,,359,true,0.4500000000000003,ll,keypress(f),0,false,738266,738265.9000000954,731593.25,731594.9000000954,731609.839,738289.494,1,40,35,
sequence,flow.Sequence,6_34,2023-11-27T19:39:28.681Z,,,,,,,,,,,6656.061000095331,completion,,,,,,,low,low,,,,,,,true,,,,,false,738266.2000000477,738265.9000000954,731593.25,731594.9000000954,731609.839,738289.494,1,40,,
trial,html.Screen,6_35_0,2023-11-27T19:39:34.665Z,,,,1,0.8719231363109603,-0.7704280220140033,,,true,lh,5960.40600009542,response,-0.9662688541319592,1.2,-1.2,0.929746784178986,1.2,-1.2,low,high,,ISIC_0029453.JPG,,ISIC_0011077.JPG,,27,true,0.40000000000000024,lh,keypress(e),0,false,744250.100000143,744249.9000000954,738256.125,738266.3000001907,738289.494,744269.144,1,40,36,
sequence,flow.Sequence,6_35,2023-11-27T19:39:34.665Z,,,,,,,,,,,5960.40600009542,completion,,,,,,,low,high,,,,,,,true,,,,,false,744250.2000000477,744249.9000000954,738256.125,738266.3000001907,738289.494,744269.144,1,40,,
trial,html.Screen,6_36_0,2023-11-27T19:39:41.313Z,,,,1,1.1684835186766898,1.2921331918483707,,,true,ll,6628.95600014308,response,-1.2033647433750492,1.2,-1.2,-1.0718012192341555,1.2,-1.2,low,low,,ISIC_5920470.JPG,,ISIC_0061606.JPG,,359,true,0.4500000000000003,ll,keypress(f),0,false,750898.3000001907,750898.100000143,744234.505,744250.3000001907,744269.144,750930.754,1,40,37,
sequence,flow.Sequence,6_36,2023-11-27T19:39:41.314Z,,,,,,,,,,,6628.95600014308,completion,,,,,,,low,low,,,,,,,true,,,,,false,750898.7000000477,750898.100000143,744234.505,744250.3000001907,744269.144,750930.754,1,40,,
trial,html.Screen,6_37_0,2023-11-27T19:39:46.657Z,,,,1,0.8034318937720549,-1.0024917298189338,,,true,lh,5311.246000000043,response,-0.8544507134472948,1.2,-1.2,0.9244388608707323,1.2,-1.2,low,high,,ISIC_0032766.JPG,,ISIC_3565564.JPG,,27,true,0.40000000000000024,lh,keypress(e),0,false,756242.100000143,756242,750897.411,750898.8000001907,750930.754,756257.864,1,40,38,
sequence,flow.Sequence,6_37,2023-11-27T19:39:46.657Z,,,,,,,,,,,5311.246000000043,completion,,,,,,,low,high,,,,,,,true,,,,,false,756242.3000001907,756242,750897.411,750898.7000000477,750930.754,756257.864,1,40,,
trial,html.Screen,6_38_0,2023-11-27T19:39:50.545Z,,,,1,-1.1302628852630028,-1.288906469447243,,,true,hh,3871.8360000477405,response,1.085906502329253,1.2,-1.2,0.8769314895018409,1.2,-1.2,high,high,,ISIC_0071050.JPG,,ISIC_2693412.JPG,,265,true,0.4500000000000003,hh,keypress(i),0,false,760129.7000000477,760129.7000000477,756241.055,756242.5,756257.864,760131.968,1,40,39,
sequence,flow.Sequence,6_38,2023-11-27T19:39:50.545Z,,,,,,,,,,,3871.8360000477405,completion,,,,,,,high,high,,,,,,,true,,,,,false,760129.9000000954,760129.7000000477,756241.055,756242.4000000954,756257.864,760131.968,1,40,,
trial,html.Screen,6_39_0,2023-11-27T19:39:53.249Z,,,,1,-1.1668613502915044,-1.327068780840367,,,true,hh,2701.7320000476902,response,1.2100527057059796,1.2,-1.2,1.2159112471537263,1.2,-1.2,high,high,,ISIC_0054459.JPG,,ISIC_0008055.JPG,,25,true,0.14,hh,keypress(i),0,false,762833.8000001907,762833.7000000477,760115.501,760129.9000000954,760131.968,762837.23,1,40,40,
sequence,flow.Sequence,6_39,2023-11-27T19:39:53.249Z,,,,,,,,,,,2701.7320000476902,completion,,,,,,,high,high,,,,,,,true,,,,,false,762833.9000000954,762833.7000000477,760115.501,760129.9000000954,760131.968,762837.23,1,40,,
practice_loop,flow.Loop,6,2023-11-27T19:39:53.249Z,,,,,,,,,,,265279.0580000477,completion,,,,,,,,,,,,,,,true,,,,,false,762834,762833.7000000477,497521.515,497538.30000019073,497554.642,762837.23,1,40,,
stair_instructions,html.Screen,7,2023-11-27T19:40:30.954Z,,,,,,,,,,,37699.77000000002,response,,,,,,,,,,,,,,,,,continue,click button,,,800537.5,800537,762820.531,762834.100000143,762837.23,800560.812,,,,
trial,html.Screen,8_0_0,2023-11-27T19:40:41.661Z,,,,2,0.0258224118104549,-0.0029364553353019,,0.04,true,ll,10683.687999999966,response,-1.268445326285509,1.2,-1.2,-1.173734476257662,1.2,-1.2,low,low,,ISIC_8325226.JPG,,ISIC_5216586.JPG,28,30,false,0.13,ll,keypress(f),0,true,811244.7000000477,811244.5,800543.908,800537.600000143,800560.812,811264.763,1,40,1,
sequence,flow.Sequence,8_0,2023-11-27T19:40:41.661Z,,,,,,,,,,,10683.687999999966,completion,,,,,,,low,low,,,,,,,false,,,,,true,811244.8000001907,811244.5,800543.908,800537.600000143,800560.812,811264.763,1,40,,
trial,html.Screen,8_1_0,2023-11-27T19:40:50.104Z,,,,2,0.0367744112927588,0.0324865661712824,,0.04,false,ll,8422.637000095332,response,-1.219634566983089,1.15,-1.15,-1.0648460966097275,1.15,-1.15,low,low,,ISIC_4523565.JPG,,ISIC_0030552.JPG,28,27,false,0.1,hl,keypress(j),0,true,819687.600000143,819687.4000000954,811248.056,811244.8000001907,811264.763,819697.838,1,40,2,
sequence,flow.Sequence,8_1,2023-11-27T19:40:50.105Z,,,,,,,,,,,8422.637000095332,completion,,,,,,,low,low,,,,,,,false,,,,,true,819687.8000001907,819687.4000000954,811248.056,811244.8000001907,811264.763,819697.838,1,40,,
trial,html.Screen,8_2_0,2023-11-27T19:40:53.699Z,,,,2,-0.0198696495649504,0.0387952353063878,,0.04,false,hl,3583.862000047695,response,0.84290786638064,1.15,-1.15,-0.7332521189371746,1.15,-1.0692902864336948,high,low,,ISIC_6735970.JPG,,ISIC_4708642.JPG,28,25,false,0.3500000000000002,hh,keypress(i),0,true,823281.8000001907,823281.7000000477,819681.088,819687.9000000954,819697.838,823288.131,1,40,3,
sequence,flow.Sequence,8_2,2023-11-27T19:40:53.699Z,,,,,,,,,,,3583.862000047695,completion,,,,,,,high,low,,,,,,,false,,,,,true,823282,823281.7000000477,819681.088,819687.9000000954,819697.838,823288.131,1,40,,
trial,html.Screen,8_3_0,2023-11-27T19:41:01.259Z,,,,2,0.0200295718112167,0.0155559071275806,,0.04,false,hl,7553.969000142999,response,0.8926515927689261,1.15,-1.15,-0.7935960767768927,1.15,-1.1192902864336949,high,low,,ISIC_0061343.JPG,,ISIC_8901371.JPG,28,25,false,0.3800000000000002,lh,keypress(e),0,true,830842.3000001907,830842.100000143,823271.577,823282,823288.131,830852.88,1,40,4,
sequence,flow.Sequence,8_3,2023-11-27T19:41:01.259Z,,,,,,,,,,,7553.969000142999,completion,,,,,,,high,low,,,,,,,false,,,,,true,830842.5,830842.100000143,823271.577,823282,823288.131,830852.88,1,40,,
trial,html.Screen,8_4_0,2023-11-27T19:41:05.675Z,,,,2,0.0286056110007553,0.036125199756515,,0.04,false,lh,4405.020000095363,response,-0.8067116931297591,1.15,-1.15,1.215898074058027,1.15,-1.169290286433695,low,high,,ISIC_6535558.JPG,,ISIC_1457687.JPG,28,26,false,0.3500000000000002,hh,keypress(i),0,true,835258.100000143,835257.9000000954,830836.286,830842.600000143,830852.88,835261.423,1,40,5,
sequence,flow.Sequence,8_4,2023-11-27T19:41:05.675Z,,,,,,,,,,,4405.020000095363,completion,,,,,,,low,high,,,,,,,false,,,,,true,835258.2000000477,835257.9000000954,830836.286,830842.600000143,830852.88,835261.423,1,40,,
trial,html.Screen,8_5_0,2023-11-27T19:41:10.074Z,,,,2,0.0367744112927588,0.0324865661712824,,0.04,true,lh,4396.077000000048,response,-1.0788024398087033,1.15,-1.15,0.9911875460374616,1.15,-1.169290286433695,low,high,,ISIC_4523565.JPG,,ISIC_5951430.JPG,28,26,false,0.3500000000000002,lh,keypress(e),0,true,839657.5,839657.5,835244.803,835258.3000001907,835261.423,839669.985,1,40,6,
sequence,flow.Sequence,8_5,2023-11-27T19:41:10.074Z,,,,,,,,,,,4396.077000000048,completion,,,,,,,low,high,,,,,,,false,,,,,true,839657.600000143,839657.5,835244.803,835258.3000001907,835261.423,839669.985,1,40,,
trial,html.Screen,8_6_0,2023-11-27T19:41:18.779Z,,,,2,0,-0.0102871556606504,,0.04,true,hl,8692.215000047698,response,0.8830264383952469,1.15,-1.15,-0.8635562538060516,1.0999999999999999,-1.169290286433695,high,low,,ISIC_1805163.JPG,,ISIC_0032258.JPG,28,25,false,0.40000000000000024,hl,keypress(j),0,true,848362.3000001907,848362.2000000477,839653.429,839657.7000000477,839669.985,848386.966,1,40,7,
sequence,flow.Sequence,8_6,2023-11-27T19:41:18.779Z,,,,,,,,,,,8692.215000047698,completion,,,,,,,high,low,,,,,,,false,,,,,true,848362.5,848362.2000000477,839653.429,839657.7000000477,839669.985,848386.966,1,40,,
trial,html.Screen,8_7_0,2023-11-27T19:41:26.683Z,,,,2,-0.039520186367207,-0.0377961575607372,,0.04,true,lh,7878.83400019072,response,-0.8867328775712738,1.15,-1.15,1.0063426986460375,1.0999999999999999,-1.169290286433695,low,high,,ISIC_6356149.JPG,,ISIC_0055759.JPG,28,26,false,0.3200000000000002,lh,keypress(e),0,true,856265.9000000954,856265.8000001907,848353.599,848362.600000143,848386.966,856268.928,1,40,8,
sequence,flow.Sequence,8_7,2023-11-27T19:41:26.683Z,,,,,,,,,,,7878.83400019072,completion,,,,,,,low,high,,,,,,,false,,,,,true,856266,856265.8000001907,848353.599,848362.600000143,848386.966,856268.928,1,40,,
trial,html.Screen,8_8_0,2023-11-27T19:41:34.589Z,,,,2,0.0258224118104549,-0.0029364553353019,,0.04,false,hl,7901.672000143095,response,0.7518277461369444,1.15,-1.0999999999999999,-1.3860759020802074,1.0999999999999999,-1.169290286433695,high,low,,ISIC_8325226.JPG,,ISIC_7967397.JPG,28,25,false,0.40000000000000024,lh,keypress(e),0,true,864170.8000001907,864170.600000143,856252.381,856266.100000143,856268.928,864184.394,1,40,9,
sequence,flow.Sequence,8_8,2023-11-27T19:41:34.589Z,,,,,,,,,,,7901.672000143095,completion,,,,,,,high,low,,,,,,,false,,,,,true,864171.100000143,864170.600000143,856252.381,856266.100000143,856268.928,864184.394,1,40,,
trial,html.Screen,8_9_0,2023-11-27T19:41:43.668Z,,,,2,-0.0074667911845194,0.018500200317654,,0.04,false,ll,9065.506000095396,response,-1.0653732408486678,1.15,-1.0999999999999999,-1.089675540151582,1.0999999999999999,-1.169290286433695,low,low,,ISIC_0058723.JPG,,ISIC_0058315.JPG,28,28,false,0.1,lh,keypress(e),0,true,873250,873249.9000000954,864167.743,864171.3000001907,864184.394,873251.993,1,40,10,
sequence,flow.Sequence,8_9,2023-11-27T19:41:43.668Z,,,,,,,,,,,9065.506000095396,completion,,,,,,,low,low,,,,,,,false,,,,,true,873250.3000001907,873249.9000000954,864167.743,864171.3000001907,864184.394,873251.993,1,40,,
trial,html.Screen,8_10_0,2023-11-27T19:41:48.973Z,,,,2,0.0119001144851157,-0.0063430114540141,,0.04,true,hh,5302.207000047667,response,1.1441960791049337,1.15,-1.0999999999999999,1.0156321899655198,1.0999999999999999,-1.169290286433695,high,high,,ISIC_0003822.JPG,,ISIC_4023381.JPG,28,27,false,0.13,hh,keypress(i),0,true,878554.5,878554.2000000477,873235.329,873250.4000000954,873251.993,878562.344,1,40,11,
sequence,flow.Sequence,8_10,2023-11-27T19:41:48.973Z,,,,,,,,,,,5302.207000047667,completion,,,,,,,high,high,,,,,,,false,,,,,true,878554.7000000477,878554.2000000477,873235.329,873250.4000000954,873251.993,878562.344,1,40,,
trial,html.Screen,8_11_0,2023-11-27T19:41:58.116Z,,,,2,0.0200295718112167,0.0155559071275806,,0.04,false,hh,9135.456000190694,response,1.0757050222000146,1.15,-1.0999999999999999,0.9214423600454036,1.0299141345352267,-1.169290286433695,high,high,,ISIC_0061343.JPG,,ISIC_5152859.JPG,28,30,false,0.13,lh,keypress(e),0,true,887698,887697.8000001907,878545.582,878554.9000000954,878562.344,887713.571,1,40,12,
sequence,flow.Sequence,8_11,2023-11-27T19:41:58.116Z,,,,,,,,,,,9135.456000190694,completion,,,,,,,high,high,,,,,,,false,,,,,true,887698.100000143,887697.8000001907,878545.582,878554.8000001907,878562.344,887713.571,1,40,,
trial,html.Screen,8_12_0,2023-11-27T19:42:00.092Z,,,,2,0.0200295718112167,0.0155559071275806,,0.04,true,hh,1959.7290001907386,response,1.0211808747755002,1.15,-1.0999999999999999,0.9580728810269548,1.0299141345352267,-1.169290286433695,high,high,,ISIC_0061343.JPG,,ISIC_1211506.JPG,28,30,false,0.13,hh,keypress(i),0,true,889673.5,889673.3000001907,887696.667,887698.2000000477,887713.571,889683.945,1,40,13,
sequence,flow.Sequence,8_12,2023-11-27T19:42:00.092Z,,,,,,,,,,,1959.7290001907386,completion,,,,,,,high,high,,,,,,,false,,,,,true,889673.5,889673.3000001907,887696.667,887698.2000000477,887713.571,889683.945,1,40,,
trial,html.Screen,8_13_0,2023-11-27T19:42:02.580Z,,,,2,0.0009714874637896,-0.0174815595031679,,0.04,true,ll,2478.255000047735,response,-1.0292044988574756,1.15,-1.0999999999999999,-1.1493680331134628,0.9396268779012275,-1.169290286433695,low,low,,ISIC_9848743.JPG,,ISIC_0061647.JPG,28,28,false,0.1,ll,keypress(f),0,true,892162.4000000954,892162.2000000477,889667.379,889673.600000143,889683.945,892172.172,1,40,14,
sequence,flow.Sequence,8_13,2023-11-27T19:42:02.581Z,,,,,,,,,,,2478.255000047735,completion,,,,,,,low,low,,,,,,,false,,,,,true,892162.7000000477,892162.2000000477,889667.379,889673.600000143,889683.945,892172.172,1,40,,
trial,html.Screen,8_14_0,2023-11-27T19:42:10.988Z,,,,2,0.0044063257337227,0.0172548282859886,,0.04,false,ll,8397.32799999998,response,-0.9665123004833394,1.15,-1.0392862659854691,-1.0732323917096356,0.9396268779012275,-1.169290286433695,low,low,,ISIC_7413786.JPG,,ISIC_3684488.JPG,28,36,false,0.1,lh,keypress(e),0,true,900569.600000143,900569.5,892155.498,892162.8000001907,892172.172,900571.777,1,40,15,
sequence,flow.Sequence,8_14,2023-11-27T19:42:10.988Z,,,,,,,,,,,8397.32799999998,completion,,,,,,,low,low,,,,,,,false,,,,,true,900569.8000001907,900569.5,892155.498,892162.8000001907,892172.172,900571.777,1,40,,
trial,html.Screen,8_15_0,2023-11-27T19:42:17.836Z,,,,2,0.0257631352671967,0.0202837002774028,,0.04,false,lh,6846.023000190733,response,-1.2594580992890123,1.15,-1.0392862659854691,0.8833175387485132,0.9396268779012275,-1.169290286433695,low,high,,ISIC_0032797.JPG,,ISIC_0011933.JPG,28,27,false,0.2300000000000001,ll,keypress(f),0,true,907417.9000000954,907417.8000001907,900555.248,900569.8000001907,900571.777,907435.11,1,40,16,
sequence,flow.Sequence,8_15,2023-11-27T19:42:17.836Z,,,,,,,,,,,6846.023000190733,completion,,,,,,,low,high,,,,,,,false,,,,,true,907418,907417.8000001907,900555.248,900569.8000001907,900571.777,907435.11,1,40,,
trial,html.Screen,8_16_0,2023-11-27T19:42:25.308Z,,,,2,0.0283578106329894,-0.0088840758711548,,0.04,false,hl,7454.390000000014,response,1.0369885917487718,1.15,-1.0629851998861757,-0.8486937878412699,0.9896268779012275,-1.169290286433695,high,low,,ISIC_0060707.JPG,,ISIC_6917681.JPG,28,25,false,0.40000000000000024,lh,keypress(e),0,true,914889.600000143,914889.5,907401.77,907418.100000143,907435.11,914899.644,1,40,17,
sequence,flow.Sequence,8_16,2023-11-27T19:42:25.308Z,,,,,,,,,,,7454.390000000014,completion,,,,,,,high,low,,,,,,,false,,,,,true,914889.8000001907,914889.5,907401.77,907418,907435.11,914899.644,1,40,,
trial,html.Screen,8_17_0,2023-11-27T19:42:32.733Z,,,,2,-0.0065172941585523,0.0118857043117315,,0.04,false,hl,7414.256000095396,response,0.8926515927689261,1.15,-1.0629851998861757,-0.7935960767768927,0.9896268779012275,-1.169290286433695,high,low,,ISIC_6119202.JPG,,ISIC_8901371.JPG,28,25,false,0.40000000000000024,hh,keypress(i),0,true,922314,922313.9000000954,914883.089,914889.8000001907,914899.644,922330.733,1,40,18,
sequence,flow.Sequence,8_17,2023-11-27T19:42:32.734Z,,,,,,,,,,,7414.256000095396,completion,,,,,,,high,low,,,,,,,false,,,,,true,922314.4000000954,922313.9000000954,914883.089,914889.8000001907,914899.644,922330.733,1,40,,
trial,html.Screen,8_18_0,2023-11-27T19:42:36.853Z,,,,2,0.0220026381002083,-0.0170756452911772,,0.04,false,lh,4102.66700009536,response,-0.9244148283103414,1.15,-1.0629851998861757,0.9712966348713286,0.9896268779012275,-1.169290286433695,low,high,,ISIC_5347806.JPG,,ISIC_7927525.JPG,28,26,false,0.2300000000000001,hh,keypress(i),0,true,926433.5,926433.4000000954,922314.227,922314.5,922330.733,926438.739,1,40,19,
sequence,flow.Sequence,8_18,2023-11-27T19:42:36.853Z,,,,,,,,,,,4102.66700009536,completion,,,,,,,low,high,,,,,,,false,,,,,true,926433.600000143,926433.4000000954,922314.227,922314.5,922330.733,926438.739,1,40,,
trial,html.Screen,8_19_0,2023-11-27T19:42:42.293Z,,,,2,-0.0199950873045219,-0.0172506388509166,,0.04,true,hl,5434.661000095424,response,0.7883321712536753,1.15,-1.1129851998861757,-1.0011430756825364,0.9896268779012275,-1.169290286433695,high,low,,ISIC_0029906.JPG,,ISIC_9828853.JPG,28,25,false,0.40000000000000024,hl,keypress(j),0,true,931873.5,931873.4000000954,926422.036,926433.7000000477,926438.739,931882.693,1,40,20,
sequence,flow.Sequence,8_19,2023-11-27T19:42:42.293Z,,,,,,,,,,,5434.661000095424,completion,,,,,,,high,low,,,,,,,false,,,,,true,931873.600000143,931873.4000000954,926422.036,926433.7000000477,926438.739,931882.693,1,40,,
trial,html.Screen,8_20_0,2023-11-27T19:42:46.790Z,,,,2,0.0257631352671967,0.0202837002774028,,0.04,true,hh,4487.607000190765,response,1.0325421457475312,1.0999999999999999,-1.1129851998861757,1.0219157566370058,0.9896268779012275,-1.169290286433695,high,high,,ISIC_0032797.JPG,,ISIC_5336548.JPG,28,25,false,0.1,hh,keypress(i),0,true,936370.5,936370.3000001907,931865.935,931873.7000000477,931882.693,936374.789,1,40,21,
sequence,flow.Sequence,8_20,2023-11-27T19:42:46.790Z,,,,,,,,,,,4487.607000190765,completion,,,,,,,high,high,,,,,,,false,,,,,true,936370.9000000954,936370.3000001907,931865.935,931873.7000000477,931882.693,936374.789,1,40,,
trial,html.Screen,8_21_0,2023-11-27T19:42:56.989Z,,,,2,-0.039520186367207,-0.0377961575607372,,0.04,true,lh,10194.811000143061,response,-0.9244148283103414,1.0999999999999999,-1.1129851998861757,0.9712966348713286,0.9772289511922685,-1.169290286433695,low,high,,ISIC_6356149.JPG,,ISIC_7927525.JPG,28,25,false,0.2600000000000001,lh,keypress(e),0,true,946569.8000001907,946569.600000143,936358.21,936371.100000143,936374.789,946577.891,1,40,22,
sequence,flow.Sequence,8_21,2023-11-27T19:42:56.989Z,,,,,,,,,,,10194.811000143061,completion,,,,,,,low,high,,,,,,,false,,,,,true,946570,946569.600000143,936358.21,936371,936374.789,946577.891,1,40,,
trial,html.Screen,8_22_0,2023-11-27T19:42:59.309Z,,,,2,-0.0374659946425444,-0.0086043094957617,,0.04,true,hh,2311.40900019079,response,1.151139267005652,1.0999999999999999,-1.1129851998861757,1.0838749490501327,0.9772289511922685,-1.169290286433695,high,high,,ISIC_0033051.JPG,,ISIC_0002566.JPG,28,29,false,0.11,hh,keypress(i),0,true,948889.5,948889.3000001907,946561.229,946570,946577.891,948899.091,1,40,23,
sequence,flow.Sequence,8_22,2023-11-27T19:42:59.309Z,,,,,,,,,,,2311.40900019079,completion,,,,,,,high,high,,,,,,,false,,,,,true,948889.7000000477,948889.3000001907,946561.229,946570,946577.891,948899.091,1,40,,
trial,html.Screen,8_23_0,2023-11-27T19:43:03.117Z,,,,2,0.0009714874637896,-0.0174815595031679,,0.04,false,lh,3798.5090001430362,response,-0.9544693251394116,0.9775857919607305,-1.1129851998861757,1.0727539917203766,0.9775857919607305,-1.169290286433695,low,high,,ISIC_9848743.JPG,,ISIC_0055147.JPG,28,25,false,0.2600000000000001,hl,keypress(j),0,true,952697.7000000477,952697.600000143,948882.403,948889.7000000477,948899.091,952706.63,1,40,24,
sequence,flow.Sequence,8_23,2023-11-27T19:43:03.117Z,,,,,,,,,,,3798.5090001430362,completion,,,,,,,low,high,,,,,,,false,,,,,true,952697.9000000954,952697.600000143,948882.403,948889.7000000477,948899.091,952706.63,1,40,,
trial,html.Screen,8_24_0,2023-11-27T19:43:05.750Z,,,,2,0.0257631352671967,0.0202837002774028,,0.04,true,hh,2623.270000095363,response,0.9362962536620838,0.9775857919607305,-1.1629851998861758,1.1317411618506656,1.0275857919607305,-1.169290286433695,high,high,,ISIC_0032797.JPG,,ISIC_3691320.JPG,28,30,false,0.11,hh,keypress(i),0,true,955330.100000143,955329.9000000954,952689.923,952698,952706.63,955345.007,1,40,25,
sequence,flow.Sequence,8_24,2023-11-27T19:43:05.750Z,,,,,,,,,,,2623.270000095363,completion,,,,,,,high,high,,,,,,,false,,,,,true,955330.3000001907,955329.9000000954,952689.923,952698,952706.63,955345.007,1,40,,
trial,html.Screen,8_25_0,2023-11-27T19:43:11.277Z,,,,2,-0.0388334549081915,0.0303399972963369,,0.04,false,hh,5512.6930000477005,response,1.0040510013663018,0.9775857919607305,-1.1629851998861758,0.9707475308236284,1.0275857919607305,-1.169290286433695,high,high,,ISIC_4961708.JPG,,ISIC_0026911.JPG,28,30,false,0.11,hl,keypress(j),0,true,960857.9000000954,960857.7000000477,955328.383,955330.4000000954,955345.007,960872.656,1,40,26,
sequence,flow.Sequence,8_25,2023-11-27T19:43:11.277Z,,,,,,,,,,,5512.6930000477005,completion,,,,,,,high,high,,,,,,,false,,,,,true,960858.100000143,960857.7000000477,955328.383,955330.4000000954,955345.007,960872.656,1,40,,
trial,html.Screen,8_26_0,2023-11-27T19:43:14.542Z,,,,2,0.0308384937406319,-0.0038396364323947,,0.04,true,ll,3249.844000000041,response,-1.1195710731537871,1.0178960816084837,-1.1629851998861758,-1.1961732733209125,1.0775857919607306,-1.169290286433695,low,low,,ISIC_0029825.JPG,,ISIC_0067170.JPG,28,30,false,0.11,ll,keypress(f),0,true,964122.7000000477,964122.5,960855.744,960858.2000000477,960872.656,964145.425,1,40,27,
sequence,flow.Sequence,8_26,2023-11-27T19:43:14.543Z,,,,,,,,,,,3249.844000000041,completion,,,,,,,low,low,,,,,,,false,,,,,true,964123.2000000477,964122.5,960855.744,960858.2000000477,960872.656,964145.425,1,40,,
trial,html.Screen,8_27_0,2023-11-27T19:43:23.174Z,,,,2,0.0009714874637896,-0.0174815595031679,,0.04,true,hl,8608.574999999953,response,0.7088606387153258,1.0178960816084837,-1.1629851998861758,-0.948610930521224,1.0775857919607306,-1.1078721732373498,high,low,,ISIC_9848743.JPG,,ISIC_0026293.JPG,28,25,false,0.3200000000000002,hl,keypress(j),0,true,972754.3000001907,972754,964112.14,964123.3000001907,964145.425,972762.174,1,40,28,
sequence,flow.Sequence,8_27,2023-11-27T19:43:23.174Z,,,,,,,,,,,8608.574999999953,completion,,,,,,,high,low,,,,,,,false,,,,,true,972754.5,972754,964112.14,964123.3000001907,964145.425,972762.174,1,40,,
trial,html.Screen,8_28_0,2023-11-27T19:43:25.269Z,,,,2,0.0118382036798625,0.0300588245877227,,0.04,false,lh,2087.426000143052,response,-0.8867328775712738,1.0178960816084837,-1.1629851998861758,1.0063426986460375,1.0775857919607306,-1.1078721732373498,low,high,,ISIC_4748605.JPG,,ISIC_0055759.JPG,28,25,false,0.31000000000000016,hl,keypress(j),0,true,974849.7000000477,974849.600000143,972745.636,972754.7000000477,972762.174,974866.422,1,40,29,
sequence,flow.Sequence,8_28,2023-11-27T19:43:25.269Z,,,,,,,,,,,2087.426000143052,completion,,,,,,,low,high,,,,,,,false,,,,,true,974849.9000000954,974849.600000143,972745.636,972754.7000000477,972762.174,974866.422,1,40,,
trial,html.Screen,8_29_0,2023-11-27T19:43:33.543Z,,,,2,0,-0.0102871556606504,,0.04,false,lh,8255.57799999998,response,-0.8307508446051526,1.0178960816084837,-1.1629851998861758,1.1707575338936729,1.1275857919607306,-1.1078721732373498,low,high,,ISIC_1805163.JPG,,ISIC_0028606.JPG,28,26,false,0.3400000000000002,hl,keypress(j),0,true,983122.100000143,983122,974849.549,974849.9000000954,974866.422,983132.347,1,40,30,
sequence,flow.Sequence,8_29,2023-11-27T19:43:33.543Z,,,,,,,,,,,8255.57799999998,completion,,,,,,,low,high,,,,,,,false,,,,,true,983122.2000000477,983122,974849.549,974849.9000000954,974866.422,983132.347,1,40,,
trial,html.Screen,8_30_0,2023-11-27T19:43:39.894Z,,,,2,0,-0.0102871556606504,,0.04,true,hl,6341.053000095417,response,0.8034318937720549,1.0178960816084837,-1.1629851998861758,-1.0024917298189338,1.1775857919607307,-1.1078721732373498,high,low,,ISIC_1805163.JPG,,ISIC_0032766.JPG,28,25,false,0.3200000000000002,hl,keypress(j),0,true,989473.5,989473.4000000954,983115.662,983122.3000001907,983132.347,989477.969,1,40,31,
sequence,flow.Sequence,8_30,2023-11-27T19:43:39.894Z,,,,,,,,,,,6341.053000095417,completion,,,,,,,high,low,,,,,,,false,,,,,true,989473.600000143,989473.4000000954,983115.662,983122.3000001907,983132.347,989477.969,1,40,,
trial,html.Screen,8_31_0,2023-11-27T19:43:49.568Z,,,,2,-0.0109416414475118,-0.005246498750811,,0.04,false,ll,9668.731000047643,response,-1.23040890403733,0.9678960816084836,-1.1629851998861758,-0.8471646801526567,1.1775857919607307,-0.9255513301700788,low,low,,ISIC_0064279.JPG,,ISIC_0010140.JPG,28,29,false,0.11,lh,keypress(e),0,true,999147,999146.7000000477,989461.407,989473.600000143,989477.969,999163.526,1,40,32,
sequence,flow.Sequence,8_31,2023-11-27T19:43:49.568Z,,,,,,,,,,,9668.731000047643,completion,,,,,,,low,low,,,,,,,false,,,,,true,999147.4000000954,999146.7000000477,989461.407,989473.600000143,989477.969,999163.526,1,40,,
trial,html.Screen,8_32_0,2023-11-27T19:43:51.791Z,,,,2,-0.039520186367207,-0.0377961575607372,,0.04,false,lh,2206.574000143097,response,-0.9244148283103414,0.9678960816084836,-1.1629851998861758,0.9712966348713286,1.1775857919607307,-0.9755513301700789,low,high,,ISIC_6356149.JPG,,ISIC_7927525.JPG,28,25,false,0.3700000000000002,hh,keypress(i),0,true,1001370.4000000954,1001370.100000143,999146.761,999147.600000143,999163.526,1001384.691,1,40,33,
sequence,flow.Sequence,8_32,2023-11-27T19:43:51.791Z,,,,,,,,,,,2206.574000143097,completion,,,,,,,low,high,,,,,,,false,,,,,true,1001370.8000001907,1001370.100000143,999146.761,999147.5,999163.526,1001384.691,1,40,,
trial,html.Screen,8_33_0,2023-11-27T19:43:54.895Z,,,,2,0.0220026381002083,-0.0170756452911772,,0.04,true,ll,3089.6090001907432,response,-1.0679712388489528,0.9678960816084836,-1.1629851998861758,-1.0509600192807842,1.1775857919607307,-0.9755513301700789,low,low,,ISIC_5347806.JPG,,ISIC_0015180.JPG,28,29,false,0.11,ll,keypress(f),0,true,1004474.5,1004474.3000001907,1001368.036,1001371,1001384.691,1004490.736,1,40,34,
sequence,flow.Sequence,8_33,2023-11-27T19:43:54.895Z,,,,,,,,,,,3089.6090001907432,completion,,,,,,,low,low,,,,,,,false,,,,,true,1004474.9000000954,1004474.3000001907,1001368.036,1001370.9000000954,1001384.691,1004490.736,1,40,,
trial,html.Screen,8_34_0,2023-11-27T19:43:57.327Z,,,,2,-0.0388334549081915,0.0303399972963369,,0.04,true,ll,2415.3640001430176,response,-1.2044761558278598,0.9678960816084836,-1.1629851998861758,-0.86605102901087,1.1775857919607307,-0.9755513301700789,low,low,,ISIC_4961708.JPG,,ISIC_0034233.JPG,28,29,false,0.11,ll,keypress(f),0,true,1006906.3000001907,1006906.100000143,1004473.815,1004475,1004490.736,1006911.963,1,40,35,
sequence,flow.Sequence,8_34,2023-11-27T19:43:57.327Z,,,,,,,,,,,2415.3640001430176,completion,,,,,,,low,low,,,,,,,false,,,,,true,1006906.5,1006906.100000143,1004473.815,1004475,1004490.736,1006911.963,1,40,,
trial,html.Screen,8_35_0,2023-11-27T19:44:01.078Z,,,,2,0.0220026381002083,-0.0170756452911772,,0.04,true,ll,3745.537000000011,response,-0.9688707770680516,0.9678960816084836,-0.9085055241458271,-0.9499175879831224,1.1775857919607307,-0.9085055241458271,low,low,,ISIC_5347806.JPG,,ISIC_0024962.JPG,28,45,false,0.1,ll,keypress(f),0,true,1010657.600000143,1010657.5,1006895.373,1006906.7000000477,1006911.963,1010669.375,1,40,36,
sequence,flow.Sequence,8_35,2023-11-27T19:44:01.078Z,,,,,,,,,,,3745.537000000011,completion,,,,,,,low,low,,,,,,,false,,,,,true,1010657.8000001907,1010657.5,1006895.373,1006906.7000000477,1006911.963,1010669.375,1,40,,
trial,html.Screen,8_36_0,2023-11-27T19:44:04.263Z,,,,2,0.0200295718112167,0.0155559071275806,,0.04,true,hh,3172.625,response,0.9170020765489288,0.9678960816084836,-0.9085055241458271,1.1743572988147262,1.1775857919607307,-0.9085055241458271,high,high,,ISIC_0061343.JPG,,ISIC_5458290.JPG,28,26,false,0.13,hh,keypress(i),0,true,1013842.2000000477,1013842,1010652.631,1010657.8000001907,1010669.375,1013858.834,1,40,37,
sequence,flow.Sequence,8_36,2023-11-27T19:44:04.263Z,,,,,,,,,,,3172.625,completion,,,,,,,high,high,,,,,,,false,,,,,true,1013842.5,1013842,1010652.631,1010657.8000001907,1010669.375,1013858.834,1,40,,
trial,html.Screen,8_37_0,2023-11-27T19:44:06.286Z,,,,2,0.0009714874637896,-0.0174815595031679,,0.04,true,hh,2006.366000047652,response,0.9242629064104082,0.9678960816084836,-0.9085055241458271,1.0085499824556403,0.9956796876818275,-0.9085055241458271,high,high,,ISIC_9848743.JPG,,ISIC_7795549.JPG,28,27,false,0.1,hh,keypress(i),0,true,1015865.2000000477,1015865.2000000477,1013842.098,1013842.7000000477,1013858.834,1015879.39,1,40,38,
sequence,flow.Sequence,8_37,2023-11-27T19:44:06.286Z,,,,,,,,,,,2006.366000047652,completion,,,,,,,high,high,,,,,,,false,,,,,true,1015865.3000001907,1015865.2000000477,1013842.098,1013842.7000000477,1013858.834,1015879.39,1,40,,
trial,html.Screen,8_38_0,2023-11-27T19:44:09.639Z,,,,2,-0.0388181790775959,0.0049623405709465,,0.04,true,hh,3338.5100000953535,response,1.0122348575830964,0.9164064444330242,-0.9085055241458271,1.007833368115011,0.9956796876818275,-0.9085055241458271,high,high,,ISIC_0061880.JPG,,ISIC_8145260.JPG,28,34,false,0.1,hh,keypress(i),0,true,1019218,1019217.9000000954,1015862.721,1015865.4000000954,1015879.39,1019236.723,1,40,39,
sequence,flow.Sequence,8_38,2023-11-27T19:44:09.639Z,,,,,,,,,,,3338.5100000953535,completion,,,,,,,high,high,,,,,,,false,,,,,true,1019218.3000001907,1019217.9000000954,1015862.721,1015865.4000000954,1015879.39,1019236.723,1,40,,
trial,html.Screen,8_39_0,2023-11-27T19:44:18.887Z,,,,2,-0.0388181790775959,0.0049623405709465,,0.04,true,hl,9229.077000190737,response,0.989300717252516,0.9164064444330242,-0.9085055241458271,-0.7908280206937478,0.9600341128490537,-0.9085055241458271,high,low,,ISIC_0061880.JPG,,ISIC_6416533.JPG,28,26,false,0.20000000000000007,hl,keypress(j),0,true,1028465.9000000954,1028465.8000001907,1019202.721,1019218.4000000954,1019236.723,1028470.522,1,40,40,
sequence,flow.Sequence,8_39,2023-11-27T19:44:18.887Z,,,,,,,,,,,9229.077000190737,completion,,,,,,,high,low,,,,,,,false,,,,,true,1028466.100000143,1028465.8000001907,1019202.721,1019218.3000001907,1019236.723,1028470.522,1,40,,
stair_loop,flow.Loop,8,2023-11-27T19:44:18.887Z,,,,,,,,,,,227904.9880001907,completion,,,,,,,,,,,,,,,false,,,,,true,1028466.2000000477,1028465.8000001907,800543.908,800537.600000143,800560.812,1028470.522,1,40,,
exp_instructions,html.Screen,9,2023-11-27T19:45:04.487Z,,,,,,,,,,,45594.67800004769,response,,,,,,,,,,,,,,,,,continue,keypress(Space),,,1074065.5,1074065.2000000477,1028453.785,1028466.2000000477,1028470.522,1074075.861,,,,
trial,html.Screen,10_0_0,2023-11-27T19:45:11.379Z,,,,1,0.0257631352671967,0.0202837002774028,,0.04,false,ll,6881.539000095334,response,-1.0865209011322887,0.9965161622025022,-1.0893652809510885,-1.1401461171952545,1.0765839677974351,-1.0505626819697358,low,low,,ISIC_0032797.JPG,10,ISIC_0016145.JPG,28,31,false,0.1,lh,keypress(e),0,false,1080957.5,1080957.4000000954,1074058.776,1074065.7000000477,1074075.861,1080972.629,5,600,1,
break,html.Screen,10_0_1,2023-11-27T19:45:11.380Z,,,,,,,,,,,NaN,,,,,,,,low,low,,,,,,,false,,,,,false,1080958.100000143,1080957.9000000954,,1080957.600000143,,1080972.629,5,600,,
break_continue,html.Screen,10_0_2,2023-11-27T19:45:11.380Z,,,,,,,,,,,NaN,,,,,,,,low,low,,,,,,,false,,,,,false,1080958.5,1080958.3000001907,,1080958.100000143,,1080972.629,5,600,,
sequence,flow.Sequence,10_0,2023-11-27T19:45:11.380Z,,,,,,,,,,,6882.439000190701,completion,,,,,,,low,low,,,,,,,false,,,,,false,1080958.7000000477,1080958.3000001907,1074058.776,1074065.7000000477,1074075.861,1080972.629,5,600,,
trial,html.Screen,10_1_0,2023-11-27T19:45:15.712Z,,,,1,-0.0388334549081915,0.0303399972963369,,0.04,false,hl,4316.971000143094,response,0.8034318937720549,0.9965161622025022,-1.0893652809510885,-1.0024917298189338,1.0765839677974351,-1.0505626819697358,high,low,,ISIC_4961708.JPG,8,ISIC_0032766.JPG,28,26,false,0.29000000000000015,ll,keypress(f),0,false,1085289.8000001907,1085289.600000143,1080955.99,1080958.8000001907,1080972.629,1085297.701,5,600,2,
break,html.Screen,10_1_1,2023-11-27T19:45:15.712Z,,,,,,,,,,,NaN,,,,,,,,high,low,,,,,,,false,,,,,false,1085290.5,1085290.3000001907,,1085290.100000143,,1085297.701,5,600,,
break_continue,html.Screen,10_1_2,2023-11-27T19:45:15.713Z,,,,,,,,,,,NaN,,,,,,,,high,low,,,,,,,false,,,,,false,1085291,1085290.7000000477,,1085290.600000143,,1085297.701,5,600,,
sequence,flow.Sequence,10_1,2023-11-27T19:45:15.713Z,,,,,,,,,,,4318.071000047727,completion,,,,,,,high,low,,,,,,,false,,,,,false,1085291,1085290.7000000477,1080955.99,1080958.7000000477,1080972.629,1085297.701,5,600,,
trial,html.Screen,10_2_0,2023-11-27T19:45:21.488Z,,,,1,0.0200295718112167,0.0155559071275806,,0.04,false,hl,5767.999000047799,response,0.7308116448711435,0.9965161622025022,-1.0893652809510885,-0.908713834988551,1.0765839677974351,-1.0505626819697358,high,low,,ISIC_0061343.JPG,9,ISIC_7811951.JPG,28,26,false,0.29000000000000015,lh,keypress(e),0,false,1091065.9000000954,1091065.7000000477,1085281.003,1085291.2000000477,1085297.701,1091075.604,5,600,3,
break,html.Screen,10_2_1,2023-11-27T19:45:21.488Z,,,,,,,,,,,NaN,,,,,,,,high,low,,,,,,,false,,,,,false,1091066.3000001907,1091066.2000000477,,1091066,,1091075.604,5,600,,
break_continue,html.Screen,10_2_2,2023-11-27T19:45:21.488Z,,,,,,,,,,,NaN,,,,,,,,high,low,,,,,,,false,,,,,false,1091066.7000000477,1091066.600000143,,1091066.5,,1091075.604,5,600,,
sequence,flow.Sequence,10_2,2023-11-27T19:45:21.488Z,,,,,,,,,,,5768.899000143167,completion,,,,,,,high,low,,,,,,,false,,,,,false,1091066.8000001907,1091066.600000143,1085281.003,1085291.100000143,1085297.701,1091075.604,5,600,,
trial,html.Screen,10_3_0,2023-11-27T19:45:25.551Z,,,,1,-0.039520186367207,-0.0377961575607372,,0.04,false,hl,4053.796000095317,response,1.2362557973341337,0.9965161622025022,-1.0893652809510885,-1.2548266183352603,1.0765839677974351,-1.0505626819697358,high,low,,ISIC_6356149.JPG,10,ISIC_0033886.JPG,28,26,false,0.29000000000000015,lh,keypress(e),0,false,1095129.5,1095129.4000000954,1091059.176,1091066.9000000954,1091075.604,1095133.503,5,600,4,
break,html.Screen,10_3_1,2023-11-27T19:45:25.551Z,,,,,,,,,,,NaN,,,,,,,,high,low,,,,,,,false,,,,,false,1095129.8000001907,1095129.8000001907,,1095129.600000143,,1095133.503,5,600,,
break_continue,html.Screen,10_3_2,2023-11-27T19:45:25.552Z,,,,,,,,,,,NaN,,,,,,,,high,low,,,,,,,false,,,,,false,1095130,1095129.9000000954,,1095129.8000001907,,1095133.503,5,600,,
sequence,flow.Sequence,10_3,2023-11-27T19:45:25.552Z,,,,,,,,,,,4054.296000095317,completion,,,,,,,high,low,,,,,,,false,,,,,false,1095130,1095129.9000000954,1091059.176,1091066.9000000954,1091075.604,1095133.503,5,600,,
trial,html.Screen,10_4_0,2023-11-27T19:45:27.351Z,,,,1,0.0118382036798625,0.0300588245877227,,0.04,true,hh,1796.097000143025,response,1.0257168197307909,0.9965161622025022,-1.0893652809510885,1.0403166496930305,1.0765839677974351,-1.0505626819697358,high,high,,ISIC_4748605.JPG,9,ISIC_1690909.JPG,28,28,false,0.11,hh,keypress(i),0,false,1096929.7000000477,1096929.600000143,1095116.919,1095130.100000143,1095133.503,1096936.98,5,600,5,
break,html.Screen,10_4_1,2023-11-27T19:45:27.352Z,,,,,,,,,,,NaN,,,,,,,,high,high,,,,,,,false,,,,,false,1096930,1096929.9000000954,,1096929.8000001907,,1096936.98,5,600,,
break_continue,html.Screen,10_4_2,2023-11-27T19:45:27.352Z,,,,,,,,,,,NaN,,,,,,,,high,high,,,,,,,false,,,,,false,1096930.2000000477,1096930,,1096930,,1096936.98,5,600,,
sequence,flow.Sequence,10_4,2023-11-27T19:45:27.352Z,,,,,,,,,,,1796.496999999974,completion,,,,,,,high,high,,,,,,,false,,,,,false,1096930.3000001907,1096930,1095116.919,1095130.100000143,1095133.503,1096936.98,5,600,,
trial,html.Screen,10_5_0,2023-11-27T19:45:35.199Z,,,,1,0.0200295718112167,0.0155559071275806,,0.04,true,lh,7840.720000047702,response,-1.045301444872812,0.9965161622025022,-1.0893652809510885,1.0872560254441277,1.0765839677974351,-1.0505626819697358,low,high,,ISIC_0061343.JPG,9,ISIC_4507700.JPG,28,25,false,0.28000000000000014,lh,keypress(e),0,false,1104777.8000001907,1104777.7000000477,1096920.379,1096930.3000001907,1096936.98,1104785.608,5,600,6,
break,html.Screen,10_5_1,2023-11-27T19:45:35.200Z,,,,,,,,,,,NaN,,,,,,,,low,high,,,,,,,false,,,,,false,1104778.4000000954,1104778.2000000477,,1104778,,1104785.608,5,600,,
break_continue,html.Screen,10_5_2,2023-11-27T19:45:35.200Z,,,,,,,,,,,NaN,,,,,,,,low,high,,,,,,,false,,,,,false,1104778.7000000477,1104778.600000143,,1104778.4000000954,,1104785.608,5,600,,
sequence,flow.Sequence,10_5,2023-11-27T19:45:35.200Z,,,,,,,,,,,7841.62000014307,completion,,,,,,,low,high,,,,,,,false,,,,,false,1104778.8000001907,1104778.600000143,1096920.379,1096930.3000001907,1096936.98,1104785.608,5,600,,
trial,html.Screen,10_6_0,2023-11-27T19:45:40.991Z,,,,1,-0.0241900387072296,0.0339955304424736,,0.04,true,hl,5783.992000143044,response,0.8830264383952469,0.9965161622025022,-1.0893652809510885,-0.8635562538060516,1.0765839677974351,-1.0505626819697358,high,low,,ISIC_0010789.JPG,10,ISIC_0032258.JPG,28,26,false,0.29000000000000015,hl,keypress(j),0,false,1110569.8000001907,1110569.600000143,1104769.092,1104778.9000000954,1104785.608,1110580.223,5,600,7,
break,html.Screen,10_6_1,2023-11-27T19:45:40.992Z,,,,,,,,,,,NaN,,,,,,,,high,low,,,,,,,false,,,,,false,1110570.3000001907,1110570.2000000477,,1110570,,1110580.223,5,600,,
break_continue,html.Screen,10_6_2,2023-11-27T19:45:40.992Z,,,,,,,,,,,NaN,,,,,,,,high,low,,,,,,,false,,,,,false,1110570.7000000477,1110570.5,,1110570.4000000954,,1110580.223,5,600,,
sequence,flow.Sequence,10_6,2023-11-27T19:45:40.992Z,,,,,,,,,,,5784.891999999993,completion,,,,,,,high,low,,,,,,,false,,,,,false,1110570.8000001907,1110570.5,1104769.092,1104778.9000000954,1104785.608,1110580.223,5,600,,
trial,html.Screen,10_7_0,2023-11-27T19:45:46.631Z,,,,1,-0.0199950873045219,-0.0172506388509166,,0.04,true,hl,5629.077000190737,response,0.8830264383952469,0.9965161622025022,-1.0893652809510885,-0.8635562538060516,1.0765839677974351,-1.0505626819697358,high,low,,ISIC_0029906.JPG,8,ISIC_0032258.JPG,28,26,false,0.29000000000000015,hl,keypress(j),0,false,1116209.5,1116209.3000001907,1110563.705,1110570.9000000954,1110580.223,1116224.536,5,600,8,
break,html.Screen,10_7_1,2023-11-27T19:45:46.632Z,,,,,,,,,,,NaN,,,,,,,,high,low,,,,,,,false,,,,,false,1116209.8000001907,1116209.8000001907,,1116209.600000143,,1116224.536,5,600,,
break_continue,html.Screen,10_7_2,2023-11-27T19:45:46.632Z,,,,,,,,,,,NaN,,,,,,,,high,low,,,,,,,false,,,,,false,1116210.2000000477,1116210,,1116209.9000000954,,1116224.536,5,600,,
sequence,flow.Sequence,10_7,2023-11-27T19:45:46.632Z,,,,,,,,,,,5629.777000000002,completion,,,,,,,high,low,,,,,,,false,,,,,false,1116210.2000000477,1116210,1110563.705,1110570.9000000954,1110580.223,1116224.536,5,600,,
trial,html.Screen,10_8_0,2023-11-27T19:45:48.952Z,,,,1,-0.0198696495649504,0.0387952353063878,,0.04,true,ll,2305.2640001906548,response,-1.0605529903237636,0.9965161622025022,-1.0893652809510885,-1.1183115777058938,1.0765839677974351,-1.0505626819697358,low,low,,ISIC_6735970.JPG,9,ISIC_0011365.JPG,28,31,false,0.1,ll,keypress(f),0,false,1118529.9000000954,1118529.8000001907,1116208.063,1116210.3000001907,1116224.536,1118545.832,5,600,9,
break,html.Screen,10_8_1,2023-11-27T19:45:48.952Z,,,,,,,,,,,NaN,,,,,,,,low,low,,,,,,,false,,,,,false,1118530.7000000477,1118530.5,,1118530.2000000477,,1118545.832,5,600,,
break_continue,html.Screen,10_8_2,2023-11-27T19:45:48.953Z,,,,,,,,,,,NaN,,,,,,,,low,low,,,,,,,false,,,,,false,1118531.2000000477,1118531,,1118530.9000000954,,1118545.832,5,600,,
sequence,flow.Sequence,10_8,2023-11-27T19:45:48.953Z,,,,,,,,,,,2306.46399999992,completion,,,,,,,low,low,,,,,,,false,,,,,false,1118531.4000000954,1118531,1116208.063,1116210.3000001907,1116224.536,1118545.832,5,600,,
trial,html.Screen,10_9_0,2023-11-27T19:45:56.161Z,,,,1,0.0308384937406319,-0.0038396364323947,,0.04,false,ll,7192.868000047747,response,-1.1209497725708388,0.9965161622025022,-1.0893652809510885,-0.9895687497294692,1.0765839677974351,-1.0505626819697358,low,low,,ISIC_0029825.JPG,9,ISIC_0027751.JPG,28,31,false,0.1,lh,keypress(e),0,false,1125739.100000143,1125738.7000000477,1118528.996,1118531.5,1118545.832,1125743.098,5,600,10,
break,html.Screen,10_9_1,2023-11-27T19:45:56.162Z,,,,,,,,,,,NaN,,,,,,,,low,low,,,,,,,false,,,,,false,1125740.100000143,1125739.8000001907,,1125739.4000000954,,1125743.098,5,600,,
break_continue,html.Screen,10_9_2,2023-11-27T19:45:56.163Z,,,,,,,,,,,NaN,,,,,,,,low,low,,,,,,,false,,,,,false,1125741,1125740.600000143,,1125740.4000000954,,1125743.098,5,600,,
sequence,flow.Sequence,10_9,2023-11-27T19:45:56.163Z,,,,,,,,,,,7194.7680001431145,completion,,,,,,,low,low,,,,,,,false,,,,,false,1125741.2000000477,1125740.600000143,1118528.996,1118531.5,1118545.832,1125743.098,5,600,,
trial,html.Screen,10_10_0,2023-11-27T19:45:59.696Z,,,,1,-0.0374659946425444,-0.0086043094957617,,0.04,true,hh,3530.6020000476856,response,1.0659165756604234,0.9965161622025022,-1.0893652809510885,1.0867497316848906,1.0765839677974351,-1.0505626819697358,high,high,,ISIC_0033051.JPG,11,ISIC_5807608.JPG,28,28,false,0.11,hh,keypress(i),0,false,1129273.8000001907,1129273.7000000477,1125726.459,1125741.5,1125743.098,1129283.263,5,600,11,
break,html.Screen,10_10_1,2023-11-27T19:45:59.696Z,,,,,,,,,,,NaN,,,,,,,,high,high,,,,,,,false,,,,,false,1129274.3000001907,1129274.2000000477,,1129274,,1129283.263,5,600,,
break_continue,html.Screen,10_10_2,2023-11-27T19:45:59.696Z,,,,,,,,,,,NaN,,,,,,,,high,high,,,,,,,false,,,,,false,1129274.7000000477,1129274.5,,1129274.4000000954,,1129283.263,5,600,,
sequence,flow.Sequence,10_10,2023-11-27T19:45:59.696Z,,,,,,,,,,,3531.402000000002,completion,,,,,,,high,high,,,,,,,false,,,,,false,1129274.8000001907,1129274.5,1125726.459,1125741.4000000954,1125743.098,1129283.263,5,600,,
trial,html.Screen,10_11_0,2023-11-27T19:46:04.135Z,,,,1,0.0044063257337227,0.0172548282859886,,0.04,false,hl,4429.937000047648,response,0.7308116448711435,0.9965161622025022,-1.0893652809510885,-0.908713834988551,1.0765839677974351,-1.0505626819697358,high,low,,ISIC_7413786.JPG,9,ISIC_7811951.JPG,28,26,false,0.29000000000000015,hh,keypress(i),0,false,1133713.3000001907,1133713.2000000477,1129266.613,1129274.8000001907,1129283.263,1133725.195,5,600,12,
break,html.Screen,10_11_1,2023-11-27T19:46:04.135Z,,,,,,,,,,,NaN,,,,,,,,high,low,,,,,,,false,,,,,false,1133713.600000143,1133713.600000143,,1133713.4000000954,,1133725.195,5,600,,
break_continue,html.Screen,10_11_2,2023-11-27T19:46:04.136Z,,,,,,,,,,,NaN,,,,,,,,high,low,,,,,,,false,,,,,false,1133713.9000000954,1133713.9000000954,,1133713.8000001907,,1133725.195,5,600,,
sequence,flow.Sequence,10_11,2023-11-27T19:46:04.136Z,,,,,,,,,,,4430.637000095332,completion,,,,,,,high,low,,,,,,,false,,,,,false,1133714.100000143,1133713.9000000954,1129266.613,1129274.8000001907,1129283.263,1133725.195,5,600,,
trial,html.Screen,10_12_0,2023-11-27T19:46:11.793Z,,,,1,-0.0074667911845194,0.018500200317654,,0.04,true,lh,7644.405000142986,response,-1.2594580992890123,0.9965161622025022,-1.0893652809510885,0.8833175387485132,1.0765839677974351,-1.0505626819697358,low,high,,ISIC_0058723.JPG,12,ISIC_0011933.JPG,28,25,false,0.28000000000000014,lh,keypress(e),0,false,1141369.7000000477,1141369.600000143,1133708.667,1133714.100000143,1133725.195,1141373.432,5,600,13,
break,html.Screen,10_12_1,2023-11-27T19:46:11.794Z,,,,,,,,,,,NaN,,,,,,,,low,high,,,,,,,false,,,,,false,1141370,1141370,,1141369.7000000477,,1141373.432,5,600,,
break_continue,html.Screen,10_12_2,2023-11-27T19:46:11.794Z,,,,,,,,,,,NaN,,,,,,,,low,high,,,,,,,false,,,,,false,1141370.3000001907,1141370.2000000477,,1141370.100000143,,1141373.432,5,600,,
sequence,flow.Sequence,10_12,2023-11-27T19:46:11.794Z,,,,,,,,,,,7645.0050000476185,completion,,,,,,,low,high,,,,,,,false,,,,,false,1141370.4000000954,1141370.2000000477,1133708.667,1133714.100000143,1133725.195,1141373.432,5,600,,
trial,html.Screen,10_13_0,2023-11-27T19:46:17.497Z,,,,1,0.0200295718112167,0.0155559071275806,,0.04,false,hl,5699.968000095338,response,0.8034318937720549,0.9965161622025022,-1.0893652809510885,-1.0024917298189338,1.0765839677974351,-1.0505626819697358,high,low,,ISIC_0061343.JPG,9,ISIC_0032766.JPG,28,26,false,0.29000000000000015,lh,keypress(e),0,false,1147073.4000000954,1147073.4000000954,1141356.947,1141370.4000000954,1141373.432,1147084.536,5,600,14,
break,html.Screen,10_13_1,2023-11-27T19:46:17.497Z,,,,,,,,,,,NaN,,,,,,,,high,low,,,,,,,false,,,,,false,1147073.8000001907,1147073.7000000477,,1147073.5,,1147084.536,5,600,,
break_continue,html.Screen,10_13_2,2023-11-27T19:46:17.498Z,,,,,,,,,,,NaN,,,,,,,,high,low,,,,,,,false,,,,,false,1147074,1147073.9000000954,,1147073.9000000954,,1147084.536,5,600,,
sequence,flow.Sequence,10_13,2023-11-27T19:46:17.498Z,,,,,,,,,,,5700.468000095338,completion,,,,,,,high,low,,,,,,,false,,,,,false,1147074.100000143,1147073.9000000954,1141356.947,1141370.4000000954,1141373.432,1147084.536,5,600,,
trial,html.Screen,10_14_0,2023-11-27T19:46:26.562Z,,,,1,0.0367744112927588,0.0324865661712824,,0.04,false,lh,9053.264000190655,response,-1.0116417541846066,0.9965161622025022,-1.0893652809510885,1.033442916947398,1.0765839677974351,-1.0505626819697358,low,high,,ISIC_4523565.JPG,9,ISIC_0031389.JPG,28,25,false,0.28000000000000014,hl,keypress(j),0,false,1156138,1156137.8000001907,1147067.93,1147074.100000143,1147084.536,1156152.191,5,600,15,
break,html.Screen,10_14_1,2023-11-27T19:46:26.562Z,,,,,,,,,,,NaN,,,,,,,,low,high,,,,,,,false,,,,,false,1156138.5,1156138.3000001907,,1156138.100000143,,1156152.191,5,600,,
break_continue,html.Screen,10_14_2,2023-11-27T19:46:26.563Z,,,,,,,,,,,NaN,,,,,,,,low,high,,,,,,,false,,,,,false,1156138.9000000954,1156138.7000000477,,1156138.600000143,,1156152.191,5,600,,
sequence,flow.Sequence,10_14,2023-11-27T19:46:26.563Z,,,,,,,,,,,9054.164000047604,completion,,,,,,,low,high,,,,,,,false,,,,,false,1156139,1156138.7000000477,1147067.93,1147074.100000143,1147084.536,1156152.191,5,600,,
trial,html.Screen,10_15_0,2023-11-27T19:46:33.042Z,,,,1,0.0258224118104549,-0.0029364553353019,,0.04,true,hl,6465.609000190627,response,1.058275612142778,0.9965161622025022,-1.0893652809510885,-0.7824898568540655,1.0765839677974351,-1.0505626819697358,high,low,,ISIC_8325226.JPG,9,ISIC_4906385.JPG,28,26,false,0.29000000000000015,hl,keypress(j),0,false,1162618,1162617.8000001907,1156135.655,1156139.100000143,1156152.191,1162631.467,5,600,16,
break,html.Screen,10_15_1,2023-11-27T19:46:33.042Z,,,,,,,,,,,NaN,,,,,,,,high,low,,,,,,,false,,,,,false,1162618.8000001907,1162618.600000143,,1162618.3000001907,,1162631.467,5,600,,
break_continue,html.Screen,10_15_2,2023-11-27T19:46:33.043Z,,,,,,,,,,,NaN,,,,,,,,high,low,,,,,,,false,,,,,false,1162619.3000001907,1162619,,1162618.9000000954,,1162631.467,5,600,,
sequence,flow.Sequence,10_15,2023-11-27T19:46:33.043Z,,,,,,,,,,,6466.808999999892,completion,,,,,,,high,low,,,,,,,false,,,,,false,1162619.5,1162619,1156135.655,1156139.100000143,1156152.191,1162631.467,5,600,,
trial,html.Screen,10_16_0,2023-11-27T19:46:42.169Z,,,,1,0.0118382036798625,0.0300588245877227,,0.04,true,hl,9114.133000143105,response,0.8719231363109603,0.9965161622025022,-1.0893652809510885,-0.7704280220140033,1.0765839677974351,-1.0505626819697358,high,low,,ISIC_4748605.JPG,9,ISIC_0029453.JPG,28,26,false,0.29000000000000015,hl,keypress(j),0,false,1171745.7000000477,1171745.600000143,1162614.839,1162619.600000143,1162631.467,1171749.169,5,600,17,
break,html.Screen,10_16_1,2023-11-27T19:46:42.170Z,,,,,,,,,,,NaN,,,,,,,,high,low,,,,,,,false,,,,,false,1171746,1171746,,1171745.8000001907,,1171749.169,5,600,,
break_continue,html.Screen,10_16_2,2023-11-27T19:46:42.170Z,,,,,,,,,,,NaN,,,,,,,,high,low,,,,,,,false,,,,,false,1171746.100000143,1171746.100000143,,1171746,,1171749.169,5,600,,
sequence,flow.Sequence,10_16,2023-11-27T19:46:42.170Z,,,,,,,,,,,9114.633000143105,completion,,,,,,,high,low,,,,,,,false,,,,,false,1171746.3000001907,1171746.100000143,1162614.839,1162619.5,1162631.467,1171749.169,5,600,,
trial,html.Screen,10_17_0,2023-11-27T19:46:50.354Z,,,,1,-0.001445457736793,-0.0165307427449982,,0.04,false,ll,8180.831000000006,response,-1.0865209011322887,0.9965161622025022,-1.0893652809510885,-1.1401461171952545,1.0765839677974351,-1.0505626819697358,low,low,,ISIC_0027350.JPG,9,ISIC_0016145.JPG,28,31,false,0.1,lh,keypress(e),0,false,1179930.3000001907,1179930,1171732.411,1171746.3000001907,1171749.169,1179949.683,5,600,18,
break,html.Screen,10_17_1,2023-11-27T19:46:50.355Z,,,,,,,,,,,NaN,,,,,,,,low,low,,,,,,,false,,,,,false,1179931.100000143,1179930.8000001907,,1179930.600000143,,1179949.683,5,600,,
break_continue,html.Screen,10_17_2,2023-11-27T19:46:50.355Z,,,,,,,,,,,NaN,,,,,,,,low,low,,,,,,,false,,,,,false,1179931.9000000954,1179931.600000143,,1179931.3000001907,,1179949.683,5,600,,
sequence,flow.Sequence,10_17,2023-11-27T19:46:50.356Z,,,,,,,,,,,8182.431000143057,completion,,,,,,,low,low,,,,,,,false,,,,,false,1179932.100000143,1179931.600000143,1171732.411,1171746.3000001907,1171749.169,1179949.683,5,600,,
trial,html.Screen,10_18_0,2023-11-27T19:46:57.401Z,,,,1,0.0286056110007553,0.036125199756515,,0.04,false,lh,7028.017000047723,response,-0.8987343013179191,0.9965161622025022,-1.0893652809510885,0.8149073454566363,1.0765839677974351,-1.0505626819697358,low,high,,ISIC_6535558.JPG,8,ISIC_0472513.JPG,28,25,false,0.28000000000000014,hh,keypress(i),0,false,1186977.8000001907,1186977.7000000477,1179915.222,1179932.3000001907,1179949.683,1186996.677,5,600,19,
break,html.Screen,10_18_1,2023-11-27T19:46:57.402Z,,,,,,,,,,,NaN,,,,,,,,low,high,,,,,,,false,,,,,false,1186978.3000001907,1186978.2000000477,,1186977.9000000954,,1186996.677,5,600,,
break_continue,html.Screen,10_18_2,2023-11-27T19:46:57.402Z,,,,,,,,,,,NaN,,,,,,,,low,high,,,,,,,false,,,,,false,1186978.600000143,1186978.600000143,,1186978.4000000954,,1186996.677,5,600,,
sequence,flow.Sequence,10_18,2023-11-27T19:46:57.402Z,,,,,,,,,,,7028.91700014309,completion,,,,,,,low,high,,,,,,,false,,,,,false,1186978.8000001907,1186978.600000143,1179915.222,1179932.2000000477,1179949.683,1186996.677,5,600,,
trial,html.Screen,10_19_0,2023-11-27T19:47:00.233Z,,,,1,-0.0088741920055285,-0.0058246074740588,,0.04,true,ll,2812.8230000000913,response,-1.1103777034815996,0.9965161622025022,-1.0893652809510885,-1.018282939602391,1.0765839677974351,-1.0505626819697358,low,low,,ISIC_4136663.JPG,9,ISIC_3094758.JPG,28,31,false,0.1,ll,keypress(f),0,false,1189809.7000000477,1189809.5,1186962.035,1186978.9000000954,1186996.677,1189834.391,5,600,20,
break,html.Screen,10_19_1,2023-11-27T19:47:00.234Z,,,,,,,,,,,NaN,,,,,,,,low,low,,,,,,,false,,,,,false,1189810.100000143,1189810.100000143,,1189809.8000001907,,1189834.391,5,600,,
break_continue,html.Screen,10_19_2,2023-11-27T19:47:00.234Z,,,,,,,,,,,NaN,,,,,,,,low,low,,,,,,,false,,,,,false,1189810.5,1189810.3000001907,,1189810.3000001907,,1189834.391,5,600,,
sequence,flow.Sequence,10_19,2023-11-27T19:47:00.234Z,,,,,,,,,,,2813.623000190826,completion,,,,,,,low,low,,,,,,,false,,,,,false,1189810.600000143,1189810.3000001907,1186962.035,1186978.9000000954,1186996.677,1189834.391,5,600,,
trial,html.Screen,10_20_0,2023-11-27T19:47:02.241Z,,,,1,0.0118382036798625,0.0300588245877227,,0.04,true,hh,1983.1089999999385,response,0.9000661178885296,0.9965161622025022,-1.0893652809510885,1.086658647698992,1.0765839677974351,-1.0505626819697358,high,high,,ISIC_4748605.JPG,9,ISIC_7407847.JPG,28,28,false,0.11,hh,keypress(i),0,false,1191817.7000000477,1191817.5,1189817.75,1189810.8000001907,1189834.391,1191821.526,5,600,21,
break,html.Screen,10_20_1,2023-11-27T19:47:02.242Z,,,,,,,,,,,NaN,,,,,,,,high,high,,,,,,,false,,,,,false,1191818.100000143,1191818,,1191817.8000001907,,1191821.526,5,600,,
break_continue,html.Screen,10_20_2,2023-11-27T19:47:02.242Z,,,,,,,,,,,NaN,,,,,,,,high,high,,,,,,,false,,,,,false,1191818.4000000954,1191818.3000001907,,1191818.2000000477,,1191821.526,5,600,,
sequence,flow.Sequence,10_20,2023-11-27T19:47:02.242Z,,,,,,,,,,,1983.9090001906734,completion,,,,,,,high,high,,,,,,,false,,,,,false,1191818.5,1191818.3000001907,1189817.75,1189810.600000143,1189834.391,1191821.526,5,600,,
trial,html.Screen,10_21_0,2023-11-27T19:47:04.441Z,,,,1,-0.0074667911845194,0.018500200317654,,0.04,true,hh,2195.5740001429804,response,1.0943527860463682,0.9965161622025022,-1.0893652809510885,1.124481746658104,1.0765839677974351,-1.0505626819697358,high,high,,ISIC_0058723.JPG,9,ISIC_0438136.JPG,28,28,false,0.11,hh,keypress(i),0,false,1194017.2000000477,1194017.100000143,1191805.059,1191818.600000143,1191821.526,1194026.045,5,600,22,
break,html.Screen,10_21_1,2023-11-27T19:47:04.441Z,,,,,,,,,,,NaN,,,,,,,,high,high,,,,,,,false,,,,,false,1194017.5,1194017.5,,1194017.3000001907,,1194026.045,5,600,,
break_continue,html.Screen,10_21_2,2023-11-27T19:47:04.441Z,,,,,,,,,,,NaN,,,,,,,,high,high,,,,,,,false,,,,,false,1194017.8000001907,1194017.600000143,,1194017.600000143,,1194026.045,5,600,,
sequence,flow.Sequence,10_21,2023-11-27T19:47:04.441Z,,,,,,,,,,,2196.0740001429804,completion,,,,,,,high,high,,,,,,,false,,,,,false,1194017.9000000954,1194017.600000143,1191805.059,1191818.5,1191821.526,1194026.045,5,600,,
trial,html.Screen,10_22_0,2023-11-27T19:47:06.794Z,,,,1,0.0200295718112167,0.0155559071275806,,0.04,true,hh,2343.2550001908094,response,1.033832433609739,0.9965161622025022,-1.0893652809510885,1.139863018685685,1.0765839677974351,-1.0505626819697358,high,high,,ISIC_0061343.JPG,11,ISIC_0008510.JPG,28,28,false,0.11,hh,keypress(i),0,false,1196369.4000000954,1196369.3000001907,1194009.229,1194017.9000000954,1194026.045,1196380.384,5,600,23,
break,html.Screen,10_22_1,2023-11-27T19:47:06.795Z,,,,,,,,,,,NaN,,,,,,,,high,high,,,,,,,false,,,,,false,1196369.7000000477,1196369.7000000477,,1196369.600000143,,1196380.384,5,600,,
break_continue,html.Screen,10_22_2,2023-11-27T19:47:06.795Z,,,,,,,,,,,NaN,,,,,,,,high,high,,,,,,,false,,,,,false,1196369.9000000954,1196369.8000001907,,1196369.8000001907,,1196380.384,5,600,,
sequence,flow.Sequence,10_22,2023-11-27T19:47:06.795Z,,,,,,,,,,,2343.7550001908094,completion,,,,,,,high,high,,,,,,,false,,,,,false,1196370,1196369.8000001907,1194009.229,1194017.9000000954,1194026.045,1196380.384,5,600,,
trial,html.Screen,10_23_0,2023-11-27T19:47:11.787Z,,,,1,-0.0088741920055285,-0.0058246074740588,,0.04,false,lh,4981.115999999922,response,-1.0153439398566937,0.9965161622025022,-1.0893652809510885,0.93001438372942,1.0765839677974351,-1.0505626819697358,low,high,,ISIC_4136663.JPG,10,ISIC_8211214.JPG,28,25,false,0.28000000000000014,hh,keypress(i),0,false,1201361.7000000477,1201361.5,1196363.821,1196370,1196380.384,1201373.442,5,600,24,
break,html.Screen,10_23_1,2023-11-27T19:47:11.787Z,,,,,,,,,,,NaN,,,,,,,,low,high,,,,,,,false,,,,,false,1201362.100000143,1201362,,1201361.8000001907,,1201373.442,5,600,,
break_continue,html.Screen,10_23_2,2023-11-27T19:47:11.787Z,,,,,,,,,,,NaN,,,,,,,,low,high,,,,,,,false,,,,,false,1201362.3000001907,1201362.2000000477,,1201362.100000143,,1201373.442,5,600,,
sequence,flow.Sequence,10_23,2023-11-27T19:47:11.787Z,,,,,,,,,,,4981.8160000476055,completion,,,,,,,low,high,,,,,,,false,,,,,false,1201362.5,1201362.2000000477,1196363.821,1196370,1196380.384,1201373.442,5,600,,
trial,html.Screen,10_24_0,2023-11-27T19:47:20.074Z,,,,1,-0.039520186367207,-0.0377961575607372,,0.04,true,lh,8275.858000190696,response,-0.8307508446051526,0.9965161622025022,-1.0893652809510885,1.1707575338936729,1.0765839677974351,-1.0505626819697358,low,high,,ISIC_6356149.JPG,9,ISIC_0028606.JPG,28,25,false,0.28000000000000014,lh,keypress(e),0,false,1209649.4000000954,1209649.3000001907,1201356.88,1201362.5,1201373.442,1209656.205,5,600,25,
break,html.Screen,10_24_1,2023-11-27T19:47:20.075Z,,,,,,,,,,,NaN,,,,,,,,low,high,,,,,,,false,,,,,false,1209649.8000001907,1209649.8000001907,,1209649.5,,1209656.205,5,600,,
break_continue,html.Screen,10_24_2,2023-11-27T19:47:20.075Z,,,,,,,,,,,NaN,,,,,,,,low,high,,,,,,,false,,,,,false,1209650,1209649.9000000954,,1209649.8000001907,,1209656.205,5,600,,
sequence,flow.Sequence,10_24,2023-11-27T19:47:20.075Z,,,,,,,,,,,8276.458000095328,completion,,,,,,,low,high,,,,,,,false,,,,,false,1209650.100000143,1209649.9000000954,1201356.88,1201362.5,1201373.442,1209656.205,5,600,,
trial,html.Screen,10_25_0,2023-11-27T19:47:22.682Z,,,,1,-0.001445457736793,-0.0165307427449982,,0.04,true,ll,2601.3950001429766,response,-1.1615479475206127,0.9965161622025022,-1.0893652809510885,-0.958261725041355,1.0765839677974351,-1.0505626819697358,low,low,,ISIC_0027350.JPG,9,ISIC_0064427.JPG,28,31,false,0.1,ll,keypress(f),0,false,1212257.600000143,1212257.600000143,1209639.596,1209650.2000000477,1209656.205,1212261.264,5,600,26,
break,html.Screen,10_25_1,2023-11-27T19:47:22.683Z,,,,,,,,,,,NaN,,,,,,,,low,low,,,,,,,false,,,,,false,1212258,1212257.8000001907,,1212257.7000000477,,1212261.264,5,600,,
break_continue,html.Screen,10_25_2,2023-11-27T19:47:22.683Z,,,,,,,,,,,NaN,,,,,,,,low,low,,,,,,,false,,,,,false,1212258.100000143,1212258,,1212258,,1212261.264,5,600,,
sequence,flow.Sequence,10_25,2023-11-27T19:47:22.683Z,,,,,,,,,,,2601.7949999999255,completion,,,,,,,low,low,,,,,,,false,,,,,false,1212258.2000000477,1212258,1209639.596,1209650.2000000477,1209656.205,1212261.264,5,600,,
trial,html.Screen,10_26_0,2023-11-27T19:47:29.459Z,,,,1,0.0367744112927588,0.0324865661712824,,0.04,true,lh,6772.936000047717,response,-0.8544507134472948,0.9965161622025022,-1.0893652809510885,0.9244388608707323,1.0765839677974351,-1.0505626819697358,low,high,,ISIC_4523565.JPG,8,ISIC_3565564.JPG,28,25,false,0.28000000000000014,lh,keypress(e),0,false,1219034.4000000954,1219034.2000000477,1212244.715,1212258.2000000477,1212261.264,1219041.201,5,600,27,
break,html.Screen,10_26_1,2023-11-27T19:47:29.460Z,,,,,,,,,,,NaN,,,,,,,,low,high,,,,,,,false,,,,,false,1219035.2000000477,1219035,,1219034.7000000477,,1219041.201,5,600,,
break_continue,html.Screen,10_26_2,2023-11-27T19:47:29.461Z,,,,,,,,,,,NaN,,,,,,,,low,high,,,,,,,false,,,,,false,1219035.8000001907,1219035.5,,1219035.4000000954,,1219041.201,5,600,,
sequence,flow.Sequence,10_26,2023-11-27T19:47:29.461Z,,,,,,,,,,,6774.2360000000335,completion,,,,,,,low,high,,,,,,,false,,,,,false,1219036,1219035.5,1212244.715,1212258.2000000477,1212261.264,1219041.201,5,600,,
trial,html.Screen,10_27_0,2023-11-27T19:47:37.842Z,,,,1,-0.0164027439304477,0.0082910758715273,,0.04,false,hl,8376.399000143167,response,1.2362557973341337,0.9965161622025022,-1.0893652809510885,-1.2548266183352603,1.0765839677974351,-1.0505626819697358,high,low,,ISIC_7381224.JPG,9,ISIC_0033886.JPG,28,26,false,0.29000000000000015,lh,keypress(e),0,false,1227417.600000143,1227417.600000143,1219024.611,1219036.100000143,1219041.201,1227424.094,5,600,28,
break,html.Screen,10_27_1,2023-11-27T19:47:37.843Z,,,,,,,,,,,NaN,,,,,,,,high,low,,,,,,,false,,,,,false,1227418,1227417.9000000954,,1227417.7000000477,,1227424.094,5,600,,
break_continue,html.Screen,10_27_2,2023-11-27T19:47:37.843Z,,,,,,,,,,,NaN,,,,,,,,high,low,,,,,,,false,,,,,false,1227418.3000001907,1227418.100000143,,1227418.100000143,,1227424.094,5,600,,
sequence,flow.Sequence,10_27,2023-11-27T19:47:37.843Z,,,,,,,,,,,8376.899000143167,completion,,,,,,,high,low,,,,,,,false,,,,,false,1227418.3000001907,1227418.100000143,1219024.611,1219036.100000143,1219041.201,1227424.094,5,600,,
trial,html.Screen,10_28_0,2023-11-27T19:47:46.019Z,,,,1,0.0200295718112167,0.0155559071275806,,0.04,false,hl,8170.106000047643,response,0.8830264383952469,0.9965161622025022,-1.0893652809510885,-0.8635562538060516,1.0765839677974351,-1.0505626819697358,high,low,,ISIC_0061343.JPG,10,ISIC_0032258.JPG,28,26,false,0.29000000000000015,hh,keypress(i),0,false,1235594.4000000954,1235594.2000000477,1227407.537,1227418.4000000954,1227424.094,1235606.759,5,600,29,
break,html.Screen,10_28_1,2023-11-27T19:47:46.020Z,,,,,,,,,,,NaN,,,,,,,,high,low,,,,,,,false,,,,,false,1235595.2000000477,1235595,,1235594.7000000477,,1235606.759,5,600,,
break_continue,html.Screen,10_28_2,2023-11-27T19:47:46.021Z,,,,,,,,,,,NaN,,,,,,,,high,low,,,,,,,false,,,,,false,1235595.8000001907,1235595.5,,1235595.4000000954,,1235606.759,5,600,,
sequence,flow.Sequence,10_28,2023-11-27T19:47:46.021Z,,,,,,,,,,,8171.405999999959,completion,,,,,,,high,low,,,,,,,false,,,,,false,1235596,1235595.5,1227407.537,1227418.4000000954,1227424.094,1235606.759,5,600,,
trial,html.Screen,10_29_0,2023-11-27T19:47:48.011Z,,,,1,0.0286056110007553,0.036125199756515,,0.04,true,hh,1978.841000142973,response,1.0659165756604234,0.9965161622025022,-1.0893652809510885,1.0867497316848906,1.0765839677974351,-1.0505626819697358,high,high,,ISIC_6535558.JPG,9,ISIC_5807608.JPG,28,28,false,0.11,hh,keypress(i),0,false,1237585.7000000477,1237585.600000143,1235589.947,1235596.100000143,1235606.759,1237593.92,5,600,30,
break,html.Screen,10_29_1,2023-11-27T19:47:48.011Z,,,,,,,,,,,NaN,,,,,,,,high,high,,,,,,,false,,,,,false,1237586.3000001907,1237586.100000143,,1237585.9000000954,,1237593.92,5,600,,
break_continue,html.Screen,10_29_2,2023-11-27T19:47:48.011Z,,,,,,,,,,,NaN,,,,,,,,high,high,,,,,,,false,,,,,false,1237586.600000143,1237586.4000000954,,1237586.3000001907,,1237593.92,5,600,,
sequence,flow.Sequence,10_29,2023-11-27T19:47:48.012Z,,,,,,,,,,,1979.6410000952892,completion,,,,,,,high,high,,,,,,,false,,,,,false,1237586.7000000477,1237586.4000000954,1235589.947,1235596,1235606.759,1237593.92,5,600,,
trial,html.Screen,10_30_0,2023-11-27T19:47:49.770Z,,,,1,0.0286056110007553,0.036125199756515,,0.04,true,hh,1751.2800000477582,response,1.008831959223626,0.9965161622025022,-1.0893652809510885,0.9823409524664072,1.0765839677974351,-1.0505626819697358,high,high,,ISIC_6535558.JPG,10,ISIC_1579745.JPG,28,28,false,0.11,hh,keypress(i),0,false,1239345.2000000477,1239345.2000000477,1237577.25,1237586.8000001907,1237593.92,1239347.31,5,600,31,
break,html.Screen,10_30_1,2023-11-27T19:47:49.770Z,,,,,,,,,,,NaN,,,,,,,,high,high,,,,,,,false,,,,,false,1239345.5,1239345.5,,1239345.3000001907,,1239347.31,5,600,,
break_continue,html.Screen,10_30_2,2023-11-27T19:47:49.771Z,,,,,,,,,,,NaN,,,,,,,,high,high,,,,,,,false,,,,,false,1239345.8000001907,1239345.8000001907,,1239345.7000000477,,1239347.31,5,600,,
sequence,flow.Sequence,10_30,2023-11-27T19:47:49.771Z,,,,,,,,,,,1751.8800001908094,completion,,,,,,,high,high,,,,,,,false,,,,,false,1239345.8000001907,1239345.8000001907,1237577.25,1237586.8000001907,1237593.92,1239347.31,5,600,,
trial,html.Screen,10_31_0,2023-11-27T19:47:57.451Z,,,,1,0.0367706518941078,-0.0161069838272154,,0.04,true,hl,7678.189999999944,response,0.7246771568562105,0.9965161622025022,-1.0893652809510885,-0.9161385080362604,1.0765839677974351,-1.0505626819697358,high,low,,ISIC_0033419.JPG,9,ISIC_0028225.JPG,28,26,false,0.29000000000000015,hl,keypress(j),0,false,1247025.600000143,1247025.5,1239330.577,1239345.9000000954,1239347.31,1247028.901,5,600,32,
break,html.Screen,10_31_1,2023-11-27T19:47:57.451Z,,,,,,,,,,,NaN,,,,,,,,high,low,,,,,,,false,,,,,false,1247026.100000143,1247026,,1247025.8000001907,,1247028.901,5,600,,
break_continue,html.Screen,10_31_2,2023-11-27T19:47:57.451Z,,,,,,,,,,,NaN,,,,,,,,high,low,,,,,,,false,,,,,false,1247026.4000000954,1247026.3000001907,,1247026.2000000477,,1247028.901,5,600,,
sequence,flow.Sequence,10_31,2023-11-27T19:47:57.451Z,,,,,,,,,,,7678.990000190679,completion,,,,,,,high,low,,,,,,,false,,,,,false,1247026.600000143,1247026.3000001907,1239330.577,1239345.9000000954,1239347.31,1247028.901,5,600,,
trial,html.Screen,10_32_0,2023-11-27T19:48:05.555Z,,,,1,-0.0241900387072296,0.0339955304424736,,0.04,true,hl,8100.299000047613,response,0.7883321712536753,0.9965161622025022,-1.0893652809510885,-1.0011430756825364,1.0765839677974351,-1.0505626819697358,high,low,,ISIC_0010789.JPG,9,ISIC_9828853.JPG,28,26,false,0.29000000000000015,hl,keypress(j),0,false,1255129.3000001907,1255129.2000000477,1247012.213,1247026.600000143,1247028.901,1255144.941,5,600,33,
break,html.Screen,10_32_1,2023-11-27T19:48:05.556Z,,,,,,,,,,,NaN,,,,,,,,high,low,,,,,,,false,,,,,false,1255129.7000000477,1255129.600000143,,1255129.4000000954,,1255144.941,5,600,,
break_continue,html.Screen,10_32_2,2023-11-27T19:48:05.556Z,,,,,,,,,,,NaN,,,,,,,,high,low,,,,,,,false,,,,,false,1255129.8000001907,1255129.8000001907,,1255129.7000000477,,1255144.941,5,600,,
sequence,flow.Sequence,10_32,2023-11-27T19:48:05.556Z,,,,,,,,,,,8100.899000190664,completion,,,,,,,high,low,,,,,,,false,,,,,false,1255129.9000000954,1255129.8000001907,1247012.213,1247026.600000143,1247028.901,1255144.941,5,600,,
trial,html.Screen,10_33_0,2023-11-27T19:48:07.507Z,,,,1,0.0367744112927588,0.0324865661712824,,0.04,true,hh,1936.4590000952594,response,1.0659165756604234,0.9965161622025022,-1.0893652809510885,1.0867497316848906,1.0765839677974351,-1.0505626819697358,high,high,,ISIC_4523565.JPG,8,ISIC_5807608.JPG,28,28,false,0.11,hh,keypress(i),0,false,1257081.4000000954,1257081.4000000954,1255128.134,1255130,1255144.941,1257098.611,5,600,34,
break,html.Screen,10_33_1,2023-11-27T19:48:07.508Z,,,,,,,,,,,NaN,,,,,,,,high,high,,,,,,,false,,,,,false,1257081.8000001907,1257081.7000000477,,1257081.600000143,,1257098.611,5,600,,
break_continue,html.Screen,10_33_2,2023-11-27T19:48:07.508Z,,,,,,,,,,,NaN,,,,,,,,high,high,,,,,,,false,,,,,false,1257082,1257082,,1257081.9000000954,,1257098.611,5,600,,
sequence,flow.Sequence,10_33,2023-11-27T19:48:07.508Z,,,,,,,,,,,1937.058999999892,completion,,,,,,,high,high,,,,,,,false,,,,,false,1257082.100000143,1257082,1255128.134,1255130,1255144.941,1257098.611,5,600,,
trial,html.Screen,10_34_0,2023-11-27T19:48:14.828Z,,,,1,-0.039520186367207,-0.0377961575607372,,0.04,false,lh,7303.189000190701,response,-1.0685314915436992,0.9965161622025022,-1.0893652809510885,0.8203833713472237,1.0765839677974351,-1.0505626819697358,low,high,,ISIC_6356149.JPG,9,ISIC_0029374.JPG,28,25,false,0.28000000000000014,hh,keypress(i),0,false,1264402,1264401.8000001907,1257065.277,1257082.2000000477,1257098.611,1264412.692,5,600,35,
break,html.Screen,10_34_1,2023-11-27T19:48:14.829Z,,,,,,,,,,,NaN,,,,,,,,low,high,,,,,,,false,,,,,false,1264402.7000000477,1264402.600000143,,1264402.3000001907,,1264412.692,5,600,,
break_continue,html.Screen,10_34_2,2023-11-27T19:48:14.829Z,,,,,,,,,,,NaN,,,,,,,,low,high,,,,,,,false,,,,,false,1264403.2000000477,1264402.9000000954,,1264402.8000001907,,1264412.692,5,600,,
sequence,flow.Sequence,10_34,2023-11-27T19:48:14.829Z,,,,,,,,,,,7304.289000095334,completion,,,,,,,low,high,,,,,,,false,,,,,false,1264403.3000001907,1264402.9000000954,1257065.277,1257082.2000000477,1257098.611,1264412.692,5,600,,
trial,html.Screen,10_35_0,2023-11-27T19:48:22.379Z,,,,1,-0.0388334549081915,0.0303399972963369,,0.04,false,lh,7540.508000047645,response,-0.8443403196524287,0.9965161622025022,-1.0893652809510885,0.8858525429102605,1.0765839677974351,-1.0505626819697358,low,high,,ISIC_4961708.JPG,10,ISIC_8777813.JPG,28,25,false,0.28000000000000014,hl,keypress(j),0,false,1271953.4000000954,1271953.2000000477,1264395.954,1264403.5,1264412.692,1271960.706,5,600,36,
break,html.Screen,10_35_1,2023-11-27T19:48:22.380Z,,,,,,,,,,,NaN,,,,,,,,low,high,,,,,,,false,,,,,false,1271953.7000000477,1271953.600000143,,1271953.4000000954,,1271960.706,5,600,,
break_continue,html.Screen,10_35_2,2023-11-27T19:48:22.380Z,,,,,,,,,,,NaN,,,,,,,,low,high,,,,,,,false,,,,,false,1271953.9000000954,1271953.7000000477,,1271953.7000000477,,1271960.706,5,600,,
sequence,flow.Sequence,10_35,2023-11-27T19:48:22.380Z,,,,,,,,,,,7541.008000047645,completion,,,,,,,low,high,,,,,,,false,,,,,false,1271953.9000000954,1271953.7000000477,1264395.954,1264403.4000000954,1264412.692,1271960.706,5,600,,
trial,html.Screen,10_36_0,2023-11-27T19:48:25.789Z,,,,1,0.0044063257337227,0.0172548282859886,,0.04,false,lh,3401.5940001907293,response,-1.0153439398566937,0.9965161622025022,-1.0893652809510885,0.93001438372942,1.0765839677974351,-1.0505626819697358,low,high,,ISIC_7413786.JPG,10,ISIC_8211214.JPG,28,25,false,0.28000000000000014,hh,keypress(i),0,false,1275362.5,1275362.3000001907,1271944.229,1271954,1271960.706,1275367.364,5,600,37,
break,html.Screen,10_36_1,2023-11-27T19:48:25.789Z,,,,,,,,,,,NaN,,,,,,,,low,high,,,,,,,false,,,,,false,1275363.4000000954,1275363.2000000477,,1275362.8000001907,,1275367.364,5,600,,
break_continue,html.Screen,10_36_2,2023-11-27T19:48:25.790Z,,,,,,,,,,,NaN,,,,,,,,low,high,,,,,,,false,,,,,false,1275364.2000000477,1275363.9000000954,,1275363.600000143,,1275367.364,5,600,,
sequence,flow.Sequence,10_36,2023-11-27T19:48:25.790Z,,,,,,,,,,,3403.194000095362,completion,,,,,,,low,high,,,,,,,false,,,,,false,1275364.4000000954,1275363.9000000954,1271944.229,1271954,1271960.706,1275367.364,5,600,,
trial,html.Screen,10_37_0,2023-11-27T19:48:30.660Z,,,,1,-0.0199950873045219,-0.0172506388509166,,0.04,true,ll,4866.336000047624,response,-1.0879680624915455,0.9965161622025022,-1.0893652809510885,-0.9819300422707804,1.0765839677974351,-1.0505626819697358,low,low,,ISIC_0029906.JPG,9,ISIC_0011369.JPG,28,31,false,0.1,ll,keypress(f),0,false,1280233.9000000954,1280233.7000000477,1275350.767,1275364.5,1275367.364,1280243.513,5,600,38,
break,html.Screen,10_37_1,2023-11-27T19:48:30.660Z,,,,,,,,,,,NaN,,,,,,,,low,low,,,,,,,false,,,,,false,1280234.3000001907,1280234.2000000477,,1280234,,1280243.513,5,600,,
break_continue,html.Screen,10_37_2,2023-11-27T19:48:30.661Z,,,,,,,,,,,NaN,,,,,,,,low,low,,,,,,,false,,,,,false,1280234.7000000477,1280234.600000143,,1280234.5,,1280243.513,5,600,,
