sender,sender_type,sender_id,timestamp,meta,,age,blockNo,c1,c2,condition,control_tolerance,correct,correctResponse,duration,ended_on,f1,f1_high,f1_low,f2,f2_high,f2_low,feature_level1,feature_level2,gender,img_left,img_reveal,img_right,n_control_images,n_target_images,practice,range_tolerance,response,response_action,selection_duration,staircase,time_commit,time_end,time_render,time_run,time_show,time_switch,total_blocks,total_trials,trialNo,url
informed_consent,html.Screen,0,2023-11-30T16:32:00.196Z,"{""labjs_version"":""20.2.4"",""labjs_build"":{""flavor"":""development"",""commit"":""f5b4a49f956347addd546a832a3327688c2c0fef""},""location"":""https://labjs.felixhenninger.com/api/labjs_preview/index.html"",""userAgent"":""Mozilla/5.0 (Windows NT 10.0; Win64; x64) AppleWebKit/537.36 (KHTML, like Gecko) Chrome/119.0.0.0 Safari/537.36"",""platform"":""Win32"",""language"":""en-US"",""locale"":""en-US"",""timeZone"":""America/Chicago"",""timezoneOffset"":360,""screen_width"":1920,""screen_height"":1080,""scroll_width"":945,""scroll_height"":918,""window_innerWidth"":945,""window_innerHeight"":966,""devicePixelRatio"":1}",,,,,,,,,,22583.752,response,,,,,,,,,,,,,,,,,consent,click button,,,23434.299999952316,23426,825.593,830.7999999523163,842.248,23459.126,,,,{}
Demography form,html.Form,1,2023-11-30T16:32:04.885Z,,,18,,,,,,,,4663.473999904632,form submission,,,,,,,,,male,,,,,,,,,,,,28122.699999809265,28122.599999904633,23442.489,23434.5,23459.126,28142.528,,,,
Welcome,html.Screen,2,2023-11-30T16:32:39.180Z,,,,,,,"[""asym"",""bor""]",,,,34275.37199985695,response,,,,,,,,,,,,,,,,,continue,click button,,,62418.5,62417.89999985695,28125.678,28122.799999952316,28142.528,62442.547,,,,
demo_instructions,html.Screen,3,2023-11-30T16:33:15.548Z,,,,,,,,,,,36343.453,response,,,,,,,,,,,,,,,,,continue,click button,,,98786.5,98786,62425.843,62418.699999809265,62442.547,98792.408,,,,
trial,html.Screen,4_0_0,2023-11-30T16:33:24.019Z,,,,0,-1.185875658992962,-1.2635548590325487,,,false,hh,8464.39199995232,response,1.1210325063849345,1.2,-1.2,1.1498648320956202,1.2,-1.2,high,high,,ISIC_0011703.JPG,,ISIC_0032162.JPG,,26,true,0.15000000000000002,ll,keypress(f),100,false,107257.09999990463,107256.79999995232,98775.824,98786.69999980927,98792.408,107275.88,1,16,1,
sequence,flow.Sequence,4_0,2023-11-30T16:33:24.020Z,,,,,,,,,,,8464.39199995232,completion,,,,,,,high,high,,,,,,,true,,,,,false,107257.19999980927,107256.79999995232,98775.824,98786.59999990463,98792.408,107275.88,1,16,,
trial,html.Screen,4_1_0,2023-11-30T16:33:36.808Z,,,,0,-1.2915523362516486,-1.1264977790562936,,,true,hh,12769.919999952312,response,1.086647361897092,1.2,-1.2,1.1528935990320313,1.2,-1.2,high,high,,ISIC_0502582.JPG,,ISIC_3505339.JPG,,26,true,0.15000000000000002,hh,keypress(i),100,false,120045.89999985695,120045.79999995232,107259.09,107257.29999995232,107275.88,120075.915,1,16,2,
sequence,flow.Sequence,4_1,2023-11-30T16:33:36.808Z,,,,,,,,,,,12769.919999952312,completion,,,,,,,high,high,,,,,,,true,,,,,false,120046.09999990463,120045.79999995232,107259.09,107257.29999995232,107275.88,120075.915,1,16,,
trial,html.Screen,4_2_0,2023-11-30T16:33:41.853Z,,,,0,-1.1474466950560966,-1.268445326285509,,,true,hh,5014.085000000006,response,1.131522954199764,1.2,-1.2,1.1047184491749509,1.2,-1.2,high,high,,ISIC_5216586.JPG,,ISIC_1868816.JPG,,26,true,0.15000000000000002,hh,keypress(i),100,false,125090.29999995232,125090,120059.121,120046.19999980927,120075.915,125109.187,1,16,3,
sequence,flow.Sequence,4_2,2023-11-30T16:33:41.853Z,,,,,,,,,,,5014.085000000006,completion,,,,,,,high,high,,,,,,,true,,,,,false,125090.69999980927,125090,120059.121,120046.09999990463,120075.915,125109.187,1,16,,
trial,html.Screen,4_3_0,2023-11-30T16:33:44.903Z,,,,0,-1.1346217981791904,-1.1555132168806113,,,true,hh,3030.8129999999946,response,1.086647361897092,1.2,-1.2,1.1528935990320313,1.2,-1.2,high,high,,ISIC_0032771.JPG,,ISIC_3505339.JPG,,26,true,0.15000000000000002,hh,keypress(i),100,false,128140.29999995232,128140,125092.458,125090.79999995232,125109.187,128159.11,1,16,4,
sequence,flow.Sequence,4_3,2023-11-30T16:33:44.903Z,,,,,,,,,,,3030.8129999999946,completion,,,,,,,high,high,,,,,,,true,,,,,false,128140.5,128140,125092.458,125090.79999995232,125109.187,128159.11,1,16,,
trial,html.Screen,4_4_0,2023-11-30T16:33:50.350Z,,,,0,1.3411179702686655,1.255103311449152,,,true,ll,5428.589999809265,response,-1.2249552940807693,1.2,-1.2,-1.1723015116910682,1.2,-1.2,low,low,,ISIC_5611010.JPG,,ISIC_0055251.JPG,,30,true,0.1,ll,keypress(f),100,false,133587.79999995232,133587.69999980927,128142.459,128140.69999980927,128159.11,133609.138,1,16,5,
sequence,flow.Sequence,4_4,2023-11-30T16:33:50.350Z,,,,,,,,,,,5428.589999809265,completion,,,,,,,low,low,,,,,,,true,,,,,false,133588,133587.69999980927,128142.459,128140.69999980927,128159.11,133609.138,1,16,,
trial,html.Screen,4_5_0,2023-11-30T16:33:54.930Z,,,,0,1.3189473926989124,1.0770264364718942,,,true,ll,4558.561999809259,response,-1.2015106101917423,1.2,-1.2,-1.071085024260525,1.2,-1.2,low,low,,ISIC_6093728.JPG,,ISIC_0072496.JPG,,53,true,0.15000000000000002,ll,keypress(f),100,false,138168,138167.69999980927,133592.566,133588.09999990463,133609.138,138192.433,1,16,6,
sequence,flow.Sequence,4_5,2023-11-30T16:33:54.930Z,,,,,,,,,,,4558.561999809259,completion,,,,,,,low,low,,,,,,,true,,,,,false,138168.09999990463,138167.69999980927,133592.566,133588.09999990463,133609.138,138192.433,1,16,,
trial,html.Screen,4_6_0,2023-11-30T16:33:57.752Z,,,,0,1.0870240111136478,1.332340670965917,,,true,ll,2797.466999856959,response,-1.247270138097585,1.2,-1.2,-1.1704704713504994,1.2,-1.2,low,low,,ISIC_0000660.JPG,,ISIC_0065774.JPG,,53,true,0.15000000000000002,ll,keypress(f),100,false,140990.19999980927,140989.89999985695,138175.842,138168.19999980927,138192.433,141009.148,1,16,7,
sequence,flow.Sequence,4_6,2023-11-30T16:33:57.753Z,,,,,,,,,,,2797.466999856959,completion,,,,,,,low,low,,,,,,,true,,,,,false,140990.29999995232,140989.89999985695,138175.842,138168.19999980927,138192.433,141009.148,1,16,,
trial,html.Screen,4_7_0,2023-11-30T16:34:01.165Z,,,,0,1.1598623261077452,1.203269031614007,,,true,ll,3393.3520000000135,response,-1.2923059965680113,1.2,-1.2,-1.222688159093534,1.2,-1.2,low,low,,ISIC_0002639.JPG,,ISIC_0072175.JPG,,53,true,0.15000000000000002,ll,keypress(f),100,false,144402.69999980927,144402.5,140992.468,140990.29999995232,141009.148,144425.909,1,16,8,
sequence,flow.Sequence,4_7,2023-11-30T16:34:01.165Z,,,,,,,,,,,3393.3520000000135,completion,,,,,,,low,low,,,,,,,true,,,,,false,144402.79999995232,144402.5,140992.468,140990.29999995232,141009.148,144425.909,1,16,,
trial,html.Screen,4_8_0,2023-11-30T16:34:12.609Z,,,,0,1.2364994561934892,-0.9174173651516624,,,true,lh,11420.990999856935,response,-1.0115965332688306,1.2,-1.2,0.8282633603842442,1.2,-1.2,low,high,,ISIC_3481133.JPG,,ISIC_1069587.JPG,,27,true,0.42000000000000026,lh,keypress(e),100,false,155847.09999990463,155846.89999985695,144409.157,144402.79999995232,144425.909,155875.821,1,16,9,
sequence,flow.Sequence,4_8,2023-11-30T16:34:12.610Z,,,,,,,,,,,11420.990999856935,completion,,,,,,,low,high,,,,,,,true,,,,,false,155847.29999995232,155846.89999985695,144409.157,144402.79999995232,144425.909,155875.821,1,16,,
trial,html.Screen,4_9_0,2023-11-30T16:34:17.626Z,,,,0,1.4747161152848791,-0.847048591307387,,,true,lh,4987.378999809269,response,-0.7998855902596425,1.2,-1.2,1.1518579145663017,1.2,-1.2,low,high,,ISIC_0016092.JPG,,ISIC_0025061.JPG,,27,true,0.42000000000000026,lh,keypress(e),100,false,160863.39999985695,160863.19999980927,155859.197,155847.5,155875.821,160892.529,1,16,10,
sequence,flow.Sequence,4_9,2023-11-30T16:34:17.626Z,,,,,,,,,,,4987.378999809269,completion,,,,,,,low,high,,,,,,,true,,,,,false,160863.69999980927,160863.19999980927,155859.197,155847.5,155875.821,160892.529,1,16,,
trial,html.Screen,4_10_0,2023-11-30T16:34:21.888Z,,,,0,0.9454713230140772,-0.9245167441969216,,,true,lh,4233.270999952307,response,-0.8092423703106274,1.2,-1.2,1.1870093485714288,1.2,-1.2,low,high,,ISIC_9101055.JPG,,ISIC_8592235.JPG,,27,true,0.42000000000000026,lh,keypress(e),100,false,165126.09999990463,165125.79999995232,160875.863,160863.69999980927,160892.529,165142.526,1,16,11,
sequence,flow.Sequence,4_10,2023-11-30T16:34:21.889Z,,,,,,,,,,,4233.270999952307,completion,,,,,,,low,high,,,,,,,true,,,,,false,165126.19999980927,165125.79999995232,160875.863,160863.69999980927,160892.529,165142.526,1,16,,
trial,html.Screen,4_11_0,2023-11-30T16:34:27.632Z,,,,0,1.020990671779317,-1.0116513850520903,,,true,lh,5726.173999809253,response,-1.0264463986917702,1.2,-1.2,1.2804054832904397,1.2,-1.2,low,high,,ISIC_0011995.JPG,,ISIC_7889838.JPG,,27,true,0.42000000000000026,lh,keypress(e),100,false,170868.79999995232,170868.69999980927,165125.826,165126.29999995232,165142.526,170892.685,1,16,12,
sequence,flow.Sequence,4_11,2023-11-30T16:34:27.632Z,,,,,,,,,,,5726.173999809253,completion,,,,,,,low,high,,,,,,,true,,,,,false,170868.89999985695,170868.69999980927,165125.826,165126.29999995232,165142.526,170892.685,1,16,,
trial,html.Screen,4_12_0,2023-11-30T16:34:44.816Z,,,,0,-0.7871162143493278,0.8429329800778957,,,true,hl,17160.11499995232,response,0.9579209317488,1.2,-1.2,-1.0147487101263497,1.2,-1.2,high,low,,ISIC_3439215.JPG,,ISIC_8124482.JPG,,26,true,0.3600000000000002,hl,keypress(j),100,false,188053.19999980927,188052.79999995232,170875.856,170869.09999990463,170892.685,188075.868,1,16,13,
sequence,flow.Sequence,4_12,2023-11-30T16:34:44.817Z,,,,,,,,,,,17160.11499995232,completion,,,,,,,high,low,,,,,,,true,,,,,false,188053.59999990463,188052.79999995232,170875.856,170869,170892.685,188075.868,1,16,,
trial,html.Screen,4_13_0,2023-11-30T16:34:54.701Z,,,,0,-0.9873794329144926,0.7991077882008257,,,true,hl,9861.531999856961,response,1.2075172235545184,1.2,-1.2,-0.9116724966267612,1.2,-1.2,high,low,,ISIC_0013498.JPG,,ISIC_0024235.JPG,,33,true,0.42000000000000026,hl,keypress(j),100,false,197937.59999990463,197937.39999985695,188059.209,188053.89999985695,188075.868,197959.153,1,16,14,
sequence,flow.Sequence,4_13,2023-11-30T16:34:54.701Z,,,,,,,,,,,9861.531999856961,completion,,,,,,,high,low,,,,,,,true,,,,,false,197937.89999985695,197937.39999985695,188059.209,188053.69999980927,188075.868,197959.153,1,16,,
trial,html.Screen,4_14_0,2023-11-30T16:35:09.056Z,,,,0,-0.8092423703106274,1.1870093485714288,,,true,hl,14333.246999856958,response,1.0865333402803938,1.2,-1.2,-1.0542635307358266,1.2,-1.2,high,low,,ISIC_8592235.JPG,,ISIC_0034006.JPG,,33,true,0.42000000000000026,hl,keypress(j),100,false,212292.59999990463,212292.39999985695,197942.574,197937.89999985695,197959.153,212309.18,1,16,15,
sequence,flow.Sequence,4_14,2023-11-30T16:35:09.056Z,,,,,,,,,,,14333.246999856958,completion,,,,,,,high,low,,,,,,,true,,,,,false,212292.79999995232,212292.39999985695,197942.574,197937.89999985695,197959.153,212309.18,1,16,,
trial,html.Screen,4_15_0,2023-11-30T16:35:16.208Z,,,,0,-0.809764442462202,1.005337148078696,,,true,hl,7135.119999952323,response,1.331700944308701,1.2,-1.2,-0.9395196143259436,1.2,-1.2,high,low,,ISIC_2379379.JPG,,ISIC_1668831.JPG,,33,true,0.42000000000000026,hl,keypress(j),100,false,219444.39999985695,219444.29999995232,212292.561,212292.89999985695,212309.18,219475.91,1,16,16,
sequence,flow.Sequence,4_15,2023-11-30T16:35:16.208Z,,,,,,,,,,,7135.119999952323,completion,,,,,,,high,low,,,,,,,true,,,,,false,219444.69999980927,219444.29999995232,212292.561,212292.89999985695,212309.18,219475.91,1,16,,
demonstration_loop,flow.Loop,4,2023-11-30T16:35:16.208Z,,,,,,,,,,,120651.89199995232,completion,,,,,,,,,,,,,,,true,,,,,false,219444.79999995232,219444.29999995232,98775.824,98786.5,98792.408,219475.91,1,16,,
practice_instructions,html.Screen,5,2023-11-30T16:35:31.894Z,,,,,,,,,,,15645.989999856945,response,,,,,,,,,,,,,,,,,continue,click button,,,235130.39999985695,235121.89999985695,219459.249,219444.79999995232,219475.91,235142.587,,,,
trial,html.Screen,6_0_0,2023-11-30T16:35:43.608Z,,,,1,-0.8035152873995188,0.82868450251632,,,true,hl,11701.512999904633,response,0.8534691366511764,1.2,-1.2,-1.03975580494588,1.2,-1.2,high,low,,ISIC_0010671.JPG,,ISIC_0056788.JPG,,26,true,0.3600000000000002,hl,keypress(j),0,false,246844.39999985695,246844.09999990463,235109.469,235130.69999980927,235142.587,246875.968,1,40,1,
sequence,flow.Sequence,6_0,2023-11-30T16:35:43.608Z,,,,,,,,,,,11701.512999904633,completion,,,,,,,high,low,,,,,,,true,,,,,false,246844.79999995232,246844.09999990463,235109.469,235130.59999990463,235142.587,246875.968,1,40,,
trial,html.Screen,6_1_0,2023-11-30T16:35:49.087Z,,,,1,1.241406480986552,1.081912821786771,,,true,ll,5446.931999856955,response,-1.1474466950560966,1.2,-1.2,-1.268445326285509,1.2,-1.2,low,low,,ISIC_4223155.JPG,,ISIC_5216586.JPG,,339,true,0.42000000000000026,ll,keypress(f),0,false,252323,252322.89999985695,246859.392,246845,246875.968,252342.592,1,40,2,
sequence,flow.Sequence,6_1,2023-11-30T16:35:49.087Z,,,,,,,,,,,5446.931999856955,completion,,,,,,,low,low,,,,,,,true,,,,,false,252323.29999995232,252322.89999985695,246859.392,246844.89999985695,246875.968,252342.592,1,40,,
trial,html.Screen,6_2_0,2023-11-30T16:36:02.806Z,,,,1,-0.7833710010171356,0.9315588090336896,,,true,hl,13699.907999999996,response,0.991282840649944,1.2,-1.2,-0.9397921099839784,1.2,-1.2,high,low,,ISIC_3826102.JPG,,ISIC_0000463.JPG,,26,true,0.3600000000000002,hl,keypress(j),0,false,266042.59999990463,266042.5,252309.226,252323.5,252342.592,266059.555,1,40,3,
sequence,flow.Sequence,6_2,2023-11-30T16:36:02.806Z,,,,,,,,,,,13699.907999999996,completion,,,,,,,high,low,,,,,,,true,,,,,false,266042.7999999523,266042.5,252309.226,252323.39999985695,252342.592,266059.555,1,40,,
trial,html.Screen,6_3_0,2023-11-30T16:36:09.198Z,,,,1,-1.2282561398079586,-1.210457198775374,,,false,hh,6374.744999952323,response,1.039870285724662,1.2,-1.2,1.427054059027632,1.2,-1.2,high,high,,ISIC_9141817.JPG,,ISIC_0026613.JPG,,253,true,0.42000000000000026,hl,keypress(j),0,false,272434.39999985695,272434.2999999523,266042.271,266042.89999985695,266059.555,272442.615,1,40,4,
sequence,flow.Sequence,6_3,2023-11-30T16:36:09.198Z,,,,,,,,,,,6374.744999952323,completion,,,,,,,high,high,,,,,,,true,,,,,false,272434.59999990463,272434.2999999523,266042.271,266042.89999985695,266059.555,272442.615,1,40,,
trial,html.Screen,6_4_0,2023-11-30T16:36:19.566Z,,,,1,-1.2915523362516486,-1.1264977790562936,,,false,hh,10360.184999952326,response,1.0858641668099058,1.2,-1.2,1.1638942560200525,1.2,-1.2,high,high,,ISIC_0502582.JPG,,ISIC_5439597.JPG,,26,true,0.15000000000000002,hl,keypress(j),0,false,282803,282802.7999999523,272425.764,272434.59999990463,272442.615,282825.94,1,40,5,
sequence,flow.Sequence,6_4,2023-11-30T16:36:19.567Z,,,,,,,,,,,10360.184999952326,completion,,,,,,,high,high,,,,,,,true,,,,,false,282803.2999999523,282802.7999999523,272425.764,272434.59999990463,272442.615,282825.94,1,40,,
trial,html.Screen,6_5_0,2023-11-30T16:36:27.222Z,,,,1,0.8534691366511764,-1.03975580494588,,,false,lh,7632.4599998569465,response,-0.9235571765207048,1.2,-1.2,1.0008081653938232,1.2,-1.2,low,high,,ISIC_0056788.JPG,,ISIC_8796632.JPG,,27,true,0.42000000000000026,ll,keypress(f),0,false,290458.5,290458.39999985695,282792.269,282803.5,282825.94,290477.372,1,40,6,
sequence,flow.Sequence,6_5,2023-11-30T16:36:27.222Z,,,,,,,,,,,7632.4599998569465,completion,,,,,,,low,high,,,,,,,true,,,,,false,290458.69999980927,290458.39999985695,282792.269,282803.5,282825.94,290477.372,1,40,,
trial,html.Screen,6_6_0,2023-11-30T16:36:33.318Z,,,,1,1.2706447584800626,1.0903308007916603,,,true,ll,6077.227999904659,response,-0.9789697360622612,1.2,-1.2,-1.0321843200509992,1.2,-1.2,low,low,,ISIC_9425937.JPG,,ISIC_0056406.JPG,,245,true,0.3600000000000002,ll,keypress(f),0,false,296554.7999999523,296554.59999990463,290442.513,290458.7999999523,290477.372,296559.336,1,40,7,
sequence,flow.Sequence,6_6,2023-11-30T16:36:33.319Z,,,,,,,,,,,6077.227999904659,completion,,,,,,,low,low,,,,,,,true,,,,,false,296555,296554.59999990463,290442.513,290458.7999999523,290477.372,296559.336,1,40,,
trial,html.Screen,6_7_0,2023-11-30T16:36:40.222Z,,,,1,1.0870240111136478,1.332340670965917,,,true,ll,6899.063999856939,response,-1.2254187569955004,1.2,-1.2,-1.174555235109734,1.2,-1.2,low,low,,ISIC_0000660.JPG,,ISIC_0027187.JPG,,53,true,0.15000000000000002,ll,keypress(f),0,false,303458.5,303458.39999985695,296542.448,296555,296559.336,303476.563,1,40,8,
sequence,flow.Sequence,6_7,2023-11-30T16:36:40.222Z,,,,,,,,,,,6899.063999856939,completion,,,,,,,low,low,,,,,,,true,,,,,false,303458.59999990463,303458.39999985695,296542.448,296555,296559.336,303476.563,1,40,,
trial,html.Screen,6_8_0,2023-11-30T16:36:47.198Z,,,,1,0.8809306963311293,-0.8614910030038974,,,false,lh,6957.636999809241,response,-0.8035152873995188,1.2,-1.2,0.82868450251632,1.2,-1.2,low,high,,ISIC_0013731.JPG,,ISIC_0010671.JPG,,27,true,0.42000000000000026,ll,keypress(f),0,false,310434.19999980927,310434.19999980927,303442.567,303458.69999980927,303476.563,310442.64,1,40,9,
sequence,flow.Sequence,6_8,2023-11-30T16:36:47.198Z,,,,,,,,,,,6957.636999809241,completion,,,,,,,low,high,,,,,,,true,,,,,false,310434.39999985695,310434.19999980927,303442.567,303458.69999980927,303476.563,310442.64,1,40,,
trial,html.Screen,6_9_0,2023-11-30T16:36:52.815Z,,,,1,1.1137763092539212,1.1599906701455132,,,true,ll,5608.559999809251,response,-1.2322060291690602,1.2,-1.2,-1.2686491386389651,1.2,-1.2,low,low,,ISIC_5413788.JPG,,ISIC_0011697.JPG,,245,true,0.3600000000000002,ll,keypress(f),0,false,316051.2999999523,316051.19999980927,310425.865,310434.39999985695,310442.64,316059.382,1,40,10,
sequence,flow.Sequence,6_9,2023-11-30T16:36:52.815Z,,,,,,,,,,,5608.559999809251,completion,,,,,,,low,low,,,,,,,true,,,,,false,316051.69999980927,316051.19999980927,310425.865,310434.39999985695,310442.64,316059.382,1,40,,
trial,html.Screen,6_10_0,2023-11-30T16:36:58.191Z,,,,1,-1.2750452296609045,-1.1682369131232675,,,true,hh,5368.118000000017,response,1.057008495826831,1.2,-1.2,1.1278122585028287,1.2,-1.2,high,high,,ISIC_0066399.JPG,,ISIC_2819798.JPG,,26,true,0.15000000000000002,hh,keypress(i),0,false,321427.69999980927,321427.5,316042.467,316051.7999999523,316059.382,321442.781,1,40,11,
sequence,flow.Sequence,6_10,2023-11-30T16:36:58.192Z,,,,,,,,,,,5368.118000000017,completion,,,,,,,high,high,,,,,,,true,,,,,false,321428,321427.5,316042.467,316051.7999999523,316059.382,321442.781,1,40,,
trial,html.Screen,6_11_0,2023-11-30T16:37:03.326Z,,,,1,1.2711018615747949,1.1042234044781618,,,true,ll,5119.618999856932,response,-1.126264390089724,1.2,-1.2,-1.271896565050952,1.2,-1.2,low,low,,ISIC_8603734.JPG,,ISIC_1520897.JPG,,30,true,0.1,ll,keypress(f),0,false,326562.59999990463,326562.39999985695,321425.923,321428.09999990463,321442.781,326576.274,1,40,12,
sequence,flow.Sequence,6_11,2023-11-30T16:37:03.326Z,,,,,,,,,,,5119.618999856932,completion,,,,,,,low,low,,,,,,,true,,,,,false,326562.69999980927,326562.39999985695,321425.923,321428.09999990463,321442.781,326576.274,1,40,,
trial,html.Screen,6_12_0,2023-11-30T16:37:09.102Z,,,,1,-1.2952503640839694,-1.107234527385344,,,true,hh,5761.925999809289,response,1.131522954199764,1.2,-1.2,1.1047184491749509,1.2,-1.2,high,high,,ISIC_0034134.JPG,,ISIC_1868816.JPG,,26,true,0.15000000000000002,hh,keypress(i),0,false,332338.39999985695,332338.19999980927,326559.297,326562.69999980927,326576.274,332359.39,1,40,13,
sequence,flow.Sequence,6_12,2023-11-30T16:37:09.102Z,,,,,,,,,,,5761.925999809289,completion,,,,,,,high,high,,,,,,,true,,,,,false,332338.39999985695,332338.19999980927,326559.297,326562.69999980927,326576.274,332359.39,1,40,,
trial,html.Screen,6_13_0,2023-11-30T16:37:21.736Z,,,,1,-0.7998855902596425,1.1518579145663017,,,true,hl,12612.609999999986,response,1.0751036484083878,1.2,-1.2,-1.143906455483852,1.2,-1.2,high,low,,ISIC_0025061.JPG,,ISIC_0064406.JPG,,26,true,0.3600000000000002,hl,keypress(j),0,false,344972.19999980927,344972,332326.107,332338.5,332359.39,344976.072,1,40,14,
sequence,flow.Sequence,6_13,2023-11-30T16:37:21.736Z,,,,,,,,,,,12612.609999999986,completion,,,,,,,high,low,,,,,,,true,,,,,false,344972.69999980927,344972,332326.107,332338.5,332359.39,344976.072,1,40,,
trial,html.Screen,6_14_0,2023-11-30T16:37:37.724Z,,,,1,-0.7833710010171356,0.9315588090336896,,,,,16016.848999999987,timeout,0.9696118525781644,1.2,-1.2,-0.9244148283103414,1.2,-1.2,high,low,,ISIC_3826102.JPG,,ISIC_7927525.JPG,,33,true,0.42000000000000026,,,0,false,360960.19999980927,360959.89999985695,344959.054,344972.7999999523,344976.072,360992.921,1,40,15,
sequence,flow.Sequence,6_14,2023-11-30T16:37:37.724Z,,,,,,,,,,,15983.827999856963,completion,,,,,,,high,low,,,,,,,true,,,,,false,360960.2999999523,360959.89999985695,344959.054,344972.7999999523,344976.072,360992.921,1,40,,
trial,html.Screen,6_15_0,2023-11-30T16:37:46.703Z,,,,1,1.331700944308701,-0.9395196143259436,,,false,lh,8946.378999952343,response,-0.809764442462202,1.2,-1.2,1.005337148078696,1.2,-1.2,low,high,,ISIC_1668831.JPG,,ISIC_2379379.JPG,,27,true,0.42000000000000026,hh,keypress(i),0,false,369939.69999980927,369939.2999999523,360976.152,360960.5,360992.921,369976.124,1,40,16,
sequence,flow.Sequence,6_15,2023-11-30T16:37:46.704Z,,,,,,,,,,,8946.378999952343,completion,,,,,,,low,high,,,,,,,true,,,,,false,369940.09999990463,369939.2999999523,360976.152,360960.39999985695,360992.921,369976.124,1,40,,
trial,html.Screen,6_16_0,2023-11-30T16:37:49.143Z,,,,1,-0.9873794329144926,0.7991077882008257,,,false,hl,2402.975999904622,response,1.2331439637486756,1.2,-1.2,-0.9691143900156988,1.2,-1.2,high,low,,ISIC_0013498.JPG,,ISIC_7877488.JPG,,26,true,0.3600000000000002,hh,keypress(i),0,false,372379.39999985695,372379.09999990463,369925.788,369940.2999999523,369976.124,372392.838,1,40,17,
sequence,flow.Sequence,6_16,2023-11-30T16:37:49.143Z,,,,,,,,,,,2402.975999904622,completion,,,,,,,high,low,,,,,,,true,,,,,false,372379.69999980927,372379.09999990463,369925.788,369940.2999999523,369976.124,372392.838,1,40,,
trial,html.Screen,6_17_0,2023-11-30T16:37:56.350Z,,,,1,-1.2071341803968807,-1.235960269089932,,,false,hh,7193.761999904644,response,0.9517665083259332,1.2,-1.2,1.2717175116510189,1.2,-1.2,high,high,,ISIC_0058174.JPG,,ISIC_2421696.JPG,,253,true,0.42000000000000026,hl,keypress(j),0,false,379586.59999990463,379586.59999990463,372376.03,372379.89999985695,372392.838,379609.455,1,40,18,
sequence,flow.Sequence,6_17,2023-11-30T16:37:56.351Z,,,,,,,,,,,7193.761999904644,completion,,,,,,,high,high,,,,,,,true,,,,,false,379586.7999999523,379586.59999990463,372376.03,372379.89999985695,372392.838,379609.455,1,40,,
trial,html.Screen,6_18_0,2023-11-30T16:38:02.334Z,,,,1,0.8487429103619056,-0.9778257804233036,,,true,lh,5960.8449999523,response,-1.0264463986917702,1.2,-1.2,1.2804054832904397,1.2,-1.2,low,high,,ISIC_4554863.JPG,,ISIC_7889838.JPG,,27,true,0.42000000000000026,lh,keypress(e),0,false,385570.39999985695,385570.2999999523,379575.942,379586.7999999523,379609.455,385576.078,1,40,19,
sequence,flow.Sequence,6_18,2023-11-30T16:38:02.334Z,,,,,,,,,,,5960.8449999523,completion,,,,,,,low,high,,,,,,,true,,,,,false,385570.5,385570.2999999523,379575.942,379586.7999999523,379609.455,385576.078,1,40,,
trial,html.Screen,6_19_0,2023-11-30T16:38:14.000Z,,,,1,1.3411179702686655,1.255103311449152,,,true,ll,11659.42200000002,response,-0.8836700994270283,1.2,-1.2,-1.476160726716384,1.2,-1.2,low,low,,ISIC_5611010.JPG,,ISIC_0069667.JPG,,245,true,0.3600000000000002,ll,keypress(f),0,false,397235.7999999523,397235.5,385559.267,385570.59999990463,385576.078,397259.476,1,40,20,
sequence,flow.Sequence,6_19,2023-11-30T16:38:14.000Z,,,,,,,,,,,11659.42200000002,completion,,,,,,,low,low,,,,,,,true,,,,,false,397236.09999990463,397235.5,385559.267,385570.5,385576.078,397259.476,1,40,,
trial,html.Screen,6_20_0,2023-11-30T16:38:23.479Z,,,,1,-1.0115965332688306,0.8282633603842442,,,true,hl,9455.323999952292,response,1.0751036484083878,1.2,-1.2,-1.143906455483852,1.2,-1.2,high,low,,ISIC_1069587.JPG,,ISIC_0064406.JPG,,26,true,0.3600000000000002,hl,keypress(j),0,false,406715,406714.7999999523,397225.82,397236.2999999523,397259.476,406726.134,1,40,21,
sequence,flow.Sequence,6_20,2023-11-30T16:38:23.479Z,,,,,,,,,,,9455.323999952292,completion,,,,,,,high,low,,,,,,,true,,,,,false,406715.19999980927,406714.7999999523,397225.82,397236.19999980927,397259.476,406726.134,1,40,,
trial,html.Screen,6_21_0,2023-11-30T16:38:29.063Z,,,,1,-0.7870237732709365,0.9172955251119376,,,true,hl,5573.265999856929,response,0.869932994914832,1.2,-1.2,-0.8880533324432531,1.2,-1.2,high,low,,ISIC_0057716.JPG,,ISIC_8617084.JPG,,33,true,0.42000000000000026,hl,keypress(j),0,false,412299.59999990463,412299.39999985695,406709.259,406715.2999999523,406726.134,412309.469,1,40,22,
sequence,flow.Sequence,6_21,2023-11-30T16:38:29.064Z,,,,,,,,,,,5573.265999856929,completion,,,,,,,high,low,,,,,,,true,,,,,false,412300,412299.39999985695,406709.259,406715.2999999523,406726.134,412309.469,1,40,,
trial,html.Screen,6_22_0,2023-11-30T16:38:34.223Z,,,,1,-1.255256820488545,-1.1206426433062562,,,true,hh,5149.031000000017,response,1.0987112847206,1.2,-1.2,0.8004269994538202,1.2,-1.2,high,high,,ISIC_0024652.JPG,,ISIC_0027804.JPG,,253,true,0.42000000000000026,hh,keypress(i),0,false,417458.59999990463,417458.5,412292.734,412300.09999990463,412309.469,417477.334,1,40,23,
sequence,flow.Sequence,6_22,2023-11-30T16:38:34.223Z,,,,,,,,,,,5149.031000000017,completion,,,,,,,high,high,,,,,,,true,,,,,false,417458.7999999523,417458.5,412292.734,412300.09999990463,412309.469,417477.334,1,40,,
trial,html.Screen,6_23_0,2023-11-30T16:38:39.456Z,,,,1,1.09666761087476,1.1072126870290426,,,true,ll,5213.865999809292,response,-1.1346217981791904,1.2,-1.2,-1.1555132168806113,1.2,-1.2,low,low,,ISIC_0071754.JPG,,ISIC_0032771.JPG,,30,true,0.1,ll,keypress(f),0,false,422691.39999985695,422691.19999980927,417442.759,417458.7999999523,417477.334,422710.662,1,40,24,
sequence,flow.Sequence,6_23,2023-11-30T16:38:39.456Z,,,,,,,,,,,5213.865999809292,completion,,,,,,,low,low,,,,,,,true,,,,,false,422691.69999980927,422691.19999980927,417442.759,417458.7999999523,417477.334,422710.662,1,40,,
trial,html.Screen,6_24_0,2023-11-30T16:38:43.167Z,,,,1,-1.247270138097585,-1.1704704713504994,,,true,hh,3692.037999809254,response,1.1642596483638106,1.2,-1.2,1.109799097093339,1.2,-1.2,high,high,,ISIC_0065774.JPG,,ISIC_0765584.JPG,,26,true,0.15000000000000002,hh,keypress(i),0,false,426402.89999985695,426402.69999980927,422676.037,422691.89999985695,422710.662,426409.512,1,40,25,
sequence,flow.Sequence,6_24,2023-11-30T16:38:43.168Z,,,,,,,,,,,3692.037999809254,completion,,,,,,,high,high,,,,,,,true,,,,,false,426403.2999999523,426402.69999980927,422676.037,422691.7999999523,422710.662,426409.512,1,40,,
trial,html.Screen,6_25_0,2023-11-30T16:38:46.032Z,,,,1,-1.272699544571422,-1.12917997553565,,,true,hh,2857.887999856961,response,1.2318069697449794,1.2,-1.2,1.1703576816778267,1.2,-1.2,high,high,,ISIC_0012057.JPG,,ISIC_2732573.JPG,,26,true,0.15000000000000002,hh,keypress(i),0,false,429267.69999980927,429267.39999985695,426392.888,426403.5,426409.512,429292.81,1,40,26,
sequence,flow.Sequence,6_25,2023-11-30T16:38:46.032Z,,,,,,,,,,,2857.887999856961,completion,,,,,,,high,high,,,,,,,true,,,,,false,429268.09999990463,429267.39999985695,426392.888,426403.39999985695,426409.512,429292.81,1,40,,
trial,html.Screen,6_26_0,2023-11-30T16:38:49.375Z,,,,1,0.858338058340649,-0.9540612223480284,,,true,lh,3317.3899998092675,response,-0.8092423703106274,1.2,-1.2,1.1870093485714288,1.2,-1.2,low,high,,ISIC_8922893.JPG,,ISIC_8592235.JPG,,27,true,0.42000000000000026,lh,keypress(e),0,false,432610.2999999523,432610.19999980927,429259.442,429268.39999985695,429292.81,432626.231,1,40,27,
sequence,flow.Sequence,6_26,2023-11-30T16:38:49.375Z,,,,,,,,,,,3317.3899998092675,completion,,,,,,,low,high,,,,,,,true,,,,,false,432610.5,432610.19999980927,429259.442,429268.2999999523,429292.81,432626.231,1,40,,
trial,html.Screen,6_27_0,2023-11-30T16:38:58.951Z,,,,1,1.1181734135756094,-0.944560381774994,,,true,lh,9560.568999952287,response,-0.796241477082623,1.2,-1.2,0.9017449335975743,1.2,-1.2,low,high,,ISIC_9688534.JPG,,ISIC_8588033.JPG,,27,true,0.42000000000000026,lh,keypress(e),0,false,442187,442186.7999999523,432609.469,432610.59999990463,432626.231,442192.861,1,40,28,
sequence,flow.Sequence,6_27,2023-11-30T16:38:58.952Z,,,,,,,,,,,9560.568999952287,completion,,,,,,,low,high,,,,,,,true,,,,,false,442187.2999999523,442186.7999999523,432609.469,432610.5,432626.231,442192.861,1,40,,
trial,html.Screen,6_28_0,2023-11-30T16:39:02.543Z,,,,1,1.0858641668099058,1.1638942560200525,,,true,ll,3585.438999952341,response,-1.1135119625680223,1.2,-1.2,-0.8824045702297937,1.2,-1.2,low,low,,ISIC_5439597.JPG,,ISIC_6899527.JPG,,245,true,0.3600000000000002,ll,keypress(f),0,false,445778.39999985695,445778.2999999523,442175.85,442187.39999985695,442192.861,445792.87,1,40,29,
sequence,flow.Sequence,6_28,2023-11-30T16:39:02.543Z,,,,,,,,,,,3585.438999952341,completion,,,,,,,low,low,,,,,,,true,,,,,false,445778.5,445778.2999999523,442175.85,442187.2999999523,442192.861,445792.87,1,40,,
trial,html.Screen,6_29_0,2023-11-30T16:39:09.503Z,,,,1,0.9696118525781644,-0.9244148283103414,,,false,lh,6945.429999952321,response,-0.8035152873995188,1.2,-1.2,0.82868450251632,1.2,-1.2,low,high,,ISIC_7927525.JPG,,ISIC_0010671.JPG,,27,true,0.42000000000000026,ll,keypress(f),0,false,452738.2999999523,452738.2999999523,445776.103,445778.59999990463,445792.87,452742.868,1,40,30,
sequence,flow.Sequence,6_29,2023-11-30T16:39:09.503Z,,,,,,,,,,,6945.429999952321,completion,,,,,,,low,high,,,,,,,true,,,,,false,452738.5,452738.2999999523,445776.103,445778.59999990463,445792.87,452742.868,1,40,,
trial,html.Screen,6_30_0,2023-11-30T16:39:14.975Z,,,,1,-0.7911024675435955,0.7975977016137676,,,true,hl,5468.131999999983,response,1.0865333402803938,1.2,-1.2,-1.0542635307358266,1.2,-1.2,high,low,,ISIC_5813642.JPG,,ISIC_0034006.JPG,,26,true,0.3600000000000002,hl,keypress(j),0,false,458211.19999980927,458211,452726.161,452738.59999990463,452742.868,458226.267,1,40,31,
sequence,flow.Sequence,6_30,2023-11-30T16:39:14.976Z,,,,,,,,,,,5468.131999999983,completion,,,,,,,high,low,,,,,,,true,,,,,false,458211.5,458211,452726.161,452738.5,452742.868,458226.267,1,40,,
trial,html.Screen,6_31_0,2023-11-30T16:39:19.327Z,,,,1,0.869932994914832,-0.8880533324432531,,,true,lh,4336.132999856956,response,-0.8947611078712571,1.2,-1.2,0.8960964505004638,1.2,-1.2,low,high,,ISIC_8617084.JPG,,ISIC_6441128.JPG,,27,true,0.42000000000000026,lh,keypress(e),0,false,462562.5,462562.39999985695,458209.461,458211.5,458226.267,462576.433,1,40,32,
sequence,flow.Sequence,6_31,2023-11-30T16:39:19.327Z,,,,,,,,,,,4336.132999856956,completion,,,,,,,low,high,,,,,,,true,,,,,false,462562.69999980927,462562.39999985695,458209.461,458211.5,458226.267,462576.433,1,40,,
trial,html.Screen,6_32_0,2023-11-30T16:39:26.991Z,,,,1,1.2503149164557643,1.0796591227570405,,,true,ll,7650.066999999981,response,-1.5510455696504208,1.2,-1.2,-1.238797695766814,1.2,-1.2,low,low,,ISIC_2466892.JPG,,ISIC_0010629.JPG,,245,true,0.3600000000000002,ll,keypress(f),0,false,470226.59999990463,470226.5,462559.64,462562.7999999523,462576.433,470242.89,1,40,33,
sequence,flow.Sequence,6_32,2023-11-30T16:39:26.991Z,,,,,,,,,,,7650.066999999981,completion,,,,,,,low,low,,,,,,,true,,,,,false,470226.69999980927,470226.5,462559.64,462562.7999999523,462576.433,470242.89,1,40,,
trial,html.Screen,6_33_0,2023-11-30T16:39:32.967Z,,,,1,-1.4092385398614515,1.3046237992197836,,,true,hl,5959.609999999986,response,1.2075172235545184,1.2,-1.2,-0.9116724966267612,1.2,-1.2,high,low,,ISIC_7254359.JPG,,ISIC_0024235.JPG,,26,true,0.3600000000000002,hl,keypress(j),0,false,476202.5,476202.5,470226.156,470226.7999999523,470242.89,476209.635,1,40,34,
sequence,flow.Sequence,6_33,2023-11-30T16:39:32.967Z,,,,,,,,,,,5959.609999999986,completion,,,,,,,high,low,,,,,,,true,,,,,false,476202.69999980927,476202.5,470226.156,470226.7999999523,470242.89,476209.635,1,40,,
trial,html.Screen,6_34_0,2023-11-30T16:39:38.903Z,,,,1,1.1137763092539212,1.1599906701455132,,,true,ll,5928.964999904623,response,-0.944747903577834,1.2,-1.2,-1.2864399389701904,1.2,-1.2,low,low,,ISIC_5413788.JPG,,ISIC_0010886.JPG,,339,true,0.42000000000000026,ll,keypress(f),0,false,482138.69999980927,482138.59999990463,476192.798,476202.69999980927,476209.635,482142.909,1,40,35,
sequence,flow.Sequence,6_34,2023-11-30T16:39:38.903Z,,,,,,,,,,,5928.964999904623,completion,,,,,,,low,low,,,,,,,true,,,,,false,482138.7999999523,482138.59999990463,476192.798,476202.69999980927,476209.635,482142.909,1,40,,
trial,html.Screen,6_35_0,2023-11-30T16:39:43.848Z,,,,1,-1.2915523362516486,-1.1264977790562936,,,true,hh,4940.1909999046475,response,1.2503149164557643,1.2,-1.2,1.0796591227570405,1.2,-1.2,high,high,,ISIC_0502582.JPG,,ISIC_2466892.JPG,,26,true,0.15000000000000002,hh,keypress(i),0,false,487083.2999999523,487083.09999990463,482126.261,482138.89999985695,482142.909,487109.617,1,40,36,
sequence,flow.Sequence,6_35,2023-11-30T16:39:43.848Z,,,,,,,,,,,4940.1909999046475,completion,,,,,,,high,high,,,,,,,true,,,,,false,487083.59999990463,487083.09999990463,482126.261,482138.89999985695,482142.909,487109.617,1,40,,
trial,html.Screen,6_36_0,2023-11-30T16:39:52.367Z,,,,1,0.858338058340649,-0.9540612223480284,,,true,lh,8493.082999809238,response,-0.948927472020595,1.2,-1.2,1.0660437155921598,1.2,-1.2,low,high,,ISIC_8922893.JPG,,ISIC_5808758.JPG,,27,true,0.42000000000000026,lh,keypress(e),0,false,495602.69999980927,495602.69999980927,487076.3,487083.7999999523,487109.617,495609.595,1,40,37,
sequence,flow.Sequence,6_36,2023-11-30T16:39:52.367Z,,,,,,,,,,,8493.082999809238,completion,,,,,,,low,high,,,,,,,true,,,,,false,495602.89999985695,495602.69999980927,487076.3,487083.69999980927,487109.617,495609.595,1,40,,
trial,html.Screen,6_37_0,2023-11-30T16:39:56.336Z,,,,1,0.9454713230140772,-0.9245167441969216,,,true,lh,3961.804999856977,response,-0.8947611078712571,1.2,-1.2,0.8960964505004638,1.2,-1.2,low,high,,ISIC_9101055.JPG,,ISIC_6441128.JPG,,27,true,0.42000000000000026,lh,keypress(e),0,false,499571.59999990463,499571.39999985695,495592.62,495603,495609.595,499576.256,1,40,38,
sequence,flow.Sequence,6_37,2023-11-30T16:39:56.336Z,,,,,,,,,,,3961.804999856977,completion,,,,,,,low,high,,,,,,,true,,,,,false,499571.89999985695,499571.39999985695,495592.62,495603,495609.595,499576.256,1,40,,
trial,html.Screen,6_38_0,2023-11-30T16:40:00.639Z,,,,1,-1.1474466950560966,-1.268445326285509,,,true,hh,4298.244000000006,response,0.936668460603038,1.2,-1.2,1.058142123525081,1.2,-1.2,high,high,,ISIC_5216586.JPG,,ISIC_5046340.JPG,,179,true,0.3600000000000002,hh,keypress(i),0,false,503874.59999990463,503874.5,499559.634,499572,499576.256,503892.943,1,40,39,
sequence,flow.Sequence,6_38,2023-11-30T16:40:00.639Z,,,,,,,,,,,4298.244000000006,completion,,,,,,,high,high,,,,,,,true,,,,,false,503874.7999999523,503874.5,499559.634,499572,499576.256,503892.943,1,40,,
trial,html.Screen,6_39_0,2023-11-30T16:40:09.064Z,,,,1,-0.796241477082623,0.9017449335975743,,,true,hl,8406.356999952288,response,1.2331439637486756,1.2,-1.2,-0.9691143900156988,1.2,-1.2,high,low,,ISIC_8588033.JPG,,ISIC_7877488.JPG,,26,true,0.3600000000000002,hl,keypress(j),0,false,512299.5,512299.2999999523,503859.462,503874.89999985695,503892.943,512309.676,1,40,40,
sequence,flow.Sequence,6_39,2023-11-30T16:40:09.064Z,,,,,,,,,,,8406.356999952288,completion,,,,,,,high,low,,,,,,,true,,,,,false,512299.7999999523,512299.2999999523,503859.462,503874.89999985695,503892.943,512309.676,1,40,,
practice_loop,flow.Loop,6,2023-11-30T16:40:09.065Z,,,,,,,,,,,277156.7129999523,completion,,,,,,,,,,,,,,,true,,,,,false,512300,512299.2999999523,235109.469,235130.59999990463,235142.587,512309.676,1,40,,
stair_instructions,html.Screen,7,2023-11-30T16:40:12.215Z,,,,,,,,,,,3140.223999856971,response,,,,,,,,,,,,,,,,,continue,click button,,,515450.5,515449.89999985695,512292.749,512300,512309.676,515459.654,,,,
trial,html.Screen,8_0_0,2023-11-30T16:40:19.033Z,,,,2,-0.0085520978188085,0.0464691161264081,,0.05,true,hh,6808.34600000002,response,0.9031332540970408,1.2,-1.2,0.853200189915778,1.2,-1.2,high,high,,ISIC_0758797.JPG,,ISIC_4679971.JPG,33,253,false,0.42000000000000026,hh,keypress(i),0,true,522268.19999980927,522268,515442.941,515450.59999990463,515459.654,522292.93,1,40,1,
sequence,flow.Sequence,8_0,2023-11-30T16:40:19.033Z,,,,,,,,,,,6808.34600000002,completion,,,,,,,high,high,,,,,,,false,,,,,true,522268.59999990463,522268,515442.941,515450.59999990463,515459.654,522292.93,1,40,,
trial,html.Screen,8_1_0,2023-11-30T16:40:25.800Z,,,,2,-0.0363437082783146,-0.0333332186217051,,0.05,false,lh,6742.66999990464,response,-0.8623414234919863,1.15,-1.15,0.782830143980698,1.15,-1.15,low,high,,ISIC_3314555.JPG,,ISIC_2727016.JPG,33,27,false,0.3700000000000002,ll,keypress(f),0,true,529035.7999999523,529035.5999999046,522276.358,522268.7999999523,522292.93,529043.037,1,40,2,
sequence,flow.Sequence,8_1,2023-11-30T16:40:25.801Z,,,,,,,,,,,6742.66999990464,completion,,,,,,,low,high,,,,,,,false,,,,,true,529036.2999999523,529035.5999999046,522276.358,522268.69999980927,522292.93,529043.037,1,40,,
trial,html.Screen,8_2_0,2023-11-30T16:40:35.159Z,,,,2,-0.0069555338059566,0.0310100918136373,,0.05,false,hl,9351.262999952305,response,1.2364994561934892,1.15,-1.15,-0.9174173651516624,1.15,-1.15,high,low,,ISIC_0011177.JPG,,ISIC_3481133.JPG,33,25,false,0.31000000000000016,hh,keypress(i),0,true,538394.399999857,538394.2999999523,529026.165,529036.399999857,529043.037,538409.72,1,40,3,
sequence,flow.Sequence,8_2,2023-11-30T16:40:35.159Z,,,,,,,,,,,9351.262999952305,completion,,,,,,,high,low,,,,,,,false,,,,,true,538394.5,538394.2999999523,529026.165,529036.2999999523,529043.037,538409.72,1,40,,
trial,html.Screen,8_3_0,2023-11-30T16:40:40.055Z,,,,2,-0.0217698886732706,0.0410870915161425,,0.05,false,ll,4880.8799999046605,response,-1.1877026569952844,1.0999999999999999,-1.15,-1.1604367569896263,1.15,-1.15,low,low,,ISIC_0072173.JPG,,ISIC_0064589.JPG,33,27,false,0.1,lh,keypress(e),0,true,543290.6999998093,543290.5999999046,538392.703,538394.5,538409.72,543292.967,1,40,4,
sequence,flow.Sequence,8_3,2023-11-30T16:40:40.056Z,,,,,,,,,,,4880.8799999046605,completion,,,,,,,low,low,,,,,,,false,,,,,true,543290.7999999523,543290.5999999046,538392.703,538394.5,538409.72,543292.967,1,40,,
trial,html.Screen,8_4_0,2023-11-30T16:40:46.048Z,,,,2,0.000047919190197942736,0.0462652940855003,,0.05,false,hh,5990.33299995237,response,1.0097932576366906,1.0999999999999999,-0.9750220402436354,1.0644834610939486,1.15,-1.15,high,high,,ISIC_0011507.JPG,,ISIC_8559515.JPG,33,30,false,0.13,hl,keypress(j),0,true,549283.399999857,549283.2999999523,543276.299,543290.899999857,543292.967,549293.012,1,40,5,
sequence,flow.Sequence,8_4,2023-11-30T16:40:46.049Z,,,,,,,,,,,5990.33299995237,completion,,,,,,,high,high,,,,,,,false,,,,,true,549283.899999857,549283.2999999523,543276.299,543290.899999857,543292.967,549293.012,1,40,,
trial,html.Screen,8_5_0,2023-11-30T16:40:57.008Z,,,,2,0.0051189696037511,-0.0396625911332438,,0.05,true,hl,10950.287999952328,response,0.8809306963311293,1.0999999999999999,-0.9750220402436354,-0.8614910030038974,1.15,-1.15,high,low,,ISIC_9742891.JPG,,ISIC_0013731.JPG,33,26,false,0.30000000000000016,hl,keypress(j),0,true,560243.399999857,560243.2999999523,549276.21,549284,549293.012,560259.698,1,40,6,
sequence,flow.Sequence,8_5,2023-11-30T16:40:57.008Z,,,,,,,,,,,10950.287999952328,completion,,,,,,,high,low,,,,,,,false,,,,,true,560243.5999999046,560243.2999999523,549276.21,549284,549293.012,560259.698,1,40,,
trial,html.Screen,8_6_0,2023-11-30T16:41:01.360Z,,,,2,0.0277178575053843,-0.0395587463147856,,0.05,false,lh,4335.201999856974,response,-0.658450997652008,1.0499999999999998,-0.9750220402436354,0.8660404645096786,1.15,-1.15,low,high,,ISIC_0010807.JPG,,ISIC_6515546.JPG,33,27,false,0.3200000000000002,ll,keypress(f),0,true,564595.0999999046,564594.899999857,560242.827,560243.7999999523,560259.698,564609.705,1,40,7,
sequence,flow.Sequence,8_6,2023-11-30T16:41:01.360Z,,,,,,,,,,,4335.201999856974,completion,,,,,,,low,high,,,,,,,false,,,,,true,564595.399999857,564594.899999857,560242.827,560243.6999998093,560259.698,564609.705,1,40,,
trial,html.Screen,8_7_0,2023-11-30T16:41:17.359Z,,,,2,0.0245376145053177,-0.0436993426328401,,0.05,,,16016.66399999999,timeout,1.037577073517966,1.0499999999999998,-0.9750220402436354,1.027048110709042,1.15,-1.15,high,high,,ISIC_0056444.JPG,,ISIC_0004932.JPG,33,29,false,0.13,,,0,true,580593.7999999523,580593.5999999046,564592.915,564595.5999999046,564609.705,580626.369,1,40,8,
sequence,flow.Sequence,8_7,2023-11-30T16:41:17.359Z,,,,,,,,,,,15983.894999904674,completion,,,,,,,high,high,,,,,,,false,,,,,true,580594.0999999046,580593.5999999046,564592.915,564595.5,564609.705,580626.369,1,40,,
trial,html.Screen,8_8_0,2023-11-30T16:41:24.744Z,,,,2,0.0102460616775615,-0.0309670599545429,,0.05,false,lh,7352.430999952368,response,-0.661371304428672,1.0499999999999998,-0.9750220402436354,1.0907423478129648,1.15,-1.15,low,high,,ISIC_0072041.JPG,,ISIC_6860222.JPG,33,27,false,0.3200000000000002,ll,keypress(f),0,true,587978.899999857,587978.7999999523,580609.693,580594.1999998093,580626.369,587993.055,1,40,9,
sequence,flow.Sequence,8_8,2023-11-30T16:41:24.744Z,,,,,,,,,,,7352.430999952368,completion,,,,,,,low,high,,,,,,,false,,,,,true,587979.0999999046,587978.7999999523,580609.693,580594.1999998093,580626.369,587993.055,1,40,,
trial,html.Screen,8_9_0,2023-11-30T16:41:29.768Z,,,,2,-0.0217698886732706,0.0410870915161425,,0.05,false,hl,5009.644999809214,response,1.0026266089287914,1.0499999999999998,-0.6099111510403399,-1.0913275913920335,1.15,-1.15,high,low,,ISIC_0072173.JPG,,ISIC_0033520.JPG,33,25,false,0.28000000000000014,lh,keypress(e),0,true,593002.7999999523,593002.6999998093,587976.134,587979.1999998093,587993.055,593009.72,1,40,10,
sequence,flow.Sequence,8_9,2023-11-30T16:41:29.768Z,,,,,,,,,,,5009.644999809214,completion,,,,,,,high,low,,,,,,,false,,,,,true,593003,593002.6999998093,587976.134,587979.0999999046,587993.055,593009.72,1,40,,
trial,html.Screen,8_10_0,2023-11-30T16:41:33.722Z,,,,2,-0.0107854985447517,-0.0478010417136109,,0.05,false,lh,3946.280000000028,response,-0.4612183221398708,1.0999999999999999,-0.6099111510403399,1.0832206454258544,1.15,-1.15,low,high,,ISIC_0010500.JPG,,ISIC_0010441.JPG,33,25,false,0.16000000000000003,hl,keypress(j),0,true,596956.399999857,596956,592992.882,593003,593009.72,596959.796,1,40,11,
sequence,flow.Sequence,8_10,2023-11-30T16:41:33.722Z,,,,,,,,,,,3946.280000000028,completion,,,,,,,low,high,,,,,,,false,,,,,true,596957.1999998093,596956,592992.882,593003,593009.72,596959.796,1,40,,
trial,html.Screen,8_11_0,2023-11-30T16:41:43.849Z,,,,2,-0.0389988030702649,-0.0143212271490256,,0.05,false,lh,10123.503999952343,response,-0.4842610483609925,1.0999999999999999,-0.6599111510403399,1.0867066105336751,1.15,-1.15,low,high,,ISIC_0064669.JPG,,ISIC_0072294.JPG,33,25,false,0.19000000000000006,ll,keypress(f),0,true,607083.5,607083.2999999523,596943.202,596957.5999999046,596959.796,607093.111,1,40,12,
sequence,flow.Sequence,8_11,2023-11-30T16:41:43.849Z,,,,,,,,,,,10123.503999952343,completion,,,,,,,low,high,,,,,,,false,,,,,true,607083.7999999523,607083.2999999523,596943.202,596957.5,596959.796,607093.111,1,40,,
trial,html.Screen,8_12_0,2023-11-30T16:41:51.168Z,,,,2,-0.0116094682222121,0.0258434522530318,,0.05,false,ll,7309.588999809232,response,-0.5729106068469645,1.0999999999999999,-0.6599111510403399,-1.100324093562825,1.15,-1.15,low,low,,ISIC_9239632.JPG,,ISIC_0033856.JPG,33,37,false,0.1,lh,keypress(e),0,true,614402.7999999523,614402.6999998093,607076.033,607083.899999857,607093.111,614409.754,1,40,13,
sequence,flow.Sequence,8_12,2023-11-30T16:41:51.168Z,,,,,,,,,,,7309.588999809232,completion,,,,,,,low,low,,,,,,,false,,,,,true,614403,614402.6999998093,607076.033,607083.899999857,607093.111,614409.754,1,40,,
trial,html.Screen,8_13_0,2023-11-30T16:41:55.952Z,,,,2,-0.0027483411352856,-0.0100996915276271,,0.05,false,ll,4777.145999856992,response,-0.4727456988465848,1.0999999999999999,-0.47858582760397855,-1.060832142993874,1.15,-1.15,low,low,,ISIC_7364041.JPG,,ISIC_0054248.JPG,33,46,false,0.1,lh,keypress(e),0,true,619187,619186.899999857,614392.898,614403.0999999046,614409.754,619193.117,1,40,14,
sequence,flow.Sequence,8_13,2023-11-30T16:41:55.952Z,,,,,,,,,,,4777.145999856992,completion,,,,,,,low,low,,,,,,,false,,,,,true,619187.1999998093,619186.899999857,614392.898,614403.0999999046,614409.754,619193.117,1,40,,
trial,html.Screen,8_14_0,2023-11-30T16:42:02.248Z,,,,2,-0.0217698886732706,0.0410870915161425,,0.05,false,ll,6289.383000000031,response,-0.4753453504387526,1.0999999999999999,-0.47858582760397855,-1.0997980892453385,1.15,-1.15,low,low,,ISIC_0072173.JPG,,ISIC_0055022.JPG,33,46,false,0.1,lh,keypress(e),0,true,625482.5999999046,625482.5,619176.352,619187.2999999523,619193.117,625493.073,1,40,15,
sequence,flow.Sequence,8_14,2023-11-30T16:42:02.248Z,,,,,,,,,,,6289.383000000031,completion,,,,,,,low,low,,,,,,,false,,,,,true,625482.899999857,625482.5,619176.352,619187.2999999523,619193.117,625493.073,1,40,,
trial,html.Screen,8_15_0,2023-11-30T16:42:08.416Z,,,,2,0.0277178575053843,-0.0395587463147856,,0.05,false,lh,6157.226999952341,response,-0.5450438506040646,1.0999999999999999,-0.47858582760397855,1.1072497324901152,1.15,-1.15,low,high,,ISIC_0010807.JPG,,ISIC_2690597.JPG,33,25,false,0.13,hl,keypress(j),0,true,631650.399999857,631650.2999999523,625476.274,625483,625493.073,631659.832,1,40,16,
sequence,flow.Sequence,8_15,2023-11-30T16:42:08.416Z,,,,,,,,,,,6157.226999952341,completion,,,,,,,low,high,,,,,,,false,,,,,true,631650.5999999046,631650.2999999523,625476.274,625482.899999857,625493.073,631659.832,1,40,,
trial,html.Screen,8_16_0,2023-11-30T16:42:12.680Z,,,,2,-0.0027483411352856,-0.0100996915276271,,0.05,true,hh,4255.367999809212,response,1.1137763092539212,1.0999999999999999,-0.5285858276039785,1.1599906701455132,1.15,-1.15,high,high,,ISIC_7364041.JPG,,ISIC_5413788.JPG,33,30,false,0.13,hh,keypress(i),0,true,635915.399999857,635915.1999998093,631642.891,631650.6999998093,631659.832,635926.447,1,40,17,
sequence,flow.Sequence,8_16,2023-11-30T16:42:12.681Z,,,,,,,,,,,4255.367999809212,completion,,,,,,,high,high,,,,,,,false,,,,,true,635915.7999999523,635915.1999998093,631642.891,631650.5999999046,631659.832,635926.447,1,40,,
trial,html.Screen,8_17_0,2023-11-30T16:42:20.408Z,,,,2,0.0348234368746005,-0.0236866303880924,,0.05,false,ll,7716.3529999522725,response,-0.543334460822708,1.0999999999999999,-0.5285858276039785,-1.1799873952039066,1.15,-1.15,low,low,,ISIC_0011099.JPG,,ISIC_0000301.JPG,33,37,false,0.1,hh,keypress(i),0,true,643643,643642.7999999523,635909.777,635915.899999857,635926.447,643659.862,1,40,18,
sequence,flow.Sequence,8_17,2023-11-30T16:42:20.408Z,,,,,,,,,,,7716.3529999522725,completion,,,,,,,low,low,,,,,,,false,,,,,true,643643.1999998093,643642.7999999523,635909.777,635915.7999999523,635926.447,643659.862,1,40,,
trial,html.Screen,8_18_0,2023-11-30T16:42:25.624Z,,,,2,0.0245376145053177,-0.0436993426328401,,0.05,false,hl,5198.638000000035,response,1.2331439637486756,1.0999999999999999,-0.5785858276039786,-0.9691143900156988,1.15,-1.15,high,low,,ISIC_0056444.JPG,,ISIC_7877488.JPG,33,26,false,0.30000000000000016,hh,keypress(i),0,true,648858.5999999046,648858.5,643642.833,643643.399999857,643659.862,648877.155,1,40,19,
sequence,flow.Sequence,8_18,2023-11-30T16:42:25.624Z,,,,,,,,,,,5198.638000000035,completion,,,,,,,high,low,,,,,,,false,,,,,true,648858.7999999523,648858.5,643642.833,643643.2999999523,643659.862,648877.155,1,40,,
trial,html.Screen,8_19_0,2023-11-30T16:42:29.639Z,,,,2,0.0188047466661863,-0.0288346930436979,,0.05,false,lh,3997.044999809237,response,-0.6864497754928831,1.1465673169470942,-0.5785858276039786,1.0456580051873738,1.15,-1.15,low,high,,ISIC_0014157.JPG,,ISIC_0055388.JPG,33,27,false,0.16000000000000003,hh,keypress(i),0,true,652874.2999999523,652874.1999998093,648842.976,648858.899999857,648877.155,652876.474,1,40,20,
sequence,flow.Sequence,8_19,2023-11-30T16:42:29.639Z,,,,,,,,,,,3997.044999809237,completion,,,,,,,low,high,,,,,,,false,,,,,true,652874.399999857,652874.1999998093,648842.976,648858.899999857,648877.155,652876.474,1,40,,
trial,html.Screen,8_20_0,2023-11-30T16:42:36.906Z,,,,2,-0.0450282431170921,0,,0.05,false,hh,7263.525999999954,response,1.241406480986552,1.1465673169470942,-0.6285858276039786,1.081912821786771,1.0528243376664435,-1.15,high,high,,ISIC_1805163.JPG,,ISIC_4223155.JPG,33,28,false,0.11,lh,keypress(e),0,true,660140.1999998093,660140,652859.78,652874.5,652876.474,660143.206,1,40,21,
sequence,flow.Sequence,8_20,2023-11-30T16:42:36.906Z,,,,,,,,,,,7263.525999999954,completion,,,,,,,high,high,,,,,,,false,,,,,true,660140.5999999046,660140,652859.78,652874.399999857,652876.474,660143.206,1,40,,
trial,html.Screen,8_21_0,2023-11-30T16:42:47.993Z,,,,2,-0.0456515796420274,0.0273567130070961,,0.05,true,hl,11084.49399980926,response,1.0656673213158945,1.1965673169470943,-0.6285858276039786,-0.8082541692781954,1.0528243376664435,-1.15,high,low,,ISIC_0068610.JPG,,ISIC_0033985.JPG,33,29,false,0.3500000000000002,hl,keypress(j),0,true,671227.899999857,671227.6999998093,660126.469,660140.7999999523,660143.206,671243.361,1,40,22,
sequence,flow.Sequence,8_21,2023-11-30T16:42:47.994Z,,,,,,,,,,,11084.49399980926,completion,,,,,,,high,low,,,,,,,false,,,,,true,671228.1999998093,671227.6999998093,660126.469,660140.7999999523,660143.206,671243.361,1,40,,
trial,html.Screen,8_22_0,2023-11-30T16:42:51.945Z,,,,2,0.0051189696037511,-0.0396625911332438,,0.05,false,ll,3935.9389999522828,response,-0.570285182729728,1.1965673169470943,-0.6285858276039786,-1.1358834978198895,1.0528243376664435,-1.15,low,low,,ISIC_9742891.JPG,,ISIC_0033068.JPG,33,37,false,0.1,lh,keypress(e),0,true,675179.5,675179.2999999523,671226.18,671228.399999857,671243.361,675193.187,1,40,23,
sequence,flow.Sequence,8_22,2023-11-30T16:42:51.945Z,,,,,,,,,,,3935.9389999522828,completion,,,,,,,low,low,,,,,,,false,,,,,true,675179.7999999523,675179.2999999523,671226.18,671228.399999857,671243.361,675193.187,1,40,,
trial,html.Screen,8_23_0,2023-11-30T16:42:56.608Z,,,,2,0.0113873532168551,0.0054999201556291,,0.05,false,hl,4649.3129999999655,response,0.991282840649944,1.1965673169470943,-0.6285858276039786,-0.9397921099839784,1.0528243376664435,-1.15,high,low,,ISIC_8812621.JPG,,ISIC_0000463.JPG,33,29,false,0.3500000000000002,hh,keypress(i),0,true,679842.5,679842.5,675176.558,675179.899999857,675193.187,679860.418,1,40,24,
sequence,flow.Sequence,8_23,2023-11-30T16:42:56.608Z,,,,,,,,,,,4649.3129999999655,completion,,,,,,,high,low,,,,,,,false,,,,,true,679842.6999998093,679842.5,675176.558,675179.899999857,675193.187,679860.418,1,40,,
trial,html.Screen,8_24_0,2023-11-30T16:43:05.840Z,,,,2,0.0159061451859594,0.0296598845560212,,0.05,false,lh,9213.981999857002,response,-0.5208163483939755,1.1465673169470942,-0.6285858276039786,1.1047904380696325,1.0528243376664435,-1.15,low,high,,ISIC_0072564.JPG,,ISIC_2039579.JPG,33,29,false,0.16000000000000003,ll,keypress(f),0,true,689074.5,689074.399999857,679826.419,679842.7999999523,679860.418,689076.519,1,40,25,
sequence,flow.Sequence,8_24,2023-11-30T16:43:05.840Z,,,,,,,,,,,9213.981999857002,completion,,,,,,,low,high,,,,,,,false,,,,,true,689074.6999998093,689074.399999857,679826.419,679842.7999999523,679860.418,689076.519,1,40,,
trial,html.Screen,8_25_0,2023-11-30T16:43:18.584Z,,,,2,-0.0070725527271049,-0.0049995141077508,,0.05,false,ll,12742.180999809294,response,-0.4423252267297653,1.1465673169470942,-0.4955507655618517,-1.1649913057742112,1.1028243376664435,-1.15,low,low,,ISIC_6124481.JPG,,ISIC_0032244.JPG,33,44,false,0.1,lh,keypress(e),0,true,701818.899999857,701818.6999998093,689059.51,689074.6999998093,689076.519,701826.557,1,40,26,
sequence,flow.Sequence,8_25,2023-11-30T16:43:18.585Z,,,,,,,,,,,12742.180999809294,completion,,,,,,,low,low,,,,,,,false,,,,,true,701819.0999999046,701818.6999998093,689059.51,689074.6999998093,689076.519,701826.557,1,40,,
trial,html.Screen,8_26_0,2023-11-30T16:43:29.801Z,,,,2,-0.007397293189458,-0.0174716772037504,,0.05,false,hh,11208.44299999997,response,1.057008495826831,1.1465673169470942,-0.4955507655618517,1.1278122585028287,1.1028243376664435,-1.15,high,high,,ISIC_0056226.JPG,,ISIC_2819798.JPG,33,30,false,0.11,hl,keypress(j),0,true,713035.0999999046,713035,701809.493,701819.1999998093,701826.557,713043.226,1,40,27,
sequence,flow.Sequence,8_26,2023-11-30T16:43:29.801Z,,,,,,,,,,,11208.44299999997,completion,,,,,,,high,high,,,,,,,false,,,,,true,713035.399999857,713035,701809.493,701819.0999999046,701826.557,713043.226,1,40,,
trial,html.Screen,8_27_0,2023-11-30T16:43:32.824Z,,,,2,-0.0329095507339554,0.0382899749693245,,0.05,true,hh,3015.073999952292,response,1.2711018615747949,1.1465673169470942,-0.4955507655618517,1.1042234044781618,1.1528243376664435,-1.15,high,high,,ISIC_8812781.JPG,,ISIC_8603734.JPG,33,27,false,0.13,hh,keypress(i),0,true,716058.399999857,716058.2999999523,713026.229,713035.399999857,713043.226,716077.408,1,40,28,
sequence,flow.Sequence,8_27,2023-11-30T16:43:32.824Z,,,,,,,,,,,3015.073999952292,completion,,,,,,,high,high,,,,,,,false,,,,,true,716058.5999999046,716058.2999999523,713026.229,713035.399999857,713043.226,716077.408,1,40,,
trial,html.Screen,8_28_0,2023-11-30T16:43:38.920Z,,,,2,0.0277178575053843,-0.0395587463147856,,0.05,true,ll,6077.191999904579,response,-0.4306240839410669,1.1376626330264783,-0.4955507655618517,-1.1078259498922374,1.1528243376664435,-1.15,low,low,,ISIC_0010807.JPG,,ISIC_0071069.JPG,33,44,false,0.1,ll,keypress(f),0,true,722154.5999999046,722154.5999999046,716043.103,716058.5999999046,716077.408,722159.907,1,40,29,
sequence,flow.Sequence,8_28,2023-11-30T16:43:38.921Z,,,,,,,,,,,6077.191999904579,completion,,,,,,,low,low,,,,,,,false,,,,,true,722154.7999999523,722154.5999999046,716043.103,716058.5999999046,716077.408,722159.907,1,40,,
trial,html.Screen,8_29_0,2023-11-30T16:43:41.578Z,,,,2,-0.039728379742806,0.0228701131373768,,0.05,true,hh,2651.7929998092586,response,1.1137763092539212,1.1376626330264783,-0.7192250169166521,1.1599906701455132,1.1528243376664435,-1.15,high,high,,ISIC_0054073.JPG,,ISIC_5413788.JPG,33,25,false,0.13,hh,keypress(i),0,true,724812,724811.6999998093,722143.261,722154.899999857,722159.907,724826.744,1,40,30,
sequence,flow.Sequence,8_29,2023-11-30T16:43:41.578Z,,,,,,,,,,,2651.7929998092586,completion,,,,,,,high,high,,,,,,,false,,,,,true,724812.5,724811.6999998093,722143.261,722154.899999857,722159.907,724826.744,1,40,,
trial,html.Screen,8_30_0,2023-11-30T16:43:46.008Z,,,,2,-0.0027483411352856,-0.0100996915276271,,0.05,false,ll,4415.756000000052,response,-0.7846840640804751,1.1376626330264783,-0.7192250169166521,-1.0912590313299513,1.0868834896997173,-1.15,low,low,,ISIC_7364041.JPG,,ISIC_0026352.JPG,33,36,false,0.1,hh,keypress(i),0,true,729242.5999999046,729242.5,724809.925,724812.7999999523,724826.744,729259.9,1,40,31,
sequence,flow.Sequence,8_30,2023-11-30T16:43:46.009Z,,,,,,,,,,,4415.756000000052,completion,,,,,,,low,low,,,,,,,false,,,,,true,729242.7999999523,729242.5,724809.925,724812.7999999523,724826.744,729259.9,1,40,,
trial,html.Screen,8_31_0,2023-11-30T16:43:53.080Z,,,,2,-0.0107854985447517,-0.0478010417136109,,0.05,false,hl,7054.599999999977,response,0.858338058340649,1.1376626330264783,-0.7692250169166521,-0.9540612223480284,1.0868834896997173,-1.15,high,low,,ISIC_0010500.JPG,,ISIC_8922893.JPG,33,25,false,0.30000000000000016,hh,keypress(i),0,true,736314.6999998093,736314.5,729226.654,729242.7999999523,729259.9,736326.55,1,40,32,
sequence,flow.Sequence,8_31,2023-11-30T16:43:53.081Z,,,,,,,,,,,7054.599999999977,completion,,,,,,,high,low,,,,,,,false,,,,,true,736314.7999999523,736314.5,729226.654,729242.7999999523,729259.9,736326.55,1,40,,
trial,html.Screen,8_32_0,2023-11-30T16:43:56.408Z,,,,2,-0.0085520978188085,0.0464691161264081,,0.05,false,hl,3315.8499998569023,response,0.7784583866003763,0.9360571837972851,-0.7692250169166521,-0.9641514808986528,1.0868834896997173,-1.15,high,low,,ISIC_0758797.JPG,,ISIC_0011924.JPG,33,27,false,0.2300000000000001,hh,keypress(i),0,true,739642.5,739642.399999857,736309.715,736314.899999857,736326.55,739660.518,1,40,33,
sequence,flow.Sequence,8_32,2023-11-30T16:43:56.408Z,,,,,,,,,,,3315.8499998569023,completion,,,,,,,high,low,,,,,,,false,,,,,true,739642.6999998093,739642.399999857,736309.715,736314.899999857,736326.55,739660.518,1,40,,
trial,html.Screen,8_33_0,2023-11-30T16:44:00.417Z,,,,2,0.0409338693593207,-0.0072462710499874,,0.05,false,lh,3990.0819999045925,response,-0.5702575800718795,0.9360571837972851,-0.7692250169166521,1.2206345072567373,1.0868834896997173,-1.15,low,high,,ISIC_3608788.JPG,,ISIC_0032875.JPG,33,28,false,0.20000000000000007,hh,keypress(i),0,true,743650.7999999523,743650.5999999046,739626.51,739642.6999998093,739660.518,743659.911,1,40,34,
sequence,flow.Sequence,8_33,2023-11-30T16:44:00.417Z,,,,,,,,,,,3990.0819999045925,completion,,,,,,,low,high,,,,,,,false,,,,,true,743650.899999857,743650.5999999046,739626.51,739642.6999998093,739660.518,743659.911,1,40,,
trial,html.Screen,8_34_0,2023-11-30T16:44:07.481Z,,,,2,-0.0070725527271049,-0.0049995141077508,,0.05,true,hl,7055.589000000036,response,0.7083588209645494,0.9360571837972851,-0.8192250169166522,-1.1496804492673935,1.0868834896997173,-1.15,high,low,,ISIC_6124481.JPG,,ISIC_0047004.JPG,33,27,false,0.2300000000000001,hl,keypress(j),0,true,750715.6999998093,750715.5,743643.2,743651.0999999046,743659.911,750726.556,1,40,35,
sequence,flow.Sequence,8_34,2023-11-30T16:44:07.482Z,,,,,,,,,,,7055.589000000036,completion,,,,,,,high,low,,,,,,,false,,,,,true,750715.7999999523,750715.5,743643.2,743651,743659.911,750726.556,1,40,,
trial,html.Screen,8_35_0,2023-11-30T16:44:15.377Z,,,,2,0.000047919190197942736,0.0462652940855003,,0.05,false,hl,7884.444000000018,response,0.9579209317488,0.886057183797285,-0.8192250169166522,-1.0147487101263497,1.0868834896997173,-1.15,high,low,,ISIC_0011507.JPG,,ISIC_8124482.JPG,33,28,false,0.21000000000000008,ll,keypress(f),0,true,758611.1999998093,758611,750709.759,750715.899999857,750726.556,758626.643,1,40,36,
sequence,flow.Sequence,8_35,2023-11-30T16:44:15.377Z,,,,,,,,,,,7884.444000000018,completion,,,,,,,high,low,,,,,,,false,,,,,true,758611.5,758611,750709.759,750715.899999857,750726.556,758626.643,1,40,,
trial,html.Screen,8_36_0,2023-11-30T16:44:23.656Z,,,,2,-0.0324770283903853,-0.0249968632204382,,0.05,false,ll,8264.056999809225,response,-0.732465136047461,0.9360571837972851,-0.8192250169166522,-1.075325928880211,1.0868834896997173,-1.0322145796968716,low,low,,ISIC_7266462.JPG,,ISIC_0062301.JPG,33,51,false,0.1,hh,keypress(i),0,true,766890.7999999523,766890.6999998093,758609.82,758611.6999998093,758626.643,766893.256,1,40,37,
sequence,flow.Sequence,8_36,2023-11-30T16:44:23.657Z,,,,,,,,,,,8264.056999809225,completion,,,,,,,low,low,,,,,,,false,,,,,true,766890.899999857,766890.6999998093,758609.82,758611.6999998093,758626.643,766893.256,1,40,,
trial,html.Screen,8_37_0,2023-11-30T16:44:30.625Z,,,,2,-0.0389988030702649,-0.0143212271490256,,0.05,false,hh,6966.143999856897,response,0.9029354290897352,0.9360571837972851,-0.8692250169166522,1.1346860677105404,1.0868834896997173,-1.0822145796968716,high,high,,ISIC_0064669.JPG,,ISIC_4153687.JPG,33,31,false,0.1,hl,keypress(j),0,true,773859.5999999046,773859.399999857,766876.334,766891,766893.256,773876.638,1,40,38,
sequence,flow.Sequence,8_37,2023-11-30T16:44:30.626Z,,,,,,,,,,,6966.143999856897,completion,,,,,,,high,high,,,,,,,false,,,,,true,773860,773859.399999857,766876.334,766891,766893.256,773876.638,1,40,,
trial,html.Screen,8_38_0,2023-11-30T16:44:39.994Z,,,,2,-0.0456515796420274,0.0273567130070961,,0.05,false,hh,9351.06199980923,response,0.8349834005033574,0.9360571837972851,-0.8692250169166522,1.1614693609347344,1.1368834896997173,-1.0822145796968716,high,high,,ISIC_0068610.JPG,,ISIC_0005239.JPG,33,31,false,0.11,ll,keypress(f),0,true,783227.899999857,783227.6999998093,773859.726,773860.1999998093,773876.638,783243.294,1,40,39,
sequence,flow.Sequence,8_38,2023-11-30T16:44:39.994Z,,,,,,,,,,,9351.06199980923,completion,,,,,,,high,high,,,,,,,false,,,,,true,783228.2999999523,783227.6999998093,773859.726,773860.0999999046,773876.638,783243.294,1,40,,
trial,html.Screen,8_39_0,2023-11-30T16:44:49.977Z,,,,2,-0.0329095507339554,0.0382899749693245,,0.05,false,lh,9967.105999856954,response,-1.0264463986917702,0.9860571837972851,-0.8692250169166522,1.2804054832904397,1.1868834896997174,-1.0822145796968716,low,high,,ISIC_8812781.JPG,,ISIC_7889838.JPG,33,27,false,0.27000000000000013,hh,keypress(i),0,true,793210.5999999046,793210.399999857,783226.321,783228.5,783243.294,793226.84,1,40,40,
sequence,flow.Sequence,8_39,2023-11-30T16:44:49.977Z,,,,,,,,,,,9967.105999856954,completion,,,,,,,low,high,,,,,,,false,,,,,true,793210.899999857,793210.399999857,783226.321,783228.5,783243.294,793226.84,1,40,,
stair_loop,flow.Loop,8,2023-11-30T16:44:49.977Z,,,,,,,,,,,277750.74599985697,completion,,,,,,,,,,,,,,,false,,,,,true,793210.899999857,793210.399999857,515442.941,515450.59999990463,515459.654,793226.84,1,40,,
exp_instructions,html.Screen,9,2023-11-30T16:44:57.065Z,,,,,,,,,,,7071.859999809298,response,,,,,,,,,,,,,,,,,continue,keypress(Space),,,800299.2999999523,800298.6999998093,793209.781,793211,793226.84,800309.971,,,,
trial,html.Screen,10_0_0,2023-11-30T16:45:06.849Z,,,,1,-0.0324770283903853,-0.0249968632204382,,0.05,false,ll,9772.628999904613,response,-0.6626619689522508,1.0680823269030473,-0.6968303693175235,-1.049051504424313,1.0973539136830799,-1.133942915939374,low,low,,ISIC_7266462.JPG,8,ISIC_0010942.JPG,33,39,false,0.1,hl,keypress(j),0,false,810082.7999999523,810082.5999999046,800293.285,800299.5999999046,800309.971,810093.315,5,600,1,
break,html.Screen,10_0_1,2023-11-30T16:45:06.849Z,,,,,,,,,,,NaN,,,,,,,,low,low,,,,,,,false,,,,,false,810083.399999857,810083.0999999046,,810083,,810093.315,5,600,,
break_continue,html.Screen,10_0_2,2023-11-30T16:45:06.850Z,,,,,,,,,,,NaN,,,,,,,,low,low,,,,,,,false,,,,,false,810083.5999999046,810083.5,,810083.399999857,,810093.315,5,600,,
sequence,flow.Sequence,10_0,2023-11-30T16:45:06.850Z,,,,,,,,,,,9773.52899999998,completion,,,,,,,low,low,,,,,,,false,,,,,false,810083.6999998093,810083.5,800293.285,800299.5999999046,800309.971,810093.315,5,600,,
trial,html.Screen,10_1_0,2023-11-30T16:45:13.633Z,,,,1,-0.039728379742806,0.0228701131373768,,0.05,true,hl,6773.284999904688,response,0.9454713230140772,1.0680823269030473,-0.6968303693175235,-0.9245167441969216,1.0973539136830799,-1.133942915939374,high,low,,ISIC_0054073.JPG,9,ISIC_9101055.JPG,33,25,false,0.28000000000000014,hl,keypress(j),0,false,816866.6999998093,816866.5999999046,810076.53,810083.7999999523,810093.315,816876.693,5,600,2,
break,html.Screen,10_1_1,2023-11-30T16:45:13.633Z,,,,,,,,,,,NaN,,,,,,,,high,low,,,,,,,false,,,,,false,816867.0999999046,816867,,816866.7999999523,,816876.693,5,600,,
break_continue,html.Screen,10_1_2,2023-11-30T16:45:13.633Z,,,,,,,,,,,NaN,,,,,,,,high,low,,,,,,,false,,,,,false,816867.1999998093,816867.0999999046,,816867.0999999046,,816876.693,5,600,,
sequence,flow.Sequence,10_1,2023-11-30T16:45:13.633Z,,,,,,,,,,,6773.784999904688,completion,,,,,,,high,low,,,,,,,false,,,,,false,816867.2999999523,816867.0999999046,810076.53,810083.6999998093,810093.315,816876.693,5,600,,
trial,html.Screen,10_2_0,2023-11-30T16:45:16.994Z,,,,1,-0.0450282431170921,0,,0.05,false,hl,3350.606999952346,response,1.2695509547992938,1.0680823269030473,-0.6968303693175235,-0.9641099676945492,1.0973539136830799,-1.133942915939374,high,low,,ISIC_1805163.JPG,9,ISIC_0025841.JPG,33,25,false,0.28000000000000014,hh,keypress(i),0,false,820227.5,820227.2999999523,816859.9,816867.2999999523,816876.693,820243.427,5,600,3,
break,html.Screen,10_2_1,2023-11-30T16:45:16.994Z,,,,,,,,,,,NaN,,,,,,,,high,low,,,,,,,false,,,,,false,820228.399999857,820228.0999999046,,820227.7999999523,,820243.427,5,600,,
break_continue,html.Screen,10_2_2,2023-11-30T16:45:16.995Z,,,,,,,,,,,NaN,,,,,,,,high,low,,,,,,,false,,,,,false,820228.899999857,820228.7999999523,,820228.5999999046,,820243.427,5,600,,
sequence,flow.Sequence,10_2,2023-11-30T16:45:16.995Z,,,,,,,,,,,3352.106999952346,completion,,,,,,,high,low,,,,,,,false,,,,,false,820229.0999999046,820228.7999999523,816859.9,816867.2999999523,816876.693,820243.427,5,600,,
trial,html.Screen,10_3_0,2023-11-30T16:45:22.217Z,,,,1,0.0102460616775615,-0.0309670599545429,,0.05,false,ll,5206.872999952291,response,-0.7023241123957465,1.0680823269030473,-0.6968303693175235,-1.2030823621789808,1.0973539136830799,-1.133942915939374,low,low,,ISIC_0072041.JPG,10,ISIC_0067206.JPG,33,39,false,0.1,lh,keypress(e),0,false,825450.5,825450.2999999523,820226.929,820229.2999999523,820243.427,825460.123,5,600,4,
break,html.Screen,10_3_1,2023-11-30T16:45:22.217Z,,,,,,,,,,,NaN,,,,,,,,low,low,,,,,,,false,,,,,false,825450.899999857,825450.7999999523,,825450.5999999046,,825460.123,5,600,,
break_continue,html.Screen,10_3_2,2023-11-30T16:45:22.217Z,,,,,,,,,,,NaN,,,,,,,,low,low,,,,,,,false,,,,,false,825451,825451,,825450.899999857,,825460.123,5,600,,
sequence,flow.Sequence,10_3,2023-11-30T16:45:22.217Z,,,,,,,,,,,5207.572999999975,completion,,,,,,,low,low,,,,,,,false,,,,,false,825451.0999999046,825451,820226.929,820229.1999998093,820243.427,825460.123,5,600,,
trial,html.Screen,10_4_0,2023-11-30T16:45:26.712Z,,,,1,0.0112310719058792,-0.0469047359904117,,0.05,false,hh,4486.276999856927,response,1.0769490291795207,1.0680823269030473,-0.6968303693175235,1.0174515954885954,1.0973539136830799,-1.133942915939374,high,high,,ISIC_0068184.JPG,9,ISIC_0028135.JPG,33,28,false,0.1,hl,keypress(j),0,false,829946.5,829946.399999857,825443.16,825451.1999998093,825460.123,829960.05,5,600,5,
break,html.Screen,10_4_1,2023-11-30T16:45:26.713Z,,,,,,,,,,,NaN,,,,,,,,high,high,,,,,,,false,,,,,false,829946.899999857,829946.7999999523,,829946.5999999046,,829960.05,5,600,,
break_continue,html.Screen,10_4_2,2023-11-30T16:45:26.713Z,,,,,,,,,,,NaN,,,,,,,,high,high,,,,,,,false,,,,,false,829947,829947,,829947,,829960.05,5,600,,
sequence,flow.Sequence,10_4,2023-11-30T16:45:26.713Z,,,,,,,,,,,4486.876999999979,completion,,,,,,,high,high,,,,,,,false,,,,,false,829947.0999999046,829947,825443.16,825451.0999999046,825460.123,829960.05,5,600,,
trial,html.Screen,10_5_0,2023-11-30T16:45:31.954Z,,,,1,-0.007397293189458,-0.0174716772037504,,0.05,false,hh,5227.449999999953,response,1.0097932576366906,1.0680823269030473,-0.6968303693175235,1.0644834610939486,1.0973539136830799,-1.133942915939374,high,high,,ISIC_0056226.JPG,8,ISIC_8559515.JPG,33,28,false,0.1,hl,keypress(j),0,false,835187.7999999523,835187.5,829943.235,829947.1999998093,829960.05,835193.395,5,600,6,
break,html.Screen,10_5_1,2023-11-30T16:45:31.955Z,,,,,,,,,,,NaN,,,,,,,,high,high,,,,,,,false,,,,,false,835188.5999999046,835188.399999857,,835188.0999999046,,835193.395,5,600,,
break_continue,html.Screen,10_5_2,2023-11-30T16:45:31.955Z,,,,,,,,,,,NaN,,,,,,,,high,high,,,,,,,false,,,,,false,835189.0999999046,835189,,835188.7999999523,,835193.395,5,600,,
sequence,flow.Sequence,10_5,2023-11-30T16:45:31.956Z,,,,,,,,,,,5228.949999999953,completion,,,,,,,high,high,,,,,,,false,,,,,false,835189.2999999523,835189,829943.235,829947.1999998093,829960.05,835193.395,5,600,,
trial,html.Screen,10_6_0,2023-11-30T16:45:44.825Z,,,,1,0.0112310719058792,-0.0469047359904117,,0.05,false,lh,12865.204999904614,response,-0.7870237732709365,1.0680823269030473,-0.6968303693175235,0.9172955251119376,1.0973539136830799,-1.133942915939374,low,high,,ISIC_0068184.JPG,9,ISIC_0057716.JPG,33,27,false,0.19000000000000006,hl,keypress(j),0,false,848058.7999999523,848058.5999999046,835176.742,835189.5,835193.395,848077.481,5,600,7,
break,html.Screen,10_6_1,2023-11-30T16:45:44.825Z,,,,,,,,,,,NaN,,,,,,,,low,high,,,,,,,false,,,,,false,848059.1999998093,848059.0999999046,,848058.899999857,,848077.481,5,600,,
break_continue,html.Screen,10_6_2,2023-11-30T16:45:44.826Z,,,,,,,,,,,NaN,,,,,,,,low,high,,,,,,,false,,,,,false,848059.2999999523,848059.2999999523,,848059.1999998093,,848077.481,5,600,,
sequence,flow.Sequence,10_6,2023-11-30T16:45:44.826Z,,,,,,,,,,,12865.904999952298,completion,,,,,,,low,high,,,,,,,false,,,,,false,848059.399999857,848059.2999999523,835176.742,835189.399999857,835193.395,848077.481,5,600,,
trial,html.Screen,10_7_0,2023-11-30T16:45:49.018Z,,,,1,0.000047919190197942736,0.0462652940855003,,0.05,false,hh,4173.618999904604,response,1.0565911491759823,1.0680823269030473,-0.6968303693175235,1.0221582682700174,1.0973539136830799,-1.133942915939374,high,high,,ISIC_0011507.JPG,9,ISIC_6604862.JPG,33,28,false,0.1,ll,keypress(f),0,false,852251.399999857,852251.0999999046,848043.521,848059.399999857,848077.481,852260.144,5,600,8,
break,html.Screen,10_7_1,2023-11-30T16:45:49.019Z,,,,,,,,,,,NaN,,,,,,,,high,high,,,,,,,false,,,,,false,852252.399999857,852252.0999999046,,852251.6999998093,,852260.144,5,600,,
break_continue,html.Screen,10_7_2,2023-11-30T16:45:49.019Z,,,,,,,,,,,NaN,,,,,,,,high,high,,,,,,,false,,,,,false,852252.899999857,852252.6999998093,,852252.5,,852260.144,5,600,,
sequence,flow.Sequence,10_7,2023-11-30T16:45:49.019Z,,,,,,,,,,,4175.218999809236,completion,,,,,,,high,high,,,,,,,false,,,,,false,852253.0999999046,852252.6999998093,848043.521,848059.399999857,848077.481,852260.144,5,600,,
trial,html.Screen,10_8_0,2023-11-30T16:45:55.482Z,,,,1,-0.0085520978188085,0.0464691161264081,,0.05,true,ll,6454.856000000029,response,-0.7123344251569738,1.0680823269030473,-0.6968303693175235,-1.061329542878903,1.0973539136830799,-1.133942915939374,low,low,,ISIC_0758797.JPG,10,ISIC_0065622.JPG,33,39,false,0.1,ll,keypress(f),0,false,858715.1999998093,858715,852243.256,852253.1999998093,852260.144,858726.76,5,600,9,
break,html.Screen,10_8_1,2023-11-30T16:45:55.482Z,,,,,,,,,,,NaN,,,,,,,,low,low,,,,,,,false,,,,,false,858715.899999857,858715.7999999523,,858715.399999857,,858726.76,5,600,,
break_continue,html.Screen,10_8_2,2023-11-30T16:45:55.483Z,,,,,,,,,,,NaN,,,,,,,,low,low,,,,,,,false,,,,,false,858716.5,858716.2999999523,,858716.1999998093,,858726.76,5,600,,
sequence,flow.Sequence,10_8,2023-11-30T16:45:55.483Z,,,,,,,,,,,6456.155999952345,completion,,,,,,,low,low,,,,,,,false,,,,,false,858716.5999999046,858716.2999999523,852243.256,852253.1999998093,852260.144,858726.76,5,600,,
trial,html.Screen,10_9_0,2023-11-30T16:46:01.617Z,,,,1,-0.0324770283903853,-0.0249968632204382,,0.05,false,hh,6123.6399998569395,response,0.9962130178668478,1.0680823269030473,-0.6968303693175235,1.0198919808587756,1.0973539136830799,-1.133942915939374,high,high,,ISIC_7266462.JPG,9,ISIC_0595080.JPG,33,28,false,0.1,hl,keypress(j),0,false,864850.399999857,864850.399999857,858710.09,858716.6999998093,858726.76,864860.166,5,600,10,
break,html.Screen,10_9_1,2023-11-30T16:46:01.617Z,,,,,,,,,,,NaN,,,,,,,,high,high,,,,,,,false,,,,,false,864850.7999999523,864850.7999999523,,864850.5999999046,,864860.166,5,600,,
break_continue,html.Screen,10_9_2,2023-11-30T16:46:01.617Z,,,,,,,,,,,NaN,,,,,,,,high,high,,,,,,,false,,,,,false,864851,864850.899999857,,864850.899999857,,864860.166,5,600,,
sequence,flow.Sequence,10_9,2023-11-30T16:46:01.617Z,,,,,,,,,,,6124.1399998569395,completion,,,,,,,high,high,,,,,,,false,,,,,false,864851,864850.899999857,858710.09,858716.6999998093,858726.76,864860.166,5,600,,
trial,html.Screen,10_10_0,2023-11-30T16:46:09.977Z,,,,1,-0.039728379742806,0.0228701131373768,,0.05,true,hh,8350.633999952348,response,1.0097932576366906,1.0680823269030473,-0.6968303693175235,1.0644834610939486,1.0973539136830799,-1.133942915939374,high,high,,ISIC_0054073.JPG,9,ISIC_8559515.JPG,33,28,false,0.1,hh,keypress(i),0,false,873210.899999857,873210.7999999523,864843.583,864851.0999999046,864860.166,873226.777,5,600,11,
break,html.Screen,10_10_1,2023-11-30T16:46:09.978Z,,,,,,,,,,,NaN,,,,,,,,high,high,,,,,,,false,,,,,false,873211.1999998093,873211.0999999046,,873211,,873226.777,5,600,,
break_continue,html.Screen,10_10_2,2023-11-30T16:46:09.978Z,,,,,,,,,,,NaN,,,,,,,,high,high,,,,,,,false,,,,,false,873211.399999857,873211.2999999523,,873211.2999999523,,873226.777,5,600,,
sequence,flow.Sequence,10_10,2023-11-30T16:46:09.978Z,,,,,,,,,,,8351.133999952348,completion,,,,,,,high,high,,,,,,,false,,,,,false,873211.5,873211.2999999523,864843.583,864851.0999999046,864860.166,873226.777,5,600,,
trial,html.Screen,10_11_0,2023-11-30T16:46:17.762Z,,,,1,0.0134764727102299,0.0033499036460912,,0.05,false,hl,7768.622999856947,response,0.8487429103619056,1.0680823269030473,-0.6968303693175235,-0.9778257804233036,1.0973539136830799,-1.133942915939374,high,low,,ISIC_0009998.JPG,9,ISIC_4554863.JPG,33,25,false,0.28000000000000014,hh,keypress(i),0,false,880995.6999998093,880995.399999857,873210.072,873211.5,873226.777,881010.105,5,600,12,
break,html.Screen,10_11_1,2023-11-30T16:46:17.763Z,,,,,,,,,,,NaN,,,,,,,,high,low,,,,,,,false,,,,,false,880996.5999999046,880996.399999857,,880996,,881010.105,5,600,,
break_continue,html.Screen,10_11_2,2023-11-30T16:46:17.763Z,,,,,,,,,,,NaN,,,,,,,,high,low,,,,,,,false,,,,,false,880997.0999999046,880996.899999857,,880996.7999999523,,881010.105,5,600,,
sequence,flow.Sequence,10_11,2023-11-30T16:46:17.764Z,,,,,,,,,,,7770.122999856947,completion,,,,,,,high,low,,,,,,,false,,,,,false,880997.2999999523,880996.899999857,873210.072,873211.5,873226.777,881010.105,5,600,,
trial,html.Screen,10_12_0,2023-11-30T16:46:32.097Z,,,,1,-0.0389988030702649,-0.0143212271490256,,0.05,false,ll,14320.594999809284,response,-0.5987652983793206,1.0680823269030473,-0.6968303693175235,-1.1441767540243375,1.0973539136830799,-1.133942915939374,low,low,,ISIC_0064669.JPG,9,ISIC_0054146.JPG,33,39,false,0.1,lh,keypress(e),0,false,895330.899999857,895330.6999998093,880993.338,880997.399999857,881010.105,895343.531,5,600,13,
break,html.Screen,10_12_1,2023-11-30T16:46:32.098Z,,,,,,,,,,,NaN,,,,,,,,low,low,,,,,,,false,,,,,false,895331.1999998093,895331.0999999046,,895330.899999857,,895343.531,5,600,,
break_continue,html.Screen,10_12_2,2023-11-30T16:46:32.098Z,,,,,,,,,,,NaN,,,,,,,,low,low,,,,,,,false,,,,,false,895331.399999857,895331.2999999523,,895331.1999998093,,895343.531,5,600,,
sequence,flow.Sequence,10_12,2023-11-30T16:46:32.098Z,,,,,,,,,,,14321.194999952335,completion,,,,,,,low,low,,,,,,,false,,,,,false,895331.399999857,895331.2999999523,880993.338,880997.399999857,881010.105,895343.531,5,600,,
trial,html.Screen,10_13_0,2023-11-30T16:46:41.194Z,,,,1,0.0097091270150747,-0.0417921315885292,,0.05,false,lh,9083.768999952357,response,-0.7998855902596425,1.0680823269030473,-0.6968303693175235,1.1518579145663017,1.0973539136830799,-1.133942915939374,low,high,,ISIC_3967213.JPG,9,ISIC_0025061.JPG,33,27,false,0.19000000000000006,hh,keypress(i),0,false,904427.5,904427.2999999523,895326.7,895331.5,895343.531,904443.539,5,600,14,
break,html.Screen,10_13_1,2023-11-30T16:46:41.195Z,,,,,,,,,,,NaN,,,,,,,,low,high,,,,,,,false,,,,,false,904428.0999999046,904428,,904427.6999998093,,904443.539,5,600,,
break_continue,html.Screen,10_13_2,2023-11-30T16:46:41.195Z,,,,,,,,,,,NaN,,,,,,,,low,high,,,,,,,false,,,,,false,904428.5,904428.5,,904428.2999999523,,904443.539,5,600,,
sequence,flow.Sequence,10_13,2023-11-30T16:46:41.195Z,,,,,,,,,,,9084.969000000041,completion,,,,,,,low,high,,,,,,,false,,,,,false,904428.6999998093,904428.5,895326.7,895331.5,895343.531,904443.539,5,600,,
trial,html.Screen,10_14_0,2023-11-30T16:46:49.465Z,,,,1,-0.0450282431170921,0,,0.05,false,hh,8255.160999809275,response,1.057008495826831,1.0680823269030473,-0.6968303693175235,1.1278122585028287,1.0973539136830799,-1.133942915939374,high,high,,ISIC_1805163.JPG,10,ISIC_2819798.JPG,33,28,false,0.1,lh,keypress(e),0,false,912698.7999999523,912698.6999998093,904426.5,904428.7999999523,904443.539,912710.115,5,600,15,
break,html.Screen,10_14_1,2023-11-30T16:46:49.466Z,,,,,,,,,,,NaN,,,,,,,,high,high,,,,,,,false,,,,,false,912699.1999998093,912699.0999999046,,912699,,912710.115,5,600,,
break_continue,html.Screen,10_14_2,2023-11-30T16:46:49.466Z,,,,,,,,,,,NaN,,,,,,,,high,high,,,,,,,false,,,,,false,912699.2999999523,912699.2999999523,,912699.2999999523,,912710.115,5,600,,
sequence,flow.Sequence,10_14,2023-11-30T16:46:49.466Z,,,,,,,,,,,8255.760999952327,completion,,,,,,,high,high,,,,,,,false,,,,,false,912699.399999857,912699.2999999523,904426.5,904428.7999999523,904443.539,912710.115,5,600,,
trial,html.Screen,10_15_0,2023-11-30T16:46:54.834Z,,,,1,0,0.0264544974620926,,0.05,false,hh,5356.784999856958,response,1.037577073517966,1.0680823269030473,-0.6968303693175235,1.027048110709042,1.0973539136830799,-1.133942915939374,high,high,,ISIC_0056991.JPG,9,ISIC_0004932.JPG,33,28,false,0.1,hl,keypress(j),0,false,918067,918066.899999857,912693.284,912699.5,912710.115,918076.852,5,600,16,
break,html.Screen,10_15_1,2023-11-30T16:46:54.834Z,,,,,,,,,,,NaN,,,,,,,,high,high,,,,,,,false,,,,,false,918067.5,918067.5,,918067.1999998093,,918076.852,5,600,,
break_continue,html.Screen,10_15_2,2023-11-30T16:46:54.834Z,,,,,,,,,,,NaN,,,,,,,,high,high,,,,,,,false,,,,,false,918067.899999857,918067.7999999523,,918067.5999999046,,918076.852,5,600,,
sequence,flow.Sequence,10_15,2023-11-30T16:46:54.835Z,,,,,,,,,,,5357.684999952326,completion,,,,,,,high,high,,,,,,,false,,,,,false,918068,918067.7999999523,912693.284,912699.5,912710.115,918076.852,5,600,,
trial,html.Screen,10_16_0,2023-11-30T16:47:08.161Z,,,,1,-0.039728379742806,0.0228701131373768,,0.05,false,lh,13317.84799980931,response,-0.7118141631588264,1.0680823269030473,-0.6968303693175235,1.0369885917487718,1.0973539136830799,-1.133942915939374,low,high,,ISIC_0054073.JPG,10,ISIC_6917681.JPG,33,27,false,0.19000000000000006,hl,keypress(j),0,false,931394.7999999523,931394.6999998093,918060.247,918068.0999999046,918076.852,931410.163,5,600,17,
break,html.Screen,10_16_1,2023-11-30T16:47:08.162Z,,,,,,,,,,,NaN,,,,,,,,low,high,,,,,,,false,,,,,false,931395.0999999046,931395,,931394.7999999523,,931410.163,5,600,,
break_continue,html.Screen,10_16_2,2023-11-30T16:47:08.162Z,,,,,,,,,,,NaN,,,,,,,,low,high,,,,,,,false,,,,,false,931395.2999999523,931395.2999999523,,931395.1999998093,,931410.163,5,600,,
sequence,flow.Sequence,10_16,2023-11-30T16:47:08.162Z,,,,,,,,,,,13318.447999952361,completion,,,,,,,low,high,,,,,,,false,,,,,false,931395.2999999523,931395.2999999523,918060.247,918068.0999999046,918076.852,931410.163,5,600,,
trial,html.Screen,10_17_0,2023-11-30T16:47:13.834Z,,,,1,-0.0027483411352856,-0.0100996915276271,,0.05,false,lh,5656.636999952374,response,-0.6416699984222508,1.0680823269030473,-0.6968303693175235,1.0067659067144603,1.0973539136830799,-1.133942915939374,low,high,,ISIC_7364041.JPG,9,ISIC_0064784.JPG,33,27,false,0.19000000000000006,hh,keypress(i),0,false,937067,937066.7999999523,931393.379,931395.399999857,931410.163,937076.873,5,600,18,
break,html.Screen,10_17_1,2023-11-30T16:47:13.834Z,,,,,,,,,,,NaN,,,,,,,,low,high,,,,,,,false,,,,,false,937067.5,937067.399999857,,937067.0999999046,,937076.873,5,600,,
break_continue,html.Screen,10_17_2,2023-11-30T16:47:13.834Z,,,,,,,,,,,NaN,,,,,,,,low,high,,,,,,,false,,,,,false,937067.7999999523,937067.6999998093,,937067.5999999046,,937076.873,5,600,,
sequence,flow.Sequence,10_17,2023-11-30T16:47:13.834Z,,,,,,,,,,,5657.536999809323,completion,,,,,,,low,high,,,,,,,false,,,,,false,937067.899999857,937067.6999998093,931393.379,931395.399999857,931410.163,937076.873,5,600,,
trial,html.Screen,10_18_0,2023-11-30T16:47:29.827Z,,,,1,-0.0085520978188085,0.0464691161264081,,0.05,,,16016.82799999998,timeout,-0.6714344890480403,1.0680823269030473,-0.6968303693175235,0.9362962536620838,1.0973539136830799,-1.133942915939374,low,high,,ISIC_0758797.JPG,9,ISIC_3691320.JPG,33,27,false,0.19000000000000006,,,0,false,953060.5999999046,953060.5,937060.156,937068.0999999046,937076.873,953093.701,5,600,19,
break,html.Screen,10_18_1,2023-11-30T16:47:29.827Z,,,,,,,,,,,NaN,,,,,,,,low,high,,,,,,,false,,,,,false,953060.899999857,953060.7999999523,,953060.6999998093,,953093.701,5,600,,
break_continue,html.Screen,10_18_2,2023-11-30T16:47:29.828Z,,,,,,,,,,,NaN,,,,,,,,low,high,,,,,,,false,,,,,false,953061.0999999046,953061,,953061,,953093.701,5,600,,
sequence,flow.Sequence,10_18,2023-11-30T16:47:29.828Z,,,,,,,,,,,15984.126999999979,completion,,,,,,,low,high,,,,,,,false,,,,,false,953061.1999998093,953061,937060.156,937068.0999999046,937076.873,953093.701,5,600,,
trial,html.Screen,10_19_0,2023-11-30T16:47:37.170Z,,,,1,-0.0389988030702649,-0.0143212271490256,,0.05,false,lh,7309.098999952315,response,-0.5367473275290543,1.0680823269030473,-0.6968303693175235,1.0131843101438591,1.0973539136830799,-1.133942915939374,low,high,,ISIC_0064669.JPG,9,ISIC_3459981.JPG,33,27,false,0.19000000000000006,ll,keypress(f),0,false,960402.899999857,960402.7999999523,953076.959,953061.1999998093,953093.701,960410.246,5,600,20,
break,html.Screen,10_19_1,2023-11-30T16:47:37.170Z,,,,,,,,,,,NaN,,,,,,,,low,high,,,,,,,false,,,,,false,960403.399999857,960403.2999999523,,960403.0999999046,,960410.246,5,600,,
break_continue,html.Screen,10_19_2,2023-11-30T16:47:37.170Z,,,,,,,,,,,NaN,,,,,,,,low,high,,,,,,,false,,,,,false,960403.5999999046,960403.5,,960403.399999857,,960410.246,5,600,,
sequence,flow.Sequence,10_19,2023-11-30T16:47:37.171Z,,,,,,,,,,,7309.798999999999,completion,,,,,,,low,high,,,,,,,false,,,,,false,960403.6999998093,960403.5,953076.959,953061.1999998093,953093.701,960410.246,5,600,,
trial,html.Screen,10_20_0,2023-11-30T16:47:41.875Z,,,,1,-0.0389988030702649,-0.0143212271490256,,0.05,false,ll,4697.35399990459,response,-0.7123344251569738,1.0680823269030473,-0.6968303693175235,-1.061329542878903,1.0973539136830799,-1.133942915939374,low,low,,ISIC_0064669.JPG,8,ISIC_0065622.JPG,33,39,false,0.1,lh,keypress(e),0,false,965107.899999857,965107.5999999046,960393.526,960403.7999999523,960410.246,965110.258,5,600,21,
break,html.Screen,10_20_1,2023-11-30T16:47:41.876Z,,,,,,,,,,,NaN,,,,,,,,low,low,,,,,,,false,,,,,false,965108.899999857,965108.6999998093,,965108.1999998093,,965110.258,5,600,,
break_continue,html.Screen,10_20_2,2023-11-30T16:47:41.876Z,,,,,,,,,,,NaN,,,,,,,,low,low,,,,,,,false,,,,,false,965109.399999857,965109.2999999523,,965109,,965110.258,5,600,,
sequence,flow.Sequence,10_20,2023-11-30T16:47:41.876Z,,,,,,,,,,,4699.053999952273,completion,,,,,,,low,low,,,,,,,false,,,,,false,965109.6999998093,965109.2999999523,960393.526,960403.7999999523,960410.246,965110.258,5,600,,
trial,html.Screen,10_21_0,2023-11-30T16:47:52.386Z,,,,1,-0.0069555338059566,0.0310100918136373,,0.05,false,hh,10508.441999809234,response,1.072671714258808,1.0680823269030473,-0.6968303693175235,1.0208498389771272,1.0973539136830799,-1.133942915939374,high,high,,ISIC_0011177.JPG,10,ISIC_5218773.JPG,33,28,false,0.1,hl,keypress(j),0,false,975618.6999998093,975618.6999998093,965093.616,965109.899999857,965110.258,975626.934,5,600,22,
break,html.Screen,10_21_1,2023-11-30T16:47:52.386Z,,,,,,,,,,,NaN,,,,,,,,high,high,,,,,,,false,,,,,false,975619,975618.899999857,,975618.7999999523,,975626.934,5,600,,
break_continue,html.Screen,10_21_2,2023-11-30T16:47:52.386Z,,,,,,,,,,,NaN,,,,,,,,high,high,,,,,,,false,,,,,false,975619.1999998093,975619.0999999046,,975619,,975626.934,5,600,,
sequence,flow.Sequence,10_21,2023-11-30T16:47:52.386Z,,,,,,,,,,,10508.841999904602,completion,,,,,,,high,high,,,,,,,false,,,,,false,975619.2999999523,975619.0999999046,965093.616,965109.7999999523,965110.258,975626.934,5,600,,
trial,html.Screen,10_22_0,2023-11-30T16:48:03.939Z,,,,1,0.0051189696037511,-0.0396625911332438,,0.05,true,hh,11545.065999999992,response,1.037577073517966,1.0680823269030473,-0.6968303693175235,1.027048110709042,1.0973539136830799,-1.133942915939374,high,high,,ISIC_9742891.JPG,8,ISIC_0004932.JPG,33,28,false,0.1,hh,keypress(i),0,false,987172.1999998093,987172,975610.441,975619.2999999523,975626.934,987177.013,5,600,23,
break,html.Screen,10_22_1,2023-11-30T16:48:03.940Z,,,,,,,,,,,NaN,,,,,,,,high,high,,,,,,,false,,,,,false,987173.2999999523,987173.0999999046,,987172.5999999046,,987177.013,5,600,,
break_continue,html.Screen,10_22_2,2023-11-30T16:48:03.941Z,,,,,,,,,,,NaN,,,,,,,,high,high,,,,,,,false,,,,,false,987173.899999857,987173.6999998093,,987173.399999857,,987177.013,5,600,,
sequence,flow.Sequence,10_22,2023-11-30T16:48:03.941Z,,,,,,,,,,,11546.765999809257,completion,,,,,,,high,high,,,,,,,false,,,,,false,987174.0999999046,987173.6999998093,975610.441,975619.2999999523,975626.934,987177.013,5,600,,
trial,html.Screen,10_23_0,2023-11-30T16:48:12.785Z,,,,1,-0.0070725527271049,-0.0049995141077508,,0.05,false,hh,8841.386999856913,response,1.0378929077920005,1.0680823269030473,-0.6968303693175235,1.012953297890337,1.0973539136830799,-1.133942915939374,high,high,,ISIC_6124481.JPG,10,ISIC_0231745.JPG,33,28,false,0.1,ll,keypress(f),0,false,996018.5,996018.399999857,987160.422,987174.2999999523,987177.013,996026.937,5,600,24,
break,html.Screen,10_23_1,2023-11-30T16:48:12.786Z,,,,,,,,,,,NaN,,,,,,,,high,high,,,,,,,false,,,,,false,996018.899999857,996018.6999998093,,996018.6999998093,,996026.937,5,600,,
break_continue,html.Screen,10_23_2,2023-11-30T16:48:12.786Z,,,,,,,,,,,NaN,,,,,,,,high,high,,,,,,,false,,,,,false,996019,996018.899999857,,996018.899999857,,996026.937,5,600,,
sequence,flow.Sequence,10_23,2023-11-30T16:48:12.786Z,,,,,,,,,,,8841.886999856913,completion,,,,,,,high,high,,,,,,,false,,,,,false,996019,996018.899999857,987160.422,987174.2999999523,987177.013,996026.937,5,600,,
trial,html.Screen,10_24_0,2023-11-30T16:48:18.202Z,,,,1,-0.0217698886732706,0.0410870915161425,,0.05,false,hl,5407.762999809231,response,1.2364994561934892,1.0680823269030473,-0.6968303693175235,-0.9174173651516624,1.0973539136830799,-1.133942915939374,high,low,,ISIC_0072173.JPG,9,ISIC_3481133.JPG,33,25,false,0.28000000000000014,hh,keypress(i),0,false,1001434.899999857,1001434.6999998093,996010.023,996019.0999999046,996026.937,1001443.621,5,600,25,
break,html.Screen,10_24_1,2023-11-30T16:48:18.202Z,,,,,,,,,,,NaN,,,,,,,,high,low,,,,,,,false,,,,,false,1001435.0999999046,1001435.0999999046,,1001435,,1001443.621,5,600,,
break_continue,html.Screen,10_24_2,2023-11-30T16:48:18.202Z,,,,,,,,,,,NaN,,,,,,,,high,low,,,,,,,false,,,,,false,1001435.2999999523,1001435.1999998093,,1001435.1999998093,,1001443.621,5,600,,
sequence,flow.Sequence,10_24,2023-11-30T16:48:18.202Z,,,,,,,,,,,5408.262999809231,completion,,,,,,,high,low,,,,,,,false,,,,,false,1001435.2999999523,1001435.1999998093,996010.023,996019.0999999046,996026.937,1001443.621,5,600,,
trial,html.Screen,10_25_0,2023-11-30T16:48:25.210Z,,,,1,-0.007397293189458,-0.0174716772037504,,0.05,false,ll,6998.97899990459,response,-0.5987652983793206,1.0680823269030473,-0.6968303693175235,-1.1441767540243375,1.0973539136830799,-1.133942915939374,low,low,,ISIC_0056226.JPG,9,ISIC_0054146.JPG,33,39,false,0.1,hh,keypress(i),0,false,1008442.6999998093,1008442.5999999046,1001426.769,1001435.399999857,1001443.621,1008461.18,5,600,26,
break,html.Screen,10_25_1,2023-11-30T16:48:25.210Z,,,,,,,,,,,NaN,,,,,,,,low,low,,,,,,,false,,,,,false,1008443.0999999046,1008443,,1008442.7999999523,,1008461.18,5,600,,
break_continue,html.Screen,10_25_2,2023-11-30T16:48:25.210Z,,,,,,,,,,,NaN,,,,,,,,low,low,,,,,,,false,,,,,false,1008443.2999999523,1008443.2999999523,,1008443.0999999046,,1008461.18,5,600,,
sequence,flow.Sequence,10_25,2023-11-30T16:48:25.210Z,,,,,,,,,,,6999.678999952273,completion,,,,,,,low,low,,,,,,,false,,,,,false,1008443.399999857,1008443.2999999523,1001426.769,1001435.399999857,1001443.621,1008461.18,5,600,,
trial,html.Screen,10_26_0,2023-11-30T16:48:31.426Z,,,,1,-0.0050679133050021,0.0009714874637896,,0.05,true,hh,6197.819999999949,response,1.1642596483638106,1.0680823269030473,-0.6968303693175235,1.109799097093339,1.0973539136830799,-1.133942915939374,high,high,,ISIC_9848743.JPG,10,ISIC_0765584.JPG,33,28,false,0.1,hh,keypress(i),0,false,1014659.0999999046,1014659,1008426.854,1008443.399999857,1008461.18,1014678.114,5,600,27,
break,html.Screen,10_26_1,2023-11-30T16:48:31.426Z,,,,,,,,,,,NaN,,,,,,,,high,high,,,,,,,false,,,,,false,1014659.5999999046,1014659.5,,1014659.2999999523,,1014678.114,5,600,,
break_continue,html.Screen,10_26_2,2023-11-30T16:48:31.427Z,,,,,,,,,,,NaN,,,,,,,,high,high,,,,,,,false,,,,,false,1014659.899999857,1014659.7999999523,,1014659.6999998093,,1014678.114,5,600,,
sequence,flow.Sequence,10_26,2023-11-30T16:48:31.427Z,,,,,,,,,,,6198.619999952265,completion,,,,,,,high,high,,,,,,,false,,,,,false,1014660,1014659.7999999523,1008426.854,1008443.399999857,1008461.18,1014678.114,5,600,,
trial,html.Screen,10_27_0,2023-11-30T16:48:35.883Z,,,,1,-0.0069555338059566,0.0310100918136373,,0.05,false,lh,4437.386000000057,response,-0.6132586392346531,1.0680823269030473,-0.6968303693175235,0.9190152836889912,1.0973539136830799,-1.133942915939374,low,high,,ISIC_0011177.JPG,9,ISIC_5833422.JPG,33,27,false,0.19000000000000006,ll,keypress(f),0,false,1019115.5999999046,1019115.5,1014643.532,1014660.0999999046,1014678.114,1019127.007,5,600,28,
break,html.Screen,10_27_1,2023-11-30T16:48:35.884Z,,,,,,,,,,,NaN,,,,,,,,low,high,,,,,,,false,,,,,false,1019116.5,1019116.2999999523,,1019115.899999857,,1019127.007,5,600,,
break_continue,html.Screen,10_27_2,2023-11-30T16:48:35.884Z,,,,,,,,,,,NaN,,,,,,,,low,high,,,,,,,false,,,,,false,1019117,1019116.899999857,,1019116.5999999046,,1019127.007,5,600,,
sequence,flow.Sequence,10_27,2023-11-30T16:48:35.884Z,,,,,,,,,,,4438.785999857006,completion,,,,,,,low,high,,,,,,,false,,,,,false,1019117.1999998093,1019116.899999857,1014643.532,1014660,1014678.114,1019127.007,5,600,,
trial,html.Screen,10_28_0,2023-11-30T16:48:41.003Z,,,,1,0.0409338693593207,-0.0072462710499874,,0.05,true,hh,5108.493000000017,response,1.037577073517966,1.0680823269030473,-0.6968303693175235,1.027048110709042,1.0973539136830799,-1.133942915939374,high,high,,ISIC_3608788.JPG,9,ISIC_0004932.JPG,33,28,false,0.1,hh,keypress(i),0,false,1024235.6999998093,1024235.5,1019110.515,1019117.399999857,1019127.007,1024243.657,5,600,29,
break,html.Screen,10_28_1,2023-11-30T16:48:41.004Z,,,,,,,,,,,NaN,,,,,,,,high,high,,,,,,,false,,,,,false,1024236.5999999046,1024236.399999857,,1024235.899999857,,1024243.657,5,600,,
break_continue,html.Screen,10_28_2,2023-11-30T16:48:41.004Z,,,,,,,,,,,NaN,,,,,,,,high,high,,,,,,,false,,,,,false,1024237.0999999046,1024236.899999857,,1024236.6999998093,,1024243.657,5,600,,
sequence,flow.Sequence,10_28,2023-11-30T16:48:41.004Z,,,,,,,,,,,5109.892999856966,completion,,,,,,,high,high,,,,,,,false,,,,,false,1024237.2999999523,1024236.899999857,1019110.515,1019117.2999999523,1019127.007,1024243.657,5,600,,
trial,html.Screen,10_29_0,2023-11-30T16:48:46.554Z,,,,1,0.0051189696037511,-0.0396625911332438,,0.05,true,ll,5543.14299995231,response,-0.754514979810059,1.0680823269030473,-0.6968303693175235,-1.0675071685593824,1.0973539136830799,-1.133942915939374,low,low,,ISIC_9742891.JPG,9,ISIC_0063046.JPG,33,39,false,0.1,ll,keypress(f),0,false,1029786.7999999523,1029786.7999999523,1024226.821,1024237.399999857,1024243.657,1029793.711,5,600,30,
break,html.Screen,10_29_1,2023-11-30T16:48:46.554Z,,,,,,,,,,,NaN,,,,,,,,low,low,,,,,,,false,,,,,false,1029787.1999998093,1029787.0999999046,,1029786.899999857,,1029793.711,5,600,,
break_continue,html.Screen,10_29_2,2023-11-30T16:48:46.554Z,,,,,,,,,,,NaN,,,,,,,,low,low,,,,,,,false,,,,,false,1029787.1999998093,1029787.1999998093,,1029787.1999998093,,1029793.711,5,600,,
sequence,flow.Sequence,10_29,2023-11-30T16:48:46.554Z,,,,,,,,,,,5543.542999809259,completion,,,,,,,low,low,,,,,,,false,,,,,false,1029787.2999999523,1029787.1999998093,1024226.821,1024237.399999857,1024243.657,1029793.711,5,600,,
trial,html.Screen,10_30_0,2023-11-30T16:48:54.522Z,,,,1,-0.0027483411352856,-0.0100996915276271,,0.05,true,hh,7961.088999952306,response,1.057008495826831,1.0680823269030473,-0.6968303693175235,1.1278122585028287,1.0973539136830799,-1.133942915939374,high,high,,ISIC_7364041.JPG,8,ISIC_2819798.JPG,33,28,false,0.1,hh,keypress(i),0,false,1037755,1037754.7999999523,1029776.97,1029787.399999857,1029793.711,1037760.337,5,600,31,
break,html.Screen,10_30_1,2023-11-30T16:48:54.522Z,,,,,,,,,,,NaN,,,,,,,,high,high,,,,,,,false,,,,,false,1037755.399999857,1037755.2999999523,,1037755.1999998093,,1037760.337,5,600,,
break_continue,html.Screen,10_30_2,2023-11-30T16:48:54.523Z,,,,,,,,,,,NaN,,,,,,,,high,high,,,,,,,false,,,,,false,1037755.6999998093,1037755.5999999046,,1037755.5,,1037760.337,5,600,,
sequence,flow.Sequence,10_30,2023-11-30T16:48:54.523Z,,,,,,,,,,,7961.888999904622,completion,,,,,,,high,high,,,,,,,false,,,,,false,1037755.7999999523,1037755.5999999046,1029776.97,1029787.2999999523,1029793.711,1037760.337,5,600,,
trial,html.Screen,10_31_0,2023-11-30T16:49:00.651Z,,,,1,0.0409338693593207,-0.0072462710499874,,0.05,true,hh,6123.362999809207,response,1.09666761087476,1.0680823269030473,-0.6968303693175235,1.1072126870290426,1.0973539136830799,-1.133942915939374,high,high,,ISIC_3608788.JPG,8,ISIC_0071754.JPG,33,28,false,0.1,hh,keypress(i),0,false,1043883.7999999523,1043883.6999998093,1037743.656,1037755.899999857,1037760.337,1043893.738,5,600,32,
break,html.Screen,10_31_1,2023-11-30T16:49:00.652Z,,,,,,,,,,,NaN,,,,,,,,high,high,,,,,,,false,,,,,false,1043884.6999998093,1043884.5,,1043884.0999999046,,1043893.738,5,600,,
break_continue,html.Screen,10_31_2,2023-11-30T16:49:00.652Z,,,,,,,,,,,NaN,,,,,,,,high,high,,,,,,,false,,,,,false,1043885.2999999523,1043885.0999999046,,1043884.899999857,,1043893.738,5,600,,
sequence,flow.Sequence,10_31,2023-11-30T16:49:00.653Z,,,,,,,,,,,6124.762999904575,completion,,,,,,,high,high,,,,,,,false,,,,,false,1043885.5,1043885.0999999046,1037743.656,1037755.899999857,1037760.337,1043893.738,5,600,,
trial,html.Screen,10_32_0,2023-11-30T16:49:10.746Z,,,,1,0.0051189696037511,-0.0396625911332438,,0.05,false,hh,10085.161999856937,response,1.0378929077920005,1.0680823269030473,-0.6968303693175235,1.012953297890337,1.0973539136830799,-1.133942915939374,high,high,,ISIC_9742891.JPG,9,ISIC_0231745.JPG,33,28,false,0.1,ll,keypress(f),0,false,1053978.899999857,1053978.899999857,1043877.047,1043885.6999998093,1043893.738,1053993.936,5,600,33,
break,html.Screen,10_32_1,2023-11-30T16:49:10.746Z,,,,,,,,,,,NaN,,,,,,,,high,high,,,,,,,false,,,,,false,1053979.399999857,1053979.2999999523,,1053979.0999999046,,1053993.936,5,600,,
break_continue,html.Screen,10_32_2,2023-11-30T16:49:10.747Z,,,,,,,,,,,NaN,,,,,,,,high,high,,,,,,,false,,,,,false,1053979.5999999046,1053979.5,,1053979.5,,1053993.936,5,600,,
sequence,flow.Sequence,10_32,2023-11-30T16:49:10.747Z,,,,,,,,,,,10085.761999999988,completion,,,,,,,high,high,,,,,,,false,,,,,false,1053979.6999998093,1053979.5,1043877.047,1043885.6999998093,1043893.738,1053993.936,5,600,,
trial,html.Screen,10_33_0,2023-11-30T16:49:19.730Z,,,,1,0.0362376068089956,0.047825070846155,,0.05,true,ll,8969.163999904646,response,-0.7123344251569738,1.0680823269030473,-0.6968303693175235,-1.061329542878903,1.0973539136830799,-1.133942915939374,low,low,,ISIC_6985114.JPG,10,ISIC_0065622.JPG,33,39,false,0.1,ll,keypress(f),0,false,1062963.2999999523,1062963.0999999046,1053977.125,1053979.6999998093,1053993.936,1062977.023,5,600,34,
break,html.Screen,10_33_1,2023-11-30T16:49:19.731Z,,,,,,,,,,,NaN,,,,,,,,low,low,,,,,,,false,,,,,false,1062964,1062963.7999999523,,1062963.5,,1062977.023,5,600,,
break_continue,html.Screen,10_33_2,2023-11-30T16:49:19.731Z,,,,,,,,,,,NaN,,,,,,,,low,low,,,,,,,false,,,,,false,1062964.2999999523,1062964.2999999523,,1062964.0999999046,,1062977.023,5,600,,
sequence,flow.Sequence,10_33,2023-11-30T16:49:19.732Z,,,,,,,,,,,8970.36399995233,completion,,,,,,,low,low,,,,,,,false,,,,,false,1062964.5999999046,1062964.2999999523,1053977.125,1053979.6999998093,1053993.936,1062977.023,5,600,,
trial,html.Screen,10_34_0,2023-11-30T16:49:25.210Z,,,,1,0.0348234368746005,-0.0236866303880924,,0.05,false,hl,5465.67699980922,response,0.9579209317488,1.0680823269030473,-0.6968303693175235,-1.0147487101263497,1.0973539136830799,-1.133942915939374,high,low,,ISIC_0011099.JPG,13,ISIC_8124482.JPG,33,25,false,0.28000000000000014,hh,keypress(i),0,false,1068442.6999998093,1068442.6999998093,1062960.254,1062964.6999998093,1062977.023,1068461.19,5,600,35,
break,html.Screen,10_34_1,2023-11-30T16:49:25.210Z,,,,,,,,,,,NaN,,,,,,,,high,low,,,,,,,false,,,,,false,1068443,1068443,,1068442.899999857,,1068461.19,5,600,,
break_continue,html.Screen,10_34_2,2023-11-30T16:49:25.210Z,,,,,,,,,,,NaN,,,,,,,,high,low,,,,,,,false,,,,,false,1068443.2999999523,1068443.1999998093,,1068443.0999999046,,1068461.19,5,600,,
sequence,flow.Sequence,10_34,2023-11-30T16:49:25.210Z,,,,,,,,,,,5466.17699980922,completion,,,,,,,high,low,,,,,,,false,,,,,false,1068443.2999999523,1068443.1999998093,1062960.254,1062964.6999998093,1062977.023,1068461.19,5,600,,
trial,html.Screen,10_35_0,2023-11-30T16:49:29.275Z,,,,1,-0.0329095507339554,0.0382899749693245,,0.05,true,hh,4046.109999952372,response,1.057008495826831,1.0680823269030473,-0.6968303693175235,1.1278122585028287,1.0973539136830799,-1.133942915939374,high,high,,ISIC_8812781.JPG,9,ISIC_2819798.JPG,33,28,false,0.1,hh,keypress(i),0,false,1072507.5,1072507.2999999523,1068426.962,1068443.2999999523,1068461.19,1072510.418,5,600,36,
break,html.Screen,10_35_1,2023-11-30T16:49:29.275Z,,,,,,,,,,,NaN,,,,,,,,high,high,,,,,,,false,,,,,false,1072508.1999998093,1072508.0999999046,,1072507.7999999523,,1072510.418,5,600,,
break_continue,html.Screen,10_35_2,2023-11-30T16:49:29.276Z,,,,,,,,,,,NaN,,,,,,,,high,high,,,,,,,false,,,,,false,1072508.6999998093,1072508.5,,1072508.399999857,,1072510.418,5,600,,
sequence,flow.Sequence,10_35,2023-11-30T16:49:29.276Z,,,,,,,,,,,4047.310000000056,completion,,,,,,,high,high,,,,,,,false,,,,,false,1072508.899999857,1072508.5,1068426.962,1068443.2999999523,1068461.19,1072510.418,5,600,,
trial,html.Screen,10_36_0,2023-11-30T16:49:32.274Z,,,,1,0.0188047466661863,-0.0288346930436979,,0.05,false,lh,2996.281999809202,response,-0.7998855902596425,1.0680823269030473,-0.6968303693175235,1.1518579145663017,1.0973539136830799,-1.133942915939374,low,high,,ISIC_0014157.JPG,9,ISIC_0025061.JPG,33,27,false,0.19000000000000006,hh,keypress(i),0,false,1075506.899999857,1075506.6999998093,1072493.591,1072508.899999857,1072510.418,1075510.387,5,600,37,
break,html.Screen,10_36_1,2023-11-30T16:49:32.275Z,,,,,,,,,,,NaN,,,,,,,,low,high,,,,,,,false,,,,,false,1075507.2999999523,1075507.1999998093,,1075507,,1075510.387,5,600,,
break_continue,html.Screen,10_36_2,2023-11-30T16:49:32.275Z,,,,,,,,,,,NaN,,,,,,,,low,high,,,,,,,false,,,,,false,1075507.399999857,1075507.399999857,,1075507.2999999523,,1075510.387,5,600,,
sequence,flow.Sequence,10_36,2023-11-30T16:49:32.275Z,,,,,,,,,,,2996.9819998568855,completion,,,,,,,low,high,,,,,,,false,,,,,false,1075507.5999999046,1075507.399999857,1072493.591,1072508.899999857,1072510.418,1075510.387,5,600,,
trial,html.Screen,10_37_0,2023-11-30T16:49:36.476Z,,,,1,0.0348234368746005,-0.0236866303880924,,0.05,false,lh,4197.612999999896,response,-0.5817380271979394,1.0680823269030473,-0.6968303693175235,1.2499674737468107,1.0973539136830799,-1.133942915939374,low,high,,ISIC_0011099.JPG,8,ISIC_0013617.JPG,33,27,false,0.19000000000000006,hh,keypress(i),0,false,1079708.1999998093,1079708,1075493.636,1075507.5999999046,1075510.387,1079710.416,5,600,38,
break,html.Screen,10_37_1,2023-11-30T16:49:36.477Z,,,,,,,,,,,NaN,,,,,,,,low,high,,,,,,,false,,,,,false,1079709.0999999046,1079709,,1079708.5,,1079710.416,5,600,,
break_continue,html.Screen,10_37_2,2023-11-30T16:49:36.477Z,,,,,,,,,,,NaN,,,,,,,,low,high,,,,,,,false,,,,,false,1079709.6999998093,1079709.399999857,,1079709.2999999523,,1079710.416,5,600,,
sequence,flow.Sequence,10_37,2023-11-30T16:49:36.477Z,,,,,,,,,,,4199.0129998568445,completion,,,,,,,low,high,,,,,,,false,,,,,false,1079709.899999857,1079709.399999857,1075493.636,1075507.5999999046,1075510.387,1079710.416,5,600,,
