sender,sender_type,sender_id,timestamp,meta,,age,blockNo,c1,c2,condition,control_tolerance,correct,correctResponse,duration,ended_on,f1,f1_high,f1_low,f2,f2_high,f2_low,feature_level1,feature_level2,gender,img_left,img_reveal,img_right,n_control_images,n_target_images,practice,range_tolerance,response,response_action,selection_duration,staircase,time_commit,time_end,time_render,time_run,time_show,time_switch,total_blocks,total_trials,trialNo,url
informed_consent,html.Screen,0,2023-11-30T18:28:03.405Z,"{""labjs_version"":""20.2.4"",""labjs_build"":{""flavor"":""development"",""commit"":""f5b4a49f956347addd546a832a3327688c2c0fef""},""location"":""https://labjs.felixhenninger.com/api/labjs_preview/index.html"",""userAgent"":""Mozilla/5.0 (Windows NT 10.0; Win64; x64) AppleWebKit/537.36 (KHTML, like Gecko) Chrome/119.0.0.0 Safari/537.36"",""platform"":""Win32"",""language"":""en-US"",""locale"":""en-US"",""timeZone"":""America/Chicago"",""timezoneOffset"":360,""screen_width"":1920,""screen_height"":1080,""scroll_width"":945,""scroll_height"":918,""window_innerWidth"":945,""window_innerHeight"":966,""devicePixelRatio"":1}",,,,,,,,,,17680.85999990463,response,,,,,,,,,,,,,,,,,consent,click button,,,18428.599999904633,18419.599999904633,722.172,927.7000000476837,738.74,18239.015,,,,{}
Demography form,html.Form,1,2023-11-30T18:28:09.293Z,,,18,,,,,,,,6077.885000095368,form submission,,,,,,,,,female,,,,,,,,,,,,24317.099999904633,24316.900000095367,18222.252,18428.799999952316,18239.015,24122.158,,,,
Welcome,html.Screen,2,2023-11-30T18:28:28.013Z,,,,,,,"[""asym"",""bor""]",,,,18913.542000047684,response,,,,,,,,,,,,,,,,,continue,click button,,,43036.299999952316,43035.700000047684,24105.487,24317.099999904633,24122.158,42839.052,,,,
demo_instructions,html.Screen,3,2023-11-30T18:28:45.837Z,,,,,,,,,,,18020.747999952313,response,,,,,,,,,,,,,,,,,continue,click button,,,60860.40000009537,60859.799999952316,42822.303,43036.40000009537,42839.052,60672.22,,,,
trial,html.Screen,4_0_0,2023-11-30T18:28:50.079Z,,,,0,-1.255256820488545,-1.1206426433062562,,,false,hh,4429.180000095366,response,1.201100953917304,1.2,-1.2,1.1751492358160105,1.2,-1.2,high,high,,ISIC_0024652.JPG,,ISIC_0647224.JPG,,26,true,0.15000000000000002,ll,keypress(f),100,false,65101.5,65101.40000009537,60655.488,60860.59999990463,60672.22,64905.6,1,16,1,
sequence,flow.Sequence,4_0,2023-11-30T18:28:50.086Z,,,,,,,,,,,4429.180000095366,completion,,,,,,,high,high,,,,,,,true,,,,,false,65108.700000047684,65101.40000009537,60655.488,60860.59999990463,60672.22,64905.6,1,16,,
trial,html.Screen,4_1_0,2023-11-30T18:28:54.825Z,,,,0,-1.2282561398079586,-1.210457198775374,,,true,hh,4942.499999904634,response,1.2012395086389958,1.2,-1.2,1.0618985767073823,1.2,-1.2,high,high,,ISIC_9141817.JPG,,ISIC_9876004.JPG,,26,true,0.15000000000000002,hh,keypress(i),100,false,69848.40000009537,69848.09999990463,64888.865,65108.799999952316,64905.6,69655.64,1,16,2,
sequence,flow.Sequence,4_1,2023-11-30T18:28:54.826Z,,,,,,,,,,,4942.499999904634,completion,,,,,,,high,high,,,,,,,true,,,,,false,69848.79999995232,69848.09999990463,64888.865,65108.799999952316,64905.6,69655.64,1,16,,
trial,html.Screen,4_2_0,2023-11-30T18:28:58.977Z,,,,0,-1.126264390089724,-1.271896565050952,,,true,hh,4343.959999904633,response,1.2711018615747949,1.2,-1.2,1.1042234044781618,1.2,-1.2,high,high,,ISIC_1520897.JPG,,ISIC_8603734.JPG,,26,true,0.15000000000000002,hh,keypress(i),100,false,73999.79999995232,73999.59999990463,69638.864,69848.90000009537,69655.64,73805.526,1,16,3,
sequence,flow.Sequence,4_2,2023-11-30T18:28:58.977Z,,,,,,,,,,,4343.959999904633,completion,,,,,,,high,high,,,,,,,true,,,,,false,74000.20000004768,73999.59999990463,69638.864,69848.90000009537,69655.64,73805.526,1,16,,
trial,html.Screen,4_3_0,2023-11-30T18:29:01.353Z,,,,0,-1.2254187569955004,-1.174555235109734,,,true,hh,2570.6740000476857,response,1.057008495826831,1.2,-1.2,1.1278122585028287,1.2,-1.2,high,high,,ISIC_0027187.JPG,,ISIC_2819798.JPG,,26,true,0.15000000000000002,hh,keypress(i),100,false,76376.5,76376.20000004768,73788.859,74000.40000009537,73805.526,76188.887,1,16,4,
sequence,flow.Sequence,4_3,2023-11-30T18:29:01.354Z,,,,,,,,,,,2570.6740000476857,completion,,,,,,,high,high,,,,,,,true,,,,,false,76376.70000004768,76376.20000004768,73788.859,74000.29999995232,73805.526,76188.887,1,16,,
trial,html.Screen,4_4_0,2023-11-30T18:29:03.344Z,,,,0,1.201100953917304,1.1751492358160105,,,false,ll,2178.013000095365,response,-1.2249552940807693,1.2,-1.2,-1.1723015116910682,1.2,-1.2,low,low,,ISIC_0647224.JPG,,ISIC_0055251.JPG,,30,true,0.1,lh,keypress(e),100,false,78367.09999990463,78366.90000009537,76172.234,76376.90000009537,76188.887,78172.428,1,16,5,
sequence,flow.Sequence,4_4,2023-11-30T18:29:03.344Z,,,,,,,,,,,2178.013000095365,completion,,,,,,,low,low,,,,,,,true,,,,,false,78367.40000009537,78366.90000009537,76172.234,76376.79999995232,76188.887,78172.428,1,16,,
trial,html.Screen,4_5_0,2023-11-30T18:29:10.248Z,,,,0,1.1653123206802332,1.2976858999596654,,,true,ll,7097.871999952316,response,-1.0698162624196283,1.2,-1.2,-1.219634566983089,1.2,-1.2,low,low,,ISIC_0071508.JPG,,ISIC_0030552.JPG,,53,true,0.15000000000000002,ll,keypress(f),100,false,85270.59999990463,85270.29999995232,78155.545,78367.59999990463,78172.428,85089.025,1,16,6,
sequence,flow.Sequence,4_5,2023-11-30T18:29:10.248Z,,,,,,,,,,,7097.871999952316,completion,,,,,,,low,low,,,,,,,true,,,,,false,85270.90000009537,85270.29999995232,78155.545,78367.59999990463,78172.428,85089.025,1,16,,
trial,html.Screen,4_6_0,2023-11-30T18:29:15.712Z,,,,0,1.3189473926989124,1.0770264364718942,,,true,ll,5645.875000095373,response,-1.2493792664822851,1.2,-1.2,-1.1336008561684745,1.2,-1.2,low,low,,ISIC_6093728.JPG,,ISIC_0061475.JPG,,53,true,0.15000000000000002,ll,keypress(f),100,false,90735,90734.90000009537,85072.33,85271.09999990463,85089.025,90539.036,1,16,7,
sequence,flow.Sequence,4_6,2023-11-30T18:29:15.712Z,,,,,,,,,,,5645.875000095373,completion,,,,,,,low,low,,,,,,,true,,,,,false,90735.29999995232,90734.90000009537,85072.33,85271,85089.025,90539.036,1,16,,
trial,html.Screen,4_7_0,2023-11-30T18:29:18.357Z,,,,0,1.2024083555600384,1.149077673153018,,,true,ll,2841.164000047691,response,-1.2254187569955004,1.2,-1.2,-1.174555235109734,1.2,-1.2,low,low,,ISIC_3566243.JPG,,ISIC_0027187.JPG,,53,true,0.15000000000000002,ll,keypress(f),100,false,93380.40000009537,93380.20000004768,90522.236,90735.29999995232,90539.036,93188.878,1,16,8,
sequence,flow.Sequence,4_7,2023-11-30T18:29:18.358Z,,,,,,,,,,,2841.164000047691,completion,,,,,,,low,low,,,,,,,true,,,,,false,93380.70000004768,93380.20000004768,90522.236,90735.29999995232,90539.036,93188.878,1,16,,
trial,html.Screen,4_8_0,2023-11-30T18:29:26.053Z,,,,0,0.8487429103619056,-0.9778257804233036,,,true,lh,7886.622000000003,response,-0.8092423703106274,1.2,-1.2,1.1870093485714288,1.2,-1.2,low,high,,ISIC_4554863.JPG,,ISIC_8592235.JPG,,27,true,0.42000000000000026,lh,keypress(e),100,false,101075.59999990463,101075.5,93172.256,93380.79999995232,93188.878,100888.912,1,16,9,
sequence,flow.Sequence,4_8,2023-11-30T18:29:26.053Z,,,,,,,,,,,7886.622000000003,completion,,,,,,,low,high,,,,,,,true,,,,,false,101075.90000009537,101075.5,93172.256,93380.70000004768,93188.878,100888.912,1,16,,
trial,html.Screen,4_9_0,2023-11-30T18:29:30.612Z,,,,0,1.0143509683988825,-1.3163955902021656,,,true,lh,4745.88799995232,response,-0.809764442462202,1.2,-1.2,1.005337148078696,1.2,-1.2,low,high,,ISIC_0062031.JPG,,ISIC_2379379.JPG,,27,true,0.42000000000000026,lh,keypress(e),100,false,105635.09999990463,105634.79999995232,100872.243,101076,100888.912,105438.959,1,16,10,
sequence,flow.Sequence,4_9,2023-11-30T18:29:30.613Z,,,,,,,,,,,4745.88799995232,completion,,,,,,,low,high,,,,,,,true,,,,,false,105635.59999990463,105634.79999995232,100872.243,101076,100888.912,105438.959,1,16,,
trial,html.Screen,4_10_0,2023-11-30T18:29:33.476Z,,,,0,0.8979276789594874,-0.925374811016654,,,true,lh,3059.8409999523137,response,-0.8623414234919863,1.2,-1.2,0.782830143980698,1.2,-1.2,low,high,,ISIC_4208361.JPG,,ISIC_2727016.JPG,,27,true,0.42000000000000026,lh,keypress(e),100,false,108499,108498.79999995232,105422.228,105635.70000004768,105438.959,108305.643,1,16,11,
sequence,flow.Sequence,4_10,2023-11-30T18:29:33.476Z,,,,,,,,,,,3059.8409999523137,completion,,,,,,,low,high,,,,,,,true,,,,,false,108499.40000009537,108498.79999995232,105422.228,105635.59999990463,105438.959,108305.643,1,16,,
trial,html.Screen,4_11_0,2023-11-30T18:29:36.884Z,,,,0,0.9579209317488,-1.0147487101263497,,,true,lh,3600.757000095371,response,-0.7871162143493278,1.2,-1.2,0.8429329800778957,1.2,-1.2,low,high,,ISIC_8124482.JPG,,ISIC_3439215.JPG,,27,true,0.42000000000000026,lh,keypress(e),100,false,111906.59999990463,111906.40000009537,108288.895,108499.5,108305.643,111722.394,1,16,12,
sequence,flow.Sequence,4_11,2023-11-30T18:29:36.884Z,,,,,,,,,,,3600.757000095371,completion,,,,,,,low,high,,,,,,,true,,,,,false,111906.79999995232,111906.40000009537,108288.895,108499.40000009537,108305.643,111722.394,1,16,,
trial,html.Screen,4_12_0,2023-11-30T18:29:42.866Z,,,,0,-0.8623414234919863,0.782830143980698,,,false,hl,6166.205999904632,response,0.991282840649944,1.2,-1.2,-0.9397921099839784,1.2,-1.2,high,low,,ISIC_2727016.JPG,,ISIC_0000463.JPG,,26,true,0.3600000000000002,hh,keypress(i),100,false,117888.79999995232,117888.59999990463,111705.552,111906.90000009537,111722.394,117705.647,1,16,13,
sequence,flow.Sequence,4_12,2023-11-30T18:29:42.866Z,,,,,,,,,,,6166.205999904632,completion,,,,,,,high,low,,,,,,,true,,,,,false,117889.20000004768,117888.59999990463,111705.552,111906.79999995232,111722.394,117705.647,1,16,,
trial,html.Screen,4_13_0,2023-11-30T18:29:44.716Z,,,,0,-0.8947611078712571,0.8960964505004638,,,false,hl,2033.3530000000028,response,1.2075172235545184,1.2,-1.2,-0.9116724966267612,1.2,-1.2,high,low,,ISIC_6441128.JPG,,ISIC_0024235.JPG,,33,true,0.42000000000000026,hh,keypress(i),100,false,119739.09999990463,119739,117688.948,117889.20000004768,117705.647,119555.585,1,16,14,
sequence,flow.Sequence,4_13,2023-11-30T18:29:44.716Z,,,,,,,,,,,2033.3530000000028,completion,,,,,,,high,low,,,,,,,true,,,,,false,119739.40000009537,119739,117688.948,117889.20000004768,117705.647,119555.585,1,16,,
trial,html.Screen,4_14_0,2023-11-30T18:29:46.750Z,,,,0,-0.8035152873995188,0.82868450251632,,,false,hl,2216.4149999999936,response,0.8487429103619056,1.2,-1.2,-0.9778257804233036,1.2,-1.2,high,low,,ISIC_0010671.JPG,,ISIC_4554863.JPG,,33,true,0.42000000000000026,hh,keypress(i),100,false,121772.20000004768,121772,119538.932,119739.40000009537,119555.585,121589.046,1,16,15,
sequence,flow.Sequence,4_14,2023-11-30T18:29:46.750Z,,,,,,,,,,,2216.4149999999936,completion,,,,,,,high,low,,,,,,,true,,,,,false,121772.29999995232,121772,119538.932,119739.40000009537,119555.585,121589.046,1,16,,
trial,html.Screen,4_15_0,2023-11-30T18:29:48.384Z,,,,0,-0.796241477082623,0.9017449335975743,,,false,hl,1817.0539999046305,response,1.011737552725394,1.2,-1.2,-0.8500530224490773,1.2,-1.2,high,low,,ISIC_8588033.JPG,,ISIC_2998367.JPG,,33,true,0.42000000000000026,hh,keypress(i),100,false,123406.20000004768,123406.09999990463,121572.273,121772.5,121589.046,123222.269,1,16,16,
sequence,flow.Sequence,4_15,2023-11-30T18:29:48.384Z,,,,,,,,,,,1817.0539999046305,completion,,,,,,,high,low,,,,,,,true,,,,,false,123406.5,123406.09999990463,121572.273,121772.40000009537,121589.046,123222.269,1,16,,
demonstration_loop,flow.Loop,4,2023-11-30T18:29:48.384Z,,,,,,,,,,,62733.87999990463,completion,,,,,,,,,,,,,,,true,,,,,false,123406.5,123406.09999990463,60655.488,60860.59999990463,60672.22,123222.269,1,16,,
practice_instructions,html.Screen,5,2023-11-30T18:30:05.134Z,,,,,,,,,,,16925.431000047683,response,,,,,,,,,,,,,,,,,continue,click button,,,140156.40000009537,140147.70000004768,123205.62,123406.5,123222.269,139972.269,,,,
trial,html.Screen,6_0_0,2023-11-30T18:30:20.961Z,,,,1,1.011737552725394,-0.8500530224490773,,,,,15800.029999999999,timeout,-1.0022829373011404,1.2,-1.2,0.8311726972863814,1.2,-1.2,low,high,,ISIC_2998367.JPG,,ISIC_0033287.JPG,,27,true,0.42000000000000026,,,0,false,155983.5,155983.40000009537,139922.269,140156.59999990463,139972.269,155772.299,1,40,1,
sequence,flow.Sequence,6_0,2023-11-30T18:30:20.961Z,,,,,,,,,,,16011.131000095367,completion,,,,,,,low,high,,,,,,,true,,,,,false,155983.79999995232,155983.40000009537,139922.269,140156.59999990463,139972.269,155772.299,1,40,,
trial,html.Screen,6_1_0,2023-11-30T18:30:23.080Z,,,,1,1.0959058628476686,1.1684835186766898,,,false,ll,2329.500999952317,response,-1.4074701149205395,1.2,-1.2,-0.9777963152799722,1.2,-1.2,low,low,,ISIC_5920470.JPG,,ISIC_0070588.JPG,,245,true,0.3600000000000002,hl,keypress(j),0,false,158102,158101.79999995232,155755.584,155983.90000009537,155772.299,157905.697,1,40,2,
sequence,flow.Sequence,6_1,2023-11-30T18:30:23.080Z,,,,,,,,,,,2329.500999952317,completion,,,,,,,low,low,,,,,,,true,,,,,false,158102.29999995232,158101.79999995232,155755.584,155983.90000009537,155772.299,157905.697,1,40,,
trial,html.Screen,6_2_0,2023-11-30T18:30:28.791Z,,,,1,1.1642596483638106,1.109799097093339,,,false,ll,5907.203000095382,response,-1.2254187569955004,1.2,-1.2,-1.174555235109734,1.2,-1.2,low,low,,ISIC_0765584.JPG,,ISIC_0027187.JPG,,53,true,0.15000000000000002,lh,keypress(e),0,false,163813.09999990463,163812.90000009537,157889.002,158102.5,157905.697,163605.682,1,40,3,
sequence,flow.Sequence,6_2,2023-11-30T18:30:28.791Z,,,,,,,,,,,5907.203000095382,completion,,,,,,,low,low,,,,,,,true,,,,,false,163813.40000009537,163812.90000009537,157889.002,158102.40000009537,157905.697,163605.682,1,40,,
trial,html.Screen,6_3_0,2023-11-30T18:30:32.446Z,,,,1,-1.2282561398079586,-1.210457198775374,,,true,hh,3862.8179999999993,response,1.1137763092539212,1.2,-1.2,1.1599906701455132,1.2,-1.2,high,high,,ISIC_9141817.JPG,,ISIC_5413788.JPG,,26,true,0.15000000000000002,hh,keypress(i),0,false,167468.59999990463,167468.5,163588.897,163813.59999990463,163605.682,167272.339,1,40,4,
sequence,flow.Sequence,6_3,2023-11-30T18:30:32.446Z,,,,,,,,,,,3862.8179999999993,completion,,,,,,,high,high,,,,,,,true,,,,,false,167468.79999995232,167468.5,163588.897,163813.59999990463,163605.682,167272.339,1,40,,
trial,html.Screen,6_4_0,2023-11-30T18:30:35.767Z,,,,1,-1.255256820488545,-1.1206426433062562,,,true,hh,3516.660999999993,response,1.0717785279820962,1.2,-1.2,1.1267239445830604,1.2,-1.2,high,high,,ISIC_0024652.JPG,,ISIC_9948815.JPG,,26,true,0.15000000000000002,hh,keypress(i),0,false,170789.29999995232,170789,167255.644,167468.79999995232,167272.339,170605.647,1,40,5,
sequence,flow.Sequence,6_4,2023-11-30T18:30:35.767Z,,,,,,,,,,,3516.660999999993,completion,,,,,,,high,high,,,,,,,true,,,,,false,170789.5,170789,167255.644,167468.79999995232,167272.339,170605.647,1,40,,
trial,html.Screen,6_5_0,2023-11-30T18:30:37.191Z,,,,1,1.331700944308701,-0.9395196143259436,,,true,lh,1607.4529999046354,response,-0.7870237732709365,1.2,-1.2,0.9172955251119376,1.2,-1.2,low,high,,ISIC_1668831.JPG,,ISIC_0057716.JPG,,27,true,0.42000000000000026,lh,keypress(e),0,false,172213.5,172213.09999990463,170572.327,170789.70000004768,170605.647,172005.614,1,40,6,
sequence,flow.Sequence,6_5,2023-11-30T18:30:37.192Z,,,,,,,,,,,1607.4529999046354,completion,,,,,,,low,high,,,,,,,true,,,,,false,172214,172213.09999990463,170572.327,170789.70000004768,170605.647,172005.614,1,40,,
trial,html.Screen,6_6_0,2023-11-30T18:30:38.830Z,,,,1,0.8579451262594331,-0.9633172970727744,,,true,lh,1846.685999952315,response,-0.7809949855371787,1.2,-1.2,0.8493861117004308,1.2,-1.2,low,high,,ISIC_0067172.JPG,,ISIC_7450481.JPG,,27,true,0.42000000000000026,lh,keypress(e),0,false,173852.40000009537,173852.29999995232,171988.99,172214.20000004768,172005.614,173655.606,1,40,7,
sequence,flow.Sequence,6_6,2023-11-30T18:30:38.830Z,,,,,,,,,,,1846.685999952315,completion,,,,,,,low,high,,,,,,,true,,,,,false,173852.5,173852.29999995232,171988.99,172214.20000004768,172005.614,173655.606,1,40,,
trial,html.Screen,6_7_0,2023-11-30T18:30:40.830Z,,,,1,-0.9873794329144926,0.7991077882008257,,,true,hl,2196.2940000953677,response,1.011737552725394,1.2,-1.2,-0.8500530224490773,1.2,-1.2,high,low,,ISIC_0013498.JPG,,ISIC_2998367.JPG,,26,true,0.3600000000000002,hl,keypress(j),0,false,175852,175851.90000009537,173638.942,173852.59999990463,173655.606,175655.661,1,40,8,
sequence,flow.Sequence,6_7,2023-11-30T18:30:40.830Z,,,,,,,,,,,2196.2940000953677,completion,,,,,,,high,low,,,,,,,true,,,,,false,175852.20000004768,175851.90000009537,173638.942,173852.5,173655.606,175655.661,1,40,,
trial,html.Screen,6_8_0,2023-11-30T18:30:45.662Z,,,,1,0.858338058340649,-0.9540612223480284,,,true,lh,5028.539000047691,response,-0.9235571765207048,1.2,-1.2,1.0008081653938232,1.2,-1.2,low,high,,ISIC_8922893.JPG,,ISIC_8796632.JPG,,27,true,0.42000000000000026,lh,keypress(e),0,false,180684.40000009537,180684.20000004768,175638.958,175852.20000004768,175655.661,180489.538,1,40,9,
sequence,flow.Sequence,6_8,2023-11-30T18:30:45.662Z,,,,,,,,,,,5028.539000047691,completion,,,,,,,low,high,,,,,,,true,,,,,false,180684.5,180684.20000004768,175638.958,175852.20000004768,175655.661,180489.538,1,40,,
trial,html.Screen,6_9_0,2023-11-30T18:30:50.471Z,,,,1,-0.991146183030456,0.9949639823722534,,,true,hl,5003.362000095367,response,1.0865333402803938,1.2,-1.2,-1.0542635307358266,1.2,-1.2,high,low,,ISIC_6342224.JPG,,ISIC_0034006.JPG,,26,true,0.3600000000000002,hl,keypress(j),0,false,185493.09999990463,185492.90000009537,180455.478,180684.59999990463,180489.538,185288.983,1,40,10,
sequence,flow.Sequence,6_9,2023-11-30T18:30:50.471Z,,,,,,,,,,,5003.362000095367,completion,,,,,,,high,low,,,,,,,true,,,,,false,185493.40000009537,185492.90000009537,180455.478,180684.59999990463,180489.538,185288.983,1,40,,
trial,html.Screen,6_10_0,2023-11-30T18:30:52.006Z,,,,1,0.879102500583965,-1.0933081951979773,,,true,lh,1739.1169999046251,response,-0.9388660854518424,1.2,-1.2,0.79533948698576,1.2,-1.2,low,high,,ISIC_0046223.JPG,,ISIC_9291926.JPG,,27,true,0.42000000000000026,lh,keypress(e),0,false,187028.20000004768,187028.09999990463,185272.403,185493.5,185288.983,186822.267,1,40,11,
sequence,flow.Sequence,6_10,2023-11-30T18:30:52.006Z,,,,,,,,,,,1739.1169999046251,completion,,,,,,,low,high,,,,,,,true,,,,,false,187028.29999995232,187028.09999990463,185272.403,185493.5,185288.983,186822.267,1,40,,
trial,html.Screen,6_11_0,2023-11-30T18:31:00.038Z,,,,1,-0.796241477082623,0.9017449335975743,,,true,hl,8237.83299990464,response,0.8809306963311293,1.2,-1.2,-0.8614910030038974,1.2,-1.2,high,low,,ISIC_8588033.JPG,,ISIC_0013731.JPG,,26,true,0.3600000000000002,hl,keypress(j),0,false,195060.09999990463,195060.09999990463,186805.894,187028.40000009537,186822.267,194855.667,1,40,12,
sequence,flow.Sequence,6_11,2023-11-30T18:31:00.038Z,,,,,,,,,,,8237.83299990464,completion,,,,,,,high,low,,,,,,,true,,,,,false,195060.20000004768,195060.09999990463,186805.894,187028.40000009537,186822.267,194855.667,1,40,,
trial,html.Screen,6_12_0,2023-11-30T18:31:04.271Z,,,,1,-0.8092423703106274,1.1870093485714288,,,true,hl,4437.233000095381,response,1.27543269240326,1.2,-1.2,-0.80839597388021,1.2,-1.2,high,low,,ISIC_8592235.JPG,,ISIC_3296136.JPG,,33,true,0.42000000000000026,hl,keypress(j),0,false,199293.09999990463,199292.90000009537,194838.783,195060.29999995232,194855.667,199089.004,1,40,13,
sequence,flow.Sequence,6_12,2023-11-30T18:31:04.271Z,,,,,,,,,,,4437.233000095381,completion,,,,,,,high,low,,,,,,,true,,,,,false,199293.29999995232,199292.90000009537,194838.783,195060.29999995232,194855.667,199089.004,1,40,,
trial,html.Screen,6_13_0,2023-11-30T18:31:05.431Z,,,,1,1.0026266089287914,-1.0913275913920335,,,true,lh,1363.9960000000137,response,-1.0022829373011404,1.2,-1.2,0.8311726972863814,1.2,-1.2,low,high,,ISIC_0033520.JPG,,ISIC_0033287.JPG,,27,true,0.42000000000000026,lh,keypress(e),0,false,200453.20000004768,200453,199072.233,199293.5,199089.004,200255.723,1,40,14,
sequence,flow.Sequence,6_13,2023-11-30T18:31:05.431Z,,,,,,,,,,,1363.9960000000137,completion,,,,,,,low,high,,,,,,,true,,,,,false,200453.5,200453,199072.233,199293.5,199089.004,200255.723,1,40,,
trial,html.Screen,6_14_0,2023-11-30T18:31:07.022Z,,,,1,-1.101346104814838,-1.1225813067473052,,,true,hh,1788.8769999046344,response,0.9762504074572108,1.2,-1.2,1.3073104524738453,1.2,-1.2,high,high,,ISIC_8175453.JPG,,ISIC_5796736.JPG,,179,true,0.3600000000000002,hh,keypress(i),0,false,202044.70000004768,202044.59999990463,200239.107,200453.70000004768,200255.723,201855.645,1,40,15,
sequence,flow.Sequence,6_14,2023-11-30T18:31:07.023Z,,,,,,,,,,,1788.8769999046344,completion,,,,,,,high,high,,,,,,,true,,,,,false,202045,202044.59999990463,200239.107,200453.59999990463,200255.723,201855.645,1,40,,
trial,html.Screen,6_15_0,2023-11-30T18:31:10.006Z,,,,1,-0.9235571765207048,1.0008081653938232,,,true,hl,3172.555000047694,response,1.0865333402803938,1.2,-1.2,-1.0542635307358266,1.2,-1.2,high,low,,ISIC_8796632.JPG,,ISIC_0034006.JPG,,26,true,0.3600000000000002,hl,keypress(j),0,false,205028.29999995232,205028.20000004768,201822.353,202045.09999990463,201855.645,204822.368,1,40,16,
sequence,flow.Sequence,6_15,2023-11-30T18:31:10.006Z,,,,,,,,,,,3172.555000047694,completion,,,,,,,high,low,,,,,,,true,,,,,false,205028.5,205028.20000004768,201822.353,202045,201855.645,204822.368,1,40,,
trial,html.Screen,6_16_0,2023-11-30T18:31:11.215Z,,,,1,1.086647361897092,1.1528935990320313,,,true,ll,1414.4319999523286,response,-0.8691120116185356,1.2,-1.2,-0.7932562349979263,1.2,-1.2,low,low,,ISIC_3505339.JPG,,ISIC_0031350.JPG,,339,true,0.42000000000000026,ll,keypress(f),0,false,206237,206236.79999995232,204805.716,205028.5,204822.368,206039,1,40,17,
sequence,flow.Sequence,6_16,2023-11-30T18:31:11.215Z,,,,,,,,,,,1414.4319999523286,completion,,,,,,,low,low,,,,,,,true,,,,,false,206237.29999995232,206236.79999995232,204805.716,205028.5,204822.368,206039,1,40,,
trial,html.Screen,6_17_0,2023-11-30T18:31:12.262Z,,,,1,0.9696118525781644,-0.9244148283103414,,,true,lh,1245,response,-0.8200962008791046,1.2,-1.2,0.7936051642828523,1.2,-1.2,low,high,,ISIC_7927525.JPG,,ISIC_0027031.JPG,,27,true,0.42000000000000026,lh,keypress(e),0,false,207284.09999990463,207284,206022.363,206237.40000009537,206039,207089,1,40,18,
sequence,flow.Sequence,6_17,2023-11-30T18:31:12.262Z,,,,,,,,,,,1245,completion,,,,,,,low,high,,,,,,,true,,,,,false,207284.20000004768,207284,206022.363,206237.40000009537,206039,207089,1,40,,
trial,html.Screen,6_18_0,2023-11-30T18:31:15.230Z,,,,1,1.1598623261077452,1.203269031614007,,,true,ll,3163.4000000953674,response,-1.081764451727175,1.2,-1.2,-1.4776922599508655,1.2,-1.2,low,low,,ISIC_0002639.JPG,,ISIC_0011753.JPG,,245,true,0.3600000000000002,ll,keypress(f),0,false,210252.40000009537,210252.40000009537,207072.364,207284.20000004768,207089,210055.898,1,40,19,
sequence,flow.Sequence,6_18,2023-11-30T18:31:15.230Z,,,,,,,,,,,3163.4000000953674,completion,,,,,,,low,low,,,,,,,true,,,,,false,210252.59999990463,210252.40000009537,207072.364,207284.20000004768,207089,210055.898,1,40,,
trial,html.Screen,6_19_0,2023-11-30T18:31:18.455Z,,,,1,-1.1346217981791904,-1.1555132168806113,,,true,hh,3421.201999904646,response,1.2724584600905462,1.2,-1.2,1.1411016103695344,1.2,-1.2,high,high,,ISIC_0032771.JPG,,ISIC_0059625.JPG,,26,true,0.15000000000000002,hh,keypress(i),0,false,213477.40000009537,213477.09999990463,210038.963,210252.59999990463,210055.898,213272.361,1,40,20,
sequence,flow.Sequence,6_19,2023-11-30T18:31:18.456Z,,,,,,,,,,,3421.201999904646,completion,,,,,,,high,high,,,,,,,true,,,,,false,213477.79999995232,213477.09999990463,210038.963,210252.59999990463,210055.898,213272.361,1,40,,
trial,html.Screen,6_20_0,2023-11-30T18:31:20.390Z,,,,1,1.2012395086389958,1.0618985767073823,,,true,ll,2140.039000095363,response,-1.255256820488545,1.2,-1.2,-1.1206426433062562,1.2,-1.2,low,low,,ISIC_9876004.JPG,,ISIC_0024652.JPG,,30,true,0.1,ll,keypress(f),0,false,215412.59999990463,215412.40000009537,213255.84,213478,213272.361,215222.354,1,40,21,
sequence,flow.Sequence,6_20,2023-11-30T18:31:20.391Z,,,,,,,,,,,2140.039000095363,completion,,,,,,,low,low,,,,,,,true,,,,,false,215412.70000004768,215412.40000009537,213255.84,213477.90000009537,213272.361,215222.354,1,40,,
trial,html.Screen,6_21_0,2023-11-30T18:31:21.919Z,,,,1,-1.276222161935671,0.9657780821973284,,,true,hl,1718.4459999523242,response,1.2075172235545184,1.2,-1.2,-0.9116724966267612,1.2,-1.2,high,low,,ISIC_6710411.JPG,,ISIC_0024235.JPG,,26,true,0.3600000000000002,hl,keypress(j),0,false,216941.09999990463,216940.79999995232,215189.064,215412.79999995232,215222.354,216739.128,1,40,22,
sequence,flow.Sequence,6_21,2023-11-30T18:31:21.919Z,,,,,,,,,,,1718.4459999523242,completion,,,,,,,high,low,,,,,,,true,,,,,false,216941.40000009537,216940.79999995232,215189.064,215412.79999995232,215222.354,216739.128,1,40,,
trial,html.Screen,6_22_0,2023-11-30T18:31:23.550Z,,,,1,1.0858641668099058,1.1638942560200525,,,true,ll,1833.1719999523193,response,-1.5991420777214922,1.2,-1.2,-0.8537959673208323,1.2,-1.2,low,low,,ISIC_5439597.JPG,,ISIC_0062058.JPG,,339,true,0.42000000000000026,ll,keypress(f),0,false,218572.40000009537,218572.29999995232,216722.455,216941.5,216739.128,218372.348,1,40,23,
sequence,flow.Sequence,6_22,2023-11-30T18:31:23.550Z,,,,,,,,,,,1833.1719999523193,completion,,,,,,,low,low,,,,,,,true,,,,,false,218572.59999990463,218572.29999995232,216722.455,216941.5,216739.128,218372.348,1,40,,
trial,html.Screen,6_23_0,2023-11-30T18:31:31.047Z,,,,1,0.879102500583965,-1.0933081951979773,,,true,lh,7696.251999904634,response,-0.7871162143493278,1.2,-1.2,0.8429329800778957,1.2,-1.2,low,high,,ISIC_0046223.JPG,,ISIC_3439215.JPG,,27,true,0.42000000000000026,lh,keypress(e),0,false,226068.79999995232,226068.59999990463,218355.694,218572.59999990463,218372.348,225872.406,1,40,24,
sequence,flow.Sequence,6_23,2023-11-30T18:31:31.047Z,,,,,,,,,,,7696.251999904634,completion,,,,,,,low,high,,,,,,,true,,,,,false,226069.20000004768,226068.59999990463,218355.694,218572.59999990463,218372.348,225872.406,1,40,,
trial,html.Screen,6_24_0,2023-11-30T18:31:37.094Z,,,,1,-0.7998855902596425,1.1518579145663017,,,true,hl,6243.693999904644,response,0.9579209317488,1.2,-1.2,-1.0147487101263497,1.2,-1.2,high,low,,ISIC_0025061.JPG,,ISIC_8124482.JPG,,26,true,0.3600000000000002,hl,keypress(j),0,false,232116.20000004768,232116.09999990463,225855.676,226069.29999995232,225872.406,231905.668,1,40,25,
sequence,flow.Sequence,6_24,2023-11-30T18:31:37.094Z,,,,,,,,,,,6243.693999904644,completion,,,,,,,high,low,,,,,,,true,,,,,false,232116.29999995232,232116.09999990463,225855.676,226069.29999995232,225872.406,231905.668,1,40,,
trial,html.Screen,6_25_0,2023-11-30T18:31:39.566Z,,,,1,1.1598623261077452,1.203269031614007,,,true,ll,2682.5320000476786,response,-1.2656999005671434,1.2,-1.2,-0.801432048150317,1.2,-1.2,low,low,,ISIC_0002639.JPG,,ISIC_0057016.JPG,,339,true,0.42000000000000026,ll,keypress(f),0,false,234588.29999995232,234588.20000004768,231888.961,232116.29999995232,231905.668,234389.05,1,40,26,
sequence,flow.Sequence,6_25,2023-11-30T18:31:39.566Z,,,,,,,,,,,2682.5320000476786,completion,,,,,,,low,low,,,,,,,true,,,,,false,234588.40000009537,234588.20000004768,231888.961,232116.29999995232,231905.668,234389.05,1,40,,
trial,html.Screen,6_26_0,2023-11-30T18:31:41.695Z,,,,1,-0.9873794329144926,0.7991077882008257,,,true,hl,2328.1500000476954,response,0.8979276789594874,1.2,-1.2,-0.925374811016654,1.2,-1.2,high,low,,ISIC_0013498.JPG,,ISIC_4208361.JPG,,26,true,0.3600000000000002,hl,keypress(j),0,false,236717.5,236717.20000004768,234372.355,234588.5,234389.05,236523.246,1,40,27,
sequence,flow.Sequence,6_26,2023-11-30T18:31:41.696Z,,,,,,,,,,,2328.1500000476954,completion,,,,,,,high,low,,,,,,,true,,,,,false,236717.79999995232,236717.20000004768,234372.355,234588.5,234389.05,236523.246,1,40,,
trial,html.Screen,6_27_0,2023-11-30T18:31:43.814Z,,,,1,-1.2750452296609045,-1.1682369131232675,,,true,hh,2313.2539999999863,response,0.7828164565982022,1.2,-1.2,1.1052448965242172,1.2,-1.2,high,high,,ISIC_0066399.JPG,,ISIC_0067840.JPG,,253,true,0.42000000000000026,hh,keypress(i),0,false,238836.59999990463,238836.5,236489.094,236718,236523.246,238639.201,1,40,28,
sequence,flow.Sequence,6_27,2023-11-30T18:31:43.815Z,,,,,,,,,,,2313.2539999999863,completion,,,,,,,high,high,,,,,,,true,,,,,false,238836.79999995232,238836.5,236489.094,236717.90000009537,236523.246,238639.201,1,40,,
trial,html.Screen,6_28_0,2023-11-30T18:31:45.847Z,,,,1,-1.2249552940807693,-1.1723015116910682,,,true,hh,2229.1990000953665,response,1.2318069697449794,1.2,-1.2,1.1703576816778267,1.2,-1.2,high,high,,ISIC_0055251.JPG,,ISIC_2732573.JPG,,26,true,0.15000000000000002,hh,keypress(i),0,false,240868.59999990463,240868.40000009537,238622.495,238836.90000009537,238639.201,240672.384,1,40,29,
sequence,flow.Sequence,6_28,2023-11-30T18:31:45.847Z,,,,,,,,,,,2229.1990000953665,completion,,,,,,,high,high,,,,,,,true,,,,,false,240868.79999995232,240868.40000009537,238622.495,238836.90000009537,238639.201,240672.384,1,40,,
trial,html.Screen,6_29_0,2023-11-30T18:31:47.183Z,,,,1,0.9696118525781644,-0.9244148283103414,,,true,lh,1532.616000000009,response,-0.9388660854518424,1.2,-1.2,0.79533948698576,1.2,-1.2,low,high,,ISIC_7927525.JPG,,ISIC_9291926.JPG,,27,true,0.42000000000000026,lh,keypress(e),0,false,242205.20000004768,242205,240655.8,240868.90000009537,240672.384,242005.871,1,40,30,
sequence,flow.Sequence,6_29,2023-11-30T18:31:47.184Z,,,,,,,,,,,1532.616000000009,completion,,,,,,,low,high,,,,,,,true,,,,,false,242205.5,242205,240655.8,240868.90000009537,240672.384,242005.871,1,40,,
trial,html.Screen,6_30_0,2023-11-30T18:31:48.423Z,,,,1,1.1598623261077452,1.203269031614007,,,true,ll,1439.0290000953537,response,-0.8426401499140178,1.2,-1.2,-0.9561650569523902,1.2,-1.2,low,low,,ISIC_0002639.JPG,,ISIC_0060380.JPG,,245,true,0.3600000000000002,ll,keypress(f),0,false,243445.09999990463,243444.90000009537,241989.221,242205.70000004768,242005.871,243272.389,1,40,31,
sequence,flow.Sequence,6_30,2023-11-30T18:31:48.424Z,,,,,,,,,,,1439.0290000953537,completion,,,,,,,low,low,,,,,,,true,,,,,false,243445.5,243444.90000009537,241989.221,242205.59999990463,242005.871,243272.389,1,40,,
trial,html.Screen,6_31_0,2023-11-30T18:31:49.958Z,,,,1,-0.809764442462202,1.005337148078696,,,true,hl,1707.5110000953719,response,0.8487429103619056,1.2,-1.2,-0.9778257804233036,1.2,-1.2,high,low,,ISIC_2379379.JPG,,ISIC_4554863.JPG,,26,true,0.3600000000000002,hl,keypress(j),0,false,244980,244979.90000009537,243222.532,243445.59999990463,243272.389,244772.428,1,40,32,
sequence,flow.Sequence,6_31,2023-11-30T18:31:49.958Z,,,,,,,,,,,1707.5110000953719,completion,,,,,,,high,low,,,,,,,true,,,,,false,244980.09999990463,244979.90000009537,243222.532,243445.59999990463,243272.389,244772.428,1,40,,
trial,html.Screen,6_32_0,2023-11-30T18:31:52.798Z,,,,1,-1.101346104814838,-1.1225813067473052,,,true,hh,3047.7720000476693,response,0.8329154010765664,1.2,-1.2,0.9000661178885296,1.2,-1.2,high,high,,ISIC_8175453.JPG,,ISIC_7407847.JPG,,253,true,0.42000000000000026,hh,keypress(i),0,false,247820.20000004768,247820.20000004768,244755.915,244980.09999990463,244772.428,247622.402,1,40,33,
sequence,flow.Sequence,6_32,2023-11-30T18:31:52.799Z,,,,,,,,,,,3047.7720000476693,completion,,,,,,,high,high,,,,,,,true,,,,,false,247820.40000009537,247820.20000004768,244755.915,244980.09999990463,244772.428,247622.402,1,40,,
trial,html.Screen,6_33_0,2023-11-30T18:31:54.446Z,,,,1,-0.991146183030456,0.9949639823722534,,,true,hl,1845.6979999046307,response,1.2075172235545184,1.2,-1.2,-0.9116724966267612,1.2,-1.2,high,low,,ISIC_6342224.JPG,,ISIC_0024235.JPG,,26,true,0.3600000000000002,hl,keypress(j),0,false,249468.29999995232,249468.09999990463,247605.672,247820.5,247622.402,249272.463,1,40,34,
sequence,flow.Sequence,6_33,2023-11-30T18:31:54.447Z,,,,,,,,,,,1845.6979999046307,completion,,,,,,,high,low,,,,,,,true,,,,,false,249468.40000009537,249468.09999990463,247605.672,247820.5,247622.402,249272.463,1,40,,
trial,html.Screen,6_34_0,2023-11-30T18:31:57.734Z,,,,1,1.0858641668099058,1.1638942560200525,,,true,ll,3483.737000047695,response,-1.2071341803968807,1.2,-1.2,-1.235960269089932,1.2,-1.2,low,low,,ISIC_5439597.JPG,,ISIC_0058174.JPG,,339,true,0.42000000000000026,ll,keypress(f),0,false,252756.40000009537,252756.20000004768,249239.066,249468.5,249272.463,252555.987,1,40,35,
sequence,flow.Sequence,6_34,2023-11-30T18:31:57.735Z,,,,,,,,,,,3483.737000047695,completion,,,,,,,low,low,,,,,,,true,,,,,false,252756.5,252756.20000004768,249239.066,249468.5,249272.463,252555.987,1,40,,
trial,html.Screen,6_35_0,2023-11-30T18:31:59.743Z,,,,1,-1.1033977063872138,-1.2513071571733083,,,true,hh,2208.612999904639,response,1.3189473926989124,1.2,-1.2,1.0770264364718942,1.2,-1.2,high,high,,ISIC_0025472.JPG,,ISIC_6093728.JPG,,26,true,0.15000000000000002,hh,keypress(i),0,false,254764.70000004768,254764.59999990463,252538.979,252756.59999990463,252555.987,254555.769,1,40,36,
sequence,flow.Sequence,6_35,2023-11-30T18:31:59.743Z,,,,,,,,,,,2208.612999904639,completion,,,,,,,high,high,,,,,,,true,,,,,false,254765,254764.59999990463,252538.979,252756.59999990463,252555.987,254555.769,1,40,,
trial,html.Screen,6_36_0,2023-11-30T18:32:01.647Z,,,,1,-1.2282561398079586,-1.210457198775374,,,true,hh,2112.9310000476835,response,1.2711018615747949,1.2,-1.2,1.1042234044781618,1.2,-1.2,high,high,,ISIC_9141817.JPG,,ISIC_8603734.JPG,,26,true,0.15000000000000002,hh,keypress(i),0,false,256668.79999995232,256668.70000004768,254539.029,254765,254555.769,256472.44,1,40,37,
sequence,flow.Sequence,6_36,2023-11-30T18:32:01.647Z,,,,,,,,,,,2112.9310000476835,completion,,,,,,,high,high,,,,,,,true,,,,,false,256669.09999990463,256668.70000004768,254539.029,254765,254555.769,256472.44,1,40,,
trial,html.Screen,6_37_0,2023-11-30T18:32:03.270Z,,,,1,1.0959058628476686,1.1684835186766898,,,true,ll,1819.5599999999977,response,-1.247270138097585,1.2,-1.2,-1.1704704713504994,1.2,-1.2,low,low,,ISIC_5920470.JPG,,ISIC_0065774.JPG,,30,true,0.1,ll,keypress(f),0,false,258292.20000004768,258292,256455.91,256669.09999990463,256472.44,258089.069,1,40,38,
sequence,flow.Sequence,6_37,2023-11-30T18:32:03.270Z,,,,,,,,,,,1819.5599999999977,completion,,,,,,,low,low,,,,,,,true,,,,,false,258292.29999995232,258292,256455.91,256669.09999990463,256472.44,258089.069,1,40,,
trial,html.Screen,6_38_0,2023-11-30T18:32:06.390Z,,,,1,-1.2249552940807693,-1.1723015116910682,,,true,hh,3322.9310000000114,response,1.241406480986552,1.2,-1.2,1.081912821786771,1.2,-1.2,high,high,,ISIC_0055251.JPG,,ISIC_4223155.JPG,,26,true,0.15000000000000002,hh,keypress(i),0,false,261412.09999990463,261412,258072.606,258292.29999995232,258089.069,261205.756,1,40,39,
sequence,flow.Sequence,6_38,2023-11-30T18:32:06.390Z,,,,,,,,,,,3322.9310000000114,completion,,,,,,,high,high,,,,,,,true,,,,,false,261412.20000004768,261412,258072.606,258292.29999995232,258089.069,261205.756,1,40,,
trial,html.Screen,6_39_0,2023-11-30T18:32:07.991Z,,,,1,1.011737552725394,-0.8500530224490773,,,true,lh,1807.244000000006,response,-0.9235571765207048,1.2,-1.2,1.0008081653938232,1.2,-1.2,low,high,,ISIC_2998367.JPG,,ISIC_8796632.JPG,,27,true,0.42000000000000026,lh,keypress(e),0,false,263013.2999999523,263013,261189.015,261412.29999995232,261205.756,262805.734,1,40,40,
sequence,flow.Sequence,6_39,2023-11-30T18:32:07.992Z,,,,,,,,,,,1807.244000000006,completion,,,,,,,low,high,,,,,,,true,,,,,false,263013.7000000477,263013,261189.015,261412.29999995232,261205.756,262805.734,1,40,,
practice_loop,flow.Loop,6,2023-11-30T18:32:07.992Z,,,,,,,,,,,123040.731,completion,,,,,,,,,,,,,,,true,,,,,false,263013.90000009537,263013,139922.269,140156.5,139972.269,262805.734,1,40,,
stair_instructions,html.Screen,7,2023-11-30T18:32:26.454Z,,,,,,,,,,,18670.06599995232,response,,,,,,,,,,,,,,,,,continue,click button,,,281476.40000009537,281475.7999999523,262789.309,263014.09999990463,262805.734,281272.441,,,,
trial,html.Screen,8_0_0,2023-11-30T18:32:33.506Z,,,,2,0.0188047466661863,-0.0288346930436979,,0.05,false,hl,7254.858999952325,response,0.8809306963311293,1.2,-1.2,-0.8614910030038974,1.2,-1.2,high,low,,ISIC_0014157.JPG,,ISIC_0013731.JPG,33,26,false,0.3600000000000002,lh,keypress(e),0,true,288527.40000009537,288527.2999999523,281256.028,281476.5,281272.441,288339.158,1,40,1,
sequence,flow.Sequence,8_0,2023-11-30T18:32:33.506Z,,,,,,,,,,,7254.858999952325,completion,,,,,,,high,low,,,,,,,false,,,,,true,288527.59999990463,288527.2999999523,281256.028,281476.5,281272.441,288339.158,1,40,,
trial,html.Screen,8_1_0,2023-11-30T18:32:39.654Z,,,,2,-0.039728379742806,0.0228701131373768,,0.05,false,ll,6336.842000000004,response,-1.1033977063872138,1.2,-1.15,-1.2513071571733083,1.15,-1.2,low,low,,ISIC_0054073.JPG,,ISIC_0025472.JPG,33,29,false,0.1,lh,keypress(e),0,true,294676.2000000477,294676,288322.602,288527.59999990463,288339.158,294472.477,1,40,2,
sequence,flow.Sequence,8_1,2023-11-30T18:32:39.654Z,,,,,,,,,,,6336.842000000004,completion,,,,,,,low,low,,,,,,,false,,,,,true,294676.2999999523,294676,288322.602,288527.59999990463,288339.158,294472.477,1,40,,
trial,html.Screen,8_2_0,2023-11-30T18:32:48.856Z,,,,2,-0.0050679133050021,0.0009714874637896,,0.05,false,hl,9405.022999999986,response,1.020990671779317,1.15,-1.15,-1.0116513850520903,1.15,-1.2,high,low,,ISIC_9848743.JPG,,ISIC_0011995.JPG,33,26,false,0.3500000000000002,hh,keypress(i),0,true,303877.7999999523,303877.5,294455.809,294676.2999999523,294472.477,303689.15,1,40,3,
sequence,flow.Sequence,8_2,2023-11-30T18:32:48.857Z,,,,,,,,,,,9405.022999999986,completion,,,,,,,high,low,,,,,,,false,,,,,true,303878.2000000477,303877.5,294455.809,294676.2999999523,294472.477,303689.15,1,40,,
trial,html.Screen,8_3_0,2023-11-30T18:33:00.225Z,,,,2,-0.0389988030702649,-0.0143212271490256,,0.05,true,hl,11557.849999999977,response,1.0751036484083878,1.15,-1.15,-1.143906455483852,1.15,-1.2,high,low,,ISIC_0064669.JPG,,ISIC_0064406.JPG,33,26,false,0.3500000000000002,hl,keypress(j),0,true,315247.09999990463,315247,303655.721,303878.40000009537,303689.15,315039.165,1,40,4,
sequence,flow.Sequence,8_3,2023-11-30T18:33:00.226Z,,,,,,,,,,,11557.849999999977,completion,,,,,,,high,low,,,,,,,false,,,,,true,315247.2000000477,315247,303655.721,303878.2999999523,303689.15,315039.165,1,40,,
trial,html.Screen,8_4_0,2023-11-30T18:33:07.479Z,,,,2,0.0245376145053177,-0.0436993426328401,,0.05,false,ll,7461.4349999046535,response,-1.2435042401134029,1.0999999999999999,-1.15,-1.0592032583207498,1.15,-1.15,low,low,,ISIC_0056444.JPG,,ISIC_0056119.JPG,33,27,false,0.1,lh,keypress(e),0,true,322500.90000009537,322500.59999990463,315022.113,315247.2000000477,315039.165,322306.326,1,40,5,
sequence,flow.Sequence,8_4,2023-11-30T18:33:07.479Z,,,,,,,,,,,7461.4349999046535,completion,,,,,,,low,low,,,,,,,false,,,,,true,322501.09999990463,322500.59999990463,315022.113,315247.2000000477,315039.165,322306.326,1,40,,
trial,html.Screen,8_5_0,2023-11-30T18:33:14.711Z,,,,2,-0.0057914759495055,-0.0074667911845194,,0.05,false,lh,7426.5740000953665,response,-0.9235571765207048,1.0999999999999999,-1.1437053477986274,1.0008081653938232,1.15,-1.15,low,high,,ISIC_0058723.JPG,,ISIC_8796632.JPG,33,27,false,0.3700000000000002,hh,keypress(i),0,true,329733,329732.90000009537,322272.37,322501.2000000477,322306.326,329522.565,1,40,6,
sequence,flow.Sequence,8_5,2023-11-30T18:33:14.712Z,,,,,,,,,,,7426.5740000953665,completion,,,,,,,low,high,,,,,,,false,,,,,true,329733.2999999523,329732.90000009537,322272.37,322501.2000000477,322306.326,329522.565,1,40,,
trial,html.Screen,8_6_0,2023-11-30T18:33:20.191Z,,,,2,-0.039728379742806,0.0228701131373768,,0.05,false,hh,5689.53499990463,response,1.0717785279820962,1.0999999999999999,-1.1937053477986275,1.1267239445830604,1.15,-1.15,high,high,,ISIC_0054073.JPG,,ISIC_9948815.JPG,33,30,false,0.13,hl,keypress(j),0,true,335212.2999999523,335212.09999990463,329505.822,329733.40000009537,329522.565,335005.862,1,40,7,
sequence,flow.Sequence,8_6,2023-11-30T18:33:20.191Z,,,,,,,,,,,5689.53499990463,completion,,,,,,,high,high,,,,,,,false,,,,,true,335212.2999999523,335212.09999990463,329505.822,329733.2999999523,329522.565,335005.862,1,40,,
trial,html.Screen,8_7_0,2023-11-30T18:33:25.367Z,,,,2,0.0112310719058792,-0.0469047359904117,,0.05,false,hh,5382.637999999977,response,1.086647361897092,1.0999999999999999,-1.1937053477986275,1.1528935990320313,1.15,-1.15,high,high,,ISIC_0068184.JPG,,ISIC_3505339.JPG,33,30,false,0.13,lh,keypress(e),0,true,340388.7000000477,340388.5,334989.015,335212.40000009537,335005.862,340189.289,1,40,8,
sequence,flow.Sequence,8_7,2023-11-30T18:33:25.367Z,,,,,,,,,,,5382.637999999977,completion,,,,,,,high,high,,,,,,,false,,,,,true,340388.7999999523,340388.5,334989.015,335212.40000009537,335005.862,340189.289,1,40,,
trial,html.Screen,8_8_0,2023-11-30T18:33:29.159Z,,,,2,-0.0450282431170921,0,,0.05,false,hh,3991.411000047694,response,1.2711018615747949,1.15,-1.1937053477986275,1.1042234044781618,1.15,-1.15,high,high,,ISIC_1805163.JPG,,ISIC_8603734.JPG,33,30,false,0.13,hl,keypress(j),0,true,344180.90000009537,344180.7000000477,340172.473,340388.90000009537,340189.289,343972.549,1,40,9,
sequence,flow.Sequence,8_8,2023-11-30T18:33:29.159Z,,,,,,,,,,,3991.411000047694,completion,,,,,,,high,high,,,,,,,false,,,,,true,344181.09999990463,344180.7000000477,340172.473,340388.90000009537,340189.289,343972.549,1,40,,
trial,html.Screen,8_9_0,2023-11-30T18:33:32.391Z,,,,2,0.013431314305098,-0.0140597582944232,,0.05,false,lh,3439.750999952317,response,-0.7998855902596425,1.15,-1.1937053477986275,1.1518579145663017,1.15,-1.15,low,high,,ISIC_0069617.JPG,,ISIC_0025061.JPG,33,27,false,0.41000000000000025,hh,keypress(i),0,true,347412.2999999523,347412.2999999523,343955.749,344181.2000000477,343972.549,347205.877,1,40,10,
sequence,flow.Sequence,8_9,2023-11-30T18:33:32.391Z,,,,,,,,,,,3439.750999952317,completion,,,,,,,low,high,,,,,,,false,,,,,true,347412.40000009537,347412.2999999523,343955.749,344181.2000000477,343972.549,347205.877,1,40,,
trial,html.Screen,8_10_0,2023-11-30T18:33:35.440Z,,,,2,0.0113873532168551,0.0054999201556291,,0.05,false,lh,3255.323000047705,response,-0.8655167308525522,1.15,-1.1937053477986275,0.9298580423306444,1.15,-1.15,low,high,,ISIC_8812621.JPG,,ISIC_4603706.JPG,33,27,false,0.41000000000000025,hl,keypress(j),0,true,350461.5,350461.2000000477,347189.246,347412.5,347205.877,350272.543,1,40,11,
sequence,flow.Sequence,8_10,2023-11-30T18:33:35.440Z,,,,,,,,,,,3255.323000047705,completion,,,,,,,low,high,,,,,,,false,,,,,true,350461.7999999523,350461.2000000477,347189.246,347412.40000009537,347205.877,350272.543,1,40,,
trial,html.Screen,8_11_0,2023-11-30T18:33:51.251Z,,,,2,-0.0389988030702649,-0.0143212271490256,,0.05,,,15800.006999999983,timeout,-0.948927472020595,1.15,-1.1937053477986275,1.0660437155921598,1.15,-1.15,low,high,,ISIC_0064669.JPG,,ISIC_5808758.JPG,33,27,false,0.41000000000000025,,,0,true,366272.7999999523,366272.7000000477,350239.225,350461.90000009537,350272.543,366072.55,1,40,12,
sequence,flow.Sequence,8_11,2023-11-30T18:33:51.252Z,,,,,,,,,,,16000.157000047679,completion,,,,,,,low,high,,,,,,,false,,,,,true,366273.09999990463,366272.7000000477,350239.225,350461.90000009537,350272.543,366072.55,1,40,,
trial,html.Screen,8_12_0,2023-11-30T18:33:55.808Z,,,,2,-0.007397293189458,-0.0174716772037504,,0.05,false,lh,4756.549999904644,response,-0.7870237732709365,1.15,-1.1937053477986275,0.9172955251119376,1.15,-1.15,low,high,,ISIC_0056226.JPG,,ISIC_0057716.JPG,33,27,false,0.41000000000000025,ll,keypress(f),0,true,370829.40000009537,370829.09999990463,366056.067,366273.2000000477,366072.55,370622.58,1,40,13,
sequence,flow.Sequence,8_12,2023-11-30T18:33:55.808Z,,,,,,,,,,,4756.549999904644,completion,,,,,,,low,high,,,,,,,false,,,,,true,370829.7000000477,370829.09999990463,366056.067,366273.09999990463,366072.55,370622.58,1,40,,
trial,html.Screen,8_13_0,2023-11-30T18:34:00.511Z,,,,2,0.0245376145053177,-0.0436993426328401,,0.05,false,hl,4909.519999904616,response,1.0865333402803938,1.15,-1.1937053477986275,-1.0542635307358266,1.15,-1.15,high,low,,ISIC_0056444.JPG,,ISIC_0034006.JPG,33,25,false,0.31000000000000016,lh,keypress(e),0,true,375532.2999999523,375532.09999990463,370605.853,370829.90000009537,370622.58,375322.559,1,40,14,
sequence,flow.Sequence,8_13,2023-11-30T18:34:00.511Z,,,,,,,,,,,4909.519999904616,completion,,,,,,,high,low,,,,,,,false,,,,,true,375532.2999999523,375532.09999990463,370605.853,370829.90000009537,370622.58,375322.559,1,40,,
trial,html.Screen,8_14_0,2023-11-30T18:34:05.584Z,,,,2,-0.0057914759495055,-0.0074667911845194,,0.05,false,ll,5282.540999904624,response,-1.1783311757907324,1.15,-1.1937053477986275,-1.0915173513546716,1.15,-1.15,low,low,,ISIC_0058723.JPG,,ISIC_8241457.JPG,33,30,false,0.1,hh,keypress(i),0,true,380605.5,380605.09999990463,375305.864,375532.40000009537,375322.559,380422.581,1,40,15,
sequence,flow.Sequence,8_14,2023-11-30T18:34:05.585Z,,,,,,,,,,,5282.540999904624,completion,,,,,,,low,low,,,,,,,false,,,,,true,380606.09999990463,380605.09999990463,375305.864,375532.40000009537,375322.559,380422.581,1,40,,
trial,html.Screen,8_15_0,2023-11-30T18:34:11.095Z,,,,2,-0.0070725527271049,-0.0049995141077508,,0.05,false,lh,5693.918999999994,response,-0.7911024675435955,1.15,-1.1937053477986275,0.7975977016137676,1.15,-1.15,low,high,,ISIC_6124481.JPG,,ISIC_5813642.JPG,33,27,false,0.41000000000000025,ll,keypress(f),0,true,386116.59999990463,386116.5,380389.107,380606.40000009537,380422.581,385922.596,1,40,16,
sequence,flow.Sequence,8_15,2023-11-30T18:34:11.095Z,,,,,,,,,,,5693.918999999994,completion,,,,,,,low,high,,,,,,,false,,,,,true,386116.7999999523,386116.5,380389.107,380606.2999999523,380422.581,385922.596,1,40,,
trial,html.Screen,8_16_0,2023-11-30T18:34:16.255Z,,,,2,-0.0107854985447517,-0.0478010417136109,,0.05,false,lh,5353.703999952297,response,-1.4092385398614515,1.15,-1.1937053477986275,1.3046237992197836,1.15,-1.15,low,high,,ISIC_0010500.JPG,,ISIC_7254359.JPG,33,27,false,0.41000000000000025,hl,keypress(j),0,true,391276.40000009537,391276.2999999523,385889.185,386116.7999999523,385922.596,391072.601,1,40,17,
sequence,flow.Sequence,8_16,2023-11-30T18:34:16.255Z,,,,,,,,,,,5353.703999952297,completion,,,,,,,low,high,,,,,,,false,,,,,true,391276.5,391276.2999999523,385889.185,386116.7999999523,385922.596,391072.601,1,40,,
trial,html.Screen,8_17_0,2023-11-30T18:34:22.360Z,,,,2,0.000047919190197942736,0.0462652940855003,,0.05,false,hl,6308.498999904608,response,0.991282840649944,1.15,-1.1937053477986275,-0.9397921099839784,1.15,-1.15,high,low,,ISIC_0011507.JPG,,ISIC_0000463.JPG,33,25,false,0.31000000000000016,lh,keypress(e),0,true,397381.40000009537,397381.09999990463,391055.758,391276.59999990463,391072.601,397172.582,1,40,18,
sequence,flow.Sequence,8_17,2023-11-30T18:34:22.360Z,,,,,,,,,,,6308.498999904608,completion,,,,,,,high,low,,,,,,,false,,,,,true,397381.59999990463,397381.09999990463,391055.758,391276.59999990463,391072.601,397172.582,1,40,,
trial,html.Screen,8_18_0,2023-11-30T18:34:24.999Z,,,,2,0,0.0264544974620926,,0.05,false,lh,2847.8180000953726,response,-1.276222161935671,1.15,-1.1937053477986275,0.9657780821973284,1.15,-1.15,low,high,,ISIC_0056991.JPG,,ISIC_6710411.JPG,33,27,false,0.41000000000000025,ll,keypress(f),0,true,400020.5,400020.40000009537,397155.956,397381.7999999523,397172.582,399822.619,1,40,19,
sequence,flow.Sequence,8_18,2023-11-30T18:34:24.999Z,,,,,,,,,,,2847.8180000953726,completion,,,,,,,low,high,,,,,,,false,,,,,true,400020.59999990463,400020.40000009537,397155.956,397381.7999999523,397172.582,399822.619,1,40,,
trial,html.Screen,8_19_0,2023-11-30T18:34:29.855Z,,,,2,0.0362376068089956,0.047825070846155,,0.05,false,hh,5054.081000047678,response,1.2148140264214349,1.15,-1.1937053477986275,1.0436713726380966,1.15,-1.15,high,high,,ISIC_6985114.JPG,,ISIC_7277310.JPG,33,30,false,0.13,hl,keypress(j),0,true,404876.90000009537,404876.7000000477,399805.866,400020.7000000477,399822.619,404672.627,1,40,20,
sequence,flow.Sequence,8_19,2023-11-30T18:34:29.856Z,,,,,,,,,,,5054.081000047678,completion,,,,,,,high,high,,,,,,,false,,,,,true,404877.2000000477,404876.7000000477,399805.866,400020.59999990463,399822.619,404672.627,1,40,,
trial,html.Screen,8_20_0,2023-11-30T18:34:35.576Z,,,,2,0.0102460616775615,-0.0309670599545429,,0.05,false,hh,5924.773000095389,response,1.2706447584800626,1.15,-1.1937053477986275,1.0903308007916603,1.15,-1.15,high,high,,ISIC_0072041.JPG,,ISIC_9425937.JPG,33,30,false,0.13,hl,keypress(j),0,true,410597.5,410597.40000009537,404655.893,404877.2999999523,404672.627,410389.27,1,40,21,
sequence,flow.Sequence,8_20,2023-11-30T18:34:35.576Z,,,,,,,,,,,5924.773000095389,completion,,,,,,,high,high,,,,,,,false,,,,,true,410597.90000009537,410597.40000009537,404655.893,404877.2999999523,404672.627,410389.27,1,40,,
trial,html.Screen,8_21_0,2023-11-30T18:34:42.527Z,,,,2,0.0159061451859594,0.0296598845560212,,0.05,false,hh,7159.130000095349,response,1.0717785279820962,1.1927293924507487,-1.1937053477986275,1.1267239445830604,1.15,-1.15,high,high,,ISIC_0072564.JPG,,ISIC_9948815.JPG,33,26,false,0.13,ll,keypress(f),0,true,417548.5,417548.40000009537,410372.44,410598.09999990463,410389.27,417339.306,1,40,22,
sequence,flow.Sequence,8_21,2023-11-30T18:34:42.527Z,,,,,,,,,,,7159.130000095349,completion,,,,,,,high,high,,,,,,,false,,,,,true,417548.59999990463,417548.40000009537,410372.44,410598,410389.27,417339.306,1,40,,
trial,html.Screen,8_22_0,2023-11-30T18:34:46.327Z,,,,2,0.0112310719058792,-0.0469047359904117,,0.05,false,hl,4008.993999952334,response,0.8979276789594874,1.1927293924507487,-1.1937053477986275,-0.925374811016654,1.15,-1.15,high,low,,ISIC_0068184.JPG,,ISIC_4208361.JPG,33,25,false,0.3400000000000002,ll,keypress(f),0,true,421348.40000009537,421348.2999999523,417322.52,417548.7999999523,417339.306,421139.302,1,40,23,
sequence,flow.Sequence,8_22,2023-11-30T18:34:46.327Z,,,,,,,,,,,4008.993999952334,completion,,,,,,,high,low,,,,,,,false,,,,,true,421348.59999990463,421348.2999999523,417322.52,417548.7999999523,417339.306,421139.302,1,40,,
trial,html.Screen,8_23_0,2023-11-30T18:34:54.103Z,,,,2,0.0409338693593207,-0.0072462710499874,,0.05,true,hl,7984.797999904607,response,0.879102500583965,1.1927293924507487,-1.1937053477986275,-1.0933081951979773,1.15,-1.15,high,low,,ISIC_3608788.JPG,,ISIC_0046223.JPG,33,25,false,0.3400000000000002,hl,keypress(j),0,true,429124.2000000477,429124.09999990463,421122.537,421348.7000000477,421139.302,428922.66,1,40,24,
sequence,flow.Sequence,8_23,2023-11-30T18:34:54.103Z,,,,,,,,,,,7984.797999904607,completion,,,,,,,high,low,,,,,,,false,,,,,true,429124.2999999523,429124.09999990463,421122.537,421348.7000000477,421139.302,428922.66,1,40,,
trial,html.Screen,8_24_0,2023-11-30T18:34:56.223Z,,,,2,0.0409338693593207,-0.0072462710499874,,0.05,false,hh,2321.740000095393,response,1.2711018615747949,1.1927293924507487,-1.1937053477986275,1.1042234044781618,1.15,-1.0999999999999999,high,high,,ISIC_3608788.JPG,,ISIC_8603734.JPG,33,26,false,0.13,hl,keypress(j),0,true,431244.5,431244.40000009537,428905.722,429124.2999999523,428922.66,431039.297,1,40,25,
sequence,flow.Sequence,8_24,2023-11-30T18:34:56.224Z,,,,,,,,,,,2321.740000095393,completion,,,,,,,high,high,,,,,,,false,,,,,true,431244.59999990463,431244.40000009537,428905.722,429124.2999999523,428922.66,431039.297,1,40,,
trial,html.Screen,8_25_0,2023-11-30T18:34:59.784Z,,,,2,-0.0324770283903853,-0.0249968632204382,,0.05,false,ll,3766.002999952296,response,-1.1783311757907324,1.02510218107938,-1.1937053477986275,-1.0915173513546716,1.15,-1.0999999999999999,low,low,,ISIC_7266462.JPG,,ISIC_8241457.JPG,33,33,false,0.1,lh,keypress(e),0,true,434805.59999990463,434805.2999999523,431022.668,431244.7000000477,431039.297,434606.233,1,40,26,
sequence,flow.Sequence,8_25,2023-11-30T18:34:59.785Z,,,,,,,,,,,3766.002999952296,completion,,,,,,,low,low,,,,,,,false,,,,,true,434805.90000009537,434805.2999999523,431022.668,431244.59999990463,431039.297,434606.233,1,40,,
trial,html.Screen,8_26_0,2023-11-30T18:35:04.431Z,,,,2,-0.0324770283903853,-0.0249968632204382,,0.05,false,ll,4846.066999952309,response,-1.101346104814838,1.02510218107938,-1.1437053477986274,-1.1225813067473052,1.15,-1.15,low,low,,ISIC_7266462.JPG,,ISIC_8175453.JPG,33,26,false,0.1,hl,keypress(j),0,true,439452.40000009537,439452.2999999523,434589.407,434806.09999990463,434606.233,439256.001,1,40,27,
sequence,flow.Sequence,8_26,2023-11-30T18:35:04.431Z,,,,,,,,,,,4846.066999952309,completion,,,,,,,low,low,,,,,,,false,,,,,true,439452.5,439452.2999999523,434589.407,434806,434606.233,439256.001,1,40,,
trial,html.Screen,8_27_0,2023-11-30T18:35:12.344Z,,,,2,0.0112310719058792,-0.0469047359904117,,0.05,false,hl,8109.199000047694,response,1.2695509547992938,1.02510218107938,-1.1937053477986275,-0.9641099676945492,1.15,-1.15,high,low,,ISIC_0068184.JPG,,ISIC_0025841.JPG,33,26,false,0.27000000000000013,ll,keypress(f),0,true,447365.2999999523,447365.2000000477,439239.327,439452.59999990463,439256.001,447156.039,1,40,28,
sequence,flow.Sequence,8_27,2023-11-30T18:35:12.345Z,,,,,,,,,,,8109.199000047694,completion,,,,,,,high,low,,,,,,,false,,,,,true,447365.59999990463,447365.2000000477,439239.327,439452.5,439256.001,447156.039,1,40,,
trial,html.Screen,8_28_0,2023-11-30T18:35:17.704Z,,,,2,-0.0107854985447517,-0.0478010417136109,,0.05,false,hh,5568.661000047694,response,1.0316392011945703,1.07510218107938,-1.1937053477986275,1.1580619988377847,1.15,-0.9933456372209271,high,high,,ISIC_0010500.JPG,,ISIC_0054206.JPG,33,31,false,0.13,ll,keypress(f),0,true,452724.90000009537,452724.7000000477,447139.203,447365.7000000477,447156.039,452522.7,1,40,29,
sequence,flow.Sequence,8_28,2023-11-30T18:35:17.704Z,,,,,,,,,,,5568.661000047694,completion,,,,,,,high,high,,,,,,,false,,,,,true,452725.09999990463,452724.7000000477,447139.203,447365.7000000477,447156.039,452522.7,1,40,,
trial,html.Screen,8_29_0,2023-11-30T18:35:23.032Z,,,,2,0.0188047466661863,-0.0288346930436979,,0.05,false,ll,5530.000000047672,response,-1.1682648288591504,1.12510218107938,-1.1937053477986275,-1.004142980655507,1.15,-0.9933456372209271,low,low,,ISIC_0014157.JPG,,ISIC_3936223.JPG,33,27,false,0.1,lh,keypress(e),0,true,458052.7999999523,458052.7000000477,452505.968,452725.2000000477,452522.7,457856.063,1,40,30,
sequence,flow.Sequence,8_29,2023-11-30T18:35:23.032Z,,,,,,,,,,,5530.000000047672,completion,,,,,,,low,low,,,,,,,false,,,,,true,458053,458052.7000000477,452505.968,452725.09999990463,452522.7,457856.063,1,40,,
trial,html.Screen,8_30_0,2023-11-30T18:35:29.463Z,,,,2,-0.0456515796420274,0.0273567130070961,,0.05,false,hh,6628.13700004766,response,1.057008495826831,1.12510218107938,-1.1937053477986275,1.1278122585028287,1.15,-1.043345637220927,high,high,,ISIC_0068610.JPG,,ISIC_2819798.JPG,33,28,false,0.13,hl,keypress(j),0,true,464484.2999999523,464484.2000000477,457839.23,458053.2000000477,457856.063,464272.692,1,40,31,
sequence,flow.Sequence,8_30,2023-11-30T18:35:29.463Z,,,,,,,,,,,6628.13700004766,completion,,,,,,,high,high,,,,,,,false,,,,,true,464484.40000009537,464484.2000000477,457839.23,458053.09999990463,457856.063,464272.692,1,40,,
trial,html.Screen,8_31_0,2023-11-30T18:35:33.464Z,,,,2,0.0097091270150747,-0.0417921315885292,,0.05,true,ll,4212.508000047703,response,-1.263020991939228,1.12510218107938,-1.1937053477986275,-0.9874026025661607,1.15,-1.043345637220927,low,low,,ISIC_3967213.JPG,,ISIC_0012054.JPG,33,31,false,0.1,ll,keypress(f),0,true,468485.2999999523,468485.2000000477,464255.822,464484.5,464272.692,468289.381,1,40,32,
sequence,flow.Sequence,8_31,2023-11-30T18:35:33.465Z,,,,,,,,,,,4212.508000047703,completion,,,,,,,low,low,,,,,,,false,,,,,true,468485.7000000477,468485.2000000477,464255.822,464484.5,464272.692,468289.381,1,40,,
trial,html.Screen,8_32_0,2023-11-30T18:35:38.824Z,,,,2,0.0097091270150747,-0.0417921315885292,,0.05,false,hh,5555.718999904639,response,1.1598623261077452,1.12510218107938,-1.0752117972526942,1.203269031614007,1.15,-1.043345637220927,high,high,,ISIC_3967213.JPG,,ISIC_0002639.JPG,33,28,false,0.13,ll,keypress(f),0,true,473845.40000009537,473845.09999990463,468272.762,468485.7999999523,468289.381,473639.42,1,40,33,
sequence,flow.Sequence,8_32,2023-11-30T18:35:38.825Z,,,,,,,,,,,5555.718999904639,completion,,,,,,,high,high,,,,,,,false,,,,,true,473845.7000000477,473845.09999990463,468272.762,468485.7999999523,468289.381,473639.42,1,40,,
trial,html.Screen,8_33_0,2023-11-30T18:35:41.528Z,,,,2,-0.0107854985447517,-0.0478010417136109,,0.05,false,ll,2909.179999904649,response,-1.0351900568634125,1.17510218107938,-1.0752117972526942,-1.060448537312289,1.15,-1.043345637220927,low,low,,ISIC_0010500.JPG,,ISIC_4377208.JPG,33,30,false,0.1,lh,keypress(e),0,true,476548.7999999523,476548.59999990463,473622.609,473845.7999999523,473639.42,476356.06,1,40,34,
sequence,flow.Sequence,8_33,2023-11-30T18:35:41.528Z,,,,,,,,,,,2909.179999904649,completion,,,,,,,low,low,,,,,,,false,,,,,true,476549.09999990463,476548.59999990463,473622.609,473845.7999999523,473639.42,476356.06,1,40,,
trial,html.Screen,8_34_0,2023-11-30T18:35:46.209Z,,,,2,-0.0324770283903853,-0.0249968632204382,,0.05,false,lh,4873.140000047686,response,-0.7911024675435955,1.17510218107938,-1.0752117972526942,0.7975977016137676,1.15,-1.0933456372209271,low,high,,ISIC_7266462.JPG,,ISIC_5813642.JPG,33,29,false,0.3600000000000002,hh,keypress(i),0,true,481229.5,481229.2000000477,476322.655,476549.2000000477,476356.06,481022.752,1,40,35,
sequence,flow.Sequence,8_34,2023-11-30T18:35:46.209Z,,,,,,,,,,,4873.140000047686,completion,,,,,,,low,high,,,,,,,false,,,,,true,481229.7999999523,481229.2000000477,476322.655,476549.2000000477,476356.06,481022.752,1,40,,
trial,html.Screen,8_35_0,2023-11-30T18:35:52.224Z,,,,2,0.0348234368746005,-0.0236866303880924,,0.05,false,ll,6222.347999904654,response,-1.101346104814838,1.17510218107938,-1.1252117972526943,-1.1225813067473052,1.15,-1.0933456372209271,low,low,,ISIC_0011099.JPG,,ISIC_8175453.JPG,33,31,false,0.1,hl,keypress(j),0,true,487245.2999999523,487245.09999990463,481005.969,481230,481022.752,487039.431,1,40,36,
sequence,flow.Sequence,8_35,2023-11-30T18:35:52.225Z,,,,,,,,,,,6222.347999904654,completion,,,,,,,low,low,,,,,,,false,,,,,true,487245.59999990463,487245.09999990463,481005.969,481229.90000009537,481022.752,487039.431,1,40,,
trial,html.Screen,8_36_0,2023-11-30T18:35:54.176Z,,,,2,0.0134764727102299,0.0033499036460912,,0.05,false,hl,2156.969000095385,response,1.0865333402803938,1.17510218107938,-1.1752117972526943,-1.0542635307358266,1.15,-1.0933456372209271,high,low,,ISIC_0009998.JPG,,ISIC_0034006.JPG,33,25,false,0.31000000000000016,lh,keypress(e),0,true,489196.5,489196.40000009537,487022.666,487245.7999999523,487039.431,488989.438,1,40,37,
sequence,flow.Sequence,8_36,2023-11-30T18:35:54.176Z,,,,,,,,,,,2156.969000095385,completion,,,,,,,high,low,,,,,,,false,,,,,true,489196.7000000477,489196.40000009537,487022.666,487245.7999999523,487039.431,488989.438,1,40,,
trial,html.Screen,8_37_0,2023-11-30T18:35:59.191Z,,,,2,0.0102460616775615,-0.0309670599545429,,0.05,false,ll,5222.661999904609,response,-1.255256820488545,1.17510218107938,-1.1752117972526943,-1.1206426433062562,1.15,-1.1433456372209272,low,low,,ISIC_0072041.JPG,,ISIC_0024652.JPG,33,31,false,0.1,lh,keypress(e),0,true,494212.2000000477,494212.09999990463,488972.763,489196.7000000477,488989.438,494006.056,1,40,38,
sequence,flow.Sequence,8_37,2023-11-30T18:35:59.191Z,,,,,,,,,,,5222.661999904609,completion,,,,,,,low,low,,,,,,,false,,,,,true,494212.2999999523,494212.09999990463,488972.763,489196.7000000477,488989.438,494006.056,1,40,,
trial,html.Screen,8_38_0,2023-11-30T18:36:05.015Z,,,,2,-0.0050679133050021,0.0009714874637896,,0.05,true,lh,6030.04399990465,response,-1.0115965332688306,1.17510218107938,-1.1752117972526943,0.8282633603842442,1.15,-1.1933456372209272,low,high,,ISIC_9848743.JPG,,ISIC_1069587.JPG,33,25,false,0.39000000000000024,lh,keypress(e),0,true,500036.2000000477,500036.09999990463,493989.255,494212.2999999523,494006.056,499839.412,1,40,39,
sequence,flow.Sequence,8_38,2023-11-30T18:36:05.015Z,,,,,,,,,,,6030.04399990465,completion,,,,,,,low,high,,,,,,,false,,,,,true,500036.2999999523,500036.09999990463,493989.255,494212.2999999523,494006.056,499839.412,1,40,,
trial,html.Screen,8_39_0,2023-11-30T18:36:10.840Z,,,,2,-0.0057914759495055,-0.0074667911845194,,0.05,true,hl,6020.988000095356,response,0.8809306963311293,1.17510218107938,-1.1252117972526943,-0.8614910030038974,1.0999999999999999,-1.1933456372209272,high,low,,ISIC_0058723.JPG,,ISIC_0013731.JPG,33,26,false,0.3500000000000002,hl,keypress(j),0,true,505860.59999990463,505860.40000009537,499822.543,500036.2999999523,499839.412,505656.144,1,40,40,
sequence,flow.Sequence,8_39,2023-11-30T18:36:10.840Z,,,,,,,,,,,6020.988000095356,completion,,,,,,,high,low,,,,,,,false,,,,,true,505860.7000000477,505860.40000009537,499822.543,500036.2999999523,499839.412,505656.144,1,40,,
stair_loop,flow.Loop,8,2023-11-30T18:36:10.840Z,,,,,,,,,,,224587.95900009538,completion,,,,,,,,,,,,,,,false,,,,,true,505860.7000000477,505860.40000009537,281256.028,281476.5,281272.441,505656.144,1,40,,
exp_instructions,html.Screen,9,2023-11-30T18:36:20.072Z,,,,,,,,,,,9436.155999952345,response,,,,,,,,,,,,,,,,,continue,keypress(Space),,,515092.7999999523,515092.2999999523,505639.212,505860.7999999523,505656.144,514889.42,,,,
trial,html.Screen,10_0_0,2023-11-30T18:36:26.983Z,,,,1,-0.0217698886732706,0.0410870915161425,,0.05,false,ll,7114.2800000477,response,-1.1253220985777015,1.1398725142996853,-1.163807927580254,-1.108725659461368,1.1474999999999997,-1.103507382332556,low,low,,ISIC_0072173.JPG,9,ISIC_0054954.JPG,33,35,false,0.1,lh,keypress(e),0,false,522003.7999999523,522003.7000000477,514872.612,515093,514889.42,521806.112,5,600,1,
break,html.Screen,10_0_1,2023-11-30T18:36:26.983Z,,,,,,,,,,,NaN,,,,,,,,low,low,,,,,,,false,,,,,false,522004.2999999523,522004.2000000477,,522004,,521806.112,5,600,,
break_continue,html.Screen,10_0_2,2023-11-30T18:36:26.984Z,,,,,,,,,,,NaN,,,,,,,,low,low,,,,,,,false,,,,,false,522004.59999990463,522004.5,,522004.2999999523,,521806.112,5,600,,
sequence,flow.Sequence,10_0,2023-11-30T18:36:26.984Z,,,,,,,,,,,7115.080000000016,completion,,,,,,,low,low,,,,,,,false,,,,,false,522004.7000000477,522004.5,514872.612,515092.90000009537,514889.42,521806.112,5,600,,
trial,html.Screen,10_1_0,2023-11-30T18:36:32.991Z,,,,1,-0.007397293189458,-0.0174716772037504,,0.05,false,hl,6205.98799990461,response,0.9579209317488,1.1398725142996853,-1.163807927580254,-1.0147487101263497,1.1474999999999997,-1.103507382332556,high,low,,ISIC_0056226.JPG,9,ISIC_8124482.JPG,33,28,false,0.30000000000000016,hh,keypress(i),0,false,528012.2999999523,528012.0999999046,521789.267,522004.7999999523,521806.112,527806.095,5,600,2,
break,html.Screen,10_1_1,2023-11-30T18:36:32.992Z,,,,,,,,,,,NaN,,,,,,,,high,low,,,,,,,false,,,,,false,528012.5999999046,528012.5,,528012.4000000954,,527806.095,5,600,,
break_continue,html.Screen,10_1_2,2023-11-30T18:36:32.992Z,,,,,,,,,,,NaN,,,,,,,,high,low,,,,,,,false,,,,,false,528012.7999999523,528012.7999999523,,528012.7000000477,,527806.095,5,600,,
sequence,flow.Sequence,10_1,2023-11-30T18:36:32.992Z,,,,,,,,,,,6206.6879999522935,completion,,,,,,,high,low,,,,,,,false,,,,,false,528012.7999999523,528012.7999999523,521789.267,522004.7000000477,521806.112,527806.095,5,600,,
trial,html.Screen,10_2_0,2023-11-30T18:36:39.264Z,,,,1,0.0188047466661863,-0.0288346930436979,,0.05,false,lh,6478.305000095395,response,-0.9873794329144926,1.1398725142996853,-1.163807927580254,0.7991077882008257,1.1474999999999997,-1.103507382332556,low,high,,ISIC_0014157.JPG,8,ISIC_0013498.JPG,33,25,false,0.3800000000000002,hl,keypress(j),0,false,534284.5,534284.4000000954,527789.26,528012.9000000954,527806.095,534090.015,5,600,3,
break,html.Screen,10_2_1,2023-11-30T18:36:39.264Z,,,,,,,,,,,NaN,,,,,,,,low,high,,,,,,,false,,,,,false,534284.9000000954,534284.7000000477,,534284.5999999046,,534090.015,5,600,,
break_continue,html.Screen,10_2_2,2023-11-30T18:36:39.264Z,,,,,,,,,,,NaN,,,,,,,,low,high,,,,,,,false,,,,,false,534284.9000000954,534284.9000000954,,534284.9000000954,,534090.015,5,600,,
sequence,flow.Sequence,10_2,2023-11-30T18:36:39.264Z,,,,,,,,,,,6478.805000095395,completion,,,,,,,low,high,,,,,,,false,,,,,false,534285,534284.9000000954,527789.26,528012.7999999523,527806.095,534090.015,5,600,,
trial,html.Screen,10_3_0,2023-11-30T18:36:43.544Z,,,,1,0.0348234368746005,-0.0236866303880924,,0.05,false,ll,4474.8850000953535,response,-1.242586748440878,1.1398725142996853,-1.163807927580254,-1.1207933200172129,1.1474999999999997,-1.103507382332556,low,low,,ISIC_0011099.JPG,9,ISIC_0013073.JPG,33,35,false,0.1,hh,keypress(i),0,false,538565.2000000477,538564.9000000954,534056.067,534285.0999999046,534090.015,538356.158,5,600,4,
break,html.Screen,10_3_1,2023-11-30T18:36:43.545Z,,,,,,,,,,,NaN,,,,,,,,low,low,,,,,,,false,,,,,false,538565.9000000954,538565.7000000477,,538565.4000000954,,538356.158,5,600,,
break_continue,html.Screen,10_3_2,2023-11-30T18:36:43.546Z,,,,,,,,,,,NaN,,,,,,,,low,low,,,,,,,false,,,,,false,538566.4000000954,538566.2999999523,,538566.0999999046,,538356.158,5,600,,
sequence,flow.Sequence,10_3,2023-11-30T18:36:43.546Z,,,,,,,,,,,4476.284999952302,completion,,,,,,,low,low,,,,,,,false,,,,,false,538566.5999999046,538566.2999999523,534056.067,534285,534090.015,538356.158,5,600,,
trial,html.Screen,10_4_0,2023-11-30T18:36:49.048Z,,,,1,0.0102460616775615,-0.0309670599545429,,0.05,false,hl,5712.04200004763,response,1.0865333402803938,1.1398725142996853,-1.163807927580254,-1.0542635307358266,1.1474999999999997,-1.103507382332556,high,low,,ISIC_0072041.JPG,9,ISIC_0034006.JPG,33,28,false,0.30000000000000016,lh,keypress(e),0,false,544068.4000000954,544068.2000000477,538339.462,538566.7999999523,538356.158,543873.337,5,600,5,
break,html.Screen,10_4_1,2023-11-30T18:36:49.048Z,,,,,,,,,,,NaN,,,,,,,,high,low,,,,,,,false,,,,,false,544068.7999999523,544068.7000000477,,544068.5999999046,,543873.337,5,600,,
break_continue,html.Screen,10_4_2,2023-11-30T18:36:49.048Z,,,,,,,,,,,NaN,,,,,,,,high,low,,,,,,,false,,,,,false,544069,544069,,544068.9000000954,,543873.337,5,600,,
sequence,flow.Sequence,10_4,2023-11-30T18:36:49.048Z,,,,,,,,,,,5712.841999999946,completion,,,,,,,high,low,,,,,,,false,,,,,false,544069.0999999046,544069,538339.462,538566.7000000477,538356.158,543873.337,5,600,,
trial,html.Screen,10_5_0,2023-11-30T18:36:54.697Z,,,,1,-0.0456515796420274,0.0273567130070961,,0.05,false,hh,5843.863000047626,response,1.2503149164557643,1.1398725142996853,-1.163807927580254,1.0796591227570405,1.1474999999999997,-1.103507382332556,high,high,,ISIC_0068610.JPG,9,ISIC_2466892.JPG,33,27,false,0.13,hl,keypress(j),0,false,549717.2999999523,549717.2000000477,543839.639,544069.0999999046,543873.337,549506.194,5,600,6,
break,html.Screen,10_5_1,2023-11-30T18:36:54.697Z,,,,,,,,,,,NaN,,,,,,,,high,high,,,,,,,false,,,,,false,549718.0999999046,549717.9000000954,,549717.5999999046,,549506.194,5,600,,
break_continue,html.Screen,10_5_2,2023-11-30T18:36:54.698Z,,,,,,,,,,,NaN,,,,,,,,high,high,,,,,,,false,,,,,false,549718.5999999046,549718.4000000954,,549718.2000000477,,549506.194,5,600,,
sequence,flow.Sequence,10_5,2023-11-30T18:36:54.698Z,,,,,,,,,,,5845.06300009531,completion,,,,,,,high,high,,,,,,,false,,,,,false,549718.7999999523,549718.4000000954,543839.639,544069.0999999046,543873.337,549506.194,5,600,,
trial,html.Screen,10_6_0,2023-11-30T18:36:59.056Z,,,,1,-0.0217698886732706,0.0410870915161425,,0.05,true,ll,4569.905999904615,response,-1.0700930503975157,1.1398725142996853,-1.163807927580254,-1.2020012168275056,1.1474999999999997,-1.103507382332556,low,low,,ISIC_0072173.JPG,10,ISIC_0000022.JPG,33,35,false,0.1,ll,keypress(f),0,false,554076.2999999523,554076.0999999046,549489.482,549718.9000000954,549506.194,553872.785,5,600,7,
break,html.Screen,10_6_1,2023-11-30T18:36:59.056Z,,,,,,,,,,,NaN,,,,,,,,low,low,,,,,,,false,,,,,false,554076.7000000477,554076.5999999046,,554076.4000000954,,553872.785,5,600,,
break_continue,html.Screen,10_6_2,2023-11-30T18:36:59.056Z,,,,,,,,,,,NaN,,,,,,,,low,low,,,,,,,false,,,,,false,554076.9000000954,554076.7999999523,,554076.7999999523,,553872.785,5,600,,
sequence,flow.Sequence,10_6,2023-11-30T18:36:59.056Z,,,,,,,,,,,4570.605999952299,completion,,,,,,,low,low,,,,,,,false,,,,,false,554077,554076.7999999523,549489.482,549718.9000000954,549506.194,553872.785,5,600,,
trial,html.Screen,10_7_0,2023-11-30T18:37:04.305Z,,,,1,-0.0070725527271049,-0.0049995141077508,,0.05,false,hh,5452.415000047651,response,1.0316392011945703,1.1398725142996853,-1.163807927580254,1.1580619988377847,1.1474999999999997,-1.103507382332556,high,high,,ISIC_6124481.JPG,10,ISIC_0054206.JPG,33,27,false,0.13,ll,keypress(f),0,false,559325.2999999523,559325.2000000477,553856.169,554077,553872.785,559122.884,5,600,8,
break,html.Screen,10_7_1,2023-11-30T18:37:04.306Z,,,,,,,,,,,NaN,,,,,,,,high,high,,,,,,,false,,,,,false,559326.2000000477,559325.9000000954,,559325.5999999046,,559122.884,5,600,,
break_continue,html.Screen,10_7_2,2023-11-30T18:37:04.306Z,,,,,,,,,,,NaN,,,,,,,,high,high,,,,,,,false,,,,,false,559326.7000000477,559326.5999999046,,559326.2999999523,,559122.884,5,600,,
sequence,flow.Sequence,10_7,2023-11-30T18:37:04.306Z,,,,,,,,,,,5453.8149999046,completion,,,,,,,high,high,,,,,,,false,,,,,false,559326.9000000954,559326.5999999046,553856.169,554077,553872.785,559122.884,5,600,,
trial,html.Screen,10_8_0,2023-11-30T18:37:13.801Z,,,,1,-0.0217698886732706,0.0410870915161425,,0.05,false,ll,9698.816000047722,response,-1.188743606919222,1.1398725142996853,-1.163807927580254,-1.0980226451001782,1.1474999999999997,-1.103507382332556,low,low,,ISIC_0072173.JPG,9,ISIC_0060481.JPG,33,35,false,0.1,hl,keypress(j),0,false,568821.9000000954,568821.7000000477,559105.939,559327.0999999046,559122.884,568622.838,5,600,9,
break,html.Screen,10_8_1,2023-11-30T18:37:13.802Z,,,,,,,,,,,NaN,,,,,,,,low,low,,,,,,,false,,,,,false,568822.9000000954,568822.5999999046,,568822.2000000477,,568622.838,5,600,,
break_continue,html.Screen,10_8_2,2023-11-30T18:37:13.803Z,,,,,,,,,,,NaN,,,,,,,,low,low,,,,,,,false,,,,,false,568823.5999999046,568823.2999999523,,568823.2000000477,,568622.838,5,600,,
sequence,flow.Sequence,10_8,2023-11-30T18:37:13.803Z,,,,,,,,,,,9700.415999952354,completion,,,,,,,low,low,,,,,,,false,,,,,false,568823.7999999523,568823.2999999523,559105.939,559327,559122.884,568622.838,5,600,,
trial,html.Screen,10_9_0,2023-11-30T18:37:20.520Z,,,,1,-0.0050679133050021,0.0009714874637896,,0.05,false,lh,6917.362000047695,response,-1.0213365328004047,1.1398725142996853,-1.163807927580254,1.088524359911891,1.1474999999999997,-1.103507382332556,low,high,,ISIC_9848743.JPG,9,ISIC_5434229.JPG,33,25,false,0.3800000000000002,hh,keypress(i),0,false,575540.2999999523,575540.2000000477,568606.064,568824,568622.838,575339.547,5,600,10,
break,html.Screen,10_9_1,2023-11-30T18:37:20.520Z,,,,,,,,,,,NaN,,,,,,,,low,high,,,,,,,false,,,,,false,575540.7999999523,575540.7000000477,,575540.5,,575339.547,5,600,,
break_continue,html.Screen,10_9_2,2023-11-30T18:37:20.520Z,,,,,,,,,,,NaN,,,,,,,,low,high,,,,,,,false,,,,,false,575541,575541,,575540.7999999523,,575339.547,5,600,,
sequence,flow.Sequence,10_9,2023-11-30T18:37:20.520Z,,,,,,,,,,,6918.162000000011,completion,,,,,,,low,high,,,,,,,false,,,,,false,575541.0999999046,575541,568606.064,568823.9000000954,568622.838,575339.547,5,600,,
trial,html.Screen,10_10_0,2023-11-30T18:37:26.872Z,,,,1,0.0362376068089956,0.047825070846155,,0.05,false,ll,6553.153000047663,response,-1.2493792664822851,1.1398725142996853,-1.163807927580254,-1.1336008561684745,1.1474999999999997,-1.103507382332556,low,low,,ISIC_6985114.JPG,9,ISIC_0061475.JPG,33,35,false,0.1,hh,keypress(i),0,false,581892.7999999523,581892.7000000477,575322.731,575541.2000000477,575339.547,581689.542,5,600,11,
break,html.Screen,10_10_1,2023-11-30T18:37:26.873Z,,,,,,,,,,,NaN,,,,,,,,low,low,,,,,,,false,,,,,false,581893.2999999523,581893.2000000477,,581893,,581689.542,5,600,,
break_continue,html.Screen,10_10_2,2023-11-30T18:37:26.873Z,,,,,,,,,,,NaN,,,,,,,,low,low,,,,,,,false,,,,,false,581893.5999999046,581893.5,,581893.4000000954,,581689.542,5,600,,
sequence,flow.Sequence,10_10,2023-11-30T18:37:26.873Z,,,,,,,,,,,6553.9529999999795,completion,,,,,,,low,low,,,,,,,false,,,,,false,581893.7000000477,581893.5,575322.731,575541.2000000477,575339.547,581689.542,5,600,,
trial,html.Screen,10_11_0,2023-11-30T18:37:32.721Z,,,,1,0.0362376068089956,0.047825070846155,,0.05,false,ll,6051.557999904617,response,-1.1383813631375823,1.1398725142996853,-1.163807927580254,-1.1319312220332556,1.1474999999999997,-1.103507382332556,low,low,,ISIC_6985114.JPG,9,ISIC_6227397.JPG,33,35,false,0.1,lh,keypress(e),0,false,587741.2000000477,587741.0999999046,581672.867,581893.7999999523,581689.542,587539.527,5,600,12,
break,html.Screen,10_11_1,2023-11-30T18:37:32.722Z,,,,,,,,,,,NaN,,,,,,,,low,low,,,,,,,false,,,,,false,587742.0999999046,587742,,587741.5,,587539.527,5,600,,
break_continue,html.Screen,10_11_2,2023-11-30T18:37:32.722Z,,,,,,,,,,,NaN,,,,,,,,low,low,,,,,,,false,,,,,false,587742.7000000477,587742.5999999046,,587742.4000000954,,587539.527,5,600,,
sequence,flow.Sequence,10_11,2023-11-30T18:37:32.722Z,,,,,,,,,,,6053.057999904617,completion,,,,,,,low,low,,,,,,,false,,,,,false,587743,587742.5999999046,581672.867,581893.7999999523,581689.542,587539.527,5,600,,
trial,html.Screen,10_12_0,2023-11-30T18:37:35.280Z,,,,1,-0.0217698886732706,0.0410870915161425,,0.05,false,hh,2761.2729999523144,response,1.201100953917304,1.1398725142996853,-1.163807927580254,1.1751492358160105,1.1474999999999997,-1.103507382332556,high,high,,ISIC_0072173.JPG,9,ISIC_0647224.JPG,33,27,false,0.13,ll,keypress(f),0,false,590301,590300.7999999523,587522.766,587743.0999999046,587539.527,590089.554,5,600,13,
break,html.Screen,10_12_1,2023-11-30T18:37:35.281Z,,,,,,,,,,,NaN,,,,,,,,high,high,,,,,,,false,,,,,false,590301.4000000954,590301.4000000954,,590301.0999999046,,590089.554,5,600,,
break_continue,html.Screen,10_12_2,2023-11-30T18:37:35.281Z,,,,,,,,,,,NaN,,,,,,,,high,high,,,,,,,false,,,,,false,590301.7000000477,590301.5999999046,,590301.5999999046,,590089.554,5,600,,
sequence,flow.Sequence,10_12,2023-11-30T18:37:35.281Z,,,,,,,,,,,2762.0729999046307,completion,,,,,,,high,high,,,,,,,false,,,,,false,590301.7999999523,590301.5999999046,587522.766,587743,587539.527,590089.554,5,600,,
trial,html.Screen,10_13_0,2023-11-30T18:37:39.721Z,,,,1,-0.0069555338059566,0.0310100918136373,,0.05,false,ll,4652.14600004768,response,-1.2435042401134029,1.1398725142996853,-1.163807927580254,-1.0592032583207498,1.1474999999999997,-1.103507382332556,low,low,,ISIC_0011177.JPG,9,ISIC_0056119.JPG,33,35,false,0.1,lh,keypress(e),0,false,594742,594741.7000000477,590072.941,590301.9000000954,590089.554,594539.61,5,600,14,
break,html.Screen,10_13_1,2023-11-30T18:37:39.722Z,,,,,,,,,,,NaN,,,,,,,,low,low,,,,,,,false,,,,,false,594743,594742.7999999523,,594742.2999999523,,594539.61,5,600,,
break_continue,html.Screen,10_13_2,2023-11-30T18:37:39.723Z,,,,,,,,,,,NaN,,,,,,,,low,low,,,,,,,false,,,,,false,594743.7000000477,594743.5,,594743.2999999523,,594539.61,5,600,,
sequence,flow.Sequence,10_13,2023-11-30T18:37:39.723Z,,,,,,,,,,,4653.945999999996,completion,,,,,,,low,low,,,,,,,false,,,,,false,594744,594743.5,590072.941,590301.9000000954,590089.554,594539.61,5,600,,
trial,html.Screen,10_14_0,2023-11-30T18:37:47.552Z,,,,1,-0.0456515796420274,0.0273567130070961,,0.05,true,ll,8032.68999995233,response,-1.135372722680314,1.1398725142996853,-1.163807927580254,-1.0926414044454305,1.1474999999999997,-1.103507382332556,low,low,,ISIC_0068610.JPG,8,ISIC_2355513.JPG,33,35,false,0.1,ll,keypress(f),0,false,602572.5,602572.2999999523,594522.774,594744.0999999046,594539.61,602372.876,5,600,15,
break,html.Screen,10_14_1,2023-11-30T18:37:47.553Z,,,,,,,,,,,NaN,,,,,,,,low,low,,,,,,,false,,,,,false,602572.9000000954,602572.7999999523,,602572.5,,602372.876,5,600,,
break_continue,html.Screen,10_14_2,2023-11-30T18:37:47.553Z,,,,,,,,,,,NaN,,,,,,,,low,low,,,,,,,false,,,,,false,602573.0999999046,602573.0999999046,,602572.9000000954,,602372.876,5,600,,
sequence,flow.Sequence,10_14,2023-11-30T18:37:47.553Z,,,,,,,,,,,8033.4899999046465,completion,,,,,,,low,low,,,,,,,false,,,,,false,602573.2000000477,602573.0999999046,594522.774,594744.0999999046,594539.61,602372.876,5,600,,
trial,html.Screen,10_15_0,2023-11-30T18:37:55.233Z,,,,1,0.0097091270150747,-0.0417921315885292,,0.05,true,hl,7879.923999952269,response,1.0656673213158945,1.1398725142996853,-1.163807927580254,-0.8082541692781954,1.1474999999999997,-1.103507382332556,high,low,,ISIC_3967213.JPG,8,ISIC_0033985.JPG,33,28,false,0.30000000000000016,hl,keypress(j),0,false,610252.9000000954,610252.7999999523,602356.118,602573.2999999523,602372.876,610056.197,5,600,16,
break,html.Screen,10_15_1,2023-11-30T18:37:55.233Z,,,,,,,,,,,NaN,,,,,,,,high,low,,,,,,,false,,,,,false,610253.5999999046,610253.4000000954,,610253.0999999046,,610056.197,5,600,,
break_continue,html.Screen,10_15_2,2023-11-30T18:37:55.234Z,,,,,,,,,,,NaN,,,,,,,,high,low,,,,,,,false,,,,,false,610253.9000000954,610253.7000000477,,610253.7000000477,,610056.197,5,600,,
sequence,flow.Sequence,10_15,2023-11-30T18:37:55.234Z,,,,,,,,,,,7880.824000047636,completion,,,,,,,high,low,,,,,,,false,,,,,false,610254,610253.7000000477,602356.118,602573.2000000477,602372.876,610056.197,5,600,,
trial,html.Screen,10_16_0,2023-11-30T18:37:58.617Z,,,,1,-0.0057914759495055,-0.0074667911845194,,0.05,false,lh,3581.2030000953237,response,-0.7871162143493278,1.1398725142996853,-1.163807927580254,0.8429329800778957,1.1474999999999997,-1.103507382332556,low,high,,ISIC_0058723.JPG,9,ISIC_3439215.JPG,33,25,false,0.3800000000000002,hl,keypress(j),0,false,613637.7000000477,613637.4000000954,610039.332,610254.0999999046,610056.197,613439.708,5,600,17,
break,html.Screen,10_16_1,2023-11-30T18:37:58.618Z,,,,,,,,,,,NaN,,,,,,,,low,high,,,,,,,false,,,,,false,613638.7999999523,613638.5,,613638,,613439.708,5,600,,
break_continue,html.Screen,10_16_2,2023-11-30T18:37:58.619Z,,,,,,,,,,,NaN,,,,,,,,low,high,,,,,,,false,,,,,false,613639.5,613639.2999999523,,613639,,613439.708,5,600,,
sequence,flow.Sequence,10_16,2023-11-30T18:37:58.619Z,,,,,,,,,,,3583.1029999522725,completion,,,,,,,low,high,,,,,,,false,,,,,false,613639.7999999523,613639.2999999523,610039.332,610254,610056.197,613439.708,5,600,,
trial,html.Screen,10_17_0,2023-11-30T18:38:03.392Z,,,,1,0.0097091270150747,-0.0417921315885292,,0.05,true,ll,4972.591999952332,response,-1.2249552940807693,1.1398725142996853,-1.163807927580254,-1.1723015116910682,1.1474999999999997,-1.103507382332556,low,low,,ISIC_3967213.JPG,10,ISIC_0055251.JPG,33,35,false,0.1,ll,keypress(f),0,false,618412.2999999523,618412.2999999523,613422.871,613639.9000000954,613439.708,618206.24,5,600,18,
break,html.Screen,10_17_1,2023-11-30T18:38:03.392Z,,,,,,,,,,,NaN,,,,,,,,low,low,,,,,,,false,,,,,false,618412.7000000477,618412.5999999046,,618412.5,,618206.24,5,600,,
break_continue,html.Screen,10_17_2,2023-11-30T18:38:03.393Z,,,,,,,,,,,NaN,,,,,,,,low,low,,,,,,,false,,,,,false,618412.9000000954,618412.7000000477,,618412.7000000477,,618206.24,5,600,,
sequence,flow.Sequence,10_17,2023-11-30T18:38:03.393Z,,,,,,,,,,,4972.9920000477,completion,,,,,,,low,low,,,,,,,false,,,,,false,618413,618412.7000000477,613422.871,613639.9000000954,613439.708,618206.24,5,600,,
trial,html.Screen,10_18_0,2023-11-30T18:38:08.817Z,,,,1,0.0245376145053177,-0.0436993426328401,,0.05,false,lh,5631.059999952326,response,-0.8816288864119318,1.1398725142996853,-1.163807927580254,0.801867301188093,1.1474999999999997,-1.103507382332556,low,high,,ISIC_0056444.JPG,9,ISIC_9196783.JPG,33,25,false,0.3800000000000002,hh,keypress(i),0,false,623837.4000000954,623837.2999999523,618189.4,618413,618206.24,623639.56,5,600,19,
break,html.Screen,10_18_1,2023-11-30T18:38:08.817Z,,,,,,,,,,,NaN,,,,,,,,low,high,,,,,,,false,,,,,false,623837.7000000477,623837.5999999046,,623837.5,,623639.56,5,600,,
break_continue,html.Screen,10_18_2,2023-11-30T18:38:08.818Z,,,,,,,,,,,NaN,,,,,,,,low,high,,,,,,,false,,,,,false,623838,623837.9000000954,,623837.7999999523,,623639.56,5,600,,
sequence,flow.Sequence,10_18,2023-11-30T18:38:08.818Z,,,,,,,,,,,5631.660000095377,completion,,,,,,,low,high,,,,,,,false,,,,,false,623838,623837.9000000954,618189.4,618413,618206.24,623639.56,5,600,,
trial,html.Screen,10_19_0,2023-11-30T18:38:18.216Z,,,,1,0.0348234368746005,-0.0236866303880924,,0.05,false,lh,9597.039999904577,response,-0.8816288864119318,1.1398725142996853,-1.163807927580254,0.801867301188093,1.1474999999999997,-1.103507382332556,low,high,,ISIC_0011099.JPG,8,ISIC_9196783.JPG,33,25,false,0.3800000000000002,hh,keypress(i),0,false,633236.7999999523,633236.5999999046,623622.938,623838.0999999046,623639.56,633039.748,5,600,20,
break,html.Screen,10_19_1,2023-11-30T18:38:18.217Z,,,,,,,,,,,NaN,,,,,,,,low,high,,,,,,,false,,,,,false,633237.2999999523,633237.0999999046,,633236.9000000954,,633039.748,5,600,,
break_continue,html.Screen,10_19_2,2023-11-30T18:38:18.217Z,,,,,,,,,,,NaN,,,,,,,,low,high,,,,,,,false,,,,,false,633237.5999999046,633237.5,,633237.4000000954,,633039.748,5,600,,
sequence,flow.Sequence,10_19,2023-11-30T18:38:18.217Z,,,,,,,,,,,9597.939999999944,completion,,,,,,,low,high,,,,,,,false,,,,,false,633237.7000000477,633237.5,623622.938,623838,623639.56,633039.748,5,600,,
trial,html.Screen,10_20_0,2023-11-30T18:38:26.672Z,,,,1,-0.0027483411352856,-0.0100996915276271,,0.05,false,hh,8652.652000095346,response,1.0959058628476686,1.1398725142996853,-1.163807927580254,1.1684835186766898,1.1474999999999997,-1.103507382332556,high,high,,ISIC_7364041.JPG,9,ISIC_5920470.JPG,33,27,false,0.13,hl,keypress(j),0,false,641692.5,641692.4000000954,633022.933,633237.7999999523,633039.748,641489.628,5,600,21,
break,html.Screen,10_20_1,2023-11-30T18:38:26.672Z,,,,,,,,,,,NaN,,,,,,,,high,high,,,,,,,false,,,,,false,641692.7000000477,641692.7000000477,,641692.5999999046,,641489.628,5,600,,
break_continue,html.Screen,10_20_2,2023-11-30T18:38:26.673Z,,,,,,,,,,,NaN,,,,,,,,high,high,,,,,,,false,,,,,false,641693,641692.9000000954,,641692.7999999523,,641489.628,5,600,,
sequence,flow.Sequence,10_20,2023-11-30T18:38:26.673Z,,,,,,,,,,,8653.152000095346,completion,,,,,,,high,high,,,,,,,false,,,,,false,641693,641692.9000000954,633022.933,633237.7000000477,633039.748,641489.628,5,600,,
trial,html.Screen,10_21_0,2023-11-30T18:38:30.241Z,,,,1,-0.007397293189458,-0.0174716772037504,,0.05,false,hh,3771.5720000476576,response,1.1388430156686884,1.1398725142996853,-1.163807927580254,1.2700552354887775,1.1474999999999997,-1.103507382332556,high,high,,ISIC_0056226.JPG,10,ISIC_9939653.JPG,33,27,false,0.13,hl,keypress(j),0,false,645261.5,645261.2000000477,641472.692,641693,641489.628,645056.307,5,600,22,
break,html.Screen,10_21_1,2023-11-30T18:38:30.242Z,,,,,,,,,,,NaN,,,,,,,,high,high,,,,,,,false,,,,,false,645262.2999999523,645262.0999999046,,645261.7999999523,,645056.307,5,600,,
break_continue,html.Screen,10_21_2,2023-11-30T18:38:30.243Z,,,,,,,,,,,NaN,,,,,,,,high,high,,,,,,,false,,,,,false,645263,645262.7000000477,,645262.5,,645056.307,5,600,,
sequence,flow.Sequence,10_21,2023-11-30T18:38:30.243Z,,,,,,,,,,,3773.0720000476576,completion,,,,,,,high,high,,,,,,,false,,,,,false,645263.0999999046,645262.7000000477,641472.692,641693,641489.628,645056.307,5,600,,
trial,html.Screen,10_22_0,2023-11-30T18:38:37.345Z,,,,1,0.0362376068089956,0.047825070846155,,0.05,false,hh,7309.093000095338,response,1.086647361897092,1.1398725142996853,-1.163807927580254,1.1528935990320313,1.1474999999999997,-1.103507382332556,high,high,,ISIC_6985114.JPG,9,ISIC_3505339.JPG,33,27,false,0.13,hl,keypress(j),0,false,652365.5999999046,652365.4000000954,645039.505,645263.2999999523,645056.307,652156.279,5,600,23,
break,html.Screen,10_22_1,2023-11-30T18:38:37.346Z,,,,,,,,,,,NaN,,,,,,,,high,high,,,,,,,false,,,,,false,652366.2999999523,652366.2000000477,,652365.9000000954,,652156.279,5,600,,
break_continue,html.Screen,10_22_2,2023-11-30T18:38:37.347Z,,,,,,,,,,,NaN,,,,,,,,high,high,,,,,,,false,,,,,false,652366.9000000954,652366.7000000477,,652366.5,,652156.279,5,600,,
sequence,flow.Sequence,10_22,2023-11-30T18:38:37.347Z,,,,,,,,,,,7310.393000047654,completion,,,,,,,high,high,,,,,,,false,,,,,false,652367.0999999046,652366.7000000477,645039.505,645263.2999999523,645056.307,652156.279,5,600,,
trial,html.Screen,10_23_0,2023-11-30T18:38:41.105Z,,,,1,0.0409338693593207,-0.0072462710499874,,0.05,false,hl,3968.820999904652,response,0.879102500583965,1.1398725142996853,-1.163807927580254,-1.0933081951979773,1.1474999999999997,-1.103507382332556,high,low,,ISIC_3608788.JPG,9,ISIC_0046223.JPG,33,28,false,0.30000000000000016,lh,keypress(e),0,false,656125.2999999523,656125.0999999046,652139.689,652367.2999999523,652156.279,655922.972,5,600,24,
break,html.Screen,10_23_1,2023-11-30T18:38:41.106Z,,,,,,,,,,,NaN,,,,,,,,high,low,,,,,,,false,,,,,false,656126,656125.7999999523,,656125.5,,655922.972,5,600,,
break_continue,html.Screen,10_23_2,2023-11-30T18:38:41.106Z,,,,,,,,,,,NaN,,,,,,,,high,low,,,,,,,false,,,,,false,656126.5999999046,656126.2999999523,,656126.2000000477,,655922.972,5,600,,
sequence,flow.Sequence,10_23,2023-11-30T18:38:41.106Z,,,,,,,,,,,3970.020999952336,completion,,,,,,,high,low,,,,,,,false,,,,,false,656126.7000000477,656126.2999999523,652139.689,652367.2000000477,652156.279,655922.972,5,600,,
trial,html.Screen,10_24_0,2023-11-30T18:38:49.361Z,,,,1,-0.0050679133050021,0.0009714874637896,,0.05,false,lh,8458.02800000005,response,-0.8200962008791046,1.1398725142996853,-1.163807927580254,0.7936051642828523,1.1474999999999997,-1.103507382332556,low,high,,ISIC_9848743.JPG,10,ISIC_0027031.JPG,33,25,false,0.3800000000000002,hl,keypress(j),0,false,664381.2000000477,664381,655906.47,656126.9000000954,655922.972,664172.962,5,600,25,
break,html.Screen,10_24_1,2023-11-30T18:38:49.362Z,,,,,,,,,,,NaN,,,,,,,,low,high,,,,,,,false,,,,,false,664381.9000000954,664381.7000000477,,664381.5,,664172.962,5,600,,
break_continue,html.Screen,10_24_2,2023-11-30T18:38:49.362Z,,,,,,,,,,,NaN,,,,,,,,low,high,,,,,,,false,,,,,false,664382.2000000477,664382.0999999046,,664382,,664172.962,5,600,,
sequence,flow.Sequence,10_24,2023-11-30T18:38:49.362Z,,,,,,,,,,,8459.127999904682,completion,,,,,,,low,high,,,,,,,false,,,,,false,664382.2999999523,664382.0999999046,655906.47,656126.7999999523,655922.972,664172.962,5,600,,
trial,html.Screen,10_25_0,2023-11-30T18:38:53.281Z,,,,1,0.0348234368746005,-0.0236866303880924,,0.05,true,hh,4127.637999904575,response,1.0717785279820962,1.1398725142996853,-1.163807927580254,1.1267239445830604,1.1474999999999997,-1.103507382332556,high,high,,ISIC_0011099.JPG,8,ISIC_9948815.JPG,33,27,false,0.13,hh,keypress(i),0,false,668300.7000000477,668300.5999999046,664156.339,664382.5,664172.962,668089.623,5,600,26,
break,html.Screen,10_25_1,2023-11-30T18:38:53.281Z,,,,,,,,,,,NaN,,,,,,,,high,high,,,,,,,false,,,,,false,668301,668301,,668300.7999999523,,668089.623,5,600,,
break_continue,html.Screen,10_25_2,2023-11-30T18:38:53.281Z,,,,,,,,,,,NaN,,,,,,,,high,high,,,,,,,false,,,,,false,668301.2000000477,668301.2000000477,,668301.2000000477,,668089.623,5,600,,
sequence,flow.Sequence,10_25,2023-11-30T18:38:53.281Z,,,,,,,,,,,4128.238000047626,completion,,,,,,,high,high,,,,,,,false,,,,,false,668301.4000000954,668301.2000000477,664156.339,664382.5,664172.962,668089.623,5,600,,
trial,html.Screen,10_26_0,2023-11-30T18:38:57.729Z,,,,1,0,0.0264544974620926,,0.05,false,ll,4659.376999999979,response,-1.2015106101917423,1.1398725142996853,-1.163807927580254,-1.071085024260525,1.1474999999999997,-1.103507382332556,low,low,,ISIC_0056991.JPG,10,ISIC_0072496.JPG,33,35,false,0.1,hh,keypress(i),0,false,672749.2999999523,672749,668072.934,668301.5,668089.623,672539.624,5,600,27,
break,html.Screen,10_26_1,2023-11-30T18:38:57.730Z,,,,,,,,,,,NaN,,,,,,,,low,low,,,,,,,false,,,,,false,672750.0999999046,672750,,672749.5,,672539.624,5,600,,
break_continue,html.Screen,10_26_2,2023-11-30T18:38:57.730Z,,,,,,,,,,,NaN,,,,,,,,low,low,,,,,,,false,,,,,false,672750.4000000954,672750.4000000954,,672750.2000000477,,672539.624,5,600,,
sequence,flow.Sequence,10_26,2023-11-30T18:38:57.730Z,,,,,,,,,,,4660.777000095346,completion,,,,,,,low,low,,,,,,,false,,,,,false,672750.4000000954,672750.4000000954,668072.934,668301.5,668089.623,672539.624,5,600,,
trial,html.Screen,10_27_0,2023-11-30T18:39:01.752Z,,,,1,-0.0107854985447517,-0.0478010417136109,,0.05,true,lh,4232.8760000000475,response,-0.9388660854518424,1.1398725142996853,-1.163807927580254,0.79533948698576,1.1474999999999997,-1.103507382332556,low,high,,ISIC_0010500.JPG,10,ISIC_9291926.JPG,33,25,false,0.3800000000000002,lh,keypress(e),0,false,676772.5999999046,676772.5,672523.13,672750.5,672539.624,676573.062,5,600,28,
break,html.Screen,10_27_1,2023-11-30T18:39:01.753Z,,,,,,,,,,,NaN,,,,,,,,low,high,,,,,,,false,,,,,false,676773,676772.9000000954,,676772.7000000477,,676573.062,5,600,,
break_continue,html.Screen,10_27_2,2023-11-30T18:39:01.753Z,,,,,,,,,,,NaN,,,,,,,,low,high,,,,,,,false,,,,,false,676773.2000000477,676773.2000000477,,676773.0999999046,,676573.062,5,600,,
sequence,flow.Sequence,10_27,2023-11-30T18:39:01.753Z,,,,,,,,,,,4233.576000047731,completion,,,,,,,low,high,,,,,,,false,,,,,false,676773.2999999523,676773.2000000477,672523.13,672750.5,672539.624,676573.062,5,600,,
trial,html.Screen,10_28_0,2023-11-30T18:39:10.200Z,,,,1,-0.0116094682222121,0.0258434522530318,,0.05,false,hh,8646.937999999966,response,1.2024083555600384,1.1398725142996853,-1.163807927580254,1.149077673153018,1.1474999999999997,-1.103507382332556,high,high,,ISIC_9239632.JPG,10,ISIC_3566243.JPG,33,27,false,0.13,hl,keypress(j),0,false,685220.0999999046,685220,676556.225,676773.4000000954,676573.062,685022.987,5,600,29,
break,html.Screen,10_28_1,2023-11-30T18:39:10.200Z,,,,,,,,,,,NaN,,,,,,,,high,high,,,,,,,false,,,,,false,685220.5,685220.2999999523,,685220.2000000477,,685022.987,5,600,,
break_continue,html.Screen,10_28_2,2023-11-30T18:39:10.200Z,,,,,,,,,,,NaN,,,,,,,,high,high,,,,,,,false,,,,,false,685220.5999999046,685220.5999999046,,685220.5,,685022.987,5,600,,
sequence,flow.Sequence,10_28,2023-11-30T18:39:10.201Z,,,,,,,,,,,8647.537999904598,completion,,,,,,,high,high,,,,,,,false,,,,,false,685220.7000000477,685220.5999999046,676556.225,676773.4000000954,676573.062,685022.987,5,600,,
trial,html.Screen,10_29_0,2023-11-30T18:39:17.041Z,,,,1,0.0112310719058792,-0.0469047359904117,,0.05,false,hl,7038.513000000035,response,1.0656673213158945,1.1398725142996853,-1.163807927580254,-0.8082541692781954,1.1474999999999997,-1.103507382332556,high,low,,ISIC_0068184.JPG,9,ISIC_0033985.JPG,33,28,false,0.30000000000000016,hh,keypress(i),0,false,692061.7000000477,692061.5,685006.359,685220.7000000477,685022.987,691856.385,5,600,30,
break,html.Screen,10_29_1,2023-11-30T18:39:17.042Z,,,,,,,,,,,NaN,,,,,,,,high,low,,,,,,,false,,,,,false,692062.5,692062.2999999523,,692061.9000000954,,691856.385,5,600,,
break_continue,html.Screen,10_29_2,2023-11-30T18:39:17.043Z,,,,,,,,,,,NaN,,,,,,,,high,low,,,,,,,false,,,,,false,692062.9000000954,692062.7000000477,,692062.5999999046,,691856.385,5,600,,
sequence,flow.Sequence,10_29,2023-11-30T18:39:17.043Z,,,,,,,,,,,7039.713000047719,completion,,,,,,,high,low,,,,,,,false,,,,,false,692063.0999999046,692062.7000000477,685006.359,685220.7000000477,685022.987,691856.385,5,600,,
trial,html.Screen,10_30_0,2023-11-30T18:39:25.200Z,,,,1,0.0051189696037511,-0.0396625911332438,,0.05,false,ll,8363.914999952307,response,-1.1783311757907324,1.1398725142996853,-1.163807927580254,-1.0915173513546716,1.1474999999999997,-1.103507382332556,low,low,,ISIC_9742891.JPG,9,ISIC_8241457.JPG,33,35,false,0.1,lh,keypress(e),0,false,700220.4000000954,700220.2999999523,691839.674,692063.2000000477,691856.385,700023.022,5,600,31,
break,html.Screen,10_30_1,2023-11-30T18:39:25.201Z,,,,,,,,,,,NaN,,,,,,,,low,low,,,,,,,false,,,,,false,700220.7999999523,700220.7000000477,,700220.5,,700023.022,5,600,,
break_continue,html.Screen,10_30_2,2023-11-30T18:39:25.201Z,,,,,,,,,,,NaN,,,,,,,,low,low,,,,,,,false,,,,,false,700221,700220.9000000954,,700220.7999999523,,700023.022,5,600,,
sequence,flow.Sequence,10_30,2023-11-30T18:39:25.201Z,,,,,,,,,,,8364.515000095358,completion,,,,,,,low,low,,,,,,,false,,,,,false,700221,700220.9000000954,691839.674,692063.2000000477,691856.385,700023.022,5,600,,
trial,html.Screen,10_31_0,2023-11-30T18:39:28.754Z,,,,1,-0.039728379742806,0.0228701131373768,,0.05,false,hl,3750.777999952319,response,1.1181734135756094,1.1398725142996853,-1.163807927580254,-0.944560381774994,1.1474999999999997,-1.103507382332556,high,low,,ISIC_0054073.JPG,9,ISIC_9688534.JPG,33,28,false,0.30000000000000016,ll,keypress(f),0,false,703774.2000000477,703773.7999999523,700006.271,700221.0999999046,700023.022,703573.004,5,600,32,
break,html.Screen,10_31_1,2023-11-30T18:39:28.755Z,,,,,,,,,,,NaN,,,,,,,,high,low,,,,,,,false,,,,,false,703775.2999999523,703775,,703774.5999999046,,703573.004,5,600,,
break_continue,html.Screen,10_31_2,2023-11-30T18:39:28.756Z,,,,,,,,,,,NaN,,,,,,,,high,low,,,,,,,false,,,,,false,703776,703775.7999999523,,703775.5999999046,,703573.004,5,600,,
sequence,flow.Sequence,10_31,2023-11-30T18:39:28.756Z,,,,,,,,,,,3752.777999952319,completion,,,,,,,high,low,,,,,,,false,,,,,false,703776.2999999523,703775.7999999523,700006.271,700221.0999999046,700023.022,703573.004,5,600,,
trial,html.Screen,10_32_0,2023-11-30T18:39:33.768Z,,,,1,0.013431314305098,-0.0140597582944232,,0.05,false,lh,5215.496000000043,response,-0.7998855902596425,1.1398725142996853,-1.163807927580254,1.1518579145663017,1.1474999999999997,-1.103507382332556,low,high,,ISIC_0069617.JPG,9,ISIC_0025061.JPG,33,25,false,0.3800000000000002,hl,keypress(j),0,false,708788.7000000477,708788.5,703556.274,703776.4000000954,703573.004,708589.954,5,600,33,
break,html.Screen,10_32_1,2023-11-30T18:39:33.769Z,,,,,,,,,,,NaN,,,,,,,,low,high,,,,,,,false,,,,,false,708789.0999999046,708789,,708788.7999999523,,708589.954,5,600,,
break_continue,html.Screen,10_32_2,2023-11-30T18:39:33.769Z,,,,,,,,,,,NaN,,,,,,,,low,high,,,,,,,false,,,,,false,708789.5,708789.4000000954,,708789.2000000477,,708589.954,5,600,,
sequence,flow.Sequence,10_32,2023-11-30T18:39:33.769Z,,,,,,,,,,,5216.39600009541,completion,,,,,,,low,high,,,,,,,false,,,,,false,708789.5999999046,708789.4000000954,703556.274,703776.4000000954,703573.004,708589.954,5,600,,
trial,html.Screen,10_33_0,2023-11-30T18:39:41.033Z,,,,1,0.0409338693593207,-0.0072462710499874,,0.05,false,hh,7462.746000047657,response,1.131522954199764,1.1398725142996853,-1.163807927580254,1.1047184491749509,1.1474999999999997,-1.103507382332556,high,high,,ISIC_3608788.JPG,9,ISIC_1868816.JPG,33,27,false,0.13,hl,keypress(j),0,false,716052.7999999523,716052.7000000477,708572.856,708789.5999999046,708589.954,715856.569,5,600,34,
break,html.Screen,10_33_1,2023-11-30T18:39:41.033Z,,,,,,,,,,,NaN,,,,,,,,high,high,,,,,,,false,,,,,false,716053.2000000477,716053.0999999046,,716052.9000000954,,715856.569,5,600,,
break_continue,html.Screen,10_33_2,2023-11-30T18:39:41.033Z,,,,,,,,,,,NaN,,,,,,,,high,high,,,,,,,false,,,,,false,716053.5,716053.4000000954,,716053.2999999523,,715856.569,5,600,,
sequence,flow.Sequence,10_33,2023-11-30T18:39:41.033Z,,,,,,,,,,,7463.44600009534,completion,,,,,,,high,high,,,,,,,false,,,,,false,716053.5,716053.4000000954,708572.856,708789.5999999046,708589.954,715856.569,5,600,,
trial,html.Screen,10_34_0,2023-11-30T18:39:47.481Z,,,,1,-0.0116094682222121,0.0258434522530318,,0.05,true,ll,6644.530999904615,response,-1.1383813631375823,1.1398725142996853,-1.163807927580254,-1.1319312220332556,1.1474999999999997,-1.103507382332556,low,low,,ISIC_9239632.JPG,8,ISIC_6227397.JPG,33,35,false,0.1,ll,keypress(f),0,false,722501.2999999523,722501.0999999046,715839.62,716053.5999999046,715856.569,722307.459,5,600,35,
break,html.Screen,10_34_1,2023-11-30T18:39:47.482Z,,,,,,,,,,,NaN,,,,,,,,low,low,,,,,,,false,,,,,false,722501.9000000954,722501.7999999523,,722501.4000000954,,722307.459,5,600,,
break_continue,html.Screen,10_34_2,2023-11-30T18:39:47.482Z,,,,,,,,,,,NaN,,,,,,,,low,low,,,,,,,false,,,,,false,722502.2999999523,722502.2000000477,,722502,,722307.459,5,600,,
sequence,flow.Sequence,10_34,2023-11-30T18:39:47.483Z,,,,,,,,,,,6645.631000047666,completion,,,,,,,low,low,,,,,,,false,,,,,false,722502.5999999046,722502.2000000477,715839.62,716053.5999999046,715856.569,722307.459,5,600,,
trial,html.Screen,10_35_0,2023-11-30T18:39:56.217Z,,,,1,0.000047919190197942736,0.0462652940855003,,0.05,true,hl,8929.441000095336,response,1.2695509547992938,1.1398725142996853,-1.163807927580254,-0.9641099676945492,1.1474999999999997,-1.103507382332556,high,low,,ISIC_0011507.JPG,9,ISIC_0025841.JPG,33,28,false,0.30000000000000016,hl,keypress(j),0,false,731237.0999999046,731236.9000000954,722272.913,722502.7999999523,722307.459,731039.766,5,600,36,
break,html.Screen,10_35_1,2023-11-30T18:39:56.218Z,,,,,,,,,,,NaN,,,,,,,,high,low,,,,,,,false,,,,,false,731237.5999999046,731237.5,,731237.2999999523,,731039.766,5,600,,
break_continue,html.Screen,10_35_2,2023-11-30T18:39:56.218Z,,,,,,,,,,,NaN,,,,,,,,high,low,,,,,,,false,,,,,false,731238,731237.9000000954,,731237.7000000477,,731039.766,5,600,,
sequence,flow.Sequence,10_35,2023-11-30T18:39:56.218Z,,,,,,,,,,,8930.441000095336,completion,,,,,,,high,low,,,,,,,false,,,,,false,731238.0999999046,731237.9000000954,722272.913,722502.5999999046,722307.459,731039.766,5,600,,
trial,html.Screen,10_36_0,2023-11-30T18:39:59.281Z,,,,1,0.013431314305098,-0.0140597582944232,,0.05,true,hh,3261.3339999046875,response,1.2318069697449794,1.1398725142996853,-1.163807927580254,1.1703576816778267,1.1474999999999997,-1.103507382332556,high,high,,ISIC_0069617.JPG,9,ISIC_2732573.JPG,33,27,false,0.13,hh,keypress(i),0,false,734301.2999999523,734301.0999999046,731022.892,731238.2000000477,731039.766,734106.94,5,600,37,
break,html.Screen,10_36_1,2023-11-30T18:39:59.282Z,,,,,,,,,,,NaN,,,,,,,,high,high,,,,,,,false,,,,,false,734301.9000000954,734301.7999999523,,734301.5999999046,,734106.94,5,600,,
break_continue,html.Screen,10_36_2,2023-11-30T18:39:59.283Z,,,,,,,,,,,NaN,,,,,,,,high,high,,,,,,,false,,,,,false,734302.4000000954,734302.2000000477,,734302,,734106.94,5,600,,
sequence,flow.Sequence,10_36,2023-11-30T18:39:59.283Z,,,,,,,,,,,3262.4340000477387,completion,,,,,,,high,high,,,,,,,false,,,,,false,734302.5999999046,734302.2000000477,731022.892,731238.0999999046,731039.766,734106.94,5,600,,
trial,html.Screen,10_37_0,2023-11-30T18:40:02.760Z,,,,1,0.0188047466661863,-0.0288346930436979,,0.05,true,ll,3673.1599999046884,response,-1.1254252603792554,1.1398725142996853,-1.163807927580254,-1.0263116781284176,1.1474999999999997,-1.103507382332556,low,low,,ISIC_0014157.JPG,9,ISIC_0032420.JPG,33,35,false,0.1,ll,keypress(f),0,false,737780.2999999523,737780.0999999046,734073.011,734302.7999999523,734106.94,737573.036,5,600,38,
break,html.Screen,10_37_1,2023-11-30T18:40:02.761Z,,,,,,,,,,,NaN,,,,,,,,low,low,,,,,,,false,,,,,false,737780.5999999046,737780.4000000954,,737780.4000000954,,737573.036,5,600,,
break_continue,html.Screen,10_37_2,2023-11-30T18:40:02.761Z,,,,,,,,,,,NaN,,,,,,,,low,low,,,,,,,false,,,,,false,737780.7999999523,737780.7000000477,,737780.5999999046,,737573.036,5,600,,
sequence,flow.Sequence,10_37,2023-11-30T18:40:02.761Z,,,,,,,,,,,3673.7600000477396,completion,,,,,,,low,low,,,,,,,false,,,,,false,737780.7999999523,737780.7000000477,734073.011,734302.7999999523,734106.94,737573.036,5,600,,
trial,html.Screen,10_38_0,2023-11-30T18:40:06.897Z,,,,1,-0.0450282431170921,0,,0.05,false,hl,4343.66400004772,response,1.2695509547992938,1.1398725142996853,-1.163807927580254,-0.9641099676945492,1.1474999999999997,-1.103507382332556,high,low,,ISIC_1805163.JPG,10,ISIC_0025841.JPG,33,28,false,0.30000000000000016,hh,keypress(i),0,false,741916.9000000954,741916.7000000477,737556.445,737780.9000000954,737573.036,741706.388,5,600,39,
break,html.Screen,10_38_1,2023-11-30T18:40:06.897Z,,,,,,,,,,,NaN,,,,,,,,high,low,,,,,,,false,,,,,false,741917.2999999523,741917.0999999046,,741917,,741706.388,5,600,,
break_continue,html.Screen,10_38_2,2023-11-30T18:40:06.898Z,,,,,,,,,,,NaN,,,,,,,,high,low,,,,,,,false,,,,,false,741917.5,741917.4000000954,,741917.2999999523,,741706.388,5,600,,
