sender,sender_type,sender_id,timestamp,meta,,age,blockNo,c1,c2,condition,control_tolerance,correct,correctResponse,duration,ended_on,f1,f1_high,f1_low,f2,f2_high,f2_low,feature_level1,feature_level2,gender,img_left,img_reveal,img_right,n_control_images,n_target_images,practice,range_tolerance,response,response_action,selection_duration,staircase,time_commit,time_end,time_render,time_run,time_show,time_switch,total_blocks,total_trials,trialNo,url
informed_consent,html.Screen,0,2024-03-19T18:52:09.513Z,"{""labjs_version"":""20.2.4"",""labjs_build"":{""flavor"":""development"",""commit"":""f5b4a49f956347addd546a832a3327688c2c0fef""},""location"":""https://labjs.felixhenninger.com/api/labjs_preview/index.html"",""userAgent"":""Mozilla/5.0 (Windows NT 10.0; Win64; x64) AppleWebKit/537.36 (KHTML, like Gecko) Chrome/122.0.0.0 Safari/537.36"",""platform"":""Win32"",""language"":""en-US"",""locale"":""en-US"",""timeZone"":""America/Chicago"",""timezoneOffset"":300,""screen_width"":2560,""screen_height"":1440,""scroll_width"":1265,""scroll_height"":1278,""window_innerWidth"":1265,""window_innerHeight"":1326,""devicePixelRatio"":1}",,,,,,,,,,32931.2,response,,,,,,,,,,,,,,,,,consent,click button,,,33265.89999997616,33256.5,308.6,321.5,325.3,33285.9,,,,{}
Demography form,html.Form,1,2024-03-19T18:52:18.206Z,,,19,,,,,,,,8673.599999999999,form submission,,,,,,,,,female,,,,,,,,,,,,41959.60000002384,41959.5,33269.598,33266.200000047684,33285.9,41976.7,,,,
Welcome,html.Screen,2,2024-03-19T18:54:19.776Z,,,,,,,"[""asym"",""col""]",,,,121551.19999997616,response,,,,,,,,,,,,,,,,,continue,click button,,,163528.70000004768,163527.89999997616,41960.032,41960,41976.7,163543.4,,,,
demo_instructions,html.Screen,3,2024-03-19T18:55:29.232Z,,,,,,,,,,,69440.39999995232,response,,,,,,,,,,,,,,,,,continue,click button,,,232984.60000002384,232983.79999995232,163526.8,163528.70000004768,163543.4,233000.696,,,,
trial,html.Screen,4_0_0,2024-03-19T18:55:50.230Z,,,,0,-1.1671212908494544,-1.1286681796701683,,,true,hh,20981.10399995232,response,1.073296525451802,1.2,-1.2,1.3454282740421717,1.2,-1.2,high,high,,ISIC_0065022.JPG,,ISIC_5787312.JPG,,25,true,0.15000000000000002,hh,keypress(i),100,false,253982.89999997616,253981.79999995232,233000.696,232984.79999995232,233000.696,254001.4,1,16,1,
sequence,flow.Sequence,4_0,2024-03-19T18:55:50.231Z,,,,,,,,,,,20981.10399995232,completion,,,,,,,high,high,,,,,,,true,,,,,false,253984,253981.79999995232,233000.696,232984.70000004768,233000.696,254001.4,1,16,,
trial,html.Screen,4_1_0,2024-03-19T18:56:03.008Z,,,,0,-1.250220052739973,-1.2967258992731714,,,true,hh,12758.30000004769,response,1.3471772753257971,1.2,-1.2,1.055978100098093,1.2,-1.2,high,high,,ISIC_0031368.JPG,,ISIC_2077116.JPG,,25,true,0.15000000000000002,hh,keypress(i),100,false,266760.2000000477,266759.7000000477,253984.766,253984.20000004768,254001.4,266778.6,1,16,2,
sequence,flow.Sequence,4_1,2024-03-19T18:56:03.008Z,,,,,,,,,,,12758.30000004769,completion,,,,,,,high,high,,,,,,,true,,,,,false,266761,266759.7000000477,253984.766,253984.20000004768,254001.4,266778.6,1,16,,
trial,html.Screen,4_2_0,2024-03-19T18:56:08.777Z,,,,0,-1.2059606637811695,-1.214966446488752,,,true,hh,5750.600000047707,response,1.0885984639975343,1.2,-1.2,1.2042618719491294,1.2,-1.2,high,high,,ISIC_0013334.JPG,,ISIC_0012740.JPG,,25,true,0.15000000000000002,hh,keypress(i),100,false,272529.7000000477,272529.2000000477,266761.966,266761.39999997616,266778.6,272550,1,16,3,
sequence,flow.Sequence,4_2,2024-03-19T18:56:08.778Z,,,,,,,,,,,5750.600000047707,completion,,,,,,,high,high,,,,,,,true,,,,,false,272530.2999999523,272529.2000000477,266761.966,266761.2000000477,266778.6,272550,1,16,,
trial,html.Screen,4_3_0,2024-03-19T18:56:11.314Z,,,,0,-1.089914260719518,-1.1695563571046357,,,true,hh,2516,response,1.0885984639975343,1.2,-1.2,1.2042618719491294,1.2,-1.2,high,high,,ISIC_0030695.JPG,,ISIC_0012740.JPG,,25,true,0.15000000000000002,hh,keypress(i),100,false,275066.60000002384,275066,272533.332,272530.60000002384,272550,275085.5,1,16,4,
sequence,flow.Sequence,4_3,2024-03-19T18:56:11.315Z,,,,,,,,,,,2516,completion,,,,,,,high,high,,,,,,,true,,,,,false,275067.39999997616,275066,272533.332,272530.60000002384,272550,275085.5,1,16,,
trial,html.Screen,4_4_0,2024-03-19T18:56:17.771Z,,,,0,1.3045229691102764,1.1781544075681951,,,true,ll,6437.600000023842,response,-1.2232482867978696,1.2,-1.2,-1.2451219760556858,1.2,-1.2,low,low,,ISIC_6148533.JPG,,ISIC_0030889.JPG,,27,true,0.12,ll,keypress(f),100,false,281523.2999999523,281523.10000002384,275068.766,275067.60000002384,275085.5,281540.8,1,16,5,
sequence,flow.Sequence,4_4,2024-03-19T18:56:17.771Z,,,,,,,,,,,6437.600000023842,completion,,,,,,,low,low,,,,,,,true,,,,,false,281523.5,281523.10000002384,275068.766,275067.5,275085.5,281540.8,1,16,,
trial,html.Screen,4_5_0,2024-03-19T18:56:20.978Z,,,,0,1.073296525451802,1.3454282740421717,,,true,ll,3189.09999997617,response,-1.1711612520017805,1.2,-1.2,-1.191169949562454,1.2,-1.2,low,low,,ISIC_5787312.JPG,,ISIC_0061936.JPG,,41,true,0.15000000000000002,ll,keypress(f),100,false,284730.39999997616,284729.89999997616,281524.164,281523.60000002384,281540.8,284759.9,1,16,6,
sequence,flow.Sequence,4_5,2024-03-19T18:56:20.979Z,,,,,,,,,,,3189.09999997617,completion,,,,,,,low,low,,,,,,,true,,,,,false,284731.39999997616,284729.89999997616,281524.164,281523.60000002384,281540.8,284759.9,1,16,,
trial,html.Screen,4_6_0,2024-03-19T18:56:26.156Z,,,,0,1.0878102877901663,1.3154097543539391,,,true,ll,5148.599999999977,response,-1.2893246069103816,1.2,-1.2,-1.0655029133871594,1.2,-1.2,low,low,,ISIC_1413242.JPG,,ISIC_0070747.JPG,,41,true,0.15000000000000002,ll,keypress(f),100,false,289908.7999999523,289908.5,284743.5,284731.7000000477,284759.9,289930.7,1,16,7,
sequence,flow.Sequence,4_6,2024-03-19T18:56:26.156Z,,,,,,,,,,,5148.599999999977,completion,,,,,,,low,low,,,,,,,true,,,,,false,289909.2000000477,289908.5,284743.5,284731.7000000477,284759.9,289930.7,1,16,,
trial,html.Screen,4_7_0,2024-03-19T18:56:29.539Z,,,,0,1.0878102877901663,1.3154097543539391,,,true,ll,3361.0999999523046,response,-1.1894733304494307,1.2,-1.2,-1.1169761866204877,1.2,-1.2,low,low,,ISIC_1413242.JPG,,ISIC_0033813.JPG,,41,true,0.15000000000000002,ll,keypress(f),100,false,293292.2000000477,293291.7999999523,289914.154,289909.2999999523,289930.7,293317.2,1,16,8,
sequence,flow.Sequence,4_7,2024-03-19T18:56:29.540Z,,,,,,,,,,,3361.0999999523046,completion,,,,,,,low,low,,,,,,,true,,,,,false,293292.7000000477,293291.7999999523,289914.154,289909.2999999523,289930.7,293317.2,1,16,,
trial,html.Screen,4_8_0,2024-03-19T18:56:35.481Z,,,,0,1.1235224875125256,-0.8641223012137988,,,true,lh,5916.000000047672,response,-1.0748728054622358,1.2,-1.2,1.2840853987892311,1.2,-1.2,low,high,,ISIC_0033901.JPG,,ISIC_0059219.JPG,,26,true,0.3300000000000002,lh,keypress(e),100,false,299233.7000000477,299233.2000000477,293300.498,293293,293317.2,299255.2,1,16,9,
sequence,flow.Sequence,4_8,2024-03-19T18:56:35.482Z,,,,,,,,,,,5916.000000047672,completion,,,,,,,low,high,,,,,,,true,,,,,false,299234.39999997616,299233.2000000477,293300.498,293292.7999999523,293317.2,299255.2,1,16,,
trial,html.Screen,4_9_0,2024-03-19T18:56:42.824Z,,,,0,0.8534691366511764,-1.276663727068437,,,true,lh,7320.500000047672,response,-1.0822170028935367,1.2,-1.2,1.1654796154432183,1.2,-1.2,low,high,,ISIC_0056788.JPG,,ISIC_7288818.JPG,,33,true,0.3600000000000002,lh,keypress(e),100,false,306576.39999997616,306575.7000000477,299238.766,299234.7000000477,299255.2,306594.5,1,16,10,
sequence,flow.Sequence,4_9,2024-03-19T18:56:42.825Z,,,,,,,,,,,7320.500000047672,completion,,,,,,,low,high,,,,,,,true,,,,,false,306577.10000002384,306575.7000000477,299238.766,299234.7000000477,299255.2,306594.5,1,16,,
trial,html.Screen,4_10_0,2024-03-19T18:57:02.873Z,,,,0,1.064425982109969,-0.958564243697126,,,false,lh,20030.100000023842,response,-0.9225524349657857,1.2,-1.2,0.929746784178986,1.2,-1.2,low,high,,ISIC_3203344.JPG,,ISIC_0011077.JPG,,33,true,0.3600000000000002,hh,keypress(i),100,false,326625,326624.60000002384,306577.992,306577.5,306594.5,326644.3,1,16,11,
sequence,flow.Sequence,4_10,2024-03-19T18:57:02.873Z,,,,,,,,,,,20030.100000023842,completion,,,,,,,low,high,,,,,,,true,,,,,false,326625.60000002384,326624.60000002384,306577.992,306577.39999997616,306594.5,326644.3,1,16,,
trial,html.Screen,4_11_0,2024-03-19T18:57:10.508Z,,,,0,1.4727776799485246,-0.8779113138076752,,,false,lh,7615.8000000238535,response,-0.8787496315223856,1.2,-1.2,1.3680901203013998,1.2,-1.2,low,high,,ISIC_0033074.JPG,,ISIC_0023811.JPG,,33,true,0.3600000000000002,hh,keypress(i),100,false,334260.5,334260.10000002384,326627.998,326625.89999997616,326644.3,334284.1,1,16,12,
sequence,flow.Sequence,4_11,2024-03-19T18:57:10.509Z,,,,,,,,,,,7615.8000000238535,completion,,,,,,,low,high,,,,,,,true,,,,,false,334261.10000002384,334260.10000002384,326627.998,326625.7999999523,326644.3,334284.1,1,16,,
trial,html.Screen,4_12_0,2024-03-19T18:57:33.887Z,,,,0,-1.2609895831255231,1.0687377724194886,,,true,hl,23355.100000047707,response,1.0143509683988825,1.2,-1.2,-1.0281980567462463,1.2,-1.2,high,low,,ISIC_1367610.JPG,,ISIC_0062031.JPG,,29,true,0.3600000000000002,hl,keypress(j),100,false,357639.60000002384,357639.2000000477,334267.598,334261.39999997616,334284.1,357670.2,1,16,13,
sequence,flow.Sequence,4_12,2024-03-19T18:57:33.888Z,,,,,,,,,,,23355.100000047707,completion,,,,,,,high,low,,,,,,,true,,,,,false,357640.39999997616,357639.2000000477,334267.598,334261.2999999523,334284.1,357670.2,1,16,,
trial,html.Screen,4_13_0,2024-03-19T18:57:37.819Z,,,,0,-1.0700930503975157,0.923753102263735,,,true,hl,3900.500000047672,response,1.1235224875125256,1.2,-1.2,-0.8641223012137988,1.2,-1.2,high,low,,ISIC_0000022.JPG,,ISIC_0033901.JPG,,29,true,0.3600000000000002,hl,keypress(j),100,false,361571.2999999523,361570.7000000477,357653.498,357640.7000000477,357670.2,361589.8,1,16,14,
sequence,flow.Sequence,4_13,2024-03-19T18:57:37.820Z,,,,,,,,,,,3900.500000047672,completion,,,,,,,high,low,,,,,,,true,,,,,false,361572,361570.7000000477,357653.498,357640.7000000477,357670.2,361589.8,1,16,,
trial,html.Screen,4_14_0,2024-03-19T18:57:43.423Z,,,,0,-1.1592423187534993,1.067128884093211,,,true,hl,5584.700000000012,response,1.2838089642212804,1.2,-1.2,-0.8550527900640753,1.2,-1.2,high,low,,ISIC_6854940.JPG,,ISIC_0034187.JPG,,29,true,0.3600000000000002,hl,keypress(j),100,false,367174.7999999523,367174.5,361573.466,361572.2000000477,361589.8,367194.4,1,16,15,
sequence,flow.Sequence,4_14,2024-03-19T18:57:43.423Z,,,,,,,,,,,5584.700000000012,completion,,,,,,,high,low,,,,,,,true,,,,,false,367175.5,367174.5,361573.466,361572.10000002384,361589.8,367194.4,1,16,,
trial,html.Screen,4_15_0,2024-03-19T18:57:54.915Z,,,,0,-0.9566823908868002,0.9602125665128364,,,true,hl,11472.099999999977,response,0.8591294258188253,1.2,-1.2,-0.870797302150167,1.2,-1.2,high,low,,ISIC_0056784.JPG,,ISIC_0055841.JPG,,29,true,0.3600000000000002,hl,keypress(j),100,false,378667,378666.5,367178.064,367175.7999999523,367194.4,378687.6,1,16,16,
sequence,flow.Sequence,4_15,2024-03-19T18:57:54.915Z,,,,,,,,,,,11472.099999999977,completion,,,,,,,high,low,,,,,,,true,,,,,false,378667.5,378666.5,367178.064,367175.7000000477,367194.4,378687.6,1,16,,
demonstration_loop,flow.Loop,4,2024-03-19T18:57:54.916Z,,,,,,,,,,,145665.804,completion,,,,,,,,,,,,,,,true,,,,,false,378667.89999997616,378666.5,233000.696,232984.70000004768,233000.696,378687.6,1,16,,
practice_instructions,html.Screen,5,2024-03-19T18:58:24.665Z,,,,,,,,,,,29720.100000047707,response,,,,,,,,,,,,,,,,,continue,click button,,,408417.5,408407.7000000477,378670.866,378668.2000000477,378687.6,408429.094,,,,
trial,html.Screen,6_0_0,2024-03-19T18:58:33.208Z,,,,1,-1.1592423187534993,1.067128884093211,,,true,hl,8524.805999976175,response,1.064425982109969,1.2,-1.2,-0.958564243697126,1.2,-1.2,high,low,,ISIC_6854940.JPG,,ISIC_3203344.JPG,,29,true,0.3600000000000002,hl,keypress(j),0,false,416960.5,416953.89999997616,408429.094,408417.7000000477,408429.094,416985.8,1,40,1,
sequence,flow.Sequence,6_0,2024-03-19T18:58:33.208Z,,,,,,,,,,,8524.805999976175,completion,,,,,,,high,low,,,,,,,true,,,,,false,416960.60000002384,416953.89999997616,408429.094,408417.7000000477,408429.094,416985.8,1,40,,
trial,html.Screen,6_1_0,2024-03-19T18:58:39.690Z,,,,1,-1.0822170028935367,1.1654796154432183,,,true,hl,6456.3000000238535,response,1.1890109863264902,1.2,-1.2,-0.8867825318561365,1.2,-1.2,high,low,,ISIC_7288818.JPG,,ISIC_0072576.JPG,,29,true,0.3600000000000002,hl,keypress(j),0,false,423442.5,423442.10000002384,416968.8,416960.60000002384,416985.8,423457.7,1,40,2,
sequence,flow.Sequence,6_1,2024-03-19T18:58:39.691Z,,,,,,,,,,,6456.3000000238535,completion,,,,,,,high,low,,,,,,,true,,,,,false,423443.10000002384,423442.10000002384,416968.8,416960.60000002384,416985.8,423457.7,1,40,,
trial,html.Screen,6_2_0,2024-03-19T18:58:45.074Z,,,,1,1.073296525451802,1.3454282740421717,,,true,ll,5367.90000002383,response,-1.2264324884092876,1.2,-1.2,-1.3687792057798869,1.2,-1.2,low,low,,ISIC_5787312.JPG,,ISIC_0029318.JPG,,211,true,0.3300000000000002,ll,keypress(f),0,false,428826,428825.60000002384,423441,423443.39999997616,423457.7,428828.6,1,40,3,
sequence,flow.Sequence,6_2,2024-03-19T18:58:45.074Z,,,,,,,,,,,5367.90000002383,completion,,,,,,,low,low,,,,,,,true,,,,,false,428826.5,428825.60000002384,423441,423443.2999999523,423457.7,428828.6,1,40,,
trial,html.Screen,6_3_0,2024-03-19T18:58:48.282Z,,,,1,1.0959058628476686,1.2921331918483707,,,true,ll,3205.100000047707,response,-1.078286816527963,1.2,-1.2,-1.1255116193013075,1.2,-1.2,low,low,,ISIC_5920470.JPG,,ISIC_0066213.JPG,,41,true,0.15000000000000002,ll,keypress(f),0,false,432034,432033.7000000477,428825.092,428826.7999999523,428828.6,432048.2,1,40,4,
sequence,flow.Sequence,6_3,2024-03-19T18:58:48.282Z,,,,,,,,,,,3205.100000047707,completion,,,,,,,low,low,,,,,,,true,,,,,false,432034.7000000477,432033.7000000477,428825.092,428826.7000000477,428828.6,432048.2,1,40,,
trial,html.Screen,6_4_0,2024-03-19T18:58:51.255Z,,,,1,1.1604734171556077,1.0789312625280616,,,true,ll,2959.40000002383,response,-1.0762260610050776,1.2,-1.2,-1.1184338818466155,1.2,-1.2,low,low,,ISIC_3950753.JPG,,ISIC_0058666.JPG,,41,true,0.15000000000000002,ll,keypress(f),0,false,435007.7999999523,435007.60000002384,432031.5,432034.89999997616,432048.2,435016.9,1,40,5,
sequence,flow.Sequence,6_4,2024-03-19T18:58:51.255Z,,,,,,,,,,,2959.40000002383,completion,,,,,,,low,low,,,,,,,true,,,,,false,435007.7999999523,435007.60000002384,432031.5,432034.7999999523,432048.2,435016.9,1,40,,
trial,html.Screen,6_5_0,2024-03-19T18:59:07.246Z,,,,1,0.8494721812820843,-1.3435429139974266,,,,,16013.299999999988,timeout,-0.9046170303418553,1.2,-1.2,1.0063426986460375,1.2,-1.2,low,high,,ISIC_0033585.JPG,,ISIC_0055759.JPG,,26,true,0.3300000000000002,,,0,false,450998.5,450998.2000000477,435015.388,435007.7999999523,435016.9,451030.2,1,40,6,
sequence,flow.Sequence,6_5,2024-03-19T18:59:07.247Z,,,,,,,,,,,15981.30000004766,completion,,,,,,,low,high,,,,,,,true,,,,,false,450999.10000002384,450998.2000000477,435015.388,435007.7999999523,435016.9,451030.2,1,40,,
trial,html.Screen,6_6_0,2024-03-19T18:59:11.913Z,,,,1,0.9087169856594104,-0.8835647084207277,,,true,lh,4635.299999999988,response,-1.0345332538240786,1.2,-1.2,1.4719115945084815,1.2,-1.2,low,high,,ISIC_0000349.JPG,,ISIC_0192490.JPG,,33,true,0.3600000000000002,lh,keypress(e),0,false,455665.7999999523,455665.5,451013.5,450999.2999999523,451030.2,455684.4,1,40,7,
sequence,flow.Sequence,6_6,2024-03-19T18:59:11.914Z,,,,,,,,,,,4635.299999999988,completion,,,,,,,low,high,,,,,,,true,,,,,false,455666.2999999523,455665.5,451013.5,450999.10000002384,451030.2,455684.4,1,40,,
trial,html.Screen,6_7_0,2024-03-19T18:59:16.368Z,,,,1,1.3045229691102764,1.1781544075681951,,,true,ll,4435.499999976135,response,-1.3829859918989194,1.2,-1.2,-1.364176458580734,1.2,-1.2,low,low,,ISIC_6148533.JPG,,ISIC_0058022.JPG,,249,true,0.3600000000000002,ll,keypress(f),0,false,460120,460119.89999997616,455664.254,455666.5,455684.4,460137.6,1,40,8,
sequence,flow.Sequence,6_7,2024-03-19T18:59:16.368Z,,,,,,,,,,,4435.499999976135,completion,,,,,,,low,low,,,,,,,true,,,,,false,460120.2000000477,460119.89999997616,455664.254,455666.5,455684.4,460137.6,1,40,,
trial,html.Screen,6_8_0,2024-03-19T18:59:20.834Z,,,,1,1.1168199061753437,1.212287319329914,,,true,ll,4448.299999976181,response,-1.2055236989581275,1.2,-1.2,-1.1960893075698802,1.2,-1.2,low,low,,ISIC_5919355.JPG,,ISIC_0072393.JPG,,41,true,0.15000000000000002,ll,keypress(f),0,false,464586.2999999523,464585.89999997616,460118.462,460120.2999999523,460137.6,464608,1,40,9,
sequence,flow.Sequence,6_8,2024-03-19T18:59:20.835Z,,,,,,,,,,,4448.299999976181,completion,,,,,,,low,low,,,,,,,true,,,,,false,464586.89999997616,464585.89999997616,460118.462,460120.2999999523,460137.6,464608,1,40,,
trial,html.Screen,6_9_0,2024-03-19T18:59:23.514Z,,,,1,1.00615481805876,-0.8428903771195875,,,true,lh,2657.899999976158,response,-1.0345332538240786,1.2,-1.2,1.4719115945084815,1.2,-1.2,low,high,,ISIC_0069970.JPG,,ISIC_0192490.JPG,,26,true,0.3300000000000002,lh,keypress(e),0,false,467266.2999999523,467265.89999997616,464605.394,464587.10000002384,464608,467277,1,40,10,
sequence,flow.Sequence,6_9,2024-03-19T18:59:23.514Z,,,,,,,,,,,2657.899999976158,completion,,,,,,,low,high,,,,,,,true,,,,,false,467266.7999999523,467265.89999997616,464605.394,464587.10000002384,464608,467277,1,40,,
trial,html.Screen,6_10_0,2024-03-19T18:59:29.186Z,,,,1,-1.0264463986917702,1.171271535505083,,,true,hl,5660.799999952316,response,1.00615481805876,1.2,-1.2,-0.8428903771195875,1.2,-1.2,high,low,,ISIC_7889838.JPG,,ISIC_0069970.JPG,,29,true,0.3600000000000002,hl,keypress(j),0,false,472938.2000000477,472937.7999999523,467275.8,467267,467277,472948.3,1,40,11,
sequence,flow.Sequence,6_10,2024-03-19T18:59:29.186Z,,,,,,,,,,,5660.799999952316,completion,,,,,,,high,low,,,,,,,true,,,,,false,472938.7000000477,472937.7999999523,467275.8,467267,467277,472948.3,1,40,,
trial,html.Screen,6_11_0,2024-03-19T18:59:33.738Z,,,,1,1.1638334638021437,1.0846635401396965,,,true,ll,4541.8000000238535,response,-1.418771357270887,1.2,-1.2,-1.1578619398362149,1.2,-1.2,low,low,,ISIC_4718313.JPG,,ISIC_0024999.JPG,,211,true,0.3300000000000002,ll,keypress(f),0,false,477490.5,477490.10000002384,472944.614,472939,472948.3,477518.7,1,40,12,
sequence,flow.Sequence,6_11,2024-03-19T18:59:33.739Z,,,,,,,,,,,4541.8000000238535,completion,,,,,,,low,low,,,,,,,true,,,,,false,477491.10000002384,477490.10000002384,472944.614,472938.89999997616,472948.3,477518.7,1,40,,
trial,html.Screen,6_12_0,2024-03-19T18:59:37.234Z,,,,1,0.8644465729542988,-0.8679598285079457,,,true,lh,3467.000000047672,response,-1.0264463986917702,1.2,-1.2,1.171271535505083,1.2,-1.2,low,high,,ISIC_6718969.JPG,,ISIC_7889838.JPG,,26,true,0.3300000000000002,lh,keypress(e),0,false,480986.10000002384,480985.7000000477,477515.724,477491.2999999523,477518.7,481005.7,1,40,13,
sequence,flow.Sequence,6_12,2024-03-19T18:59:37.234Z,,,,,,,,,,,3467.000000047672,completion,,,,,,,low,high,,,,,,,true,,,,,false,480986.60000002384,480985.7000000477,477515.724,477491.2999999523,477518.7,481005.7,1,40,,
trial,html.Screen,6_13_0,2024-03-19T18:59:42.578Z,,,,1,-1.2059606637811695,-1.214966446488752,,,true,hh,5323.799999999988,response,0.8479744227240601,1.2,-1.2,1.0203856528186417,1.2,-1.2,high,high,,ISIC_0013334.JPG,,ISIC_3392451.JPG,,157,true,0.3600000000000002,hh,keypress(i),0,false,486330,486329.5,480986.368,480986.89999997616,481005.7,486342.9,1,40,14,
sequence,flow.Sequence,6_13,2024-03-19T18:59:42.578Z,,,,,,,,,,,5323.799999999988,completion,,,,,,,high,high,,,,,,,true,,,,,false,486330.60000002384,486329.5,480986.368,480986.7999999523,481005.7,486342.9,1,40,,
trial,html.Screen,6_14_0,2024-03-19T18:59:46.882Z,,,,1,1.0885984639975343,1.2042618719491294,,,true,ll,4291.30000004766,response,-1.089914260719518,1.2,-1.2,-1.1695563571046357,1.2,-1.2,low,low,,ISIC_0012740.JPG,,ISIC_0030695.JPG,,27,true,0.12,ll,keypress(f),0,false,490634.5,490634.2000000477,486326.1,486330.89999997616,486342.9,490646.2,1,40,15,
sequence,flow.Sequence,6_14,2024-03-19T18:59:46.883Z,,,,,,,,,,,4291.30000004766,completion,,,,,,,low,low,,,,,,,true,,,,,false,490635.10000002384,490634.2000000477,486326.1,486330.7000000477,486342.9,490646.2,1,40,,
trial,html.Screen,6_15_0,2024-03-19T18:59:51.795Z,,,,1,-0.887838744955182,1.3716210719758812,,,true,hl,4900.90000002383,response,0.9445114955578736,1.2,-1.2,-1.0054210059625863,1.2,-1.2,high,low,,ISIC_1488727.JPG,,ISIC_0033807.JPG,,29,true,0.3600000000000002,hl,keypress(j),0,false,495547.7999999523,495547.10000002384,490643.668,490635.2999999523,490646.2,495566.9,1,40,16,
sequence,flow.Sequence,6_15,2024-03-19T18:59:51.796Z,,,,,,,,,,,4900.90000002383,completion,,,,,,,high,low,,,,,,,true,,,,,false,495548.5,495547.10000002384,490643.668,490635.2999999523,490646.2,495566.9,1,40,,
trial,html.Screen,6_16_0,2024-03-19T18:59:57.778Z,,,,1,1.2838089642212804,-0.8550527900640753,,,true,lh,5963.200000023819,response,-1.0961318727760048,1.2,-1.2,1.2134960228256146,1.2,-1.2,low,high,,ISIC_0034187.JPG,,ISIC_9768421.JPG,,26,true,0.3300000000000002,lh,keypress(e),0,false,501530.60000002384,501530.10000002384,495563.844,495548.89999997616,495566.9,501538.6,1,40,17,
sequence,flow.Sequence,6_16,2024-03-19T18:59:57.779Z,,,,,,,,,,,5963.200000023819,completion,,,,,,,low,high,,,,,,,true,,,,,false,501531,501530.10000002384,495563.844,495548.7999999523,495566.9,501538.6,1,40,,
trial,html.Screen,6_17_0,2024-03-19T19:00:04.066Z,,,,1,1.2714351764931109,1.0785174776187512,,,true,ll,6279.100000047707,response,-1.5477347901499845,1.2,-1.2,-0.8594489365423522,1.2,-1.2,low,low,,ISIC_2454898.JPG,,ISIC_0053542.JPG,,249,true,0.3600000000000002,ll,keypress(f),0,false,507818,507817.7000000477,501534.568,501531.2999999523,501538.6,507843.7,1,40,18,
sequence,flow.Sequence,6_17,2024-03-19T19:00:04.066Z,,,,,,,,,,,6279.100000047707,completion,,,,,,,low,low,,,,,,,true,,,,,false,507818.60000002384,507817.7000000477,501534.568,501531.2000000477,501538.6,507843.7,1,40,,
trial,html.Screen,6_18_0,2024-03-19T19:00:09.522Z,,,,1,-1.2609895831255231,1.0687377724194886,,,true,hl,5430.40000002383,response,1.1890109863264902,1.2,-1.2,-0.8867825318561365,1.2,-1.2,high,low,,ISIC_1367610.JPG,,ISIC_0072576.JPG,,29,true,0.3600000000000002,hl,keypress(j),0,false,513274.5,513274.10000002384,507839.288,507819.10000002384,507843.7,513281.6,1,40,19,
sequence,flow.Sequence,6_18,2024-03-19T19:00:09.523Z,,,,,,,,,,,5430.40000002383,completion,,,,,,,high,low,,,,,,,true,,,,,false,513275.2000000477,513274.10000002384,507839.288,507819.10000002384,507843.7,513281.6,1,40,,
trial,html.Screen,6_19_0,2024-03-19T19:00:13.618Z,,,,1,-1.2040551955011098,-1.2664651062241792,,,true,hh,4088.500000023865,response,0.9696118525781644,1.2,-1.2,0.9712966348713286,1.2,-1.2,high,high,,ISIC_0068886.JPG,,ISIC_7927525.JPG,,127,true,0.3300000000000002,hh,keypress(i),0,false,517370.5,517370.10000002384,513277.956,513275.5,513281.6,517384.9,1,40,20,
sequence,flow.Sequence,6_19,2024-03-19T19:00:13.619Z,,,,,,,,,,,4088.500000023865,completion,,,,,,,high,high,,,,,,,true,,,,,false,517371.10000002384,517370.10000002384,513277.956,513275.39999997616,513281.6,517384.9,1,40,,
trial,html.Screen,6_20_0,2024-03-19T19:00:18.545Z,,,,1,-0.8709576717420565,1.2795156779072283,,,true,hl,4912.700000023819,response,0.9385447468573198,1.2,-1.2,-1.2289860846064424,1.2,-1.2,high,low,,ISIC_1925632.JPG,,ISIC_0032780.JPG,,29,true,0.3600000000000002,hl,keypress(j),0,false,522297.89999997616,522297.60000002384,517382.576,517371.2999999523,517384.9,522322.3,1,40,21,
sequence,flow.Sequence,6_20,2024-03-19T19:00:18.546Z,,,,,,,,,,,4912.700000023819,completion,,,,,,,high,low,,,,,,,true,,,,,false,522298.39999997616,522297.60000002384,517382.576,517371.2000000477,517384.9,522322.3,1,40,,
trial,html.Screen,6_21_0,2024-03-19T19:00:24.298Z,,,,1,-1.0345332538240786,1.4719115945084815,,,true,hl,5727.400000047695,response,1.411763789273233,1.2,-1.2,-1.0057734478347988,1.2,-1.2,high,low,,ISIC_0192490.JPG,,ISIC_0027235.JPG,,29,true,0.3600000000000002,hl,keypress(j),0,false,528050.1000000238,528049.7000000477,522319.21,522298.7000000477,522322.3,528060.4,1,40,22,
sequence,flow.Sequence,6_21,2024-03-19T19:00:24.298Z,,,,,,,,,,,5727.400000047695,completion,,,,,,,high,low,,,,,,,true,,,,,false,528050.7000000477,528049.7000000477,522319.21,522298.60000002384,522322.3,528060.4,1,40,,
trial,html.Screen,6_22_0,2024-03-19T19:00:29.592Z,,,,1,0.8779374983479176,-0.9745548032823428,,,true,lh,5283.499999976135,response,-1.155796217969438,1.2,-1.2,1.1646564121743912,1.2,-1.2,low,high,,ISIC_2991354.JPG,,ISIC_2685523.JPG,,26,true,0.3300000000000002,lh,keypress(e),0,false,533344.1000000238,533343.8999999762,528056.544,528050.8999999762,528060.4,533348.1,1,40,23,
sequence,flow.Sequence,6_22,2024-03-19T19:00:29.592Z,,,,,,,,,,,5283.499999976135,completion,,,,,,,low,high,,,,,,,true,,,,,false,533344.2000000477,533343.8999999762,528056.544,528050.7999999523,528060.4,533348.1,1,40,,
trial,html.Screen,6_23_0,2024-03-19T19:00:34.001Z,,,,1,-1.3034518282811869,-1.0897657776277234,,,true,hh,4405.400000000023,response,1.02671179315839,1.2,-1.2,1.232411858241539,1.2,-1.2,high,high,,ISIC_0071988.JPG,,ISIC_7779155.JPG,,157,true,0.3600000000000002,hh,keypress(i),0,false,537753.8999999762,537753.5,533344.452,533344.2999999523,533348.1,537768.6,1,40,24,
sequence,flow.Sequence,6_23,2024-03-19T19:00:34.002Z,,,,,,,,,,,4405.400000000023,completion,,,,,,,high,high,,,,,,,true,,,,,false,537754.3999999762,537753.5,533344.452,533344.2999999523,533348.1,537768.6,1,40,,
trial,html.Screen,6_24_0,2024-03-19T19:00:37.506Z,,,,1,-1.3132505134129506,-1.0949928516457437,,,true,hh,3489.4000000000233,response,1.1168199061753437,1.2,-1.2,1.212287319329914,1.2,-1.2,high,high,,ISIC_0066935.JPG,,ISIC_5919355.JPG,,25,true,0.15000000000000002,hh,keypress(i),0,false,541258.2999999523,541258,537751.7,537754.6000000238,537768.6,541271.3,1,40,25,
sequence,flow.Sequence,6_24,2024-03-19T19:00:37.506Z,,,,,,,,,,,3489.4000000000233,completion,,,,,,,high,high,,,,,,,true,,,,,false,541258.7999999523,541258,537751.7,537754.6000000238,537768.6,541271.3,1,40,,
trial,html.Screen,6_25_0,2024-03-19T19:00:40.137Z,,,,1,-1.1392234684115472,-1.3198277407683998,,,true,hh,2617.9999999522697,response,1.0959058628476686,1.2,-1.2,1.2921331918483707,1.2,-1.2,high,high,,ISIC_0071875.JPG,,ISIC_5920470.JPG,,25,true,0.15000000000000002,hh,keypress(i),0,false,543889.7000000477,543889.2999999523,541269.3,541259.1000000238,541271.3,543907,1,40,26,
sequence,flow.Sequence,6_25,2024-03-19T19:00:40.138Z,,,,,,,,,,,2617.9999999522697,completion,,,,,,,high,high,,,,,,,true,,,,,false,543890.2000000477,543889.2999999523,541269.3,541259,541271.3,543907,1,40,,
trial,html.Screen,6_26_0,2024-03-19T19:00:42.913Z,,,,1,-1.1715181192107684,-1.2251845559044463,,,true,hh,2758.5,response,1.1363600109870835,1.2,-1.2,1.295816345369928,1.2,-1.2,high,high,,ISIC_0011957.JPG,,ISIC_0026141.JPG,,25,true,0.15000000000000002,hh,keypress(i),0,false,546666,546665.5,543890.3,543890.2999999523,543907,546690.862,1,40,27,
sequence,flow.Sequence,6_26,2024-03-19T19:00:42.914Z,,,,,,,,,,,2758.5,completion,,,,,,,high,high,,,,,,,true,,,,,false,546666.5,546665.5,543890.3,543890.2999999523,543907,546690.862,1,40,,
trial,html.Screen,6_27_0,2024-03-19T19:00:46.505Z,,,,1,-1.0961318727760048,1.2134960228256146,,,true,hl,3566.5379999761935,response,1.064425982109969,1.2,-1.2,-0.958564243697126,1.2,-1.2,high,low,,ISIC_9768421.JPG,,ISIC_3203344.JPG,,29,true,0.3600000000000002,hl,keypress(j),0,false,550257.7999999523,550257.3999999762,546690.862,546666.7999999523,546690.862,550262.1,1,40,28,
sequence,flow.Sequence,6_27,2024-03-19T19:00:46.506Z,,,,,,,,,,,3566.5379999761935,completion,,,,,,,high,low,,,,,,,true,,,,,false,550258.3999999762,550257.3999999762,546690.862,546666.6000000238,546690.862,550262.1,1,40,,
trial,html.Screen,6_28_0,2024-03-19T19:00:49.201Z,,,,1,-1.089914260719518,-1.1695563571046357,,,true,hh,2691.2999999761814,response,1.1638334638021437,1.2,-1.2,1.0846635401396965,1.2,-1.2,high,high,,ISIC_0030695.JPG,,ISIC_4718313.JPG,,127,true,0.3300000000000002,hh,keypress(i),0,false,552953.7000000477,552953.3999999762,550259.864,550258.6000000238,550262.1,552964.2,1,40,29,
sequence,flow.Sequence,6_28,2024-03-19T19:00:49.202Z,,,,,,,,,,,2691.2999999761814,completion,,,,,,,high,high,,,,,,,true,,,,,false,552954.2000000477,552953.3999999762,550259.864,550258.6000000238,550262.1,552964.2,1,40,,
trial,html.Screen,6_29_0,2024-03-19T19:00:52.225Z,,,,1,1.1727618800748076,1.0636787813411093,,,true,ll,3013.4000000238884,response,-1.2872758518949912,1.2,-1.2,-1.313723254903214,1.2,-1.2,low,low,,ISIC_9690371.JPG,,ISIC_0064376.JPG,,27,true,0.12,ll,keypress(f),0,false,555977.8999999762,555977.6000000238,552963.032,552954.5,552964.2,555983.4,1,40,30,
sequence,flow.Sequence,6_29,2024-03-19T19:00:52.226Z,,,,,,,,,,,3013.4000000238884,completion,,,,,,,low,low,,,,,,,true,,,,,false,555978.3999999762,555977.6000000238,552963.032,552954.3999999762,552964.2,555983.4,1,40,,
trial,html.Screen,6_30_0,2024-03-19T19:00:55.233Z,,,,1,-1.250220052739973,-1.2967258992731714,,,true,hh,3001.8000000476604,response,1.1363600109870835,1.2,-1.2,1.295816345369928,1.2,-1.2,high,high,,ISIC_0031368.JPG,,ISIC_0026141.JPG,,25,true,0.15000000000000002,hh,keypress(i),0,false,558985.6000000238,558985.2000000477,555981.886,555978.7000000477,555983.4,559002.6,1,40,31,
sequence,flow.Sequence,6_30,2024-03-19T19:00:55.233Z,,,,,,,,,,,3001.8000000476604,completion,,,,,,,high,high,,,,,,,true,,,,,false,558986,558985.2000000477,555981.886,555978.6000000238,555983.4,559002.6,1,40,,
trial,html.Screen,6_31_0,2024-03-19T19:00:58.921Z,,,,1,-1.2289750544294995,-1.3003764624334877,,,true,hh,3670.9000000000233,response,1.053007132776416,1.2,-1.2,1.341217082060068,1.2,-1.2,high,high,,ISIC_0054167.JPG,,ISIC_0024208.JPG,,25,true,0.15000000000000002,hh,keypress(i),0,false,562673.7999999523,562673.5,558986.1,558986.2000000477,559002.6,562688.9,1,40,32,
sequence,flow.Sequence,6_31,2024-03-19T19:00:58.922Z,,,,,,,,,,,3670.9000000000233,completion,,,,,,,high,high,,,,,,,true,,,,,false,562674.2999999523,562673.5,558986.1,558986.1000000238,559002.6,562688.9,1,40,,
trial,html.Screen,6_32_0,2024-03-19T19:01:01.826Z,,,,1,1.212030980680325,1.139863018685685,,,true,ll,2888.8000000476604,response,-1.2055236989581275,1.2,-1.2,-1.1960893075698802,1.2,-1.2,low,low,,ISIC_0008510.JPG,,ISIC_0072393.JPG,,27,true,0.12,ll,keypress(f),0,false,565578.1000000238,565577.7000000477,562672.3,562674.5,562688.9,565591.3,1,40,33,
sequence,flow.Sequence,6_32,2024-03-19T19:01:01.826Z,,,,,,,,,,,2888.8000000476604,completion,,,,,,,low,low,,,,,,,true,,,,,false,565578.6000000238,565577.7000000477,562672.3,562674.5,562688.9,565591.3,1,40,,
trial,html.Screen,6_33_0,2024-03-19T19:01:07.378Z,,,,1,-1.0264463986917702,1.171271535505083,,,true,hl,5538.400000047637,response,0.9039158082670506,1.2,-1.2,-1.0517562064343149,1.2,-1.2,high,low,,ISIC_7889838.JPG,,ISIC_0015411.JPG,,29,true,0.3600000000000002,hl,keypress(j),0,false,571130,571129.7000000477,565589.724,565578.7999999523,565591.3,571145.8,1,40,34,
sequence,flow.Sequence,6_33,2024-03-19T19:01:07.378Z,,,,,,,,,,,5538.400000047637,completion,,,,,,,high,low,,,,,,,true,,,,,false,571130.6000000238,571129.7000000477,565589.724,565578.7000000477,565591.3,571145.8,1,40,,
trial,html.Screen,6_34_0,2024-03-19T19:01:11.210Z,,,,1,1.2615315960773072,-1.194084675079932,,,true,lh,3815.900000047637,response,-1.0345332538240786,1.2,-1.2,1.4719115945084815,1.2,-1.2,low,high,,ISIC_0010044.JPG,,ISIC_0192490.JPG,,26,true,0.3300000000000002,lh,keypress(e),0,false,574962.1000000238,574961.7000000477,571129,571130.7999999523,571145.8,574980.22,1,40,35,
sequence,flow.Sequence,6_34,2024-03-19T19:01:11.210Z,,,,,,,,,,,3815.900000047637,completion,,,,,,,low,high,,,,,,,true,,,,,false,574962.6000000238,574961.7000000477,571129,571130.7999999523,571145.8,574980.22,1,40,,
trial,html.Screen,6_35_0,2024-03-19T19:01:16.130Z,,,,1,1.3515962101204746,-0.8414583575292955,,,true,lh,4901.679999976186,response,-1.2463522959513311,1.2,-1.2,0.8691422647859491,1.2,-1.2,low,high,,ISIC_0274382.JPG,,ISIC_0057192.JPG,,33,true,0.3600000000000002,lh,keypress(e),0,false,579882.2000000477,579881.8999999762,574980.22,574962.7999999523,574980.22,579886.5,1,40,36,
sequence,flow.Sequence,6_35,2024-03-19T19:01:16.130Z,,,,,,,,,,,4901.679999976186,completion,,,,,,,low,high,,,,,,,true,,,,,false,579882.6000000238,579881.8999999762,574980.22,574962.7999999523,574980.22,579886.5,1,40,,
trial,html.Screen,6_36_0,2024-03-19T19:01:20.145Z,,,,1,-1.1407514641016443,-1.280017651202714,,,true,hh,4010.7999999523163,response,1.1569583426015195,1.2,-1.2,1.02258614327008,1.2,-1.2,high,high,,ISIC_0072507.JPG,,ISIC_5705973.JPG,,157,true,0.3600000000000002,hh,keypress(i),0,false,583897.6000000238,583897.2999999523,579883.244,579882.8999999762,579886.5,583906.4,1,40,37,
sequence,flow.Sequence,6_36,2024-03-19T19:01:20.146Z,,,,,,,,,,,4010.7999999523163,completion,,,,,,,high,high,,,,,,,true,,,,,false,583898.1000000238,583897.2999999523,579883.244,579882.8999999762,579886.5,583906.4,1,40,,
trial,html.Screen,6_37_0,2024-03-19T19:01:23.889Z,,,,1,0.8591294258188253,-0.870797302150167,,,true,lh,3734.999999976135,response,-0.8787496315223856,1.2,-1.2,1.3680901203013998,1.2,-1.2,low,high,,ISIC_0055841.JPG,,ISIC_0023811.JPG,,26,true,0.3300000000000002,lh,keypress(e),0,false,587641.7999999523,587641.3999999762,583904.146,583898.3999999762,583906.4,587659.5,1,40,38,
sequence,flow.Sequence,6_37,2024-03-19T19:01:23.890Z,,,,,,,,,,,3734.999999976135,completion,,,,,,,low,high,,,,,,,true,,,,,false,587642.2999999523,587641.3999999762,583904.146,583898.2999999523,583906.4,587659.5,1,40,,
trial,html.Screen,6_38_0,2024-03-19T19:01:29.151Z,,,,1,-1.082730232773217,0.8833175387485132,,,true,hl,5244.200000047684,response,1.11329866545753,1.2,-1.2,-1.2155631217348757,1.2,-1.2,high,low,,ISIC_0011933.JPG,,ISIC_0032610.JPG,,29,true,0.3600000000000002,hl,keypress(j),0,false,592903.7999999523,592903.7000000477,587657.324,587642.6000000238,587659.5,592913.8,1,40,39,
sequence,flow.Sequence,6_38,2024-03-19T19:01:29.151Z,,,,,,,,,,,5244.200000047684,completion,,,,,,,high,low,,,,,,,true,,,,,false,592904,592903.7000000477,587657.324,587642.5,587659.5,592913.8,1,40,,
trial,html.Screen,6_39_0,2024-03-19T19:01:35.570Z,,,,1,1.2615315960773072,-1.194084675079932,,,true,lh,6407.699999999953,response,-1.0822170028935367,1.2,-1.2,1.1654796154432183,1.2,-1.2,low,high,,ISIC_0010044.JPG,,ISIC_7288818.JPG,,26,true,0.3300000000000002,lh,keypress(e),0,false,599321.8999999762,599321.5,592910.43,592904,592913.8,599335.8,1,40,40,
sequence,flow.Sequence,6_39,2024-03-19T19:01:35.570Z,,,,,,,,,,,6407.699999999953,completion,,,,,,,low,high,,,,,,,true,,,,,false,599322.3999999762,599321.5,592910.43,592904,592913.8,599335.8,1,40,,
practice_loop,flow.Loop,6,2024-03-19T19:01:35.570Z,,,,,,,,,,,190892.40600000002,completion,,,,,,,,,,,,,,,true,,,,,false,599322.7999999523,599321.5,408429.094,408417.60000002384,408429.094,599335.8,1,40,,
stair_instructions,html.Screen,7,2024-03-19T19:01:47.463Z,,,,,,,,,,,11879.300000023795,response,,,,,,,,,,,,,,,,,continue,click button,,,611215.7000000477,611215.1000000238,599331.35,599322.8999999762,599335.8,611229.2,,,,
trial,html.Screen,8_0_0,2024-03-19T19:01:54.786Z,,,,2,-0.0071892445601978,0.0246015408628738,,0.04,false,lh,7309.199999976205,response,-0.9670240379618178,1.2,-1.2,1.1806404773220665,1.2,-1.2,low,high,,ISIC_0014133.JPG,,ISIC_0002288.JPG,28,33,false,0.3600000000000002,hh,keypress(i),0,true,618538.6000000238,618538.3999999762,611212.3,611216,611229.2,618568.4,1,40,1,
sequence,flow.Sequence,8_0,2024-03-19T19:01:54.786Z,,,,,,,,,,,7309.199999976205,completion,,,,,,,low,high,,,,,,,false,,,,,true,618538.7999999523,618538.3999999762,611212.3,611215.8999999762,611229.2,618568.4,1,40,,
trial,html.Screen,8_1_0,2024-03-19T19:02:01.018Z,,,,2,-0.0399381815506136,-0.0177751789152893,,0.04,false,hl,6201.80000004766,response,1.411763789273233,1.15,-1.2,-1.0057734478347988,1.15,-1.15,high,low,,ISIC_3981425.JPG,,ISIC_0027235.JPG,28,27,false,0.31000000000000016,ll,keypress(f),0,true,624770.7000000477,624770.2000000477,618551.7,618538.7999999523,618568.4,624773.5,1,40,2,
sequence,flow.Sequence,8_1,2024-03-19T19:02:01.019Z,,,,,,,,,,,6201.80000004766,completion,,,,,,,high,low,,,,,,,false,,,,,true,624771.2000000477,624770.2000000477,618551.7,618538.7999999523,618568.4,624773.5,1,40,,
trial,html.Screen,8_2_0,2024-03-19T19:02:04.153Z,,,,2,-0.0118555311043871,-0.0087774532070196,,0.04,true,hh,3131.600000023842,response,1.204229955025689,1.15,-1.15,1.0874249761617445,1.15,-1.15,high,high,,ISIC_6488658.JPG,,ISIC_0056930.JPG,28,26,false,0.14,hh,keypress(i),0,true,627905.1000000238,627905.1000000238,624768.958,624771.5,624773.5,627909.4,1,40,3,
sequence,flow.Sequence,8_2,2024-03-19T19:02:04.153Z,,,,,,,,,,,3131.600000023842,completion,,,,,,,high,high,,,,,,,false,,,,,true,627905.2000000477,627905.1000000238,624768.958,624771.3999999762,624773.5,627909.4,1,40,,
trial,html.Screen,8_3_0,2024-03-19T19:02:09.897Z,,,,2,-0.0023664502831079,-0.0252784582169994,,0.04,true,hl,5739.999999976135,response,1.0003671514840182,1.15,-1.15,-0.8992716557663581,1.0958274655937166,-1.15,high,low,,ISIC_4156010.JPG,,ISIC_0061749.JPG,28,27,false,0.31000000000000016,hl,keypress(j),0,true,633649.7999999523,633649.3999999762,627907.816,627905.2999999523,627909.4,633664.1,1,40,4,
sequence,flow.Sequence,8_3,2024-03-19T19:02:09.898Z,,,,,,,,,,,5739.999999976135,completion,,,,,,,high,low,,,,,,,false,,,,,true,633650.2000000477,633649.3999999762,627907.816,627905.2999999523,627909.4,633664.1,1,40,,
trial,html.Screen,8_4_0,2024-03-19T19:02:16.393Z,,,,2,-0.0060918352854008,0.029032683404407,,0.04,false,ll,6481.299999976181,response,-1.2359980588867217,1.0999999999999999,-1.15,-1.0529964469124329,1.0958274655937166,-1.0999999999999999,low,low,,ISIC_8436194.JPG,,ISIC_0032840.JPG,28,27,false,0.11,hh,keypress(i),0,true,640145.7000000477,640145.3999999762,633647.7,633650.5,633664.1,640152.8,1,40,5,
sequence,flow.Sequence,8_4,2024-03-19T19:02:16.394Z,,,,,,,,,,,6481.299999976181,completion,,,,,,,low,low,,,,,,,false,,,,,true,640146.1000000238,640145.3999999762,633647.7,633650.3999999762,633664.1,640152.8,1,40,,
trial,html.Screen,8_5_0,2024-03-19T19:02:21.274Z,,,,2,-0.0166849894750452,0.0371614812368835,,0.04,true,hl,4872.900000047637,response,0.8129823105338526,1.0999999999999999,-1.15,-0.9655386457143784,1.0958274655937166,-1.15,high,low,,ISIC_6231450.JPG,,ISIC_8268025.JPG,28,27,false,0.30000000000000016,hl,keypress(j),0,true,645026.1000000238,645025.7000000477,640148.014,640146.2999999523,640152.8,645040.1,1,40,6,
sequence,flow.Sequence,8_5,2024-03-19T19:02:21.274Z,,,,,,,,,,,4872.900000047637,completion,,,,,,,high,low,,,,,,,false,,,,,true,645026.6000000238,645025.7000000477,640148.014,640146.2999999523,640152.8,645040.1,1,40,,
trial,html.Screen,8_6_0,2024-03-19T19:02:28.114Z,,,,2,-0.0377791839943904,0.0227626648172468,,0.04,true,hl,6825.799999976181,response,0.8779374983479176,1.0999999999999999,-1.15,-0.9745548032823428,1.0958274655937166,-1.15,high,low,,ISIC_7167479.JPG,,ISIC_2991354.JPG,28,27,false,0.30000000000000016,hl,keypress(j),0,true,651866.2999999523,651865.8999999762,645037.012,645026.8999999762,645040.1,651879.1,1,40,7,
sequence,flow.Sequence,8_6,2024-03-19T19:02:28.115Z,,,,,,,,,,,6825.799999976181,completion,,,,,,,high,low,,,,,,,false,,,,,true,651866.7999999523,651865.8999999762,645037.012,645026.7999999523,645040.1,651879.1,1,40,,
trial,html.Screen,8_7_0,2024-03-19T19:02:34.378Z,,,,2,-0.0050679133050021,-0.0174815595031679,,0.04,false,ll,6250.400000000023,response,-1.1894639707647994,1.0499999999999998,-1.15,-0.8576622545513327,1.0958274655937166,-0.9200467244983606,low,low,,ISIC_9848743.JPG,,ISIC_0032858.JPG,28,30,false,0.1,lh,keypress(e),0,true,658129.8999999762,658129.5,651874.3,651867,651879.1,658134.3,1,40,8,
sequence,flow.Sequence,8_7,2024-03-19T19:02:34.378Z,,,,,,,,,,,6250.400000000023,completion,,,,,,,low,low,,,,,,,false,,,,,true,658130.5,658129.5,651874.3,651866.8999999762,651879.1,658134.3,1,40,,
trial,html.Screen,8_8_0,2024-03-19T19:02:38.482Z,,,,2,-0.0118555311043871,-0.0087774532070196,,0.04,true,hh,4099.699999999953,response,1.1655508270784471,1.0499999999999998,-1.15,1.1162776063248168,1.0958274655937166,-0.9700467244983606,high,high,,ISIC_6488658.JPG,,ISIC_5509946.JPG,28,25,false,0.12,hh,keypress(i),0,true,662234.2999999523,662234,658129.99,658130.7000000477,658134.3,662254.3,1,40,9,
sequence,flow.Sequence,8_8,2024-03-19T19:02:38.483Z,,,,,,,,,,,4099.699999999953,completion,,,,,,,high,high,,,,,,,false,,,,,true,662234.8999999762,662234,658129.99,658130.7000000477,658134.3,662254.3,1,40,,
trial,html.Screen,8_9_0,2024-03-19T19:02:41.586Z,,,,2,0.0321039635696159,0.020496766286318,,0.04,false,lh,3083.0999999761116,response,-0.9448560599810628,1.0499999999999998,-1.15,0.9099421612683488,1.0958274655937166,-0.9700467244983606,low,high,,ISIC_0058063.JPG,,ISIC_9684318.JPG,28,25,false,0.28000000000000014,hh,keypress(i),0,true,665337.7000000477,665337.3999999762,662251.432,662235.2000000477,662254.3,665340.3,1,40,10,
sequence,flow.Sequence,8_9,2024-03-19T19:02:41.586Z,,,,,,,,,,,3083.0999999761116,completion,,,,,,,low,high,,,,,,,false,,,,,true,665338.2000000477,665337.3999999762,662251.432,662235,662254.3,665340.3,1,40,,
trial,html.Screen,8_10_0,2024-03-19T19:02:44.770Z,,,,2,0.010035581303589,-0.0100711721396864,,0.04,true,hh,3181.0999999761116,response,0.9512444996401545,1.0499999999999998,-1.15,0.9046053086219094,0.9631098837965828,-0.9700467244983606,high,high,,ISIC_0030592.JPG,,ISIC_0059170.JPG,28,29,false,0.11,hh,keypress(i),0,true,668521.7000000477,668521.3999999762,665338.55,665338.3999999762,665340.3,668526.2,1,40,11,
sequence,flow.Sequence,8_10,2024-03-19T19:02:44.770Z,,,,,,,,,,,3181.0999999761116,completion,,,,,,,high,high,,,,,,,false,,,,,true,668522.2000000477,668521.3999999762,665338.55,665338.2999999523,665340.3,668526.2,1,40,,
trial,html.Screen,8_11_0,2024-03-19T19:02:51.000Z,,,,2,-0.0118555311043871,-0.0087774532070196,,0.04,true,ll,6225.800000000047,response,-1.2268183254476466,0.8779249041310319,-1.15,-0.8828399683080101,0.9631098837965828,-0.9700467244983606,low,low,,ISIC_6488658.JPG,,ISIC_0053541.JPG,28,27,false,0.1,ll,keypress(f),0,true,674752.1000000238,674752,668524.136,668522.5,668526.2,674764.7,1,40,12,
sequence,flow.Sequence,8_11,2024-03-19T19:02:51.000Z,,,,,,,,,,,6225.800000000047,completion,,,,,,,low,low,,,,,,,false,,,,,true,674752.2000000477,674752,668524.136,668522.3999999762,668526.2,674764.7,1,40,,
trial,html.Screen,8_12_0,2024-03-19T19:02:56.303Z,,,,2,-0.0057914759495055,0.018500200317654,,0.04,true,hl,5290.099999952363,response,0.8150886811691144,0.8779249041310319,-1.15,-0.862416038462147,0.9631098837965828,-0.9700467244983606,high,low,,ISIC_0058723.JPG,,ISIC_0058079.JPG,28,27,false,0.16000000000000003,hl,keypress(j),0,true,680054.7999999523,680054.7999999523,674747.9,674752.2999999523,674764.7,680069.3,1,40,13,
sequence,flow.Sequence,8_12,2024-03-19T19:02:56.303Z,,,,,,,,,,,5290.099999952363,completion,,,,,,,high,low,,,,,,,false,,,,,true,680055,680054.7999999523,674747.9,674752.2000000477,674764.7,680069.3,1,40,,
trial,html.Screen,8_13_0,2024-03-19T19:02:58.610Z,,,,2,-0.0050679133050021,-0.0174815595031679,,0.04,true,hh,2292.0999999761116,response,0.8854665385930431,0.8779249041310319,-1.15,0.9330258572707198,0.9631098837965828,-0.9200467244983606,high,high,,ISIC_9848743.JPG,,ISIC_0026889.JPG,28,35,false,0.1,hh,keypress(i),0,true,682361.7000000477,682361.3999999762,680052.5,680055,680069.3,682371,1,40,14,
sequence,flow.Sequence,8_13,2024-03-19T19:02:58.610Z,,,,,,,,,,,2292.0999999761116,completion,,,,,,,high,high,,,,,,,false,,,,,true,682362.2000000477,682361.3999999762,680052.5,680055,680069.3,682371,1,40,,
trial,html.Screen,8_14_0,2024-03-19T19:03:04.081Z,,,,2,0.0361875505619981,-0.0291457404567876,,0.04,true,lh,5461.899999976158,response,-1.085089185942698,0.8240572692199171,-1.15,0.7657798385266591,0.8240572692199171,-0.9200467244983606,low,high,,ISIC_0027480.JPG,,ISIC_2283628.JPG,28,26,false,0.21000000000000008,lh,keypress(e),0,true,687833.2000000477,687832.8999999762,682369.714,682362.5,682371,687842.1,1,40,15,
sequence,flow.Sequence,8_14,2024-03-19T19:03:04.082Z,,,,,,,,,,,5461.899999976158,completion,,,,,,,low,high,,,,,,,false,,,,,true,687833.5,687832.8999999762,682369.714,682362.3999999762,682371,687842.1,1,40,,
trial,html.Screen,8_15_0,2024-03-19T19:03:10.626Z,,,,2,-0.0071892445601978,0.0246015408628738,,0.04,false,lh,6535.000000023865,response,-0.9873794329144926,0.8240572692199171,-1.0999999999999999,0.9500689037516484,0.8240572692199171,-0.9200467244983606,low,high,,ISIC_0014133.JPG,,ISIC_0013498.JPG,28,27,false,0.18000000000000005,ll,keypress(f),0,true,694377.5,694377.1000000238,687838.488,687833.6000000238,687842.1,694380.9,1,40,16,
sequence,flow.Sequence,8_15,2024-03-19T19:03:10.626Z,,,,,,,,,,,6535.000000023865,completion,,,,,,,low,high,,,,,,,false,,,,,true,694378.1000000238,694377.1000000238,687838.488,687833.6000000238,687842.1,694380.9,1,40,,
trial,html.Screen,8_16_0,2024-03-19T19:03:17.338Z,,,,2,-0.012810673904807,0.00400964452501,,0.04,true,hl,6708.700000023819,response,0.7898684912324617,0.8240572692199171,-1.0999999999999999,-0.8342581908806269,0.8740572692199171,-0.9200467244983606,high,low,,ISIC_0064656.JPG,,ISIC_0046537.JPG,28,26,false,0.13,hl,keypress(j),0,true,701090,701089.6000000238,694376.212,694378.5,694380.9,701103.1,1,40,17,
sequence,flow.Sequence,8_16,2024-03-19T19:03:17.339Z,,,,,,,,,,,6708.700000023819,completion,,,,,,,high,low,,,,,,,false,,,,,true,701090.5,701089.6000000238,694376.212,694378.3999999762,694380.9,701103.1,1,40,,
trial,html.Screen,8_17_0,2024-03-19T19:03:22.634Z,,,,2,-0.0166849894750452,0.0371614812368835,,0.04,true,hl,5282.299999976181,response,0.9445114955578736,0.8240572692199171,-1.0999999999999999,-1.0054210059625863,0.8740572692199171,-0.9200467244983606,high,low,,ISIC_6231450.JPG,,ISIC_0033807.JPG,28,26,false,0.13,hl,keypress(j),0,true,706385.7999999523,706385.3999999762,701098.338,701090.6000000238,701103.1,706390.8,1,40,18,
sequence,flow.Sequence,8_17,2024-03-19T19:03:22.634Z,,,,,,,,,,,5282.299999976181,completion,,,,,,,high,low,,,,,,,false,,,,,true,706386.2999999523,706385.3999999762,701098.338,701090.6000000238,701103.1,706390.8,1,40,,
trial,html.Screen,8_18_0,2024-03-19T19:03:27.802Z,,,,2,-0.0158987717472563,-0.0292472192292015,,0.04,false,hh,5163.099999976112,response,0.8682932893841188,0.774057269219917,-1.0999999999999999,0.949897846123557,0.8740572692199171,-0.8698395984216065,high,high,,ISIC_1366765.JPG,,ISIC_0033229.JPG,28,61,false,0.1,hl,keypress(j),0,true,711554.2000000477,711553.8999999762,706387.362,706386.5,706390.8,711561.7,1,40,19,
sequence,flow.Sequence,8_18,2024-03-19T19:03:27.803Z,,,,,,,,,,,5163.099999976112,completion,,,,,,,high,high,,,,,,,false,,,,,true,711554.7999999523,711553.8999999762,706387.362,706386.3999999762,706390.8,711561.7,1,40,,
trial,html.Screen,8_19_0,2024-03-19T19:03:33.633Z,,,,2,0.0361875505619981,-0.0291457404567876,,0.04,true,hh,5823.099999952363,response,0.869721192450462,0.774057269219917,-1.0999999999999999,0.843152880400445,0.9240572692199172,-0.8698395984216065,high,high,,ISIC_0027480.JPG,,ISIC_0000012.JPG,28,50,false,0.1,hh,keypress(i),0,true,717385.2000000477,717384.7999999523,711558.4,711555,711561.7,717399.8,1,40,20,
sequence,flow.Sequence,8_19,2024-03-19T19:03:33.634Z,,,,,,,,,,,5823.099999952363,completion,,,,,,,high,high,,,,,,,false,,,,,true,717385.7000000477,717384.7999999523,711558.4,711554.8999999762,711561.7,717399.8,1,40,,
trial,html.Screen,8_20_0,2024-03-19T19:03:38.771Z,,,,2,-0.0350697500805515,-0.0166617848231997,,0.04,false,lh,5121.99999995227,response,-0.9128554359750156,0.8064370364254534,-1.0999999999999999,0.739303798149096,0.9240572692199172,-0.8698395984216065,low,high,,ISIC_0024423.JPG,,ISIC_0030985.JPG,28,27,false,0.22000000000000008,hh,keypress(i),0,true,722522.1000000238,722521.7999999523,717395.94,717386,717399.8,722537.4,1,40,21,
sequence,flow.Sequence,8_20,2024-03-19T19:03:38.771Z,,,,,,,,,,,5121.99999995227,completion,,,,,,,low,high,,,,,,,false,,,,,true,722522.6000000238,722521.7999999523,717395.94,717385.8999999762,717399.8,722537.4,1,40,,
trial,html.Screen,8_21_0,2024-03-19T19:03:46.410Z,,,,2,0.0199897690678184,0.0312486875504497,,0.04,false,hh,7623.80000004766,response,0.7982951875745229,0.8064370364254534,-1.15,0.8048041299922801,0.7412283392747705,-0.8698395984216065,high,high,,ISIC_5482426.JPG,,ISIC_9403390.JPG,28,75,false,0.1,hl,keypress(j),0,true,730161.5,730161.2000000477,722520.7,722522.8999999762,722537.4,730177,1,40,22,
sequence,flow.Sequence,8_21,2024-03-19T19:03:46.411Z,,,,,,,,,,,7623.80000004766,completion,,,,,,,high,high,,,,,,,false,,,,,true,730162,730161.2000000477,722520.7,722522.7999999523,722537.4,730177,1,40,,
trial,html.Screen,8_22_0,2024-03-19T19:03:51.322Z,,,,2,0.0361875505619981,-0.0291457404567876,,0.04,false,lh,4896.200000047684,response,-1.0645919307156395,0.8064370364254534,-1.15,0.6501841069422212,0.7912283392747705,-0.8698395984216065,low,high,,ISIC_0027480.JPG,,ISIC_0031575.JPG,28,25,false,0.19000000000000006,hh,keypress(i),0,true,735073.5,735073.2000000477,730171.368,730162.2000000477,730177,735081.1,1,40,23,
sequence,flow.Sequence,8_22,2024-03-19T19:03:51.323Z,,,,,,,,,,,4896.200000047684,completion,,,,,,,low,high,,,,,,,false,,,,,true,735073.7999999523,735073.2000000477,730171.368,730162.2000000477,730177,735081.1,1,40,,
trial,html.Screen,8_23_0,2024-03-19T19:03:56.458Z,,,,2,0.0361875505619981,-0.0291457404567876,,0.04,false,hl,5128.000000023865,response,0.8129823105338526,0.8064370364254534,-1.15,-0.9655386457143784,0.7912283392747705,-0.8698395984216065,high,low,,ISIC_0027480.JPG,,ISIC_8268025.JPG,28,28,false,0.14,hh,keypress(i),0,true,740209.3999999762,740209.1000000238,735078.144,735074,735081.1,740218.7,1,40,24,
sequence,flow.Sequence,8_23,2024-03-19T19:03:56.459Z,,,,,,,,,,,5128.000000023865,completion,,,,,,,high,low,,,,,,,false,,,,,true,740209.7999999523,740209.1000000238,735078.144,735074,735081.1,740218.7,1,40,,
trial,html.Screen,8_24_0,2024-03-19T19:04:01.002Z,,,,2,-0.0377791839943904,0.0227626648172468,,0.04,true,hh,4534.599999952363,response,0.6633118310941692,0.6815832087380369,-1.15,0.7597667738074487,0.7912283392747705,-0.9198395984216066,high,high,,ISIC_7167479.JPG,,ISIC_4448959.JPG,28,66,false,0.1,hh,keypress(i),0,true,744753.6000000238,744753.2999999523,740215.268,740210.1000000238,740218.7,744773.3,1,40,25,
sequence,flow.Sequence,8_24,2024-03-19T19:04:01.003Z,,,,,,,,,,,4534.599999952363,completion,,,,,,,high,high,,,,,,,false,,,,,true,744754.2000000477,744753.2999999523,740215.268,740210.1000000238,740218.7,744773.3,1,40,,
trial,html.Screen,8_25_0,2024-03-19T19:04:07.594Z,,,,2,-0.0060918352854008,0.029032683404407,,0.04,true,ll,6571.699999999953,response,-1.2268290566215505,0.6815832087380369,-1.15,-0.8279360932806596,0.6615393024508089,-0.9198395984216066,low,low,,ISIC_8436194.JPG,,ISIC_0064240.JPG,28,30,false,0.1,ll,keypress(f),0,true,751345.5,751345,744752.792,744754.2999999523,744773.3,751361.1,1,40,26,
sequence,flow.Sequence,8_25,2024-03-19T19:04:07.595Z,,,,,,,,,,,6571.699999999953,completion,,,,,,,low,low,,,,,,,false,,,,,true,751346,751345,744752.792,744754.2000000477,744773.3,751361.1,1,40,,
trial,html.Screen,8_26_0,2024-03-19T19:04:11.826Z,,,,2,-0.0023664502831079,-0.0252784582169994,,0.04,true,ll,4215.600000047707,response,-1.1865123670952926,0.6815832087380369,-1.15,-0.984272725788402,0.6615393024508089,-0.9198395984216066,low,low,,ISIC_4156010.JPG,,ISIC_7096389.JPG,28,30,false,0.1,ll,keypress(f),0,true,755577.1000000238,755576.7000000477,751344.4,751346.1000000238,751361.1,755581.3,1,40,27,
sequence,flow.Sequence,8_26,2024-03-19T19:04:11.826Z,,,,,,,,,,,4215.600000047707,completion,,,,,,,low,low,,,,,,,false,,,,,true,755577.5,755576.7000000477,751344.4,751346.1000000238,751361.1,755581.3,1,40,,
trial,html.Screen,8_27_0,2024-03-19T19:04:16.618Z,,,,2,-0.012810673904807,0.00400964452501,,0.04,false,hl,4787.900000047637,response,0.7401156491866404,0.6815832087380369,-0.8561044095345307,-0.8169638598102704,0.6615393024508089,-0.8561044095345307,high,low,,ISIC_0064656.JPG,,ISIC_0072429.JPG,28,28,false,0.11,hh,keypress(i),0,true,760369.6000000238,760369.2000000477,755578.738,755577.7000000477,755581.3,760385.2,1,40,28,
sequence,flow.Sequence,8_27,2024-03-19T19:04:16.619Z,,,,,,,,,,,4787.900000047637,completion,,,,,,,high,low,,,,,,,false,,,,,true,760370.2000000477,760369.2000000477,755578.738,755577.7000000477,755581.3,760385.2,1,40,,
trial,html.Screen,8_28_0,2024-03-19T19:04:22.864Z,,,,2,-0.0158987717472563,-0.0292472192292015,,0.04,false,ll,6230.00000004773,response,-0.8800173162815772,0.6315832087380369,-0.8561044095345307,-0.912069987718464,0.6615393024508089,-0.9061044095345308,low,low,,ISIC_1366765.JPG,,ISIC_0030852.JPG,28,51,false,0.1,lh,keypress(e),0,true,766615.2999999523,766615.2000000477,760368.6,760370.5,760385.2,766623.6,1,40,29,
sequence,flow.Sequence,8_28,2024-03-19T19:04:22.864Z,,,,,,,,,,,6230.00000004773,completion,,,,,,,low,low,,,,,,,false,,,,,true,766615.3999999762,766615.2000000477,760368.6,760370.3999999762,760385.2,766623.6,1,40,,
trial,html.Screen,8_29_0,2024-03-19T19:04:27.594Z,,,,2,-0.012810673904807,0.00400964452501,,0.04,false,hh,4721.69999995234,response,0.6689204437892962,0.6315832087380369,-0.8561044095345307,0.6619621949114218,0.6615393024508089,-0.9561044095345308,high,high,,ISIC_0064656.JPG,,ISIC_0013733.JPG,28,99,false,0.1,lh,keypress(e),0,true,771345.7000000477,771345.2999999523,766607,766615.6000000238,766623.6,771361.3,1,40,30,
sequence,flow.Sequence,8_29,2024-03-19T19:04:27.595Z,,,,,,,,,,,4721.69999995234,completion,,,,,,,high,high,,,,,,,false,,,,,true,771346.2000000477,771345.2999999523,766607,766615.6000000238,766623.6,771361.3,1,40,,
trial,html.Screen,8_30_0,2024-03-19T19:04:33.770Z,,,,2,-0.0023664502831079,-0.0252784582169994,,0.04,false,lh,6160.099999976112,response,-0.7915712344154743,0.6815832087380369,-0.8561044095345307,0.746213696971686,0.6615393024508089,-0.9561044095345308,low,high,,ISIC_4156010.JPG,,ISIC_0027641.JPG,28,25,false,0.11,ll,keypress(f),0,true,777521.7000000477,777521.3999999762,771344.4,771346.3999999762,771361.3,777532.8,1,40,31,
sequence,flow.Sequence,8_30,2024-03-19T19:04:33.771Z,,,,,,,,,,,6160.099999976112,completion,,,,,,,low,high,,,,,,,false,,,,,true,777522.2000000477,777521.3999999762,771344.4,771346.2999999523,771361.3,777532.8,1,40,,
trial,html.Screen,8_31_0,2024-03-19T19:04:41.106Z,,,,2,0.0199897690678184,0.0312486875504497,,0.04,true,lh,7324.199999999953,response,-0.9158489897101793,0.6815832087380369,-0.8061044095345307,0.6165648623714117,0.711539302450809,-0.9561044095345308,low,high,,ISIC_5482426.JPG,,ISIC_8628207.JPG,28,30,false,0.11,lh,keypress(e),0,true,784857.2999999523,784857,777528.36,777522.5,777532.8,784872.2,1,40,32,
sequence,flow.Sequence,8_31,2024-03-19T19:04:41.107Z,,,,,,,,,,,7324.199999999953,completion,,,,,,,low,high,,,,,,,false,,,,,true,784857.7999999523,784857,777528.36,777522.2999999523,777532.8,784872.2,1,40,,
trial,html.Screen,8_32_0,2024-03-19T19:04:44.699Z,,,,2,-0.0377791839943904,0.0227626648172468,,0.04,true,hh,3576.9000000238884,response,0.6999553584615837,0.6815832087380369,-0.8061044095345307,0.7060610872895672,0.711539302450809,-0.9561044095345308,high,high,,ISIC_7167479.JPG,,ISIC_0084086.JPG,28,80,false,0.1,hh,keypress(i),0,true,788449.6000000238,788449.1000000238,784866.68,784858,784872.2,788458.4,1,40,33,
sequence,flow.Sequence,8_32,2024-03-19T19:04:44.699Z,,,,,,,,,,,3576.9000000238884,completion,,,,,,,high,high,,,,,,,false,,,,,true,788450.1000000238,788449.1000000238,784866.68,784858,784872.2,788458.4,1,40,,
trial,html.Screen,8_33_0,2024-03-19T19:04:48.386Z,,,,2,0.0063515208248796,0.0194177605767913,,0.04,true,ll,3678.5999999999767,response,-0.8145925452767395,0.6815832087380369,-0.8061044095345307,-0.9895687497294692,0.6530082228755754,-0.9561044095345308,low,low,,ISIC_5281908.JPG,,ISIC_0027751.JPG,28,48,false,0.1,ll,keypress(f),0,true,792137.3999999762,792137,788441.9,788450.3999999762,788458.4,792144.8,1,40,34,
sequence,flow.Sequence,8_33,2024-03-19T19:04:48.387Z,,,,,,,,,,,3678.5999999999767,completion,,,,,,,low,low,,,,,,,false,,,,,true,792137.8999999762,792137,788441.9,788450.3999999762,788458.4,792144.8,1,40,,
trial,html.Screen,8_34_0,2024-03-19T19:04:56.160Z,,,,2,0.0367218428225813,-0.0026956749740767,,0.04,false,lh,7765.99999995227,response,-0.8096767449503005,0.6815832087380369,-0.8520806475031043,0.7048298755685392,0.6530082228755754,-0.9561044095345308,low,high,,ISIC_7212271.JPG,,ISIC_2597678.JPG,28,25,false,0.11,ll,keypress(f),0,true,799910.8999999762,799910.7999999523,792142.726,792138.2000000477,792144.8,799917.8,1,40,35,
sequence,flow.Sequence,8_34,2024-03-19T19:04:56.160Z,,,,,,,,,,,7765.99999995227,completion,,,,,,,low,high,,,,,,,false,,,,,true,799911.1000000238,799910.7999999523,792142.726,792138.1000000238,792144.8,799917.8,1,40,,
trial,html.Screen,8_35_0,2024-03-19T19:05:00.104Z,,,,2,-0.0050679133050021,-0.0174815595031679,,0.04,false,ll,3937.4999999522697,response,-0.7738532220362052,0.6815832087380369,-0.8520806475031043,-0.9428791562371496,0.7030082228755754,-0.9561044095345308,low,low,,ISIC_9848743.JPG,,ISIC_0053854.JPG,28,46,false,0.1,hl,keypress(j),0,true,803855.3999999762,803855.2999999523,799912.086,799911.2000000477,799917.8,803871,1,40,36,
sequence,flow.Sequence,8_35,2024-03-19T19:05:00.104Z,,,,,,,,,,,3937.4999999522697,completion,,,,,,,low,low,,,,,,,false,,,,,true,803855.5,803855.2999999523,799912.086,799911.1000000238,799917.8,803871,1,40,,
trial,html.Screen,8_36_0,2024-03-19T19:05:06.731Z,,,,2,0.0365981355399771,0.0162670920008846,,0.04,false,hl,6610.299999952316,response,0.717897378657649,0.6815832087380369,-0.9020806475031043,-0.8788356736457825,0.7030082228755754,-0.826277950593725,high,low,,ISIC_0982855.JPG,,ISIC_3963183.JPG,28,25,false,0.1,ll,keypress(f),0,true,810481.7000000477,810481.2999999523,803854.5,803855.5,803871,810493.2,1,40,37,
sequence,flow.Sequence,8_36,2024-03-19T19:05:06.731Z,,,,,,,,,,,6610.299999952316,completion,,,,,,,high,low,,,,,,,false,,,,,true,810482.2999999523,810481.2999999523,803854.5,803855.5,803871,810493.2,1,40,,
trial,html.Screen,8_37_0,2024-03-19T19:05:10.643Z,,,,2,-0.0060918352854008,0.029032683404407,,0.04,true,ll,3900.099999952363,response,-0.8489974003990046,0.731583208738037,-0.9020806475031043,-0.7487841537780126,0.7030082228755754,-0.826277950593725,low,low,,ISIC_8436194.JPG,,ISIC_0032624.JPG,28,62,false,0.1,ll,keypress(f),0,true,814393.7000000477,814393.2999999523,810488.608,810482.5,810493.2,814396.5,1,40,38,
sequence,flow.Sequence,8_37,2024-03-19T19:05:10.643Z,,,,,,,,,,,3900.099999952363,completion,,,,,,,low,low,,,,,,,false,,,,,true,814394.1000000238,814393.2999999523,810488.608,810482.3999999762,810493.2,814396.5,1,40,,
trial,html.Screen,8_38_0,2024-03-19T19:05:17.779Z,,,,2,0.0051046740562181,-0.0178832721027728,,0.04,false,ll,7133.100000023842,response,-0.9464457672695302,0.731583208738037,-0.9020806475031043,-0.8245045690591577,0.7030082228755754,-0.7488907770885085,low,low,,ISIC_9545819.JPG,,ISIC_0027021.JPG,28,54,false,0.1,lh,keypress(e),0,true,821529.8999999762,821529.6000000238,814393.984,814394.3999999762,814396.5,821535.7,1,40,39,
sequence,flow.Sequence,8_38,2024-03-19T19:05:17.780Z,,,,,,,,,,,7133.100000023842,completion,,,,,,,low,low,,,,,,,false,,,,,true,821530.5,821529.6000000238,814393.984,814394.3999999762,814396.5,821535.7,1,40,,
trial,html.Screen,8_39_0,2024-03-19T19:05:25.114Z,,,,2,-0.0060918352854008,0.029032683404407,,0.04,true,lh,7329.00000004773,response,-0.8177173885584471,0.731583208738037,-0.8477215838342673,0.6934224282808171,0.7030082228755754,-0.7988907770885085,low,high,,ISIC_8436194.JPG,,ISIC_7196249.JPG,28,26,false,0.11,lh,keypress(e),0,true,828865.1000000238,828864.7000000477,821530.588,821530.7000000477,821535.7,828875,1,40,40,
sequence,flow.Sequence,8_39,2024-03-19T19:05:25.115Z,,,,,,,,,,,7329.00000004773,completion,,,,,,,low,high,,,,,,,false,,,,,true,828865.6000000238,828864.7000000477,821530.588,821530.7000000477,821535.7,828875,1,40,,
stair_loop,flow.Loop,8,2024-03-19T19:05:25.115Z,,,,,,,,,,,217635.50000004773,completion,,,,,,,,,,,,,,,false,,,,,true,828866,828864.7000000477,611212.3,611215.8999999762,611229.2,828875,1,40,,
exp_instructions,html.Screen,9,2024-03-19T19:05:57.713Z,,,,,,,,,,,32588.200000047684,response,,,,,,,,,,,,,,,,,continue,keypress(Space),,,861464,861463.2000000477,828869.78,828866.1000000238,828875,861468.5,,,,
trial,html.Screen,10_0_0,2024-03-19T19:06:08.202Z,,,,1,-0.0050679133050021,-0.0174815595031679,,0.04,false,lh,10484.200000047684,response,-0.8164333039971521,0.70905397427552,-0.9550427844045754,0.7749218621525992,0.7126171303027247,-0.8947077165063245,low,high,,ISIC_9848743.JPG,9,ISIC_0013079.JPG,28,30,false,0.14,hh,keypress(i),0,false,871952.7999999523,871952.7000000477,861467.098,861464.2000000477,861468.5,871960.6,5,600,1,
break,html.Screen,10_0_1,2024-03-19T19:06:08.202Z,,,,,,,,,,,NaN,,,,,,,,low,high,,,,,,,false,,,,,false,871953.2999999523,871953.2000000477,,871952.8999999762,,871960.6,5,600,,
break_continue,html.Screen,10_0_2,2024-03-19T19:06:08.202Z,,,,,,,,,,,NaN,,,,,,,,low,high,,,,,,,false,,,,,false,871953.6000000238,871953.3999999762,,871953.2999999523,,871960.6,5,600,,
sequence,flow.Sequence,10_0,2024-03-19T19:06:08.203Z,,,,,,,,,,,10484.899999976158,completion,,,,,,,low,high,,,,,,,false,,,,,false,871953.7000000477,871953.3999999762,861467.098,861464.2000000477,861468.5,871960.6,5,600,,
trial,html.Screen,10_1_0,2024-03-19T19:06:11.866Z,,,,1,-0.0060918352854008,0.029032683404407,,0.04,true,hh,3656.4000000000233,response,0.7729330860069953,0.70905397427552,-0.9550427844045754,0.6859504297723743,0.7126171303027247,-0.8947077165063245,high,high,,ISIC_8436194.JPG,9,ISIC_6548734.JPG,28,87,false,0.1,hh,keypress(i),0,false,875617.2999999523,875617,871952.354,871953.7999999523,871960.6,875630.2,5,600,2,
break,html.Screen,10_1_1,2024-03-19T19:06:11.868Z,,,,,,,,,,,NaN,,,,,,,,high,high,,,,,,,false,,,,,false,875618.7000000477,875618.2999999523,,875617.7000000477,,875630.2,5,600,,
break_continue,html.Screen,10_1_2,2024-03-19T19:06:11.869Z,,,,,,,,,,,NaN,,,,,,,,high,high,,,,,,,false,,,,,false,875619.7000000477,875619.2999999523,,875619,,875630.2,5,600,,
sequence,flow.Sequence,10_1,2024-03-19T19:06:11.869Z,,,,,,,,,,,3658.6999999523396,completion,,,,,,,high,high,,,,,,,false,,,,,false,875619.8999999762,875619.2999999523,871952.354,871953.7999999523,871960.6,875630.2,5,600,,
trial,html.Screen,10_2_0,2024-03-19T19:06:15.938Z,,,,1,-0.0023664502831079,-0.0252784582169994,,0.04,true,ll,4058.9000000238884,response,-0.9654682925870932,0.70905397427552,-0.9550427844045754,-0.82001873969981,0.7126171303027247,-0.8947077165063245,low,low,,ISIC_4156010.JPG,10,ISIC_5737704.JPG,28,56,false,0.1,ll,keypress(f),0,false,879689.5,879689.1000000238,875628.26,875620.1000000238,875630.2,879700.3,5,600,3,
break,html.Screen,10_2_1,2024-03-19T19:06:15.940Z,,,,,,,,,,,NaN,,,,,,,,low,low,,,,,,,false,,,,,false,879691.1000000238,879690.6000000238,,879690,,879700.3,5,600,,
break_continue,html.Screen,10_2_2,2024-03-19T19:06:15.941Z,,,,,,,,,,,NaN,,,,,,,,low,low,,,,,,,false,,,,,false,879692,879691.6000000238,,879691.2999999523,,879700.3,5,600,,
sequence,flow.Sequence,10_2,2024-03-19T19:06:15.941Z,,,,,,,,,,,4061.4000000238884,completion,,,,,,,low,low,,,,,,,false,,,,,false,879692.3999999762,879691.6000000238,875628.26,875620.1000000238,875630.2,879700.3,5,600,,
trial,html.Screen,10_3_0,2024-03-19T19:06:21.330Z,,,,1,0.0361875505619981,-0.0291457404567876,,0.04,true,hh,5380.49999995227,response,0.7845325452940202,0.70905397427552,-0.9550427844045754,0.7406373751753215,0.7126171303027247,-0.8947077165063245,high,high,,ISIC_0027480.JPG,9,ISIC_9015182.JPG,28,87,false,0.1,hh,keypress(i),0,false,885081.2000000477,885080.7999999523,879697.844,879692.6000000238,879700.3,885087.9,5,600,4,
break,html.Screen,10_3_1,2024-03-19T19:06:21.332Z,,,,,,,,,,,NaN,,,,,,,,high,high,,,,,,,false,,,,,false,885082.7000000477,885082.2000000477,,885081.7000000477,,885087.9,5,600,,
break_continue,html.Screen,10_3_2,2024-03-19T19:06:21.332Z,,,,,,,,,,,NaN,,,,,,,,high,high,,,,,,,false,,,,,false,885083.6000000238,885083.2999999523,,885082.8999999762,,885087.9,5,600,,
sequence,flow.Sequence,10_3,2024-03-19T19:06:21.333Z,,,,,,,,,,,5382.99999995227,completion,,,,,,,high,high,,,,,,,false,,,,,false,885083.8999999762,885083.2999999523,879697.844,879692.5,879700.3,885087.9,5,600,,
trial,html.Screen,10_4_0,2024-03-19T19:06:25.154Z,,,,1,0.0086413421586899,0.0360184993500958,,0.04,true,ll,3817.0999999999767,response,-1.0215600067367807,0.70905397427552,-0.9550427844045754,-0.8053078030017172,0.7126171303027247,-0.8947077165063245,low,low,,ISIC_0010767.JPG,10,ISIC_0000173.JPG,28,56,false,0.1,ll,keypress(f),0,false,888905.3999999762,888905,885085.574,885084.1000000238,885087.9,888907.9,5,600,5,
break,html.Screen,10_4_1,2024-03-19T19:06:25.156Z,,,,,,,,,,,NaN,,,,,,,,low,low,,,,,,,false,,,,,false,888906.8999999762,888906.5,,888905.7999999523,,888907.9,5,600,,
break_continue,html.Screen,10_4_2,2024-03-19T19:06:25.157Z,,,,,,,,,,,NaN,,,,,,,,low,low,,,,,,,false,,,,,false,888907.7999999523,888907.5,,888907.1000000238,,888907.9,5,600,,
sequence,flow.Sequence,10_4,2024-03-19T19:06:25.157Z,,,,,,,,,,,3819.5999999999767,completion,,,,,,,low,low,,,,,,,false,,,,,false,888908.1000000238,888907.5,885085.574,885084.1000000238,885087.9,888907.9,5,600,,
trial,html.Screen,10_5_0,2024-03-19T19:06:31.762Z,,,,1,-0.0050679133050021,-0.0174815595031679,,0.04,true,hh,6605.099999999977,response,0.6171051729492579,0.70905397427552,-0.9550427844045754,0.6836114293819193,0.7126171303027247,-0.8947077165063245,high,high,,ISIC_9848743.JPG,9,ISIC_0363130.JPG,28,87,false,0.1,hh,keypress(i),0,false,895513.3999999762,895513,888905.354,888908.3999999762,888907.9,895529.9,5,600,6,
break,html.Screen,10_5_1,2024-03-19T19:06:31.764Z,,,,,,,,,,,NaN,,,,,,,,high,high,,,,,,,false,,,,,false,895514.8999999762,895514.3999999762,,895513.7999999523,,895529.9,5,600,,
break_continue,html.Screen,10_5_2,2024-03-19T19:06:31.765Z,,,,,,,,,,,NaN,,,,,,,,high,high,,,,,,,false,,,,,false,895515.7999999523,895515.5,,895515.2000000477,,895529.9,5,600,,
sequence,flow.Sequence,10_5,2024-03-19T19:06:31.765Z,,,,,,,,,,,6607.599999999977,completion,,,,,,,high,high,,,,,,,false,,,,,false,895516.1000000238,895515.5,888905.354,888908.2999999523,888907.9,895529.9,5,600,,
trial,html.Screen,10_6_0,2024-03-19T19:06:38.827Z,,,,1,-0.0023664502831079,-0.0252784582169994,,0.04,true,lh,7046.999999976135,response,-0.8658216082775305,0.70905397427552,-0.9550427844045754,0.5887302037399024,0.7126171303027247,-0.8947077165063245,low,high,,ISIC_4156010.JPG,9,ISIC_0331389.JPG,28,30,false,0.14,lh,keypress(e),0,false,902577.2999999523,902576.8999999762,895513.4,895516.3999999762,895529.9,902585.7,5,600,7,
break,html.Screen,10_6_1,2024-03-19T19:06:38.828Z,,,,,,,,,,,NaN,,,,,,,,low,high,,,,,,,false,,,,,false,902577.8999999762,902577.8999999762,,902577.7000000477,,902585.7,5,600,,
break_continue,html.Screen,10_6_2,2024-03-19T19:06:38.828Z,,,,,,,,,,,NaN,,,,,,,,low,high,,,,,,,false,,,,,false,902578.2000000477,902578.1000000238,,902578,,902585.7,5,600,,
sequence,flow.Sequence,10_6,2024-03-19T19:06:38.828Z,,,,,,,,,,,7048.200000023819,completion,,,,,,,low,high,,,,,,,false,,,,,false,902578.2999999523,902578.1000000238,895513.4,895516.2999999523,895529.9,902585.7,5,600,,
trial,html.Screen,10_7_0,2024-03-19T19:06:43.219Z,,,,1,-0.0060918352854008,0.029032683404407,,0.04,true,ll,4383.400000023888,response,-1.0215600067367807,0.70905397427552,-0.9550427844045754,-0.8053078030017172,0.7126171303027247,-0.8947077165063245,low,low,,ISIC_8436194.JPG,9,ISIC_0000173.JPG,28,56,false,0.1,ll,keypress(f),0,false,906969.3999999762,906969.1000000238,902569.3,902578.2999999523,902585.7,906972.8,5,600,8,
break,html.Screen,10_7_1,2024-03-19T19:06:43.221Z,,,,,,,,,,,NaN,,,,,,,,low,low,,,,,,,false,,,,,false,906971.1000000238,906970.7000000477,,906969.8999999762,,906972.8,5,600,,
break_continue,html.Screen,10_7_2,2024-03-19T19:06:43.222Z,,,,,,,,,,,NaN,,,,,,,,low,low,,,,,,,false,,,,,false,906972,906971.7000000477,,906971.3999999762,,906972.8,5,600,,
sequence,flow.Sequence,10_7,2024-03-19T19:06:43.222Z,,,,,,,,,,,4386.00000004773,completion,,,,,,,low,low,,,,,,,false,,,,,false,906972.2999999523,906971.7000000477,902569.3,902578.2999999523,902585.7,906972.8,5,600,,
trial,html.Screen,10_8_0,2024-03-19T19:06:49.393Z,,,,1,0.0189295602385628,0.0128812415435153,,0.04,true,ll,6169.900000047637,response,-1.0490239046679242,0.70905397427552,-0.9550427844045754,-0.8755566396204548,0.7126171303027247,-0.8947077165063245,low,low,,ISIC_0010372.JPG,8,ISIC_0071430.JPG,28,56,false,0.1,ll,keypress(f),0,false,913142.7999999523,913142.7000000477,906971.742,906972.5,906972.8,913144.4,5,600,9,
break,html.Screen,10_8_1,2024-03-19T19:06:49.393Z,,,,,,,,,,,NaN,,,,,,,,low,low,,,,,,,false,,,,,false,913143.2000000477,913143.2000000477,,913142.8999999762,,913144.4,5,600,,
break_continue,html.Screen,10_8_2,2024-03-19T19:06:49.393Z,,,,,,,,,,,NaN,,,,,,,,low,low,,,,,,,false,,,,,false,913143.3999999762,913143.3999999762,,913143.2999999523,,913144.4,5,600,,
sequence,flow.Sequence,10_8,2024-03-19T19:06:49.393Z,,,,,,,,,,,6170.599999976112,completion,,,,,,,low,low,,,,,,,false,,,,,false,913143.5,913143.3999999762,906971.742,906972.3999999762,906972.8,913144.4,5,600,,
trial,html.Screen,10_9_0,2024-03-19T19:06:55.548Z,,,,1,-0.0057914759495055,0.018500200317654,,0.04,false,hl,6152.999999976135,response,0.717897378657649,0.70905397427552,-0.9550427844045754,-0.8788356736457825,0.7126171303027247,-0.8947077165063245,high,low,,ISIC_0058723.JPG,8,ISIC_3963183.JPG,28,27,false,0.11,ll,keypress(f),0,false,919297.7999999523,919297.3999999762,913144.144,913143.6000000238,913144.4,919316.8,5,600,10,
break,html.Screen,10_9_1,2024-03-19T19:06:55.549Z,,,,,,,,,,,NaN,,,,,,,,high,low,,,,,,,false,,,,,false,919299.2999999523,919298.7999999523,,919298.2000000477,,919316.8,5,600,,
break_continue,html.Screen,10_9_2,2024-03-19T19:06:55.550Z,,,,,,,,,,,NaN,,,,,,,,high,low,,,,,,,false,,,,,false,919300.2000000477,919299.8999999762,,919299.5,,919316.8,5,600,,
sequence,flow.Sequence,10_9,2024-03-19T19:06:55.550Z,,,,,,,,,,,6155.499999976135,completion,,,,,,,high,low,,,,,,,false,,,,,false,919300.5,919299.8999999762,913144.144,913143.6000000238,913144.4,919316.8,5,600,,
trial,html.Screen,10_10_0,2024-03-19T19:06:59.402Z,,,,1,0.0063515208248796,0.0194177605767913,,0.04,true,ll,3835.0999999761116,response,-0.9900831889164324,0.70905397427552,-0.9550427844045754,-0.9119933515639294,0.7126171303027247,-0.8947077165063245,low,low,,ISIC_5281908.JPG,9,ISIC_0058033.JPG,28,56,false,0.1,ll,keypress(f),0,false,923152.1000000238,923151.8999999762,919297.84,919300.8999999762,919316.8,923186.1,5,600,11,
break,html.Screen,10_10_1,2024-03-19T19:06:59.403Z,,,,,,,,,,,NaN,,,,,,,,low,low,,,,,,,false,,,,,false,923153,923152.7999999523,,923152.2999999523,,923186.1,5,600,,
break_continue,html.Screen,10_10_2,2024-03-19T19:06:59.403Z,,,,,,,,,,,NaN,,,,,,,,low,low,,,,,,,false,,,,,false,923153.5,923153.2999999523,,923153.2000000477,,923186.1,5,600,,
sequence,flow.Sequence,10_10,2024-03-19T19:06:59.404Z,,,,,,,,,,,3836.4999999522697,completion,,,,,,,low,low,,,,,,,false,,,,,false,923153.7000000477,923153.2999999523,919297.84,919300.7999999523,919316.8,923186.1,5,600,,
trial,html.Screen,10_11_0,2024-03-19T19:07:03.635Z,,,,1,0.0199897690678184,0.0312486875504497,,0.04,true,ll,4198.799999976181,response,-0.9304005163834584,0.70905397427552,-0.9550427844045754,-0.9903292668457988,0.7126171303027247,-0.8947077165063245,low,low,,ISIC_5482426.JPG,9,ISIC_3485482.JPG,28,56,false,0.1,ll,keypress(f),0,false,927385.2999999523,927384.8999999762,923169.8,923153.7999999523,923186.1,927389.6,5,600,12,
break,html.Screen,10_11_1,2024-03-19T19:07:03.637Z,,,,,,,,,,,NaN,,,,,,,,low,low,,,,,,,false,,,,,false,927387,927386.5,,927385.7000000477,,927389.6,5,600,,
break_continue,html.Screen,10_11_2,2024-03-19T19:07:03.638Z,,,,,,,,,,,NaN,,,,,,,,low,low,,,,,,,false,,,,,false,927387.8999999762,927387.6000000238,,927387.2000000477,,927389.6,5,600,,
sequence,flow.Sequence,10_11,2024-03-19T19:07:03.638Z,,,,,,,,,,,4201.500000023865,completion,,,,,,,low,low,,,,,,,false,,,,,false,927388.2000000477,927387.6000000238,923169.8,923153.7999999523,923186.1,927389.6,5,600,,
trial,html.Screen,10_12_0,2024-03-19T19:07:11.202Z,,,,1,-0.0377791839943904,0.0227626648172468,,0.04,false,hh,7562.799999976181,response,0.720427095766259,0.70905397427552,-0.9550427844045754,0.634300188181445,0.7126171303027247,-0.8947077165063245,high,high,,ISIC_7167479.JPG,9,ISIC_0062812.JPG,28,87,false,0.1,hl,keypress(j),0,false,934952.6000000238,934952.3999999762,927387.004,927388.5,927389.6,934962.4,5,600,13,
break,html.Screen,10_12_1,2024-03-19T19:07:11.203Z,,,,,,,,,,,NaN,,,,,,,,high,high,,,,,,,false,,,,,false,934953.3999999762,934953.2999999523,,934952.8999999762,,934962.4,5,600,,
break_continue,html.Screen,10_12_2,2024-03-19T19:07:11.204Z,,,,,,,,,,,NaN,,,,,,,,high,high,,,,,,,false,,,,,false,934954,934953.8999999762,,934953.7000000477,,934962.4,5,600,,
sequence,flow.Sequence,10_12,2024-03-19T19:07:11.204Z,,,,,,,,,,,7564.299999976181,completion,,,,,,,high,high,,,,,,,false,,,,,false,934954.1000000238,934953.8999999762,927387.004,927388.3999999762,927389.6,934962.4,5,600,,
trial,html.Screen,10_13_0,2024-03-19T19:07:21.466Z,,,,1,-0.0077673378094614,-0.0021810768579373,,0.04,false,lh,10253.200000023819,response,-0.9196681231499724,0.70905397427552,-0.9550427844045754,0.6324829101441412,0.7126171303027247,-0.8947077165063245,low,high,,ISIC_0067621.JPG,8,ISIC_0011209.JPG,28,30,false,0.14,hh,keypress(i),0,false,945215.7999999523,945215.6000000238,934961.262,934954.2999999523,934962.4,945221,5,600,14,
break,html.Screen,10_13_1,2024-03-19T19:07:21.466Z,,,,,,,,,,,NaN,,,,,,,,low,high,,,,,,,false,,,,,false,945216.5,945216.2999999523,,945216,,945221,5,600,,
break_continue,html.Screen,10_13_2,2024-03-19T19:07:21.467Z,,,,,,,,,,,NaN,,,,,,,,low,high,,,,,,,false,,,,,false,945216.8999999762,945216.7999999523,,945216.6000000238,,945221,5,600,,
sequence,flow.Sequence,10_13,2024-03-19T19:07:21.467Z,,,,,,,,,,,10254.399999952293,completion,,,,,,,low,high,,,,,,,false,,,,,false,945217.1000000238,945216.7999999523,934961.262,934954.2000000477,934962.4,945221,5,600,,
trial,html.Screen,10_14_0,2024-03-19T19:07:29.771Z,,,,1,0.0127320821962457,-0.0315308940184827,,0.04,true,lh,8299.799999952316,response,-0.8658216082775305,0.70905397427552,-0.9550427844045754,0.5887302037399024,0.7126171303027247,-0.8947077165063245,low,high,,ISIC_8156101.JPG,9,ISIC_0331389.JPG,28,30,false,0.14,lh,keypress(e),0,false,953521,953520.7999999523,945220.922,945217.2000000477,945221,953527.7,5,600,15,
break,html.Screen,10_14_1,2024-03-19T19:07:29.772Z,,,,,,,,,,,NaN,,,,,,,,low,high,,,,,,,false,,,,,false,953521.7999999523,953521.6000000238,,953521.2999999523,,953527.7,5,600,,
break_continue,html.Screen,10_14_2,2024-03-19T19:07:29.772Z,,,,,,,,,,,NaN,,,,,,,,low,high,,,,,,,false,,,,,false,953522.2000000477,953522.1000000238,,953521.8999999762,,953527.7,5,600,,
sequence,flow.Sequence,10_14,2024-03-19T19:07:29.772Z,,,,,,,,,,,8301.100000023842,completion,,,,,,,low,high,,,,,,,false,,,,,false,953522.2999999523,953522.1000000238,945220.922,945217.1000000238,945221,953527.7,5,600,,
trial,html.Screen,10_15_0,2024-03-19T19:07:36.556Z,,,,1,-0.012020985739544,0.0126097407389903,,0.04,true,lh,6777.599999952363,response,-0.8623414234919863,0.70905397427552,-0.9550427844045754,0.6885252343895165,0.7126171303027247,-0.8947077165063245,low,high,,ISIC_0069379.JPG,9,ISIC_2727016.JPG,28,30,false,0.14,lh,keypress(e),0,false,960305.7000000477,960305.2999999523,953521.708,953522.3999999762,953527.7,960316.7,5,600,16,
break,html.Screen,10_15_1,2024-03-19T19:07:36.557Z,,,,,,,,,,,NaN,,,,,,,,low,high,,,,,,,false,,,,,false,960307.5,960307.1000000238,,960306.3999999762,,960316.7,5,600,,
break_continue,html.Screen,10_15_2,2024-03-19T19:07:36.558Z,,,,,,,,,,,NaN,,,,,,,,low,high,,,,,,,false,,,,,false,960308.2999999523,960308.1000000238,,960307.7000000477,,960316.7,5,600,,
sequence,flow.Sequence,10_15,2024-03-19T19:07:36.559Z,,,,,,,,,,,6780.400000023888,completion,,,,,,,low,high,,,,,,,false,,,,,false,960308.7000000477,960308.1000000238,953521.708,953522.3999999762,953527.7,960316.7,5,600,,
trial,html.Screen,10_16_0,2024-03-19T19:07:45.459Z,,,,1,-0.0166849894750452,0.0371614812368835,,0.04,true,ll,8892.00000004773,response,-0.9303292478996148,0.70905397427552,-0.9550427844045754,-0.8099604275482958,0.7126171303027247,-0.8947077165063245,low,low,,ISIC_6231450.JPG,9,ISIC_0068580.JPG,28,56,false,0.1,ll,keypress(f),0,false,969209,969208.7000000477,960312.596,960308.8999999762,960316.7,969224,5,600,17,
break,html.Screen,10_16_1,2024-03-19T19:07:45.460Z,,,,,,,,,,,NaN,,,,,,,,low,low,,,,,,,false,,,,,false,969210.2999999523,969209.8999999762,,969209.3999999762,,969224,5,600,,
break_continue,html.Screen,10_16_2,2024-03-19T19:07:45.461Z,,,,,,,,,,,NaN,,,,,,,,low,low,,,,,,,false,,,,,false,969211.1000000238,969210.8999999762,,969210.5,,969224,5,600,,
sequence,flow.Sequence,10_16,2024-03-19T19:07:45.461Z,,,,,,,,,,,8894.199999976205,completion,,,,,,,low,low,,,,,,,false,,,,,false,969211.3999999762,969210.8999999762,960312.596,960308.7999999523,960316.7,969224,5,600,,
trial,html.Screen,10_17_0,2024-03-19T19:07:50.188Z,,,,1,-0.012810673904807,0.00400964452501,,0.04,false,lh,4713.399999976158,response,-0.9623013291877583,0.70905397427552,-0.9550427844045754,0.6109795804000443,0.7126171303027247,-0.8947077165063245,low,high,,ISIC_0064656.JPG,8,ISIC_0010863.JPG,28,30,false,0.14,ll,keypress(f),0,false,973937.8999999762,973937.3999999762,969219.272,969211.6000000238,969224,973944.7,5,600,18,
break,html.Screen,10_17_1,2024-03-19T19:07:50.189Z,,,,,,,,,,,NaN,,,,,,,,low,high,,,,,,,false,,,,,false,973939.5,973939.1000000238,,973938.3999999762,,973944.7,5,600,,
break_continue,html.Screen,10_17_2,2024-03-19T19:07:50.190Z,,,,,,,,,,,NaN,,,,,,,,low,high,,,,,,,false,,,,,false,973940.5,973940.2000000477,,973939.7000000477,,973944.7,5,600,,
sequence,flow.Sequence,10_17,2024-03-19T19:07:50.191Z,,,,,,,,,,,4716.200000047684,completion,,,,,,,low,high,,,,,,,false,,,,,false,973940.7999999523,973940.2000000477,969219.272,969211.5,969224,973944.7,5,600,,
trial,html.Screen,10_18_0,2024-03-19T19:07:56.587Z,,,,1,-0.0158987717472563,-0.0292472192292015,,0.04,true,lh,6391.699999976205,response,-1.085089185942698,0.70905397427552,-0.9550427844045754,0.7657798385266591,0.7126171303027247,-0.8947077165063245,low,high,,ISIC_1366765.JPG,9,ISIC_2283628.JPG,28,30,false,0.14,lh,keypress(e),0,false,980336.7000000477,980336.3999999762,973941.654,973941,973944.7,980349.9,5,600,19,
break,html.Screen,10_18_1,2024-03-19T19:07:56.588Z,,,,,,,,,,,NaN,,,,,,,,low,high,,,,,,,false,,,,,false,980337.8999999762,980337.5,,980337,,980349.9,5,600,,
break_continue,html.Screen,10_18_2,2024-03-19T19:07:56.589Z,,,,,,,,,,,NaN,,,,,,,,low,high,,,,,,,false,,,,,false,980338.6000000238,980338.2999999523,,980338.1000000238,,980349.9,5,600,,
sequence,flow.Sequence,10_18,2024-03-19T19:07:56.589Z,,,,,,,,,,,6393.599999952363,completion,,,,,,,low,high,,,,,,,false,,,,,false,980338.7999999523,980338.2999999523,973941.654,973940.7999999523,973944.7,980349.9,5,600,,
trial,html.Screen,10_19_0,2024-03-19T19:08:04.172Z,,,,1,-0.0050679133050021,-0.0174815595031679,,0.04,false,hl,7571.499999976135,response,0.72754684739632,0.70905397427552,-0.9550427844045754,-0.840335750071074,0.7126171303027247,-0.8947077165063245,high,low,,ISIC_9848743.JPG,8,ISIC_2936321.JPG,28,27,false,0.11,lh,keypress(e),0,false,987921.7999999523,987921.3999999762,980333.5,980339,980349.9,987939.5,5,600,20,
break,html.Screen,10_19_1,2024-03-19T19:08:04.173Z,,,,,,,,,,,NaN,,,,,,,,high,low,,,,,,,false,,,,,false,987923.1000000238,987922.7000000477,,987922.2000000477,,987939.5,5,600,,
break_continue,html.Screen,10_19_2,2024-03-19T19:08:04.174Z,,,,,,,,,,,NaN,,,,,,,,high,low,,,,,,,false,,,,,false,987924,987923.7000000477,,987923.3999999762,,987939.5,5,600,,
sequence,flow.Sequence,10_19,2024-03-19T19:08:04.174Z,,,,,,,,,,,7573.80000004766,completion,,,,,,,high,low,,,,,,,false,,,,,false,987924.2999999523,987923.7000000477,980333.5,980339,980349.9,987939.5,5,600,,
trial,html.Screen,10_20_0,2024-03-19T19:08:12.523Z,,,,1,0.0063515208248796,0.0194177605767913,,0.04,false,hl,8333.299999952316,response,0.8069562753553525,0.70905397427552,-0.9550427844045754,-0.9101764190105358,0.7126171303027247,-0.8947077165063245,high,low,,ISIC_5281908.JPG,8,ISIC_0046596.JPG,28,27,false,0.11,lh,keypress(e),0,false,996273.2000000477,996272.7999999523,987922.5,987924.5,987939.5,996279.7,5,600,21,
break,html.Screen,10_20_1,2024-03-19T19:08:12.525Z,,,,,,,,,,,NaN,,,,,,,,high,low,,,,,,,false,,,,,false,996274.7000000477,996274.2999999523,,996273.7000000477,,996279.7,5,600,,
break_continue,html.Screen,10_20_2,2024-03-19T19:08:12.526Z,,,,,,,,,,,NaN,,,,,,,,high,low,,,,,,,false,,,,,false,996275.5,996275.2999999523,,996274.8999999762,,996279.7,5,600,,
sequence,flow.Sequence,10_20,2024-03-19T19:08:12.526Z,,,,,,,,,,,8335.799999952316,completion,,,,,,,high,low,,,,,,,false,,,,,false,996275.7999999523,996275.2999999523,987922.5,987924.5,987939.5,996279.7,5,600,,
trial,html.Screen,10_21_0,2024-03-19T19:08:16.947Z,,,,1,0.0189295602385628,0.0128812415435153,,0.04,true,hh,4417.300000000047,response,0.7521305278641875,0.70905397427552,-0.9550427844045754,0.7449399816504685,0.7126171303027247,-0.8947077165063245,high,high,,ISIC_0010372.JPG,9,ISIC_1947833.JPG,28,87,false,0.1,hh,keypress(i),0,false,1000697.2999999523,1000697,996274.796,996276.1000000238,996279.7,1000700,5,600,22,
break,html.Screen,10_21_1,2024-03-19T19:08:16.949Z,,,,,,,,,,,NaN,,,,,,,,high,high,,,,,,,false,,,,,false,1000698.7999999523,1000698.3999999762,,1000697.7999999523,,1000700,5,600,,
break_continue,html.Screen,10_21_2,2024-03-19T19:08:16.950Z,,,,,,,,,,,NaN,,,,,,,,high,high,,,,,,,false,,,,,false,1000699.7999999523,1000699.5,,1000699.2000000477,,1000700,5,600,,
sequence,flow.Sequence,10_21,2024-03-19T19:08:16.950Z,,,,,,,,,,,4419.800000000047,completion,,,,,,,high,high,,,,,,,false,,,,,false,1000700,1000699.5,996274.796,996276,996279.7,1000700,5,600,,
trial,html.Screen,10_22_0,2024-03-19T19:08:21.403Z,,,,1,0.0127320821962457,-0.0315308940184827,,0.04,false,hl,4453.100000023842,response,0.6276303452161716,0.70905397427552,-0.9550427844045754,-0.915332132320829,0.7126171303027247,-0.8947077165063245,high,low,,ISIC_8156101.JPG,9,ISIC_9053910.JPG,28,27,false,0.11,ll,keypress(f),0,false,1005153.6000000238,1005153.1000000238,1000697.956,1000700.2999999523,1000700,1005170.3,5,600,23,
break,html.Screen,10_22_1,2024-03-19T19:08:21.405Z,,,,,,,,,,,NaN,,,,,,,,high,low,,,,,,,false,,,,,false,1005155.2000000477,1005154.7000000477,,1005154,,1005170.3,5,600,,
break_continue,html.Screen,10_22_2,2024-03-19T19:08:21.406Z,,,,,,,,,,,NaN,,,,,,,,high,low,,,,,,,false,,,,,false,1005155.8999999762,1005155.6000000238,,1005155.3999999762,,1005170.3,5,600,,
sequence,flow.Sequence,10_22,2024-03-19T19:08:21.406Z,,,,,,,,,,,4455.600000023842,completion,,,,,,,high,low,,,,,,,false,,,,,false,1005156.2000000477,1005155.6000000238,1000697.956,1000700.2999999523,1000700,1005170.3,5,600,,
trial,html.Screen,10_23_0,2024-03-19T19:08:26.003Z,,,,1,-0.0060934073440827,-0.0279108145883031,,0.04,false,ll,4582.400000047637,response,-0.9654682925870932,0.70905397427552,-0.9550427844045754,-0.82001873969981,0.7126171303027247,-0.8947077165063245,low,low,,ISIC_0032604.JPG,9,ISIC_5737704.JPG,28,56,false,0.1,hh,keypress(i),0,false,1009753.1000000238,1009752.7000000477,1005153.6,1005156.3999999762,1005170.3,1009757.5,5,600,24,
break,html.Screen,10_23_1,2024-03-19T19:08:26.004Z,,,,,,,,,,,NaN,,,,,,,,low,low,,,,,,,false,,,,,false,1009754.5,1009754.1000000238,,1009753.5,,1009757.5,5,600,,
break_continue,html.Screen,10_23_2,2024-03-19T19:08:26.005Z,,,,,,,,,,,NaN,,,,,,,,low,low,,,,,,,false,,,,,false,1009755.2999999523,1009755,,1009754.7999999523,,1009757.5,5,600,,
sequence,flow.Sequence,10_23,2024-03-19T19:08:26.005Z,,,,,,,,,,,4584.699999999953,completion,,,,,,,low,low,,,,,,,false,,,,,false,1009755.5,1009755,1005153.6,1005156.2999999523,1005170.3,1009757.5,5,600,,
trial,html.Screen,10_24_0,2024-03-19T19:08:32.708Z,,,,1,-0.0350697500805515,-0.0166617848231997,,0.04,true,lh,6699.700000047684,response,-0.9254898763900528,0.70905397427552,-0.9550427844045754,0.6729642430400987,0.7126171303027247,-0.8947077165063245,low,high,,ISIC_0024423.JPG,8,ISIC_0862745.JPG,28,30,false,0.14,lh,keypress(e),0,false,1016457.5,1016457.2000000477,1009754.66,1009755.7000000477,1009757.5,1016463,5,600,25,
break,html.Screen,10_24_1,2024-03-19T19:08:32.709Z,,,,,,,,,,,NaN,,,,,,,,low,high,,,,,,,false,,,,,false,1016458.8999999762,1016458.5,,1016457.8999999762,,1016463,5,600,,
break_continue,html.Screen,10_24_2,2024-03-19T19:08:32.710Z,,,,,,,,,,,NaN,,,,,,,,low,high,,,,,,,false,,,,,false,1016459.7000000477,1016459.5,,1016459.2000000477,,1016463,5,600,,
sequence,flow.Sequence,10_24,2024-03-19T19:08:32.710Z,,,,,,,,,,,6702,completion,,,,,,,low,high,,,,,,,false,,,,,false,1016460,1016459.5,1009754.66,1009755.7000000477,1009757.5,1016463,5,600,,
trial,html.Screen,10_25_0,2024-03-19T19:08:42.026Z,,,,1,0.0189295602385628,0.0128812415435153,,0.04,false,ll,9313,response,-0.9210502980092926,0.70905397427552,-0.9550427844045754,-0.9643734217956152,0.7126171303027247,-0.8947077165063245,low,low,,ISIC_0010372.JPG,10,ISIC_0033876.JPG,28,56,false,0.1,lh,keypress(e),0,false,1025776.2000000477,1025776,1016462.114,1016460.2000000477,1016463,1025787.3,5,600,26,
break,html.Screen,10_25_1,2024-03-19T19:08:42.027Z,,,,,,,,,,,NaN,,,,,,,,low,low,,,,,,,false,,,,,false,1025776.8999999762,1025776.7000000477,,1025776.5,,1025787.3,5,600,,
break_continue,html.Screen,10_25_2,2024-03-19T19:08:42.027Z,,,,,,,,,,,NaN,,,,,,,,low,low,,,,,,,false,,,,,false,1025777.1000000238,1025777.1000000238,,1025776.8999999762,,1025787.3,5,600,,
sequence,flow.Sequence,10_25,2024-03-19T19:08:42.027Z,,,,,,,,,,,9314.100000023842,completion,,,,,,,low,low,,,,,,,false,,,,,false,1025777.2000000477,1025777.1000000238,1016462.114,1016460.2000000477,1016463,1025787.3,5,600,,
trial,html.Screen,10_26_0,2024-03-19T19:08:46.442Z,,,,1,0.0127320821962457,-0.0315308940184827,,0.04,true,lh,4404.900000047637,response,-0.8177173885584471,0.70905397427552,-0.9550427844045754,0.6934224282808171,0.7126171303027247,-0.8947077165063245,low,high,,ISIC_8156101.JPG,9,ISIC_7196249.JPG,28,30,false,0.14,lh,keypress(e),0,false,1030192.2999999523,1030192.2000000477,1025770.6,1025777.2999999523,1025787.3,1030207.9,5,600,27,
break,html.Screen,10_26_1,2024-03-19T19:08:46.443Z,,,,,,,,,,,NaN,,,,,,,,low,high,,,,,,,false,,,,,false,1030192.5,1030192.5,,1030192.3999999762,,1030207.9,5,600,,
break_continue,html.Screen,10_26_2,2024-03-19T19:08:46.443Z,,,,,,,,,,,NaN,,,,,,,,low,high,,,,,,,false,,,,,false,1030192.6000000238,1030192.6000000238,,1030192.6000000238,,1030207.9,5,600,,
sequence,flow.Sequence,10_26,2024-03-19T19:08:46.443Z,,,,,,,,,,,4405.300000023795,completion,,,,,,,low,high,,,,,,,false,,,,,false,1030192.6000000238,1030192.6000000238,1025770.6,1025777.2999999523,1025787.3,1030207.9,5,600,,
trial,html.Screen,10_27_0,2024-03-19T19:08:50.875Z,,,,1,-0.0077673378094614,-0.0021810768579373,,0.04,false,hl,4416.999999976135,response,0.8069690440362255,0.70905397427552,-0.9550427844045754,-0.8262727717500657,0.7126171303027247,-0.8947077165063245,high,low,,ISIC_0067621.JPG,9,ISIC_0028469.JPG,28,27,false,0.11,hh,keypress(i),0,false,1034625.2000000477,1034624.8999999762,1030191.2,1030192.7000000477,1030207.9,1034628,5,600,28,
break,html.Screen,10_27_1,2024-03-19T19:08:50.877Z,,,,,,,,,,,NaN,,,,,,,,high,low,,,,,,,false,,,,,false,1034626.7999999523,1034626.2999999523,,1034625.7000000477,,1034628,5,600,,
break_continue,html.Screen,10_27_2,2024-03-19T19:08:50.878Z,,,,,,,,,,,NaN,,,,,,,,high,low,,,,,,,false,,,,,false,1034627.7000000477,1034627.3999999762,,1034627,,1034628,5,600,,
sequence,flow.Sequence,10_27,2024-03-19T19:08:50.878Z,,,,,,,,,,,4419.499999976135,completion,,,,,,,high,low,,,,,,,false,,,,,false,1034627.8999999762,1034627.3999999762,1030191.2,1030192.7000000477,1030207.9,1034628,5,600,,
trial,html.Screen,10_28_0,2024-03-19T19:08:54.018Z,,,,1,-0.0077673378094614,-0.0021810768579373,,0.04,true,hh,3139.5,response,0.6645363858141783,0.70905397427552,-0.9550427844045754,0.61710874966165,0.7126171303027247,-0.8947077165063245,high,high,,ISIC_0067621.JPG,8,ISIC_4663883.JPG,28,87,false,0.1,hh,keypress(i),0,false,1037767.7000000477,1037767.5,1034625.096,1034628.2999999523,1034628,1037780.5,5,600,29,
break,html.Screen,10_28_1,2024-03-19T19:08:54.018Z,,,,,,,,,,,NaN,,,,,,,,high,high,,,,,,,false,,,,,false,1037768.2999999523,1037768.2000000477,,1037767.8999999762,,1037780.5,5,600,,
break_continue,html.Screen,10_28_2,2024-03-19T19:08:54.019Z,,,,,,,,,,,NaN,,,,,,,,high,high,,,,,,,false,,,,,false,1037768.6000000238,1037768.6000000238,,1037768.3999999762,,1037780.5,5,600,,
sequence,flow.Sequence,10_28,2024-03-19T19:08:54.019Z,,,,,,,,,,,3140.600000023842,completion,,,,,,,high,high,,,,,,,false,,,,,false,1037768.7000000477,1037768.6000000238,1034625.096,1034628.1000000238,1034628,1037780.5,5,600,,
trial,html.Screen,10_29_0,2024-03-19T19:08:58.025Z,,,,1,-0.0166849894750452,0.0371614812368835,,0.04,true,hh,3994.100000023842,response,0.6638615289865099,0.70905397427552,-0.9550427844045754,0.7227811290910141,0.7126171303027247,-0.8947077165063245,high,high,,ISIC_6231450.JPG,9,ISIC_0490714.JPG,28,87,false,0.1,hh,keypress(i),0,false,1041774.7999999523,1041774.6000000238,1037763.7,1037768.7999999523,1037780.5,1041783.9,5,600,30,
break,html.Screen,10_29_1,2024-03-19T19:08:58.025Z,,,,,,,,,,,NaN,,,,,,,,high,high,,,,,,,false,,,,,false,1041775.2000000477,1041775.1000000238,,1041774.8999999762,,1041783.9,5,600,,
break_continue,html.Screen,10_29_2,2024-03-19T19:08:58.026Z,,,,,,,,,,,NaN,,,,,,,,high,high,,,,,,,false,,,,,false,1041775.3999999762,1041775.3999999762,,1041775.2999999523,,1041783.9,5,600,,
sequence,flow.Sequence,10_29,2024-03-19T19:08:58.026Z,,,,,,,,,,,3994.899999976158,completion,,,,,,,high,high,,,,,,,false,,,,,false,1041775.5,1041775.3999999762,1037763.7,1037768.7999999523,1037780.5,1041783.9,5,600,,
trial,html.Screen,10_30_0,2024-03-19T19:09:02.220Z,,,,1,0.0361875505619981,-0.0291457404567876,,0.04,true,hl,4185.099999999977,response,0.72754684739632,0.70905397427552,-0.9550427844045754,-0.840335750071074,0.7126171303027247,-0.8947077165063245,high,low,,ISIC_0027480.JPG,9,ISIC_2936321.JPG,28,27,false,0.11,hl,keypress(j),0,false,1045969.3999999762,1045969,1041767.1,1041775.6000000238,1041783.9,1045987.3,5,600,31,
break,html.Screen,10_30_1,2024-03-19T19:09:02.221Z,,,,,,,,,,,NaN,,,,,,,,high,low,,,,,,,false,,,,,false,1045971.2999999523,1045970.7000000477,,1045970,,1045987.3,5,600,,
break_continue,html.Screen,10_30_2,2024-03-19T19:09:02.222Z,,,,,,,,,,,NaN,,,,,,,,high,low,,,,,,,false,,,,,false,1045972.3999999762,1045972.1000000238,,1045971.6000000238,,1045987.3,5,600,,
sequence,flow.Sequence,10_30,2024-03-19T19:09:02.223Z,,,,,,,,,,,4188.200000023819,completion,,,,,,,high,low,,,,,,,false,,,,,false,1045972.7000000477,1045972.1000000238,1041767.1,1041775.6000000238,1041783.9,1045987.3,5,600,,
trial,html.Screen,10_31_0,2024-03-19T19:09:12.275Z,,,,1,-0.00126575685933,-0.0325046559638838,,0.04,true,hl,10036.900000047637,response,0.7203854121635694,0.70905397427552,-0.9550427844045754,-0.967180948735857,0.7126171303027247,-0.8947077165063245,high,low,,ISIC_5682259.JPG,9,ISIC_0439726.JPG,28,27,false,0.11,hl,keypress(j),0,false,1056024.3999999762,1056024.2000000477,1045970.9,1045973,1045987.3,1056028.964,5,600,32,
break,html.Screen,10_31_1,2024-03-19T19:09:12.275Z,,,,,,,,,,,NaN,,,,,,,,high,low,,,,,,,false,,,,,false,1056025.1000000238,1056025,,1056024.7000000477,,1056028.964,5,600,,
break_continue,html.Screen,10_31_2,2024-03-19T19:09:12.276Z,,,,,,,,,,,NaN,,,,,,,,high,low,,,,,,,false,,,,,false,1056025.7000000477,1056025.5,,1056025.3999999762,,1056028.964,5,600,,
sequence,flow.Sequence,10_31,2024-03-19T19:09:12.276Z,,,,,,,,,,,10038.199999999953,completion,,,,,,,high,low,,,,,,,false,,,,,false,1056025.7000000477,1056025.5,1045970.9,1045973,1045987.3,1056028.964,5,600,,
trial,html.Screen,10_32_0,2024-03-19T19:09:16.107Z,,,,1,0.0367218428225813,-0.0026956749740767,,0.04,true,hh,3827.4359999762382,response,0.7467683840188639,0.70905397427552,-0.9550427844045754,0.6365183888237725,0.7126171303027247,-0.8947077165063245,high,high,,ISIC_7212271.JPG,9,ISIC_9397126.JPG,28,87,false,0.1,hh,keypress(i),0,false,1059856.7999999523,1059856.3999999762,1056028.964,1056025.8999999762,1056028.964,1059865.4,5,600,33,
break,html.Screen,10_32_1,2024-03-19T19:09:16.108Z,,,,,,,,,,,NaN,,,,,,,,high,high,,,,,,,false,,,,,false,1059858.1000000238,1059857.7000000477,,1059857.1000000238,,1059865.4,5,600,,
break_continue,html.Screen,10_32_2,2024-03-19T19:09:16.109Z,,,,,,,,,,,NaN,,,,,,,,high,high,,,,,,,false,,,,,false,1059858.8999999762,1059858.7000000477,,1059858.2999999523,,1059865.4,5,600,,
sequence,flow.Sequence,10_32,2024-03-19T19:09:16.109Z,,,,,,,,,,,3829.736000047764,completion,,,,,,,high,high,,,,,,,false,,,,,false,1059859.2000000477,1059858.7000000477,1056028.964,1056025.8999999762,1056028.964,1059865.4,5,600,,
trial,html.Screen,10_33_0,2024-03-19T19:09:20.899Z,,,,1,0.0063515208248796,0.0194177605767913,,0.04,true,hh,4783.499999976251,response,0.7877297643782052,0.70905397427552,-0.9550427844045754,0.7102404161195045,0.7126171303027247,-0.8947077165063245,high,high,,ISIC_5281908.JPG,9,ISIC_6326803.JPG,28,87,false,0.1,hh,keypress(i),0,false,1064649.2999999523,1064648.8999999762,1059862.92,1059859.2999999523,1059865.4,1064652.8,5,600,34,
break,html.Screen,10_33_1,2024-03-19T19:09:20.901Z,,,,,,,,,,,NaN,,,,,,,,high,high,,,,,,,false,,,,,false,1064650.7999999523,1064650.2999999523,,1064649.7000000477,,1064652.8,5,600,,
break_continue,html.Screen,10_33_2,2024-03-19T19:09:20.902Z,,,,,,,,,,,NaN,,,,,,,,high,high,,,,,,,false,,,,,false,1064651.7000000477,1064651.3999999762,,1064651,,1064652.8,5,600,,
sequence,flow.Sequence,10_33,2024-03-19T19:09:20.902Z,,,,,,,,,,,4785.999999976251,completion,,,,,,,high,high,,,,,,,false,,,,,false,1064652,1064651.3999999762,1059862.92,1059859.2000000477,1059865.4,1064652.8,5,600,,
trial,html.Screen,10_34_0,2024-03-19T19:09:27.020Z,,,,1,-0.0050679133050021,-0.0174815595031679,,0.04,false,hl,6116.49999995227,response,0.6276303452161716,0.70905397427552,-0.9550427844045754,-0.915332132320829,0.7126171303027247,-0.8947077165063245,high,low,,ISIC_9848743.JPG,9,ISIC_9053910.JPG,28,27,false,0.11,lh,keypress(e),0,false,1070769.7999999523,1070769.2999999523,1064649.682,1064652.2000000477,1064652.8,1070774.5,5,600,35,
break,html.Screen,10_34_1,2024-03-19T19:09:27.021Z,,,,,,,,,,,NaN,,,,,,,,high,low,,,,,,,false,,,,,false,1070771.3999999762,1070771,,1070770.2000000477,,1070774.5,5,600,,
break_continue,html.Screen,10_34_2,2024-03-19T19:09:27.022Z,,,,,,,,,,,NaN,,,,,,,,high,low,,,,,,,false,,,,,false,1070772.2999999523,1070772.1000000238,,1070771.7000000477,,1070774.5,5,600,,
sequence,flow.Sequence,10_34,2024-03-19T19:09:27.023Z,,,,,,,,,,,6119.300000023795,completion,,,,,,,high,low,,,,,,,false,,,,,false,1070772.7000000477,1070772.1000000238,1064649.682,1064652.2000000477,1064652.8,1070774.5,5,600,,
trial,html.Screen,10_35_0,2024-03-19T19:09:31.915Z,,,,1,-0.012810673904807,0.00400964452501,,0.04,true,ll,4890.299999952316,response,-1.0361281091871073,0.70905397427552,-0.9550427844045754,-0.8359897850958797,0.7126171303027247,-0.8947077165063245,low,low,,ISIC_0064656.JPG,9,ISIC_0014392.JPG,28,56,false,0.1,ll,keypress(f),0,false,1075665.2000000477,1075664.7999999523,1070773.63,1070772.7999999523,1070774.5,1075678.7,5,600,36,
break,html.Screen,10_35_1,2024-03-19T19:09:31.917Z,,,,,,,,,,,NaN,,,,,,,,low,low,,,,,,,false,,,,,false,1075666.7999999523,1075666.2000000477,,1075665.6000000238,,1075678.7,5,600,,
break_continue,html.Screen,10_35_2,2024-03-19T19:09:31.918Z,,,,,,,,,,,NaN,,,,,,,,low,low,,,,,,,false,,,,,false,1075667.6000000238,1075667.2999999523,,1075667,,1075678.7,5,600,,
sequence,flow.Sequence,10_35,2024-03-19T19:09:31.918Z,,,,,,,,,,,4892.799999952316,completion,,,,,,,low,low,,,,,,,false,,,,,false,1075667.8999999762,1075667.2999999523,1070773.63,1070772.7999999523,1070774.5,1075678.7,5,600,,
trial,html.Screen,10_36_0,2024-03-19T19:09:36.923Z,,,,1,0.0189295602385628,0.0128812415435153,,0.04,false,hl,4994.099999952363,response,0.6129173910467475,0.70905397427552,-0.9550427844045754,-0.8225392693174151,0.7126171303027247,-0.8947077165063245,high,low,,ISIC_0010372.JPG,9,ISIC_0026509.JPG,28,27,false,0.11,hh,keypress(i),0,false,1080673.2000000477,1080672.7999999523,1075662,1075668.2000000477,1075678.7,1080699.3,5,600,37,
break,html.Screen,10_36_1,2024-03-19T19:09:36.925Z,,,,,,,,,,,NaN,,,,,,,,high,low,,,,,,,false,,,,,false,1080674.5,1080674.2999999523,,1080673.7000000477,,1080699.3,5,600,,
break_continue,html.Screen,10_36_2,2024-03-19T19:09:36.925Z,,,,,,,,,,,NaN,,,,,,,,high,low,,,,,,,false,,,,,false,1080675.2999999523,1080675.1000000238,,1080674.7999999523,,1080699.3,5,600,,
sequence,flow.Sequence,10_36,2024-03-19T19:09:36.926Z,,,,,,,,,,,4996.400000023888,completion,,,,,,,high,low,,,,,,,false,,,,,false,1080675.6000000238,1080675.1000000238,1075662,1075668.1000000238,1075678.7,1080699.3,5,600,,
trial,html.Screen,10_37_0,2024-03-19T19:09:41.156Z,,,,1,0.0327772618698018,-0.0056908372048728,,0.04,false,lh,4206.099999976112,response,-0.9196681231499724,0.70905397427552,-0.9550427844045754,0.6324829101441412,0.7126171303027247,-0.8947077165063245,low,high,,ISIC_7897925.JPG,9,ISIC_0011209.JPG,28,30,false,0.14,ll,keypress(f),0,false,1084905.8999999762,1084905.3999999762,1080682.8,1080675.7999999523,1080699.3,1084919.7,5,600,38,
break,html.Screen,10_37_1,2024-03-19T19:09:41.158Z,,,,,,,,,,,NaN,,,,,,,,low,high,,,,,,,false,,,,,false,1084907.6000000238,1084907,,1084906.2999999523,,1084919.7,5,600,,
break_continue,html.Screen,10_37_2,2024-03-19T19:09:41.159Z,,,,,,,,,,,NaN,,,,,,,,low,high,,,,,,,false,,,,,false,1084908.5,1084908.2000000477,,1084907.7999999523,,1084919.7,5,600,,
sequence,flow.Sequence,10_37,2024-03-19T19:09:41.159Z,,,,,,,,,,,4208.900000047637,completion,,,,,,,low,high,,,,,,,false,,,,,false,1084908.8999999762,1084908.2000000477,1080682.8,1080675.7000000477,1080699.3,1084919.7,5,600,,
trial,html.Screen,10_38_0,2024-03-19T19:09:52.465Z,,,,1,-0.0050679133050021,-0.0174815595031679,,0.04,true,hl,11294.599999952363,response,0.8070820195894357,0.70905397427552,-0.9550427844045754,-0.8958120092147633,0.7126171303027247,-0.8947077165063245,high,low,,ISIC_9848743.JPG,9,ISIC_0060585.JPG,28,27,false,0.11,hl,keypress(j),0,false,1096214.5,1096214.2999999523,1084903,1084909.1000000238,1084919.7,1096228.9,5,600,39,
break,html.Screen,10_38_1,2024-03-19T19:09:52.465Z,,,,,,,,,,,NaN,,,,,,,,high,low,,,,,,,false,,,,,false,1096214.7999999523,1096214.7999999523,,1096214.5,,1096228.9,5,600,,
break_continue,html.Screen,10_38_2,2024-03-19T19:09:52.465Z,,,,,,,,,,,NaN,,,,,,,,high,low,,,,,,,false,,,,,false,1096215.2999999523,1096214.8999999762,,1096214.8999999762,,1096228.9,5,600,,
sequence,flow.Sequence,10_38,2024-03-19T19:09:52.466Z,,,,,,,,,,,11295.199999976205,completion,,,,,,,high,low,,,,,,,false,,,,,false,1096215.5,1096214.8999999762,1084903,1084909.1000000238,1084919.7,1096228.9,5,600,,
trial,html.Screen,10_39_0,2024-03-19T19:09:58.739Z,,,,1,-0.0158987717472563,-0.0292472192292015,,0.04,true,hh,6259.399999952409,response,0.6376756416282117,0.70905397427552,-0.9550427844045754,0.7554562761747954,0.7126171303027247,-0.8947077165063245,high,high,,ISIC_1366765.JPG,9,ISIC_6963954.JPG,28,87,false,0.1,hh,keypress(i),0,false,1102488.6000000238,1102488.2999999523,1096212.3,1096215.6000000238,1096228.9,1102500.6,5,600,40,
break,html.Screen,10_39_1,2024-03-19T19:09:58.740Z,,,,,,,,,,,NaN,,,,,,,,high,high,,,,,,,false,,,,,false,1102489.8999999762,1102489.5,,1102489,,1102500.6,5,600,,
