sender,sender_type,sender_id,timestamp,meta,,age,blockNo,c1,c2,condition,control_tolerance,correct,correctResponse,duration,ended_on,f1,f1_high,f1_low,f2,f2_high,f2_low,feature_level1,feature_level2,gender,img_left,img_reveal,img_right,n_control_images,n_target_images,practice,range_tolerance,response,response_action,selection_duration,staircase,time_commit,time_end,time_render,time_run,time_show,time_switch,total_blocks,total_trials,trialNo,url
informed_consent,html.Screen,0,2023-11-30T16:28:12.502Z,"{""labjs_version"":""20.2.4"",""labjs_build"":{""flavor"":""development"",""commit"":""f5b4a49f956347addd546a832a3327688c2c0fef""},""location"":""https://labjs.felixhenninger.com/api/labjs_preview/index.html"",""userAgent"":""Mozilla/5.0 (Windows NT 10.0; Win64; x64) AppleWebKit/537.36 (KHTML, like Gecko) Chrome/119.0.0.0 Safari/537.36"",""platform"":""Win32"",""language"":""en-US"",""locale"":""en-US"",""timeZone"":""America/Chicago"",""timezoneOffset"":360,""screen_width"":1920,""screen_height"":1080,""scroll_width"":945,""scroll_height"":918,""window_innerWidth"":945,""window_innerHeight"":966,""devicePixelRatio"":1}",,,,,,,,,,56723.16800019074,response,,,,,,,,,,,,,,,,,consent,click button,,,57370.90000009537,57364.800000190735,624.926,775.2000000476837,641.632,57225.333,,,,{}
Demography form,html.Form,1,2023-11-30T16:28:19.886Z,,,19,,,,,,,,7529.767000143052,form submission,,,,,,,,,male,,,,,,,,,,,,64755.40000009537,64755.10000014305,57208.222,57371.200000047684,57225.333,64608.391,,,,
Welcome,html.Screen,2,2023-11-30T16:29:38.680Z,,,,,,,"[""asym"",""bor""]",,,,78940.00900009536,response,,,,,,,,,,,,,,,,,continue,click button,,,143548.90000009537,143548.40000009537,64591.553,64755.5,64608.391,143408.133,,,,
demo_instructions,html.Screen,3,2023-11-30T16:29:57.553Z,,,,,,,,,,,19013.067000047682,response,,,,,,,,,,,,,,,,,continue,click button,,,162421.80000019073,162421.20000004768,143391.399,143548.90000009537,143408.133,162274.76,,,,
trial,html.Screen,4_0_0,2023-11-30T16:30:12.351Z,,,,0,-1.101214461533281,-1.1849883512428183,,,true,hh,14944.640000095358,response,1.201100953917304,1.2,-1.2,1.1751492358160105,1.2,-1.2,high,high,,ISIC_0064943.JPG,,ISIC_0647224.JPG,,26,true,0.15000000000000002,hh,keypress(i),100,false,177219.70000004768,177219.40000009537,162258.265,162422,162274.76,177074.756,1,16,1,
sequence,flow.Sequence,4_0,2023-11-30T16:30:12.357Z,,,,,,,,,,,14944.640000095358,completion,,,,,,,high,high,,,,,,,true,,,,,false,177225.5,177219.40000009537,162258.265,162422,162274.76,177074.756,1,16,,
trial,html.Screen,4_1_0,2023-11-30T16:30:21.913Z,,,,0,-1.1033977063872138,-1.2513071571733083,,,true,hh,9707.344000143057,response,1.3189473926989124,1.2,-1.2,1.0770264364718942,1.2,-1.2,high,high,,ISIC_0025472.JPG,,ISIC_6093728.JPG,,26,true,0.15000000000000002,hh,keypress(i),100,false,186782.40000009537,186782.10000014305,177058.086,177225.5,177074.756,186641.407,1,16,2,
sequence,flow.Sequence,4_1,2023-11-30T16:30:21.913Z,,,,,,,,,,,9707.344000143057,completion,,,,,,,high,high,,,,,,,true,,,,,false,186782.5,186782.10000014305,177058.086,177225.5,177074.756,186641.407,1,16,,
trial,html.Screen,4_2_0,2023-11-30T16:30:25.791Z,,,,0,-1.29026082950341,-1.144672688339213,,,true,hh,4018.0929999999935,response,1.1653123206802332,1.2,-1.2,1.2976858999596654,1.2,-1.2,high,high,,ISIC_0054317.JPG,,ISIC_0071508.JPG,,26,true,0.15000000000000002,hh,keypress(i),100,false,190659.70000004768,190659.5,186624.952,186782.60000014305,186641.407,190524.897,1,16,3,
sequence,flow.Sequence,4_2,2023-11-30T16:30:25.791Z,,,,,,,,,,,4018.0929999999935,completion,,,,,,,high,high,,,,,,,true,,,,,false,190659.90000009537,190659.5,186624.952,186782.60000014305,186641.407,190524.897,1,16,,
trial,html.Screen,4_3_0,2023-11-30T16:30:29.219Z,,,,0,-1.2282561398079586,-1.210457198775374,,,true,hh,3562.8030000476865,response,1.2711018615747949,1.2,-1.2,1.1042234044781618,1.2,-1.2,high,high,,ISIC_9141817.JPG,,ISIC_8603734.JPG,,26,true,0.15000000000000002,hh,keypress(i),100,false,194088,194087.70000004768,190508.248,190660,190524.897,193941.631,1,16,4,
sequence,flow.Sequence,4_3,2023-11-30T16:30:29.219Z,,,,,,,,,,,3562.8030000476865,completion,,,,,,,high,high,,,,,,,true,,,,,false,194088.30000019073,194087.70000004768,190508.248,190660,190524.897,193941.631,1,16,,
trial,html.Screen,4_4_0,2023-11-30T16:30:37.223Z,,,,0,1.1598623261077452,1.203269031614007,,,true,ll,8150.2690000953735,response,-1.2750452296609045,1.2,-1.2,-1.1682369131232675,1.2,-1.2,low,low,,ISIC_0002639.JPG,,ISIC_0066399.JPG,,30,true,0.1,ll,keypress(f),100,false,202092.10000014305,202091.90000009537,193924.861,194088.40000009537,193941.631,201958.134,1,16,5,
sequence,flow.Sequence,4_4,2023-11-30T16:30:37.223Z,,,,,,,,,,,8150.2690000953735,completion,,,,,,,low,low,,,,,,,true,,,,,false,202092.30000019073,202091.90000009537,193924.861,194088.40000009537,193941.631,201958.134,1,16,,
trial,html.Screen,4_5_0,2023-11-30T16:30:56.443Z,,,,0,1.2318069697449794,1.1703576816778267,,,true,ll,19354.066000047693,response,-1.150547408535662,1.2,-1.2,-1.3135268651968233,1.2,-1.2,low,low,,ISIC_2732573.JPG,,ISIC_0072568.JPG,,53,true,0.15000000000000002,ll,keypress(f),100,false,221312.40000009537,221312.20000004768,201941.639,202092.40000009537,201958.134,221174.703,1,16,6,
sequence,flow.Sequence,4_5,2023-11-30T16:30:56.443Z,,,,,,,,,,,19354.066000047693,completion,,,,,,,low,low,,,,,,,true,,,,,false,221312.5,221312.20000004768,201941.639,202092.40000009537,201958.134,221174.703,1,16,,
trial,html.Screen,4_6_0,2023-11-30T16:31:06.497Z,,,,0,1.1388430156686884,1.2700552354887775,,,true,ll,10190.997000047675,response,-1.0525532302758762,1.2,-1.2,-1.1628982512509805,1.2,-1.2,low,low,,ISIC_9939653.JPG,,ISIC_0033428.JPG,,53,true,0.15000000000000002,ll,keypress(f),100,false,231365.90000009537,231365.70000004768,221158.466,221312.5,221174.703,231224.711,1,16,7,
sequence,flow.Sequence,4_6,2023-11-30T16:31:06.497Z,,,,,,,,,,,10190.997000047675,completion,,,,,,,low,low,,,,,,,true,,,,,false,231366,231365.70000004768,221158.466,221312.5,221174.703,231224.711,1,16,,
trial,html.Screen,4_7_0,2023-11-30T16:31:11.749Z,,,,0,1.2024083555600384,1.149077673153018,,,true,ll,5393.4890000476735,response,-1.1783311757907324,1.2,-1.2,-1.0915173513546716,1.2,-1.2,low,low,,ISIC_3566243.JPG,,ISIC_8241457.JPG,,53,true,0.15000000000000002,ll,keypress(f),100,false,236618.30000019073,236618.20000004768,231208.184,231366.10000014305,231224.711,236474.877,1,16,8,
sequence,flow.Sequence,4_7,2023-11-30T16:31:11.749Z,,,,,,,,,,,5393.4890000476735,completion,,,,,,,low,low,,,,,,,true,,,,,false,236618.60000014305,236618.20000004768,231208.184,231366.10000014305,231224.711,236474.877,1,16,,
trial,html.Screen,4_8_0,2023-11-30T16:31:20.246Z,,,,0,1.331700944308701,-0.9395196143259436,,,true,lh,8639.122999999992,response,-0.7911024675435955,1.2,-1.2,0.7975977016137676,1.2,-1.2,low,high,,ISIC_1668831.JPG,,ISIC_5813642.JPG,,27,true,0.42000000000000026,lh,keypress(e),100,false,245114.20000004768,245114,236458.037,236618.60000014305,236474.877,244974.875,1,16,9,
sequence,flow.Sequence,4_8,2023-11-30T16:31:20.246Z,,,,,,,,,,,8639.122999999992,completion,,,,,,,low,high,,,,,,,true,,,,,false,245114.30000019073,245114,236458.037,236618.60000014305,236474.877,244974.875,1,16,,
trial,html.Screen,4_9_0,2023-11-30T16:31:22.675Z,,,,0,1.2364994561934892,-0.9174173651516624,,,true,lh,2568.225000143051,response,-1.0213365328004047,1.2,-1.2,1.088524359911891,1.2,-1.2,low,high,,ISIC_3481133.JPG,,ISIC_5434229.JPG,,27,true,0.42000000000000026,lh,keypress(e),100,false,247543.40000009537,247543.10000014305,244958.016,245114.5,244974.875,247408.028,1,16,10,
sequence,flow.Sequence,4_9,2023-11-30T16:31:22.675Z,,,,,,,,,,,2568.225000143051,completion,,,,,,,low,high,,,,,,,true,,,,,false,247543.5,247543.10000014305,244958.016,245114.5,244974.875,247408.028,1,16,,
trial,html.Screen,4_10_0,2023-11-30T16:31:25.821Z,,,,0,0.9433720631499012,-1.0582071940347648,,,true,lh,3280.6720000476926,response,-0.991146183030456,1.2,-1.2,0.9949639823722534,1.2,-1.2,low,high,,ISIC_4890201.JPG,,ISIC_6342224.JPG,,27,true,0.42000000000000026,lh,keypress(e),100,false,250688.80000019073,250688.70000004768,247391.597,247543.5,247408.028,250558.061,1,16,11,
sequence,flow.Sequence,4_10,2023-11-30T16:31:25.821Z,,,,,,,,,,,3280.6720000476926,completion,,,,,,,low,high,,,,,,,true,,,,,false,250689,250688.70000004768,247391.597,247543.5,247408.028,250558.061,1,16,,
trial,html.Screen,4_11_0,2023-11-30T16:31:30.392Z,,,,0,0.8809306963311293,-0.8614910030038974,,,true,lh,4701.439000000013,response,-0.7833710010171356,1.2,-1.2,0.9315588090336896,1.2,-1.2,low,high,,ISIC_0013731.JPG,,ISIC_3826102.JPG,,27,true,0.42000000000000026,lh,keypress(e),100,false,255259.60000014305,255259.5,250541.33,250689.10000014305,250558.061,255124.663,1,16,12,
sequence,flow.Sequence,4_11,2023-11-30T16:31:30.392Z,,,,,,,,,,,4701.439000000013,completion,,,,,,,low,high,,,,,,,true,,,,,false,255259.80000019073,255259.5,250541.33,250689,250558.061,255124.663,1,16,,
trial,html.Screen,4_12_0,2023-11-30T16:31:44.083Z,,,,0,-0.9235571765207048,1.0008081653938232,,,true,hl,13825.93700014305,response,0.8809306963311293,1.2,-1.2,-0.8614910030038974,1.2,-1.2,high,low,,ISIC_8796632.JPG,,ISIC_0013731.JPG,,26,true,0.3600000000000002,hl,keypress(j),100,false,268950.80000019073,268950.60000014305,255108.172,255259.80000019073,255124.663,268808.083,1,16,13,
sequence,flow.Sequence,4_12,2023-11-30T16:31:44.083Z,,,,,,,,,,,13825.93700014305,completion,,,,,,,high,low,,,,,,,true,,,,,false,268951,268950.60000014305,255108.172,255259.80000019073,255124.663,268808.083,1,16,,
trial,html.Screen,4_13_0,2023-11-30T16:31:48.545Z,,,,0,-0.7809949855371787,0.8493861117004308,,,true,hl,4604.6170000477,response,0.9696118525781644,1.2,-1.2,-0.9244148283103414,1.2,-1.2,high,low,,ISIC_7450481.JPG,,ISIC_7927525.JPG,,33,true,0.42000000000000026,hl,keypress(j),100,false,273412.80000019073,273412.7000000477,268791.324,268951,268808.083,273275.071,1,16,14,
sequence,flow.Sequence,4_13,2023-11-30T16:31:48.545Z,,,,,,,,,,,4604.6170000477,completion,,,,,,,high,low,,,,,,,true,,,,,false,273413,273412.7000000477,268791.324,268951,268808.083,273275.071,1,16,,
trial,html.Screen,4_14_0,2023-11-30T16:31:53.836Z,,,,0,-0.8200962008791046,0.7936051642828523,,,true,hl,5429.129000047687,response,0.8179805381029407,1.2,-1.2,-0.8578467162767749,1.2,-1.2,high,low,,ISIC_0027031.JPG,,ISIC_0067253.JPG,,33,true,0.42000000000000026,hl,keypress(j),100,false,278704.40000009537,278704.2000000477,273257.964,273413.10000014305,273275.071,278558.054,1,16,15,
sequence,flow.Sequence,4_14,2023-11-30T16:31:53.837Z,,,,,,,,,,,5429.129000047687,completion,,,,,,,high,low,,,,,,,true,,,,,false,278704.60000014305,278704.2000000477,273257.964,273413,273275.071,278558.054,1,16,,
trial,html.Screen,4_15_0,2023-11-30T16:31:57.593Z,,,,0,-0.8816288864119318,0.801867301188093,,,true,hl,3902.5460001430474,response,1.331700944308701,1.2,-1.2,-0.9395196143259436,1.2,-1.2,high,low,,ISIC_9196783.JPG,,ISIC_1668831.JPG,,33,true,0.42000000000000026,hl,keypress(j),100,false,282460.80000019073,282460.60000014305,278541.305,278704.7000000477,278558.054,282325.06,1,16,16,
sequence,flow.Sequence,4_15,2023-11-30T16:31:57.593Z,,,,,,,,,,,3902.5460001430474,completion,,,,,,,high,low,,,,,,,true,,,,,false,282461.10000014305,282460.60000014305,278541.305,278704.7000000477,278558.054,282325.06,1,16,,
demonstration_loop,flow.Loop,4,2023-11-30T16:31:57.593Z,,,,,,,,,,,120185.84000014304,completion,,,,,,,,,,,,,,,true,,,,,false,282461.10000014305,282460.60000014305,162258.265,162421.90000009537,162274.76,282325.06,1,16,,
practice_instructions,html.Screen,5,2023-11-30T16:32:01.017Z,,,,,,,,,,,3559.4400000000023,response,,,,,,,,,,,,,,,,,continue,click button,,,285885.30000019073,285884.5,282308.129,282461.10000014305,282325.06,285741.268,,,,
trial,html.Screen,6_0_0,2023-11-30T16:32:08.954Z,,,,1,0.9579209317488,-1.0147487101263497,,,true,lh,8075.332000143069,response,-1.0022829373011404,1.2,-1.2,0.8311726972863814,1.2,-1.2,low,high,,ISIC_8124482.JPG,,ISIC_0033287.JPG,,27,true,0.42000000000000026,lh,keypress(e),0,false,293822.2000000477,293816.60000014305,285708.079,285885.40000009537,285741.268,293674.856,1,40,1,
sequence,flow.Sequence,6_0,2023-11-30T16:32:08.954Z,,,,,,,,,,,8075.332000143069,completion,,,,,,,low,high,,,,,,,true,,,,,false,293822.30000019073,293816.60000014305,285708.079,285885.40000009537,285741.268,293674.856,1,40,,
trial,html.Screen,6_1_0,2023-11-30T16:32:14.018Z,,,,1,1.3411179702686655,1.255103311449152,,,true,ll,5211.044000095339,response,-0.8489974003990046,1.2,-1.2,-1.3952427972894204,1.2,-1.2,low,low,,ISIC_5611010.JPG,,ISIC_0032624.JPG,,245,true,0.3600000000000002,ll,keypress(f),0,false,298886,298885.90000009537,293657.926,293822.30000019073,293674.856,298741.798,1,40,2,
sequence,flow.Sequence,6_1,2023-11-30T16:32:14.018Z,,,,,,,,,,,5211.044000095339,completion,,,,,,,low,low,,,,,,,true,,,,,false,298886.10000014305,298885.90000009537,293657.926,293822.30000019073,293674.856,298741.798,1,40,,
trial,html.Screen,6_2_0,2023-11-30T16:32:24.002Z,,,,1,-1.126264390089724,-1.271896565050952,,,true,hh,10128.20199999999,response,1.057008495826831,1.2,-1.2,1.1278122585028287,1.2,-1.2,high,high,,ISIC_1520897.JPG,,ISIC_2819798.JPG,,26,true,0.15000000000000002,hh,keypress(i),0,false,308870.2000000477,308870,298707.933,298886.2000000477,298741.798,308725.024,1,40,3,
sequence,flow.Sequence,6_2,2023-11-30T16:32:24.002Z,,,,,,,,,,,10128.20199999999,completion,,,,,,,high,high,,,,,,,true,,,,,false,308870.2000000477,308870,298707.933,298886.2000000477,298741.798,308725.024,1,40,,
trial,html.Screen,6_3_0,2023-11-30T16:32:31.554Z,,,,1,1.2711018615747949,1.1042234044781618,,,true,ll,7696.976000000024,response,-1.242586748440878,1.2,-1.2,-1.1207933200172129,1.2,-1.2,low,low,,ISIC_8603734.JPG,,ISIC_0013073.JPG,,30,true,0.1,ll,keypress(f),0,false,316422.10000014305,316422,308691.358,308870.30000019073,308725.024,316274.793,1,40,4,
sequence,flow.Sequence,6_3,2023-11-30T16:32:31.554Z,,,,,,,,,,,7696.976000000024,completion,,,,,,,low,low,,,,,,,true,,,,,false,316422.2000000477,316422,308691.358,308870.30000019073,308725.024,316274.793,1,40,,
trial,html.Screen,6_4_0,2023-11-30T16:32:37.586Z,,,,1,1.2711018615747949,1.1042234044781618,,,true,ll,6179.206999999995,response,-1.0762260610050776,1.2,-1.2,-1.082709423673037,1.2,-1.2,low,low,,ISIC_8603734.JPG,,ISIC_0058666.JPG,,53,true,0.15000000000000002,ll,keypress(f),0,false,322454.10000014305,322454,316257.916,316422.2000000477,316274.793,322308.336,1,40,5,
sequence,flow.Sequence,6_4,2023-11-30T16:32:37.586Z,,,,,,,,,,,6179.206999999995,completion,,,,,,,low,low,,,,,,,true,,,,,false,322454.2000000477,322454,316257.916,316422.2000000477,316274.793,322308.336,1,40,,
trial,html.Screen,6_5_0,2023-11-30T16:32:45.922Z,,,,1,-1.1383813631375823,-1.1319312220332556,,,true,hh,8481.564000095357,response,1.2503149164557643,1.2,-1.2,1.0796591227570405,1.2,-1.2,high,high,,ISIC_6227397.JPG,,ISIC_2466892.JPG,,26,true,0.15000000000000002,hh,keypress(i),0,false,330789.90000009537,330789.90000009537,322291.213,322454.30000019073,322308.336,330641.214,1,40,6,
sequence,flow.Sequence,6_5,2023-11-30T16:32:45.922Z,,,,,,,,,,,8481.564000095357,completion,,,,,,,high,high,,,,,,,true,,,,,false,330790.10000014305,330789.90000009537,322291.213,322454.30000019073,322308.336,330641.214,1,40,,
trial,html.Screen,6_6_0,2023-11-30T16:32:52.962Z,,,,1,0.8579451262594331,-0.9633172970727744,,,true,lh,7188.986000047706,response,-0.9873794329144926,1.2,-1.2,0.7991077882008257,1.2,-1.2,low,high,,ISIC_0067172.JPG,,ISIC_0013498.JPG,,27,true,0.42000000000000026,lh,keypress(e),0,false,337830.2000000477,337830.2000000477,330624.395,330790.10000014305,330641.214,337674.576,1,40,7,
sequence,flow.Sequence,6_6,2023-11-30T16:32:52.962Z,,,,,,,,,,,7188.986000047706,completion,,,,,,,low,high,,,,,,,true,,,,,false,337830.40000009537,337830.2000000477,330624.395,330790.10000014305,330641.214,337674.576,1,40,,
trial,html.Screen,6_7_0,2023-11-30T16:33:02.034Z,,,,1,1.0789197754694622,1.1654690806750023,,,true,ll,9227.02400014305,response,-1.1877026569952844,1.2,-1.2,-1.1604367569896263,1.2,-1.2,low,low,,ISIC_1576437.JPG,,ISIC_0064589.JPG,,245,true,0.3600000000000002,ll,keypress(f),0,false,346901.7000000477,346901.60000014305,337657.895,337830.40000009537,337674.576,346741.233,1,40,8,
sequence,flow.Sequence,6_7,2023-11-30T16:33:02.034Z,,,,,,,,,,,9227.02400014305,completion,,,,,,,low,low,,,,,,,true,,,,,false,346901.80000019073,346901.60000014305,337657.895,337830.40000009537,337674.576,346741.233,1,40,,
trial,html.Screen,6_8_0,2023-11-30T16:33:07.858Z,,,,1,-1.1033977063872138,-1.2513071571733083,,,true,hh,5984.867000143044,response,1.1388430156686884,1.2,-1.2,1.2700552354887775,1.2,-1.2,high,high,,ISIC_0025472.JPG,,ISIC_9939653.JPG,,26,true,0.15000000000000002,hh,keypress(i),0,false,352726.2000000477,352726.10000014305,346724.698,346901.90000009537,346741.233,352574.521,1,40,9,
sequence,flow.Sequence,6_8,2023-11-30T16:33:07.858Z,,,,,,,,,,,5984.867000143044,completion,,,,,,,high,high,,,,,,,true,,,,,false,352726.30000019073,352726.10000014305,346724.698,346901.90000009537,346741.233,352574.521,1,40,,
trial,html.Screen,6_9_0,2023-11-30T16:33:12.290Z,,,,1,-1.276222161935671,0.9657780821973284,,,true,hl,4583.3790000953595,response,0.879102500583965,1.2,-1.2,-1.0933081951979773,1.2,-1.2,high,low,,ISIC_6710411.JPG,,ISIC_0046223.JPG,,26,true,0.3600000000000002,hl,keypress(j),0,false,357158.10000014305,357157.90000009537,352557.881,352726.30000019073,352574.521,357008.028,1,40,10,
sequence,flow.Sequence,6_9,2023-11-30T16:33:12.290Z,,,,,,,,,,,4583.3790000953595,completion,,,,,,,high,low,,,,,,,true,,,,,false,357158.10000014305,357157.90000009537,352557.881,352726.30000019073,352574.521,357008.028,1,40,,
trial,html.Screen,6_10_0,2023-11-30T16:33:20.818Z,,,,1,0.8534691366511764,-1.03975580494588,,,true,lh,8677.872000095376,response,-1.0022829373011404,1.2,-1.2,0.8311726972863814,1.2,-1.2,low,high,,ISIC_0056788.JPG,,ISIC_0033287.JPG,,27,true,0.42000000000000026,lh,keypress(e),0,false,365686,365685.90000009537,356991.216,357158.2000000477,357008.028,365541.823,1,40,11,
sequence,flow.Sequence,6_10,2023-11-30T16:33:20.818Z,,,,,,,,,,,8677.872000095376,completion,,,,,,,low,high,,,,,,,true,,,,,false,365686.10000014305,365685.90000009537,356991.216,357158.2000000477,357008.028,365541.823,1,40,,
trial,html.Screen,6_11_0,2023-11-30T16:33:25.570Z,,,,1,-1.1474466950560966,-1.268445326285509,,,true,hh,4895.577000095393,response,1.4539413708872362,1.2,-1.2,0.952659927954878,1.2,-1.2,high,high,,ISIC_5216586.JPG,,ISIC_0033152.JPG,,179,true,0.3600000000000002,hh,keypress(i),0,false,370437.5,370437.40000009537,365507.78,365686.2000000477,365541.823,370291.184,1,40,12,
sequence,flow.Sequence,6_11,2023-11-30T16:33:25.570Z,,,,,,,,,,,4895.577000095393,completion,,,,,,,high,high,,,,,,,true,,,,,false,370437.60000014305,370437.40000009537,365507.78,365686.2000000477,365541.823,370291.184,1,40,,
trial,html.Screen,6_12_0,2023-11-30T16:33:34.594Z,,,,1,-0.8655167308525522,0.9298580423306444,,,true,hl,9170.716000095359,response,0.869932994914832,1.2,-1.2,-0.8880533324432531,1.2,-1.2,high,low,,ISIC_4603706.JPG,,ISIC_8617084.JPG,,26,true,0.3600000000000002,hl,keypress(j),0,false,379462,379461.90000009537,370274.858,370437.7000000477,370291.184,379307.843,1,40,13,
sequence,flow.Sequence,6_12,2023-11-30T16:33:34.594Z,,,,,,,,,,,9170.716000095359,completion,,,,,,,high,low,,,,,,,true,,,,,false,379462.10000014305,379461.90000009537,370274.858,370437.60000014305,370291.184,379307.843,1,40,,
trial,html.Screen,6_13_0,2023-11-30T16:33:38.850Z,,,,1,-1.0213365328004047,1.088524359911891,,,true,hl,4409.957000190741,response,0.879102500583965,1.2,-1.2,-1.0933081951979773,1.2,-1.2,high,low,,ISIC_5434229.JPG,,ISIC_0046223.JPG,,33,true,0.42000000000000026,hl,keypress(j),0,false,383718,383717.80000019073,379291.109,379462.2000000477,379307.843,383557.872,1,40,14,
sequence,flow.Sequence,6_13,2023-11-30T16:33:38.850Z,,,,,,,,,,,4409.957000190741,completion,,,,,,,high,low,,,,,,,true,,,,,false,383718,383717.80000019073,379291.109,379462.2000000477,379307.843,383557.872,1,40,,
trial,html.Screen,6_14_0,2023-11-30T16:33:48.434Z,,,,1,0.858338058340649,-0.9540612223480284,,,true,lh,9743.928000190761,response,-0.8655167308525522,1.2,-1.2,0.9298580423306444,1.2,-1.2,low,high,,ISIC_8922893.JPG,,ISIC_4603706.JPG,,27,true,0.42000000000000026,lh,keypress(e),0,false,393302,393301.80000019073,383541.317,383718.2000000477,383557.872,393141.139,1,40,15,
sequence,flow.Sequence,6_14,2023-11-30T16:33:48.434Z,,,,,,,,,,,9743.928000190761,completion,,,,,,,low,high,,,,,,,true,,,,,false,393302.10000014305,393301.80000019073,383541.317,383718.10000014305,383557.872,393141.139,1,40,,
trial,html.Screen,6_15_0,2023-11-30T16:33:54.530Z,,,,1,1.2724584600905462,1.1411016103695344,,,true,ll,6256.66100019071,response,-0.8942749799405368,1.2,-1.2,-1.2228671360399193,1.2,-1.2,low,low,,ISIC_0059625.JPG,,ISIC_0033194.JPG,,245,true,0.3600000000000002,ll,keypress(f),0,false,399398,399397.80000019073,393124.293,393302.10000014305,393141.139,399241.133,1,40,16,
sequence,flow.Sequence,6_15,2023-11-30T16:33:54.530Z,,,,,,,,,,,6256.66100019071,completion,,,,,,,low,low,,,,,,,true,,,,,false,399398,399397.80000019073,393124.293,393302.10000014305,393141.139,399241.133,1,40,,
trial,html.Screen,6_16_0,2023-11-30T16:33:58.546Z,,,,1,-0.9235571765207048,1.0008081653938232,,,true,hl,4172.967000143079,response,1.2364994561934892,1.2,-1.2,-0.9174173651516624,1.2,-1.2,high,low,,ISIC_8796632.JPG,,ISIC_3481133.JPG,,26,true,0.3600000000000002,hl,keypress(j),0,false,403414.10000014305,403414.10000014305,399224.531,399398.10000014305,399241.133,403257.916,1,40,17,
sequence,flow.Sequence,6_16,2023-11-30T16:33:58.546Z,,,,,,,,,,,4172.967000143079,completion,,,,,,,high,low,,,,,,,true,,,,,false,403414.2000000477,403414.10000014305,399224.531,399398,399241.133,403257.916,1,40,,
trial,html.Screen,6_17_0,2023-11-30T16:34:02.690Z,,,,1,-1.2750452296609045,-1.1682369131232675,,,true,hh,4299.884000190708,response,1.1217390688497193,1.2,-1.2,0.8482399573167824,1.2,-1.2,high,high,,ISIC_0066399.JPG,,ISIC_0026344.JPG,,253,true,0.42000000000000026,hh,keypress(i),0,false,407557.80000019073,407557.80000019073,403241.131,403414.30000019073,403257.916,407408.238,1,40,18,
sequence,flow.Sequence,6_17,2023-11-30T16:34:02.690Z,,,,,,,,,,,4299.884000190708,completion,,,,,,,high,high,,,,,,,true,,,,,false,407557.90000009537,407557.80000019073,403241.131,403414.2000000477,403257.916,407408.238,1,40,,
trial,html.Screen,6_18_0,2023-11-30T16:34:11.522Z,,,,1,1.1653123206802332,1.2976858999596654,,,true,ll,8981.662000095355,response,-1.156827121261563,1.2,-1.2,-1.2544342720917778,1.2,-1.2,low,low,,ISIC_0071508.JPG,,ISIC_0060397.JPG,,30,true,0.1,ll,keypress(f),0,false,416390,416389.90000009537,407391.189,407557.90000009537,407408.238,416241.132,1,40,19,
sequence,flow.Sequence,6_18,2023-11-30T16:34:11.522Z,,,,,,,,,,,8981.662000095355,completion,,,,,,,low,low,,,,,,,true,,,,,false,416390,416389.90000009537,407391.189,407557.90000009537,407408.238,416241.132,1,40,,
trial,html.Screen,6_19_0,2023-11-30T16:34:19.842Z,,,,1,1.011737552725394,-0.8500530224490773,,,true,lh,8468.768000095384,response,-0.7998855902596425,1.2,-1.2,1.1518579145663017,1.2,-1.2,low,high,,ISIC_2998367.JPG,,ISIC_0025061.JPG,,27,true,0.42000000000000026,lh,keypress(e),0,false,424710,424709.90000009537,416224.326,416390.10000014305,416241.132,424557.771,1,40,20,
sequence,flow.Sequence,6_19,2023-11-30T16:34:19.842Z,,,,,,,,,,,8468.768000095384,completion,,,,,,,low,high,,,,,,,true,,,,,false,424710.10000014305,424709.90000009537,416224.326,416390.10000014305,416241.132,424557.771,1,40,,
trial,html.Screen,6_20_0,2023-11-30T16:34:35.678Z,,,,1,1.0026266089287914,-1.0913275913920335,,,,,15833.353999999992,timeout,-0.7809949855371787,1.2,-1.2,0.8493861117004308,1.2,-1.2,low,high,,ISIC_0033520.JPG,,ISIC_7450481.JPG,,27,true,0.42000000000000026,,,0,false,440545.60000014305,440545.40000009537,424541.091,424710.2000000477,424557.771,440391.125,1,40,21,
sequence,flow.Sequence,6_20,2023-11-30T16:34:35.678Z,,,,,,,,,,,15987.62900009536,completion,,,,,,,low,high,,,,,,,true,,,,,false,440545.7000000477,440545.40000009537,424541.091,424710.2000000477,424557.771,440391.125,1,40,,
trial,html.Screen,6_21_0,2023-11-30T16:34:38.754Z,,,,1,-0.7833710010171356,0.9315588090336896,,,true,hl,3230.5750000476837,response,1.331700944308701,1.2,-1.2,-0.9395196143259436,1.2,-1.2,high,low,,ISIC_3826102.JPG,,ISIC_1668831.JPG,,26,true,0.3600000000000002,hl,keypress(j),0,false,443621.80000019073,443621.7000000477,440374.679,440545.7000000477,440391.125,443474.658,1,40,22,
sequence,flow.Sequence,6_21,2023-11-30T16:34:38.754Z,,,,,,,,,,,3230.5750000476837,completion,,,,,,,high,low,,,,,,,true,,,,,false,443621.90000009537,443621.7000000477,440374.679,440545.7000000477,440391.125,443474.658,1,40,,
trial,html.Screen,6_22_0,2023-11-30T16:34:42.466Z,,,,1,-1.247270138097585,-1.1704704713504994,,,true,hh,3859.042000047688,response,1.0870240111136478,1.2,-1.2,1.332340670965917,1.2,-1.2,high,high,,ISIC_0065774.JPG,,ISIC_0000660.JPG,,253,true,0.42000000000000026,hh,keypress(i),0,false,447333.80000019073,447333.7000000477,443457.97,443621.90000009537,443474.658,447174.43,1,40,23,
sequence,flow.Sequence,6_22,2023-11-30T16:34:42.466Z,,,,,,,,,,,3859.042000047688,completion,,,,,,,high,high,,,,,,,true,,,,,false,447333.90000009537,447333.7000000477,443457.97,443621.90000009537,443474.658,447174.43,1,40,,
trial,html.Screen,6_23_0,2023-11-30T16:34:45.506Z,,,,1,1.0143509683988825,-1.3163955902021656,,,true,lh,3198.870000190742,response,-0.9388660854518424,1.2,-1.2,0.79533948698576,1.2,-1.2,low,high,,ISIC_0062031.JPG,,ISIC_9291926.JPG,,27,true,0.42000000000000026,lh,keypress(e),0,false,450373.40000009537,450373.30000019073,447157.877,447334,447174.43,450224.571,1,40,24,
sequence,flow.Sequence,6_23,2023-11-30T16:34:45.506Z,,,,,,,,,,,3198.870000190742,completion,,,,,,,low,high,,,,,,,true,,,,,false,450373.5,450373.30000019073,447157.877,447333.90000009537,447174.43,450224.571,1,40,,
trial,html.Screen,6_24_0,2023-11-30T16:34:47.906Z,,,,1,1.2075172235545184,-0.9116724966267612,,,true,lh,2549.2290001907386,response,-0.7871162143493278,1.2,-1.2,0.8429329800778957,1.2,-1.2,low,high,,ISIC_0024235.JPG,,ISIC_3439215.JPG,,27,true,0.42000000000000026,lh,keypress(e),0,false,452773.80000019073,452773.80000019073,450207.935,450373.5,450224.571,452624.573,1,40,25,
sequence,flow.Sequence,6_24,2023-11-30T16:34:47.906Z,,,,,,,,,,,2549.2290001907386,completion,,,,,,,low,high,,,,,,,true,,,,,false,452773.90000009537,452773.80000019073,450207.935,450373.5,450224.571,452624.573,1,40,,
trial,html.Screen,6_25_0,2023-11-30T16:34:52.050Z,,,,1,-1.0264463986917702,1.2804054832904397,,,true,hl,4293.327000095393,response,1.0865333402803938,1.2,-1.2,-1.0542635307358266,1.2,-1.2,high,low,,ISIC_7889838.JPG,,ISIC_0034006.JPG,,26,true,0.3600000000000002,hl,keypress(j),0,false,456918,456917.90000009537,452607.737,452773.90000009537,452624.573,456757.72,1,40,26,
sequence,flow.Sequence,6_25,2023-11-30T16:34:52.050Z,,,,,,,,,,,4293.327000095393,completion,,,,,,,high,low,,,,,,,true,,,,,false,456918,456917.90000009537,452607.737,452773.90000009537,452624.573,456757.72,1,40,,
trial,html.Screen,6_26_0,2023-11-30T16:34:57.410Z,,,,1,-1.2915523362516486,-1.1264977790562936,,,true,hh,5519.980000047712,response,0.8060929764555678,1.2,-1.2,1.3130464853633568,1.2,-1.2,high,high,,ISIC_0502582.JPG,,ISIC_0004486.JPG,,253,true,0.42000000000000026,hh,keypress(i),0,false,462277.80000019073,462277.7000000477,456741.128,456918.10000014305,456757.72,462124.393,1,40,27,
sequence,flow.Sequence,6_26,2023-11-30T16:34:57.410Z,,,,,,,,,,,5519.980000047712,completion,,,,,,,high,high,,,,,,,true,,,,,false,462277.90000009537,462277.7000000477,456741.128,456918.10000014305,456757.72,462124.393,1,40,,
trial,html.Screen,6_27_0,2023-11-30T16:35:01.762Z,,,,1,1.2331439637486756,-0.9691143900156988,,,true,lh,4505.407000190753,response,-0.7911024675435955,1.2,-1.2,0.7975977016137676,1.2,-1.2,low,high,,ISIC_7877488.JPG,,ISIC_5813642.JPG,,27,true,0.42000000000000026,lh,keypress(e),0,false,466629.80000019073,466629.80000019073,462107.581,462278,462124.393,466474.416,1,40,28,
sequence,flow.Sequence,6_27,2023-11-30T16:35:01.762Z,,,,,,,,,,,4505.407000190753,completion,,,,,,,low,high,,,,,,,true,,,,,false,466630,466629.80000019073,462107.581,462278,462124.393,466474.416,1,40,,
trial,html.Screen,6_28_0,2023-11-30T16:35:05.026Z,,,,1,-1.0164576835546473,0.8120626538423016,,,true,hl,3419.484000095341,response,1.2075172235545184,1.2,-1.2,-0.9116724966267612,1.2,-1.2,high,low,,ISIC_6002694.JPG,,ISIC_0024235.JPG,,26,true,0.3600000000000002,hl,keypress(j),0,false,469894,469893.90000009537,466457.878,466630,466474.416,469741.242,1,40,29,
sequence,flow.Sequence,6_28,2023-11-30T16:35:05.026Z,,,,,,,,,,,3419.484000095341,completion,,,,,,,high,low,,,,,,,true,,,,,false,469894,469893.90000009537,466457.878,466630,466474.416,469741.242,1,40,,
trial,html.Screen,6_29_0,2023-11-30T16:35:08.114Z,,,,1,1.09666761087476,1.1072126870290426,,,true,ll,3240.4580000476562,response,-1.418771357270887,1.2,-1.2,-1.2749714218614645,1.2,-1.2,low,low,,ISIC_0071754.JPG,,ISIC_0024999.JPG,,339,true,0.42000000000000026,ll,keypress(f),0,false,472981.80000019073,472981.7000000477,469724.3,469894.10000014305,469741.242,472824.482,1,40,30,
sequence,flow.Sequence,6_29,2023-11-30T16:35:08.114Z,,,,,,,,,,,3240.4580000476562,completion,,,,,,,low,low,,,,,,,true,,,,,false,472981.90000009537,472981.7000000477,469724.3,469894,469741.242,472824.482,1,40,,
trial,html.Screen,6_30_0,2023-11-30T16:35:11.378Z,,,,1,1.1210325063849345,1.1498648320956202,,,true,ll,3421.3180001907167,response,-1.0762260610050776,1.2,-1.2,-1.082709423673037,1.2,-1.2,low,low,,ISIC_0032162.JPG,,ISIC_0058666.JPG,,53,true,0.15000000000000002,ll,keypress(f),0,false,476245.90000009537,476245.80000019073,472807.674,472982,472824.482,476091.234,1,40,31,
sequence,flow.Sequence,6_30,2023-11-30T16:35:11.378Z,,,,,,,,,,,3421.3180001907167,completion,,,,,,,low,low,,,,,,,true,,,,,false,476246.10000014305,476245.80000019073,472807.674,472982,472824.482,476091.234,1,40,,
trial,html.Screen,6_31_0,2023-11-30T16:35:14.594Z,,,,1,1.2024083555600384,1.149077673153018,,,true,ll,3370.3660001430544,response,-1.1783311757907324,1.2,-1.2,-1.0915173513546716,1.2,-1.2,low,low,,ISIC_3566243.JPG,,ISIC_8241457.JPG,,53,true,0.15000000000000002,ll,keypress(f),0,false,479461.7000000477,479461.60000014305,476074.551,476246.10000014305,476091.234,479307.842,1,40,32,
sequence,flow.Sequence,6_31,2023-11-30T16:35:14.594Z,,,,,,,,,,,3370.3660001430544,completion,,,,,,,low,low,,,,,,,true,,,,,false,479461.80000019073,479461.60000014305,476074.551,476246.10000014305,476091.234,479307.842,1,40,,
trial,html.Screen,6_32_0,2023-11-30T16:35:19.699Z,,,,1,1.0717785279820962,1.1267239445830604,,,true,ll,5258.058000095363,response,-1.0698162624196283,1.2,-1.2,-1.219634566983089,1.2,-1.2,low,low,,ISIC_9948815.JPG,,ISIC_0030552.JPG,,53,true,0.15000000000000002,ll,keypress(f),0,false,484566.10000014305,484565.90000009537,479291.226,479461.90000009537,479307.842,484407.732,1,40,33,
sequence,flow.Sequence,6_32,2023-11-30T16:35:19.699Z,,,,,,,,,,,5258.058000095363,completion,,,,,,,low,low,,,,,,,true,,,,,false,484566.2000000477,484565.90000009537,479291.226,479461.80000019073,479307.842,484407.732,1,40,,
trial,html.Screen,6_33_0,2023-11-30T16:35:24.050Z,,,,1,0.991282840649944,-0.9397921099839784,,,true,lh,4509.668000095349,response,-0.7911024675435955,1.2,-1.2,0.7975977016137676,1.2,-1.2,low,high,,ISIC_0000463.JPG,,ISIC_5813642.JPG,,27,true,0.42000000000000026,lh,keypress(e),0,false,488917.5,488917.40000009537,484391.16,484566.30000019073,484407.732,488757.737,1,40,34,
sequence,flow.Sequence,6_33,2023-11-30T16:35:24.050Z,,,,,,,,,,,4509.668000095349,completion,,,,,,,low,high,,,,,,,true,,,,,false,488917.60000014305,488917.40000009537,484391.16,484566.30000019073,484407.732,488757.737,1,40,,
trial,html.Screen,6_34_0,2023-11-30T16:35:29.970Z,,,,1,-1.156827121261563,-1.2544342720917778,,,true,hh,6079.963000047661,response,1.0144670292405198,1.2,-1.2,1.3575822058853693,1.2,-1.2,high,high,,ISIC_0060397.JPG,,ISIC_4591316.JPG,,179,true,0.3600000000000002,hh,keypress(i),0,false,494837.80000019073,494837.7000000477,488741.162,488917.7000000477,488757.737,494691.019,1,40,35,
sequence,flow.Sequence,6_34,2023-11-30T16:35:29.970Z,,,,,,,,,,,6079.963000047661,completion,,,,,,,high,high,,,,,,,true,,,,,false,494837.90000009537,494837.7000000477,488741.162,488917.60000014305,488757.737,494691.019,1,40,,
trial,html.Screen,6_35_0,2023-11-30T16:35:34.546Z,,,,1,-0.7833710010171356,0.9315588090336896,,,true,hl,4722.781000190764,response,1.2075172235545184,1.2,-1.2,-0.9116724966267612,1.2,-1.2,high,low,,ISIC_3826102.JPG,,ISIC_0024235.JPG,,26,true,0.3600000000000002,hl,keypress(j),0,false,499414,499413.80000019073,494674.32,494837.90000009537,494691.019,499257.87,1,40,36,
sequence,flow.Sequence,6_35,2023-11-30T16:35:34.547Z,,,,,,,,,,,4722.781000190764,completion,,,,,,,high,low,,,,,,,true,,,,,false,499414.10000014305,499413.80000019073,494674.32,494837.90000009537,494691.019,499257.87,1,40,,
trial,html.Screen,6_36_0,2023-11-30T16:35:39.826Z,,,,1,-1.1877026569952844,-1.1604367569896263,,,true,hh,5435.730000143056,response,1.2537466884273736,1.2,-1.2,0.9375710028613438,1.2,-1.2,high,high,,ISIC_0064589.JPG,,ISIC_0024507.JPG,,253,true,0.42000000000000026,hh,keypress(i),0,false,504693.80000019073,504693.60000014305,499241.148,499414.10000014305,499257.87,504541.137,1,40,37,
sequence,flow.Sequence,6_36,2023-11-30T16:35:39.826Z,,,,,,,,,,,5435.730000143056,completion,,,,,,,high,high,,,,,,,true,,,,,false,504693.80000019073,504693.60000014305,499241.148,499414.10000014305,499257.87,504541.137,1,40,,
trial,html.Screen,6_37_0,2023-11-30T16:35:42.674Z,,,,1,-1.272699544571422,-1.12917997553565,,,true,hh,3000.663000190747,response,1.057008495826831,1.2,-1.2,1.1278122585028287,1.2,-1.2,high,high,,ISIC_0012057.JPG,,ISIC_2819798.JPG,,26,true,0.15000000000000002,hh,keypress(i),0,false,507541.90000009537,507541.80000019073,504524.434,504693.90000009537,504541.137,507390.994,1,40,38,
sequence,flow.Sequence,6_37,2023-11-30T16:35:42.674Z,,,,,,,,,,,3000.663000190747,completion,,,,,,,high,high,,,,,,,true,,,,,false,507542,507541.80000019073,504524.434,504693.80000019073,504541.137,507390.994,1,40,,
trial,html.Screen,6_38_0,2023-11-30T16:35:44.674Z,,,,1,-1.4092385398614515,1.3046237992197836,,,true,hl,2150.7060000476777,response,1.0026266089287914,1.2,-1.2,-1.0913275913920335,1.2,-1.2,high,low,,ISIC_7254359.JPG,,ISIC_0033520.JPG,,26,true,0.3600000000000002,hl,keypress(j),0,false,509541.90000009537,509541.7000000477,507374.553,507542,507390.994,509391.086,1,40,39,
sequence,flow.Sequence,6_38,2023-11-30T16:35:44.674Z,,,,,,,,,,,2150.7060000476777,completion,,,,,,,high,low,,,,,,,true,,,,,false,509542,509541.7000000477,507374.553,507542,507390.994,509391.086,1,40,,
trial,html.Screen,6_39_0,2023-11-30T16:35:47.314Z,,,,1,-1.0022829373011404,0.8311726972863814,,,true,hl,2790.6140000476735,response,1.1181734135756094,1.2,-1.2,-0.944560381774994,1.2,-1.2,high,low,,ISIC_0033287.JPG,,ISIC_9688534.JPG,,33,true,0.42000000000000026,hl,keypress(j),0,false,512181.80000019073,512181.7000000477,509374.758,509542.10000014305,509391.086,512024.428,1,40,40,
sequence,flow.Sequence,6_39,2023-11-30T16:35:47.314Z,,,,,,,,,,,2790.6140000476735,completion,,,,,,,high,low,,,,,,,true,,,,,false,512181.90000009537,512181.7000000477,509374.758,509542.10000014305,509391.086,512024.428,1,40,,
practice_loop,flow.Loop,6,2023-11-30T16:35:47.314Z,,,,,,,,,,,226440.4320000477,completion,,,,,,,,,,,,,,,true,,,,,false,512182,512181.7000000477,285708.079,285885.40000009537,285741.268,512024.428,1,40,,
stair_instructions,html.Screen,7,2023-11-30T16:36:01.745Z,,,,,,,,,,,14587.77200004767,response,,,,,,,,,,,,,,,,,continue,click button,,,526612.9000000954,526612.2000000477,512007.876,512182,512024.428,526457.674,,,,
trial,html.Screen,8_0_0,2023-11-30T16:36:15.253Z,,,,2,0.013431314305098,-0.0140597582944232,,0.05,false,hl,13662.526000047685,response,0.8809306963311293,1.2,-1.2,-0.8614910030038974,1.2,-1.2,high,low,,ISIC_0069617.JPG,,ISIC_0013731.JPG,33,33,false,0.42000000000000026,ll,keypress(f),0,true,540120.3000001907,540120.2000000477,526441.203,526613,526457.674,539974.314,1,40,1,
sequence,flow.Sequence,8_0,2023-11-30T16:36:15.253Z,,,,,,,,,,,13662.526000047685,completion,,,,,,,high,low,,,,,,,false,,,,,true,540120.600000143,540120.2000000477,526441.203,526613,526457.674,539974.314,1,40,,
trial,html.Screen,8_1_0,2023-11-30T16:36:25.380Z,,,,2,0.000047919190197942736,0.0462652940855003,,0.05,false,hl,10273.38600004767,response,0.8809306963311293,1.2,-1.15,-0.8614910030038974,1.15,-1.15,high,low,,ISIC_0011507.JPG,,ISIC_0013731.JPG,33,28,false,0.3500000000000002,ll,keypress(f),0,true,550247.7000000477,550247.7000000477,539957.677,540120.600000143,539974.314,550090.96,1,40,2,
sequence,flow.Sequence,8_1,2023-11-30T16:36:25.380Z,,,,,,,,,,,10273.38600004767,completion,,,,,,,high,low,,,,,,,false,,,,,true,550247.9000000954,550247.7000000477,539957.677,540120.600000143,539974.314,550090.96,1,40,,
trial,html.Screen,8_2_0,2023-11-30T16:36:30.098Z,,,,2,-0.0116094682222121,0.0258434522530318,,0.05,false,hl,4874.740000047721,response,1.0706588446368888,1.2,-1.15,-0.6941525005619681,1.15,-0.8114910030038973,high,low,,ISIC_9239632.JPG,,ISIC_8855790.JPG,33,27,false,0.2300000000000001,hh,keypress(i),0,true,554965.8000001907,554965.7000000477,550074.185,550247.9000000954,550090.96,554807.621,1,40,3,
sequence,flow.Sequence,8_2,2023-11-30T16:36:30.099Z,,,,,,,,,,,4874.740000047721,completion,,,,,,,high,low,,,,,,,false,,,,,true,554965.9000000954,554965.7000000477,550074.185,550247.9000000954,550090.96,554807.621,1,40,,
trial,html.Screen,8_3_0,2023-11-30T16:36:35.106Z,,,,2,0.0245376145053177,-0.0436993426328401,,0.05,true,hl,5166.079000047641,response,0.9579209317488,1.15,-1.15,-1.0147487101263497,1.15,-0.8614910030038974,high,low,,ISIC_0056444.JPG,,ISIC_8124482.JPG,33,25,false,0.20000000000000007,hl,keypress(j),0,true,559973.8000001907,559973.7000000477,554790.997,554966,554807.621,559824.504,1,40,4,
sequence,flow.Sequence,8_3,2023-11-30T16:36:35.106Z,,,,,,,,,,,5166.079000047641,completion,,,,,,,high,low,,,,,,,false,,,,,true,559973.8000001907,559973.7000000477,554790.997,554966,554807.621,559824.504,1,40,,
trial,html.Screen,8_4_0,2023-11-30T16:36:42.082Z,,,,2,0.0409338693593207,-0.0072462710499874,,0.05,false,hh,7124.39600009541,response,1.2012395086389958,1.0999999999999999,-1.15,1.0618985767073823,1.15,-0.8614910030038974,high,high,,ISIC_3608788.JPG,,ISIC_9876004.JPG,33,30,false,0.13,ll,keypress(f),0,true,566949.100000143,566948.9000000954,559807.453,559973.9000000954,559824.504,566790.923,1,40,5,
sequence,flow.Sequence,8_4,2023-11-30T16:36:42.082Z,,,,,,,,,,,7124.39600009541,completion,,,,,,,high,high,,,,,,,false,,,,,true,566949.2000000477,566948.9000000954,559807.453,559973.9000000954,559824.504,566790.923,1,40,,
trial,html.Screen,8_5_0,2023-11-30T16:36:45.922Z,,,,2,-0.0069555338059566,0.0310100918136373,,0.05,true,hh,3998.3770001907833,response,1.0717785279820962,1.15,-1.15,1.1267239445830604,1.15,-0.8614910030038974,high,high,,ISIC_0011177.JPG,,ISIC_9948815.JPG,33,30,false,0.13,hh,keypress(i),0,true,570789.4000000954,570789.3000001907,566774.062,566949.3000001907,566790.923,570641.153,1,40,6,
sequence,flow.Sequence,8_5,2023-11-30T16:36:45.922Z,,,,,,,,,,,3998.3770001907833,completion,,,,,,,high,high,,,,,,,false,,,,,true,570789.600000143,570789.3000001907,566774.062,566949.3000001907,566790.923,570641.153,1,40,,
trial,html.Screen,8_6_0,2023-11-30T16:36:54.547Z,,,,2,-0.0324770283903853,-0.0249968632204382,,0.05,true,hh,8772.647000190686,response,1.1210325063849345,1.15,-1.15,1.1498648320956202,1.15,-0.8614910030038974,high,high,,ISIC_7266462.JPG,,ISIC_0032162.JPG,33,30,false,0.13,hh,keypress(i),0,true,579413.9000000954,579413.8000001907,570624.422,570789.7000000477,570641.153,579257.605,1,40,7,
sequence,flow.Sequence,8_6,2023-11-30T16:36:54.547Z,,,,,,,,,,,8772.647000190686,completion,,,,,,,high,high,,,,,,,false,,,,,true,579414,579413.8000001907,570624.422,570789.7000000477,570641.153,579257.605,1,40,,
trial,html.Screen,8_7_0,2023-11-30T16:37:00.786Z,,,,2,-0.0456515796420274,0.0273567130070961,,0.05,false,hh,6395.595000047702,response,1.1513656623516493,1.0882943883393403,-1.15,0.9961674882214306,1.0882943883393403,-0.8614910030038974,high,high,,ISIC_0068610.JPG,,ISIC_0624779.JPG,33,25,false,0.1,lh,keypress(e),0,true,585653.3000001907,585653.2000000477,579240.829,579414,579257.605,585507.705,1,40,8,
sequence,flow.Sequence,8_7,2023-11-30T16:37:00.786Z,,,,,,,,,,,6395.595000047702,completion,,,,,,,high,high,,,,,,,false,,,,,true,585653.4000000954,585653.2000000477,579240.829,579414,579257.605,585507.705,1,40,,
trial,html.Screen,8_8_0,2023-11-30T16:37:09.826Z,,,,2,0.0051189696037511,-0.0396625911332438,,0.05,false,lh,9186.095000190777,response,-0.9873794329144926,1.1382943883393404,-1.15,0.7991077882008257,1.0882943883393403,-0.8614910030038974,low,high,,ISIC_9742891.JPG,,ISIC_0013498.JPG,33,26,false,0.3600000000000002,hh,keypress(i),0,true,594693.9000000954,594693.8000001907,585490.757,585653.5,585507.705,594540.905,1,40,9,
sequence,flow.Sequence,8_8,2023-11-30T16:37:09.827Z,,,,,,,,,,,9186.095000190777,completion,,,,,,,low,high,,,,,,,false,,,,,true,594694,594693.8000001907,585490.757,585653.5,585507.705,594540.905,1,40,,
trial,html.Screen,8_9_0,2023-11-30T16:37:13.779Z,,,,2,-0.0363437082783146,-0.0333332186217051,,0.05,true,hh,4104.9950000953395,response,1.1603296322624046,1.1382943883393404,-1.15,0.9011336474282458,0.8476376382111281,-0.8614910030038974,high,high,,ISIC_3314555.JPG,,ISIC_0010592.JPG,33,29,false,0.1,hh,keypress(i),0,true,598645.9000000954,598645.9000000954,594524.131,594694,594540.905,598491.106,1,40,10,
sequence,flow.Sequence,8_9,2023-11-30T16:37:13.779Z,,,,,,,,,,,4104.9950000953395,completion,,,,,,,high,high,,,,,,,false,,,,,true,598646.100000143,598645.9000000954,594524.131,594694,594540.905,598491.106,1,40,,
trial,html.Screen,8_10_0,2023-11-30T16:37:21.699Z,,,,2,0.0159061451859594,0.0296598845560212,,0.05,true,ll,8074.694000190706,response,-1.2136864434652903,1.1382943883393404,-1.15,-0.83908930219658,0.8476376382111281,-0.8614910030038974,low,low,,ISIC_0072564.JPG,,ISIC_2310935.JPG,33,27,false,0.1,ll,keypress(f),0,true,606566,606565.8000001907,598474.15,598646.100000143,598491.106,606407.571,1,40,11,
sequence,flow.Sequence,8_10,2023-11-30T16:37:21.699Z,,,,,,,,,,,8074.694000190706,completion,,,,,,,low,low,,,,,,,false,,,,,true,606566,606565.8000001907,598474.15,598646.100000143,598491.106,606407.571,1,40,,
trial,html.Screen,8_11_0,2023-11-30T16:37:35.939Z,,,,2,0.0102460616775615,-0.0309670599545429,,0.05,false,hl,14398.229000190739,response,0.8860551570327019,1.1382943883393404,-1.15,-0.8067116931297591,0.8476376382111281,-0.9763878728309352,high,low,,ISIC_0072041.JPG,,ISIC_1457687.JPG,33,27,false,0.2600000000000001,lh,keypress(e),0,true,620806,620805.8000001907,606390.894,606566.100000143,606407.571,620657.696,1,40,12,
sequence,flow.Sequence,8_11,2023-11-30T16:37:35.939Z,,,,,,,,,,,14398.229000190739,completion,,,,,,,high,low,,,,,,,false,,,,,true,620806.100000143,620805.8000001907,606390.894,606566.100000143,606407.571,620657.696,1,40,,
trial,html.Screen,8_12_0,2023-11-30T16:37:41.059Z,,,,2,0.0102460616775615,-0.0309670599545429,,0.05,true,lh,5268.004000047687,response,-1.0115965332688306,1.1882943883393404,-1.15,0.8282633603842442,0.8476376382111281,-1.0263878728309352,low,high,,ISIC_0072041.JPG,,ISIC_1069587.JPG,33,26,false,0.2400000000000001,lh,keypress(e),0,true,625925.8000001907,625925.7000000477,620640.456,620806.100000143,620657.696,625774.626,1,40,13,
sequence,flow.Sequence,8_12,2023-11-30T16:37:41.059Z,,,,,,,,,,,5268.004000047687,completion,,,,,,,low,high,,,,,,,false,,,,,true,625925.9000000954,625925.7000000477,620640.456,620806.100000143,620657.696,625774.626,1,40,,
trial,html.Screen,8_13_0,2023-11-30T16:37:54.291Z,,,,2,-0.007397293189458,-0.0174716772037504,,0.05,false,ll,13383.27400009532,response,-1.0931477426281198,1.1882943883393404,-1.0999999999999999,-1.0028306951898116,0.7976376382111281,-1.0263878728309352,low,low,,ISIC_0056226.JPG,,ISIC_0026531.JPG,33,30,false,0.1,hl,keypress(j),0,true,639158,639157.9000000954,625757.651,625925.9000000954,625774.626,639007.538,1,40,14,
sequence,flow.Sequence,8_13,2023-11-30T16:37:54.291Z,,,,,,,,,,,13383.27400009532,completion,,,,,,,low,low,,,,,,,false,,,,,true,639158,639157.9000000954,625757.651,625925.9000000954,625774.626,639007.538,1,40,,
trial,html.Screen,8_14_0,2023-11-30T16:38:00.770Z,,,,2,0.0112310719058792,-0.0469047359904117,,0.05,false,ll,6630.062000143109,response,-1.2435042401134029,1.1882943883393404,-1.15,-1.0592032583207498,0.7976376382111281,-1.0263878728309352,low,low,,ISIC_0068184.JPG,,ISIC_0056119.JPG,33,29,false,0.1,hh,keypress(i),0,true,645637.7000000477,645637.600000143,638990.836,639158.2000000477,639007.538,645490.856,1,40,15,
sequence,flow.Sequence,8_14,2023-11-30T16:38:00.771Z,,,,,,,,,,,6630.062000143109,completion,,,,,,,low,low,,,,,,,false,,,,,true,645637.8000001907,645637.600000143,638990.836,639158.100000143,639007.538,645490.856,1,40,,
trial,html.Screen,8_15_0,2023-11-30T16:38:09.458Z,,,,2,0.0134764727102299,0.0033499036460912,,0.05,false,hl,8834.744000143022,response,0.8809306963311293,1.1882943883393404,-1.15,-0.8614910030038974,0.7976376382111281,-1.0763878728309353,high,low,,ISIC_0009998.JPG,,ISIC_0013731.JPG,33,25,false,0.31000000000000016,ll,keypress(f),0,true,654325.8000001907,654325.600000143,645474.248,645637.9000000954,645490.856,654174.168,1,40,16,
sequence,flow.Sequence,8_15,2023-11-30T16:38:09.459Z,,,,,,,,,,,8834.744000143022,completion,,,,,,,high,low,,,,,,,false,,,,,true,654325.8000001907,654325.600000143,645474.248,645637.9000000954,645490.856,654174.168,1,40,,
trial,html.Screen,8_16_0,2023-11-30T16:38:16.387Z,,,,2,-0.0456515796420274,0.0273567130070961,,0.05,false,hl,7079.532000047737,response,1.2331439637486756,1.1882943883393404,-1.15,-0.9691143900156988,0.7976376382111281,-1.0763878728309353,high,low,,ISIC_0068610.JPG,,ISIC_7877488.JPG,33,25,false,0.31000000000000016,lh,keypress(e),0,true,661253.8000001907,661253.7000000477,654157.342,654325.9000000954,654174.168,661107.539,1,40,17,
sequence,flow.Sequence,8_16,2023-11-30T16:38:16.387Z,,,,,,,,,,,7079.532000047737,completion,,,,,,,high,low,,,,,,,false,,,,,true,661253.9000000954,661253.7000000477,654157.342,654325.8000001907,654174.168,661107.539,1,40,,
trial,html.Screen,8_17_0,2023-11-30T16:38:26.355Z,,,,2,-0.0085520978188085,0.0464691161264081,,0.05,false,ll,10114.061000143061,response,-1.242586748440878,1.1882943883393404,-1.15,-1.1207933200172129,0.7976376382111281,-1.1263878728309353,low,low,,ISIC_0758797.JPG,,ISIC_0013073.JPG,33,29,false,0.1,hh,keypress(i),0,true,671221.7000000477,671221.600000143,661091.086,661253.9000000954,661107.539,671074.097,1,40,18,
sequence,flow.Sequence,8_17,2023-11-30T16:38:26.355Z,,,,,,,,,,,10114.061000143061,completion,,,,,,,low,low,,,,,,,false,,,,,true,671221.8000001907,671221.600000143,661091.086,661253.9000000954,661107.539,671074.097,1,40,,
trial,html.Screen,8_18_0,2023-11-30T16:38:29.267Z,,,,2,0.0112310719058792,-0.0469047359904117,,0.05,true,lh,3059.5030001431005,response,-1.2429840165564423,1.1882943883393404,-1.15,0.7308963943423881,0.7976376382111281,-1.1763878728309354,low,high,,ISIC_0068184.JPG,,ISIC_1264576.JPG,33,26,false,0.22000000000000008,lh,keypress(e),0,true,674133.7000000477,674133.600000143,671057.592,671221.9000000954,671074.097,673974.154,1,40,19,
sequence,flow.Sequence,8_18,2023-11-30T16:38:29.267Z,,,,,,,,,,,3059.5030001431005,completion,,,,,,,low,high,,,,,,,false,,,,,true,674133.8000001907,674133.600000143,671057.592,671221.9000000954,671074.097,673974.154,1,40,,
trial,html.Screen,8_19_0,2023-11-30T16:38:36.690Z,,,,2,-0.039728379742806,0.0228701131373768,,0.05,false,lh,7583.246000095387,response,-1.0122398223568725,1.1882943883393404,-1.15,0.7505228537454216,0.7976376382111281,-1.1763878728309354,low,high,,ISIC_0054073.JPG,,ISIC_0033802.JPG,33,26,false,0.22000000000000008,ll,keypress(f),0,true,681557.5,681557.4000000954,673957.517,674133.9000000954,673974.154,681407.573,1,40,20,
sequence,flow.Sequence,8_19,2023-11-30T16:38:36.690Z,,,,,,,,,,,7583.246000095387,completion,,,,,,,low,high,,,,,,,false,,,,,true,681557.600000143,681557.4000000954,673957.517,674133.9000000954,673974.154,681407.573,1,40,,
trial,html.Screen,8_20_0,2023-11-30T16:38:39.491Z,,,,2,-0.0324770283903853,-0.0249968632204382,,0.05,false,hh,2950.0270001430763,response,1.1011373150916248,1.1882943883393404,-1.0999999999999999,0.7816231038128233,0.8476376382111281,-1.1763878728309354,high,high,,ISIC_7266462.JPG,,ISIC_8477065.JPG,33,28,false,0.1,ll,keypress(f),0,true,684357.7000000477,684357.600000143,681390.727,681557.600000143,681407.573,684207.577,1,40,21,
sequence,flow.Sequence,8_20,2023-11-30T16:38:39.491Z,,,,,,,,,,,2950.0270001430763,completion,,,,,,,high,high,,,,,,,false,,,,,true,684357.8000001907,684357.600000143,681390.727,681557.600000143,681407.573,684207.577,1,40,,
trial,html.Screen,8_21_0,2023-11-30T16:38:42.866Z,,,,2,-0.0456515796420274,0.0273567130070961,,0.05,false,lh,3525.9229999999516,response,-1.0164576835546473,1.1882943883393404,-1.0999999999999999,0.8120626538423016,0.8976376382111282,-1.1763878728309354,low,high,,ISIC_0068610.JPG,,ISIC_6002694.JPG,33,25,false,0.2600000000000001,ll,keypress(f),0,true,687733.600000143,687733.5,684190.878,684357.9000000954,684207.577,687574.12,1,40,22,
sequence,flow.Sequence,8_21,2023-11-30T16:38:42.867Z,,,,,,,,,,,3525.9229999999516,completion,,,,,,,low,high,,,,,,,false,,,,,true,687733.7000000477,687733.5,684190.878,684357.9000000954,684207.577,687574.12,1,40,,
trial,html.Screen,8_22_0,2023-11-30T16:38:48.594Z,,,,2,-0.0324770283903853,-0.0249968632204382,,0.05,false,lh,5887.480000143056,response,-1.2429840165564423,1.1882943883393404,-1.0999999999999999,0.7308963943423881,0.9476376382111282,-1.1763878728309354,low,high,,ISIC_7266462.JPG,,ISIC_1264576.JPG,33,25,false,0.27000000000000013,ll,keypress(f),0,true,693461.7000000477,693461.600000143,687557.563,687733.8000001907,687574.12,693307.451,1,40,23,
sequence,flow.Sequence,8_22,2023-11-30T16:38:48.595Z,,,,,,,,,,,5887.480000143056,completion,,,,,,,low,high,,,,,,,false,,,,,true,693461.8000001907,693461.600000143,687557.563,687733.8000001907,687574.12,693307.451,1,40,,
trial,html.Screen,8_23_0,2023-11-30T16:39:04.562Z,,,,2,-0.0057914759495055,-0.0074667911845194,,0.05,false,hl,16122.14900014305,response,0.8809306963311293,1.1882943883393404,-1.0797208500555449,-0.8614910030038974,0.9976376382111283,-1.1763878728309354,high,low,,ISIC_0058723.JPG,,ISIC_0013731.JPG,33,26,false,0.3400000000000002,lh,keypress(e),0,true,709429.600000143,709429.600000143,693290.621,693461.8000001907,693307.451,709290.817,1,40,24,
sequence,flow.Sequence,8_23,2023-11-30T16:39:04.563Z,,,,,,,,,,,16122.14900014305,completion,,,,,,,high,low,,,,,,,false,,,,,true,709429.7000000477,709429.600000143,693290.621,693461.8000001907,693307.451,709290.817,1,40,,
trial,html.Screen,8_24_0,2023-11-30T16:39:17.506Z,,,,2,-0.0027483411352856,-0.0100996915276271,,0.05,false,ll,13082.283000143012,response,-1.156827121261563,1.1882943883393404,-1.0797208500555449,-1.2544342720917778,0.9976376382111283,-1.1763878728309354,low,low,,ISIC_7364041.JPG,,ISIC_0060397.JPG,33,33,false,0.11,hl,keypress(j),0,true,722373.2000000477,722373.100000143,709274.137,709429.8000001907,709290.817,722224.102,1,40,25,
sequence,flow.Sequence,8_24,2023-11-30T16:39:17.506Z,,,,,,,,,,,13082.283000143012,completion,,,,,,,low,low,,,,,,,false,,,,,true,722373.3000001907,722373.100000143,709274.137,709429.8000001907,709290.817,722224.102,1,40,,
trial,html.Screen,8_25_0,2023-11-30T16:39:22.707Z,,,,2,0.0348234368746005,-0.0236866303880924,,0.05,false,lh,5349.298000095412,response,-1.2429840165564423,1.1882943883393404,-1.129720850055545,0.7308963943423881,0.9976376382111283,-1.1763878728309354,low,high,,ISIC_0011099.JPG,,ISIC_1264576.JPG,33,27,false,0.31000000000000016,ll,keypress(f),0,true,727573.5,727573.4000000954,722207.429,722373.4000000954,722224.102,727424.25,1,40,26,
sequence,flow.Sequence,8_25,2023-11-30T16:39:22.707Z,,,,,,,,,,,5349.298000095412,completion,,,,,,,low,high,,,,,,,false,,,,,true,727573.7000000477,727573.4000000954,722207.429,722373.4000000954,722224.102,727424.25,1,40,,
trial,html.Screen,8_26_0,2023-11-30T16:39:27.923Z,,,,2,-0.0456515796420274,0.0273567130070961,,0.05,false,hh,5365.25,response,1.131522954199764,1.1882943883393404,-1.129720850055545,1.1047184491749509,1.0476376382111283,-1.1763878728309354,high,high,,ISIC_0068610.JPG,,ISIC_1868816.JPG,33,31,false,0.12,ll,keypress(f),0,true,732789.600000143,732789.5,727407.442,727573.7000000477,727424.25,732640.776,1,40,27,
sequence,flow.Sequence,8_26,2023-11-30T16:39:27.923Z,,,,,,,,,,,5365.25,completion,,,,,,,high,high,,,,,,,false,,,,,true,732789.7000000477,732789.5,727407.442,727573.7000000477,727424.25,732640.776,1,40,,
trial,html.Screen,8_27_0,2023-11-30T16:39:31.330Z,,,,2,-0.0107854985447517,-0.0478010417136109,,0.05,false,lh,3555.5240001907805,response,-0.8200962008791046,1.1882943883393404,-1.129720850055545,0.7936051642828523,1.0976376382111284,-1.1763878728309354,low,high,,ISIC_0010500.JPG,,ISIC_0027031.JPG,33,29,false,0.3500000000000002,hh,keypress(i),0,true,736196.5,736196.3000001907,732623.938,732789.8000001907,732640.776,736040.946,1,40,28,
sequence,flow.Sequence,8_27,2023-11-30T16:39:31.330Z,,,,,,,,,,,3555.5240001907805,completion,,,,,,,low,high,,,,,,,false,,,,,true,736196.600000143,736196.3000001907,732623.938,732789.8000001907,732640.776,736040.946,1,40,,
trial,html.Screen,8_28_0,2023-11-30T16:39:36.611Z,,,,2,0.000047919190197942736,0.0462652940855003,,0.05,true,hh,5436.554000000004,response,1.1137763092539212,1.1882943883393404,-1.179720850055545,1.1599906701455132,1.0976376382111284,-1.1763878728309354,high,high,,ISIC_0011507.JPG,,ISIC_5413788.JPG,33,27,false,0.11,hh,keypress(i),0,true,741477.7000000477,741477.5,736024.244,736196.600000143,736040.946,741324.112,1,40,29,
sequence,flow.Sequence,8_28,2023-11-30T16:39:36.611Z,,,,,,,,,,,5436.554000000004,completion,,,,,,,high,high,,,,,,,false,,,,,true,741477.7000000477,741477.5,736024.244,736196.600000143,736040.946,741324.112,1,40,,
trial,html.Screen,8_29_0,2023-11-30T16:39:42.978Z,,,,2,0.000047919190197942736,0.0462652940855003,,0.05,false,hl,6520.9880001430865,response,1.2364994561934892,1.1882943883393404,-1.179720850055545,-0.9174173651516624,1.0868834896997173,-1.1763878728309354,high,low,,ISIC_0011507.JPG,,ISIC_3481133.JPG,33,26,false,0.3400000000000002,lh,keypress(e),0,true,747845.3000001907,747845.100000143,741307.234,741477.8000001907,741324.112,747690.757,1,40,30,
sequence,flow.Sequence,8_29,2023-11-30T16:39:42.978Z,,,,,,,,,,,6520.9880001430865,completion,,,,,,,high,low,,,,,,,false,,,,,true,747845.3000001907,747845.100000143,741307.234,741477.8000001907,741324.112,747690.757,1,40,,
trial,html.Screen,8_30_0,2023-11-30T16:39:47.539Z,,,,2,0,0.0264544974620926,,0.05,false,lh,4714.743000000017,response,-0.8816288864119318,1.1882943883393404,-1.179720850055545,0.801867301188093,1.0868834896997173,-1.1763878728309354,low,high,,ISIC_0056991.JPG,,ISIC_9196783.JPG,33,25,false,0.3800000000000002,ll,keypress(f),0,true,752405.600000143,752405.5,747674.123,747845.4000000954,747690.757,752257.437,1,40,31,
sequence,flow.Sequence,8_30,2023-11-30T16:39:47.539Z,,,,,,,,,,,4714.743000000017,completion,,,,,,,low,high,,,,,,,false,,,,,true,752405.7000000477,752405.5,747674.123,747845.4000000954,747690.757,752257.437,1,40,,
trial,html.Screen,8_31_0,2023-11-30T16:39:57.715Z,,,,2,-0.0116094682222121,0.0258434522530318,,0.05,false,ll,10324.062999999966,response,-1.1253220985777015,1.1882943883393404,-1.179720850055545,-1.108725659461368,1.1368834896997173,-1.1763878728309354,low,low,,ISIC_9239632.JPG,,ISIC_0054954.JPG,33,33,false,0.1,hh,keypress(i),0,true,762581.5,762581.5,752240.633,752405.7000000477,752257.437,762424.07,1,40,32,
sequence,flow.Sequence,8_31,2023-11-30T16:39:57.715Z,,,,,,,,,,,10324.062999999966,completion,,,,,,,low,low,,,,,,,false,,,,,true,762581.600000143,762581.5,752240.633,752405.7000000477,752257.437,762424.07,1,40,,
trial,html.Screen,8_32_0,2023-11-30T16:40:00.466Z,,,,2,-0.0363437082783146,-0.0333332186217051,,0.05,true,ll,2909.230000190786,response,-1.135372722680314,1.1882943883393404,-1.179720850055545,-1.0926414044454305,1.1368834896997173,-1.1763878728309354,low,low,,ISIC_3314555.JPG,,ISIC_2355513.JPG,33,33,false,0.1,ll,keypress(f),0,true,765333.4000000954,765333.3000001907,762407.298,762581.600000143,762424.07,765174.05,1,40,33,
sequence,flow.Sequence,8_32,2023-11-30T16:40:00.467Z,,,,,,,,,,,2909.230000190786,completion,,,,,,,low,low,,,,,,,false,,,,,true,765333.5,765333.3000001907,762407.298,762581.600000143,762424.07,765174.05,1,40,,
trial,html.Screen,8_33_0,2023-11-30T16:40:06.579Z,,,,2,-0.0027483411352856,-0.0100996915276271,,0.05,false,hl,6271.350000095321,response,0.9433720631499012,1.1882943883393404,-1.179720850055545,-1.0582071940347648,1.1368834896997173,-1.1763878728309354,high,low,,ISIC_7364041.JPG,,ISIC_4890201.JPG,33,26,false,0.3400000000000002,hh,keypress(i),0,true,771445.600000143,771445.4000000954,765157.449,765333.600000143,765174.05,771290.852,1,40,34,
sequence,flow.Sequence,8_33,2023-11-30T16:40:06.579Z,,,,,,,,,,,6271.350000095321,completion,,,,,,,high,low,,,,,,,false,,,,,true,771445.7000000477,771445.4000000954,765157.449,765333.5,765174.05,771290.852,1,40,,
trial,html.Screen,8_34_0,2023-11-30T16:40:11.539Z,,,,2,0,0.0264544974620926,,0.05,false,ll,5114.548000095412,response,-1.2071341803968807,1.1882943883393404,-1.179720850055545,-1.235960269089932,1.1368834896997173,-1.1763878728309354,low,low,,ISIC_0056991.JPG,,ISIC_0058174.JPG,33,33,false,0.1,hl,keypress(j),0,true,776405.600000143,776405.4000000954,771273.978,771445.8000001907,771290.852,776257.796,1,40,35,
sequence,flow.Sequence,8_34,2023-11-30T16:40:11.539Z,,,,,,,,,,,5114.548000095412,completion,,,,,,,low,low,,,,,,,false,,,,,true,776405.7000000477,776405.4000000954,771273.978,771445.7000000477,771290.852,776257.796,1,40,,
trial,html.Screen,8_35_0,2023-11-30T16:40:21.123Z,,,,2,0.0188047466661863,-0.0288346930436979,,0.05,false,ll,9731.604000095394,response,-1.2631894117279046,1.1882943883393404,-1.179720850055545,-1.0916958871221865,1.1368834896997173,-1.1763878728309354,low,low,,ISIC_0014157.JPG,,ISIC_0065748.JPG,33,33,false,0.1,hl,keypress(j),0,true,785989.5,785989.4000000954,776240.535,776405.8000001907,776257.796,785840.944,1,40,36,
sequence,flow.Sequence,8_35,2023-11-30T16:40:21.123Z,,,,,,,,,,,9731.604000095394,completion,,,,,,,low,low,,,,,,,false,,,,,true,785989.600000143,785989.4000000954,776240.535,776405.8000001907,776257.796,785840.944,1,40,,
trial,html.Screen,8_36_0,2023-11-30T16:40:26.019Z,,,,2,0.0113873532168551,0.0054999201556291,,0.05,false,ll,5044.45600009535,response,-1.101346104814838,1.1882943883393404,-1.179720850055545,-1.1225813067473052,1.1368834896997173,-1.1138280781060592,low,low,,ISIC_8812621.JPG,,ISIC_8175453.JPG,33,31,false,0.1,hh,keypress(i),0,true,790885.600000143,790885.4000000954,785823.735,785989.7000000477,785840.944,790741.204,1,40,37,
sequence,flow.Sequence,8_36,2023-11-30T16:40:26.019Z,,,,,,,,,,,5044.45600009535,completion,,,,,,,low,low,,,,,,,false,,,,,true,790885.7000000477,790885.4000000954,785823.735,785989.7000000477,785840.944,790741.204,1,40,,
trial,html.Screen,8_37_0,2023-11-30T16:40:27.426Z,,,,2,-0.0050679133050021,0.0009714874637896,,0.05,false,lh,1552.0960001907079,response,-0.8035152873995188,1.1882943883393404,-1.179720850055545,0.82868450251632,1.1368834896997173,-1.1638280781060593,low,high,,ISIC_9848743.JPG,,ISIC_0010671.JPG,33,25,false,0.39000000000000024,hh,keypress(i),0,true,792293.4000000954,792293.3000001907,790707.315,790885.7000000477,790741.204,792140.943,1,40,38,
sequence,flow.Sequence,8_37,2023-11-30T16:40:27.427Z,,,,,,,,,,,1552.0960001907079,completion,,,,,,,low,high,,,,,,,false,,,,,true,792293.5,792293.3000001907,790707.315,790885.7000000477,790741.204,792140.943,1,40,,
trial,html.Screen,8_38_0,2023-11-30T16:40:30.978Z,,,,2,-0.0324770283903853,-0.0249968632204382,,0.05,true,hh,3703.9570000953972,response,1.1210325063849345,1.1882943883393404,-1.179720850055545,1.1498648320956202,1.1368834896997173,-1.1638280781060593,high,high,,ISIC_7266462.JPG,,ISIC_0032162.JPG,33,26,false,0.12,hh,keypress(i),0,true,795845,795844.9000000954,792124.283,792293.5,792140.943,795690.644,1,40,39,
sequence,flow.Sequence,8_38,2023-11-30T16:40:30.978Z,,,,,,,,,,,3703.9570000953972,completion,,,,,,,high,high,,,,,,,false,,,,,true,795845.100000143,795844.9000000954,792124.283,792293.5,792140.943,795690.644,1,40,,
trial,html.Screen,8_39_0,2023-11-30T16:40:36.323Z,,,,2,0.000047919190197942736,0.0462652940855003,,0.05,false,hh,5498.856000000029,response,0.9449111496440944,0.93927466730597,-1.179720850055545,1.0105459531634893,0.93927466730597,-1.1638280781060593,high,high,,ISIC_0011507.JPG,,ISIC_0679494.JPG,33,43,false,0.1,lh,keypress(e),0,true,801189.5,801189.5,795674.332,795845.100000143,795690.644,801040.882,1,40,40,
sequence,flow.Sequence,8_39,2023-11-30T16:40:36.323Z,,,,,,,,,,,5498.856000000029,completion,,,,,,,high,high,,,,,,,false,,,,,true,801189.8000001907,801189.5,795674.332,795845.100000143,795690.644,801040.882,1,40,,
stair_loop,flow.Loop,8,2023-11-30T16:40:36.323Z,,,,,,,,,,,274731.826,completion,,,,,,,,,,,,,,,false,,,,,true,801189.8000001907,801189.5,526441.203,526612.9000000954,526457.674,801040.882,1,40,,
exp_instructions,html.Screen,9,2023-11-30T16:40:56.579Z,,,,,,,,,,,20404.118000000017,response,,,,,,,,,,,,,,,,,continue,keypress(Space),,,821445.4000000954,821445,801024.145,801189.8000001907,801040.882,821290.667,,,,
trial,html.Screen,10_0_0,2023-11-30T16:41:01.717Z,,,,1,0.0277178575053843,-0.0395587463147856,,0.05,false,ll,5292.733000095352,response,-1.247270138097585,1.1758434022876718,-1.1502627225472135,-1.1704704713504994,1.0568424154101645,-1.1713759138859605,low,low,,ISIC_0010807.JPG,9,ISIC_0065774.JPG,33,31,false,0.1,hl,keypress(j),0,false,826583.5,826583.4000000954,821273.552,821445.600000143,821290.667,826423.962,5,600,1,
break,html.Screen,10_0_1,2023-11-30T16:41:01.717Z,,,,,,,,,,,NaN,,,,,,,,low,low,,,,,,,false,,,,,false,826584,826583.8000001907,,826583.600000143,,826423.962,5,600,,
break_continue,html.Screen,10_0_2,2023-11-30T16:41:01.717Z,,,,,,,,,,,NaN,,,,,,,,low,low,,,,,,,false,,,,,false,826584.2000000477,826584.100000143,,826584,,826423.962,5,600,,
sequence,flow.Sequence,10_0,2023-11-30T16:41:01.717Z,,,,,,,,,,,5293.433000143035,completion,,,,,,,low,low,,,,,,,false,,,,,false,826584.2000000477,826584.100000143,821273.552,821445.600000143,821290.667,826423.962,5,600,,
trial,html.Screen,10_1_0,2023-11-30T16:41:06.163Z,,,,1,-0.0456515796420274,0.0273567130070961,,0.05,false,hh,4605.43800009531,response,1.2024083555600384,1.1758434022876718,-1.1502627225472135,1.149077673153018,1.0568424154101645,-1.1713759138859605,high,high,,ISIC_0068610.JPG,8,ISIC_3566243.JPG,33,28,false,0.11,ll,keypress(f),0,false,831029.600000143,831029.4000000954,826407.35,826584.3000001907,826423.962,830873.954,5,600,2,
break,html.Screen,10_1_1,2023-11-30T16:41:06.163Z,,,,,,,,,,,NaN,,,,,,,,high,high,,,,,,,false,,,,,false,831029.9000000954,831029.8000001907,,831029.600000143,,830873.954,5,600,,
break_continue,html.Screen,10_1_2,2023-11-30T16:41:06.163Z,,,,,,,,,,,NaN,,,,,,,,high,high,,,,,,,false,,,,,false,831030.100000143,831030,,831029.9000000954,,830873.954,5,600,,
sequence,flow.Sequence,10_1,2023-11-30T16:41:06.163Z,,,,,,,,,,,4606.037999999942,completion,,,,,,,high,high,,,,,,,false,,,,,false,831030.100000143,831030,826407.35,826584.2000000477,826423.962,830873.954,5,600,,
trial,html.Screen,10_2_0,2023-11-30T16:41:13.763Z,,,,1,-0.0057914759495055,-0.0074667911845194,,0.05,true,hl,7755.545999999973,response,0.9579209317488,1.1758434022876718,-1.1502627225472135,-1.0147487101263497,1.0568424154101645,-1.1713759138859605,high,low,,ISIC_0058723.JPG,9,ISIC_8124482.JPG,33,26,false,0.3300000000000002,hl,keypress(j),0,false,838629.7000000477,838629.5,830857.184,831030.2000000477,830873.954,838473.949,5,600,3,
break,html.Screen,10_2_1,2023-11-30T16:41:13.763Z,,,,,,,,,,,NaN,,,,,,,,high,low,,,,,,,false,,,,,false,838630,838629.9000000954,,838629.8000001907,,838473.949,5,600,,
break_continue,html.Screen,10_2_2,2023-11-30T16:41:13.763Z,,,,,,,,,,,NaN,,,,,,,,high,low,,,,,,,false,,,,,false,838630.100000143,838630.100000143,,838630,,838473.949,5,600,,
sequence,flow.Sequence,10_2,2023-11-30T16:41:13.763Z,,,,,,,,,,,7756.146000143024,completion,,,,,,,high,low,,,,,,,false,,,,,false,838630.2000000477,838630.100000143,830857.184,831030.100000143,830873.954,838473.949,5,600,,
trial,html.Screen,10_3_0,2023-11-30T16:41:19.427Z,,,,1,-0.0069555338059566,0.0310100918136373,,0.05,false,hl,5819.3510001907125,response,0.9579209317488,1.1758434022876718,-1.1502627225472135,-1.0147487101263497,1.0568424154101645,-1.1713759138859605,high,low,,ISIC_0011177.JPG,8,ISIC_8124482.JPG,33,26,false,0.3300000000000002,hh,keypress(i),0,false,844293.3000001907,844293.3000001907,838457.276,838630.3000001907,838473.949,844140.628,5,600,4,
break,html.Screen,10_3_1,2023-11-30T16:41:19.427Z,,,,,,,,,,,NaN,,,,,,,,high,low,,,,,,,false,,,,,false,844293.7000000477,844293.600000143,,844293.4000000954,,844140.628,5,600,,
break_continue,html.Screen,10_3_2,2023-11-30T16:41:19.427Z,,,,,,,,,,,NaN,,,,,,,,high,low,,,,,,,false,,,,,false,844293.9000000954,844293.8000001907,,844293.7000000477,,844140.628,5,600,,
sequence,flow.Sequence,10_3,2023-11-30T16:41:19.427Z,,,,,,,,,,,5819.8510001907125,completion,,,,,,,high,low,,,,,,,false,,,,,false,844293.9000000954,844293.8000001907,838457.276,838630.3000001907,838473.949,844140.628,5,600,,
trial,html.Screen,10_4_0,2023-11-30T16:41:23.603Z,,,,1,0.0113873532168551,0.0054999201556291,,0.05,false,hl,4328.772000095341,response,1.2075172235545184,1.1758434022876718,-1.1502627225472135,-0.9116724966267612,1.0568424154101645,-1.1713759138859605,high,low,,ISIC_8812621.JPG,9,ISIC_0024235.JPG,33,26,false,0.3300000000000002,hh,keypress(i),0,false,848469.4000000954,848469.4000000954,844124.082,844293.9000000954,844140.628,848324.165,5,600,5,
break,html.Screen,10_4_1,2023-11-30T16:41:23.603Z,,,,,,,,,,,NaN,,,,,,,,high,low,,,,,,,false,,,,,false,848469.7000000477,848469.7000000477,,848469.5,,848324.165,5,600,,
break_continue,html.Screen,10_4_2,2023-11-30T16:41:23.603Z,,,,,,,,,,,NaN,,,,,,,,high,low,,,,,,,false,,,,,false,848469.8000001907,848469.8000001907,,848469.7000000477,,848324.165,5,600,,
sequence,flow.Sequence,10_4,2023-11-30T16:41:23.603Z,,,,,,,,,,,4329.172000190709,completion,,,,,,,high,low,,,,,,,false,,,,,false,848469.9000000954,848469.8000001907,844124.082,844293.9000000954,844140.628,848324.165,5,600,,
trial,html.Screen,10_5_0,2023-11-30T16:41:24.674Z,,,,1,-0.0324770283903853,-0.0249968632204382,,0.05,false,hl,1216.5350000476465,response,0.9433720631499012,1.1758434022876718,-1.1502627225472135,-1.0582071940347648,1.0568424154101645,-1.1713759138859605,high,low,,ISIC_7266462.JPG,9,ISIC_4890201.JPG,33,26,false,0.3300000000000002,hh,keypress(i),0,false,849540.8000001907,849540.7000000477,848307.289,848469.9000000954,848324.165,849390.711,5,600,6,
break,html.Screen,10_5_1,2023-11-30T16:41:24.674Z,,,,,,,,,,,NaN,,,,,,,,high,low,,,,,,,false,,,,,false,849541.100000143,849541,,849540.9000000954,,849390.711,5,600,,
break_continue,html.Screen,10_5_2,2023-11-30T16:41:24.675Z,,,,,,,,,,,NaN,,,,,,,,high,low,,,,,,,false,,,,,false,849541.3000001907,849541.3000001907,,849541.100000143,,849390.711,5,600,,
sequence,flow.Sequence,10_5,2023-11-30T16:41:24.675Z,,,,,,,,,,,1217.1350001906976,completion,,,,,,,high,low,,,,,,,false,,,,,false,849541.4000000954,849541.3000001907,848307.289,848469.9000000954,848324.165,849390.711,5,600,,
trial,html.Screen,10_6_0,2023-11-30T16:41:32.723Z,,,,1,0.0245376145053177,-0.0436993426328401,,0.05,false,hl,8198.689000095357,response,1.0751036484083878,1.1758434022876718,-1.1502627225472135,-1.143906455483852,1.0568424154101645,-1.1713759138859605,high,low,,ISIC_0056444.JPG,8,ISIC_0064406.JPG,33,26,false,0.3300000000000002,ll,keypress(f),0,false,857589.5,857589.4000000954,849373.965,849541.4000000954,849390.711,857440.782,5,600,7,
break,html.Screen,10_6_1,2023-11-30T16:41:32.723Z,,,,,,,,,,,NaN,,,,,,,,high,low,,,,,,,false,,,,,false,857589.8000001907,857589.7000000477,,857589.600000143,,857440.782,5,600,,
break_continue,html.Screen,10_6_2,2023-11-30T16:41:32.723Z,,,,,,,,,,,NaN,,,,,,,,high,low,,,,,,,false,,,,,false,857590,857589.9000000954,,857589.8000001907,,857440.782,5,600,,
sequence,flow.Sequence,10_6,2023-11-30T16:41:32.723Z,,,,,,,,,,,8199.189000095357,completion,,,,,,,high,low,,,,,,,false,,,,,false,857590.100000143,857589.9000000954,849373.965,849541.4000000954,849390.711,857440.782,5,600,,
trial,html.Screen,10_7_0,2023-11-30T16:41:41.667Z,,,,1,-0.0324770283903853,-0.0249968632204382,,0.05,false,hh,9092.518000190728,response,1.0717785279820962,1.1758434022876718,-1.1502627225472135,1.1267239445830604,1.0568424154101645,-1.1713759138859605,high,high,,ISIC_7266462.JPG,8,ISIC_9948815.JPG,33,28,false,0.11,lh,keypress(e),0,false,866533.4000000954,866533.3000001907,857423.84,857590.100000143,857440.782,866373.912,5,600,8,
break,html.Screen,10_7_1,2023-11-30T16:41:41.667Z,,,,,,,,,,,NaN,,,,,,,,high,high,,,,,,,false,,,,,false,866533.7000000477,866533.600000143,,866533.5,,866373.912,5,600,,
break_continue,html.Screen,10_7_2,2023-11-30T16:41:41.667Z,,,,,,,,,,,NaN,,,,,,,,high,high,,,,,,,false,,,,,false,866533.9000000954,866533.8000001907,,866533.7000000477,,866373.912,5,600,,
sequence,flow.Sequence,10_7,2023-11-30T16:41:41.667Z,,,,,,,,,,,9093.018000190728,completion,,,,,,,high,high,,,,,,,false,,,,,false,866533.9000000954,866533.8000001907,857423.84,857590.100000143,857440.782,866373.912,5,600,,
trial,html.Screen,10_8_0,2023-11-30T16:41:44.579Z,,,,1,0.0097091270150747,-0.0417921315885292,,0.05,false,hl,3071.3880001907237,response,1.4747161152848791,1.1758434022876718,-1.1502627225472135,-0.847048591307387,1.0568424154101645,-1.1713759138859605,high,low,,ISIC_3967213.JPG,9,ISIC_0016092.JPG,33,26,false,0.3300000000000002,hh,keypress(i),0,false,869445.3000001907,869445.3000001907,866357.156,866534,866373.912,869290.678,5,600,9,
break,html.Screen,10_8_1,2023-11-30T16:41:44.579Z,,,,,,,,,,,NaN,,,,,,,,high,low,,,,,,,false,,,,,false,869445.7000000477,869445.600000143,,869445.4000000954,,869290.678,5,600,,
break_continue,html.Screen,10_8_2,2023-11-30T16:41:44.579Z,,,,,,,,,,,NaN,,,,,,,,high,low,,,,,,,false,,,,,false,869445.9000000954,869445.8000001907,,869445.7000000477,,869290.678,5,600,,
sequence,flow.Sequence,10_8,2023-11-30T16:41:44.579Z,,,,,,,,,,,3071.8880001907237,completion,,,,,,,high,low,,,,,,,false,,,,,false,869445.9000000954,869445.8000001907,866357.156,866534,866373.912,869290.678,5,600,,
trial,html.Screen,10_9_0,2023-11-30T16:41:49.667Z,,,,1,-0.0363437082783146,-0.0333332186217051,,0.05,false,hh,5242.5220000477275,response,1.131522954199764,1.1758434022876718,-1.1502627225472135,1.1047184491749509,1.0568424154101645,-1.1713759138859605,high,high,,ISIC_3314555.JPG,9,ISIC_1868816.JPG,33,28,false,0.11,lh,keypress(e),0,false,874533.3000001907,874533.2000000477,869273.884,869445.9000000954,869290.678,874373.903,5,600,10,
break,html.Screen,10_9_1,2023-11-30T16:41:49.667Z,,,,,,,,,,,NaN,,,,,,,,high,high,,,,,,,false,,,,,false,874533.600000143,874533.600000143,,874533.4000000954,,874373.903,5,600,,
break_continue,html.Screen,10_9_2,2023-11-30T16:41:49.667Z,,,,,,,,,,,NaN,,,,,,,,high,high,,,,,,,false,,,,,false,874533.8000001907,874533.8000001907,,874533.600000143,,874373.903,5,600,,
sequence,flow.Sequence,10_9,2023-11-30T16:41:49.667Z,,,,,,,,,,,5243.122000190779,completion,,,,,,,high,high,,,,,,,false,,,,,false,874533.8000001907,874533.8000001907,869273.884,869445.9000000954,869290.678,874373.903,5,600,,
trial,html.Screen,10_10_0,2023-11-30T16:41:52.995Z,,,,1,0.0102460616775615,-0.0309670599545429,,0.05,true,hh,3487.3970001906855,response,1.1920465299859582,1.1758434022876718,-1.1502627225472135,0.9548921292696696,1.0568424154101645,-1.1713759138859605,high,high,,ISIC_0072041.JPG,9,ISIC_5566396.JPG,33,28,false,0.11,hh,keypress(i),0,false,877861.4000000954,877861.3000001907,874357.143,874533.9000000954,874373.903,877707.23,5,600,11,
break,html.Screen,10_10_1,2023-11-30T16:41:52.995Z,,,,,,,,,,,NaN,,,,,,,,high,high,,,,,,,false,,,,,false,877861.7000000477,877861.7000000477,,877861.5,,877707.23,5,600,,
break_continue,html.Screen,10_10_2,2023-11-30T16:41:52.995Z,,,,,,,,,,,NaN,,,,,,,,high,high,,,,,,,false,,,,,false,877862,877861.8000001907,,877861.8000001907,,877707.23,5,600,,
sequence,flow.Sequence,10_10,2023-11-30T16:41:52.995Z,,,,,,,,,,,3487.8970001906855,completion,,,,,,,high,high,,,,,,,false,,,,,false,877862,877861.8000001907,874357.143,874533.9000000954,874373.903,877707.23,5,600,,
trial,html.Screen,10_11_0,2023-11-30T16:41:59.235Z,,,,1,-0.0324770283903853,-0.0249968632204382,,0.05,false,lh,6394.170000095386,response,-0.948927472020595,1.1758434022876718,-1.1502627225472135,1.0660437155921598,1.0568424154101645,-1.1713759138859605,low,high,,ISIC_7266462.JPG,9,ISIC_5808758.JPG,33,31,false,0.3600000000000002,ll,keypress(f),0,false,884101.5,884101.4000000954,877690.699,877862.100000143,877707.23,883940.555,5,600,12,
break,html.Screen,10_11_1,2023-11-30T16:41:59.235Z,,,,,,,,,,,NaN,,,,,,,,low,high,,,,,,,false,,,,,false,884101.8000001907,884101.7000000477,,884101.600000143,,883940.555,5,600,,
break_continue,html.Screen,10_11_2,2023-11-30T16:41:59.235Z,,,,,,,,,,,NaN,,,,,,,,low,high,,,,,,,false,,,,,false,884101.9000000954,884101.9000000954,,884101.8000001907,,883940.555,5,600,,
sequence,flow.Sequence,10_11,2023-11-30T16:41:59.235Z,,,,,,,,,,,6394.670000095386,completion,,,,,,,low,high,,,,,,,false,,,,,false,884102.100000143,884101.9000000954,877690.699,877862.100000143,877707.23,883940.555,5,600,,
trial,html.Screen,10_12_0,2023-11-30T16:42:09.075Z,,,,1,0,0.0264544974620926,,0.05,true,hl,10000.944999999949,response,1.0865333402803938,1.1758434022876718,-1.1502627225472135,-1.0542635307358266,1.0568424154101645,-1.1713759138859605,high,low,,ISIC_0056991.JPG,9,ISIC_0034006.JPG,33,26,false,0.3300000000000002,hl,keypress(j),0,false,893941.7000000477,893941.5,883923.952,884102.100000143,883940.555,893807.324,5,600,13,
break,html.Screen,10_12_1,2023-11-30T16:42:09.075Z,,,,,,,,,,,NaN,,,,,,,,high,low,,,,,,,false,,,,,false,893941.9000000954,893941.9000000954,,893941.7000000477,,893807.324,5,600,,
break_continue,html.Screen,10_12_2,2023-11-30T16:42:09.075Z,,,,,,,,,,,NaN,,,,,,,,high,low,,,,,,,false,,,,,false,893942,893942,,893942,,893807.324,5,600,,
sequence,flow.Sequence,10_12,2023-11-30T16:42:09.075Z,,,,,,,,,,,10001.444999999949,completion,,,,,,,high,low,,,,,,,false,,,,,false,893942.100000143,893942,883923.952,884102.100000143,883940.555,893807.324,5,600,,
trial,html.Screen,10_13_0,2023-11-30T16:42:13.667Z,,,,1,0.0188047466661863,-0.0288346930436979,,0.05,false,ll,4725.876000047661,response,-1.0698162624196283,1.1758434022876718,-1.1502627225472135,-1.219634566983089,1.0568424154101645,-1.1713759138859605,low,low,,ISIC_0014157.JPG,9,ISIC_0030552.JPG,33,31,false,0.1,hl,keypress(j),0,false,898533.3000001907,898533.2000000477,893790.82,893942.100000143,893807.324,898373.875,5,600,14,
break,html.Screen,10_13_1,2023-11-30T16:42:13.667Z,,,,,,,,,,,NaN,,,,,,,,low,low,,,,,,,false,,,,,false,898533.600000143,898533.5,,898533.5,,898373.875,5,600,,
break_continue,html.Screen,10_13_2,2023-11-30T16:42:13.667Z,,,,,,,,,,,NaN,,,,,,,,low,low,,,,,,,false,,,,,false,898533.8000001907,898533.7000000477,,898533.600000143,,898373.875,5,600,,
sequence,flow.Sequence,10_13,2023-11-30T16:42:13.667Z,,,,,,,,,,,4726.376000047661,completion,,,,,,,low,low,,,,,,,false,,,,,false,898533.9000000954,898533.7000000477,893790.82,893942.100000143,893807.324,898373.875,5,600,,
trial,html.Screen,10_14_0,2023-11-30T16:42:16.914Z,,,,1,-0.0027483411352856,-0.0100996915276271,,0.05,false,hl,3406.925000190735,response,1.2075172235545184,1.1758434022876718,-1.1502627225472135,-0.9116724966267612,1.0568424154101645,-1.1713759138859605,high,low,,ISIC_7364041.JPG,9,ISIC_0024235.JPG,33,26,false,0.3300000000000002,hh,keypress(i),0,false,901780.9000000954,901780.8000001907,898357.361,898533.9000000954,898373.875,901623.902,5,600,15,
break,html.Screen,10_14_1,2023-11-30T16:42:16.915Z,,,,,,,,,,,NaN,,,,,,,,high,low,,,,,,,false,,,,,false,901781.2000000477,901781.100000143,,901781,,901623.902,5,600,,
break_continue,html.Screen,10_14_2,2023-11-30T16:42:16.915Z,,,,,,,,,,,NaN,,,,,,,,high,low,,,,,,,false,,,,,false,901781.4000000954,901781.3000001907,,901781.3000001907,,901623.902,5,600,,
sequence,flow.Sequence,10_14,2023-11-30T16:42:16.915Z,,,,,,,,,,,3407.425000190735,completion,,,,,,,high,low,,,,,,,false,,,,,false,901781.5,901781.3000001907,898357.361,898533.9000000954,898373.875,901623.902,5,600,,
trial,html.Screen,10_15_0,2023-11-30T16:42:21.251Z,,,,1,0.0245376145053177,-0.0436993426328401,,0.05,false,hh,4493.597999999998,response,1.2148140264214349,1.1758434022876718,-1.1502627225472135,1.0436713726380966,1.0568424154101645,-1.1713759138859605,high,high,,ISIC_0056444.JPG,8,ISIC_7277310.JPG,33,28,false,0.11,lh,keypress(e),0,false,906117.600000143,906117.5,901607.332,901781.5,901623.902,905957.163,5,600,16,
break,html.Screen,10_15_1,2023-11-30T16:42:21.251Z,,,,,,,,,,,NaN,,,,,,,,high,high,,,,,,,false,,,,,false,906117.9000000954,906117.9000000954,,906117.7000000477,,905957.163,5,600,,
break_continue,html.Screen,10_15_2,2023-11-30T16:42:21.251Z,,,,,,,,,,,NaN,,,,,,,,high,high,,,,,,,false,,,,,false,906118,906118,,906118,,905957.163,5,600,,
sequence,flow.Sequence,10_15,2023-11-30T16:42:21.251Z,,,,,,,,,,,4494.097999999998,completion,,,,,,,high,high,,,,,,,false,,,,,false,906118.100000143,906118,901607.332,901781.5,901623.902,905957.163,5,600,,
trial,html.Screen,10_16_0,2023-11-30T16:42:32.499Z,,,,1,0.0277178575053843,-0.0395587463147856,,0.05,true,hl,11408.237000095425,response,0.869932994914832,1.1758434022876718,-1.1502627225472135,-0.8880533324432531,1.0568424154101645,-1.1713759138859605,high,low,,ISIC_0010807.JPG,8,ISIC_8617084.JPG,33,26,false,0.3300000000000002,hl,keypress(j),0,false,917365.5,917365.4000000954,905940.424,906118.100000143,905957.163,917207.276,5,600,17,
break,html.Screen,10_16_1,2023-11-30T16:42:32.499Z,,,,,,,,,,,NaN,,,,,,,,high,low,,,,,,,false,,,,,false,917365.8000001907,917365.7000000477,,917365.600000143,,917207.276,5,600,,
break_continue,html.Screen,10_16_2,2023-11-30T16:42:32.499Z,,,,,,,,,,,NaN,,,,,,,,high,low,,,,,,,false,,,,,false,917366.100000143,917366.100000143,,917365.9000000954,,917207.276,5,600,,
sequence,flow.Sequence,10_16,2023-11-30T16:42:32.499Z,,,,,,,,,,,11408.937000143109,completion,,,,,,,high,low,,,,,,,false,,,,,false,917366.100000143,917366.100000143,905940.424,906118.100000143,905957.163,917207.276,5,600,,
trial,html.Screen,10_17_0,2023-11-30T16:42:35.459Z,,,,1,0.000047919190197942736,0.0462652940855003,,0.05,true,hh,3118.0240001907805,response,1.1920465299859582,1.1758434022876718,-1.1502627225472135,0.9548921292696696,1.0568424154101645,-1.1713759138859605,high,high,,ISIC_0011507.JPG,9,ISIC_5566396.JPG,33,28,false,0.11,hh,keypress(i),0,false,920325.4000000954,920325.3000001907,917190.75,917366.2000000477,917207.276,920174.293,5,600,18,
break,html.Screen,10_17_1,2023-11-30T16:42:35.459Z,,,,,,,,,,,NaN,,,,,,,,high,high,,,,,,,false,,,,,false,920325.7000000477,920325.7000000477,,920325.600000143,,920174.293,5,600,,
break_continue,html.Screen,10_17_2,2023-11-30T16:42:35.459Z,,,,,,,,,,,NaN,,,,,,,,high,high,,,,,,,false,,,,,false,920325.9000000954,920325.9000000954,,920325.8000001907,,920174.293,5,600,,
sequence,flow.Sequence,10_17,2023-11-30T16:42:35.459Z,,,,,,,,,,,3118.624000095413,completion,,,,,,,high,high,,,,,,,false,,,,,false,920325.9000000954,920325.9000000954,917190.75,917366.2000000477,917207.276,920174.293,5,600,,
trial,html.Screen,10_18_0,2023-11-30T16:42:38.611Z,,,,1,-0.0456515796420274,0.0273567130070961,,0.05,true,ll,3302.907000047737,response,-1.242586748440878,1.1758434022876718,-1.1502627225472135,-1.1207933200172129,1.0568424154101645,-1.1713759138859605,low,low,,ISIC_0068610.JPG,9,ISIC_0013073.JPG,33,31,false,0.1,ll,keypress(f),0,false,923477.3000001907,923477.2000000477,920157.391,920326,920174.293,923323.91,5,600,19,
break,html.Screen,10_18_1,2023-11-30T16:42:38.611Z,,,,,,,,,,,NaN,,,,,,,,low,low,,,,,,,false,,,,,false,923477.600000143,923477.5,,923477.4000000954,,923323.91,5,600,,
break_continue,html.Screen,10_18_2,2023-11-30T16:42:38.611Z,,,,,,,,,,,NaN,,,,,,,,low,low,,,,,,,false,,,,,false,923477.8000001907,923477.8000001907,,923477.600000143,,923323.91,5,600,,
sequence,flow.Sequence,10_18,2023-11-30T16:42:38.611Z,,,,,,,,,,,3303.507000190788,completion,,,,,,,low,low,,,,,,,false,,,,,false,923477.8000001907,923477.8000001907,920157.391,920326,920174.293,923323.91,5,600,,
trial,html.Screen,10_19_0,2023-11-30T16:42:44.467Z,,,,1,-0.0217698886732706,0.0410870915161425,,0.05,false,ll,6009.589999999967,response,-1.1474466950560966,1.1758434022876718,-1.1502627225472135,-1.268445326285509,1.0568424154101645,-1.1713759138859605,low,low,,ISIC_0072173.JPG,8,ISIC_5216586.JPG,33,31,false,0.1,hl,keypress(j),0,false,929333.5,929333.5,923307.209,923477.9000000954,923323.91,929173.838,5,600,20,
break,html.Screen,10_19_1,2023-11-30T16:42:44.467Z,,,,,,,,,,,NaN,,,,,,,,low,low,,,,,,,false,,,,,false,929333.9000000954,929333.7000000477,,929333.600000143,,929173.838,5,600,,
break_continue,html.Screen,10_19_2,2023-11-30T16:42:44.467Z,,,,,,,,,,,NaN,,,,,,,,low,low,,,,,,,false,,,,,false,929334.100000143,929334,,929333.9000000954,,929173.838,5,600,,
sequence,flow.Sequence,10_19,2023-11-30T16:42:44.467Z,,,,,,,,,,,6010.089999999967,completion,,,,,,,low,low,,,,,,,false,,,,,false,929334.100000143,929334,923307.209,923477.9000000954,923323.91,929173.838,5,600,,
trial,html.Screen,10_20_0,2023-11-30T16:42:49.059Z,,,,1,-0.0107854985447517,-0.0478010417136109,,0.05,true,hh,4751.462000190746,response,1.0878102877901663,1.1758434022876718,-1.1502627225472135,0.9483364581769096,1.0568424154101645,-1.1713759138859605,high,high,,ISIC_0010500.JPG,9,ISIC_1413242.JPG,33,28,false,0.11,hh,keypress(i),0,false,933925.5,933925.3000001907,929157.501,929334.100000143,929173.838,933773.836,5,600,21,
break,html.Screen,10_20_1,2023-11-30T16:42:49.059Z,,,,,,,,,,,NaN,,,,,,,,high,high,,,,,,,false,,,,,false,933925.8000001907,933925.7000000477,,933925.5,,933773.836,5,600,,
break_continue,html.Screen,10_20_2,2023-11-30T16:42:49.059Z,,,,,,,,,,,NaN,,,,,,,,high,high,,,,,,,false,,,,,false,933926,933926,,933925.9000000954,,933773.836,5,600,,
sequence,flow.Sequence,10_20,2023-11-30T16:42:49.059Z,,,,,,,,,,,4752.162000000011,completion,,,,,,,high,high,,,,,,,false,,,,,false,933926.100000143,933926,929157.501,929334.100000143,929173.838,933773.836,5,600,,
trial,html.Screen,10_21_0,2023-11-30T16:42:56.563Z,,,,1,-0.0116094682222121,0.0258434522530318,,0.05,false,lh,7655.66399999999,response,-1.276222161935671,1.1758434022876718,-1.1502627225472135,0.9657780821973284,1.0568424154101645,-1.1713759138859605,low,high,,ISIC_9239632.JPG,8,ISIC_6710411.JPG,33,31,false,0.3600000000000002,ll,keypress(f),0,false,941429.600000143,941429.5,933757.416,933926.100000143,933773.836,941273.812,5,600,22,
break,html.Screen,10_21_1,2023-11-30T16:42:56.563Z,,,,,,,,,,,NaN,,,,,,,,low,high,,,,,,,false,,,,,false,941429.9000000954,941429.8000001907,,941429.600000143,,941273.812,5,600,,
break_continue,html.Screen,10_21_2,2023-11-30T16:42:56.563Z,,,,,,,,,,,NaN,,,,,,,,low,high,,,,,,,false,,,,,false,941430,941430,,941430,,941273.812,5,600,,
sequence,flow.Sequence,10_21,2023-11-30T16:42:56.563Z,,,,,,,,,,,7656.16399999999,completion,,,,,,,low,high,,,,,,,false,,,,,false,941430.100000143,941430,933757.416,933926.100000143,933773.836,941273.812,5,600,,
trial,html.Screen,10_22_0,2023-11-30T16:43:00.499Z,,,,1,-0.0389988030702649,-0.0143212271490256,,0.05,false,hh,4091.2880001430167,response,1.2148140264214349,1.1758434022876718,-1.1502627225472135,1.0436713726380966,1.0568424154101645,-1.1713759138859605,high,high,,ISIC_0064669.JPG,9,ISIC_7277310.JPG,33,28,false,0.11,lh,keypress(e),0,false,945365.2000000477,945365.100000143,941257.349,941430.100000143,941273.812,945207.169,5,600,23,
break,html.Screen,10_22_1,2023-11-30T16:43:00.499Z,,,,,,,,,,,NaN,,,,,,,,high,high,,,,,,,false,,,,,false,945365.5,945365.5,,945365.3000001907,,945207.169,5,600,,
break_continue,html.Screen,10_22_2,2023-11-30T16:43:00.499Z,,,,,,,,,,,NaN,,,,,,,,high,high,,,,,,,false,,,,,false,945365.600000143,945365.600000143,,945365.5,,945207.169,5,600,,
sequence,flow.Sequence,10_22,2023-11-30T16:43:00.499Z,,,,,,,,,,,4091.7880001430167,completion,,,,,,,high,high,,,,,,,false,,,,,false,945365.7000000477,945365.600000143,941257.349,941430.100000143,941273.812,945207.169,5,600,,
trial,html.Screen,10_23_0,2023-11-30T16:43:08.403Z,,,,1,-0.0329095507339554,0.0382899749693245,,0.05,false,ll,8062.13100019074,response,-1.1346217981791904,1.1758434022876718,-1.1502627225472135,-1.1555132168806113,1.0568424154101645,-1.1713759138859605,low,low,,ISIC_8812781.JPG,8,ISIC_0032771.JPG,33,31,false,0.1,hl,keypress(j),0,false,953269.4000000954,953269.3000001907,945190.646,945365.7000000477,945207.169,953124.075,5,600,24,
break,html.Screen,10_23_1,2023-11-30T16:43:08.403Z,,,,,,,,,,,NaN,,,,,,,,low,low,,,,,,,false,,,,,false,953269.600000143,953269.600000143,,953269.5,,953124.075,5,600,,
break_continue,html.Screen,10_23_2,2023-11-30T16:43:08.403Z,,,,,,,,,,,NaN,,,,,,,,low,low,,,,,,,false,,,,,false,953269.9000000954,953269.8000001907,,953269.7000000477,,953124.075,5,600,,
sequence,flow.Sequence,10_23,2023-11-30T16:43:08.403Z,,,,,,,,,,,8062.63100019074,completion,,,,,,,low,low,,,,,,,false,,,,,false,953269.9000000954,953269.8000001907,945190.646,945365.7000000477,945207.169,953124.075,5,600,,
trial,html.Screen,10_24_0,2023-11-30T16:43:13.651Z,,,,1,-0.0324770283903853,-0.0249968632204382,,0.05,false,ll,5393.12500004773,response,-1.1474466950560966,1.1758434022876718,-1.1502627225472135,-1.268445326285509,1.0568424154101645,-1.1713759138859605,low,low,,ISIC_7266462.JPG,8,ISIC_5216586.JPG,33,31,false,0.1,hl,keypress(j),0,false,958517.3000001907,958517.2000000477,953090.617,953269.9000000954,953124.075,958357.137,5,600,25,
break,html.Screen,10_24_1,2023-11-30T16:43:13.651Z,,,,,,,,,,,NaN,,,,,,,,low,low,,,,,,,false,,,,,false,958517.5,958517.5,,958517.4000000954,,958357.137,5,600,,
break_continue,html.Screen,10_24_2,2023-11-30T16:43:13.651Z,,,,,,,,,,,NaN,,,,,,,,low,low,,,,,,,false,,,,,false,958517.8000001907,958517.7000000477,,958517.600000143,,958357.137,5,600,,
sequence,flow.Sequence,10_24,2023-11-30T16:43:13.651Z,,,,,,,,,,,5393.62500004773,completion,,,,,,,low,low,,,,,,,false,,,,,false,958517.8000001907,958517.7000000477,953090.617,953269.9000000954,953124.075,958357.137,5,600,,
trial,html.Screen,10_25_0,2023-11-30T16:43:19.107Z,,,,1,0.0112310719058792,-0.0469047359904117,,0.05,true,hh,5616.163000190747,response,1.0909285203537074,1.1758434022876718,-1.1502627225472135,1.013890238726642,1.0568424154101645,-1.1713759138859605,high,high,,ISIC_0068184.JPG,10,ISIC_0033799.JPG,33,28,false,0.11,hh,keypress(i),0,false,963973.4000000954,963973.3000001907,958340.805,958517.8000001907,958357.137,963824.002,5,600,26,
break,html.Screen,10_25_1,2023-11-30T16:43:19.107Z,,,,,,,,,,,NaN,,,,,,,,high,high,,,,,,,false,,,,,false,963973.7000000477,963973.600000143,,963973.5,,963824.002,5,600,,
break_continue,html.Screen,10_25_2,2023-11-30T16:43:19.107Z,,,,,,,,,,,NaN,,,,,,,,high,high,,,,,,,false,,,,,false,963973.9000000954,963973.8000001907,,963973.8000001907,,963824.002,5,600,,
sequence,flow.Sequence,10_25,2023-11-30T16:43:19.107Z,,,,,,,,,,,5616.663000190747,completion,,,,,,,high,high,,,,,,,false,,,,,false,963974,963973.8000001907,958340.805,958517.8000001907,958357.137,963824.002,5,600,,
trial,html.Screen,10_26_0,2023-11-30T16:43:21.827Z,,,,1,-0.0027483411352856,-0.0100996915276271,,0.05,true,hh,2869.2980001907563,response,1.135787555082309,1.1758434022876718,-1.1502627225472135,1.0095789588135065,1.0568424154101645,-1.1713759138859605,high,high,,ISIC_7364041.JPG,9,ISIC_0032526.JPG,33,28,false,0.11,hh,keypress(i),0,false,966693.4000000954,966693.3000001907,963807.248,963974,963824.002,966540.654,5,600,27,
break,html.Screen,10_26_1,2023-11-30T16:43:21.827Z,,,,,,,,,,,NaN,,,,,,,,high,high,,,,,,,false,,,,,false,966693.7000000477,966693.600000143,,966693.5,,966540.654,5,600,,
break_continue,html.Screen,10_26_2,2023-11-30T16:43:21.827Z,,,,,,,,,,,NaN,,,,,,,,high,high,,,,,,,false,,,,,false,966693.8000001907,966693.8000001907,,966693.7000000477,,966540.654,5,600,,
sequence,flow.Sequence,10_26,2023-11-30T16:43:21.827Z,,,,,,,,,,,2869.7980001907563,completion,,,,,,,high,high,,,,,,,false,,,,,false,966693.9000000954,966693.8000001907,963807.248,963974,963824.002,966540.654,5,600,,
trial,html.Screen,10_27_0,2023-11-30T16:43:30.355Z,,,,1,-0.0069555338059566,0.0310100918136373,,0.05,true,ll,8680.646000190754,response,-1.1346217981791904,1.1758434022876718,-1.1502627225472135,-1.1555132168806113,1.0568424154101645,-1.1713759138859605,low,low,,ISIC_0011177.JPG,8,ISIC_0032771.JPG,33,31,false,0.1,ll,keypress(f),0,false,975221.4000000954,975221.3000001907,966523.945,966694,966540.654,975074.232,5,600,28,
break,html.Screen,10_27_1,2023-11-30T16:43:30.355Z,,,,,,,,,,,NaN,,,,,,,,low,low,,,,,,,false,,,,,false,975221.7000000477,975221.7000000477,,975221.600000143,,975074.232,5,600,,
break_continue,html.Screen,10_27_2,2023-11-30T16:43:30.355Z,,,,,,,,,,,NaN,,,,,,,,low,low,,,,,,,false,,,,,false,975221.9000000954,975221.9000000954,,975221.8000001907,,975074.232,5,600,,
sequence,flow.Sequence,10_27,2023-11-30T16:43:30.355Z,,,,,,,,,,,8681.246000095387,completion,,,,,,,low,low,,,,,,,false,,,,,false,975222,975221.9000000954,966523.945,966694,966540.654,975074.232,5,600,,
trial,html.Screen,10_28_0,2023-11-30T16:43:36.195Z,,,,1,-0.0050679133050021,0.0009714874637896,,0.05,false,ll,5987.368000143091,response,-1.1033977063872138,1.1758434022876718,-1.1502627225472135,-1.2513071571733083,1.0568424154101645,-1.1713759138859605,low,low,,ISIC_9848743.JPG,9,ISIC_0025472.JPG,33,31,false,0.1,hh,keypress(i),0,false,981061.7000000477,981061.600000143,975057.33,975222,975074.232,980907.181,5,600,29,
break,html.Screen,10_28_1,2023-11-30T16:43:36.195Z,,,,,,,,,,,NaN,,,,,,,,low,low,,,,,,,false,,,,,false,981062,981061.9000000954,,981061.8000001907,,980907.181,5,600,,
break_continue,html.Screen,10_28_2,2023-11-30T16:43:36.196Z,,,,,,,,,,,NaN,,,,,,,,low,low,,,,,,,false,,,,,false,981062.2000000477,981062.100000143,,981062.100000143,,980907.181,5,600,,
sequence,flow.Sequence,10_28,2023-11-30T16:43:36.196Z,,,,,,,,,,,5987.868000143091,completion,,,,,,,low,low,,,,,,,false,,,,,false,981062.3000001907,981062.100000143,975057.33,975222,975074.232,980907.181,5,600,,
trial,html.Screen,10_29_0,2023-11-30T16:43:38.995Z,,,,1,0.0409338693593207,-0.0072462710499874,,0.05,true,hh,2954.1190001907526,response,1.1513656623516493,1.1758434022876718,-1.1502627225472135,0.9961674882214306,1.0568424154101645,-1.1713759138859605,high,high,,ISIC_3608788.JPG,8,ISIC_0624779.JPG,33,28,false,0.11,hh,keypress(i),0,false,983861.4000000954,983861.3000001907,980890.47,981062.3000001907,980907.181,983707.193,5,600,30,
break,html.Screen,10_29_1,2023-11-30T16:43:38.995Z,,,,,,,,,,,NaN,,,,,,,,high,high,,,,,,,false,,,,,false,983861.7000000477,983861.600000143,,983861.5,,983707.193,5,600,,
break_continue,html.Screen,10_29_2,2023-11-30T16:43:38.995Z,,,,,,,,,,,NaN,,,,,,,,high,high,,,,,,,false,,,,,false,983861.9000000954,983861.8000001907,,983861.7000000477,,983707.193,5,600,,
sequence,flow.Sequence,10_29,2023-11-30T16:43:38.995Z,,,,,,,,,,,2954.6190001907526,completion,,,,,,,high,high,,,,,,,false,,,,,false,983861.9000000954,983861.8000001907,980890.47,981062.3000001907,980907.181,983707.193,5,600,,
trial,html.Screen,10_30_0,2023-11-30T16:43:40.179Z,,,,1,0.0362376068089956,0.047825070846155,,0.05,false,ll,1338.0070000477135,response,-1.156827121261563,1.1758434022876718,-1.1502627225472135,-1.2544342720917778,1.0568424154101645,-1.1713759138859605,low,low,,ISIC_6985114.JPG,8,ISIC_0060397.JPG,33,31,false,0.1,hh,keypress(i),0,false,985045.4000000954,985045.2000000477,983690.563,983861.9000000954,983707.193,984890.468,5,600,31,
break,html.Screen,10_30_1,2023-11-30T16:43:40.179Z,,,,,,,,,,,NaN,,,,,,,,low,low,,,,,,,false,,,,,false,985045.7000000477,985045.600000143,,985045.5,,984890.468,5,600,,
break_continue,html.Screen,10_30_2,2023-11-30T16:43:40.179Z,,,,,,,,,,,NaN,,,,,,,,low,low,,,,,,,false,,,,,false,985045.8000001907,985045.8000001907,,985045.7000000477,,984890.468,5,600,,
sequence,flow.Sequence,10_30,2023-11-30T16:43:40.179Z,,,,,,,,,,,1338.6070001907647,completion,,,,,,,low,low,,,,,,,false,,,,,false,985045.8000001907,985045.8000001907,983690.563,983861.9000000954,983707.193,984890.468,5,600,,
trial,html.Screen,10_31_0,2023-11-30T16:43:45.330Z,,,,1,0.0409338693593207,-0.0072462710499874,,0.05,true,hl,5306.332000190741,response,1.0026266089287914,1.1758434022876718,-1.1502627225472135,-1.0913275913920335,1.0568424154101645,-1.1713759138859605,high,low,,ISIC_3608788.JPG,9,ISIC_0033520.JPG,33,26,false,0.3300000000000002,hl,keypress(j),0,false,990196.9000000954,990196.8000001907,984874.037,985045.9000000954,984890.468,990040.384,5,600,32,
break,html.Screen,10_31_1,2023-11-30T16:43:45.331Z,,,,,,,,,,,NaN,,,,,,,,high,low,,,,,,,false,,,,,false,990197.2000000477,990197.100000143,,990197,,990040.384,5,600,,
break_continue,html.Screen,10_31_2,2023-11-30T16:43:45.331Z,,,,,,,,,,,NaN,,,,,,,,high,low,,,,,,,false,,,,,false,990197.4000000954,990197.3000001907,,990197.2000000477,,990040.384,5,600,,
sequence,flow.Sequence,10_31,2023-11-30T16:43:45.331Z,,,,,,,,,,,5306.832000190741,completion,,,,,,,high,low,,,,,,,false,,,,,false,990197.4000000954,990197.3000001907,984874.037,985045.9000000954,984890.468,990040.384,5,600,,
trial,html.Screen,10_32_0,2023-11-30T16:43:52.739Z,,,,1,-0.0324770283903853,-0.0249968632204382,,0.05,false,ll,7564.716000143089,response,-1.2071341803968807,1.1758434022876718,-1.1502627225472135,-1.235960269089932,1.0568424154101645,-1.1713759138859605,low,low,,ISIC_7266462.JPG,8,ISIC_0058174.JPG,33,31,false,0.1,hl,keypress(j),0,false,997605.2000000477,997605.100000143,990023.877,990197.5,990040.384,997457.125,5,600,33,
break,html.Screen,10_32_1,2023-11-30T16:43:52.739Z,,,,,,,,,,,NaN,,,,,,,,low,low,,,,,,,false,,,,,false,997605.5,997605.4000000954,,997605.3000001907,,997457.125,5,600,,
break_continue,html.Screen,10_32_2,2023-11-30T16:43:52.739Z,,,,,,,,,,,NaN,,,,,,,,low,low,,,,,,,false,,,,,false,997605.8000001907,997605.600000143,,997605.5,,997457.125,5,600,,
sequence,flow.Sequence,10_32,2023-11-30T16:43:52.739Z,,,,,,,,,,,7565.216000143089,completion,,,,,,,low,low,,,,,,,false,,,,,false,997605.8000001907,997605.600000143,990023.877,990197.4000000954,990040.384,997457.125,5,600,,
trial,html.Screen,10_33_0,2023-11-30T16:43:55.987Z,,,,1,0,0.0264544974620926,,0.05,false,lh,3395.975000143051,response,-0.796241477082623,1.1758434022876718,-1.1502627225472135,0.9017449335975743,1.0568424154101645,-1.1713759138859605,low,high,,ISIC_0056991.JPG,9,ISIC_8588033.JPG,33,31,false,0.3600000000000002,ll,keypress(f),0,false,1000853.2000000477,1000853.100000143,997440.621,997605.8000001907,997457.125,1000707.547,5,600,34,
break,html.Screen,10_33_1,2023-11-30T16:43:55.987Z,,,,,,,,,,,NaN,,,,,,,,low,high,,,,,,,false,,,,,false,1000853.5,1000853.4000000954,,1000853.3000001907,,1000707.547,5,600,,
break_continue,html.Screen,10_33_2,2023-11-30T16:43:55.987Z,,,,,,,,,,,NaN,,,,,,,,low,high,,,,,,,false,,,,,false,1000853.7000000477,1000853.600000143,,1000853.5,,1000707.547,5,600,,
sequence,flow.Sequence,10_33,2023-11-30T16:43:55.987Z,,,,,,,,,,,3396.475000143051,completion,,,,,,,low,high,,,,,,,false,,,,,false,1000853.7000000477,1000853.600000143,997440.621,997605.8000001907,997457.125,1000707.547,5,600,,
trial,html.Screen,10_34_0,2023-11-30T16:43:59.523Z,,,,1,0.0409338693593207,-0.0072462710499874,,0.05,true,hh,3681.653000047663,response,1.0878102877901663,1.1758434022876718,-1.1502627225472135,0.9483364581769096,1.0568424154101645,-1.1713759138859605,high,high,,ISIC_3608788.JPG,9,ISIC_1413242.JPG,33,28,false,0.11,hh,keypress(i),0,false,1004389.3000001907,1004389.2000000477,1000690.489,1000853.8000001907,1000707.547,1004240.667,5,600,35,
break,html.Screen,10_34_1,2023-11-30T16:43:59.523Z,,,,,,,,,,,NaN,,,,,,,,high,high,,,,,,,false,,,,,false,1004389.600000143,1004389.5,,1004389.4000000954,,1004240.667,5,600,,
break_continue,html.Screen,10_34_2,2023-11-30T16:43:59.523Z,,,,,,,,,,,NaN,,,,,,,,high,high,,,,,,,false,,,,,false,1004389.7000000477,1004389.600000143,,1004389.600000143,,1004240.667,5,600,,
sequence,flow.Sequence,10_34,2023-11-30T16:43:59.523Z,,,,,,,,,,,3682.0530001430307,completion,,,,,,,high,high,,,,,,,false,,,,,false,1004389.8000001907,1004389.600000143,1000690.489,1000853.8000001907,1000707.547,1004240.667,5,600,,
trial,html.Screen,10_35_0,2023-11-30T16:44:05.507Z,,,,1,-0.0116094682222121,0.0258434522530318,,0.05,false,hh,6132.233000095352,response,1.191820312920968,1.1758434022876718,-1.1502627225472135,0.9721094751150764,1.0568424154101645,-1.1713759138859605,high,high,,ISIC_9239632.JPG,8,ISIC_5157775.JPG,33,28,false,0.11,ll,keypress(f),0,false,1010373.100000143,1010372.9000000954,1004223.819,1004389.8000001907,1004240.667,1010224.005,5,600,36,
break,html.Screen,10_35_1,2023-11-30T16:44:05.507Z,,,,,,,,,,,NaN,,,,,,,,high,high,,,,,,,false,,,,,false,1010373.3000001907,1010373.2000000477,,1010373.2000000477,,1010224.005,5,600,,
break_continue,html.Screen,10_35_2,2023-11-30T16:44:05.507Z,,,,,,,,,,,NaN,,,,,,,,high,high,,,,,,,false,,,,,false,1010373.5,1010373.4000000954,,1010373.4000000954,,1010224.005,5,600,,
sequence,flow.Sequence,10_35,2023-11-30T16:44:05.507Z,,,,,,,,,,,6132.733000095352,completion,,,,,,,high,high,,,,,,,false,,,,,false,1010373.600000143,1010373.4000000954,1004223.819,1004389.8000001907,1004240.667,1010224.005,5,600,,
trial,html.Screen,10_36_0,2023-11-30T16:44:13.827Z,,,,1,0.0102460616775615,-0.0309670599545429,,0.05,false,ll,8469.095000143046,response,-1.2071341803968807,1.1758434022876718,-1.1502627225472135,-1.235960269089932,1.0568424154101645,-1.1713759138859605,low,low,,ISIC_0072041.JPG,8,ISIC_0058174.JPG,33,31,false,0.1,hl,keypress(j),0,false,1018693.2000000477,1018693.100000143,1010206.957,1010373.600000143,1010224.005,1018540.398,5,600,37,
break,html.Screen,10_36_1,2023-11-30T16:44:13.827Z,,,,,,,,,,,NaN,,,,,,,,low,low,,,,,,,false,,,,,false,1018693.5,1018693.5,,1018693.3000001907,,1018540.398,5,600,,
break_continue,html.Screen,10_36_2,2023-11-30T16:44:13.827Z,,,,,,,,,,,NaN,,,,,,,,low,low,,,,,,,false,,,,,false,1018693.7000000477,1018693.600000143,,1018693.600000143,,1018540.398,5,600,,
sequence,flow.Sequence,10_36,2023-11-30T16:44:13.827Z,,,,,,,,,,,8469.595000143046,completion,,,,,,,low,low,,,,,,,false,,,,,false,1018693.7000000477,1018693.600000143,1010206.957,1010373.600000143,1010224.005,1018540.398,5,600,,
trial,html.Screen,10_37_0,2023-11-30T16:44:20.563Z,,,,1,0.0097091270150747,-0.0417921315885292,,0.05,false,lh,6888.802000047639,response,-0.9014321140874824,1.1758434022876718,-1.1502627225472135,0.7062038626894745,1.0568424154101645,-1.1713759138859605,low,high,,ISIC_3967213.JPG,9,ISIC_3654454.JPG,33,31,false,0.3600000000000002,hh,keypress(i),0,false,1025429.4000000954,1025429.2000000477,1018524.036,1018693.8000001907,1018540.398,1025273.737,5,600,38,
break,html.Screen,10_37_1,2023-11-30T16:44:20.563Z,,,,,,,,,,,NaN,,,,,,,,low,high,,,,,,,false,,,,,false,1025429.7000000477,1025429.600000143,,1025429.5,,1025273.737,5,600,,
break_continue,html.Screen,10_37_2,2023-11-30T16:44:20.563Z,,,,,,,,,,,NaN,,,,,,,,low,high,,,,,,,false,,,,,false,1025429.8000001907,1025429.8000001907,,1025429.7000000477,,1025273.737,5,600,,
