sender,sender_type,sender_id,timestamp,meta,,age,blockNo,c1,c2,condition,control_tolerance,correct,correctResponse,duration,ended_on,f1,f1_high,f1_low,f2,f2_high,f2_low,feature_level1,feature_level2,gender,img_left,img_reveal,img_right,n_control_images,n_target_images,practice,range_tolerance,response,response_action,selection_duration,staircase,time_commit,time_end,time_render,time_run,time_show,time_switch,total_blocks,total_trials,trialNo,url
informed_consent,html.Screen,0,2023-11-29T17:35:48.187Z,"{""labjs_version"":""20.2.4"",""labjs_build"":{""flavor"":""development"",""commit"":""f5b4a49f956347addd546a832a3327688c2c0fef""},""location"":""https://labjs.felixhenninger.com/api/labjs_preview/index.html"",""userAgent"":""Mozilla/5.0 (Windows NT 10.0; Win64; x64) AppleWebKit/537.36 (KHTML, like Gecko) Chrome/119.0.0.0 Safari/537.36"",""platform"":""Win32"",""language"":""en-US"",""locale"":""en-US"",""timeZone"":""America/Chicago"",""timezoneOffset"":360,""screen_width"":1920,""screen_height"":1080,""scroll_width"":945,""scroll_height"":918,""window_innerWidth"":945,""window_innerHeight"":966,""devicePixelRatio"":1}",,,,,,,,,,26710.595999809266,response,,,,,,,,,,,,,,,,,consent,click button,,,27540.799999952316,27531.699999809265,804.376,1023.3999998569489,821.104,27337.906,,,,{}
Demography form,html.Form,1,2023-11-29T17:35:54.828Z,,,18,,,,,,,,6842.893999952317,form submission,,,,,,,,,female,,,,,,,,,,,,34181,34180.799999952316,27321.046,27541.099999904633,27337.906,33971.172,,,,
Welcome,html.Screen,2,2023-11-29T17:36:12.467Z,,,,,,,"[""asym"",""col""]",,,,17848.828,response,,,,,,,,,,,,,,,,,continue,click button,,,51820.59999990463,51820,33954.419,34181,33971.172,51604.447,,,,
demo_instructions,html.Screen,3,2023-11-29T17:36:38.612Z,,,,,,,,,,,26359.45299985695,response,,,,,,,,,,,,,,,,,continue,click button,,,77964.5,77963.89999985695,51588.011,51820.699999809265,51604.447,77754.455,,,,
trial,html.Screen,4_0_0,2023-11-29T17:36:42.502Z,,,,0,-1.1671212908494544,-1.1286681796701683,,,true,hh,4099.8449999523145,response,1.2200968917423711,1.2,-1.2,1.3183466064109373,1.2,-1.2,high,high,,ISIC_0065022.JPG,,ISIC_3624318.JPG,,25,true,0.15000000000000002,hh,keypress(i),100,false,81854.5,81854.29999995232,77737.805,77964.59999990463,77754.455,81654.636,1,16,1,
sequence,flow.Sequence,4_0,2023-11-29T17:36:42.502Z,,,,,,,,,,,4099.8449999523145,completion,,,,,,,high,high,,,,,,,true,,,,,false,81854.79999995232,81854.29999995232,77737.805,77964.59999990463,77754.455,81654.636,1,16,,
trial,html.Screen,4_1_0,2023-11-29T17:36:45.723Z,,,,0,-1.2232482867978696,-1.2451219760556858,,,true,hh,3420.3640000000014,response,1.1305948371148624,1.2,-1.2,1.2802709447034604,1.2,-1.2,high,high,,ISIC_0030889.JPG,,ISIC_5648111.JPG,,25,true,0.15000000000000002,hh,keypress(i),100,false,85075.19999980927,85075,81637.848,81854.79999995232,81654.636,84871.393,1,16,2,
sequence,flow.Sequence,4_1,2023-11-29T17:36:45.723Z,,,,,,,,,,,3420.3640000000014,completion,,,,,,,high,high,,,,,,,true,,,,,false,85075.39999985695,85075,81637.848,81854.79999995232,81654.636,84871.393,1,16,,
trial,html.Screen,4_2_0,2023-11-29T17:36:51.682Z,,,,0,-1.2872758518949912,-1.313723254903214,,,true,hh,6162.5069998569525,response,1.1363600109870835,1.2,-1.2,1.295816345369928,1.2,-1.2,high,high,,ISIC_0064376.JPG,,ISIC_0026141.JPG,,25,true,0.15000000000000002,hh,keypress(i),100,false,91034.09999990463,91033.89999985695,84854.569,85075.59999990463,84871.393,90837.842,1,16,3,
sequence,flow.Sequence,4_2,2023-11-29T17:36:51.682Z,,,,,,,,,,,6162.5069998569525,completion,,,,,,,high,high,,,,,,,true,,,,,false,91034.5,91033.89999985695,84854.569,85075.5,84871.393,90837.842,1,16,,
trial,html.Screen,4_3_0,2023-11-29T17:36:54.039Z,,,,0,-1.238264833797662,-1.176099940770289,,,true,hh,2553.0579998569447,response,1.1642596483638106,1.2,-1.2,1.091507924157762,1.2,-1.2,high,high,,ISIC_0032861.JPG,,ISIC_0765584.JPG,,25,true,0.15000000000000002,hh,keypress(i),100,false,93391.19999980927,93390.89999985695,90821.221,91034.59999990463,90837.842,93187.858,1,16,4,
sequence,flow.Sequence,4_3,2023-11-29T17:36:54.039Z,,,,,,,,,,,2553.0579998569447,completion,,,,,,,high,high,,,,,,,true,,,,,false,93391.39999985695,93390.89999985695,90821.221,91034.5,90837.842,93187.858,1,16,,
trial,html.Screen,4_4_0,2023-11-29T17:36:55.916Z,,,,0,1.0878102877901663,1.3154097543539391,,,true,ll,2080.4419999523234,response,-1.1671212908494544,1.2,-1.2,-1.1286681796701683,1.2,-1.2,low,low,,ISIC_1413242.JPG,,ISIC_0065022.JPG,,27,true,0.12,ll,keypress(f),100,false,95268.39999985695,95268.29999995232,93171.202,93391.59999990463,93187.858,95071.287,1,16,5,
sequence,flow.Sequence,4_4,2023-11-29T17:36:55.916Z,,,,,,,,,,,2080.4419999523234,completion,,,,,,,low,low,,,,,,,true,,,,,false,95268.69999980927,95268.29999995232,93171.202,93391.5,93187.858,95071.287,1,16,,
trial,html.Screen,4_5_0,2023-11-29T17:36:58.481Z,,,,0,1.1305948371148624,1.2802709447034604,,,true,ll,2762.1129998569522,response,-1.2893246069103816,1.2,-1.2,-1.0655029133871594,1.2,-1.2,low,low,,ISIC_5648111.JPG,,ISIC_0070747.JPG,,41,true,0.15000000000000002,ll,keypress(f),100,false,97833.59999990463,97833.39999985695,95054.64,95268.79999995232,95071.287,97637.862,1,16,6,
sequence,flow.Sequence,4_5,2023-11-29T17:36:58.481Z,,,,,,,,,,,2762.1129998569522,completion,,,,,,,low,low,,,,,,,true,,,,,false,97833.79999995232,97833.39999985695,95054.64,95268.69999980927,95071.287,97637.862,1,16,,
trial,html.Screen,4_6_0,2023-11-29T17:37:00.854Z,,,,0,1.1642596483638106,1.091507924157762,,,true,ll,2567.8379998092714,response,-1.2872758518949912,1.2,-1.2,-1.313723254903214,1.2,-1.2,low,low,,ISIC_0765584.JPG,,ISIC_0064376.JPG,,41,true,0.15000000000000002,ll,keypress(f),100,false,100205.89999985695,100205.69999980927,97621.213,97833.79999995232,97637.862,100004.607,1,16,7,
sequence,flow.Sequence,4_6,2023-11-29T17:37:00.854Z,,,,,,,,,,,2567.8379998092714,completion,,,,,,,low,low,,,,,,,true,,,,,false,100206.09999990463,100205.69999980927,97621.213,97833.79999995232,97637.862,100004.607,1,16,,
trial,html.Screen,4_7_0,2023-11-29T17:37:03.690Z,,,,0,1.1727618800748076,1.0636787813411093,,,true,ll,3037.3929999999964,response,-1.189469386514313,1.2,-1.2,-1.3008582067137853,1.2,-1.2,low,low,,ISIC_9690371.JPG,,ISIC_0010644.JPG,,41,true,0.15000000000000002,ll,keypress(f),100,false,103042.09999990463,103042,99987.856,100206.09999990463,100004.607,102837.825,1,16,8,
sequence,flow.Sequence,4_7,2023-11-29T17:37:03.690Z,,,,,,,,,,,3037.3929999999964,completion,,,,,,,low,low,,,,,,,true,,,,,false,103042.29999995232,103042,99987.856,100206.09999990463,100004.607,102837.825,1,16,,
trial,html.Screen,4_8_0,2023-11-29T17:37:07.421Z,,,,0,0.9087169856594104,-0.8835647084207277,,,true,lh,3935.675000000003,response,-1.0748728054622358,1.2,-1.2,1.2840853987892311,1.2,-1.2,low,high,,ISIC_0000349.JPG,,ISIC_0059219.JPG,,26,true,0.3300000000000002,lh,keypress(e),100,false,106773.59999990463,106773.5,102821.462,103042.5,102837.825,106571.333,1,16,9,
sequence,flow.Sequence,4_8,2023-11-29T17:37:07.422Z,,,,,,,,,,,3935.675000000003,completion,,,,,,,low,high,,,,,,,true,,,,,false,106773.89999985695,106773.5,102821.462,103042.5,102837.825,106571.333,1,16,,
trial,html.Screen,4_9_0,2023-11-29T17:37:09.385Z,,,,0,1.2615315960773072,-1.194084675079932,,,true,lh,2166.06699985695,response,-0.9670240379618178,1.2,-1.2,1.1806404773220665,1.2,-1.2,low,high,,ISIC_0010044.JPG,,ISIC_0002288.JPG,,33,true,0.3600000000000002,lh,keypress(e),100,false,108737.5,108737.39999985695,106554.545,106774,106571.333,108538.097,1,16,10,
sequence,flow.Sequence,4_9,2023-11-29T17:37:09.385Z,,,,,,,,,,,2166.06699985695,completion,,,,,,,low,high,,,,,,,true,,,,,false,108737.79999995232,108737.39999985695,106554.545,106774,106571.333,108538.097,1,16,,
trial,html.Screen,4_10_0,2023-11-29T17:37:24.422Z,,,,0,1.1890109863264902,-0.8867825318561365,,,true,lh,15235.502999904638,response,-0.887838744955182,1.2,-1.2,1.3716210719758812,1.2,-1.2,low,high,,ISIC_0072576.JPG,,ISIC_1488727.JPG,,33,true,0.3600000000000002,lh,keypress(e),100,false,123773.69999980927,123773.59999990463,108521.198,108737.89999985695,108538.097,123571.189,1,16,11,
sequence,flow.Sequence,4_10,2023-11-29T17:37:24.422Z,,,,,,,,,,,15235.502999904638,completion,,,,,,,low,high,,,,,,,true,,,,,false,123774,123773.59999990463,108521.198,108737.89999985695,108538.097,123571.189,1,16,,
trial,html.Screen,4_11_0,2023-11-29T17:37:36.004Z,,,,0,1.3411487193830047,-1.198640448317381,,,true,lh,11783.811000000002,response,-0.9566823908868002,1.2,-1.2,0.9602125665128364,1.2,-1.2,low,high,,ISIC_3093026.JPG,,ISIC_0056784.JPG,,33,true,0.3600000000000002,lh,keypress(e),100,false,135355.09999990463,135355,123554.533,123774,123571.189,135154.701,1,16,12,
sequence,flow.Sequence,4_11,2023-11-29T17:37:36.004Z,,,,,,,,,,,11783.811000000002,completion,,,,,,,low,high,,,,,,,true,,,,,false,135355.39999985695,135355,123554.533,123774,123571.189,135154.701,1,16,,
trial,html.Screen,4_12_0,2023-11-29T17:37:39.344Z,,,,0,-0.9448560599810628,0.9099421612683488,,,true,hl,3540.998999809264,response,0.8591294258188253,1.2,-1.2,-0.870797302150167,1.2,-1.2,high,low,,ISIC_9684318.JPG,,ISIC_0055841.JPG,,29,true,0.3600000000000002,hl,keypress(j),100,false,138695.69999980927,138695.69999980927,135137.92,135355.39999985695,135154.701,138504.578,1,16,13,
sequence,flow.Sequence,4_12,2023-11-29T17:37:39.345Z,,,,,,,,,,,3540.998999809264,completion,,,,,,,high,low,,,,,,,true,,,,,false,138696,138695.69999980927,135137.92,135355.39999985695,135154.701,138504.578,1,16,,
trial,html.Screen,4_13_0,2023-11-29T17:37:44.623Z,,,,0,-0.8709576717420565,1.2795156779072283,,,true,hl,5470.021999904624,response,1.0003671514840182,1.2,-1.2,-0.8992716557663581,1.2,-1.2,high,low,,ISIC_1925632.JPG,,ISIC_0061749.JPG,,29,true,0.3600000000000002,hl,keypress(j),100,false,143974.79999995232,143974.59999990463,138487.91,138696,138504.578,143771.312,1,16,14,
sequence,flow.Sequence,4_13,2023-11-29T17:37:44.624Z,,,,,,,,,,,5470.021999904624,completion,,,,,,,high,low,,,,,,,true,,,,,false,143975.09999990463,143974.59999990463,138487.91,138696,138504.578,143771.312,1,16,,
trial,html.Screen,4_14_0,2023-11-29T17:37:56.046Z,,,,0,-1.082730232773217,0.8833175387485132,,,true,hl,11625.687999999995,response,1.0003671514840182,1.2,-1.2,-0.8992716557663581,1.2,-1.2,high,low,,ISIC_0011933.JPG,,ISIC_0061749.JPG,,29,true,0.3600000000000002,hl,keypress(j),100,false,155397.19999980927,155397,143754.567,143975.19999980927,143771.312,155204.575,1,16,15,
sequence,flow.Sequence,4_14,2023-11-29T17:37:56.046Z,,,,,,,,,,,11625.687999999995,completion,,,,,,,high,low,,,,,,,true,,,,,false,155397.39999985695,155397,143754.567,143975.19999980927,143771.312,155204.575,1,16,,
trial,html.Screen,4_15_0,2023-11-29T17:38:04.161Z,,,,0,-1.296989496412063,1.1425074323097002,,,true,hl,8307.424999999988,response,0.8779374983479176,1.2,-1.2,-0.9745548032823428,1.2,-1.2,high,low,,ISIC_6356803.JPG,,ISIC_2991354.JPG,,29,true,0.3600000000000002,hl,keypress(j),100,false,163512.19999980927,163512,155187.944,155397.5,155204.575,163321.31,1,16,16,
sequence,flow.Sequence,4_15,2023-11-29T17:38:04.161Z,,,,,,,,,,,8307.424999999988,completion,,,,,,,high,low,,,,,,,true,,,,,false,163512.39999985695,163512,155187.944,155397.5,155204.575,163321.31,1,16,,
demonstration_loop,flow.Loop,4,2023-11-29T17:38:04.161Z,,,,,,,,,,,85757.545,completion,,,,,,,,,,,,,,,true,,,,,false,163512.59999990463,163512,77737.805,77964.59999990463,77754.455,163321.31,1,16,,
practice_instructions,html.Screen,5,2023-11-29T17:38:09.429Z,,,,,,,,,,,5450.690000000002,response,,,,,,,,,,,,,,,,,continue,click button,,,168780.19999980927,168772,163304.64,163512.69999980927,163321.31,168571.266,,,,
trial,html.Screen,6_0_0,2023-11-29T17:38:12.657Z,,,,1,-0.887838744955182,1.3716210719758812,,,true,hl,3430.433999809262,response,0.8779374983479176,1.2,-1.2,-0.9745548032823428,1.2,-1.2,high,low,,ISIC_1488727.JPG,,ISIC_2991354.JPG,,29,true,0.3600000000000002,hl,keypress(j),0,false,172008.79999995232,172001.69999980927,168538.148,168780.39999985695,168571.266,171804.677,1,40,1,
sequence,flow.Sequence,6_0,2023-11-29T17:38:12.658Z,,,,,,,,,,,3430.433999809262,completion,,,,,,,high,low,,,,,,,true,,,,,false,172008.89999985695,172001.69999980927,168538.148,168780.29999995232,168571.266,171804.677,1,40,,
trial,html.Screen,6_1_0,2023-11-29T17:38:14.765Z,,,,1,0.8644465729542988,-0.8679598285079457,,,true,lh,2311.722999856953,response,-1.052305774554686,1.2,-1.2,1.3940181224717798,1.2,-1.2,low,high,,ISIC_6718969.JPG,,ISIC_4175400.JPG,,26,true,0.3300000000000002,lh,keypress(e),0,false,174116.5,174116.39999985695,171787.929,172009,171804.677,173904.579,1,40,2,
sequence,flow.Sequence,6_1,2023-11-29T17:38:14.765Z,,,,,,,,,,,2311.722999856953,completion,,,,,,,low,high,,,,,,,true,,,,,false,174116.69999980927,174116.39999985695,171787.929,172008.89999985695,171804.677,173904.579,1,40,,
trial,html.Screen,6_2_0,2023-11-29T17:38:17.910Z,,,,1,-1.155796217969438,1.1646564121743912,,,true,hl,3356.5209999046347,response,0.9087169856594104,1.2,-1.2,-0.8835647084207277,1.2,-1.2,high,low,,ISIC_2685523.JPG,,ISIC_0000349.JPG,,29,true,0.3600000000000002,hl,keypress(j),0,false,177261.29999995232,177261.09999990463,173888.085,174116.79999995232,173904.579,177054.587,1,40,3,
sequence,flow.Sequence,6_2,2023-11-29T17:38:17.910Z,,,,,,,,,,,3356.5209999046347,completion,,,,,,,high,low,,,,,,,true,,,,,false,177261.69999980927,177261.09999990463,173888.085,174116.69999980927,173904.579,177054.587,1,40,,
trial,html.Screen,6_3_0,2023-11-29T17:38:20.070Z,,,,1,1.1235224875125256,-0.8641223012137988,,,true,lh,2366.012999904633,response,-1.0264463986917702,1.2,-1.2,1.171271535505083,1.2,-1.2,low,high,,ISIC_0033901.JPG,,ISIC_7889838.JPG,,26,true,0.3300000000000002,lh,keypress(e),0,false,179420.69999980927,179420.59999990463,177038.08,177261.79999995232,177054.587,179204.6,1,40,4,
sequence,flow.Sequence,6_3,2023-11-29T17:38:20.070Z,,,,,,,,,,,2366.012999904633,completion,,,,,,,low,high,,,,,,,true,,,,,false,179420.79999995232,179420.59999990463,177038.08,177261.69999980927,177054.587,179204.6,1,40,,
trial,html.Screen,6_4_0,2023-11-29T17:38:22.382Z,,,,1,1.4748095371445096,-0.9579010801034902,,,true,lh,2527.799999856943,response,-1.0748728054622358,1.2,-1.2,1.2840853987892311,1.2,-1.2,low,high,,ISIC_0033216.JPG,,ISIC_0059219.JPG,,33,true,0.3600000000000002,lh,keypress(e),0,false,181732.59999990463,181732.39999985695,179188.135,179420.79999995232,179204.6,181521.366,1,40,5,
sequence,flow.Sequence,6_4,2023-11-29T17:38:22.382Z,,,,,,,,,,,2527.799999856943,completion,,,,,,,low,high,,,,,,,true,,,,,false,181732.69999980927,181732.39999985695,179188.135,179420.79999995232,179204.6,181521.366,1,40,,
trial,html.Screen,6_5_0,2023-11-29T17:38:24.927Z,,,,1,-1.1392234684115472,-1.3198277407683998,,,true,hh,2755.833999809256,response,1.294521945180264,1.2,-1.2,1.3078626540563885,1.2,-1.2,high,high,,ISIC_0071875.JPG,,ISIC_3601224.JPG,,157,true,0.3600000000000002,hh,keypress(i),0,false,184277.39999985695,184277.19999980927,181504.579,181732.69999980927,181521.366,184071.3,1,40,6,
sequence,flow.Sequence,6_5,2023-11-29T17:38:24.927Z,,,,,,,,,,,2755.833999809256,completion,,,,,,,high,high,,,,,,,true,,,,,false,184277.79999995232,184277.19999980927,181504.579,181732.69999980927,181521.366,184071.3,1,40,,
trial,html.Screen,6_6_0,2023-11-29T17:38:30.942Z,,,,1,1.3045229691102764,1.1781544075681951,,,true,ll,6221.799999904644,response,-1.1671212908494544,1.2,-1.2,-1.1286681796701683,1.2,-1.2,low,low,,ISIC_6148533.JPG,,ISIC_0065022.JPG,,27,true,0.12,ll,keypress(f),0,false,190293.19999980927,190293.09999990463,184054.551,184278,184071.3,190088.026,1,40,7,
sequence,flow.Sequence,6_6,2023-11-29T17:38:30.943Z,,,,,,,,,,,6221.799999904644,completion,,,,,,,low,low,,,,,,,true,,,,,false,190293.5,190293.09999990463,184054.551,184278,184071.3,190088.026,1,40,,
trial,html.Screen,6_7_0,2023-11-29T17:38:37.062Z,,,,1,-1.1715181192107684,-1.2251845559044463,,,true,hh,6324.273999952304,response,1.1727618800748076,1.2,-1.2,1.0636787813411093,1.2,-1.2,high,high,,ISIC_0011957.JPG,,ISIC_9690371.JPG,,25,true,0.15000000000000002,hh,keypress(i),0,false,196412.39999985695,196412.29999995232,190071.068,190293.59999990463,190088.026,196204.642,1,40,8,
sequence,flow.Sequence,6_7,2023-11-29T17:38:37.062Z,,,,,,,,,,,6324.273999952304,completion,,,,,,,high,high,,,,,,,true,,,,,false,196412.59999990463,196412.29999995232,190071.068,190293.59999990463,190088.026,196204.642,1,40,,
trial,html.Screen,6_8_0,2023-11-29T17:38:40.566Z,,,,1,-1.1783311757907324,-1.266840220031473,,,true,hh,3711.7579998569563,response,1.301795918505203,1.2,-1.2,1.0518606632781424,1.2,-1.2,high,high,,ISIC_8241457.JPG,,ISIC_0027666.JPG,,25,true,0.15000000000000002,hh,keypress(i),0,false,199916.59999990463,199916.39999985695,196187.841,196412.69999980927,196204.642,199721.302,1,40,9,
sequence,flow.Sequence,6_8,2023-11-29T17:38:40.566Z,,,,,,,,,,,3711.7579998569563,completion,,,,,,,high,high,,,,,,,true,,,,,false,199916.79999995232,199916.39999985695,196187.841,196412.59999990463,196204.642,199721.302,1,40,,
trial,html.Screen,6_9_0,2023-11-29T17:38:48.430Z,,,,1,-1.2704198237183777,1.138121072015301,,,true,hl,8059.698000000004,response,1.2838089642212804,1.2,-1.2,-0.8550527900640753,1.2,-1.2,high,low,,ISIC_0501843.JPG,,ISIC_0034187.JPG,,29,true,0.3600000000000002,hl,keypress(j),0,false,207781.19999980927,207781,199687.875,199916.79999995232,199721.302,207571.291,1,40,10,
sequence,flow.Sequence,6_9,2023-11-29T17:38:48.431Z,,,,,,,,,,,8059.698000000004,completion,,,,,,,high,low,,,,,,,true,,,,,false,207781.5,207781,199687.875,199916.79999995232,199721.302,207571.291,1,40,,
trial,html.Screen,6_10_0,2023-11-29T17:38:57.237Z,,,,1,0.8479396253253069,-1.011054319516718,,,true,lh,9016.908999809268,response,-1.0345332538240786,1.2,-1.2,1.4719115945084815,1.2,-1.2,low,high,,ISIC_0063521.JPG,,ISIC_0192490.JPG,,26,true,0.3300000000000002,lh,keypress(e),0,false,216588.29999995232,216588.19999980927,207554.558,207781.59999990463,207571.291,216371.275,1,40,11,
sequence,flow.Sequence,6_10,2023-11-29T17:38:57.238Z,,,,,,,,,,,9016.908999809268,completion,,,,,,,low,high,,,,,,,true,,,,,false,216588.39999985695,216588.19999980927,207554.558,207781.59999990463,207571.291,216371.275,1,40,,
trial,html.Screen,6_11_0,2023-11-29T17:39:00.391Z,,,,1,1.4748095371445096,-0.9579010801034902,,,true,lh,3370.1249998569547,response,-0.8787496315223856,1.2,-1.2,1.3680901203013998,1.2,-1.2,low,high,,ISIC_0033216.JPG,,ISIC_0023811.JPG,,33,true,0.3600000000000002,lh,keypress(e),0,false,219741.69999980927,219741.39999985695,216354.584,216588.5,216371.275,219538.149,1,40,12,
sequence,flow.Sequence,6_11,2023-11-29T17:39:00.391Z,,,,,,,,,,,3370.1249998569547,completion,,,,,,,low,high,,,,,,,true,,,,,false,219742,219741.39999985695,216354.584,216588.5,216371.275,219538.149,1,40,,
trial,html.Screen,6_12_0,2023-11-29T17:39:03.134Z,,,,1,-1.1392234684115472,-1.3198277407683998,,,true,hh,2946.0509998092602,response,1.204229955025689,1.2,-1.2,1.0874249761617445,1.2,-1.2,high,high,,ISIC_0071875.JPG,,ISIC_0056930.JPG,,157,true,0.3600000000000002,hh,keypress(i),0,false,222484.39999985695,222484.19999980927,219521.263,219742.29999995232,219538.149,222271.326,1,40,13,
sequence,flow.Sequence,6_12,2023-11-29T17:39:03.134Z,,,,,,,,,,,2946.0509998092602,completion,,,,,,,high,high,,,,,,,true,,,,,false,222484.5,222484.19999980927,219521.263,219742.19999980927,219538.149,222271.326,1,40,,
trial,html.Screen,6_13_0,2023-11-29T17:39:05.270Z,,,,1,-1.2435042401134029,-1.2939710463315144,,,true,hh,2348.9739999523154,response,1.204229955025689,1.2,-1.2,1.0874249761617445,1.2,-1.2,high,high,,ISIC_0056119.JPG,,ISIC_0056930.JPG,,25,true,0.15000000000000002,hh,keypress(i),0,false,224620.5,224620.29999995232,222254.755,222484.59999990463,222271.326,224404.67,1,40,14,
sequence,flow.Sequence,6_13,2023-11-29T17:39:05.270Z,,,,,,,,,,,2348.9739999523154,completion,,,,,,,high,high,,,,,,,true,,,,,false,224620.59999990463,224620.29999995232,222254.755,222484.5,222271.326,224404.67,1,40,,
trial,html.Screen,6_14_0,2023-11-29T17:39:07.422Z,,,,1,1.1638334638021437,1.0846635401396965,,,true,ll,2367.9299999046198,response,-1.1126049058422398,1.2,-1.2,-1.2305421124063929,1.2,-1.2,low,low,,ISIC_4718313.JPG,,ISIC_0071536.JPG,,27,true,0.12,ll,keypress(f),0,false,226772.69999980927,226772.59999990463,224387.943,224620.69999980927,224404.67,226571.353,1,40,15,
sequence,flow.Sequence,6_14,2023-11-29T17:39:07.422Z,,,,,,,,,,,2367.9299999046198,completion,,,,,,,low,low,,,,,,,true,,,,,false,226772.89999985695,226772.59999990463,224387.943,224620.69999980927,224404.67,226571.353,1,40,,
trial,html.Screen,6_15_0,2023-11-29T17:39:08.854Z,,,,1,-0.9212323139676136,0.9882196642247332,,,true,hl,1633.546999856946,response,1.0003671514840182,1.2,-1.2,-0.8992716557663581,1.2,-1.2,high,low,,ISIC_0014255.JPG,,ISIC_0061749.JPG,,29,true,0.3600000000000002,hl,keypress(j),0,false,228205,228204.89999985695,226538.106,226772.89999985695,226571.353,227988.045,1,40,16,
sequence,flow.Sequence,6_15,2023-11-29T17:39:08.854Z,,,,,,,,,,,1633.546999856946,completion,,,,,,,high,low,,,,,,,true,,,,,false,228205.29999995232,228204.89999985695,226538.106,226772.89999985695,226571.353,227988.045,1,40,,
trial,html.Screen,6_16_0,2023-11-29T17:39:12.414Z,,,,1,-1.1407514641016443,-1.280017651202714,,,true,hh,3776.2549999523035,response,0.894033318100927,1.2,-1.2,0.9842451068179496,1.2,-1.2,high,high,,ISIC_0072507.JPG,,ISIC_0015298.JPG,,127,true,0.3300000000000002,hh,keypress(i),0,false,231764.5,231764.29999995232,227971.447,228205.5,227988.045,231554.684,1,40,17,
sequence,flow.Sequence,6_16,2023-11-29T17:39:12.414Z,,,,,,,,,,,3776.2549999523035,completion,,,,,,,high,high,,,,,,,true,,,,,false,231764.5,231764.29999995232,227971.447,228205.39999985695,227988.045,231554.684,1,40,,
trial,html.Screen,6_17_0,2023-11-29T17:39:15.566Z,,,,1,-0.8709576717420565,1.2795156779072283,,,true,hl,3362.415999904624,response,1.11329866545753,1.2,-1.2,-1.2155631217348757,1.2,-1.2,high,low,,ISIC_1925632.JPG,,ISIC_0032610.JPG,,29,true,0.3600000000000002,hl,keypress(j),0,false,234917.29999995232,234917.09999990463,231538.038,231764.59999990463,231554.684,234704.744,1,40,18,
sequence,flow.Sequence,6_17,2023-11-29T17:39:15.567Z,,,,,,,,,,,3362.415999904624,completion,,,,,,,high,low,,,,,,,true,,,,,false,234917.69999980927,234917.09999990463,231538.038,231764.59999990463,231554.684,234704.744,1,40,,
trial,html.Screen,6_18_0,2023-11-29T17:39:19.518Z,,,,1,-1.0264463986917702,1.171271535505083,,,true,hl,4164.155999856943,response,0.9013888878932071,1.2,-1.2,-0.9328095253308732,1.2,-1.2,high,low,,ISIC_7889838.JPG,,ISIC_0068259.JPG,,29,true,0.3600000000000002,hl,keypress(j),0,false,238868.89999985695,238868.89999985695,234688.091,234917.79999995232,234704.744,238654.684,1,40,19,
sequence,flow.Sequence,6_18,2023-11-29T17:39:19.518Z,,,,,,,,,,,4164.155999856943,completion,,,,,,,high,low,,,,,,,true,,,,,false,238869.19999980927,238868.89999985695,234688.091,234917.79999995232,234704.744,238654.684,1,40,,
trial,html.Screen,6_19_0,2023-11-29T17:39:21.719Z,,,,1,1.2615315960773072,-1.194084675079932,,,true,lh,2414.615999952308,response,-0.9566823908868002,1.2,-1.2,0.9602125665128364,1.2,-1.2,low,high,,ISIC_0010044.JPG,,ISIC_0056784.JPG,,26,true,0.3300000000000002,lh,keypress(e),0,false,241069.5,241069.29999995232,238637.921,238869.39999985695,238654.684,240871.407,1,40,20,
sequence,flow.Sequence,6_19,2023-11-29T17:39:21.720Z,,,,,,,,,,,2414.615999952308,completion,,,,,,,low,high,,,,,,,true,,,,,false,241069.69999980927,241069.29999995232,238637.921,238869.29999995232,238654.684,240871.407,1,40,,
trial,html.Screen,6_20_0,2023-11-29T17:39:23.991Z,,,,1,0.8591294258188253,-0.870797302150167,,,true,lh,2469.5929999999935,response,-1.2704198237183777,1.2,-1.2,1.138121072015301,1.2,-1.2,low,high,,ISIC_0055841.JPG,,ISIC_0501843.JPG,,33,true,0.3600000000000002,lh,keypress(e),0,false,243341.09999990463,243341,240838.056,241069.89999985695,240871.407,243138.06,1,40,21,
sequence,flow.Sequence,6_20,2023-11-29T17:39:23.991Z,,,,,,,,,,,2469.5929999999935,completion,,,,,,,low,high,,,,,,,true,,,,,false,243341.39999985695,243341,240838.056,241069.89999985695,240871.407,243138.06,1,40,,
trial,html.Screen,6_21_0,2023-11-29T17:39:28.598Z,,,,1,1.3515962101204746,-0.8414583575292955,,,true,lh,4810.239999952319,response,-0.8709576717420565,1.2,-1.2,1.2795156779072283,1.2,-1.2,low,high,,ISIC_0274382.JPG,,ISIC_1925632.JPG,,33,true,0.3600000000000002,lh,keypress(e),0,false,247948.39999985695,247948.29999995232,243121.539,243341.5,243138.06,247738.109,1,40,22,
sequence,flow.Sequence,6_21,2023-11-29T17:39:28.598Z,,,,,,,,,,,4810.239999952319,completion,,,,,,,low,high,,,,,,,true,,,,,false,247948.59999990463,247948.29999995232,243121.539,243341.5,243138.06,247738.109,1,40,,
trial,html.Screen,6_22_0,2023-11-29T17:39:34.527Z,,,,1,-1.2872758518949912,-1.313723254903214,,,true,hh,6138.6909999523195,response,1.363834651973641,1.2,-1.2,1.249665624917632,1.2,-1.2,high,high,,ISIC_0064376.JPG,,ISIC_2585066.JPG,,157,true,0.3600000000000002,hh,keypress(i),0,false,253877,253876.79999995232,247721.358,247948.69999980927,247738.109,253671.581,1,40,23,
sequence,flow.Sequence,6_22,2023-11-29T17:39:34.527Z,,,,,,,,,,,6138.6909999523195,completion,,,,,,,high,high,,,,,,,true,,,,,false,253877.29999995232,253876.79999995232,247721.358,247948.69999980927,247738.109,253671.581,1,40,,
trial,html.Screen,6_23_0,2023-11-29T17:39:38.030Z,,,,1,1.1363600109870835,1.295816345369928,,,true,ll,3708.9189999999944,response,-1.1894733304494307,1.2,-1.2,-1.1169761866204877,1.2,-1.2,low,low,,ISIC_0026141.JPG,,ISIC_0033813.JPG,,27,true,0.12,ll,keypress(f),0,false,257380.59999990463,257380.5,253654.63,253877.29999995232,253671.581,257171.357,1,40,24,
sequence,flow.Sequence,6_23,2023-11-29T17:39:38.031Z,,,,,,,,,,,3708.9189999999944,completion,,,,,,,low,low,,,,,,,true,,,,,false,257380.79999995232,257380.5,253654.63,253877.29999995232,253671.581,257171.357,1,40,,
trial,html.Screen,6_24_0,2023-11-29T17:39:39.591Z,,,,1,-0.9566823908868002,0.9602125665128364,,,true,hl,1769.4429999523272,response,1.1235224875125256,1.2,-1.2,-0.8641223012137988,1.2,-1.2,high,low,,ISIC_0056784.JPG,,ISIC_0033901.JPG,,29,true,0.3600000000000002,hl,keypress(j),0,false,258941,258940.79999995232,257154.861,257380.79999995232,257171.357,258754.933,1,40,25,
sequence,flow.Sequence,6_24,2023-11-29T17:39:39.591Z,,,,,,,,,,,1769.4429999523272,completion,,,,,,,high,low,,,,,,,true,,,,,false,258941.29999995232,258940.79999995232,257154.861,257380.79999995232,257171.357,258754.933,1,40,,
trial,html.Screen,6_25_0,2023-11-29T17:39:43.062Z,,,,1,1.301795918505203,1.0518606632781424,,,true,ll,3657.266999809275,response,-1.0602111027905514,1.2,-1.2,-1.470529430032402,1.2,-1.2,low,low,,ISIC_0027666.JPG,,ISIC_0033518.JPG,,211,true,0.3300000000000002,ll,keypress(f),0,false,262412.2999999523,262412.19999980927,258738.287,258941.39999985695,258754.933,262204.791,1,40,26,
sequence,flow.Sequence,6_25,2023-11-29T17:39:43.062Z,,,,,,,,,,,3657.266999809275,completion,,,,,,,low,low,,,,,,,true,,,,,false,262412.5,262412.19999980927,258738.287,258941.39999985695,258754.933,262204.791,1,40,,
trial,html.Screen,6_26_0,2023-11-29T17:39:48.479Z,,,,1,-1.2315945866020412,-1.13226141421557,,,true,hh,5624.408999809239,response,1.1655508270784471,1.2,-1.2,1.1162776063248168,1.2,-1.2,high,high,,ISIC_0033595.JPG,,ISIC_5509946.JPG,,25,true,0.15000000000000002,hh,keypress(i),0,false,267829.39999985695,267829.19999980927,262188.083,262412.59999990463,262204.791,267621.43,1,40,27,
sequence,flow.Sequence,6_26,2023-11-29T17:39:48.479Z,,,,,,,,,,,5624.408999809239,completion,,,,,,,high,high,,,,,,,true,,,,,false,267829.69999980927,267829.19999980927,262188.083,262412.59999990463,262204.791,267621.43,1,40,,
trial,html.Screen,6_27_0,2023-11-29T17:39:50.319Z,,,,1,1.0878102877901663,1.3154097543539391,,,true,ll,2047.2699998092721,response,-1.152619213055059,1.2,-1.2,-1.2957497771092716,1.2,-1.2,low,low,,ISIC_1413242.JPG,,ISIC_0061915.JPG,,27,true,0.12,ll,keypress(f),0,false,269668.89999985695,269668.69999980927,267604.67,267829.7999999523,267621.43,269454.704,1,40,28,
sequence,flow.Sequence,6_27,2023-11-29T17:39:50.319Z,,,,,,,,,,,2047.2699998092721,completion,,,,,,,low,low,,,,,,,true,,,,,false,269669,269668.69999980927,267604.67,267829.7999999523,267621.43,269454.704,1,40,,
trial,html.Screen,6_28_0,2023-11-29T17:39:54.102Z,,,,1,1.1655508270784471,1.1162776063248168,,,true,ll,3997.795999999973,response,-1.1320017221158485,1.2,-1.2,-1.065213496692536,1.2,-1.2,low,low,,ISIC_5509946.JPG,,ISIC_0030597.JPG,,41,true,0.15000000000000002,ll,keypress(f),0,false,273452.59999990463,273452.5,269438.103,269669.19999980927,269454.704,273238.064,1,40,29,
sequence,flow.Sequence,6_28,2023-11-29T17:39:54.103Z,,,,,,,,,,,3997.795999999973,completion,,,,,,,low,low,,,,,,,true,,,,,false,273452.7999999523,273452.5,269438.103,269669.09999990463,269454.704,273238.064,1,40,,
trial,html.Screen,6_29_0,2023-11-29T17:40:01.847Z,,,,1,1.1655508270784471,1.1162776063248168,,,true,ll,7958.635999809252,response,-1.2040551955011098,1.2,-1.2,-1.2664651062241792,1.2,-1.2,low,low,,ISIC_5509946.JPG,,ISIC_0068886.JPG,,41,true,0.15000000000000002,ll,keypress(f),0,false,281196.89999985695,281196.69999980927,273221.484,273452.89999985695,273238.064,280988.063,1,40,30,
sequence,flow.Sequence,6_29,2023-11-29T17:40:01.847Z,,,,,,,,,,,7958.635999809252,completion,,,,,,,low,low,,,,,,,true,,,,,false,281197,281196.69999980927,273221.484,273452.89999985695,273238.064,280988.063,1,40,,
trial,html.Screen,6_30_0,2023-11-29T17:40:03.928Z,,,,1,-0.9670240379618178,1.1806404773220665,,,true,hl,2289.336999856925,response,0.9087169856594104,1.2,-1.2,-0.8835647084207277,1.2,-1.2,high,low,,ISIC_0002288.JPG,,ISIC_0000349.JPG,,29,true,0.3600000000000002,hl,keypress(j),0,false,283277.7999999523,283277.39999985695,280971.241,281197.09999990463,280988.063,283071.481,1,40,31,
sequence,flow.Sequence,6_30,2023-11-29T17:40:03.928Z,,,,,,,,,,,2289.336999856925,completion,,,,,,,high,low,,,,,,,true,,,,,false,283278.09999990463,283277.39999985695,280971.241,281197,280988.063,283071.481,1,40,,
trial,html.Screen,6_31_0,2023-11-29T17:40:07.559Z,,,,1,0.849847885203758,-0.973447384095442,,,true,lh,3837.1189999046037,response,-0.9212323139676136,1.2,-1.2,0.9882196642247332,1.2,-1.2,low,high,,ISIC_9612228.JPG,,ISIC_0014255.JPG,,26,true,0.3300000000000002,lh,keypress(e),0,false,286908.89999985695,286908.59999990463,283054.826,283278.39999985695,283071.481,286704.897,1,40,32,
sequence,flow.Sequence,6_31,2023-11-29T17:40:07.559Z,,,,,,,,,,,3837.1189999046037,completion,,,,,,,low,high,,,,,,,true,,,,,false,286909,286908.59999990463,283054.826,283278.39999985695,283071.481,286704.897,1,40,,
trial,html.Screen,6_32_0,2023-11-29T17:40:09.998Z,,,,1,-1.1407514641016443,-1.280017651202714,,,true,hh,2643.402999952319,response,0.9512444996401545,1.2,-1.2,0.9046053086219094,1.2,-1.2,high,high,,ISIC_0072507.JPG,,ISIC_0059170.JPG,,157,true,0.3600000000000002,hh,keypress(i),0,false,289348.39999985695,289348.2999999523,286688.181,286909.19999980927,286704.897,289138.158,1,40,33,
sequence,flow.Sequence,6_32,2023-11-29T17:40:09.998Z,,,,,,,,,,,2643.402999952319,completion,,,,,,,high,high,,,,,,,true,,,,,false,289348.59999990463,289348.2999999523,286688.181,286909.19999980927,286704.897,289138.158,1,40,,
trial,html.Screen,6_33_0,2023-11-29T17:40:11.215Z,,,,1,1.3045229691102764,1.1781544075681951,,,true,ll,1426.8420000000042,response,-1.1894733304494307,1.2,-1.2,-1.1169761866204877,1.2,-1.2,low,low,,ISIC_6148533.JPG,,ISIC_0033813.JPG,,27,true,0.12,ll,keypress(f),0,false,290565.19999980927,290565,289121.473,289348.69999980927,289138.158,290371.437,1,40,34,
sequence,flow.Sequence,6_33,2023-11-29T17:40:11.215Z,,,,,,,,,,,1426.8420000000042,completion,,,,,,,low,low,,,,,,,true,,,,,false,290565.5,290565,289121.473,289348.69999980927,289138.158,290371.437,1,40,,
trial,html.Screen,6_34_0,2023-11-29T17:40:12.679Z,,,,1,1.0003671514840182,-0.8992716557663581,,,true,lh,1657.5630000000237,response,-0.8787496315223856,1.2,-1.2,1.3680901203013998,1.2,-1.2,low,high,,ISIC_0061749.JPG,,ISIC_0023811.JPG,,26,true,0.3300000000000002,lh,keypress(e),0,false,292029.09999990463,292029,290338.154,290565.69999980927,290371.437,291821.435,1,40,35,
sequence,flow.Sequence,6_34,2023-11-29T17:40:12.679Z,,,,,,,,,,,1657.5630000000237,completion,,,,,,,low,high,,,,,,,true,,,,,false,292029.5,292029,290338.154,290565.59999990463,290371.437,291821.435,1,40,,
trial,html.Screen,6_35_0,2023-11-29T17:40:14.327Z,,,,1,-0.887838744955182,1.3716210719758812,,,true,hl,1855.2649998092675,response,1.00615481805876,1.2,-1.2,-0.8428903771195875,1.2,-1.2,high,low,,ISIC_1488727.JPG,,ISIC_0069970.JPG,,29,true,0.3600000000000002,hl,keypress(j),0,false,293676.89999985695,293676.69999980927,291804.875,292029.5,291821.435,293471.451,1,40,36,
sequence,flow.Sequence,6_35,2023-11-29T17:40:14.327Z,,,,,,,,,,,1855.2649998092675,completion,,,,,,,high,low,,,,,,,true,,,,,false,293677.19999980927,293676.69999980927,291804.875,292029.5,291821.435,293471.451,1,40,,
trial,html.Screen,6_36_0,2023-11-29T17:40:21.464Z,,,,1,-1.2043484010107477,1.2178113180138233,,,true,hl,7341.648999904632,response,0.8779374983479176,1.2,-1.2,-0.9745548032823428,1.2,-1.2,high,low,,ISIC_0011917.JPG,,ISIC_2991354.JPG,,29,true,0.3600000000000002,hl,keypress(j),0,false,300813.39999985695,300813.09999990463,293454.74,293677.2999999523,293471.451,300604.79,1,40,37,
sequence,flow.Sequence,6_36,2023-11-29T17:40:21.464Z,,,,,,,,,,,7341.648999904632,completion,,,,,,,high,low,,,,,,,true,,,,,false,300813.69999980927,300813.09999990463,293454.74,293677.2999999523,293471.451,300604.79,1,40,,
trial,html.Screen,6_37_0,2023-11-29T17:40:27.000Z,,,,1,1.204229955025689,1.0874249761617445,,,true,ll,5744.509999952337,response,-0.871214853884121,1.2,-1.2,-1.4935263825977805,1.2,-1.2,low,low,,ISIC_0056930.JPG,,ISIC_0072473.JPG,,211,true,0.3300000000000002,ll,keypress(f),0,false,306349.59999990463,306349.2999999523,300587.87,300813.89999985695,300604.79,306138.195,1,40,38,
sequence,flow.Sequence,6_37,2023-11-29T17:40:27.000Z,,,,,,,,,,,5744.509999952337,completion,,,,,,,low,low,,,,,,,true,,,,,false,306349.89999985695,306349.2999999523,300587.87,300813.7999999523,300604.79,306138.195,1,40,,
trial,html.Screen,6_38_0,2023-11-29T17:40:29.607Z,,,,1,-1.2232482867978696,-1.2451219760556858,,,true,hh,2818.504999809258,response,1.1363600109870835,1.2,-1.2,1.295816345369928,1.2,-1.2,high,high,,ISIC_0030889.JPG,,ISIC_0026141.JPG,,25,true,0.15000000000000002,hh,keypress(i),0,false,308956.7999999523,308956.69999980927,306121.259,306350.09999990463,306138.195,308756.222,1,40,39,
sequence,flow.Sequence,6_38,2023-11-29T17:40:29.607Z,,,,,,,,,,,2818.504999809258,completion,,,,,,,high,high,,,,,,,true,,,,,false,308957,308956.69999980927,306121.259,306350,306138.195,308756.222,1,40,,
trial,html.Screen,6_39_0,2023-11-29T17:40:32.456Z,,,,1,1.2714351764931109,1.0785174776187512,,,true,ll,3048.67799985694,response,-1.194799101954455,1.2,-1.2,-1.2071632388858642,1.2,-1.2,low,low,,ISIC_2454898.JPG,,ISIC_4347535.JPG,,27,true,0.12,ll,keypress(f),0,false,311805.09999990463,311804.89999985695,308721.46,308957.09999990463,308756.222,311588.127,1,40,40,
sequence,flow.Sequence,6_39,2023-11-29T17:40:32.456Z,,,,,,,,,,,3048.67799985694,completion,,,,,,,low,low,,,,,,,true,,,,,false,311805.39999985695,311804.89999985695,308721.46,308957.09999990463,308756.222,311588.127,1,40,,
practice_loop,flow.Loop,6,2023-11-29T17:40:32.456Z,,,,,,,,,,,143233.63399985695,completion,,,,,,,,,,,,,,,true,,,,,false,311805.59999990463,311804.89999985695,168538.148,168780.29999995232,168571.266,311588.127,1,40,,
stair_instructions,html.Screen,7,2023-11-29T17:40:34.943Z,,,,,,,,,,,2703.8730000000214,response,,,,,,,,,,,,,,,,,continue,click button,,,314292.39999985695,314292,311571.614,311805.69999980927,311588.127,314088.38,,,,
trial,html.Screen,8_0_0,2023-11-29T17:40:49.371Z,,,,2,-0.0399381815506136,-0.0177751789152893,,0.04,false,hh,14631.519999856944,response,1.1217390688497193,1.2,-1.2,1.2276600934505035,1.2,-1.2,high,high,,ISIC_3981425.JPG,,ISIC_0026344.JPG,28,25,false,0.15000000000000002,lh,keypress(e),0,true,328720.09999990463,328719.89999985695,314071.671,314292.59999990463,314088.38,328521.449,1,40,1,
sequence,flow.Sequence,8_0,2023-11-29T17:40:49.371Z,,,,,,,,,,,14631.519999856944,completion,,,,,,,high,high,,,,,,,false,,,,,true,328720.09999990463,328719.89999985695,314071.671,314292.59999990463,314088.38,328521.449,1,40,,
trial,html.Screen,8_1_0,2023-11-29T17:40:53.872Z,,,,2,-0.0077673378094614,-0.0021810768579373,,0.04,true,ll,4699.550999999978,response,-1.078286816527963,1.2,-1.15,-1.1255116193013075,1.15,-1.15,low,low,,ISIC_0067621.JPG,,ISIC_0066213.JPG,28,25,false,0.11,ll,keypress(f),0,true,333221.2999999523,333221,328504.812,328720.19999980927,328521.449,333021.5,1,40,2,
sequence,flow.Sequence,8_1,2023-11-29T17:40:53.872Z,,,,,,,,,,,4699.550999999978,completion,,,,,,,low,low,,,,,,,false,,,,,true,333221.59999990463,333221,328504.812,328720.19999980927,328521.449,333021.5,1,40,,
trial,html.Screen,8_2_0,2023-11-29T17:40:57.554Z,,,,2,-0.0050679133050021,-0.0174815595031679,,0.04,false,lh,3882,response,-0.9566823908868002,1.15,-1.15,0.9602125665128364,1.15,-1.15,low,high,,ISIC_9848743.JPG,,ISIC_0056784.JPG,28,25,false,0.28000000000000014,ll,keypress(f),0,true,336903.69999980927,336903.5,332988.096,333221.7999999523,333021.5,336688.177,1,40,3,
sequence,flow.Sequence,8_2,2023-11-29T17:40:57.554Z,,,,,,,,,,,3882,completion,,,,,,,low,high,,,,,,,false,,,,,true,336903.7999999523,336903.5,332988.096,333221.7999999523,333021.5,336688.177,1,40,,
trial,html.Screen,8_3_0,2023-11-29T17:41:02.247Z,,,,2,0.0361875505619981,-0.0291457404567876,,0.04,false,hh,4908.422999904607,response,1.0831477774866454,1.15,-0.9910970050940537,1.0347343776726454,1.15,-1.15,high,high,,ISIC_0027480.JPG,,ISIC_9475559.JPG,28,26,false,0.14,lh,keypress(e),0,true,341596.69999980927,341596.59999990463,336671.528,336903.89999985695,336688.177,341388.221,1,40,4,
sequence,flow.Sequence,8_3,2023-11-29T17:41:02.247Z,,,,,,,,,,,4908.422999904607,completion,,,,,,,high,high,,,,,,,false,,,,,true,341596.89999985695,341596.59999990463,336671.528,336903.89999985695,336688.177,341388.221,1,40,,
trial,html.Screen,8_4_0,2023-11-29T17:41:06.872Z,,,,2,-0.0077673378094614,-0.0021810768579373,,0.04,false,hl,4832.578999952297,response,1.2615315960773072,1.15,-0.9910970050940537,-1.194084675079932,1.15,-1.15,high,low,,ISIC_0067621.JPG,,ISIC_0010044.JPG,28,27,false,0.31000000000000016,hh,keypress(i),0,true,346221.09999990463,346220.7999999523,341371.467,341597,341388.221,346004.856,1,40,5,
sequence,flow.Sequence,8_4,2023-11-29T17:41:06.872Z,,,,,,,,,,,4832.578999952297,completion,,,,,,,high,low,,,,,,,false,,,,,true,346221.2999999523,346220.7999999523,341371.467,341596.89999985695,341388.221,346004.856,1,40,,
trial,html.Screen,8_5_0,2023-11-29T17:41:11.943Z,,,,2,-0.0060934073440827,-0.0279108145883031,,0.04,true,hh,5287.943999952287,response,1.1217390688497193,1.15,-0.9910970050940537,1.2276600934505035,1.15,-1.15,high,high,,ISIC_0032604.JPG,,ISIC_0026344.JPG,28,26,false,0.14,hh,keypress(i),0,true,351293,351292.7999999523,345988.007,346221.5,346004.856,351088.196,1,40,6,
sequence,flow.Sequence,8_5,2023-11-29T17:41:11.944Z,,,,,,,,,,,5287.943999952287,completion,,,,,,,high,high,,,,,,,false,,,,,true,351293.19999980927,351292.7999999523,345988.007,346221.5,346004.856,351088.196,1,40,,
trial,html.Screen,8_6_0,2023-11-29T17:41:16.888Z,,,,2,0.0189295602385628,0.0128812415435153,,0.04,true,lh,5149.203999856953,response,-1.0748728054622358,1.1945958447639053,-0.9910970050940537,1.2840853987892311,1.1945958447639053,-1.15,low,high,,ISIC_0010372.JPG,,ISIC_0059219.JPG,28,25,false,0.22000000000000008,lh,keypress(e),0,true,356237.59999990463,356237.39999985695,351071.571,351293.2999999523,351088.196,356021.544,1,40,7,
sequence,flow.Sequence,8_6,2023-11-29T17:41:16.888Z,,,,,,,,,,,5149.203999856953,completion,,,,,,,low,high,,,,,,,false,,,,,true,356237.89999985695,356237.39999985695,351071.571,351293.2999999523,351088.196,356021.544,1,40,,
trial,html.Screen,8_7_0,2023-11-29T17:41:20.665Z,,,,2,-0.0399381815506136,-0.0177751789152893,,0.04,false,hl,3991.6559998092707,response,1.4727776799485246,1.1945958447639053,-0.9910970050940537,-0.8779113138076752,1.1945958447639053,-1.15,high,low,,ISIC_3981425.JPG,,ISIC_0033074.JPG,28,26,false,0.3300000000000002,ll,keypress(f),0,true,360013.39999985695,360013.19999980927,356004.827,356238,356021.544,359804.882,1,40,8,
sequence,flow.Sequence,8_7,2023-11-29T17:41:20.665Z,,,,,,,,,,,3991.6559998092707,completion,,,,,,,high,low,,,,,,,false,,,,,true,360013.69999980927,360013.19999980927,356004.827,356238,356021.544,359804.882,1,40,,
trial,html.Screen,8_8_0,2023-11-29T17:41:26.496Z,,,,2,-0.0071892445601978,0.0246015408628738,,0.04,true,hh,6039.917999952333,response,1.212030980680325,1.1945958447639053,-0.9910970050940537,1.139863018685685,1.1945958447639053,-1.15,high,high,,ISIC_0014133.JPG,,ISIC_0008510.JPG,28,31,false,0.16000000000000003,hh,keypress(i),0,true,365845,365844.7999999523,359788.08,360014,359804.882,365638.22,1,40,9,
sequence,flow.Sequence,8_8,2023-11-29T17:41:26.496Z,,,,,,,,,,,6039.917999952333,completion,,,,,,,high,high,,,,,,,false,,,,,true,365845.09999990463,365844.7999999523,359788.08,360013.89999985695,359804.882,365638.22,1,40,,
trial,html.Screen,8_9_0,2023-11-29T17:41:32.928Z,,,,2,0.0189295602385628,0.0128812415435153,,0.04,true,lh,6638.280000000028,response,-0.781391003063482,1.1945958447639053,-0.9910970050940537,0.9644960393010829,1.125946999683005,-1.15,low,high,,ISIC_0010372.JPG,,ISIC_2087913.JPG,28,25,false,0.21000000000000008,lh,keypress(e),0,true,372276.59999990463,372276.5,365621.348,365845.19999980927,365638.22,372071.526,1,40,10,
sequence,flow.Sequence,8_9,2023-11-29T17:41:32.928Z,,,,,,,,,,,6638.280000000028,completion,,,,,,,low,high,,,,,,,false,,,,,true,372276.7999999523,372276.5,365621.348,365845.19999980927,365638.22,372071.526,1,40,,
trial,html.Screen,8_10_0,2023-11-29T17:41:38.216Z,,,,2,-0.0158987717472563,-0.0292472192292015,,0.04,false,lh,5492.873999856936,response,-0.7782962657329482,1.1945958447639053,-0.9410970050940537,1.2893909821621488,1.125946999683005,-1.15,low,high,,ISIC_1366765.JPG,,ISIC_0012883.JPG,28,27,false,0.20000000000000007,ll,keypress(f),0,true,377564.5,377564.39999985695,372054.64,372276.7999999523,372071.526,377354.873,1,40,11,
sequence,flow.Sequence,8_10,2023-11-29T17:41:38.216Z,,,,,,,,,,,5492.873999856936,completion,,,,,,,low,high,,,,,,,false,,,,,true,377564.69999980927,377564.39999985695,372054.64,372276.7999999523,372071.526,377354.873,1,40,,
trial,html.Screen,8_11_0,2023-11-29T17:41:42.041Z,,,,2,0.0189295602385628,0.0128812415435153,,0.04,false,hl,4034.426999952295,response,0.9087169856594104,1.1945958447639053,-0.9410970050940537,-0.8835647084207277,1.175946999683005,-1.15,high,low,,ISIC_0010372.JPG,,ISIC_0000349.JPG,28,26,false,0.3300000000000002,hh,keypress(i),0,true,381389.5,381389.2999999523,377338.15,377564.7999999523,377354.873,381171.596,1,40,12,
sequence,flow.Sequence,8_11,2023-11-29T17:41:42.041Z,,,,,,,,,,,4034.426999952295,completion,,,,,,,high,low,,,,,,,false,,,,,true,381389.7999999523,381389.2999999523,377338.15,377564.69999980927,377354.873,381171.596,1,40,,
trial,html.Screen,8_12_0,2023-11-29T17:41:47.201Z,,,,2,-0.00126575685933,-0.0325046559638838,,0.04,true,hh,5377.803999856929,response,0.9949679201447648,1.1445958447639053,-0.9410970050940537,1.0468574143792184,1.175946999683005,-1.15,high,high,,ISIC_5682259.JPG,,ISIC_6640753.JPG,28,31,false,0.15000000000000002,hh,keypress(i),0,true,386549.59999990463,386549.39999985695,381154.908,381390,381171.596,386338.284,1,40,13,
sequence,flow.Sequence,8_12,2023-11-29T17:41:47.201Z,,,,,,,,,,,5377.803999856929,completion,,,,,,,high,high,,,,,,,false,,,,,true,386550,386549.39999985695,381154.908,381389.89999985695,381171.596,386338.284,1,40,,
trial,html.Screen,8_13_0,2023-11-29T17:41:51.608Z,,,,2,-0.0060934073440827,-0.0279108145883031,,0.04,true,ll,4618.3159999046475,response,-0.8888187899385174,1.1445958447639053,-0.9410970050940537,-1.2022111230186514,1.175946999683005,-1.15,low,low,,ISIC_0032604.JPG,,ISIC_0070285.JPG,28,29,false,0.1,ll,keypress(f),0,true,390956.7999999523,390956.59999990463,386321.547,386550.09999990463,386338.284,390738.199,1,40,14,
sequence,flow.Sequence,8_13,2023-11-29T17:41:51.608Z,,,,,,,,,,,4618.3159999046475,completion,,,,,,,low,low,,,,,,,false,,,,,true,390956.7999999523,390956.59999990463,386321.547,386550.09999990463,386338.284,390738.199,1,40,,
trial,html.Screen,8_14_0,2023-11-29T17:42:00.120Z,,,,2,0.0051046740562181,-0.0178832721027728,,0.04,false,ll,8730.200999856927,response,-0.9693644437173125,1.1445958447639053,-0.9955149564785843,-1.114502123877908,1.175946999683005,-1.15,low,low,,ISIC_9545819.JPG,,ISIC_0014795.JPG,28,32,false,0.1,lh,keypress(e),0,true,399468.5,399468.39999985695,390721.484,390956.89999985695,390738.199,399254.926,1,40,15,
sequence,flow.Sequence,8_14,2023-11-29T17:42:00.120Z,,,,,,,,,,,8730.200999856927,completion,,,,,,,low,low,,,,,,,false,,,,,true,399468.59999990463,399468.39999985695,390721.484,390956.89999985695,390738.199,399254.926,1,40,,
trial,html.Screen,8_15_0,2023-11-29T17:42:03.073Z,,,,2,0.010035581303589,-0.0100711721396864,,0.04,true,hh,3166.473999856971,response,1.0064329161780483,1.1445958447639053,-0.9955149564785843,1.0631481857644678,1.175946999683005,-1.15,high,high,,ISIC_0030592.JPG,,ISIC_0033137.JPG,28,31,false,0.15000000000000002,hh,keypress(i),0,true,402421.69999980927,402421.39999985695,399238.068,399468.59999990463,399254.926,402204.934,1,40,16,
sequence,flow.Sequence,8_15,2023-11-29T17:42:03.073Z,,,,,,,,,,,3166.473999856971,completion,,,,,,,high,high,,,,,,,false,,,,,true,402422.09999990463,402421.39999985695,399238.068,399468.59999990463,399254.926,402204.934,1,40,,
trial,html.Screen,8_16_0,2023-11-29T17:42:05.864Z,,,,2,-0.0071892445601978,0.0246015408628738,,0.04,false,lh,3008.2659998092568,response,-1.155796217969438,1.0945958447639053,-0.9955149564785843,1.1646564121743912,1.125946999683005,-1.15,low,high,,ISIC_0014133.JPG,,ISIC_2685523.JPG,28,25,false,0.21000000000000008,ll,keypress(f),0,true,405213.2999999523,405213.19999980927,402188.375,402422.39999985695,402204.934,405005.134,1,40,17,
sequence,flow.Sequence,8_16,2023-11-29T17:42:05.865Z,,,,,,,,,,,3008.2659998092568,completion,,,,,,,low,high,,,,,,,false,,,,,true,405213.69999980927,405213.19999980927,402188.375,402422.2999999523,402204.934,405005.134,1,40,,
trial,html.Screen,8_17_0,2023-11-29T17:42:10.456Z,,,,2,-0.0060918352854008,0.029032683404407,,0.04,true,ll,4799.86599999998,response,-1.0474638406367112,1.0945958447639053,-1.0125803308433752,-1.2142897533079478,1.175946999683005,-1.15,low,low,,ISIC_8436194.JPG,,ISIC_0025277.JPG,28,29,false,0.1,ll,keypress(f),0,true,409805.2999999523,409805,404988.375,405213.7999999523,405005.134,409588.276,1,40,18,
sequence,flow.Sequence,8_17,2023-11-29T17:42:10.457Z,,,,,,,,,,,4799.86599999998,completion,,,,,,,low,low,,,,,,,false,,,,,true,409805.39999985695,409805,404988.375,405213.7999999523,405005.134,409588.276,1,40,,
trial,html.Screen,8_18_0,2023-11-29T17:42:12.777Z,,,,2,-0.0166849894750452,0.0371614812368835,,0.04,true,ll,2537.1239998569363,response,-1.094624209823328,1.0945958447639053,-1.0125803308433752,-1.0544499428769605,1.175946999683005,-1.15,low,low,,ISIC_6231450.JPG,,ISIC_0055526.JPG,28,29,false,0.1,ll,keypress(f),0,true,412125.69999980927,412125.39999985695,409571.447,409805.59999990463,409588.276,411921.659,1,40,19,
sequence,flow.Sequence,8_18,2023-11-29T17:42:12.777Z,,,,,,,,,,,2537.1239998569363,completion,,,,,,,low,low,,,,,,,false,,,,,true,412126.09999990463,412125.39999985695,409571.447,409805.59999990463,409588.276,411921.659,1,40,,
trial,html.Screen,8_19_0,2023-11-29T17:42:15.528Z,,,,2,-0.0060934073440827,-0.0279108145883031,,0.04,true,hh,2954.9409999046475,response,1.1990772227054871,1.0945958447639053,-1.084369848092454,1.1224329926844498,1.175946999683005,-1.084369848092454,high,high,,ISIC_0032604.JPG,,ISIC_3425388.JPG,28,26,false,0.13,hh,keypress(i),0,true,414876.69999980927,414876.59999990463,411904.976,412126.19999980927,411921.659,414671.676,1,40,20,
sequence,flow.Sequence,8_19,2023-11-29T17:42:15.528Z,,,,,,,,,,,2954.9409999046475,completion,,,,,,,high,high,,,,,,,false,,,,,true,414876.7999999523,414876.59999990463,411904.976,412126.19999980927,411921.659,414671.676,1,40,,
trial,html.Screen,8_20_0,2023-11-29T17:42:21.826Z,,,,2,0.0063515208248796,0.0194177605767913,,0.04,true,lh,6502.324000000022,response,-0.8688859182707874,1.0945958447639053,-1.084369848092454,0.9566733172438716,1.175946999683005,-1.084369848092454,low,high,,ISIC_5281908.JPG,,ISIC_0640770.JPG,28,26,false,0.2500000000000001,lh,keypress(e),0,true,421174.19999980927,421174,414654.998,414876.89999985695,414671.676,420971.851,1,40,21,
sequence,flow.Sequence,8_20,2023-11-29T17:42:21.826Z,,,,,,,,,,,6502.324000000022,completion,,,,,,,low,high,,,,,,,false,,,,,true,421174.5,421174,414654.998,414876.89999985695,414671.676,420971.851,1,40,,
trial,html.Screen,8_21_0,2023-11-29T17:42:26.848Z,,,,2,0.0327772618698018,-0.0056908372048728,,0.04,false,hh,5224.748999904608,response,1.1802887330422154,1.0945958447639053,-1.084369848092454,1.0224375154810723,1.125946999683005,-1.084369848092454,high,high,,ISIC_7897925.JPG,,ISIC_9225640.JPG,28,27,false,0.12,lh,keypress(e),0,true,426196.69999980927,426196.59999990463,420954.757,421174.69999980927,420971.851,425988.333,1,40,22,
sequence,flow.Sequence,8_21,2023-11-29T17:42:26.849Z,,,,,,,,,,,5224.748999904608,completion,,,,,,,high,high,,,,,,,false,,,,,true,426196.7999999523,426196.59999990463,420954.757,421174.59999990463,420971.851,425988.333,1,40,,
trial,html.Screen,8_22_0,2023-11-29T17:42:30.633Z,,,,2,-0.0350697500805515,-0.0166617848231997,,0.04,false,lh,3992.366999809281,response,-1.0700930503975157,1.1445958447639053,-1.084369848092454,0.923753102263735,1.125946999683005,-1.084369848092454,low,high,,ISIC_0024423.JPG,,ISIC_0000022.JPG,28,28,false,0.2500000000000001,hh,keypress(i),0,true,429980.89999985695,429980.69999980927,425971.659,426196.89999985695,425988.333,429771.594,1,40,23,
sequence,flow.Sequence,8_22,2023-11-29T17:42:30.633Z,,,,,,,,,,,3992.366999809281,completion,,,,,,,low,high,,,,,,,false,,,,,true,429981.09999990463,429980.69999980927,425971.659,426196.89999985695,425988.333,429771.594,1,40,,
trial,html.Screen,8_23_0,2023-11-29T17:42:34.856Z,,,,2,0.0127320821962457,-0.0315308940184827,,0.04,false,lh,4432.906000000017,response,-1.3124242061831477,1.1445958447639053,-1.134369848092454,0.7025847074684173,0.9230953088724037,-1.084369848092454,low,high,,ISIC_8156101.JPG,,ISIC_0033332.JPG,28,30,false,0.2300000000000001,hl,keypress(j),0,true,434204.69999980927,434204.5,429755.059,429981.09999990463,429771.594,433988.291,1,40,24,
sequence,flow.Sequence,8_23,2023-11-29T17:42:34.856Z,,,,,,,,,,,4432.906000000017,completion,,,,,,,low,high,,,,,,,false,,,,,true,434204.7999999523,434204.5,429755.059,429981.09999990463,429771.594,433988.291,1,40,,
trial,html.Screen,8_24_0,2023-11-29T17:42:42.656Z,,,,2,-0.0060918352854008,0.029032683404407,,0.04,true,ll,8016.108999856922,response,-1.2359980588867217,1.1445958447639053,-1.184369848092454,-1.0529964469124329,0.9730953088724037,-1.084369848092454,low,low,,ISIC_8436194.JPG,,ISIC_0032840.JPG,28,31,false,0.12,ll,keypress(f),0,true,442004.59999990463,442004.39999985695,433971.639,434204.7999999523,433988.291,441788.292,1,40,25,
sequence,flow.Sequence,8_24,2023-11-29T17:42:42.656Z,,,,,,,,,,,8016.108999856922,completion,,,,,,,low,low,,,,,,,false,,,,,true,442004.69999980927,442004.39999985695,433971.639,434204.7999999523,433988.291,441788.292,1,40,,
trial,html.Screen,8_25_0,2023-11-29T17:42:50.529Z,,,,2,-0.0118555311043871,-0.0087774532070196,,0.04,false,hl,8089.107999856933,response,1.3515962101204746,1.1445958447639053,-1.184369848092454,-0.8414583575292955,0.9730953088724037,-1.084369848092454,high,low,,ISIC_6488658.JPG,,ISIC_0274382.JPG,28,25,false,0.27000000000000013,hh,keypress(i),0,true,449877.59999990463,449877.39999985695,441771.592,442004.7999999523,441788.292,449671.701,1,40,26,
sequence,flow.Sequence,8_25,2023-11-29T17:42:50.530Z,,,,,,,,,,,8089.107999856933,completion,,,,,,,high,low,,,,,,,false,,,,,true,449878,449877.39999985695,441771.592,442004.7999999523,441788.292,449671.701,1,40,,
trial,html.Screen,8_26_0,2023-11-29T17:42:53.072Z,,,,2,0.0367218428225813,-0.0026956749740767,,0.04,false,hl,2748.8989999046316,response,0.849847885203758,1.1445958447639053,-1.184369848092454,-0.973447384095442,0.9730953088724037,-1.134369848092454,high,low,,ISIC_7212271.JPG,,ISIC_9612228.JPG,28,28,false,0.30000000000000016,hh,keypress(i),0,true,452420.69999980927,452420.59999990463,449654.704,449878.09999990463,449671.701,452204.966,1,40,27,
sequence,flow.Sequence,8_26,2023-11-29T17:42:53.073Z,,,,,,,,,,,2748.8989999046316,completion,,,,,,,high,low,,,,,,,false,,,,,true,452420.89999985695,452420.59999990463,449654.704,449878.09999990463,449671.701,452204.966,1,40,,
trial,html.Screen,8_27_0,2023-11-29T17:42:58.057Z,,,,2,-0.0166849894750452,0.0371614812368835,,0.04,false,hl,5199.833999952301,response,1.0143509683988825,1.0507220476621162,-1.184369848092454,-1.0281980567462463,0.9730953088724037,-1.184369848092454,high,low,,ISIC_6231450.JPG,,ISIC_0062031.JPG,28,28,false,0.3200000000000002,ll,keypress(f),0,true,457405,457404.7999999523,452188.294,452421,452204.966,457188.316,1,40,28,
sequence,flow.Sequence,8_27,2023-11-29T17:42:58.057Z,,,,,,,,,,,5199.833999952301,completion,,,,,,,high,low,,,,,,,false,,,,,true,457405.09999990463,457404.7999999523,452188.294,452421,452204.966,457188.316,1,40,,
trial,html.Screen,8_28_0,2023-11-29T17:43:02.048Z,,,,2,-0.0350697500805515,-0.0166617848231997,,0.04,true,hl,4208.3839998092735,response,0.8070820195894357,1.1007220476621162,-1.184369848092454,-0.8958120092147633,0.9730953088724037,-1.184369848092454,high,low,,ISIC_0024423.JPG,,ISIC_0060585.JPG,28,25,false,0.3200000000000002,hl,keypress(j),0,true,461396.69999980927,461396.69999980927,457171.626,457405.19999980927,457188.316,461188.375,1,40,29,
sequence,flow.Sequence,8_28,2023-11-29T17:43:02.049Z,,,,,,,,,,,4208.3839998092735,completion,,,,,,,high,low,,,,,,,false,,,,,true,461396.89999985695,461396.69999980927,457171.626,457405.19999980927,457188.316,461188.375,1,40,,
trial,html.Screen,8_29_0,2023-11-29T17:43:05.184Z,,,,2,-0.012810673904807,0.00400964452501,,0.04,false,hl,3344.125,response,0.9039158082670506,1.1007220476621162,-1.184369848092454,-1.0517562064343149,0.9730953088724037,-1.134369848092454,high,low,,ISIC_0064656.JPG,,ISIC_0015411.JPG,28,25,false,0.29000000000000015,hh,keypress(i),0,true,464532.59999990463,464532.5,461171.608,461396.89999985695,461188.375,464321.741,1,40,30,
sequence,flow.Sequence,8_29,2023-11-29T17:43:05.184Z,,,,,,,,,,,3344.125,completion,,,,,,,high,low,,,,,,,false,,,,,true,464532.7999999523,464532.5,461171.608,461396.89999985695,461188.375,464321.741,1,40,,
trial,html.Screen,8_30_0,2023-11-29T17:43:07.280Z,,,,2,0.010035581303589,-0.0100711721396864,,0.04,false,ll,2306.8589999046526,response,-1.3034518282811869,0.8054989139282431,-1.184369848092454,-1.0897657776277234,0.9730953088724037,-1.184369848092454,low,low,,ISIC_0030592.JPG,,ISIC_0071988.JPG,28,30,false,0.12,hl,keypress(j),0,true,466628.7999999523,466628.59999990463,464305.141,464532.7999999523,464321.741,466421.672,1,40,31,
sequence,flow.Sequence,8_30,2023-11-29T17:43:07.281Z,,,,,,,,,,,2306.8589999046526,completion,,,,,,,low,low,,,,,,,false,,,,,true,466628.89999985695,466628.59999990463,464305.141,464532.7999999523,464321.741,466421.672,1,40,,
trial,html.Screen,8_31_0,2023-11-29T17:43:10.808Z,,,,2,0.0327772618698018,-0.0056908372048728,,0.04,false,lh,3734.927999904612,response,-1.2704198237183777,0.8054989139282431,-1.184369848092454,1.138121072015301,0.9730953088724037,-1.184369848092454,low,high,,ISIC_7897925.JPG,,ISIC_0501843.JPG,28,25,false,0.2500000000000001,ll,keypress(f),0,true,470156.69999980927,470156.59999990463,466405.197,466628.89999985695,466421.672,469938.325,1,40,32,
sequence,flow.Sequence,8_31,2023-11-29T17:43:10.809Z,,,,,,,,,,,3734.927999904612,completion,,,,,,,low,high,,,,,,,false,,,,,true,470156.7999999523,470156.59999990463,466405.197,466628.89999985695,466421.672,469938.325,1,40,,
trial,html.Screen,8_32_0,2023-11-29T17:43:14.305Z,,,,2,-0.0060934073440827,-0.0279108145883031,,0.04,false,hl,3714.8749998092535,response,0.7044626395896347,0.8054989139282431,-1.184369848092454,-1.1821868813141057,1.0230953088724037,-1.184369848092454,high,low,,ISIC_0032604.JPG,,ISIC_0024317.JPG,28,28,false,0.21000000000000008,hh,keypress(i),0,true,473653.5,473653.19999980927,469921.77,470156.7999999523,469938.325,473438.399,1,40,33,
sequence,flow.Sequence,8_32,2023-11-29T17:43:14.306Z,,,,,,,,,,,3714.8749998092535,completion,,,,,,,high,low,,,,,,,false,,,,,true,473653.89999985695,473653.19999980927,469921.77,470156.7999999523,469938.325,473438.399,1,40,,
trial,html.Screen,8_33_0,2023-11-29T17:43:18.136Z,,,,2,0.0365981355399771,0.0162670920008846,,0.04,true,ll,4046.200999904657,response,-1.2289750544294995,0.8054989139282431,-1.184369848092454,-1.3003764624334877,1.0230953088724037,-1.184369848092454,low,low,,ISIC_0982855.JPG,,ISIC_0054167.JPG,28,30,false,0.12,ll,keypress(f),0,true,477484.69999980927,477484.59999990463,473421.699,473654,473438.399,477271.653,1,40,34,
sequence,flow.Sequence,8_33,2023-11-29T17:43:18.137Z,,,,,,,,,,,4046.200999904657,completion,,,,,,,low,low,,,,,,,false,,,,,true,477484.89999985695,477484.59999990463,473421.699,473654,473438.399,477271.653,1,40,,
trial,html.Screen,8_34_0,2023-11-29T17:43:20.081Z,,,,2,-0.00126575685933,-0.0325046559638838,,0.04,true,ll,2156.847000000009,response,-1.078286816527963,0.8054989139282431,-1.1646757584314935,-1.1255116193013075,1.0230953088724037,-1.184369848092454,low,low,,ISIC_5682259.JPG,,ISIC_0066213.JPG,28,29,false,0.12,ll,keypress(f),0,true,479428.59999990463,479428.5,477254.882,477485,477271.653,479221.829,1,40,35,
sequence,flow.Sequence,8_34,2023-11-29T17:43:20.081Z,,,,,,,,,,,2156.847000000009,completion,,,,,,,low,low,,,,,,,false,,,,,true,479428.7999999523,479428.5,477254.882,477485,477271.653,479221.829,1,40,,
trial,html.Screen,8_35_0,2023-11-29T17:43:25.121Z,,,,2,-0.0377791839943904,0.0227626648172468,,0.04,true,hh,5247.170999999973,response,0.8641919449610089,0.8054989139282431,-1.1646757584314935,1.0259812523869525,1.0230953088724037,-1.0518992179146351,high,high,,ISIC_7167479.JPG,,ISIC_7903838.JPG,28,40,false,0.1,hh,keypress(i),0,true,484469.19999980927,484469,479205.229,479428.7999999523,479221.829,484254.996,1,40,36,
sequence,flow.Sequence,8_35,2023-11-29T17:43:25.122Z,,,,,,,,,,,5247.170999999973,completion,,,,,,,high,high,,,,,,,false,,,,,true,484469.2999999523,484469,479205.229,479428.7999999523,479221.829,484254.996,1,40,,
trial,html.Screen,8_36_0,2023-11-29T17:43:30.202Z,,,,2,0.0127320821962457,-0.0315308940184827,,0.04,true,hh,5294.2039998092805,response,0.9371720357162444,0.8950865986739807,-1.1646757584314935,0.9507421943628228,1.0230953088724037,-1.0518992179146351,high,high,,ISIC_8156101.JPG,,ISIC_3730327.JPG,28,30,false,0.1,hh,keypress(i),0,true,489549.39999985695,489549.19999980927,484238.187,484469.5,484254.996,489338.465,1,40,37,
sequence,flow.Sequence,8_36,2023-11-29T17:43:30.202Z,,,,,,,,,,,5294.2039998092805,completion,,,,,,,high,high,,,,,,,false,,,,,true,489549.7999999523,489549.19999980927,484238.187,484469.39999985695,484254.996,489338.465,1,40,,
trial,html.Screen,8_37_0,2023-11-29T17:43:32.753Z,,,,2,-0.0060918352854008,0.029032683404407,,0.04,false,hl,2762.4349998569232,response,0.717897378657649,0.8950865986739807,-1.1646757584314935,-0.8788356736457825,0.8939571150395336,-1.0518992179146351,high,low,,ISIC_8436194.JPG,,ISIC_3963183.JPG,28,25,false,0.19000000000000006,ll,keypress(f),0,true,492101,492100.89999985695,489321.524,489550,489338.465,491888.381,1,40,38,
sequence,flow.Sequence,8_37,2023-11-29T17:43:32.754Z,,,,,,,,,,,2762.4349998569232,completion,,,,,,,high,low,,,,,,,false,,,,,true,492101.19999980927,492100.89999985695,489321.524,489550,489338.465,491888.381,1,40,,
trial,html.Screen,8_38_0,2023-11-29T17:43:37.490Z,,,,2,0.0127320821962457,-0.0315308940184827,,0.04,false,ll,4949.018999856955,response,-1.0561331896671369,0.9450865986739807,-1.1646757584314935,-1.026183861508091,0.8939571150395336,-1.0518992179146351,low,low,,ISIC_8156101.JPG,,ISIC_0026595.JPG,28,26,false,0.11,hl,keypress(j),0,true,496837.69999980927,496837.39999985695,491871.822,492101.39999985695,491888.381,496621.714,1,40,39,
sequence,flow.Sequence,8_38,2023-11-29T17:43:37.490Z,,,,,,,,,,,4949.018999856955,completion,,,,,,,low,low,,,,,,,false,,,,,true,496838.09999990463,496837.39999985695,491871.822,492101.39999985695,491888.381,496621.714,1,40,,
trial,html.Screen,8_39_0,2023-11-29T17:43:44.210Z,,,,2,0.0367218428225813,-0.0026956749740767,,0.04,false,lh,6935.385999904654,response,-1.0700930503975157,0.9450865986739807,-1.1646757584314935,0.923753102263735,0.8939571150395336,-0.9025097675769367,low,high,,ISIC_7212271.JPG,,ISIC_0000022.JPG,28,35,false,0.2500000000000001,ll,keypress(f),0,true,503557.39999985695,503557.09999990463,496604.863,496838.2999999523,496621.714,503371.961,1,40,40,
sequence,flow.Sequence,8_39,2023-11-29T17:43:44.210Z,,,,,,,,,,,6935.385999904654,completion,,,,,,,low,high,,,,,,,false,,,,,true,503557.69999980927,503557.09999990463,496604.863,496838.19999980927,496621.714,503371.961,1,40,,
stair_loop,flow.Loop,8,2023-11-29T17:43:44.210Z,,,,,,,,,,,189468.71999990463,completion,,,,,,,,,,,,,,,false,,,,,true,503557.89999985695,503557.09999990463,314071.671,314292.5,314088.38,503371.961,1,40,,
exp_instructions,html.Screen,9,2023-11-29T17:43:46.633Z,,,,,,,,,,,2608.238999809255,response,,,,,,,,,,,,,,,,,continue,keypress(Space),,,505980.89999985695,505980.19999980927,503355.245,503558,503371.961,505771.695,,,,
trial,html.Screen,10_0_0,2023-11-29T17:43:50.412Z,,,,1,0.0361875505619981,-0.0291457404567876,,0.04,false,lh,3987.504999809258,response,-1.2313629723857695,0.9838838467299537,-1.1609616211941653,0.8233104214456342,0.9966523334190633,-1.108782718031114,low,high,,ISIC_0027480.JPG,8,ISIC_3475660.JPG,28,27,false,0.2400000000000001,ll,keypress(f),0,false,509759.2999999523,509759.19999980927,505755.176,505981.09999990463,505771.695,509555.306,5,600,1,
break,html.Screen,10_0_1,2023-11-29T17:43:50.412Z,,,,,,,,,,,NaN,,,,,,,,low,high,,,,,,,false,,,,,false,509759.7999999523,509759.5,,509759.2999999523,,509555.306,5,600,,
break_continue,html.Screen,10_0_2,2023-11-29T17:43:50.412Z,,,,,,,,,,,NaN,,,,,,,,low,high,,,,,,,false,,,,,false,509760,509759.7999999523,,509759.7999999523,,509555.306,5,600,,
sequence,flow.Sequence,10_0,2023-11-29T17:43:50.412Z,,,,,,,,,,,3988.1049999523093,completion,,,,,,,low,high,,,,,,,false,,,,,false,509760.09999990463,509759.7999999523,505755.176,505981.09999990463,505771.695,509555.306,5,600,,
trial,html.Screen,10_1_0,2023-11-29T17:43:53.418Z,,,,1,-0.012020985739544,0.0126097407389903,,0.04,true,ll,3209.7939999046503,response,-1.084683602025889,0.9838838467299537,-1.1609616211941653,-1.0111744161375118,0.9966523334190633,-1.108782718031114,low,low,,ISIC_0069379.JPG,9,ISIC_0069946.JPG,28,30,false,0.12,ll,keypress(f),0,false,512765.19999980927,512765.09999990463,509538.489,509760.09999990463,509555.306,512555.096,5,600,2,
break,html.Screen,10_1_1,2023-11-29T17:43:53.418Z,,,,,,,,,,,NaN,,,,,,,,low,low,,,,,,,false,,,,,false,512766,512765.69999980927,,512765.39999985695,,512555.096,5,600,,
break_continue,html.Screen,10_1_2,2023-11-29T17:43:53.419Z,,,,,,,,,,,NaN,,,,,,,,low,low,,,,,,,false,,,,,false,512766.5,512766.2999999523,,512766.09999990463,,512555.096,5,600,,
sequence,flow.Sequence,10_1,2023-11-29T17:43:53.419Z,,,,,,,,,,,3210.993999952334,completion,,,,,,,low,low,,,,,,,false,,,,,false,512766.59999990463,512766.2999999523,509538.489,509760.09999990463,509555.306,512555.096,5,600,,
trial,html.Screen,10_2_0,2023-11-29T17:43:56.833Z,,,,1,-0.0050679133050021,-0.0174815595031679,,0.04,true,ll,3625.4039999999804,response,-1.0570280672376675,0.9838838467299537,-1.1609616211941653,-1.0932046580095067,0.9966523334190633,-1.108782718031114,low,low,,ISIC_9848743.JPG,9,ISIC_0061320.JPG,28,30,false,0.12,ll,keypress(f),0,false,516180.59999990463,516180.5,512538.392,512766.69999980927,512555.096,515971.804,5,600,3,
break,html.Screen,10_2_1,2023-11-29T17:43:56.833Z,,,,,,,,,,,NaN,,,,,,,,low,low,,,,,,,false,,,,,false,516180.89999985695,516180.7999999523,,516180.59999990463,,515971.804,5,600,,
break_continue,html.Screen,10_2_2,2023-11-29T17:43:56.833Z,,,,,,,,,,,NaN,,,,,,,,low,low,,,,,,,false,,,,,false,516181,516181,,516181,,515971.804,5,600,,
sequence,flow.Sequence,10_2,2023-11-29T17:43:56.833Z,,,,,,,,,,,3625.9039999999804,completion,,,,,,,low,low,,,,,,,false,,,,,false,516181.09999990463,516181,512538.392,512766.69999980927,512555.096,515971.804,5,600,,
trial,html.Screen,10_3_0,2023-11-29T17:44:03.489Z,,,,1,-0.0060918352854008,0.029032683404407,,0.04,true,lh,6864.795999904629,response,-1.2043484010107477,0.9838838467299537,-1.1609616211941653,1.2178113180138233,0.9966523334190633,-1.108782718031114,low,high,,ISIC_8436194.JPG,9,ISIC_0011917.JPG,28,27,false,0.2400000000000001,lh,keypress(e),0,false,522836.69999980927,522836.59999990463,515954.987,516181.19999980927,515971.804,522621.747,5,600,4,
break,html.Screen,10_3_1,2023-11-29T17:44:03.490Z,,,,,,,,,,,NaN,,,,,,,,low,high,,,,,,,false,,,,,false,522837.19999980927,522837.09999990463,,522836.89999985695,,522621.747,5,600,,
break_continue,html.Screen,10_3_2,2023-11-29T17:44:03.490Z,,,,,,,,,,,NaN,,,,,,,,low,high,,,,,,,false,,,,,false,522837.39999985695,522837.39999985695,,522837.2999999523,,522621.747,5,600,,
sequence,flow.Sequence,10_3,2023-11-29T17:44:03.490Z,,,,,,,,,,,6865.595999856945,completion,,,,,,,low,high,,,,,,,false,,,,,false,522837.59999990463,522837.39999985695,515954.987,516181.19999980927,515971.804,522621.747,5,600,,
trial,html.Screen,10_4_0,2023-11-29T17:44:07.377Z,,,,1,-0.0077673378094614,-0.0021810768579373,,0.04,false,hh,4103.152999856975,response,0.9991910338212396,0.9838838467299537,-1.1609616211941653,1.0085499824556403,0.9966523334190633,-1.108782718031114,high,high,,ISIC_0067621.JPG,9,ISIC_7795549.JPG,28,28,false,0.1,ll,keypress(f),0,false,526725.1999998093,526724.899999857,522605.284,522837.59999990463,522621.747,526521.733,5,600,5,
break,html.Screen,10_4_1,2023-11-29T17:44:07.378Z,,,,,,,,,,,NaN,,,,,,,,high,high,,,,,,,false,,,,,false,526726,526725.7999999523,,526725.399999857,,526521.733,5,600,,
break_continue,html.Screen,10_4_2,2023-11-29T17:44:07.379Z,,,,,,,,,,,NaN,,,,,,,,high,high,,,,,,,false,,,,,false,526726.5,526726.399999857,,526726.1999998093,,526521.733,5,600,,
sequence,flow.Sequence,10_4,2023-11-29T17:44:07.379Z,,,,,,,,,,,4104.652999856975,completion,,,,,,,high,high,,,,,,,false,,,,,false,526726.6999998093,526726.399999857,522605.284,522837.59999990463,522621.747,526521.733,5,600,,
trial,html.Screen,10_5_0,2023-11-29T17:44:12.786Z,,,,1,-0.0060918352854008,0.029032683404407,,0.04,false,hh,5611.366999904625,response,0.9991910338212396,0.9838838467299537,-1.1609616211941653,1.0085499824556403,0.9966523334190633,-1.108782718031114,high,high,,ISIC_8436194.JPG,9,ISIC_7795549.JPG,28,28,false,0.1,hl,keypress(j),0,false,532133.2999999523,532133.0999999046,526505.171,526726.899999857,526521.733,531921.733,5,600,6,
break,html.Screen,10_5_1,2023-11-29T17:44:12.786Z,,,,,,,,,,,NaN,,,,,,,,high,high,,,,,,,false,,,,,false,532134.1999998093,532134,,532133.5999999046,,531921.733,5,600,,
break_continue,html.Screen,10_5_2,2023-11-29T17:44:12.787Z,,,,,,,,,,,NaN,,,,,,,,high,high,,,,,,,false,,,,,false,532134.5999999046,532134.5,,532134.399999857,,531921.733,5,600,,
sequence,flow.Sequence,10_5,2023-11-29T17:44:12.787Z,,,,,,,,,,,5612.766999999993,completion,,,,,,,high,high,,,,,,,false,,,,,false,532134.899999857,532134.5,526505.171,526726.899999857,526521.733,531921.733,5,600,,
trial,html.Screen,10_6_0,2023-11-29T17:44:17.562Z,,,,1,-0.0050679133050021,-0.0174815595031679,,0.04,false,lh,4987.466999809258,response,-1.1682648288591504,0.9838838467299537,-1.1609616211941653,0.7749773174967559,0.9966523334190633,-1.108782718031114,low,high,,ISIC_9848743.JPG,8,ISIC_3936223.JPG,28,27,false,0.2400000000000001,hh,keypress(i),0,false,536909.5,536909.1999998093,531904.905,532135,531921.733,536705.074,5,600,7,
break,html.Screen,10_6_1,2023-11-29T17:44:17.563Z,,,,,,,,,,,NaN,,,,,,,,low,high,,,,,,,false,,,,,false,536910.6999998093,536910.399999857,,536909.7999999523,,536705.074,5,600,,
break_continue,html.Screen,10_6_2,2023-11-29T17:44:17.564Z,,,,,,,,,,,NaN,,,,,,,,low,high,,,,,,,false,,,,,false,536911.399999857,536911.1999998093,,536910.899999857,,536705.074,5,600,,
sequence,flow.Sequence,10_6,2023-11-29T17:44:17.564Z,,,,,,,,,,,4989.466999809258,completion,,,,,,,low,high,,,,,,,false,,,,,false,536911.899999857,536911.1999998093,531904.905,532134.899999857,531921.733,536705.074,5,600,,
trial,html.Screen,10_7_0,2023-11-29T17:44:22.418Z,,,,1,-0.0077673378094614,-0.0021810768579373,,0.04,false,lh,5059.425999999978,response,-1.135372722680314,0.9838838467299537,-1.1609616211941653,0.7741624649032207,0.9966523334190633,-1.108782718031114,low,high,,ISIC_0067621.JPG,9,ISIC_2355513.JPG,28,27,false,0.2400000000000001,ll,keypress(f),0,false,541764.5999999046,541764.5,536688.524,536912.1999998093,536705.074,541571.8,5,600,8,
break,html.Screen,10_7_1,2023-11-29T17:44:22.418Z,,,,,,,,,,,NaN,,,,,,,,low,high,,,,,,,false,,,,,false,541764.899999857,541764.7999999523,,541764.6999998093,,541571.8,5,600,,
break_continue,html.Screen,10_7_2,2023-11-29T17:44:22.418Z,,,,,,,,,,,NaN,,,,,,,,low,high,,,,,,,false,,,,,false,541765.0999999046,541765.0999999046,,541765,,541571.8,5,600,,
sequence,flow.Sequence,10_7,2023-11-29T17:44:22.418Z,,,,,,,,,,,5060.02599990461,completion,,,,,,,low,high,,,,,,,false,,,,,false,541765.1999998093,541765.0999999046,536688.524,536912.0999999046,536705.074,541571.8,5,600,,
trial,html.Screen,10_8_0,2023-11-29T17:44:25.867Z,,,,1,-0.0060934073440827,-0.0279108145883031,,0.04,true,ll,3641.6999999999534,response,-1.094624209823328,0.9838838467299537,-1.1609616211941653,-1.0544499428769605,0.9966523334190633,-1.108782718031114,low,low,,ISIC_0032604.JPG,8,ISIC_0055526.JPG,28,30,false,0.12,ll,keypress(f),0,false,545213.7999999523,545213.5,541556.214,541765.1999998093,541571.8,545005.141,5,600,9,
break,html.Screen,10_8_1,2023-11-29T17:44:25.868Z,,,,,,,,,,,NaN,,,,,,,,low,low,,,,,,,false,,,,,false,545214.6999998093,545214.399999857,,545214,,545005.141,5,600,,
break_continue,html.Screen,10_8_2,2023-11-29T17:44:25.868Z,,,,,,,,,,,NaN,,,,,,,,low,low,,,,,,,false,,,,,false,545215.399999857,545215.1999998093,,545215,,545005.141,5,600,,
sequence,flow.Sequence,10_8,2023-11-29T17:44:25.869Z,,,,,,,,,,,3643.3999998092186,completion,,,,,,,low,low,,,,,,,false,,,,,false,545215.5999999046,545215.1999998093,541556.214,541765.1999998093,541571.8,545005.141,5,600,,
trial,html.Screen,10_9_0,2023-11-29T17:44:27.962Z,,,,1,0.0361875505619981,-0.0291457404567876,,0.04,true,ll,2303.758999857004,response,-1.2383563585964383,0.9838838467299537,-1.1609616211941653,-1.0364354388740975,0.9966523334190633,-1.108782718031114,low,low,,ISIC_0027480.JPG,10,ISIC_0027622.JPG,28,30,false,0.12,ll,keypress(f),0,false,547309,547308.899999857,544988.338,545215.7999999523,545005.141,547105.248,5,600,10,
break,html.Screen,10_9_1,2023-11-29T17:44:27.963Z,,,,,,,,,,,NaN,,,,,,,,low,low,,,,,,,false,,,,,false,547309.5999999046,547309.5,,547309.2999999523,,547105.248,5,600,,
break_continue,html.Screen,10_9_2,2023-11-29T17:44:27.963Z,,,,,,,,,,,NaN,,,,,,,,low,low,,,,,,,false,,,,,false,547310,547309.899999857,,547309.7999999523,,547105.248,5,600,,
sequence,flow.Sequence,10_9,2023-11-29T17:44:27.963Z,,,,,,,,,,,2304.758999857004,completion,,,,,,,low,low,,,,,,,false,,,,,false,547310.0999999046,547309.899999857,544988.338,545215.7999999523,545005.141,547105.248,5,600,,
trial,html.Screen,10_10_0,2023-11-29T17:44:31.258Z,,,,1,0.010035581303589,-0.0100711721396864,,0.04,false,hh,3500.051999952295,response,1.004164099430695,0.9838838467299537,-1.1609616211941653,1.0674669038247562,0.9966523334190633,-1.108782718031114,high,high,,ISIC_0030592.JPG,9,ISIC_0541345.JPG,28,28,false,0.1,hl,keypress(j),0,false,550605.5,550605.2999999523,547088.438,547310.2999999523,547105.248,550388.475,5,600,11,
break,html.Screen,10_10_1,2023-11-29T17:44:31.259Z,,,,,,,,,,,NaN,,,,,,,,high,high,,,,,,,false,,,,,false,550606.2999999523,550606.0999999046,,550605.6999998093,,550388.475,5,600,,
break_continue,html.Screen,10_10_2,2023-11-29T17:44:31.260Z,,,,,,,,,,,NaN,,,,,,,,high,high,,,,,,,false,,,,,false,550606.899999857,550606.6999998093,,550606.5,,550388.475,5,600,,
sequence,flow.Sequence,10_10,2023-11-29T17:44:31.260Z,,,,,,,,,,,3501.4519998092437,completion,,,,,,,high,high,,,,,,,false,,,,,false,550607,550606.6999998093,547088.438,547310.1999998093,547105.248,550388.475,5,600,,
trial,html.Screen,10_11_0,2023-11-29T17:44:35.257Z,,,,1,0.0189295602385628,0.0128812415435153,,0.04,false,hl,4215.82499995234,response,0.8591294258188253,0.9838838467299537,-1.1609616211941653,-0.870797302150167,0.9966523334190633,-1.108782718031114,high,low,,ISIC_0010372.JPG,9,ISIC_0055841.JPG,28,27,false,0.2500000000000001,hh,keypress(i),0,false,554604.2999999523,554604.2999999523,550371.692,550607.1999998093,550388.475,554388.399,5,600,12,
break,html.Screen,10_11_1,2023-11-29T17:44:35.258Z,,,,,,,,,,,NaN,,,,,,,,high,low,,,,,,,false,,,,,false,554604.6999998093,554604.6999998093,,554604.5,,554388.399,5,600,,
break_continue,html.Screen,10_11_2,2023-11-29T17:44:35.258Z,,,,,,,,,,,NaN,,,,,,,,high,low,,,,,,,false,,,,,false,554604.899999857,554604.7999999523,,554604.7999999523,,554388.399,5,600,,
sequence,flow.Sequence,10_11,2023-11-29T17:44:35.258Z,,,,,,,,,,,4216.32499995234,completion,,,,,,,high,low,,,,,,,false,,,,,false,554605,554604.7999999523,550371.692,550607.1999998093,550388.475,554388.399,5,600,,
trial,html.Screen,10_12_0,2023-11-29T17:44:37.803Z,,,,1,0.0365981355399771,0.0162670920008846,,0.04,true,hh,2761.200999904657,response,0.894033318100927,0.9838838467299537,-1.1609616211941653,0.9842451068179496,0.9966523334190633,-1.108782718031114,high,high,,ISIC_0982855.JPG,9,ISIC_0015298.JPG,28,28,false,0.1,hh,keypress(i),0,false,557149.6999998093,557149.5999999046,554371.783,554605,554388.399,556938.444,5,600,13,
break,html.Screen,10_12_1,2023-11-29T17:44:37.803Z,,,,,,,,,,,NaN,,,,,,,,high,high,,,,,,,false,,,,,false,557150,557149.899999857,,557149.7999999523,,556938.444,5,600,,
break_continue,html.Screen,10_12_2,2023-11-29T17:44:37.803Z,,,,,,,,,,,NaN,,,,,,,,high,high,,,,,,,false,,,,,false,557150.1999998093,557150.1999998093,,557150,,556938.444,5,600,,
sequence,flow.Sequence,10_12,2023-11-29T17:44:37.803Z,,,,,,,,,,,2761.8009998092894,completion,,,,,,,high,high,,,,,,,false,,,,,false,557150.2999999523,557150.1999998093,554371.783,554605,554388.399,556938.444,5,600,,
trial,html.Screen,10_13_0,2023-11-29T17:44:42.242Z,,,,1,0.0327772618698018,-0.0056908372048728,,0.04,false,lh,4650.555999999982,response,-1.082730232773217,0.9838838467299537,-1.1609616211941653,0.8833175387485132,0.9966523334190633,-1.108782718031114,low,high,,ISIC_7897925.JPG,8,ISIC_0011933.JPG,28,27,false,0.2400000000000001,ll,keypress(f),0,false,561589.0999999046,561589,556921.832,557150.2999999523,556938.444,561371.808,5,600,14,
break,html.Screen,10_13_1,2023-11-29T17:44:42.243Z,,,,,,,,,,,NaN,,,,,,,,low,high,,,,,,,false,,,,,false,561589.6999998093,561589.5,,561589.2999999523,,561371.808,5,600,,
break_continue,html.Screen,10_13_2,2023-11-29T17:44:42.243Z,,,,,,,,,,,NaN,,,,,,,,low,high,,,,,,,false,,,,,false,561590,561589.899999857,,561589.6999998093,,561371.808,5,600,,
sequence,flow.Sequence,10_13,2023-11-29T17:44:42.243Z,,,,,,,,,,,4651.455999856931,completion,,,,,,,low,high,,,,,,,false,,,,,false,561590.0999999046,561589.899999857,556921.832,557150.2999999523,556938.444,561371.808,5,600,,
trial,html.Screen,10_14_0,2023-11-29T17:44:46.290Z,,,,1,-0.0023664502831079,-0.0252784582169994,,0.04,true,hl,4264.692000000039,response,0.7637711273759356,0.9838838467299537,-1.1609616211941653,-1.241686518790416,0.9966523334190633,-1.108782718031114,high,low,,ISIC_4156010.JPG,9,ISIC_0032925.JPG,28,27,false,0.2500000000000001,hl,keypress(j),0,false,565636.5999999046,565636.5,561355.202,561590.1999998093,561371.808,565421.791,5,600,15,
break,html.Screen,10_14_1,2023-11-29T17:44:46.290Z,,,,,,,,,,,NaN,,,,,,,,high,low,,,,,,,false,,,,,false,565636.899999857,565636.7999999523,,565636.6999998093,,565421.791,5,600,,
break_continue,html.Screen,10_14_2,2023-11-29T17:44:46.290Z,,,,,,,,,,,NaN,,,,,,,,high,low,,,,,,,false,,,,,false,565637.0999999046,565637,,565636.899999857,,565421.791,5,600,,
sequence,flow.Sequence,10_14,2023-11-29T17:44:46.290Z,,,,,,,,,,,4265.192000000039,completion,,,,,,,high,low,,,,,,,false,,,,,false,565637.0999999046,565637,561355.202,561590.1999998093,561371.808,565421.791,5,600,,
trial,html.Screen,10_15_0,2023-11-29T17:44:49.618Z,,,,1,-0.0166849894750452,0.0371614812368835,,0.04,true,ll,3542.908999809297,response,-1.0762260610050776,0.9838838467299537,-1.1609616211941653,-1.1184338818466155,0.9966523334190633,-1.108782718031114,low,low,,ISIC_6231450.JPG,8,ISIC_0058666.JPG,28,30,false,0.12,ll,keypress(f),0,false,568964.7999999523,568964.6999998093,565405.283,565637.0999999046,565421.791,568755.152,5,600,16,
break,html.Screen,10_15_1,2023-11-29T17:44:49.618Z,,,,,,,,,,,NaN,,,,,,,,low,low,,,,,,,false,,,,,false,568965.2999999523,568965.0999999046,,568965,,568755.152,5,600,,
break_continue,html.Screen,10_15_2,2023-11-29T17:44:49.619Z,,,,,,,,,,,NaN,,,,,,,,low,low,,,,,,,false,,,,,false,568965.5,568965.399999857,,568965.399999857,,568755.152,5,600,,
sequence,flow.Sequence,10_15,2023-11-29T17:44:49.619Z,,,,,,,,,,,3543.6089998569805,completion,,,,,,,low,low,,,,,,,false,,,,,false,568965.5999999046,568965.399999857,565405.283,565637.0999999046,565421.791,568755.152,5,600,,
trial,html.Screen,10_16_0,2023-11-29T17:44:55.042Z,,,,1,0.010035581303589,-0.0100711721396864,,0.04,true,hl,5633.847999999998,response,1.0003671514840182,0.9838838467299537,-1.1609616211941653,-0.8992716557663581,0.9966523334190633,-1.108782718031114,high,low,,ISIC_0030592.JPG,10,ISIC_0061749.JPG,28,27,false,0.2500000000000001,hl,keypress(j),0,false,574389.2999999523,574389,568738.426,568965.6999998093,568755.152,574171.828,5,600,17,
break,html.Screen,10_16_1,2023-11-29T17:44:55.043Z,,,,,,,,,,,NaN,,,,,,,,high,low,,,,,,,false,,,,,false,574389.899999857,574389.6999998093,,574389.5,,574171.828,5,600,,
break_continue,html.Screen,10_16_2,2023-11-29T17:44:55.043Z,,,,,,,,,,,NaN,,,,,,,,high,low,,,,,,,false,,,,,false,574390.2999999523,574390.0999999046,,574390,,574171.828,5,600,,
sequence,flow.Sequence,10_16,2023-11-29T17:44:55.043Z,,,,,,,,,,,5634.947999904631,completion,,,,,,,high,low,,,,,,,false,,,,,false,574390.399999857,574390.0999999046,568738.426,568965.6999998093,568755.152,574171.828,5,600,,
trial,html.Screen,10_17_0,2023-11-29T17:44:57.787Z,,,,1,-0.0158987717472563,-0.0292472192292015,,0.04,true,hl,2961.471999952337,response,0.8779374983479176,0.9838838467299537,-1.1609616211941653,-0.9745548032823428,0.9966523334190633,-1.108782718031114,high,low,,ISIC_1366765.JPG,9,ISIC_2991354.JPG,28,27,false,0.2500000000000001,hl,keypress(j),0,false,577133.5999999046,577133.2999999523,574155.276,574390.5999999046,574171.828,576921.868,5,600,18,
break,html.Screen,10_17_1,2023-11-29T17:44:57.787Z,,,,,,,,,,,NaN,,,,,,,,high,low,,,,,,,false,,,,,false,577134.399999857,577134.1999998093,,577133.899999857,,576921.868,5,600,,
break_continue,html.Screen,10_17_2,2023-11-29T17:44:57.788Z,,,,,,,,,,,NaN,,,,,,,,high,low,,,,,,,false,,,,,false,577135,577134.899999857,,577134.6999998093,,576921.868,5,600,,
sequence,flow.Sequence,10_17,2023-11-29T17:44:57.788Z,,,,,,,,,,,2963.0719998569693,completion,,,,,,,high,low,,,,,,,false,,,,,false,577135.1999998093,577134.899999857,574155.276,574390.5,574171.828,576921.868,5,600,,
trial,html.Screen,10_18_0,2023-11-29T17:45:00.538Z,,,,1,-0.0166849894750452,0.0371614812368835,,0.04,true,hh,2962.6319999999832,response,0.9116506478817816,0.9838838467299537,-1.1609616211941653,1.0416072379908032,0.9966523334190633,-1.108782718031114,high,high,,ISIC_6231450.JPG,8,ISIC_3273370.JPG,28,28,false,0.1,hh,keypress(i),0,false,579884.5999999046,579884.5,576905.065,577135.399999857,576921.868,579671.776,5,600,19,
break,html.Screen,10_18_1,2023-11-29T17:45:00.538Z,,,,,,,,,,,NaN,,,,,,,,high,high,,,,,,,false,,,,,false,579885,579884.899999857,,579884.6999998093,,579671.776,5,600,,
break_continue,html.Screen,10_18_2,2023-11-29T17:45:00.538Z,,,,,,,,,,,NaN,,,,,,,,high,high,,,,,,,false,,,,,false,579885.2999999523,579885.1999998093,,579885.0999999046,,579671.776,5,600,,
sequence,flow.Sequence,10_18,2023-11-29T17:45:00.538Z,,,,,,,,,,,2963.3319998092484,completion,,,,,,,high,high,,,,,,,false,,,,,false,579885.399999857,579885.1999998093,576905.065,577135.399999857,576921.868,579671.776,5,600,,
trial,html.Screen,10_19_0,2023-11-29T17:45:03.890Z,,,,1,-0.0060934073440827,-0.0279108145883031,,0.04,false,hh,3564.7240000000456,response,1.0236565951660872,0.9838838467299537,-1.1609616211941653,0.9220772824737548,0.9966523334190633,-1.108782718031114,high,high,,ISIC_0032604.JPG,9,ISIC_3209501.JPG,28,28,false,0.1,hl,keypress(j),0,false,583236.6999998093,583236.5,579655.203,579885.399999857,579671.776,583021.842,5,600,20,
break,html.Screen,10_19_1,2023-11-29T17:45:03.890Z,,,,,,,,,,,NaN,,,,,,,,high,high,,,,,,,false,,,,,false,583237.1999998093,583237.0999999046,,583236.899999857,,583021.842,5,600,,
break_continue,html.Screen,10_19_2,2023-11-29T17:45:03.891Z,,,,,,,,,,,NaN,,,,,,,,high,high,,,,,,,false,,,,,false,583237.5999999046,583237.399999857,,583237.1999998093,,583021.842,5,600,,
sequence,flow.Sequence,10_19,2023-11-29T17:45:03.891Z,,,,,,,,,,,3565.6239998569945,completion,,,,,,,high,high,,,,,,,false,,,,,false,583237.5999999046,583237.399999857,579655.203,579885.399999857,579671.776,583021.842,5,600,,
trial,html.Screen,10_20_0,2023-11-29T17:45:08.290Z,,,,1,0.0189295602385628,0.0128812415435153,,0.04,false,hl,4615.257999904687,response,0.9385447468573198,0.9838838467299537,-1.1609616211941653,-1.2289860846064424,0.9966523334190633,-1.108782718031114,high,low,,ISIC_0010372.JPG,8,ISIC_0032780.JPG,28,27,false,0.2500000000000001,hh,keypress(i),0,false,587637.2999999523,587637.0999999046,583005.259,583237.7999999523,583021.842,587421.842,5,600,21,
break,html.Screen,10_20_1,2023-11-29T17:45:08.291Z,,,,,,,,,,,NaN,,,,,,,,high,low,,,,,,,false,,,,,false,587637.7999999523,587637.7999999523,,587637.5,,587421.842,5,600,,
break_continue,html.Screen,10_20_2,2023-11-29T17:45:08.291Z,,,,,,,,,,,NaN,,,,,,,,high,low,,,,,,,false,,,,,false,587638.1999998093,587638.0999999046,,587638,,587421.842,5,600,,
sequence,flow.Sequence,10_20,2023-11-29T17:45:08.291Z,,,,,,,,,,,4616.257999904687,completion,,,,,,,high,low,,,,,,,false,,,,,false,587638.399999857,587638.0999999046,583005.259,583237.6999998093,583021.842,587421.842,5,600,,
trial,html.Screen,10_21_0,2023-11-29T17:45:14.074Z,,,,1,0.0189295602385628,0.0128812415435153,,0.04,false,hh,5999.257999904687,response,0.9696118525781644,0.9838838467299537,-1.1609616211941653,0.9712966348713286,0.9966523334190633,-1.108782718031114,high,high,,ISIC_0010372.JPG,9,ISIC_7927525.JPG,28,28,false,0.1,ll,keypress(f),0,false,593421.399999857,593421.0999999046,587405.247,587638.5,587421.842,593205.19,5,600,22,
break,html.Screen,10_21_1,2023-11-29T17:45:14.075Z,,,,,,,,,,,NaN,,,,,,,,high,high,,,,,,,false,,,,,false,593422.1999998093,593422,,593421.6999998093,,593205.19,5,600,,
break_continue,html.Screen,10_21_2,2023-11-29T17:45:14.076Z,,,,,,,,,,,NaN,,,,,,,,high,high,,,,,,,false,,,,,false,593422.6999998093,593422.5999999046,,593422.5,,593205.19,5,600,,
sequence,flow.Sequence,10_21,2023-11-29T17:45:14.076Z,,,,,,,,,,,6000.757999904687,completion,,,,,,,high,high,,,,,,,false,,,,,false,593423,593422.5999999046,587405.247,587638.5,587421.842,593205.19,5,600,,
trial,html.Screen,10_22_0,2023-11-29T17:45:16.138Z,,,,1,0.0361875505619981,-0.0291457404567876,,0.04,false,hh,2280.009999809321,response,0.8854665385930431,0.9838838467299537,-1.1609616211941653,0.9330258572707198,0.9966523334190633,-1.108782718031114,high,high,,ISIC_0027480.JPG,8,ISIC_0026889.JPG,28,28,false,0.1,ll,keypress(f),0,false,595485.5,595485.1999998093,593188.499,593423.1999998093,593205.19,595271.818,5,600,23,
break,html.Screen,10_22_1,2023-11-29T17:45:16.139Z,,,,,,,,,,,NaN,,,,,,,,high,high,,,,,,,false,,,,,false,595486.399999857,595486,,595485.6999998093,,595271.818,5,600,,
break_continue,html.Screen,10_22_2,2023-11-29T17:45:16.140Z,,,,,,,,,,,NaN,,,,,,,,high,high,,,,,,,false,,,,,false,595487.0999999046,595486.899999857,,595486.5999999046,,595271.818,5,600,,
sequence,flow.Sequence,10_22,2023-11-29T17:45:16.140Z,,,,,,,,,,,2281.7099998570047,completion,,,,,,,high,high,,,,,,,false,,,,,false,595487.399999857,595486.899999857,593188.499,593423.0999999046,593205.19,595271.818,5,600,,
trial,html.Screen,10_23_0,2023-11-29T17:45:19.610Z,,,,1,-0.0399381815506136,-0.0177751789152893,,0.04,false,hh,3684.881999809295,response,1.0437497612294713,0.9838838467299537,-1.1609616211941653,0.93059645456522,0.9966523334190633,-1.108782718031114,high,high,,ISIC_3981425.JPG,8,ISIC_0032357.JPG,28,28,false,0.1,ll,keypress(f),0,false,598956.7999999523,598956.6999998093,595255.357,595487.6999998093,595271.818,598738.472,5,600,24,
break,html.Screen,10_23_1,2023-11-29T17:45:19.610Z,,,,,,,,,,,NaN,,,,,,,,high,high,,,,,,,false,,,,,false,598957.0999999046,598957,,598956.899999857,,598738.472,5,600,,
break_continue,html.Screen,10_23_2,2023-11-29T17:45:19.610Z,,,,,,,,,,,NaN,,,,,,,,high,high,,,,,,,false,,,,,false,598957.1999998093,598957.1999998093,,598957.0999999046,,598738.472,5,600,,
sequence,flow.Sequence,10_23,2023-11-29T17:45:19.610Z,,,,,,,,,,,3685.381999809295,completion,,,,,,,high,high,,,,,,,false,,,,,false,598957.2999999523,598957.1999998093,595255.357,595487.6999998093,595271.818,598738.472,5,600,,
trial,html.Screen,10_24_0,2023-11-29T17:45:24.171Z,,,,1,0.0127320821962457,-0.0315308940184827,,0.04,true,hl,4778.7279998093145,response,0.9385447468573198,0.9838838467299537,-1.1609616211941653,-1.2289860846064424,0.9966523334190633,-1.108782718031114,high,low,,ISIC_8156101.JPG,9,ISIC_0032780.JPG,28,27,false,0.2500000000000001,hl,keypress(j),0,false,603517.5,603517.1999998093,598721.981,598957.2999999523,598738.472,603305.169,5,600,25,
break,html.Screen,10_24_1,2023-11-29T17:45:24.172Z,,,,,,,,,,,NaN,,,,,,,,high,low,,,,,,,false,,,,,false,603518.2999999523,603518.0999999046,,603517.7999999523,,603305.169,5,600,,
break_continue,html.Screen,10_24_2,2023-11-29T17:45:24.172Z,,,,,,,,,,,NaN,,,,,,,,high,low,,,,,,,false,,,,,false,603518.7999999523,603518.6999998093,,603518.5,,603305.169,5,600,,
sequence,flow.Sequence,10_24,2023-11-29T17:45:24.173Z,,,,,,,,,,,4780.2279998093145,completion,,,,,,,high,low,,,,,,,false,,,,,false,603519,603518.6999998093,598721.981,598957.2999999523,598738.472,603305.169,5,600,,
trial,html.Screen,10_25_0,2023-11-29T17:45:28.027Z,,,,1,-0.012020985739544,0.0126097407389903,,0.04,false,ll,4068.130999952322,response,-1.089914260719518,0.9838838467299537,-1.1609616211941653,-1.1695563571046357,0.9966523334190633,-1.108782718031114,low,low,,ISIC_0069379.JPG,9,ISIC_0030695.JPG,28,30,false,0.12,lh,keypress(e),0,false,607373.399999857,607373.2999999523,603288.521,603519.2999999523,603305.169,607155.235,5,600,26,
break,html.Screen,10_25_1,2023-11-29T17:45:28.028Z,,,,,,,,,,,NaN,,,,,,,,low,low,,,,,,,false,,,,,false,607374.2999999523,607374.0999999046,,607373.7999999523,,607155.235,5,600,,
break_continue,html.Screen,10_25_2,2023-11-29T17:45:28.028Z,,,,,,,,,,,NaN,,,,,,,,low,low,,,,,,,false,,,,,false,607374.7999999523,607374.6999998093,,607374.5,,607155.235,5,600,,
sequence,flow.Sequence,10_25,2023-11-29T17:45:28.029Z,,,,,,,,,,,4069.5309998092707,completion,,,,,,,low,low,,,,,,,false,,,,,false,607374.899999857,607374.6999998093,603288.521,603519.1999998093,603305.169,607155.235,5,600,,
trial,html.Screen,10_26_0,2023-11-29T17:45:31.275Z,,,,1,-0.0377791839943904,0.0227626648172468,,0.04,false,hl,3465.964999809279,response,1.0143509683988825,0.9838838467299537,-1.1609616211941653,-1.0281980567462463,0.9966523334190633,-1.108782718031114,high,low,,ISIC_7167479.JPG,8,ISIC_0062031.JPG,28,27,false,0.2500000000000001,ll,keypress(f),0,false,610621.399999857,610621.1999998093,607138.511,607375.0999999046,607155.235,610405.167,5,600,27,
break,html.Screen,10_26_1,2023-11-29T17:45:31.276Z,,,,,,,,,,,NaN,,,,,,,,high,low,,,,,,,false,,,,,false,610622,610621.899999857,,610621.5999999046,,610405.167,5,600,,
break_continue,html.Screen,10_26_2,2023-11-29T17:45:31.276Z,,,,,,,,,,,NaN,,,,,,,,high,low,,,,,,,false,,,,,false,610622.399999857,610622.2999999523,,610622.1999998093,,610405.167,5,600,,
sequence,flow.Sequence,10_26,2023-11-29T17:45:31.276Z,,,,,,,,,,,3467.0649999523303,completion,,,,,,,high,low,,,,,,,false,,,,,false,610622.5999999046,610622.2999999523,607138.511,607375,607155.235,610405.167,5,600,,
trial,html.Screen,10_27_0,2023-11-29T17:45:35.139Z,,,,1,-0.0377791839943904,0.0227626648172468,,0.04,true,hh,4080.1329999523005,response,0.9487751044258608,0.9838838467299537,-1.1609616211941653,0.9230722071334148,0.9966523334190633,-1.108782718031114,high,high,,ISIC_7167479.JPG,9,ISIC_4568084.JPG,28,28,false,0.1,hh,keypress(i),0,false,614485.5999999046,614485.2999999523,610388.421,610622.6999998093,610405.167,614271.894,5,600,28,
break,html.Screen,10_27_1,2023-11-29T17:45:35.140Z,,,,,,,,,,,NaN,,,,,,,,high,high,,,,,,,false,,,,,false,614486.399999857,614486.1999998093,,614485.7999999523,,614271.894,5,600,,
break_continue,html.Screen,10_27_2,2023-11-29T17:45:35.140Z,,,,,,,,,,,NaN,,,,,,,,high,high,,,,,,,false,,,,,false,614486.7999999523,614486.6999998093,,614486.5,,614271.894,5,600,,
sequence,flow.Sequence,10_27,2023-11-29T17:45:35.141Z,,,,,,,,,,,4081.5329998092493,completion,,,,,,,high,high,,,,,,,false,,,,,false,614487,614486.6999998093,610388.421,610622.6999998093,610405.167,614271.894,5,600,,
trial,html.Screen,10_28_0,2023-11-29T17:45:37.826Z,,,,1,-0.012020985739544,0.0126097407389903,,0.04,false,hh,2900.606000000029,response,1.004164099430695,0.9838838467299537,-1.1609616211941653,1.0674669038247562,0.9966523334190633,-1.108782718031114,high,high,,ISIC_0069379.JPG,9,ISIC_0541345.JPG,28,28,false,0.1,hl,keypress(j),0,false,617172.5999999046,617172.5,614255.128,614487.0999999046,614271.894,616955.169,5,600,29,
break,html.Screen,10_28_1,2023-11-29T17:45:37.827Z,,,,,,,,,,,NaN,,,,,,,,high,high,,,,,,,false,,,,,false,617172.899999857,617172.7999999523,,617172.6999998093,,616955.169,5,600,,
break_continue,html.Screen,10_28_2,2023-11-29T17:45:37.827Z,,,,,,,,,,,NaN,,,,,,,,high,high,,,,,,,false,,,,,false,617173.1999998093,617173.0999999046,,617173,,616955.169,5,600,,
sequence,flow.Sequence,10_28,2023-11-29T17:45:37.827Z,,,,,,,,,,,2901.2059999046614,completion,,,,,,,high,high,,,,,,,false,,,,,false,617173.1999998093,617173.0999999046,614255.128,614487.0999999046,614271.894,616955.169,5,600,,
trial,html.Screen,10_29_0,2023-11-29T17:45:41.155Z,,,,1,-0.0118555311043871,-0.0087774532070196,,0.04,true,ll,3545.930999904638,response,-1.1894733304494307,0.9838838467299537,-1.1609616211941653,-1.1169761866204877,0.9966523334190633,-1.108782718031114,low,low,,ISIC_6488658.JPG,9,ISIC_0033813.JPG,28,30,false,0.12,ll,keypress(f),0,false,620501.2999999523,620501.0999999046,616938.683,617173.2999999523,616955.169,620288.564,5,600,30,
break,html.Screen,10_29_1,2023-11-29T17:45:41.155Z,,,,,,,,,,,NaN,,,,,,,,low,low,,,,,,,false,,,,,false,620501.899999857,620501.7999999523,,620501.399999857,,620288.564,5,600,,
break_continue,html.Screen,10_29_2,2023-11-29T17:45:41.156Z,,,,,,,,,,,NaN,,,,,,,,low,low,,,,,,,false,,,,,false,620502.2999999523,620502.0999999046,,620502,,620288.564,5,600,,
sequence,flow.Sequence,10_29,2023-11-29T17:45:41.156Z,,,,,,,,,,,3546.930999904638,completion,,,,,,,low,low,,,,,,,false,,,,,false,620502.399999857,620502.0999999046,616938.683,617173.1999998093,616955.169,620288.564,5,600,,
trial,html.Screen,10_30_0,2023-11-29T17:45:48.546Z,,,,1,-0.0071892445601978,0.0246015408628738,,0.04,true,ll,7603.835999856936,response,-1.094624209823328,0.9838838467299537,-1.1609616211941653,-1.0544499428769605,0.9966523334190633,-1.108782718031114,low,low,,ISIC_0014133.JPG,9,ISIC_0055526.JPG,28,30,false,0.12,ll,keypress(f),0,false,627892.5,627892.399999857,620272.062,620502.5999999046,620288.564,627688.52,5,600,31,
break,html.Screen,10_30_1,2023-11-29T17:45:48.546Z,,,,,,,,,,,NaN,,,,,,,,low,low,,,,,,,false,,,,,false,627892.7999999523,627892.7999999523,,627892.6999998093,,627688.52,5,600,,
break_continue,html.Screen,10_30_2,2023-11-29T17:45:48.547Z,,,,,,,,,,,NaN,,,,,,,,low,low,,,,,,,false,,,,,false,627893.0999999046,627893,,627892.899999857,,627688.52,5,600,,
sequence,flow.Sequence,10_30,2023-11-29T17:45:48.547Z,,,,,,,,,,,7604.435999999987,completion,,,,,,,low,low,,,,,,,false,,,,,false,627893.0999999046,627893,620272.062,620502.5,620288.564,627688.52,5,600,,
trial,html.Screen,10_31_0,2023-11-29T17:45:51.634Z,,,,1,-0.0166849894750452,0.0371614812368835,,0.04,true,hl,3292.079999904614,response,0.7622914383475332,0.9838838467299537,-1.1609616211941653,-0.8883896910883083,0.9966523334190633,-1.108782718031114,high,low,,ISIC_6231450.JPG,9,ISIC_0032005.JPG,28,27,false,0.2500000000000001,hl,keypress(j),0,false,630980.5999999046,630980.5999999046,627671.84,627893.1999998093,627688.52,630771.952,5,600,32,
break,html.Screen,10_31_1,2023-11-29T17:45:51.635Z,,,,,,,,,,,NaN,,,,,,,,high,low,,,,,,,false,,,,,false,630981.0999999046,630980.899999857,,630980.7999999523,,630771.952,5,600,,
break_continue,html.Screen,10_31_2,2023-11-29T17:45:51.635Z,,,,,,,,,,,NaN,,,,,,,,high,low,,,,,,,false,,,,,false,630981.2999999523,630981.1999998093,,630981.0999999046,,630771.952,5,600,,
sequence,flow.Sequence,10_31,2023-11-29T17:45:51.635Z,,,,,,,,,,,3292.6799998092465,completion,,,,,,,high,low,,,,,,,false,,,,,false,630981.399999857,630981.1999998093,627671.84,627893.1999998093,627688.52,630771.952,5,600,,
trial,html.Screen,10_32_0,2023-11-29T17:45:55.259Z,,,,1,0.0199897690678184,0.0312486875504497,,0.04,false,hl,3833.147999904584,response,0.8150886811691144,0.9838838467299537,-1.1609616211941653,-0.862416038462147,0.9966523334190633,-1.108782718031114,high,low,,ISIC_5482426.JPG,9,ISIC_0058079.JPG,28,27,false,0.2500000000000001,hh,keypress(i),0,false,634605.399999857,634605.0999999046,630755.298,630981.399999857,630771.952,634388.592,5,600,33,
break,html.Screen,10_32_1,2023-11-29T17:45:55.260Z,,,,,,,,,,,NaN,,,,,,,,high,low,,,,,,,false,,,,,false,634606,634605.7999999523,,634605.5999999046,,634388.592,5,600,,
break_continue,html.Screen,10_32_2,2023-11-29T17:45:55.260Z,,,,,,,,,,,NaN,,,,,,,,high,low,,,,,,,false,,,,,false,634606.5,634606.399999857,,634606.0999999046,,634388.592,5,600,,
sequence,flow.Sequence,10_32,2023-11-29T17:45:55.260Z,,,,,,,,,,,3834.4479998569004,completion,,,,,,,high,low,,,,,,,false,,,,,false,634606.5999999046,634606.399999857,630755.298,630981.399999857,630771.952,634388.592,5,600,,
trial,html.Screen,10_33_0,2023-11-29T17:45:57.291Z,,,,1,-0.0071892445601978,0.0246015408628738,,0.04,false,hl,2248.5079999046866,response,0.8070820195894357,0.9838838467299537,-1.1609616211941653,-0.8958120092147633,0.9966523334190633,-1.108782718031114,high,low,,ISIC_0014133.JPG,9,ISIC_0060585.JPG,28,27,false,0.2500000000000001,hh,keypress(i),0,false,636637.1999998093,636637.0999999046,634371.846,634606.7999999523,634388.592,636421.928,5,600,34,
break,html.Screen,10_33_1,2023-11-29T17:45:57.292Z,,,,,,,,,,,NaN,,,,,,,,high,low,,,,,,,false,,,,,false,636637.899999857,636637.7999999523,,636637.5,,636421.928,5,600,,
break_continue,html.Screen,10_33_2,2023-11-29T17:45:57.292Z,,,,,,,,,,,NaN,,,,,,,,high,low,,,,,,,false,,,,,false,636638.399999857,636638.1999998093,,636638,,636421.928,5,600,,
sequence,flow.Sequence,10_33,2023-11-29T17:45:57.292Z,,,,,,,,,,,2249.607999809319,completion,,,,,,,high,low,,,,,,,false,,,,,false,636638.5999999046,636638.1999998093,634371.846,634606.6999998093,634388.592,636421.928,5,600,,
trial,html.Screen,10_34_0,2023-11-29T17:46:03.699Z,,,,1,0.0321039635696159,0.020496766286318,,0.04,true,lh,6623.072000000044,response,-1.2043484010107477,0.9838838467299537,-1.1609616211941653,1.2178113180138233,0.9966523334190633,-1.108782718031114,low,high,,ISIC_0058063.JPG,8,ISIC_0011917.JPG,28,27,false,0.2400000000000001,lh,keypress(e),0,false,643045.0999999046,643045,636405.327,636638.6999998093,636421.928,642838.577,5,600,35,
break,html.Screen,10_34_1,2023-11-29T17:46:03.699Z,,,,,,,,,,,NaN,,,,,,,,low,high,,,,,,,false,,,,,false,643045.5999999046,643045.5,,643045.2999999523,,642838.577,5,600,,
break_continue,html.Screen,10_34_2,2023-11-29T17:46:03.700Z,,,,,,,,,,,NaN,,,,,,,,low,high,,,,,,,false,,,,,false,643045.899999857,643045.7999999523,,643045.6999998093,,642838.577,5,600,,
sequence,flow.Sequence,10_34,2023-11-29T17:46:03.700Z,,,,,,,,,,,6623.87199995236,completion,,,,,,,low,high,,,,,,,false,,,,,false,643046.0999999046,643045.7999999523,636405.327,636638.6999998093,636421.928,642838.577,5,600,,
trial,html.Screen,10_35_0,2023-11-29T17:46:08.115Z,,,,1,-0.0350697500805515,-0.0166617848231997,,0.04,false,hh,4622.3229998569,response,1.004164099430695,0.9838838467299537,-1.1609616211941653,1.0674669038247562,0.9966523334190633,-1.108782718031114,high,high,,ISIC_0024423.JPG,8,ISIC_0541345.JPG,28,28,false,0.1,lh,keypress(e),0,false,647461,647460.899999857,642821.836,643046.0999999046,642838.577,647255.256,5,600,36,
break,html.Screen,10_35_1,2023-11-29T17:46:08.115Z,,,,,,,,,,,NaN,,,,,,,,high,high,,,,,,,false,,,,,false,647461.399999857,647461.399999857,,647461.1999998093,,647255.256,5,600,,
break_continue,html.Screen,10_35_2,2023-11-29T17:46:08.115Z,,,,,,,,,,,NaN,,,,,,,,high,high,,,,,,,false,,,,,false,647461.7999999523,647461.7999999523,,647461.5999999046,,647255.256,5,600,,
sequence,flow.Sequence,10_35,2023-11-29T17:46:08.116Z,,,,,,,,,,,4623.222999952268,completion,,,,,,,high,high,,,,,,,false,,,,,false,647461.899999857,647461.7999999523,642821.836,643046.0999999046,642838.577,647255.256,5,600,,
trial,html.Screen,10_36_0,2023-11-29T17:46:11.706Z,,,,1,-0.0057914759495055,0.018500200317654,,0.04,false,hl,3797.3439999045804,response,0.8479396253253069,0.9838838467299537,-1.1609616211941653,-1.011054319516718,0.9966523334190633,-1.108782718031114,high,low,,ISIC_0058723.JPG,9,ISIC_0063521.JPG,28,27,false,0.2500000000000001,ll,keypress(f),0,false,651052.6999998093,651052.5999999046,647238.637,647462,647255.256,650838.55,5,600,37,
break,html.Screen,10_36_1,2023-11-29T17:46:11.707Z,,,,,,,,,,,NaN,,,,,,,,high,low,,,,,,,false,,,,,false,651053,651053,,651052.7999999523,,650838.55,5,600,,
break_continue,html.Screen,10_36_2,2023-11-29T17:46:11.707Z,,,,,,,,,,,NaN,,,,,,,,high,low,,,,,,,false,,,,,false,651053.1999998093,651053.0999999046,,651053,,650838.55,5,600,,
sequence,flow.Sequence,10_36,2023-11-29T17:46:11.707Z,,,,,,,,,,,3797.8439999045804,completion,,,,,,,high,low,,,,,,,false,,,,,false,651053.1999998093,651053.0999999046,647238.637,647462,647255.256,650838.55,5,600,,
trial,html.Screen,10_37_0,2023-11-29T17:46:14.027Z,,,,1,0.0199897690678184,0.0312486875504497,,0.04,true,ll,2534.549999904586,response,-1.0570280672376675,0.9838838467299537,-1.1609616211941653,-1.0932046580095067,0.9966523334190633,-1.108782718031114,low,low,,ISIC_5482426.JPG,9,ISIC_0061320.JPG,28,30,false,0.12,ll,keypress(f),0,false,653373.1999998093,653373.0999999046,650821.792,651053.1999998093,650838.55,653155.271,5,600,38,
break,html.Screen,10_37_1,2023-11-29T17:46:14.027Z,,,,,,,,,,,NaN,,,,,,,,low,low,,,,,,,false,,,,,false,653373.7999999523,653373.6999998093,,653373.399999857,,653155.271,5,600,,
break_continue,html.Screen,10_37_2,2023-11-29T17:46:14.028Z,,,,,,,,,,,NaN,,,,,,,,low,low,,,,,,,false,,,,,false,653374.2999999523,653374.0999999046,,653374,,653155.271,5,600,,
sequence,flow.Sequence,10_37,2023-11-29T17:46:14.028Z,,,,,,,,,,,2535.549999904586,completion,,,,,,,low,low,,,,,,,false,,,,,false,653374.399999857,653374.0999999046,650821.792,651053.1999998093,650838.55,653155.271,5,600,,
