sender,sender_type,sender_id,timestamp,meta,,age,blockNo,c1,c2,condition,control_tolerance,correct,correctResponse,duration,ended_on,f1,f1_high,f1_low,f2,f2_high,f2_low,feature_level1,feature_level2,gender,img_left,img_reveal,img_right,n_control_images,n_target_images,practice,range_tolerance,response,response_action,selection_duration,staircase,time_commit,time_end,time_render,time_run,time_show,time_switch,total_blocks,total_trials,trialNo,url
informed_consent,html.Screen,0,2023-11-29T20:33:36.046Z,"{""labjs_version"":""20.2.4"",""labjs_build"":{""flavor"":""development"",""commit"":""f5b4a49f956347addd546a832a3327688c2c0fef""},""location"":""https://labjs.felixhenninger.com/api/labjs_preview/index.html"",""userAgent"":""Mozilla/5.0 (Windows NT 10.0; Win64; x64) AppleWebKit/537.36 (KHTML, like Gecko) Chrome/119.0.0.0 Safari/537.36"",""platform"":""Win32"",""language"":""en-US"",""locale"":""en-US"",""timeZone"":""America/Chicago"",""timezoneOffset"":360,""screen_width"":1680,""screen_height"":1050,""scroll_width"":825,""scroll_height"":888,""window_innerWidth"":825,""window_innerHeight"":936,""devicePixelRatio"":1}",,,,,,,,,,72707.92399980927,response,,,,,,,,,,,,,,,,,consent,click button,,,73525.29999995232,73516.69999980927,792.145,796.1999998092651,808.776,73533.806,,,,{}
Demography form,html.Form,1,2023-11-29T20:33:49.422Z,,,19,,,,,,,,13366.694000000003,form submission,,,,,,,,,female,,,,,,,,,,,,86900.69999980927,86900.5,73516.994,73525.5,73533.806,86910.85,,,,
Welcome,html.Screen,2,2023-11-29T20:33:52.654Z,,,,,,,"[""asym"",""bor""]",,,,3221.7499999046267,response,,,,,,,,,,,,,,,,,continue,click button,,,90133.19999980927,90132.59999990463,86876.5,86900.79999995232,86910.85,90149.558,,,,
demo_instructions,html.Screen,3,2023-11-29T20:35:00.383Z,,,,,,,,,,,67711.04199990463,response,,,,,,,,,,,,,,,,,continue,click button,,,157861.09999990463,157860.59999990463,90132.837,90133.29999995232,90149.558,157881.42,,,,
trial,html.Screen,4_0_0,2023-11-29T20:35:23.594Z,,,,0,-1.272699544571422,-1.12917997553565,,,true,hh,23190.279999809252,response,1.1137763092539212,1.2,-1.2,1.1599906701455132,1.2,-1.2,high,high,,ISIC_0012057.JPG,,ISIC_5413788.JPG,,26,true,0.15000000000000002,hh,keypress(i),100,false,181072.29999995232,181071.69999980927,157864.517,157861.39999985695,157881.42,181093.041,1,16,1,
sequence,flow.Sequence,4_0,2023-11-29T20:35:23.595Z,,,,,,,,,,,23190.279999809252,completion,,,,,,,high,high,,,,,,,true,,,,,false,181073.09999990463,181071.69999980927,157864.517,157861.39999985695,157881.42,181093.041,1,16,,
trial,html.Screen,4_1_0,2023-11-29T20:35:29.394Z,,,,0,-1.2169050727663315,-1.1067845563421794,,,true,hh,5778.558999904635,response,1.201100953917304,1.2,-1.2,1.1751492358160105,1.2,-1.2,high,high,,ISIC_7016261.JPG,,ISIC_0647224.JPG,,26,true,0.15000000000000002,hh,keypress(i),100,false,186872.09999990463,186871.59999990463,181076.447,181073.39999985695,181093.041,186887.715,1,16,2,
sequence,flow.Sequence,4_1,2023-11-29T20:35:29.395Z,,,,,,,,,,,5778.558999904635,completion,,,,,,,high,high,,,,,,,true,,,,,false,186872.69999980927,186871.59999990463,181076.447,181073.29999995232,181093.041,186887.715,1,16,,
trial,html.Screen,4_2_0,2023-11-29T20:35:32.670Z,,,,0,-1.101214461533281,-1.1849883512428183,,,true,hh,3259.2850000000035,response,1.0870240111136478,1.2,-1.2,1.332340670965917,1.2,-1.2,high,high,,ISIC_0064943.JPG,,ISIC_0000660.JPG,,26,true,0.15000000000000002,hh,keypress(i),100,false,190147.5,190147,186871.152,186873,186887.715,190177.524,1,16,3,
sequence,flow.Sequence,4_2,2023-11-29T20:35:32.670Z,,,,,,,,,,,3259.2850000000035,completion,,,,,,,high,high,,,,,,,true,,,,,false,190148.19999980927,190147,186871.152,186873,186887.715,190177.524,1,16,,
trial,html.Screen,4_3_0,2023-11-29T20:35:34.822Z,,,,0,-1.2952503640839694,-1.107234527385344,,,true,hh,2121.7759999523114,response,1.0717785279820962,1.2,-1.2,1.1267239445830604,1.2,-1.2,high,high,,ISIC_0034134.JPG,,ISIC_9948815.JPG,,26,true,0.15000000000000002,hh,keypress(i),100,false,192299.59999990463,192299.29999995232,190160.756,190148.5,190177.524,192314.905,1,16,4,
sequence,flow.Sequence,4_3,2023-11-29T20:35:34.822Z,,,,,,,,,,,2121.7759999523114,completion,,,,,,,high,high,,,,,,,true,,,,,false,192300.19999980927,192299.29999995232,190160.756,190148.39999985695,190177.524,192314.905,1,16,,
trial,html.Screen,4_4_0,2023-11-29T20:35:47.772Z,,,,0,1.1642596483638106,1.109799097093339,,,false,ll,12934.794999809266,response,-1.1877026569952844,1.2,-1.2,-1.1604367569896263,1.2,-1.2,low,low,,ISIC_0765584.JPG,,ISIC_0064589.JPG,,30,true,0.1,hh,keypress(i),100,false,205250,205249.69999980927,192298.362,192300.5,192314.905,205273.452,1,16,5,
sequence,flow.Sequence,4_4,2023-11-29T20:35:47.773Z,,,,,,,,,,,12934.794999809266,completion,,,,,,,low,low,,,,,,,true,,,,,false,205250.79999995232,205249.69999980927,192298.362,192300.39999985695,192314.905,205273.452,1,16,,
trial,html.Screen,4_5_0,2023-11-29T20:35:54.386Z,,,,0,1.2503149164557643,1.0796591227570405,,,false,ll,6590.447999856959,response,-1.0762260610050776,1.2,-1.2,-1.082709423673037,1.2,-1.2,low,low,,ISIC_2466892.JPG,,ISIC_0058666.JPG,,53,true,0.15000000000000002,hh,keypress(i),100,false,211864.29999995232,211863.89999985695,205256.802,205251,205273.452,211886.315,1,16,6,
sequence,flow.Sequence,4_5,2023-11-29T20:35:54.387Z,,,,,,,,,,,6590.447999856959,completion,,,,,,,low,low,,,,,,,true,,,,,false,211865.09999990463,211863.89999985695,205256.802,205250.89999985695,205273.452,211886.315,1,16,,
trial,html.Screen,4_6_0,2023-11-29T20:36:20.491Z,,,,0,1.1653123206802332,1.2976858999596654,,,true,ll,26081.28499990463,response,-1.0651492409820618,1.2,-1.2,-1.1862499256725747,1.2,-1.2,low,low,,ISIC_0071508.JPG,,ISIC_0065421.JPG,,53,true,0.15000000000000002,ll,keypress(f),100,false,237968,237967.59999990463,211869.723,211865.29999995232,211886.315,237987.153,1,16,7,
sequence,flow.Sequence,4_6,2023-11-29T20:36:20.492Z,,,,,,,,,,,26081.28499990463,completion,,,,,,,low,low,,,,,,,true,,,,,false,237968.69999980927,237967.59999990463,211869.723,211865.19999980927,211886.315,237987.153,1,16,,
trial,html.Screen,4_7_0,2023-11-29T20:36:22.578Z,,,,0,1.131522954199764,1.1047184491749509,,,true,ll,2067.7469998569577,response,-1.2254187569955004,1.2,-1.2,-1.174555235109734,1.2,-1.2,low,low,,ISIC_1868816.JPG,,ISIC_0027187.JPG,,53,true,0.15000000000000002,ll,keypress(f),100,false,240055.19999980927,240054.89999985695,237970.524,237969,237987.153,240107.889,1,16,8,
sequence,flow.Sequence,4_7,2023-11-29T20:36:22.579Z,,,,,,,,,,,2067.7469998569577,completion,,,,,,,low,low,,,,,,,true,,,,,false,240055.79999995232,240054.89999985695,237970.524,237968.79999995232,237987.153,240107.889,1,16,,
trial,html.Screen,4_8_0,2023-11-29T20:36:24.307Z,,,,0,0.8809306963311293,-0.8614910030038974,,,true,lh,1676.4109999523207,response,-0.7998855902596425,1.2,-1.2,1.1518579145663017,1.2,-1.2,low,high,,ISIC_0013731.JPG,,ISIC_0025061.JPG,,27,true,0.42000000000000026,lh,keypress(e),100,false,241784.39999985695,241784.29999995232,240057.917,240056.09999990463,240107.889,241811.236,1,16,9,
sequence,flow.Sequence,4_8,2023-11-29T20:36:24.307Z,,,,,,,,,,,1676.4109999523207,completion,,,,,,,low,high,,,,,,,true,,,,,false,241784.59999990463,241784.29999995232,240057.917,240055.89999985695,240107.889,241811.236,1,16,,
trial,html.Screen,4_9_0,2023-11-29T20:36:25.937Z,,,,0,1.2331439637486756,-0.9691143900156988,,,true,lh,1602.7639999999956,response,-0.7809949855371787,1.2,-1.2,0.8493861117004308,1.2,-1.2,low,high,,ISIC_7877488.JPG,,ISIC_7450481.JPG,,27,true,0.42000000000000026,lh,keypress(e),100,false,243414.29999995232,243414,241794.554,241784.69999980927,241811.236,243447.74,1,16,10,
sequence,flow.Sequence,4_9,2023-11-29T20:36:25.938Z,,,,,,,,,,,1602.7639999999956,completion,,,,,,,low,high,,,,,,,true,,,,,false,243414.89999985695,243414,241794.554,241784.69999980927,241811.236,243447.74,1,16,,
trial,html.Screen,4_10_0,2023-11-29T20:36:49.249Z,,,,0,1.0865333402803938,-1.0542635307358266,,,true,lh,23277.859999904642,response,-0.8947611078712571,1.2,-1.2,0.8960964505004638,1.2,-1.2,low,high,,ISIC_0034006.JPG,,ISIC_6441128.JPG,,27,true,0.42000000000000026,lh,keypress(e),100,false,266725.89999985695,266725.59999990463,243414.418,243415.09999990463,243447.74,266759.779,1,16,11,
sequence,flow.Sequence,4_10,2023-11-29T20:36:49.249Z,,,,,,,,,,,23277.859999904642,completion,,,,,,,low,high,,,,,,,true,,,,,false,266726.59999990463,266725.59999990463,243414.418,243415.09999990463,243447.74,266759.779,1,16,,
trial,html.Screen,4_11_0,2023-11-29T20:36:56.820Z,,,,0,0.9433720631499012,-1.0582071940347648,,,true,lh,7536.520999952336,response,-0.7871162143493278,1.2,-1.2,0.8429329800778957,1.2,-1.2,low,high,,ISIC_4890201.JPG,,ISIC_3439215.JPG,,27,true,0.42000000000000026,lh,keypress(e),100,false,274296.69999980927,274296.2999999523,266726.497,266726.7999999523,266759.779,274341.194,1,16,12,
sequence,flow.Sequence,4_11,2023-11-29T20:36:56.820Z,,,,,,,,,,,7536.520999952336,completion,,,,,,,low,high,,,,,,,true,,,,,false,274297.39999985695,274296.2999999523,266726.497,266726.7999999523,266759.779,274341.194,1,16,,
trial,html.Screen,4_12_0,2023-11-29T20:37:11.365Z,,,,0,-0.7871162143493278,0.8429329800778957,,,true,hl,14500.505999809247,response,1.011737552725394,1.2,-1.2,-0.8500530224490773,1.2,-1.2,high,low,,ISIC_3439215.JPG,,ISIC_2998367.JPG,,26,true,0.3600000000000002,hl,keypress(j),100,false,288842.09999990463,288841.69999980927,274307.902,274297.69999980927,274341.194,288886.175,1,16,13,
sequence,flow.Sequence,4_12,2023-11-29T20:37:11.366Z,,,,,,,,,,,14500.505999809247,completion,,,,,,,high,low,,,,,,,true,,,,,false,288842.69999980927,288841.69999980927,274307.902,274297.59999990463,274341.194,288886.175,1,16,,
trial,html.Screen,4_13_0,2023-11-29T20:37:29.336Z,,,,0,-0.8035152873995188,0.82868450251632,,,true,hl,17926.22499985696,response,0.8979276789594874,1.2,-1.2,-0.925374811016654,1.2,-1.2,high,low,,ISIC_0010671.JPG,,ISIC_4208361.JPG,,33,true,0.42000000000000026,hl,keypress(j),100,false,306812.7999999523,306812.39999985695,288852.82,288842.89999985695,288886.175,306854.478,1,16,14,
sequence,flow.Sequence,4_13,2023-11-29T20:37:29.337Z,,,,,,,,,,,17926.22499985696,completion,,,,,,,high,low,,,,,,,true,,,,,false,306813.59999990463,306812.39999985695,288852.82,288842.89999985695,288886.175,306854.478,1,16,,
trial,html.Screen,4_14_0,2023-11-29T20:37:38.606Z,,,,0,-1.0115965332688306,0.8282633603842442,,,true,hl,9227.821999952313,response,0.9579209317488,1.2,-1.2,-1.0147487101263497,1.2,-1.2,high,low,,ISIC_1069587.JPG,,ISIC_8124482.JPG,,33,true,0.42000000000000026,hl,keypress(j),100,false,316082.7999999523,316082.2999999523,306821.207,306813.7999999523,306854.478,316122.528,1,16,15,
sequence,flow.Sequence,4_14,2023-11-29T20:37:38.607Z,,,,,,,,,,,9227.821999952313,completion,,,,,,,high,low,,,,,,,true,,,,,false,316083.2999999523,316082.2999999523,306821.207,306813.69999980927,306854.478,316122.528,1,16,,
trial,html.Screen,4_15_0,2023-11-29T20:37:57.266Z,,,,0,-0.8655167308525522,0.9298580423306444,,,true,hl,18619.771999952325,response,1.27543269240326,1.2,-1.2,-0.80839597388021,1.2,-1.2,high,low,,ISIC_4603706.JPG,,ISIC_3296136.JPG,,33,true,0.42000000000000026,hl,keypress(j),100,false,334742.69999980927,334742.2999999523,316089.204,316083.59999990463,316122.528,334758.87,1,16,16,
sequence,flow.Sequence,4_15,2023-11-29T20:37:57.267Z,,,,,,,,,,,18619.771999952325,completion,,,,,,,high,low,,,,,,,true,,,,,false,334743.39999985695,334742.2999999523,316089.204,316083.59999990463,316122.528,334758.87,1,16,,
demonstration_loop,flow.Loop,4,2023-11-29T20:37:57.267Z,,,,,,,,,,,176860.8799999523,completion,,,,,,,,,,,,,,,true,,,,,false,334743.89999985695,334742.2999999523,157864.517,157861.29999995232,157881.42,334758.87,1,16,,
practice_instructions,html.Screen,5,2023-11-29T20:38:13.737Z,,,,,,,,,,,16445.92999995232,response,,,,,,,,,,,,,,,,,continue,click button,,,351213.5,351204.7999999523,334742.189,334744.09999990463,334758.87,351224.252,,,,
trial,html.Screen,6_0_0,2023-11-29T20:38:17.547Z,,,,1,-1.101346104814838,-1.1225813067473052,,,true,hh,3798.1479998569703,response,1.1653123206802332,1.2,-1.2,1.2976858999596654,1.2,-1.2,high,high,,ISIC_8175453.JPG,,ISIC_0071508.JPG,,26,true,0.15000000000000002,hh,keypress(i),0,false,355022.89999985695,355022.39999985695,351207.496,351213.69999980927,351224.252,355081.683,1,40,1,
sequence,flow.Sequence,6_0,2023-11-29T20:38:17.547Z,,,,,,,,,,,3798.1479998569703,completion,,,,,,,high,high,,,,,,,true,,,,,false,355023.5,355022.39999985695,351207.496,351213.69999980927,351224.252,355081.683,1,40,,
trial,html.Screen,6_1_0,2023-11-29T20:38:33.587Z,,,,1,-0.948927472020595,1.0660437155921598,,,,,16014.550999999978,timeout,1.0751036484083878,1.2,-1.2,-1.143906455483852,1.2,-1.2,high,low,,ISIC_5808758.JPG,,ISIC_0064406.JPG,,26,true,0.3600000000000002,,,0,false,371063.39999985695,371063.2999999523,355015.086,355023.89999985695,355081.683,371096.234,1,40,2,
sequence,flow.Sequence,6_1,2023-11-29T20:38:33.587Z,,,,,,,,,,,15981.616999952297,completion,,,,,,,high,low,,,,,,,true,,,,,false,371063.59999990463,371063.2999999523,355015.086,355023.7999999523,355081.683,371096.234,1,40,,
trial,html.Screen,6_2_0,2023-11-29T20:38:49.602Z,,,,1,1.0865333402803938,-1.0542635307358266,,,,,16014.481000000029,timeout,-0.7871162143493278,1.2,-1.2,0.8429329800778957,1.2,-1.2,low,high,,ISIC_0034006.JPG,,ISIC_3439215.JPG,,27,true,0.42000000000000026,,,0,false,387078.59999990463,387078.19999980927,371079.493,371063.59999990463,371096.234,387110.715,1,40,3,
sequence,flow.Sequence,6_2,2023-11-29T20:38:49.603Z,,,,,,,,,,,15981.965999809268,completion,,,,,,,low,high,,,,,,,true,,,,,false,387079.09999990463,387078.19999980927,371079.493,371063.59999990463,371096.234,387110.715,1,40,,
trial,html.Screen,6_3_0,2023-11-29T20:38:52.707Z,,,,1,0.8534691366511764,-1.03975580494588,,,true,lh,3071.9849998092395,response,-1.0164576835546473,1.2,-1.2,0.8120626538423016,1.2,-1.2,low,high,,ISIC_0056788.JPG,,ISIC_6002694.JPG,,27,true,0.42000000000000026,lh,keypress(e),0,false,390183.09999990463,390182.69999980927,387094.013,387079.2999999523,387110.715,390200.305,1,40,4,
sequence,flow.Sequence,6_3,2023-11-29T20:38:52.707Z,,,,,,,,,,,3071.9849998092395,completion,,,,,,,low,high,,,,,,,true,,,,,false,390183.7999999523,390182.69999980927,387094.013,387079.2999999523,387110.715,390200.305,1,40,,
trial,html.Screen,6_4_0,2023-11-29T20:38:55.634Z,,,,1,-1.2282561398079586,-1.210457198775374,,,false,hh,2909.9949999523233,response,1.4057041128271182,1.2,-1.2,1.0160925610470608,1.2,-1.2,high,high,,ISIC_9141817.JPG,,ISIC_8120622.JPG,,179,true,0.3600000000000002,hl,keypress(j),0,false,393110.69999980927,393110.2999999523,390183.458,390184,390200.305,393172.488,1,40,5,
sequence,flow.Sequence,6_4,2023-11-29T20:38:55.635Z,,,,,,,,,,,2909.9949999523233,completion,,,,,,,high,high,,,,,,,true,,,,,false,393111.19999980927,393110.2999999523,390183.458,390184,390200.305,393172.488,1,40,,
trial,html.Screen,6_5_0,2023-11-29T20:39:01.658Z,,,,1,-0.7998855902596425,1.1518579145663017,,,false,hl,5962.011999999988,response,1.0865333402803938,1.2,-1.2,-1.0542635307358266,1.2,-1.2,high,low,,ISIC_0025061.JPG,,ISIC_0034006.JPG,,26,true,0.3600000000000002,hh,keypress(i),0,false,399134.7999999523,399134.5,393105.941,393111.39999985695,393172.488,399150.81,1,40,6,
sequence,flow.Sequence,6_5,2023-11-29T20:39:01.659Z,,,,,,,,,,,5962.011999999988,completion,,,,,,,high,low,,,,,,,true,,,,,false,399135.2999999523,399134.5,393105.941,393111.2999999523,393172.488,399150.81,1,40,,
trial,html.Screen,6_6_0,2023-11-29T20:39:15.411Z,,,,1,-0.9873794329144926,0.7991077882008257,,,false,hl,13735.690000000002,response,1.0751036484083878,1.2,-1.2,-1.143906455483852,1.2,-1.2,high,low,,ISIC_0013498.JPG,,ISIC_0064406.JPG,,33,true,0.42000000000000026,ll,keypress(f),0,false,412886.7999999523,412886.5,399134.332,399135.5,399150.81,412894.19,1,40,7,
sequence,flow.Sequence,6_6,2023-11-29T20:39:15.412Z,,,,,,,,,,,13735.690000000002,completion,,,,,,,high,low,,,,,,,true,,,,,false,412887.2999999523,412886.5,399134.332,399135.5,399150.81,412894.19,1,40,,
trial,html.Screen,6_7_0,2023-11-29T20:39:22.667Z,,,,1,-1.29026082950341,-1.144672688339213,,,false,hh,7248.109999952314,response,0.8529242055711017,1.2,-1.2,0.9691635021928308,1.2,-1.2,high,high,,ISIC_0054317.JPG,,ISIC_8169564.JPG,,253,true,0.42000000000000026,lh,keypress(e),0,false,420142.59999990463,420142.2999999523,412877.632,412887.5,412894.19,420158.429,1,40,8,
sequence,flow.Sequence,6_7,2023-11-29T20:39:22.668Z,,,,,,,,,,,7248.109999952314,completion,,,,,,,high,high,,,,,,,true,,,,,false,420143.19999980927,420142.2999999523,412877.632,412887.39999985695,412894.19,420158.429,1,40,,
trial,html.Screen,6_8_0,2023-11-29T20:39:33.338Z,,,,1,1.201100953917304,1.1751492358160105,,,false,ll,10654.770999809261,response,-1.2915523362516486,1.2,-1.2,-1.1264977790562936,1.2,-1.2,low,low,,ISIC_0647224.JPG,,ISIC_0502582.JPG,,30,true,0.1,hl,keypress(j),0,false,430813.2999999523,430813.19999980927,420141.794,420143.39999985695,420158.429,430829.162,1,40,9,
sequence,flow.Sequence,6_8,2023-11-29T20:39:33.338Z,,,,,,,,,,,10654.770999809261,completion,,,,,,,low,low,,,,,,,true,,,,,false,430813.39999985695,430813.19999980927,420141.794,420143.2999999523,420158.429,430829.162,1,40,,
trial,html.Screen,6_9_0,2023-11-29T20:39:45.028Z,,,,1,-1.1033977063872138,-1.2513071571733083,,,false,hh,11673.637999952305,response,1.2503149164557643,1.2,-1.2,1.0796591227570405,1.2,-1.2,high,high,,ISIC_0025472.JPG,,ISIC_2466892.JPG,,26,true,0.15000000000000002,lh,keypress(e),0,false,442503.09999990463,442502.7999999523,430812.531,430813.5,430829.162,442551.942,1,40,10,
sequence,flow.Sequence,6_9,2023-11-29T20:39:45.028Z,,,,,,,,,,,11673.637999952305,completion,,,,,,,high,high,,,,,,,true,,,,,false,442503.69999980927,442502.7999999523,430812.531,430813.39999985695,430829.162,442551.942,1,40,,
trial,html.Screen,6_10_0,2023-11-29T20:39:57.107Z,,,,1,1.331700944308701,-0.9395196143259436,,,false,lh,12030.55800000002,response,-1.0022829373011404,1.2,-1.2,0.8311726972863814,1.2,-1.2,low,high,,ISIC_1668831.JPG,,ISIC_0033287.JPG,,27,true,0.42000000000000026,ll,keypress(f),0,false,454582.7999999523,454582.5,442501.753,442504,442551.942,454592.036,1,40,11,
sequence,flow.Sequence,6_10,2023-11-29T20:39:57.108Z,,,,,,,,,,,12030.55800000002,completion,,,,,,,low,high,,,,,,,true,,,,,false,454583.2999999523,454582.5,442501.753,442503.89999985695,442551.942,454592.036,1,40,,
trial,html.Screen,6_11_0,2023-11-29T20:40:13.100Z,,,,1,1.1642596483638106,1.109799097093339,,,,,16014.579999999958,timeout,-1.4649428578096495,1.2,-1.2,-1.1067521641107156,1.2,-1.2,low,low,,ISIC_0765584.JPG,,ISIC_0024427.JPG,,245,true,0.3600000000000002,,,0,false,470574.39999985695,470574,454575.404,454583.59999990463,454592.036,470606.616,1,40,12,
sequence,flow.Sequence,6_11,2023-11-29T20:40:13.100Z,,,,,,,,,,,15981.963999999978,completion,,,,,,,low,low,,,,,,,true,,,,,false,470574.89999985695,470574,454575.404,454583.39999985695,454592.036,470606.616,1,40,,
trial,html.Screen,6_12_0,2023-11-29T20:40:20.724Z,,,,1,1.2711018615747949,1.1042234044781618,,,false,ll,7592.083999809285,response,-1.2169050727663315,1.2,-1.2,-1.1067845563421794,1.2,-1.2,low,low,,ISIC_8603734.JPG,,ISIC_7016261.JPG,,53,true,0.15000000000000002,lh,keypress(e),0,false,478199.09999990463,478198.69999980927,470589.958,470575.39999985695,470606.616,478238.096,1,40,13,
sequence,flow.Sequence,6_12,2023-11-29T20:40:20.725Z,,,,,,,,,,,7592.083999809285,completion,,,,,,,low,low,,,,,,,true,,,,,false,478199.69999980927,478198.69999980927,470589.958,470575.2999999523,470606.616,478238.096,1,40,,
trial,html.Screen,6_13_0,2023-11-29T20:40:28.636Z,,,,1,0.9433720631499012,-1.0582071940347648,,,false,lh,7872.203999952297,response,-0.8200962008791046,1.2,-1.2,0.7936051642828523,1.2,-1.2,low,high,,ISIC_4890201.JPG,,ISIC_0027031.JPG,,27,true,0.42000000000000026,hh,keypress(i),0,false,486110.69999980927,486110.2999999523,478187.99,478199.89999985695,478238.096,486120.096,1,40,14,
sequence,flow.Sequence,6_13,2023-11-29T20:40:28.636Z,,,,,,,,,,,7872.203999952297,completion,,,,,,,low,high,,,,,,,true,,,,,false,486111.09999990463,486110.2999999523,478187.99,478199.7999999523,478238.096,486120.096,1,40,,
trial,html.Screen,6_14_0,2023-11-29T20:40:37.018Z,,,,1,1.0717785279820962,1.1267239445830604,,,false,ll,8372.90399999998,response,-1.29026082950341,1.2,-1.2,-1.144672688339213,1.2,-1.2,low,low,,ISIC_9948815.JPG,,ISIC_0054317.JPG,,245,true,0.3600000000000002,hh,keypress(i),0,false,494493,494493,486103.591,486111.39999985695,486120.096,494536.478,1,40,15,
sequence,flow.Sequence,6_14,2023-11-29T20:40:37.018Z,,,,,,,,,,,8372.90399999998,completion,,,,,,,low,low,,,,,,,true,,,,,false,494493.2999999523,494493,486103.591,486111.39999985695,486120.096,494536.478,1,40,,
trial,html.Screen,6_15_0,2023-11-29T20:40:49.924Z,,,,1,0.858338058340649,-0.9540612223480284,,,false,lh,12862.221999809262,response,-0.7870237732709365,1.2,-1.2,0.9172955251119376,1.2,-1.2,low,high,,ISIC_8922893.JPG,,ISIC_0057716.JPG,,27,true,0.42000000000000026,hl,keypress(j),0,false,507399,507398.69999980927,494486.552,494493.2999999523,494536.478,507411.569,1,40,16,
sequence,flow.Sequence,6_15,2023-11-29T20:40:49.925Z,,,,,,,,,,,12862.221999809262,completion,,,,,,,low,high,,,,,,,true,,,,,false,507399.39999985695,507398.69999980927,494486.552,494493.2999999523,494536.478,507411.569,1,40,,
trial,html.Screen,6_16_0,2023-11-29T20:41:01.148Z,,,,1,-1.29026082950341,-1.144672688339213,,,true,hh,11211.030999904615,response,0.9069195139552818,1.2,-1.2,1.17726864031644,1.2,-1.2,high,high,,ISIC_0054317.JPG,,ISIC_9728003.JPG,,179,true,0.3600000000000002,hh,keypress(i),0,false,518622.7999999523,518622.59999990463,507394.896,507399.59999990463,507411.569,518633.389,1,40,17,
sequence,flow.Sequence,6_16,2023-11-29T20:41:01.149Z,,,,,,,,,,,11211.030999904615,completion,,,,,,,high,high,,,,,,,true,,,,,false,518623.39999985695,518622.59999990463,507394.896,507399.59999990463,507411.569,518633.389,1,40,,
trial,html.Screen,6_17_0,2023-11-29T20:41:11.740Z,,,,1,1.0959058628476686,1.1684835186766898,,,true,ll,10581.510999856924,response,-1.2071341803968807,1.2,-1.2,-1.235960269089932,1.2,-1.2,low,low,,ISIC_5920470.JPG,,ISIC_0058174.JPG,,30,true,0.1,ll,keypress(f),0,false,529215.0999999046,529214.899999857,518616.794,518623.59999990463,518633.389,529254.055,1,40,18,
sequence,flow.Sequence,6_17,2023-11-29T20:41:11.741Z,,,,,,,,,,,10581.510999856924,completion,,,,,,,low,low,,,,,,,true,,,,,false,529215.6999998093,529214.899999857,518616.794,518623.5,518633.389,529254.055,1,40,,
trial,html.Screen,6_18_0,2023-11-29T20:41:17.621Z,,,,1,-0.8092423703106274,1.1870093485714288,,,false,hl,5840.544999904581,response,1.2331439637486756,1.2,-1.2,-0.9691143900156988,1.2,-1.2,high,low,,ISIC_8592235.JPG,,ISIC_7877488.JPG,,26,true,0.3600000000000002,lh,keypress(e),0,false,535095,535094.5999999046,529204.009,529216,529254.055,535115.463,1,40,19,
sequence,flow.Sequence,6_18,2023-11-29T20:41:17.621Z,,,,,,,,,,,5840.544999904581,completion,,,,,,,high,low,,,,,,,true,,,,,false,535095.399999857,535094.5999999046,529204.009,529215.899999857,529254.055,535115.463,1,40,,
trial,html.Screen,6_19_0,2023-11-29T20:41:24.180Z,,,,1,0.9454713230140772,-0.9245167441969216,,,false,lh,6538.136999904644,response,-0.7998855902596425,1.2,-1.2,1.1518579145663017,1.2,-1.2,low,high,,ISIC_9101055.JPG,,ISIC_0025061.JPG,,27,true,0.42000000000000026,hh,keypress(i),0,false,541653.7999999523,541653.5999999046,535082.265,535095.7999999523,535115.463,541678.232,1,40,20,
sequence,flow.Sequence,6_19,2023-11-29T20:41:24.180Z,,,,,,,,,,,6538.136999904644,completion,,,,,,,low,high,,,,,,,true,,,,,false,541653.899999857,541653.5999999046,535082.265,535095.5999999046,535115.463,541678.232,1,40,,
trial,html.Screen,6_20_0,2023-11-29T20:41:31.397Z,,,,1,-0.8200962008791046,0.7936051642828523,,,true,hl,7192.367999904673,response,1.2695509547992938,1.2,-1.2,-0.9641099676945492,1.2,-1.2,high,low,,ISIC_0027031.JPG,,ISIC_0025841.JPG,,26,true,0.3600000000000002,hl,keypress(j),0,false,548871,548870.5999999046,541644.899,541654.0999999046,541678.232,548892.324,1,40,21,
sequence,flow.Sequence,6_20,2023-11-29T20:41:31.397Z,,,,,,,,,,,7192.367999904673,completion,,,,,,,high,low,,,,,,,true,,,,,false,548871.399999857,548870.5999999046,541644.899,541654,541678.232,548892.324,1,40,,
trial,html.Screen,6_21_0,2023-11-29T20:41:38.771Z,,,,1,1.2503149164557643,1.0796591227570405,,,false,ll,7353.175999999978,response,-0.830715954875818,1.2,-1.2,-0.8162119374466767,1.2,-1.2,low,low,,ISIC_2466892.JPG,,ISIC_0011894.JPG,,339,true,0.42000000000000026,hl,keypress(j),0,false,556245.5999999046,556245.5,548858.912,548871.6999998093,548892.324,556256.582,1,40,22,
sequence,flow.Sequence,6_21,2023-11-29T20:41:38.772Z,,,,,,,,,,,7353.175999999978,completion,,,,,,,low,low,,,,,,,true,,,,,false,556245.7999999523,556245.5,548858.912,548871.5999999046,548892.324,556256.582,1,40,,
trial,html.Screen,6_22_0,2023-11-29T20:41:43.413Z,,,,1,1.2724584600905462,1.1411016103695344,,,true,ll,4629.817999856896,response,-1.242586748440878,1.2,-1.2,-1.1207933200172129,1.2,-1.2,low,low,,ISIC_0059625.JPG,,ISIC_0013073.JPG,,53,true,0.15000000000000002,ll,keypress(f),0,false,560886.899999857,560886.399999857,556240.092,556245.7999999523,556256.582,560932.371,1,40,23,
sequence,flow.Sequence,6_22,2023-11-29T20:41:43.413Z,,,,,,,,,,,4629.817999856896,completion,,,,,,,low,low,,,,,,,true,,,,,false,560887.5,560886.399999857,556240.092,556245.7999999523,556256.582,560932.371,1,40,,
trial,html.Screen,6_23_0,2023-11-29T20:41:51.597Z,,,,1,1.2364994561934892,-0.9174173651516624,,,true,lh,8138.22899990459,response,-1.0115965332688306,1.2,-1.2,0.8282633603842442,1.2,-1.2,low,high,,ISIC_3481133.JPG,,ISIC_1069587.JPG,,27,true,0.42000000000000026,lh,keypress(e),0,false,569070.899999857,569070.5999999046,560882.503,560887.899999857,560932.371,569081.564,1,40,24,
sequence,flow.Sequence,6_23,2023-11-29T20:41:51.597Z,,,,,,,,,,,8138.22899990459,completion,,,,,,,low,high,,,,,,,true,,,,,false,569071.399999857,569070.5999999046,560882.503,560887.7999999523,560932.371,569081.564,1,40,,
trial,html.Screen,6_24_0,2023-11-29T20:42:04.085Z,,,,1,1.0870240111136478,1.332340670965917,,,true,ll,12477.235999952303,response,-0.9342143229318964,1.2,-1.2,-1.195482218669593,1.2,-1.2,low,low,,ISIC_0000660.JPG,,ISIC_8073555.JPG,,245,true,0.3600000000000002,ll,keypress(f),0,false,581559.0999999046,581558.7999999523,569064.8,569071.5999999046,569081.564,581605.949,1,40,25,
sequence,flow.Sequence,6_24,2023-11-29T20:42:04.086Z,,,,,,,,,,,12477.235999952303,completion,,,,,,,low,low,,,,,,,true,,,,,false,581559.7999999523,581558.7999999523,569064.8,569071.5,569081.564,581605.949,1,40,,
trial,html.Screen,6_25_0,2023-11-29T20:42:11.324Z,,,,1,1.331700944308701,-0.9395196143259436,,,false,lh,7191.750999809243,response,-0.8092423703106274,1.2,-1.2,1.1870093485714288,1.2,-1.2,low,high,,ISIC_1668831.JPG,,ISIC_8592235.JPG,,27,true,0.42000000000000026,ll,keypress(f),0,false,588798,588797.6999998093,581555.926,581560.0999999046,581605.949,588836.699,1,40,26,
sequence,flow.Sequence,6_25,2023-11-29T20:42:11.324Z,,,,,,,,,,,7191.750999809243,completion,,,,,,,low,high,,,,,,,true,,,,,false,588798.2999999523,588797.6999998093,581555.926,581560,581605.949,588836.699,1,40,,
trial,html.Screen,6_26_0,2023-11-29T20:42:15.421Z,,,,1,-0.8947611078712571,0.8960964505004638,,,true,hl,4058.100999952294,response,0.858338058340649,1.2,-1.2,-0.9540612223480284,1.2,-1.2,high,low,,ISIC_6441128.JPG,,ISIC_8922893.JPG,,26,true,0.3600000000000002,hl,keypress(j),0,false,592895,592894.7999999523,588786.736,588798.399999857,588836.699,592911.298,1,40,27,
sequence,flow.Sequence,6_26,2023-11-29T20:42:15.422Z,,,,,,,,,,,4058.100999952294,completion,,,,,,,high,low,,,,,,,true,,,,,false,592895.5999999046,592894.7999999523,588786.736,588798.399999857,588836.699,592911.298,1,40,,
trial,html.Screen,6_27_0,2023-11-29T20:42:21.565Z,,,,1,-0.809764442462202,1.005337148078696,,,false,hl,6127.202000000048,response,0.8809306963311293,1.2,-1.2,-0.8614910030038974,1.2,-1.2,high,low,,ISIC_2379379.JPG,,ISIC_0013731.JPG,,33,true,0.42000000000000026,hh,keypress(i),0,false,599038.7999999523,599038.5,592894.644,592895.7999999523,592911.298,599056.657,1,40,28,
sequence,flow.Sequence,6_27,2023-11-29T20:42:21.566Z,,,,,,,,,,,6127.202000000048,completion,,,,,,,high,low,,,,,,,true,,,,,false,599039.2999999523,599038.5,592894.644,592895.6999998093,592911.298,599056.657,1,40,,
trial,html.Screen,6_28_0,2023-11-29T20:42:31.781Z,,,,1,-1.101214461533281,-1.1849883512428183,,,false,hh,10198.042999809259,response,1.0406934755278734,1.2,-1.2,1.2406966347110775,1.2,-1.2,high,high,,ISIC_0064943.JPG,,ISIC_2687641.JPG,,253,true,0.42000000000000026,ll,keypress(f),0,false,609255,609254.6999998093,599040.083,599039.5999999046,599056.657,609293.178,1,40,29,
sequence,flow.Sequence,6_28,2023-11-29T20:42:31.782Z,,,,,,,,,,,10198.042999809259,completion,,,,,,,high,high,,,,,,,true,,,,,false,609255.5,609254.6999998093,599040.083,599039.5999999046,599056.657,609293.178,1,40,,
trial,html.Screen,6_29_0,2023-11-29T20:42:39.741Z,,,,1,1.0143509683988825,-1.3163955902021656,,,false,lh,7921.421999904676,response,-0.7870237732709365,1.2,-1.2,0.9172955251119376,1.2,-1.2,low,high,,ISIC_0062031.JPG,,ISIC_0057716.JPG,,27,true,0.42000000000000026,hl,keypress(j),0,false,617214.899999857,617214.5999999046,609243.122,609255.6999998093,609293.178,617241.98,1,40,30,
sequence,flow.Sequence,6_29,2023-11-29T20:42:39.742Z,,,,,,,,,,,7921.421999904676,completion,,,,,,,low,high,,,,,,,true,,,,,false,617215.399999857,617214.5999999046,609243.122,609255.5999999046,609293.178,617241.98,1,40,,
trial,html.Screen,6_30_0,2023-11-29T20:42:50.709Z,,,,1,-0.7833710010171356,0.9315588090336896,,,true,hl,10940.719999809284,response,0.991282840649944,1.2,-1.2,-0.9397921099839784,1.2,-1.2,high,low,,ISIC_3826102.JPG,,ISIC_0000463.JPG,,26,true,0.3600000000000002,hl,keypress(j),0,false,628183,628182.6999998093,617208.649,617215.5999999046,617241.98,628196.675,1,40,31,
sequence,flow.Sequence,6_30,2023-11-29T20:42:50.710Z,,,,,,,,,,,10940.719999809284,completion,,,,,,,high,low,,,,,,,true,,,,,false,628183.5999999046,628182.6999998093,617208.649,617215.5999999046,617241.98,628196.675,1,40,,
trial,html.Screen,6_31_0,2023-11-29T20:42:59.717Z,,,,1,-1.185875658992962,-1.2635548590325487,,,false,hh,8993.924999904586,response,0.9509960344525484,1.2,-1.2,1.3440744157482305,1.2,-1.2,high,high,,ISIC_0011703.JPG,,ISIC_8969855.JPG,,253,true,0.42000000000000026,ll,keypress(f),0,false,637190.899999857,637190.5999999046,628180.115,628183.7999999523,628196.675,637197.501,1,40,32,
sequence,flow.Sequence,6_31,2023-11-29T20:42:59.718Z,,,,,,,,,,,8993.924999904586,completion,,,,,,,high,high,,,,,,,true,,,,,false,637191.399999857,637190.5999999046,628180.115,628183.6999998093,628196.675,637197.501,1,40,,
trial,html.Screen,6_32_0,2023-11-29T20:43:06.221Z,,,,1,1.131522954199764,1.1047184491749509,,,true,ll,6496.9989999999525,response,-1.185875658992962,1.2,-1.2,-1.2635548590325487,1.2,-1.2,low,low,,ISIC_1868816.JPG,,ISIC_0011703.JPG,,30,true,0.1,ll,keypress(f),0,false,643694.7999999523,643694.5,637180.964,637191.6999998093,637197.501,643710.244,1,40,33,
sequence,flow.Sequence,6_32,2023-11-29T20:43:06.222Z,,,,,,,,,,,6496.9989999999525,completion,,,,,,,low,low,,,,,,,true,,,,,false,643695.2999999523,643694.5,637180.964,637191.5999999046,637197.501,643710.244,1,40,,
trial,html.Screen,6_33_0,2023-11-29T20:43:16.100Z,,,,1,-1.247270138097585,-1.1704704713504994,,,true,hh,9862.855999904685,response,1.0717785279820962,1.2,-1.2,1.1267239445830604,1.2,-1.2,high,high,,ISIC_0065774.JPG,,ISIC_9948815.JPG,,26,true,0.15000000000000002,hh,keypress(i),0,false,653573.1999998093,653573.0999999046,643693.647,643695.5999999046,643710.244,653579.377,1,40,34,
sequence,flow.Sequence,6_33,2023-11-29T20:43:16.100Z,,,,,,,,,,,9862.855999904685,completion,,,,,,,high,high,,,,,,,true,,,,,false,653573.2999999523,653573.0999999046,643693.647,643695.5,643710.244,653579.377,1,40,,
trial,html.Screen,6_34_0,2023-11-29T20:43:24.262Z,,,,1,-1.2181031651370575,-1.2158573487067317,,,false,hh,8155.322999809287,response,1.057008495826831,1.2,-1.2,1.1278122585028287,1.2,-1.2,high,high,,ISIC_7242312.JPG,,ISIC_2819798.JPG,,26,true,0.15000000000000002,lh,keypress(e),0,false,661734.899999857,661734.6999998093,653562.85,653573.399999857,653579.377,661778.665,1,40,35,
sequence,flow.Sequence,6_34,2023-11-29T20:43:24.262Z,,,,,,,,,,,8155.322999809287,completion,,,,,,,high,high,,,,,,,true,,,,,false,661735.5,661734.6999998093,653562.85,653573.399999857,653579.377,661778.665,1,40,,
trial,html.Screen,6_35_0,2023-11-29T20:43:40.288Z,,,,1,1.2695509547992938,-0.9641099676945492,,,,,16014.569000000018,timeout,-0.7833710010171356,1.2,-1.2,0.9315588090336896,1.2,-1.2,low,high,,ISIC_0025841.JPG,,ISIC_3826102.JPG,,27,true,0.42000000000000026,,,0,false,677760.899999857,677760.5999999046,661728.753,661735.6999998093,661778.665,677793.234,1,40,36,
sequence,flow.Sequence,6_35,2023-11-29T20:43:40.288Z,,,,,,,,,,,15981.934999904595,completion,,,,,,,low,high,,,,,,,true,,,,,false,677761.5,677760.5999999046,661728.753,661735.6999998093,661778.665,677793.234,1,40,,
trial,html.Screen,6_36_0,2023-11-29T20:43:47.285Z,,,,1,1.1137763092539212,1.1599906701455132,,,true,ll,6964.565999952261,response,-1.4645781283163042,1.2,-1.2,-0.9682677628288195,1.2,-1.2,low,low,,ISIC_5413788.JPG,,ISIC_0011505.JPG,,245,true,0.3600000000000002,ll,keypress(f),0,false,684757.899999857,684757.7999999523,677776.555,677761.6999998093,677793.234,684773.691,1,40,37,
sequence,flow.Sequence,6_36,2023-11-29T20:43:47.285Z,,,,,,,,,,,6964.565999952261,completion,,,,,,,low,low,,,,,,,true,,,,,false,684758.1999998093,684757.7999999523,677776.555,677761.6999998093,677793.234,684773.691,1,40,,
trial,html.Screen,6_37_0,2023-11-29T20:43:58.261Z,,,,1,-1.1164729501046406,-1.2978935747992253,,,true,hh,10960.108999952325,response,1.2724584600905462,1.2,-1.2,1.1411016103695344,1.2,-1.2,high,high,,ISIC_0034166.JPG,,ISIC_0059625.JPG,,26,true,0.15000000000000002,hh,keypress(i),0,false,695733.899999857,695733.7999999523,684756.839,684758.1999998093,684773.691,695778.159,1,40,38,
sequence,flow.Sequence,6_37,2023-11-29T20:43:58.261Z,,,,,,,,,,,10960.108999952325,completion,,,,,,,high,high,,,,,,,true,,,,,false,695734,695733.7999999523,684756.839,684758.1999998093,684773.691,695778.159,1,40,,
trial,html.Screen,6_38_0,2023-11-29T20:44:05.143Z,,,,1,-0.7809949855371787,0.8493861117004308,,,false,hl,6837.04099980928,response,0.8809306963311293,1.2,-1.2,-0.8614910030038974,1.2,-1.2,high,low,,ISIC_7450481.JPG,,ISIC_0013731.JPG,,26,true,0.3600000000000002,lh,keypress(e),0,false,702615.5999999046,702615.1999998093,695728.128,695734.1999998093,695778.159,702641.548,1,40,39,
sequence,flow.Sequence,6_38,2023-11-29T20:44:05.143Z,,,,,,,,,,,6837.04099980928,completion,,,,,,,high,low,,,,,,,true,,,,,false,702616.1999998093,702615.1999998093,695728.128,695734.1999998093,695778.159,702641.548,1,40,,
trial,html.Screen,6_39_0,2023-11-29T20:44:12.382Z,,,,1,-0.7911024675435955,0.7975977016137676,,,false,hl,7213.351999856997,response,0.8487429103619056,1.2,-1.2,-0.9778257804233036,1.2,-1.2,high,low,,ISIC_5813642.JPG,,ISIC_4554863.JPG,,33,true,0.42000000000000026,hh,keypress(i),0,false,709855.1999998093,709854.899999857,702608.109,702616.5,702641.548,709872.364,1,40,40,
sequence,flow.Sequence,6_39,2023-11-29T20:44:12.383Z,,,,,,,,,,,7213.351999856997,completion,,,,,,,high,low,,,,,,,true,,,,,false,709855.7999999523,709854.899999857,702608.109,702616.399999857,702641.548,709872.364,1,40,,
practice_loop,flow.Loop,6,2023-11-29T20:44:12.383Z,,,,,,,,,,,358630.64799985697,completion,,,,,,,,,,,,,,,true,,,,,false,709856.0999999046,709854.899999857,351207.496,351213.59999990463,351224.252,709872.364,1,40,,
stair_instructions,html.Screen,7,2023-11-29T20:44:51.317Z,,,,,,,,,,,38916.63600000006,response,,,,,,,,,,,,,,,,,continue,click button,,,748789.5,748789,709855.657,709856.2999999523,709872.364,748814.765,,,,
trial,html.Screen,8_0_0,2023-11-29T20:45:07.324Z,,,,2,-0.0027483411352856,-0.0100996915276271,,0.05,,,16048.003000000026,timeout,-0.7833710010171356,1.2,-1.2,0.9315588090336896,1.2,-1.2,low,high,,ISIC_7364041.JPG,,ISIC_3826102.JPG,33,27,false,0.42000000000000026,,,0,true,764797.0999999046,764796.7999999523,748798.186,748789.5999999046,748814.765,764862.768,1,40,1,
sequence,flow.Sequence,8_0,2023-11-29T20:45:07.325Z,,,,,,,,,,,15982.034999952302,completion,,,,,,,low,high,,,,,,,false,,,,,true,764797.7999999523,764796.7999999523,748798.186,748789.5999999046,748814.765,764862.768,1,40,,
trial,html.Screen,8_1_0,2023-11-29T20:45:16.032Z,,,,2,0.0112310719058792,-0.0469047359904117,,0.05,false,lh,8641.131999856909,response,-0.8035152873995188,1.2,-1.2,0.82868450251632,1.2,-1.2,low,high,,ISIC_0068184.JPG,,ISIC_0010671.JPG,33,27,false,0.42000000000000026,hh,keypress(i),0,true,773504.1999998093,773503.899999857,764845.959,764798.0999999046,764862.768,773529.601,1,40,2,
sequence,flow.Sequence,8_1,2023-11-29T20:45:16.033Z,,,,,,,,,,,8641.131999856909,completion,,,,,,,low,high,,,,,,,false,,,,,true,773504.6999998093,773503.899999857,764845.959,764798,764862.768,773529.601,1,40,,
trial,html.Screen,8_2_0,2023-11-29T20:45:23.479Z,,,,2,-0.007397293189458,-0.0174716772037504,,0.05,true,ll,7421.198999952292,response,-1.188743606919222,1.15,-1.2,-1.0980226451001782,1.15,-1.15,low,low,,ISIC_0056226.JPG,,ISIC_0060481.JPG,33,31,false,0.1,ll,keypress(f),0,true,780951.0999999046,780950.7999999523,773512.844,773505,773529.601,780960.669,1,40,3,
sequence,flow.Sequence,8_2,2023-11-29T20:45:23.480Z,,,,,,,,,,,7421.198999952292,completion,,,,,,,low,low,,,,,,,false,,,,,true,780951.6999998093,780950.7999999523,773512.844,773504.899999857,773529.601,780960.669,1,40,,
trial,html.Screen,8_3_0,2023-11-29T20:45:34.621Z,,,,2,0.0112310719058792,-0.0469047359904117,,0.05,false,hh,11132.230999856954,response,1.086647361897092,1.15,-1.15,1.1528935990320313,1.15,-1.15,high,high,,ISIC_0068184.JPG,,ISIC_3505339.JPG,33,30,false,0.13,lh,keypress(e),0,true,792093,792092.899999857,780944.134,780952,780960.669,792099.022,1,40,4,
sequence,flow.Sequence,8_3,2023-11-29T20:45:34.621Z,,,,,,,,,,,11132.230999856954,completion,,,,,,,high,high,,,,,,,false,,,,,true,792093.0999999046,792092.899999857,780944.134,780951.899999857,780960.669,792099.022,1,40,,
trial,html.Screen,8_4_0,2023-11-29T20:45:45.446Z,,,,2,0.0134764727102299,0.0033499036460912,,0.05,true,hh,10818.777999952319,response,1.0789197754694622,1.15,-1.15,1.1654690806750023,1.0999999999999999,-1.15,high,high,,ISIC_0009998.JPG,,ISIC_1576437.JPG,33,25,false,0.1,hh,keypress(i),0,true,802917.899999857,802917.7999999523,792082.435,792093.1999998093,792099.022,802920.093,1,40,5,
sequence,flow.Sequence,8_4,2023-11-29T20:45:45.446Z,,,,,,,,,,,10818.777999952319,completion,,,,,,,high,high,,,,,,,false,,,,,true,802918.0999999046,802917.7999999523,792082.435,792093.1999998093,792099.022,802920.093,1,40,,
trial,html.Screen,8_5_0,2023-11-29T20:45:51.951Z,,,,2,-0.0057914759495055,-0.0074667911845194,,0.05,true,ll,6502.806999856955,response,-1.101346104814838,1.15,-1.15,-1.1225813067473052,1.0999999999999999,-1.15,low,low,,ISIC_0058723.JPG,,ISIC_8175453.JPG,33,27,false,0.1,ll,keypress(f),0,true,809423.1999998093,809422.899999857,802903.553,802918.0999999046,802920.093,809432.758,1,40,6,
sequence,flow.Sequence,8_5,2023-11-29T20:45:51.952Z,,,,,,,,,,,6502.806999856955,completion,,,,,,,low,low,,,,,,,false,,,,,true,809423.5999999046,809422.899999857,802903.553,802918.0999999046,802920.093,809432.758,1,40,,
trial,html.Screen,8_6_0,2023-11-29T20:46:00.814Z,,,,2,-0.0085520978188085,0.0464691161264081,,0.05,true,hh,8852.941999809234,response,1.200284020742371,1.15,-1.0999999999999999,1.0002918079433898,1.0999999999999999,-1.0999999999999999,high,high,,ISIC_0758797.JPG,,ISIC_0678758.JPG,33,25,false,0.1,hh,keypress(i),0,true,818285.7999999523,818285.6999998093,809416.031,809423.899999857,809432.758,818300.185,1,40,7,
sequence,flow.Sequence,8_6,2023-11-29T20:46:00.814Z,,,,,,,,,,,8852.941999809234,completion,,,,,,,high,high,,,,,,,false,,,,,true,818285.899999857,818285.6999998093,809416.031,809423.7999999523,809432.758,818300.185,1,40,,
trial,html.Screen,8_7_0,2023-11-29T20:46:09.391Z,,,,2,0.0348234368746005,-0.0236866303880924,,0.05,false,ll,8562.714999856893,response,-1.0088070132449485,1.032880444309196,-1.0999999999999999,-1.0292526683018866,1.032880444309196,-1.0999999999999999,low,low,,ISIC_0011099.JPG,,ISIC_0059314.JPG,33,31,false,0.1,lh,keypress(e),0,true,826863.1999998093,826862.899999857,818283.463,818286,818300.185,826883.385,1,40,8,
sequence,flow.Sequence,8_7,2023-11-29T20:46:09.392Z,,,,,,,,,,,8562.714999856893,completion,,,,,,,low,low,,,,,,,false,,,,,true,826863.7999999523,826862.899999857,818283.463,818286,818300.185,826883.385,1,40,,
trial,html.Screen,8_8_0,2023-11-29T20:46:20.112Z,,,,2,-0.0456515796420274,0.0273567130070961,,0.05,false,hl,10699.914999952307,response,0.991282840649944,1.032880444309196,-1.0999999999999999,-0.9397921099839784,1.032880444309196,-1.15,high,low,,ISIC_0068610.JPG,,ISIC_0000463.JPG,33,25,false,0.27000000000000013,lh,keypress(e),0,true,837583.6999998093,837583.2999999523,826850.135,826864,826883.385,837587.56,1,40,9,
sequence,flow.Sequence,8_8,2023-11-29T20:46:20.113Z,,,,,,,,,,,10699.914999952307,completion,,,,,,,high,low,,,,,,,false,,,,,true,837584.1999998093,837583.2999999523,826850.135,826863.899999857,826883.385,837587.56,1,40,,
trial,html.Screen,8_9_0,2023-11-29T20:46:30.920Z,,,,2,-0.0050679133050021,0.0009714874637896,,0.05,false,hh,10803.539999904577,response,1.0375203228848855,1.082880444309196,-1.0999999999999999,0.9394358755892184,1.032880444309196,-1.15,high,high,,ISIC_9848743.JPG,,ISIC_4264600.JPG,33,28,false,0.1,ll,keypress(f),0,true,848391.399999857,848391.0999999046,837571.029,837584.399999857,837587.56,848408.627,1,40,10,
sequence,flow.Sequence,8_9,2023-11-29T20:46:30.921Z,,,,,,,,,,,10803.539999904577,completion,,,,,,,high,high,,,,,,,false,,,,,true,848391.899999857,848391.0999999046,837571.029,837584.399999857,837587.56,848408.627,1,40,,
trial,html.Screen,8_10_0,2023-11-29T20:46:41.040Z,,,,2,0.013431314305098,-0.0140597582944232,,0.05,true,hl,10102.472999904654,response,1.1181734135756094,1.132880444309196,-1.0999999999999999,-0.944560381774994,1.082880444309196,-1.15,high,low,,ISIC_0069617.JPG,,ISIC_9688534.JPG,33,25,false,0.30000000000000016,hl,keypress(j),0,true,858511.399999857,858511.0999999046,848392.069,848392.0999999046,848408.627,858528.324,1,40,11,
sequence,flow.Sequence,8_10,2023-11-29T20:46:41.041Z,,,,,,,,,,,10102.472999904654,completion,,,,,,,high,low,,,,,,,false,,,,,true,858511.899999857,858511.0999999046,848392.069,848392.0999999046,848408.627,858528.324,1,40,,
trial,html.Screen,8_11_0,2023-11-29T20:46:51.912Z,,,,2,0.0051189696037511,-0.0396625911332438,,0.05,false,lh,10854.77599990461,response,-0.7998855902596425,1.132880444309196,-1.0999999999999999,1.1518579145663017,1.082880444309196,-1.15,low,high,,ISIC_9742891.JPG,,ISIC_0025061.JPG,33,27,false,0.3200000000000002,hh,keypress(i),0,true,869383.399999857,869383.0999999046,858511.749,858512.0999999046,858528.324,869399.484,1,40,12,
sequence,flow.Sequence,8_11,2023-11-29T20:46:51.912Z,,,,,,,,,,,10854.77599990461,completion,,,,,,,low,high,,,,,,,false,,,,,true,869383.7999999523,869383.0999999046,858511.749,858512,858528.324,869399.484,1,40,,
trial,html.Screen,8_12_0,2023-11-29T20:47:02.560Z,,,,2,-0.0107854985447517,-0.0478010417136109,,0.05,false,hl,10631.415999856894,response,1.2364994561934892,1.132880444309196,-1.15,-0.9174173651516624,1.082880444309196,-1.15,high,low,,ISIC_0010500.JPG,,ISIC_3481133.JPG,33,25,false,0.30000000000000016,lh,keypress(e),0,true,880031.1999998093,880030.899999857,869382.803,869384.0999999046,869399.484,880053.545,1,40,13,
sequence,flow.Sequence,8_12,2023-11-29T20:47:02.560Z,,,,,,,,,,,10631.415999856894,completion,,,,,,,high,low,,,,,,,false,,,,,true,880031.6999998093,880030.899999857,869382.803,869384,869399.484,880053.545,1,40,,
trial,html.Screen,8_13_0,2023-11-29T20:47:13.200Z,,,,2,-0.0070725527271049,-0.0049995141077508,,0.05,false,lh,10617.55499990459,response,-0.8200962008791046,1.182880444309196,-1.15,0.7936051642828523,1.082880444309196,-1.15,low,high,,ISIC_6124481.JPG,,ISIC_0027031.JPG,33,26,false,0.3600000000000002,hh,keypress(i),0,true,890671.399999857,890671.0999999046,880020.211,880031.899999857,880053.545,890674.307,1,40,14,
sequence,flow.Sequence,8_13,2023-11-29T20:47:13.201Z,,,,,,,,,,,10617.55499990459,completion,,,,,,,low,high,,,,,,,false,,,,,true,890671.899999857,890671.0999999046,880020.211,880031.899999857,880053.545,890674.307,1,40,,
trial,html.Screen,8_14_0,2023-11-29T20:47:23.841Z,,,,2,-0.0389988030702649,-0.0143212271490256,,0.05,true,ll,10636.892999809235,response,-1.2169050727663315,1.182880444309196,-1.15,-1.1067845563421794,0.922731539424577,-1.15,low,low,,ISIC_0064669.JPG,,ISIC_7016261.JPG,33,27,false,0.1,ll,keypress(f),0,true,901311.6999998093,901311.1999998093,890657.628,890672.0999999046,890674.307,901328.315,1,40,15,
sequence,flow.Sequence,8_14,2023-11-29T20:47:23.842Z,,,,,,,,,,,10636.892999809235,completion,,,,,,,low,low,,,,,,,false,,,,,true,901312.1999998093,901311.1999998093,890657.628,890672.0999999046,890674.307,901328.315,1,40,,
trial,html.Screen,8_15_0,2023-11-29T20:47:27.888Z,,,,2,-0.0389988030702649,-0.0143212271490256,,0.05,false,hh,4030.384999809321,response,1.2406755059898278,1.182880444309196,-1.15,0.870899898309629,0.922731539424577,-1.15,high,high,,ISIC_0064669.JPG,,ISIC_7947847.JPG,33,28,false,0.1,hl,keypress(j),0,true,905359.0999999046,905358.6999998093,901311.792,901312.5,901328.315,905369.502,1,40,16,
sequence,flow.Sequence,8_15,2023-11-29T20:47:27.889Z,,,,,,,,,,,4030.384999809321,completion,,,,,,,high,high,,,,,,,false,,,,,true,905359.5999999046,905358.6999998093,901311.792,901312.399999857,901328.315,905369.502,1,40,,
trial,html.Screen,8_16_0,2023-11-29T20:47:36.633Z,,,,2,0.0245376145053177,-0.0436993426328401,,0.05,false,hh,8733.597999904654,response,1.0955230579285264,1.182880444309196,-1.15,0.8842300616754196,0.972731539424577,-1.15,high,high,,ISIC_0056444.JPG,,ISIC_4148086.JPG,33,30,false,0.11,lh,keypress(e),0,true,914103.399999857,914103.0999999046,905353.029,905359.899999857,905369.502,914119.903,1,40,17,
sequence,flow.Sequence,8_16,2023-11-29T20:47:36.633Z,,,,,,,,,,,8733.597999904654,completion,,,,,,,high,high,,,,,,,false,,,,,true,914104,914103.0999999046,905353.029,905359.7999999523,905369.502,914119.903,1,40,,
trial,html.Screen,8_17_0,2023-11-29T20:47:45.041Z,,,,2,-0.0069555338059566,0.0310100918136373,,0.05,true,ll,8391.09699999995,response,-1.2071341803968807,1.182880444309196,-1.15,-1.235960269089932,0.972731539424577,-1.15,low,low,,ISIC_0011177.JPG,,ISIC_0058174.JPG,33,27,false,0.1,ll,keypress(f),0,true,922511.2999999523,922511,914103.223,914104.2999999523,914119.903,922536.214,1,40,18,
sequence,flow.Sequence,8_17,2023-11-29T20:47:45.041Z,,,,,,,,,,,8391.09699999995,completion,,,,,,,low,low,,,,,,,false,,,,,true,922511.7999999523,922511,914103.223,914104.1999998093,914119.903,922536.214,1,40,,
trial,html.Screen,8_18_0,2023-11-29T20:47:54.440Z,,,,2,-0.0107854985447517,-0.0478010417136109,,0.05,false,hl,9374.08599995228,response,1.0656673213158945,1.182880444309196,-1.0999999999999999,-0.8082541692781954,0.972731539424577,-1.0999999999999999,high,low,,ISIC_0010500.JPG,,ISIC_0033985.JPG,33,25,false,0.3200000000000002,ll,keypress(f),0,true,931910.5999999046,931910.2999999523,922502.983,922512.0999999046,922536.214,931921.241,1,40,19,
sequence,flow.Sequence,8_18,2023-11-29T20:47:54.440Z,,,,,,,,,,,9374.08599995228,completion,,,,,,,high,low,,,,,,,false,,,,,true,931911,931910.2999999523,922502.983,922512,922536.214,931921.241,1,40,,
trial,html.Screen,8_19_0,2023-11-29T20:48:03.633Z,,,,2,0.0245376145053177,-0.0436993426328401,,0.05,true,ll,9181.65899985691,response,-1.0651492409820618,1.182880444309196,-1.0999999999999999,-1.1862499256725747,0.972731539424577,-1.0999999999999999,low,low,,ISIC_0056444.JPG,,ISIC_0065421.JPG,33,31,false,0.1,ll,keypress(f),0,true,941103.1999998093,941102.899999857,931904.569,931911.0999999046,931921.241,941105.8,1,40,20,
sequence,flow.Sequence,8_19,2023-11-29T20:48:03.633Z,,,,,,,,,,,9181.65899985691,completion,,,,,,,low,low,,,,,,,false,,,,,true,941103.6999998093,941102.899999857,931904.569,931911,931921.241,941105.8,1,40,,
trial,html.Screen,8_20_0,2023-11-29T20:48:08.337Z,,,,2,-0.0363437082783146,-0.0333332186217051,,0.05,false,ll,4701.49999995227,response,-1.0088070132449485,1.182880444309196,-1.0999999999999999,-1.0292526683018866,0.972731539424577,-1.0756995833273182,low,low,,ISIC_3314555.JPG,,ISIC_0059314.JPG,33,28,false,0.1,lh,keypress(e),0,true,945807.6999998093,945807.2999999523,941089.153,941104,941105.8,945814.902,1,40,21,
sequence,flow.Sequence,8_20,2023-11-29T20:48:08.337Z,,,,,,,,,,,4701.49999995227,completion,,,,,,,low,low,,,,,,,false,,,,,true,945808.1999998093,945807.2999999523,941089.153,941104,941105.8,945814.902,1,40,,
trial,html.Screen,8_21_0,2023-11-29T20:48:16.745Z,,,,2,0.000047919190197942736,0.0462652940855003,,0.05,false,ll,8399.997999856947,response,-0.8942749799405368,1.182880444309196,-0.986978127113505,-1.2228671360399193,0.972731539424577,-1.1256995833273182,low,low,,ISIC_0011507.JPG,,ISIC_0033194.JPG,33,33,false,0.1,hh,keypress(i),0,true,954215.1999998093,954214.899999857,945798.447,945808.399999857,945814.902,954231.276,1,40,22,
sequence,flow.Sequence,8_21,2023-11-29T20:48:16.746Z,,,,,,,,,,,8399.997999856947,completion,,,,,,,low,low,,,,,,,false,,,,,true,954215.6999998093,954214.899999857,945798.447,945808.399999857,945814.902,954231.276,1,40,,
trial,html.Screen,8_22_0,2023-11-29T20:48:22.329Z,,,,2,-0.0069555338059566,0.0310100918136373,,0.05,false,hl,5567.823999904678,response,1.2695509547992938,1.182880444309196,-1.036978127113505,-0.9641099676945492,0.972731539424577,-1.1756995833273183,high,low,,ISIC_0011177.JPG,,ISIC_0025841.JPG,33,25,false,0.3300000000000002,ll,keypress(f),0,true,959799.399999857,959799.0999999046,954214.732,954216,954231.276,959808.775,1,40,23,
sequence,flow.Sequence,8_22,2023-11-29T20:48:22.330Z,,,,,,,,,,,5567.823999904678,completion,,,,,,,high,low,,,,,,,false,,,,,true,959799.899999857,959799.0999999046,954214.732,954215.899999857,954231.276,959808.775,1,40,,
trial,html.Screen,8_23_0,2023-11-29T20:48:31.065Z,,,,2,-0.0389988030702649,-0.0143212271490256,,0.05,false,ll,8726.224999999977,response,-0.9562051868665176,1.182880444309196,-1.036978127113505,-1.110797661774712,0.972731539424577,-1.1756995833273183,low,low,,ISIC_0064669.JPG,,ISIC_0061199.JPG,33,26,false,0.1,hl,keypress(j),0,true,968535.2999999523,968535,959792.179,959800.1999998093,959808.775,968559.166,1,40,24,
sequence,flow.Sequence,8_23,2023-11-29T20:48:31.066Z,,,,,,,,,,,8726.224999999977,completion,,,,,,,low,low,,,,,,,false,,,,,true,968535.7999999523,968535,959792.179,959800.0999999046,959808.775,968559.166,1,40,,
trial,html.Screen,8_24_0,2023-11-29T20:48:39.224Z,,,,2,-0.0057914759495055,-0.0074667911845194,,0.05,false,lh,8134.7339998569805,response,-1.2429840165564423,1.182880444309196,-1.086978127113505,0.7308963943423881,0.972731539424577,-0.9874538147346306,low,high,,ISIC_0058723.JPG,,ISIC_1264576.JPG,33,25,false,0.28000000000000014,ll,keypress(f),0,true,976694,976693.899999857,968525.944,968536.0999999046,968559.166,976708.443,1,40,25,
sequence,flow.Sequence,8_24,2023-11-29T20:48:39.224Z,,,,,,,,,,,8134.7339998569805,completion,,,,,,,low,high,,,,,,,false,,,,,true,976694.0999999046,976693.899999857,968525.944,968535.899999857,968559.166,976708.443,1,40,,
trial,html.Screen,8_25_0,2023-11-29T20:48:46.961Z,,,,2,-0.0363437082783146,-0.0333332186217051,,0.05,false,hh,7722.456999856979,response,1.135787555082309,1.182880444309196,-1.086978127113505,1.0095789588135065,1.022731539424577,-0.9874538147346306,high,high,,ISIC_3314555.JPG,,ISIC_0032526.JPG,33,30,false,0.12,lh,keypress(e),0,true,984431.399999857,984430.899999857,976691.592,976694.2999999523,976708.443,984456.757,1,40,26,
sequence,flow.Sequence,8_25,2023-11-29T20:48:46.962Z,,,,,,,,,,,7722.456999856979,completion,,,,,,,high,high,,,,,,,false,,,,,true,984431.899999857,984430.899999857,976691.592,976694.2999999523,976708.443,984456.757,1,40,,
trial,html.Screen,8_26_0,2023-11-29T20:48:53.112Z,,,,2,-0.0450282431170921,0,,0.05,false,hl,6125.042999952333,response,1.0865333402803938,1.182880444309196,-1.086978127113505,-1.0542635307358266,1.022731539424577,-0.9874538147346306,high,low,,ISIC_1805163.JPG,,ISIC_0034006.JPG,33,28,false,0.30000000000000016,hh,keypress(i),0,true,990581.7999999523,990581.7999999523,984423.485,984432.1999998093,984456.757,990602.065,1,40,27,
sequence,flow.Sequence,8_26,2023-11-29T20:48:53.112Z,,,,,,,,,,,6125.042999952333,completion,,,,,,,high,low,,,,,,,false,,,,,true,990582,990581.7999999523,984423.485,984432.0999999046,984456.757,990602.065,1,40,,
trial,html.Screen,8_27_0,2023-11-29T20:48:57.609Z,,,,2,-0.0329095507339554,0.0382899749693245,,0.05,false,hl,4476.734999952372,response,0.8860551570327019,1.182880444309196,-1.086978127113505,-0.8067116931297591,1.022731539424577,-1.0374538147346306,high,low,,ISIC_8812781.JPG,,ISIC_1457687.JPG,33,25,false,0.30000000000000016,lh,keypress(e),0,true,995079.1999998093,995078.7999999523,990568.777,990582,990602.065,995094.148,1,40,28,
sequence,flow.Sequence,8_27,2023-11-29T20:48:57.610Z,,,,,,,,,,,4476.734999952372,completion,,,,,,,high,low,,,,,,,false,,,,,true,995079.6999998093,995078.7999999523,990568.777,990582,990602.065,995094.148,1,40,,
trial,html.Screen,8_28_0,2023-11-29T20:49:07.673Z,,,,2,-0.007397293189458,-0.0174716772037504,,0.05,false,lh,10048.751999856904,response,-0.7998855902596425,1.182880444309196,-1.086978127113505,1.1518579145663017,1.022731539424577,-1.0874538147346307,low,high,,ISIC_0056226.JPG,,ISIC_0025061.JPG,33,27,false,0.30000000000000016,ll,keypress(f),0,true,1005143.1999998093,1005142.899999857,995077.478,995080,995094.148,1005163.744,1,40,29,
sequence,flow.Sequence,8_28,2023-11-29T20:49:07.673Z,,,,,,,,,,,10048.751999856904,completion,,,,,,,low,high,,,,,,,false,,,,,true,1005143.5,1005142.899999857,995077.478,995079.899999857,995094.148,1005163.744,1,40,,
trial,html.Screen,8_29_0,2023-11-29T20:49:13.921Z,,,,2,0.0097091270150747,-0.0417921315885292,,0.05,false,hl,6227.055999952368,response,1.331700944308701,1.182880444309196,-1.036978127113505,-0.9395196143259436,1.072731539424577,-1.0874538147346307,high,low,,ISIC_3967213.JPG,,ISIC_1668831.JPG,33,26,false,0.3200000000000002,lh,keypress(e),0,true,1011391.0999999046,1011390.7999999523,1005130.483,1005143.7999999523,1005163.744,1011409.246,1,40,30,
sequence,flow.Sequence,8_29,2023-11-29T20:49:13.921Z,,,,,,,,,,,6227.055999952368,completion,,,,,,,high,low,,,,,,,false,,,,,true,1011391.5999999046,1011390.7999999523,1005130.483,1005143.6999998093,1005163.744,1011409.246,1,40,,
trial,html.Screen,8_30_0,2023-11-29T20:49:23.258Z,,,,2,-0.039728379742806,0.0228701131373768,,0.05,false,lh,9318.053999952273,response,-0.9388660854518424,1.182880444309196,-1.036978127113505,0.79533948698576,1.072731539424577,-1.1374538147346307,low,high,,ISIC_0054073.JPG,,ISIC_9291926.JPG,33,26,false,0.28000000000000014,hh,keypress(i),0,true,1020727.6999998093,1020727.2999999523,1011376.023,1011391.7999999523,1011409.246,1020744.075,1,40,31,
sequence,flow.Sequence,8_30,2023-11-29T20:49:23.259Z,,,,,,,,,,,9318.053999952273,completion,,,,,,,low,high,,,,,,,false,,,,,true,1020728.0999999046,1020727.2999999523,1011376.023,1011391.7999999523,1011409.246,1020744.075,1,40,,
trial,html.Screen,8_31_0,2023-11-29T20:49:29.578Z,,,,2,0.0362376068089956,0.047825070846155,,0.05,false,hl,6302.824999856995,response,1.331700944308701,1.182880444309196,-1.086978127113505,-0.9395196143259436,1.072731539424577,-1.1374538147346307,high,low,,ISIC_6985114.JPG,,ISIC_1668831.JPG,33,27,false,0.3300000000000002,hh,keypress(i),0,true,1027047.1999998093,1027046.899999857,1020727.517,1020728.399999857,1020744.075,1027073.065,1,40,32,
sequence,flow.Sequence,8_31,2023-11-29T20:49:29.578Z,,,,,,,,,,,6302.824999856995,completion,,,,,,,high,low,,,,,,,false,,,,,true,1027047.6999998093,1027046.899999857,1020727.517,1020728.2999999523,1020744.075,1027073.065,1,40,,
trial,html.Screen,8_32_0,2023-11-29T20:49:37.688Z,,,,2,-0.007397293189458,-0.0174716772037504,,0.05,true,lh,8084.435000000056,response,-0.9873794329144926,1.182880444309196,-1.086978127113505,0.7991077882008257,1.072731539424577,-1.1874538147346307,low,high,,ISIC_0056226.JPG,,ISIC_0013498.JPG,33,26,false,0.31000000000000016,lh,keypress(e),0,true,1035157.5999999046,1035157.5,1027039.805,1027048,1027073.065,1035172.168,1,40,33,
sequence,flow.Sequence,8_32,2023-11-29T20:49:37.688Z,,,,,,,,,,,8084.435000000056,completion,,,,,,,low,high,,,,,,,false,,,,,true,1035157.6999998093,1035157.5,1027039.805,1027047.899999857,1027073.065,1035172.168,1,40,,
trial,html.Screen,8_33_0,2023-11-29T20:49:44.202Z,,,,2,-0.039728379742806,0.0228701131373768,,0.05,true,ll,6498.832000000053,response,-1.029404425826352,1.182880444309196,-1.086978127113505,-1.277112218199985,1.022731539424577,-1.1874538147346307,low,low,,ISIC_0054073.JPG,,ISIC_0057188.JPG,33,31,false,0.11,ll,keypress(f),0,true,1041671.399999857,1041671,1035155.508,1035157.6999998093,1035172.168,1041684.815,1,40,34,
sequence,flow.Sequence,8_33,2023-11-29T20:49:44.202Z,,,,,,,,,,,6498.832000000053,completion,,,,,,,low,low,,,,,,,false,,,,,true,1041671.899999857,1041671,1035155.508,1035157.6999998093,1035172.168,1041684.815,1,40,,
trial,html.Screen,8_34_0,2023-11-29T20:49:50.762Z,,,,2,0.0112310719058792,-0.0469047359904117,,0.05,false,hh,6546.384999809321,response,1.1204797335739165,1.182880444309196,-1.1032583220131684,0.9035622700206098,1.022731539424577,-1.1874538147346307,high,high,,ISIC_0068184.JPG,,ISIC_5688950.JPG,33,30,false,0.12,lh,keypress(e),0,true,1048231.5,1048231.1999998093,1041668.159,1041672.1999998093,1041684.815,1048247.614,1,40,35,
sequence,flow.Sequence,8_34,2023-11-29T20:49:50.762Z,,,,,,,,,,,6546.384999809321,completion,,,,,,,high,high,,,,,,,false,,,,,true,1048232.0999999046,1048231.1999998093,1041668.159,1041672.0999999046,1041684.815,1048247.614,1,40,,
trial,html.Screen,8_35_0,2023-11-29T20:49:54.385Z,,,,2,-0.0057914759495055,-0.0074667911845194,,0.05,false,hl,3607.085999809322,response,0.869932994914832,1.182880444309196,-1.1032583220131684,-0.8880533324432531,1.022731539424577,-1.1874538147346307,high,low,,ISIC_0058723.JPG,,ISIC_8617084.JPG,33,25,false,0.3400000000000002,hh,keypress(i),0,true,1051855.0999999046,1051854.6999998093,1048231.086,1048232.399999857,1048247.614,1051871.333,1,40,36,
sequence,flow.Sequence,8_35,2023-11-29T20:49:54.386Z,,,,,,,,,,,3607.085999809322,completion,,,,,,,high,low,,,,,,,false,,,,,true,1051855.5999999046,1051854.6999998093,1048231.086,1048232.1999998093,1048247.614,1051871.333,1,40,,
trial,html.Screen,8_36_0,2023-11-29T20:49:57.914Z,,,,2,0.0188047466661863,-0.0288346930436979,,0.05,false,lh,3511.8669998091646,response,-0.991146183030456,1.182880444309196,-1.1032583220131684,0.9949639823722534,1.022731539424577,-1.1874538147346307,low,high,,ISIC_0014157.JPG,,ISIC_6342224.JPG,33,25,false,0.31000000000000016,hh,keypress(i),0,true,1055383.5,1055383.1999998093,1051854.727,1051855.6999998093,1051871.333,1055394.922,1,40,37,
sequence,flow.Sequence,8_36,2023-11-29T20:49:57.914Z,,,,,,,,,,,3511.8669998091646,completion,,,,,,,low,high,,,,,,,false,,,,,true,1055384,1055383.1999998093,1051854.727,1051855.5999999046,1051871.333,1055394.922,1,40,,
trial,html.Screen,8_37_0,2023-11-29T20:50:00.562Z,,,,2,0.0112310719058792,-0.0469047359904117,,0.05,false,hh,2635.9779998569284,response,1.2111695767373332,1.182880444309196,-1.1532583220131685,0.8313549130647981,0.8824484886435426,-1.1874538147346307,high,high,,ISIC_0068184.JPG,,ISIC_8627293.JPG,33,27,false,0.1,lh,keypress(e),0,true,1058031.1999998093,1058030.899999857,1055378.357,1055384.2999999523,1055394.922,1058050.615,1,40,38,
sequence,flow.Sequence,8_37,2023-11-29T20:50:00.562Z,,,,,,,,,,,2635.9779998569284,completion,,,,,,,high,high,,,,,,,false,,,,,true,1058031.6999998093,1058030.899999857,1055378.357,1055384.1999998093,1055394.922,1058050.615,1,40,,
trial,html.Screen,8_38_0,2023-11-29T20:50:04.586Z,,,,2,0.0097091270150747,-0.0417921315885292,,0.05,true,hh,4004.5849998092744,response,1.13791006772072,1.182880444309196,-1.1532583220131685,0.8618956235878876,0.8824484886435426,-1.1874538147346307,high,high,,ISIC_3967213.JPG,,ISIC_6635699.JPG,33,27,false,0.1,hh,keypress(i),0,true,1062055.5999999046,1062055.1999998093,1058016.756,1058032,1058050.615,1062075.815,1,40,39,
sequence,flow.Sequence,8_38,2023-11-29T20:50:04.587Z,,,,,,,,,,,4004.5849998092744,completion,,,,,,,high,high,,,,,,,false,,,,,true,1062056.1999998093,1062055.1999998093,1058016.756,1058031.899999857,1058050.615,1062075.815,1,40,,
trial,html.Screen,8_39_0,2023-11-29T20:50:12.402Z,,,,2,-0.0116094682222121,0.0258434522530318,,0.05,false,lh,7794.984999952372,response,-0.8816288864119318,1.182880444309196,-1.1532583220131685,0.801867301188093,0.9499028456543037,-1.1874538147346307,low,high,,ISIC_9239632.JPG,,ISIC_9196783.JPG,33,25,false,0.31000000000000016,ll,keypress(f),0,true,1069871.1999998093,1069870.7999999523,1062041.325,1062056.399999857,1062075.815,1069889.883,1,40,40,
sequence,flow.Sequence,8_39,2023-11-29T20:50:12.402Z,,,,,,,,,,,7794.984999952372,completion,,,,,,,low,high,,,,,,,false,,,,,true,1069871.7999999523,1069870.7999999523,1062041.325,1062056.2999999523,1062075.815,1069889.883,1,40,,
stair_loop,flow.Loop,8,2023-11-29T20:50:12.403Z,,,,,,,,,,,321056.0349999523,completion,,,,,,,,,,,,,,,false,,,,,true,1069872.1999998093,1069870.7999999523,748798.186,748789.5,748814.765,1069889.883,1,40,,
exp_instructions,html.Screen,9,2023-11-29T20:50:52.841Z,,,,,,,,,,,40419.9169999524,response,,,,,,,,,,,,,,,,,continue,keypress(Space),,,1110310.6999998093,1110309.7999999523,1069856.511,1069872.399999857,1069889.883,1110318.437,,,,
trial,html.Screen,10_0_0,2023-11-29T20:51:08.831Z,,,,1,0.0112310719058792,-0.0469047359904117,,0.05,,,16014.670000000158,timeout,1.0878102877901663,1.1828804443091958,-1.0850132792277292,0.9483364581769096,1.0025617996579599,-1.1251029684531684,high,high,,ISIC_0068184.JPG,8,ISIC_1413242.JPG,33,28,false,0.11,,,0,false,1126300.6999998093,1126300.1999998093,1110301.994,1110311.2999999523,1110318.437,1126333.107,5,600,1,
break,html.Screen,10_0_1,2023-11-29T20:51:08.833Z,,,,,,,,,,,NaN,,,,,,,,high,high,,,,,,,false,,,,,false,1126301.899999857,1126301.5,,1126301,,1126333.107,5,600,,
break_continue,html.Screen,10_0_2,2023-11-29T20:51:08.833Z,,,,,,,,,,,NaN,,,,,,,,high,high,,,,,,,false,,,,,false,1126302.7999999523,1126302.2999999523,,1126302.0999999046,,1126333.107,5,600,,
sequence,flow.Sequence,10_0,2023-11-29T20:51:08.834Z,,,,,,,,,,,15983.862999952398,completion,,,,,,,high,high,,,,,,,false,,,,,false,1126303.0999999046,1126302.2999999523,1110301.994,1110311.1999998093,1110318.437,1126333.107,5,600,,
trial,html.Screen,10_1_0,2023-11-29T20:51:15.242Z,,,,1,0.0051189696037511,-0.0396625911332438,,0.05,true,hh,6378.092999809189,response,1.2711018615747949,1.1828804443091958,-1.0850132792277292,1.1042234044781618,1.0025617996579599,-1.1251029684531684,high,high,,ISIC_9742891.JPG,9,ISIC_8603734.JPG,33,28,false,0.11,hh,keypress(i),0,false,1132711.5,1132711.1999998093,1126316.346,1126303.1999998093,1126333.107,1132728.791,5,600,2,
break,html.Screen,10_1_1,2023-11-29T20:51:15.243Z,,,,,,,,,,,NaN,,,,,,,,high,high,,,,,,,false,,,,,false,1132712.6999998093,1132712.399999857,,1132711.899999857,,1132728.791,5,600,,
break_continue,html.Screen,10_1_2,2023-11-29T20:51:15.244Z,,,,,,,,,,,NaN,,,,,,,,high,high,,,,,,,false,,,,,false,1132713.5,1132713.1999998093,,1132712.899999857,,1132728.791,5,600,,
sequence,flow.Sequence,10_1,2023-11-29T20:51:15.244Z,,,,,,,,,,,6380.092999809189,completion,,,,,,,high,high,,,,,,,false,,,,,false,1132713.7999999523,1132713.1999998093,1126316.346,1126303.1999998093,1126333.107,1132728.791,5,600,,
trial,html.Screen,10_2_0,2023-11-29T20:51:20.194Z,,,,1,-0.0456515796420274,0.0273567130070961,,0.05,false,hh,4934.209000000032,response,1.191820312920968,1.1828804443091958,-1.0850132792277292,0.9721094751150764,1.0025617996579599,-1.1251029684531684,high,high,,ISIC_0068610.JPG,8,ISIC_5157775.JPG,33,28,false,0.11,lh,keypress(e),0,false,1137663.399999857,1137663,1132712.075,1132714,1132728.791,1137688.37,5,600,3,
break,html.Screen,10_2_1,2023-11-29T20:51:20.195Z,,,,,,,,,,,NaN,,,,,,,,high,high,,,,,,,false,,,,,false,1137664.5999999046,1137664.2999999523,,1137663.7999999523,,1137688.37,5,600,,
break_continue,html.Screen,10_2_2,2023-11-29T20:51:20.196Z,,,,,,,,,,,NaN,,,,,,,,high,high,,,,,,,false,,,,,false,1137665.2999999523,1137665.0999999046,,1137664.7999999523,,1137688.37,5,600,,
sequence,flow.Sequence,10_2,2023-11-29T20:51:20.196Z,,,,,,,,,,,4936.308999904664,completion,,,,,,,high,high,,,,,,,false,,,,,false,1137665.6999998093,1137665.0999999046,1132712.075,1132714,1132728.791,1137688.37,5,600,,
trial,html.Screen,10_3_0,2023-11-29T20:51:25.018Z,,,,1,0.0159061451859594,0.0296598845560212,,0.05,false,lh,4798.529999856837,response,-1.0213365328004047,1.1828804443091958,-1.0850132792277292,1.088524359911891,1.0025617996579599,-1.1251029684531684,low,high,,ISIC_0072564.JPG,9,ISIC_5434229.JPG,33,31,false,0.30000000000000016,ll,keypress(f),0,false,1142487.2999999523,1142486.899999857,1137655.23,1137665.899999857,1137688.37,1142497.749,5,600,4,
break,html.Screen,10_3_1,2023-11-29T20:51:25.019Z,,,,,,,,,,,NaN,,,,,,,,low,high,,,,,,,false,,,,,false,1142488.5,1142488.1999998093,,1142487.5999999046,,1142497.749,5,600,,
break_continue,html.Screen,10_3_2,2023-11-29T20:51:25.020Z,,,,,,,,,,,NaN,,,,,,,,low,high,,,,,,,false,,,,,false,1142489.1999998093,1142489,,1142488.6999998093,,1142497.749,5,600,,
sequence,flow.Sequence,10_3,2023-11-29T20:51:25.020Z,,,,,,,,,,,4800.629999999888,completion,,,,,,,low,high,,,,,,,false,,,,,false,1142489.5999999046,1142489,1137655.23,1137665.899999857,1137688.37,1142497.749,5,600,,
trial,html.Screen,10_4_0,2023-11-29T20:51:29.619Z,,,,1,0.0134764727102299,0.0033499036460912,,0.05,false,lh,4590.250999999931,response,-1.276222161935671,1.1828804443091958,-1.0850132792277292,0.9657780821973284,1.0025617996579599,-1.1251029684531684,low,high,,ISIC_0009998.JPG,10,ISIC_6710411.JPG,33,31,false,0.30000000000000016,hl,keypress(j),0,false,1147088.2999999523,1147088,1142481.22,1142489.7999999523,1142497.749,1147108.075,5,600,5,
break,html.Screen,10_4_1,2023-11-29T20:51:29.620Z,,,,,,,,,,,NaN,,,,,,,,low,high,,,,,,,false,,,,,false,1147089.7999999523,1147089.399999857,,1147088.7999999523,,1147108.075,5,600,,
break_continue,html.Screen,10_4_2,2023-11-29T20:51:29.621Z,,,,,,,,,,,NaN,,,,,,,,low,high,,,,,,,false,,,,,false,1147090.7999999523,1147090.5999999046,,1147090.0999999046,,1147108.075,5,600,,
sequence,flow.Sequence,10_4,2023-11-29T20:51:29.622Z,,,,,,,,,,,4592.850999904564,completion,,,,,,,low,high,,,,,,,false,,,,,false,1147091,1147090.5999999046,1142481.22,1142489.7999999523,1142497.749,1147108.075,5,600,,
trial,html.Screen,10_5_0,2023-11-29T20:51:35.169Z,,,,1,0.0097091270150747,-0.0417921315885292,,0.05,false,ll,5530.024999904679,response,-1.101214461533281,1.1828804443091958,-1.0850132792277292,-1.1849883512428183,1.0025617996579599,-1.1251029684531684,low,low,,ISIC_3967213.JPG,9,ISIC_0064943.JPG,33,26,false,0.1,hh,keypress(i),0,false,1152638.2999999523,1152638.0999999046,1147073.495,1147091,1147108.075,1152650.844,5,600,6,
break,html.Screen,10_5_1,2023-11-29T20:51:35.170Z,,,,,,,,,,,NaN,,,,,,,,low,low,,,,,,,false,,,,,false,1152639,1152638.899999857,,1152638.5999999046,,1152650.844,5,600,,
break_continue,html.Screen,10_5_2,2023-11-29T20:51:35.170Z,,,,,,,,,,,NaN,,,,,,,,low,low,,,,,,,false,,,,,false,1152639.399999857,1152639.2999999523,,1152639.1999998093,,1152650.844,5,600,,
sequence,flow.Sequence,10_5,2023-11-29T20:51:35.170Z,,,,,,,,,,,5531.224999952363,completion,,,,,,,low,low,,,,,,,false,,,,,false,1152639.5999999046,1152639.2999999523,1147073.495,1147091,1147108.075,1152650.844,5,600,,
trial,html.Screen,10_6_0,2023-11-29T20:51:39.073Z,,,,1,-0.0107854985447517,-0.0478010417136109,,0.05,false,hl,3891.155999999959,response,1.2331439637486756,1.1828804443091958,-1.0850132792277292,-0.9691143900156988,1.0025617996579599,-1.1251029684531684,high,low,,ISIC_0010500.JPG,9,ISIC_7877488.JPG,33,25,false,0.3200000000000002,ll,keypress(f),0,false,1156542.0999999046,1156542,1152634.147,1152639.7999999523,1152650.844,1156558.429,5,600,7,
break,html.Screen,10_6_1,2023-11-29T20:51:39.073Z,,,,,,,,,,,NaN,,,,,,,,high,low,,,,,,,false,,,,,false,1156542.5,1156542.5,,1156542.2999999523,,1156558.429,5,600,,
break_continue,html.Screen,10_6_2,2023-11-29T20:51:39.073Z,,,,,,,,,,,NaN,,,,,,,,high,low,,,,,,,false,,,,,false,1156542.7999999523,1156542.7999999523,,1156542.6999998093,,1156558.429,5,600,,
sequence,flow.Sequence,10_6,2023-11-29T20:51:39.074Z,,,,,,,,,,,3891.9559999522753,completion,,,,,,,high,low,,,,,,,false,,,,,false,1156542.899999857,1156542.7999999523,1152634.147,1152639.6999998093,1152650.844,1156558.429,5,600,,
trial,html.Screen,10_7_0,2023-11-29T20:51:43.530Z,,,,1,-0.0057914759495055,-0.0074667911845194,,0.05,false,ll,4440.870999952313,response,-1.135372722680314,1.1828804443091958,-1.0850132792277292,-1.0926414044454305,1.0025617996579599,-1.1251029684531684,low,low,,ISIC_0058723.JPG,9,ISIC_2355513.JPG,33,26,false,0.1,lh,keypress(e),0,false,1160999.6999998093,1160999.2999999523,1156541.85,1156542.899999857,1156558.429,1161017.125,5,600,8,
break,html.Screen,10_7_1,2023-11-29T20:51:43.532Z,,,,,,,,,,,NaN,,,,,,,,low,low,,,,,,,false,,,,,false,1161001.0999999046,1161000.6999998093,,1161000.0999999046,,1161017.125,5,600,,
break_continue,html.Screen,10_7_2,2023-11-29T20:51:43.533Z,,,,,,,,,,,NaN,,,,,,,,low,low,,,,,,,false,,,,,false,1161001.7999999523,1161001.5999999046,,1161001.2999999523,,1161017.125,5,600,,
sequence,flow.Sequence,10_7,2023-11-29T20:51:43.533Z,,,,,,,,,,,4443.170999904629,completion,,,,,,,low,low,,,,,,,false,,,,,false,1161002.1999998093,1161001.5999999046,1156541.85,1156542.899999857,1156558.429,1161017.125,5,600,,
trial,html.Screen,10_8_0,2023-11-29T20:51:47.370Z,,,,1,-0.0107854985447517,-0.0478010417136109,,0.05,true,hl,3821.875,response,1.020990671779317,1.1828804443091958,-1.0850132792277292,-1.0116513850520903,1.0025617996579599,-1.1251029684531684,high,low,,ISIC_0010500.JPG,9,ISIC_0011995.JPG,33,25,false,0.3200000000000002,hl,keypress(j),0,false,1164839.2999999523,1164839,1161000.494,1161002.399999857,1161017.125,1164858.504,5,600,9,
break,html.Screen,10_8_1,2023-11-29T20:51:47.371Z,,,,,,,,,,,NaN,,,,,,,,high,low,,,,,,,false,,,,,false,1164840.5,1164840.1999998093,,1164839.6999998093,,1164858.504,5,600,,
break_continue,html.Screen,10_8_2,2023-11-29T20:51:47.372Z,,,,,,,,,,,NaN,,,,,,,,high,low,,,,,,,false,,,,,false,1164841.1999998093,1164841,,1164840.6999998093,,1164858.504,5,600,,
sequence,flow.Sequence,10_8,2023-11-29T20:51:47.372Z,,,,,,,,,,,3823.875,completion,,,,,,,high,low,,,,,,,false,,,,,false,1164841.5999999046,1164841,1161000.494,1161002.399999857,1161017.125,1164858.504,5,600,,
trial,html.Screen,10_9_0,2023-11-29T20:51:50.771Z,,,,1,0.0348234368746005,-0.0236866303880924,,0.05,false,hl,3380.5959999046754,response,1.011737552725394,1.1828804443091958,-1.0850132792277292,-0.8500530224490773,1.0025617996579599,-1.1251029684531684,high,low,,ISIC_0011099.JPG,9,ISIC_2998367.JPG,33,25,false,0.3200000000000002,lh,keypress(e),0,false,1168239.5,1168239.0999999046,1164824.712,1164841.7999999523,1164858.504,1168247.865,5,600,10,
break,html.Screen,10_9_1,2023-11-29T20:51:50.772Z,,,,,,,,,,,NaN,,,,,,,,high,low,,,,,,,false,,,,,false,1168240.6999998093,1168240.399999857,,1168239.7999999523,,1168247.865,5,600,,
break_continue,html.Screen,10_9_2,2023-11-29T20:51:50.773Z,,,,,,,,,,,NaN,,,,,,,,high,low,,,,,,,false,,,,,false,1168241.5,1168241.1999998093,,1168240.899999857,,1168247.865,5,600,,
sequence,flow.Sequence,10_9,2023-11-29T20:51:50.773Z,,,,,,,,,,,3382.695999809308,completion,,,,,,,high,low,,,,,,,false,,,,,false,1168241.7999999523,1168241.1999998093,1164824.712,1164841.6999998093,1164858.504,1168247.865,5,600,,
trial,html.Screen,10_10_0,2023-11-29T20:51:57.187Z,,,,1,-0.0363437082783146,-0.0333332186217051,,0.05,false,ll,6407.534999856958,response,-1.101214461533281,1.1828804443091958,-1.0850132792277292,-1.1849883512428183,1.0025617996579599,-1.1251029684531684,low,low,,ISIC_3314555.JPG,9,ISIC_0064943.JPG,33,26,false,0.1,hl,keypress(j),0,false,1174655.6999998093,1174655.399999857,1168231.279,1168242,1168247.865,1174660.339,5,600,11,
break,html.Screen,10_10_1,2023-11-29T20:51:57.189Z,,,,,,,,,,,NaN,,,,,,,,low,low,,,,,,,false,,,,,false,1174656.899999857,1174656.5999999046,,1174656.0999999046,,1174660.339,5,600,,
break_continue,html.Screen,10_10_2,2023-11-29T20:51:57.189Z,,,,,,,,,,,NaN,,,,,,,,low,low,,,,,,,false,,,,,false,1174657.5999999046,1174657.399999857,,1174657.0999999046,,1174660.339,5,600,,
sequence,flow.Sequence,10_10,2023-11-29T20:51:57.190Z,,,,,,,,,,,6409.534999856958,completion,,,,,,,low,low,,,,,,,false,,,,,false,1174657.899999857,1174657.399999857,1168231.279,1168241.899999857,1168247.865,1174660.339,5,600,,
trial,html.Screen,10_11_0,2023-11-29T20:52:04.067Z,,,,1,-0.0363437082783146,-0.0333332186217051,,0.05,false,hh,6874.66100000008,response,1.2503149164557643,1.1828804443091958,-1.0850132792277292,1.0796591227570405,1.0025617996579599,-1.1251029684531684,high,high,,ISIC_3314555.JPG,9,ISIC_2466892.JPG,33,28,false,0.11,lh,keypress(e),0,false,1181535.2999999523,1181535,1174643.851,1174658.1999998093,1174660.339,1181557.07,5,600,12,
break,html.Screen,10_11_1,2023-11-29T20:52:04.068Z,,,,,,,,,,,NaN,,,,,,,,high,high,,,,,,,false,,,,,false,1181536.5999999046,1181536.2999999523,,1181535.6999998093,,1181557.07,5,600,,
break_continue,html.Screen,10_11_2,2023-11-29T20:52:04.069Z,,,,,,,,,,,NaN,,,,,,,,high,high,,,,,,,false,,,,,false,1181537.2999999523,1181537.0999999046,,1181536.7999999523,,1181557.07,5,600,,
sequence,flow.Sequence,10_11,2023-11-29T20:52:04.069Z,,,,,,,,,,,6876.760999904713,completion,,,,,,,high,high,,,,,,,false,,,,,false,1181537.6999998093,1181537.0999999046,1174643.851,1174658,1174660.339,1181557.07,5,600,,
trial,html.Screen,10_12_0,2023-11-29T20:52:07.194Z,,,,1,-0.0450282431170921,0,,0.05,false,lh,3104.8299998568837,response,-0.7911024675435955,1.1828804443091958,-1.0850132792277292,0.7975977016137676,1.0025617996579599,-1.1251029684531684,low,high,,ISIC_1805163.JPG,8,ISIC_5813642.JPG,33,31,false,0.30000000000000016,hh,keypress(i),0,false,1184662,1184661.899999857,1181523.769,1181538,1181557.07,1184680.121,5,600,13,
break,html.Screen,10_12_1,2023-11-29T20:52:07.194Z,,,,,,,,,,,NaN,,,,,,,,low,high,,,,,,,false,,,,,false,1184662.399999857,1184662.2999999523,,1184662.0999999046,,1184680.121,5,600,,
break_continue,html.Screen,10_12_2,2023-11-29T20:52:07.194Z,,,,,,,,,,,NaN,,,,,,,,low,high,,,,,,,false,,,,,false,1184662.5,1184662.399999857,,1184662.399999857,,1184680.121,5,600,,
sequence,flow.Sequence,10_12,2023-11-29T20:52:07.194Z,,,,,,,,,,,3105.3299998568837,completion,,,,,,,low,high,,,,,,,false,,,,,false,1184662.5,1184662.399999857,1181523.769,1181537.899999857,1181557.07,1184680.121,5,600,,
trial,html.Screen,10_13_0,2023-11-29T20:52:11.028Z,,,,1,-0.0050679133050021,0.0009714874637896,,0.05,false,hh,3815.278999856906,response,1.09666761087476,1.1828804443091958,-1.0850132792277292,1.1072126870290426,1.0025617996579599,-1.1251029684531684,high,high,,ISIC_9848743.JPG,8,ISIC_0071754.JPG,33,28,false,0.11,ll,keypress(f),0,false,1188496,1188495.399999857,1184663.155,1184662.5,1184680.121,1188503.962,5,600,14,
break,html.Screen,10_13_1,2023-11-29T20:52:11.029Z,,,,,,,,,,,NaN,,,,,,,,high,high,,,,,,,false,,,,,false,1188497.2999999523,1188496.899999857,,1188496.5,,1188503.962,5,600,,
break_continue,html.Screen,10_13_2,2023-11-29T20:52:11.030Z,,,,,,,,,,,NaN,,,,,,,,high,high,,,,,,,false,,,,,false,1188498,1188497.7999999523,,1188497.5,,1188503.962,5,600,,
sequence,flow.Sequence,10_13,2023-11-29T20:52:11.030Z,,,,,,,,,,,3817.6789999522734,completion,,,,,,,high,high,,,,,,,false,,,,,false,1188498.2999999523,1188497.7999999523,1184663.155,1184662.5,1184680.121,1188503.962,5,600,,
trial,html.Screen,10_14_0,2023-11-29T20:52:14.875Z,,,,1,0.000047919190197942736,0.0462652940855003,,0.05,false,hl,3839.3379999522585,response,1.4747161152848791,1.1828804443091958,-1.0850132792277292,-0.847048591307387,1.0025617996579599,-1.1251029684531684,high,low,,ISIC_0011507.JPG,9,ISIC_0016092.JPG,33,25,false,0.3200000000000002,lh,keypress(e),0,false,1192343.5,1192343.2999999523,1188487.494,1188498.5999999046,1188503.962,1192361.47,5,600,15,
break,html.Screen,10_14_1,2023-11-29T20:52:14.876Z,,,,,,,,,,,NaN,,,,,,,,high,low,,,,,,,false,,,,,false,1192344.6999998093,1192344.5,,1192344,,1192361.47,5,600,,
break_continue,html.Screen,10_14_2,2023-11-29T20:52:14.877Z,,,,,,,,,,,NaN,,,,,,,,high,low,,,,,,,false,,,,,false,1192345.5,1192345.1999998093,,1192345,,1192361.47,5,600,,
sequence,flow.Sequence,10_14,2023-11-29T20:52:14.877Z,,,,,,,,,,,3841.2379998092074,completion,,,,,,,high,low,,,,,,,false,,,,,false,1192345.7999999523,1192345.1999998093,1188487.494,1188498.5,1188503.962,1192361.47,5,600,,
trial,html.Screen,10_15_0,2023-11-29T20:52:17.900Z,,,,1,0.0134764727102299,0.0033499036460912,,0.05,true,lh,3006.329999952344,response,-1.0264463986917702,1.1828804443091958,-1.0850132792277292,1.2804054832904397,1.0025617996579599,-1.1251029684531684,low,high,,ISIC_0009998.JPG,8,ISIC_7889838.JPG,33,31,false,0.30000000000000016,lh,keypress(e),0,false,1195368.0999999046,1195367.7999999523,1192328.198,1192346.0999999046,1192361.47,1195383.989,5,600,16,
break,html.Screen,10_15_1,2023-11-29T20:52:17.901Z,,,,,,,,,,,NaN,,,,,,,,low,high,,,,,,,false,,,,,false,1195369.2999999523,1195369,,1195368.5,,1195383.989,5,600,,
break_continue,html.Screen,10_15_2,2023-11-29T20:52:17.902Z,,,,,,,,,,,NaN,,,,,,,,low,high,,,,,,,false,,,,,false,1195370,1195369.7999999523,,1195369.5,,1195383.989,5,600,,
sequence,flow.Sequence,10_15,2023-11-29T20:52:17.902Z,,,,,,,,,,,3008.329999952344,completion,,,,,,,low,high,,,,,,,false,,,,,false,1195370.2999999523,1195369.7999999523,1192328.198,1192346,1192361.47,1195383.989,5,600,,
trial,html.Screen,10_16_0,2023-11-29T20:52:21.979Z,,,,1,-0.0456515796420274,0.0273567130070961,,0.05,false,hl,4063.0109999999404,response,1.0656673213158945,1.1828804443091958,-1.0850132792277292,-0.8082541692781954,1.0025617996579599,-1.1251029684531684,high,low,,ISIC_0068610.JPG,9,ISIC_0033985.JPG,33,25,false,0.3200000000000002,ll,keypress(f),0,false,1199447.1999998093,1199447,1195367.558,1195370.5999999046,1195383.989,1199475.305,5,600,17,
break,html.Screen,10_16_1,2023-11-29T20:52:21.980Z,,,,,,,,,,,NaN,,,,,,,,high,low,,,,,,,false,,,,,false,1199448.2999999523,1199448.0999999046,,1199447.5,,1199475.305,5,600,,
break_continue,html.Screen,10_16_2,2023-11-29T20:52:21.981Z,,,,,,,,,,,NaN,,,,,,,,high,low,,,,,,,false,,,,,false,1199449.0999999046,1199448.7999999523,,1199448.5999999046,,1199475.305,5,600,,
sequence,flow.Sequence,10_16,2023-11-29T20:52:21.981Z,,,,,,,,,,,4064.8109999522567,completion,,,,,,,high,low,,,,,,,false,,,,,false,1199449.2999999523,1199448.7999999523,1195367.558,1195370.5,1195383.989,1199475.305,5,600,,
trial,html.Screen,10_17_0,2023-11-29T20:52:25.363Z,,,,1,-0.0389988030702649,-0.0143212271490256,,0.05,false,lh,3355.7949999046978,response,-0.8816288864119318,1.1828804443091958,-1.0850132792277292,0.801867301188093,1.0025617996579599,-1.1251029684531684,low,high,,ISIC_0064669.JPG,9,ISIC_9196783.JPG,33,31,false,0.30000000000000016,hh,keypress(i),0,false,1202831.399999857,1202831.0999999046,1199442.151,1199449.5,1199475.305,1202848.753,5,600,18,
break,html.Screen,10_17_1,2023-11-29T20:52:25.364Z,,,,,,,,,,,NaN,,,,,,,,low,high,,,,,,,false,,,,,false,1202832.5999999046,1202832.2999999523,,1202831.7999999523,,1202848.753,5,600,,
break_continue,html.Screen,10_17_2,2023-11-29T20:52:25.365Z,,,,,,,,,,,NaN,,,,,,,,low,high,,,,,,,false,,,,,false,1202833.2999999523,1202833.0999999046,,1202832.7999999523,,1202848.753,5,600,,
sequence,flow.Sequence,10_17,2023-11-29T20:52:25.365Z,,,,,,,,,,,3357.7949999046978,completion,,,,,,,low,high,,,,,,,false,,,,,false,1202833.6999998093,1202833.0999999046,1199442.151,1199449.5,1199475.305,1202848.753,5,600,,
trial,html.Screen,10_18_0,2023-11-29T20:52:29.723Z,,,,1,0.000047919190197942736,0.0462652940855003,,0.05,false,hh,4342.446999809239,response,1.2858522874663931,1.1828804443091958,-1.0850132792277292,1.017151771311002,1.0025617996579599,-1.1251029684531684,high,high,,ISIC_0011507.JPG,8,ISIC_8591425.JPG,33,28,false,0.11,lh,keypress(e),0,false,1207191.6999998093,1207191.1999998093,1202831.903,1202833.899999857,1202848.753,1207207.182,5,600,19,
break,html.Screen,10_18_1,2023-11-29T20:52:29.725Z,,,,,,,,,,,NaN,,,,,,,,high,high,,,,,,,false,,,,,false,1207193,1207192.6999998093,,1207192.0999999046,,1207207.182,5,600,,
break_continue,html.Screen,10_18_2,2023-11-29T20:52:29.725Z,,,,,,,,,,,NaN,,,,,,,,high,high,,,,,,,false,,,,,false,1207193.7999999523,1207193.5999999046,,1207193.399999857,,1207207.182,5,600,,
sequence,flow.Sequence,10_18,2023-11-29T20:52:29.726Z,,,,,,,,,,,4344.8469999046065,completion,,,,,,,high,high,,,,,,,false,,,,,false,1207194.0999999046,1207193.5999999046,1202831.903,1202833.7999999523,1202848.753,1207207.182,5,600,,
trial,html.Screen,10_19_0,2023-11-29T20:52:32.563Z,,,,1,-0.0217698886732706,0.0410870915161425,,0.05,true,hh,2823.9179999046028,response,1.1603296322624046,1.1828804443091958,-1.0850132792277292,0.9011336474282458,1.0025617996579599,-1.1251029684531684,high,high,,ISIC_0072173.JPG,9,ISIC_0010592.JPG,33,28,false,0.11,hh,keypress(i),0,false,1210031.399999857,1210031.0999999046,1207190.56,1207194.2999999523,1207207.182,1210045.977,5,600,20,
break,html.Screen,10_19_1,2023-11-29T20:52:32.564Z,,,,,,,,,,,NaN,,,,,,,,high,high,,,,,,,false,,,,,false,1210032.6999998093,1210032.2999999523,,1210031.899999857,,1210045.977,5,600,,
break_continue,html.Screen,10_19_2,2023-11-29T20:52:32.565Z,,,,,,,,,,,NaN,,,,,,,,high,high,,,,,,,false,,,,,false,1210033.2999999523,1210033.1999998093,,1210032.899999857,,1210045.977,5,600,,
sequence,flow.Sequence,10_19,2023-11-29T20:52:32.565Z,,,,,,,,,,,2826.0179998092353,completion,,,,,,,high,high,,,,,,,false,,,,,false,1210033.6999998093,1210033.1999998093,1207190.56,1207194.2999999523,1207207.182,1210045.977,5,600,,
trial,html.Screen,10_20_0,2023-11-29T20:52:35.747Z,,,,1,0,0.0264544974620926,,0.05,false,ll,3169.1229999046773,response,-1.1253220985777015,1.1828804443091958,-1.0850132792277292,-1.108725659461368,1.0025617996579599,-1.1251029684531684,low,low,,ISIC_0056991.JPG,9,ISIC_0054954.JPG,33,26,false,0.1,hh,keypress(i),0,false,1213215.5,1213215.0999999046,1210029.408,1210034,1210045.977,1213235.4,5,600,21,
break,html.Screen,10_20_1,2023-11-29T20:52:35.748Z,,,,,,,,,,,NaN,,,,,,,,low,low,,,,,,,false,,,,,false,1213216.6999998093,1213216.399999857,,1213215.899999857,,1213235.4,5,600,,
break_continue,html.Screen,10_20_2,2023-11-29T20:52:35.749Z,,,,,,,,,,,NaN,,,,,,,,low,low,,,,,,,false,,,,,false,1213217.399999857,1213217.1999998093,,1213216.899999857,,1213235.4,5,600,,
sequence,flow.Sequence,10_20,2023-11-29T20:52:35.749Z,,,,,,,,,,,3171.22299980931,completion,,,,,,,low,low,,,,,,,false,,,,,false,1213217.7999999523,1213217.1999998093,1210029.408,1210033.899999857,1210045.977,1213235.4,5,600,,
trial,html.Screen,10_21_0,2023-11-29T20:52:38.075Z,,,,1,-0.0450282431170921,0,,0.05,false,lh,2307.600000000093,response,-0.8655167308525522,1.1828804443091958,-1.0850132792277292,0.9298580423306444,1.0025617996579599,-1.1251029684531684,low,high,,ISIC_1805163.JPG,10,ISIC_4603706.JPG,33,31,false,0.30000000000000016,hh,keypress(i),0,false,1215543.2999999523,1215543,1213202.143,1213218.0999999046,1213235.4,1215556.701,5,600,22,
break,html.Screen,10_21_1,2023-11-29T20:52:38.076Z,,,,,,,,,,,NaN,,,,,,,,low,high,,,,,,,false,,,,,false,1215544.399999857,1215544.2999999523,,1215543.7999999523,,1215556.701,5,600,,
break_continue,html.Screen,10_21_2,2023-11-29T20:52:38.077Z,,,,,,,,,,,NaN,,,,,,,,low,high,,,,,,,false,,,,,false,1215545.1999998093,1215544.899999857,,1215544.5999999046,,1215556.701,5,600,,
sequence,flow.Sequence,10_21,2023-11-29T20:52:38.077Z,,,,,,,,,,,2309.499999857042,completion,,,,,,,low,high,,,,,,,false,,,,,false,1215545.5,1215544.899999857,1213202.143,1213218,1213235.4,1215556.701,5,600,,
trial,html.Screen,10_22_0,2023-11-29T20:52:40.603Z,,,,1,0.0097091270150747,-0.0417921315885292,,0.05,false,hh,2514.5989999524318,response,1.2858522874663931,1.1828804443091958,-1.0850132792277292,1.017151771311002,1.0025617996579599,-1.1251029684531684,high,high,,ISIC_3967213.JPG,8,ISIC_8591425.JPG,33,28,false,0.11,lh,keypress(e),0,false,1218071.5,1218071.2999999523,1215540.036,1215545.5999999046,1215556.701,1218111.554,5,600,23,
break,html.Screen,10_22_1,2023-11-29T20:52:40.604Z,,,,,,,,,,,NaN,,,,,,,,high,high,,,,,,,false,,,,,false,1218072.5999999046,1218072.2999999523,,1218071.899999857,,1218111.554,5,600,,
break_continue,html.Screen,10_22_2,2023-11-29T20:52:40.605Z,,,,,,,,,,,NaN,,,,,,,,high,high,,,,,,,false,,,,,false,1218073.2999999523,1218073,,1218072.7999999523,,1218111.554,5,600,,
sequence,flow.Sequence,10_22,2023-11-29T20:52:40.605Z,,,,,,,,,,,2516.2990000001155,completion,,,,,,,high,high,,,,,,,false,,,,,false,1218073.5,1218073,1215540.036,1215545.5999999046,1215556.701,1218111.554,5,600,,
trial,html.Screen,10_23_0,2023-11-29T20:52:43.931Z,,,,1,-0.0027483411352856,-0.0100996915276271,,0.05,false,lh,3287.545999904629,response,-1.0122398223568725,1.1828804443091958,-1.0850132792277292,0.7505228537454216,1.0025617996579599,-1.1251029684531684,low,high,,ISIC_7364041.JPG,9,ISIC_0033802.JPG,33,31,false,0.30000000000000016,ll,keypress(f),0,false,1221399.5,1221399.0999999046,1218061.756,1218073.6999998093,1218111.554,1221419.46,5,600,24,
break,html.Screen,10_23_1,2023-11-29T20:52:43.932Z,,,,,,,,,,,NaN,,,,,,,,low,high,,,,,,,false,,,,,false,1221400.7999999523,1221400.5,,1221399.899999857,,1221419.46,5,600,,
break_continue,html.Screen,10_23_2,2023-11-29T20:52:43.933Z,,,,,,,,,,,NaN,,,,,,,,low,high,,,,,,,false,,,,,false,1221401.5,1221401.2999999523,,1221401,,1221419.46,5,600,,
sequence,flow.Sequence,10_23,2023-11-29T20:52:43.933Z,,,,,,,,,,,3289.7459999523126,completion,,,,,,,low,high,,,,,,,false,,,,,false,1221401.7999999523,1221401.2999999523,1218061.756,1218073.6999998093,1218111.554,1221419.46,5,600,,
trial,html.Screen,10_24_0,2023-11-29T20:52:46.747Z,,,,1,-0.0329095507339554,0.0382899749693245,,0.05,true,lh,2795.7399998093024,response,-1.0264463986917702,1.1828804443091958,-1.0850132792277292,1.2804054832904397,1.0025617996579599,-1.1251029684531684,low,high,,ISIC_8812781.JPG,9,ISIC_7889838.JPG,33,31,false,0.30000000000000016,lh,keypress(e),0,false,1224215.5,1224215.1999998093,1221384.864,1221402.0999999046,1221419.46,1224223.48,5,600,25,
break,html.Screen,10_24_1,2023-11-29T20:52:46.748Z,,,,,,,,,,,NaN,,,,,,,,low,high,,,,,,,false,,,,,false,1224216.5,1224216.2999999523,,1224215.899999857,,1224223.48,5,600,,
break_continue,html.Screen,10_24_2,2023-11-29T20:52:46.749Z,,,,,,,,,,,NaN,,,,,,,,low,high,,,,,,,false,,,,,false,1224217.1999998093,1224217,,1224216.6999998093,,1224223.48,5,600,,
sequence,flow.Sequence,10_24,2023-11-29T20:52:46.749Z,,,,,,,,,,,2797.5400000000373,completion,,,,,,,low,high,,,,,,,false,,,,,false,1224217.399999857,1224217,1221384.864,1221402,1221419.46,1224223.48,5,600,,
trial,html.Screen,10_25_0,2023-11-29T20:52:49.668Z,,,,1,-0.039728379742806,0.0228701131373768,,0.05,false,hl,2911.9199998569675,response,1.011737552725394,1.1828804443091958,-1.0850132792277292,-0.8500530224490773,1.0025617996579599,-1.1251029684531684,high,low,,ISIC_0054073.JPG,9,ISIC_2998367.JPG,33,25,false,0.3200000000000002,hh,keypress(i),0,false,1227135.7999999523,1227135.399999857,1224206.998,1224217.6999998093,1224223.48,1227145.822,5,600,26,
break,html.Screen,10_25_1,2023-11-29T20:52:49.669Z,,,,,,,,,,,NaN,,,,,,,,high,low,,,,,,,false,,,,,false,1227136.899999857,1227136.5999999046,,1227136.1999998093,,1227145.822,5,600,,
break_continue,html.Screen,10_25_2,2023-11-29T20:52:49.670Z,,,,,,,,,,,NaN,,,,,,,,high,low,,,,,,,false,,,,,false,1227137.7999999523,1227137.5,,1227137.1999998093,,1227145.822,5,600,,
sequence,flow.Sequence,10_25,2023-11-29T20:52:49.670Z,,,,,,,,,,,2914.0200000000186,completion,,,,,,,high,low,,,,,,,false,,,,,false,1227138.0999999046,1227137.5,1224206.998,1224217.5999999046,1224223.48,1227145.822,5,600,,
trial,html.Screen,10_26_0,2023-11-29T20:52:52.948Z,,,,1,-0.0456515796420274,0.0273567130070961,,0.05,false,lh,3269.777999904705,response,-1.0264463986917702,1.1828804443091958,-1.0850132792277292,1.2804054832904397,1.0025617996579599,-1.1251029684531684,low,high,,ISIC_0068610.JPG,9,ISIC_7889838.JPG,33,31,false,0.30000000000000016,hh,keypress(i),0,false,1230416,1230415.5999999046,1227129.397,1227138.2999999523,1227145.822,1230418.952,5,600,27,
break,html.Screen,10_26_1,2023-11-29T20:52:52.950Z,,,,,,,,,,,NaN,,,,,,,,low,high,,,,,,,false,,,,,false,1230417.1999998093,1230416.7999999523,,1230416.2999999523,,1230418.952,5,600,,
break_continue,html.Screen,10_26_2,2023-11-29T20:52:52.950Z,,,,,,,,,,,NaN,,,,,,,,low,high,,,,,,,false,,,,,false,1230417.899999857,1230417.5999999046,,1230417.399999857,,1230418.952,5,600,,
sequence,flow.Sequence,10_26,2023-11-29T20:52:52.951Z,,,,,,,,,,,3271.777999904705,completion,,,,,,,low,high,,,,,,,false,,,,,false,1230418.1999998093,1230417.5999999046,1227129.397,1227138.1999998093,1227145.822,1230418.952,5,600,,
trial,html.Screen,10_27_0,2023-11-29T20:52:55.092Z,,,,1,-0.0217698886732706,0.0410870915161425,,0.05,false,hh,2140.347999952268,response,1.1401739481722466,1.1828804443091958,-1.0850132792277292,0.9054500502539348,1.0025617996579599,-1.1251029684531684,high,high,,ISIC_0072173.JPG,9,ISIC_6260086.JPG,33,28,false,0.11,lh,keypress(e),0,false,1232559.5999999046,1232559.2999999523,1230402.433,1230418.399999857,1230418.952,1232573.054,5,600,28,
break,html.Screen,10_27_1,2023-11-29T20:52:55.093Z,,,,,,,,,,,NaN,,,,,,,,high,high,,,,,,,false,,,,,false,1232560.7999999523,1232560.5,,1232560.0999999046,,1232573.054,5,600,,
break_continue,html.Screen,10_27_2,2023-11-29T20:52:55.094Z,,,,,,,,,,,NaN,,,,,,,,high,high,,,,,,,false,,,,,false,1232561.5,1232561.2999999523,,1232561,,1232573.054,5,600,,
sequence,flow.Sequence,10_27,2023-11-29T20:52:55.094Z,,,,,,,,,,,2142.347999952268,completion,,,,,,,high,high,,,,,,,false,,,,,false,1232561.7999999523,1232561.2999999523,1230402.433,1230418.2999999523,1230418.952,1232573.054,5,600,,
trial,html.Screen,10_28_0,2023-11-29T20:52:57.458Z,,,,1,-0.0069555338059566,0.0310100918136373,,0.05,true,lh,2352.6459998092614,response,-1.0164576835546473,1.1828804443091958,-1.0850132792277292,0.8120626538423016,1.0025617996579599,-1.1251029684531684,low,high,,ISIC_0011177.JPG,9,ISIC_6002694.JPG,33,31,false,0.30000000000000016,lh,keypress(e),0,false,1234925.7999999523,1234925.6999998093,1232556.643,1232562,1232573.054,1234944.363,5,600,29,
break,html.Screen,10_28_1,2023-11-29T20:52:57.459Z,,,,,,,,,,,NaN,,,,,,,,low,high,,,,,,,false,,,,,false,1234926.1999998093,1234926,,1234925.7999999523,,1234944.363,5,600,,
break_continue,html.Screen,10_28_2,2023-11-29T20:52:57.459Z,,,,,,,,,,,NaN,,,,,,,,low,high,,,,,,,false,,,,,false,1234926.399999857,1234926.2999999523,,1234926.1999998093,,1234944.363,5,600,,
sequence,flow.Sequence,10_28,2023-11-29T20:52:57.459Z,,,,,,,,,,,2353.2459999523126,completion,,,,,,,low,high,,,,,,,false,,,,,false,1234926.5,1234926.2999999523,1232556.643,1232562,1232573.054,1234944.363,5,600,,
trial,html.Screen,10_29_0,2023-11-29T20:53:00.018Z,,,,1,-0.0217698886732706,0.0410870915161425,,0.05,false,hl,2541.236999904737,response,1.2364994561934892,1.1828804443091958,-1.0850132792277292,-0.9174173651516624,1.0025617996579599,-1.1251029684531684,high,low,,ISIC_0072173.JPG,9,ISIC_3481133.JPG,33,25,false,0.3200000000000002,lh,keypress(e),0,false,1237485.7999999523,1237485.5999999046,1234910.94,1234926.5,1234944.363,1237499.342,5,600,30,
break,html.Screen,10_29_1,2023-11-29T20:53:00.018Z,,,,,,,,,,,NaN,,,,,,,,high,low,,,,,,,false,,,,,false,1237486.0999999046,1237486,,1237485.7999999523,,1237499.342,5,600,,
break_continue,html.Screen,10_29_2,2023-11-29T20:53:00.019Z,,,,,,,,,,,NaN,,,,,,,,high,low,,,,,,,false,,,,,false,1237486.2999999523,1237486.1999998093,,1237486.0999999046,,1237499.342,5,600,,
sequence,flow.Sequence,10_29,2023-11-29T20:53:00.019Z,,,,,,,,,,,2541.8369998093694,completion,,,,,,,high,low,,,,,,,false,,,,,false,1237486.2999999523,1237486.1999998093,1234910.94,1234926.5,1234944.363,1237499.342,5,600,,
trial,html.Screen,10_30_0,2023-11-29T20:53:01.908Z,,,,1,0.0409338693593207,-0.0072462710499874,,0.05,false,ll,1875.7579999046866,response,-1.0698162624196283,1.1828804443091958,-1.0850132792277292,-1.219634566983089,1.0025617996579599,-1.1251029684531684,low,low,,ISIC_3608788.JPG,10,ISIC_0030552.JPG,33,26,false,0.1,hh,keypress(i),0,false,1239375.399999857,1239375.0999999046,1237482.862,1237486.2999999523,1237499.342,1239386.335,5,600,31,
break,html.Screen,10_30_1,2023-11-29T20:53:01.909Z,,,,,,,,,,,NaN,,,,,,,,low,low,,,,,,,false,,,,,false,1239376.5999999046,1239376.399999857,,1239375.899999857,,1239386.335,5,600,,
break_continue,html.Screen,10_30_2,2023-11-29T20:53:01.910Z,,,,,,,,,,,NaN,,,,,,,,low,low,,,,,,,false,,,,,false,1239377.1999998093,1239376.899999857,,1239376.6999998093,,1239386.335,5,600,,
sequence,flow.Sequence,10_30,2023-11-29T20:53:01.910Z,,,,,,,,,,,1877.5579998570029,completion,,,,,,,low,low,,,,,,,false,,,,,false,1239377.5,1239376.899999857,1237482.862,1237486.2999999523,1237499.342,1239386.335,5,600,,
trial,html.Screen,10_31_0,2023-11-29T20:53:07.916Z,,,,1,0.0051189696037511,-0.0396625911332438,,0.05,false,hl,5997.26499990467,response,0.879102500583965,1.1828804443091958,-1.0850132792277292,-1.0933081951979773,1.0025617996579599,-1.1251029684531684,high,low,,ISIC_9742891.JPG,9,ISIC_0046223.JPG,33,25,false,0.3200000000000002,lh,keypress(e),0,false,1245383.899999857,1245383.5999999046,1239369.847,1239377.6999998093,1239386.335,1245398.097,5,600,32,
break,html.Screen,10_31_1,2023-11-29T20:53:07.918Z,,,,,,,,,,,NaN,,,,,,,,high,low,,,,,,,false,,,,,false,1245385.1999998093,1245384.899999857,,1245384.399999857,,1245398.097,5,600,,
break_continue,html.Screen,10_31_2,2023-11-29T20:53:07.918Z,,,,,,,,,,,NaN,,,,,,,,high,low,,,,,,,false,,,,,false,1245385.7999999523,1245385.5999999046,,1245385.399999857,,1245398.097,5,600,,
sequence,flow.Sequence,10_31,2023-11-29T20:53:07.919Z,,,,,,,,,,,5999.26499990467,completion,,,,,,,high,low,,,,,,,false,,,,,false,1245386.1999998093,1245385.5999999046,1239369.847,1239377.5999999046,1239386.335,1245398.097,5,600,,
trial,html.Screen,10_32_0,2023-11-29T20:53:11.282Z,,,,1,0.0102460616775615,-0.0309670599545429,,0.05,true,hh,3351.802999856882,response,1.09666761087476,1.1828804443091958,-1.0850132792277292,1.1072126870290426,1.0025617996579599,-1.1251029684531684,high,high,,ISIC_0072041.JPG,9,ISIC_0071754.JPG,33,28,false,0.11,hh,keypress(i),0,false,1248750,1248749.899999857,1245381.589,1245386.399999857,1245398.097,1248771.268,5,600,33,
break,html.Screen,10_32_1,2023-11-29T20:53:11.283Z,,,,,,,,,,,NaN,,,,,,,,high,high,,,,,,,false,,,,,false,1248750.399999857,1248750.2999999523,,1248750.1999998093,,1248771.268,5,600,,
break_continue,html.Screen,10_32_2,2023-11-29T20:53:11.283Z,,,,,,,,,,,NaN,,,,,,,,high,high,,,,,,,false,,,,,false,1248750.5,1248750.5,,1248750.399999857,,1248771.268,5,600,,
sequence,flow.Sequence,10_32,2023-11-29T20:53:11.283Z,,,,,,,,,,,3352.402999999933,completion,,,,,,,high,high,,,,,,,false,,,,,false,1248750.5999999046,1248750.5,1245381.589,1245386.399999857,1245398.097,1248771.268,5,600,,
trial,html.Screen,10_33_0,2023-11-29T20:53:15.156Z,,,,1,-0.0085520978188085,0.0464691161264081,,0.05,true,lh,3852.0319999523927,response,-1.0164576835546473,1.1828804443091958,-1.0850132792277292,0.8120626538423016,1.0025617996579599,-1.1251029684531684,low,high,,ISIC_0758797.JPG,9,ISIC_6002694.JPG,33,31,false,0.30000000000000016,lh,keypress(e),0,false,1252623.5999999046,1252623.2999999523,1248738.039,1248750.5999999046,1248771.268,1252628.749,5,600,34,
break,html.Screen,10_33_1,2023-11-29T20:53:15.157Z,,,,,,,,,,,NaN,,,,,,,,low,high,,,,,,,false,,,,,false,1252624.7999999523,1252624.5,,1252624,,1252628.749,5,600,,
break_continue,html.Screen,10_33_2,2023-11-29T20:53:15.158Z,,,,,,,,,,,NaN,,,,,,,,low,high,,,,,,,false,,,,,false,1252625.5,1252625.2999999523,,1252625,,1252628.749,5,600,,
sequence,flow.Sequence,10_33,2023-11-29T20:53:15.158Z,,,,,,,,,,,3854.0319999523927,completion,,,,,,,low,high,,,,,,,false,,,,,false,1252625.899999857,1252625.2999999523,1248738.039,1248750.5999999046,1248771.268,1252628.749,5,600,,
trial,html.Screen,10_34_0,2023-11-29T20:53:17.115Z,,,,1,0,0.0264544974620926,,0.05,true,hh,1953.3509999045637,response,1.1401739481722466,1.1828804443091958,-1.0850132792277292,0.9054500502539348,1.0025617996579599,-1.1251029684531684,high,high,,ISIC_0056991.JPG,9,ISIC_6260086.JPG,33,28,false,0.11,hh,keypress(i),0,false,1254582.2999999523,1254582.0999999046,1252612.265,1252626.0999999046,1252628.749,1254599.445,5,600,35,
break,html.Screen,10_34_1,2023-11-29T20:53:17.115Z,,,,,,,,,,,NaN,,,,,,,,high,high,,,,,,,false,,,,,false,1254582.6999998093,1254582.5999999046,,1254582.399999857,,1254599.445,5,600,,
break_continue,html.Screen,10_34_2,2023-11-29T20:53:17.115Z,,,,,,,,,,,NaN,,,,,,,,high,high,,,,,,,false,,,,,false,1254582.899999857,1254582.7999999523,,1254582.6999998093,,1254599.445,5,600,,
sequence,flow.Sequence,10_34,2023-11-29T20:53:17.115Z,,,,,,,,,,,1954.0509999522474,completion,,,,,,,high,high,,,,,,,false,,,,,false,1254583,1254582.7999999523,1252612.265,1252626,1252628.749,1254599.445,5,600,,
trial,html.Screen,10_35_0,2023-11-29T20:53:19.292Z,,,,1,-0.0027483411352856,-0.0100996915276271,,0.05,false,hh,2160.2549998092,response,1.2706447584800626,1.1828804443091958,-1.0850132792277292,1.0903308007916603,1.0025617996579599,-1.1251029684531684,high,high,,ISIC_7364041.JPG,9,ISIC_9425937.JPG,33,28,false,0.11,lh,keypress(e),0,false,1256760,1256759.6999998093,1254566.144,1254583,1254599.445,1256770.154,5,600,36,
break,html.Screen,10_35_1,2023-11-29T20:53:19.294Z,,,,,,,,,,,NaN,,,,,,,,high,high,,,,,,,false,,,,,false,1256761.2999999523,1256761,,1256760.5,,1256770.154,5,600,,
break_continue,html.Screen,10_35_2,2023-11-29T20:53:19.294Z,,,,,,,,,,,NaN,,,,,,,,high,high,,,,,,,false,,,,,false,1256762,1256761.7999999523,,1256761.5,,1256770.154,5,600,,
sequence,flow.Sequence,10_35,2023-11-29T20:53:19.295Z,,,,,,,,,,,2162.354999952251,completion,,,,,,,high,high,,,,,,,false,,,,,false,1256762.399999857,1256761.7999999523,1254566.144,1254583,1254599.445,1256770.154,5,600,,
trial,html.Screen,10_36_0,2023-11-29T20:53:22.516Z,,,,1,-0.007397293189458,-0.0174716772037504,,0.05,false,hh,3213.1459999522194,response,1.227935316040483,1.1828804443091958,-1.0850132792277292,1.0211808747755002,1.0025617996579599,-1.1251029684531684,high,high,,ISIC_0056226.JPG,9,ISIC_1211506.JPG,33,28,false,0.11,ll,keypress(f),0,false,1259983.5999999046,1259983.2999999523,1256753.6,1256762.6999998093,1256770.154,1259993.112,5,600,37,
break,html.Screen,10_36_1,2023-11-29T20:53:22.517Z,,,,,,,,,,,NaN,,,,,,,,high,high,,,,,,,false,,,,,false,1259984.899999857,1259984.5,,1259983.899999857,,1259993.112,5,600,,
break_continue,html.Screen,10_36_2,2023-11-29T20:53:22.518Z,,,,,,,,,,,NaN,,,,,,,,high,high,,,,,,,false,,,,,false,1259985.5999999046,1259985.2999999523,,1259985.0999999046,,1259993.112,5,600,,
sequence,flow.Sequence,10_36,2023-11-29T20:53:22.518Z,,,,,,,,,,,3215.1459999522194,completion,,,,,,,high,high,,,,,,,false,,,,,false,1259985.899999857,1259985.2999999523,1256753.6,1256762.5999999046,1256770.154,1259993.112,5,600,,
trial,html.Screen,10_37_0,2023-11-29T20:53:28.082Z,,,,1,-0.0389988030702649,-0.0143212271490256,,0.05,false,hh,5556.787999856984,response,1.2706447584800626,1.1828804443091958,-1.0850132792277292,1.0903308007916603,1.0025617996579599,-1.1251029684531684,high,high,,ISIC_0064669.JPG,8,ISIC_9425937.JPG,33,28,false,0.11,lh,keypress(e),0,false,1265550.0999999046,1265549.899999857,1259976.664,1259986.0999999046,1259993.112,1265570.67,5,600,38,
