sender,sender_type,sender_id,timestamp,meta,,age,blockNo,c1,c2,condition,control_tolerance,correct,correctResponse,duration,ended_on,f1,f1_high,f1_low,f2,f2_high,f2_low,feature_level1,feature_level2,gender,img_left,img_reveal,img_right,n_control_images,n_target_images,practice,range_tolerance,response,response_action,selection_duration,staircase,time_commit,time_end,time_render,time_run,time_show,time_switch,total_blocks,total_trials,trialNo,url
informed_consent,html.Screen,0,2023-11-27T16:35:59.594Z,"{""labjs_version"":""20.2.4"",""labjs_build"":{""flavor"":""development"",""commit"":""f5b4a49f956347addd546a832a3327688c2c0fef""},""location"":""https://labjs.felixhenninger.com/api/labjs_preview/index.html"",""userAgent"":""Mozilla/5.0 (Windows NT 10.0; Win64; x64) AppleWebKit/537.36 (KHTML, like Gecko) Chrome/119.0.0.0 Safari/537.36"",""platform"":""Win32"",""language"":""en-US"",""locale"":""en-US"",""timeZone"":""America/Chicago"",""timezoneOffset"":360,""screen_width"":1680,""screen_height"":1050,""scroll_width"":825,""scroll_height"":888,""window_innerWidth"":825,""window_innerHeight"":936,""devicePixelRatio"":1}",,,,,,,,,,35735.69199990463,response,,,,,,,,,,,,,,,,,consent,click button,,,36573.39999985695,36565.09999990463,812.585,1033.2999999523163,829.408,36348.428,,,,{}
Demography form,html.Form,1,2023-11-27T16:36:05.675Z,,,18,,,,,,,,6305.572,form submission,,,,,,,,,female,,,,,,,,,,,,42654.199999809265,42654,36331.959,36573.59999990463,36348.428,42443.697,,,,
Welcome,html.Screen,2,2023-11-27T16:36:16.299Z,,,,,,,"[""asym"",""bor""]",,,,10833.803,response,,,,,,,,,,,,,,,,,continue,click button,,,53278,53277.5,42426.926,42654.299999952316,42443.697,53064.296,,,,
demo_instructions,html.Screen,3,2023-11-27T16:37:01.147Z,,,,,,,,,,,45061.10399985695,response,,,,,,,,,,,,,,,,,continue,click button,,,98126,98125.39999985695,53047.857,53278.09999990463,53064.296,97918.272,,,,
trial,html.Screen,4_0_0,2023-11-27T16:37:10.767Z,,,,0,-1.2181031651370575,-1.2158573487067317,,,true,hh,9827.527999952319,response,1.0717785279820962,1.2,-1.2,1.1267239445830604,1.2,-1.2,high,high,,ISIC_7242312.JPG,,ISIC_9948815.JPG,,26,true,0.15000000000000002,hh,keypress(i),100,false,107746.39999985695,107745.79999995232,97901.804,98126.19999980927,97918.272,107553.712,1,16,1,
sequence,flow.Sequence,4_0,2023-11-27T16:37:10.791Z,,,,,,,,,,,9827.527999952319,completion,,,,,,,high,high,,,,,,,true,,,,,false,107770.09999990463,107745.79999995232,97901.804,98126.09999990463,97918.272,107553.712,1,16,,
trial,html.Screen,4_1_0,2023-11-27T16:37:19.013Z,,,,0,-1.156827121261563,-1.2544342720917778,,,true,hh,8437.487999809266,response,1.0858641668099058,1.2,-1.2,1.1638942560200525,1.2,-1.2,high,high,,ISIC_0060397.JPG,,ISIC_5439597.JPG,,26,true,0.15000000000000002,hh,keypress(i),100,false,115991.89999985695,115991.19999980927,107537.056,107770.29999995232,107553.712,115786.433,1,16,2,
sequence,flow.Sequence,4_1,2023-11-27T16:37:19.014Z,,,,,,,,,,,8437.487999809266,completion,,,,,,,high,high,,,,,,,true,,,,,false,115992.69999980927,115991.19999980927,107537.056,107770.19999980927,107553.712,115786.433,1,16,,
trial,html.Screen,4_2_0,2023-11-27T16:37:28.753Z,,,,0,-1.2169050727663315,-1.1067845563421794,,,true,hh,9944.066999999995,response,1.1653123206802332,1.2,-1.2,1.2976858999596654,1.2,-1.2,high,high,,ISIC_7016261.JPG,,ISIC_0071508.JPG,,26,true,0.15000000000000002,hh,keypress(i),100,false,125731.19999980927,125730.5,115769.779,115993.19999980927,115786.433,125538.725,1,16,3,
sequence,flow.Sequence,4_2,2023-11-27T16:37:28.754Z,,,,,,,,,,,9944.066999999995,completion,,,,,,,high,high,,,,,,,true,,,,,false,125732.29999995232,125730.5,115769.779,115993,115786.433,125538.725,1,16,,
trial,html.Screen,4_3_0,2023-11-27T16:37:35.517Z,,,,0,-1.242586748440878,-1.1207933200172129,,,true,hh,6956.374999904627,response,1.3411179702686655,1.2,-1.2,1.255103311449152,1.2,-1.2,high,high,,ISIC_0013073.JPG,,ISIC_5611010.JPG,,26,true,0.15000000000000002,hh,keypress(i),100,false,132495.69999980927,132495.09999990463,125522.151,125732.69999980927,125538.725,132301.907,1,16,4,
sequence,flow.Sequence,4_3,2023-11-27T16:37:35.518Z,,,,,,,,,,,6956.374999904627,completion,,,,,,,high,high,,,,,,,true,,,,,false,132496.59999990463,132495.09999990463,125522.151,125732.59999990463,125538.725,132301.907,1,16,,
trial,html.Screen,4_4_0,2023-11-27T16:37:48.741Z,,,,0,1.1388430156686884,1.2700552354887775,,,true,ll,13416.492999856942,response,-1.126264390089724,1.2,-1.2,-1.271896565050952,1.2,-1.2,low,low,,ISIC_9939653.JPG,,ISIC_1520897.JPG,,30,true,0.1,ll,keypress(f),100,false,145719.09999990463,145718.39999985695,132285.249,132496.89999985695,132301.907,145527.681,1,16,5,
sequence,flow.Sequence,4_4,2023-11-27T16:37:48.742Z,,,,,,,,,,,13416.492999856942,completion,,,,,,,low,low,,,,,,,true,,,,,false,145720.39999985695,145718.39999985695,132285.249,132496.79999995232,132301.907,145527.681,1,16,,
trial,html.Screen,4_5_0,2023-11-27T16:37:51.293Z,,,,0,1.057008495826831,1.1278122585028287,,,true,ll,2743.7189998569374,response,-1.3150500754357115,1.2,-1.2,-1.2575260551085132,1.2,-1.2,low,low,,ISIC_2819798.JPG,,ISIC_0029591.JPG,,53,true,0.15000000000000002,ll,keypress(f),100,false,148271.79999995232,148271.39999985695,145510.991,145720.69999980927,145527.681,148065.94,1,16,6,
sequence,flow.Sequence,4_5,2023-11-27T16:37:51.294Z,,,,,,,,,,,2743.7189998569374,completion,,,,,,,low,low,,,,,,,true,,,,,false,148272.39999985695,148271.39999985695,145510.991,145720.69999980927,145527.681,148065.94,1,16,,
trial,html.Screen,4_6_0,2023-11-27T16:37:54.853Z,,,,0,1.3189473926989124,1.0770264364718942,,,true,ll,3765.359999952314,response,-1.126264390089724,1.2,-1.2,-1.271896565050952,1.2,-1.2,low,low,,ISIC_6093728.JPG,,ISIC_1520897.JPG,,53,true,0.15000000000000002,ll,keypress(f),100,false,151831.89999985695,151831.29999995232,148049.368,148272.69999980927,148065.94,151639.494,1,16,7,
sequence,flow.Sequence,4_6,2023-11-27T16:37:54.854Z,,,,,,,,,,,3765.359999952314,completion,,,,,,,low,low,,,,,,,true,,,,,false,151832.5,151831.29999995232,148049.368,148272.59999990463,148065.94,151639.494,1,16,,
trial,html.Screen,4_7_0,2023-11-27T16:38:00.738Z,,,,0,1.057008495826831,1.1278122585028287,,,true,ll,6076.505999999994,response,-1.0525532302758762,1.2,-1.2,-1.1628982512509805,1.2,-1.2,low,low,,ISIC_2819798.JPG,,ISIC_0033428.JPG,,53,true,0.15000000000000002,ll,keypress(f),100,false,157716.19999980927,157716,151623.026,151833,151639.494,157550.991,1,16,8,
sequence,flow.Sequence,4_7,2023-11-27T16:38:00.738Z,,,,,,,,,,,6076.505999999994,completion,,,,,,,low,low,,,,,,,true,,,,,false,157716.5,157716,151623.026,151832.89999985695,151639.494,157550.991,1,16,,
trial,html.Screen,4_8_0,2023-11-27T16:38:16.300Z,,,,0,0.8809306963311293,-0.8614910030038974,,,true,lh,15726.708999809256,response,-0.8623414234919863,1.2,-1.2,0.782830143980698,1.2,-1.2,low,high,,ISIC_0013731.JPG,,ISIC_2727016.JPG,,27,true,0.42000000000000026,lh,keypress(e),100,false,173278.19999980927,173277.69999980927,157500.991,157716.69999980927,157550.991,173097.93,1,16,9,
sequence,flow.Sequence,4_8,2023-11-27T16:38:16.300Z,,,,,,,,,,,15726.708999809256,completion,,,,,,,low,high,,,,,,,true,,,,,false,173278.79999995232,173277.69999980927,157500.991,157716.69999980927,157550.991,173097.93,1,16,,
trial,html.Screen,4_9_0,2023-11-27T16:38:23.466Z,,,,0,0.8809306963311293,-0.8614910030038974,,,true,lh,7347.070000000007,response,-0.948927472020595,1.2,-1.2,1.0660437155921598,1.2,-1.2,low,high,,ISIC_0013731.JPG,,ISIC_5808758.JPG,,27,true,0.42000000000000026,lh,keypress(e),100,false,180445.39999985695,180445,173064.6,173279.09999990463,173097.93,180261.876,1,16,10,
sequence,flow.Sequence,4_9,2023-11-27T16:38:23.467Z,,,,,,,,,,,7347.070000000007,completion,,,,,,,low,high,,,,,,,true,,,,,false,180446.09999990463,180445,173064.6,173279,173097.93,180261.876,1,16,,
trial,html.Screen,4_10_0,2023-11-27T16:38:31.081Z,,,,0,0.8534691366511764,-1.03975580494588,,,true,lh,7797.923999952327,response,-1.0213365328004047,1.2,-1.2,1.088524359911891,1.2,-1.2,low,high,,ISIC_0056788.JPG,,ISIC_5434229.JPG,,27,true,0.42000000000000026,lh,keypress(e),100,false,188060.19999980927,188059.79999995232,180228.606,180446.29999995232,180261.876,187876.703,1,16,11,
sequence,flow.Sequence,4_10,2023-11-27T16:38:31.082Z,,,,,,,,,,,7797.923999952327,completion,,,,,,,low,high,,,,,,,true,,,,,false,188060.89999985695,188059.79999995232,180228.606,180446.29999995232,180261.876,187876.703,1,16,,
trial,html.Screen,4_11_0,2023-11-27T16:38:39.914Z,,,,0,1.331700944308701,-0.9395196143259436,,,true,lh,9015.596999952308,response,-0.796241477082623,1.2,-1.2,0.9017449335975743,1.2,-1.2,low,high,,ISIC_1668831.JPG,,ISIC_8588033.JPG,,27,true,0.42000000000000026,lh,keypress(e),100,false,196892.5,196892.29999995232,187843.368,188061.09999990463,187876.703,196693.873,1,16,12,
sequence,flow.Sequence,4_11,2023-11-27T16:38:39.914Z,,,,,,,,,,,9015.596999952308,completion,,,,,,,low,high,,,,,,,true,,,,,false,196892.69999980927,196892.29999995232,187843.368,188061.09999990463,187876.703,196693.873,1,16,,
trial,html.Screen,4_12_0,2023-11-27T16:38:54.072Z,,,,0,-0.8200962008791046,0.7936051642828523,,,true,hl,14356.627000000008,response,0.9696118525781644,1.2,-1.2,-0.9244148283103414,1.2,-1.2,high,low,,ISIC_0027031.JPG,,ISIC_7927525.JPG,,26,true,0.3600000000000002,hl,keypress(j),100,false,211050.89999985695,211050.5,196677.204,196892.69999980927,196693.873,210871.458,1,16,13,
sequence,flow.Sequence,4_12,2023-11-27T16:38:54.073Z,,,,,,,,,,,14356.627000000008,completion,,,,,,,high,low,,,,,,,true,,,,,false,211051.5,211050.5,196677.204,196892.69999980927,196693.873,210871.458,1,16,,
trial,html.Screen,4_13_0,2023-11-27T16:38:58.509Z,,,,0,-0.796241477082623,0.9017449335975743,,,true,hl,4615.941999856936,response,1.1181734135756094,1.2,-1.2,-0.944560381774994,1.2,-1.2,high,low,,ISIC_8588033.JPG,,ISIC_9688534.JPG,,33,true,0.42000000000000026,hl,keypress(j),100,false,215487.79999995232,215487.39999985695,210838.177,211051.79999995232,210871.458,215296.754,1,16,14,
sequence,flow.Sequence,4_13,2023-11-27T16:38:58.509Z,,,,,,,,,,,4615.941999856936,completion,,,,,,,high,low,,,,,,,true,,,,,false,215488.39999985695,215487.39999985695,210838.177,211051.69999980927,210871.458,215296.754,1,16,,
trial,html.Screen,4_14_0,2023-11-27T16:39:03.740Z,,,,0,-0.8816288864119318,0.801867301188093,,,true,hl,5421.54599995233,response,0.991282840649944,1.2,-1.2,-0.9397921099839784,1.2,-1.2,high,low,,ISIC_9196783.JPG,,ISIC_0000463.JPG,,33,true,0.42000000000000026,hl,keypress(j),100,false,220718.59999990463,220718.29999995232,215280.124,215488.69999980927,215296.754,220540.279,1,16,15,
sequence,flow.Sequence,4_14,2023-11-27T16:39:03.740Z,,,,,,,,,,,5421.54599995233,completion,,,,,,,high,low,,,,,,,true,,,,,false,220719.19999980927,220718.29999995232,215280.124,215488.69999980927,215296.754,220540.279,1,16,,
trial,html.Screen,4_15_0,2023-11-27T16:39:07.165Z,,,,0,-0.7998855902596425,1.1518579145663017,,,true,hl,3603.320999904623,response,1.0751036484083878,1.2,-1.2,-1.143906455483852,1.2,-1.2,high,low,,ISIC_0025061.JPG,,ISIC_0064406.JPG,,33,true,0.42000000000000026,hl,keypress(j),100,false,224144,224143.59999990463,220507.014,220719.39999985695,220540.279,223946.921,1,16,16,
sequence,flow.Sequence,4_15,2023-11-27T16:39:07.166Z,,,,,,,,,,,3603.320999904623,completion,,,,,,,high,low,,,,,,,true,,,,,false,224144.59999990463,224143.59999990463,220507.014,220719.39999985695,220540.279,223946.921,1,16,,
demonstration_loop,flow.Loop,4,2023-11-27T16:39:07.166Z,,,,,,,,,,,126225.32799990464,completion,,,,,,,,,,,,,,,true,,,,,false,224144.89999985695,224143.59999990463,97901.804,98126.09999990463,97918.272,223946.921,1,16,,
practice_instructions,html.Screen,5,2023-11-27T16:39:33.092Z,,,,,,,,,,,26114.67899990463,response,,,,,,,,,,,,,,,,,continue,click button,,,250069.89999985695,250061.59999990463,223930.338,224145,223946.921,249897.382,,,,
trial,html.Screen,6_0_0,2023-11-27T16:39:48.950Z,,,,1,0.9696118525781644,-0.9244148283103414,,,,,15814.247999999992,timeout,-1.0115965332688306,1.2,-1.2,0.8282633603842442,1.2,-1.2,low,high,,ISIC_7927525.JPG,,ISIC_1069587.JPG,,27,true,0.42000000000000026,,,0,false,265928,265927.5,249830.69,250070,249897.382,265711.63,1,40,1,
sequence,flow.Sequence,6_0,2023-11-27T16:39:48.950Z,,,,,,,,,,,16030.117999999988,completion,,,,,,,low,high,,,,,,,true,,,,,false,265928.59999990463,265927.5,249830.69,250070,249897.382,265711.63,1,40,,
trial,html.Screen,6_1_0,2023-11-27T16:39:54.106Z,,,,1,-1.1253220985777015,-1.108725659461368,,,true,hh,5372.869999999995,response,1.26095815172139,1.2,-1.2,1.4175768703171798,1.2,-1.2,high,high,,ISIC_0054954.JPG,,ISIC_7658729.JPG,,179,true,0.3600000000000002,hh,keypress(i),0,false,271084.59999990463,271084.5,265694.993,265928.89999985695,265711.63,270888.28,1,40,2,
sequence,flow.Sequence,6_1,2023-11-27T16:39:54.106Z,,,,,,,,,,,5372.869999999995,completion,,,,,,,high,high,,,,,,,true,,,,,false,271084.69999980927,271084.5,265694.993,265928.7999999523,265711.63,270888.28,1,40,,
trial,html.Screen,6_2_0,2023-11-27T16:40:02.565Z,,,,1,1.0717785279820962,1.1267239445830604,,,true,ll,8654.819999904605,response,-1.185875658992962,1.2,-1.2,-1.2635548590325487,1.2,-1.2,low,low,,ISIC_9948815.JPG,,ISIC_0011703.JPG,,30,true,0.1,ll,keypress(f),0,false,279543.5,279543.09999990463,270871.594,271084.7999999523,270888.28,279354.761,1,40,3,
sequence,flow.Sequence,6_2,2023-11-27T16:40:02.566Z,,,,,,,,,,,8654.819999904605,completion,,,,,,,low,low,,,,,,,true,,,,,false,279544.09999990463,279543.09999990463,270871.594,271084.7999999523,270888.28,279354.761,1,40,,
trial,html.Screen,6_3_0,2023-11-27T16:40:08.981Z,,,,1,-0.796241477082623,0.9017449335975743,,,true,hl,6604.538999952318,response,1.2331439637486756,1.2,-1.2,-0.9691143900156988,1.2,-1.2,high,low,,ISIC_8588033.JPG,,ISIC_7877488.JPG,,26,true,0.3600000000000002,hl,keypress(j),0,false,285959.59999990463,285959.2999999523,279321.527,279544.2999999523,279354.761,285750.625,1,40,4,
sequence,flow.Sequence,6_3,2023-11-27T16:40:08.982Z,,,,,,,,,,,6604.538999952318,completion,,,,,,,high,low,,,,,,,true,,,,,false,285960.19999980927,285959.2999999523,279321.527,279544.2999999523,279354.761,285750.625,1,40,,
trial,html.Screen,6_4_0,2023-11-27T16:40:14.901Z,,,,1,-1.2282561398079586,-1.210457198775374,,,true,hh,6128.574999809265,response,0.9786457729523576,1.2,-1.2,1.1189056385517386,1.2,-1.2,high,high,,ISIC_9141817.JPG,,ISIC_3926019.JPG,,253,true,0.42000000000000026,hh,keypress(i),0,false,291879.5,291879.19999980927,285734.083,285960.5,285750.625,291695.448,1,40,5,
sequence,flow.Sequence,6_4,2023-11-27T16:40:14.902Z,,,,,,,,,,,6128.574999809265,completion,,,,,,,high,high,,,,,,,true,,,,,false,291880,291879.19999980927,285734.083,285960.5,285750.625,291695.448,1,40,,
trial,html.Screen,6_5_0,2023-11-27T16:40:21.653Z,,,,1,-1.0164576835546473,0.8120626538423016,,,true,hl,6935.951999856974,response,1.011737552725394,1.2,-1.2,-0.8500530224490773,1.2,-1.2,high,low,,ISIC_6002694.JPG,,ISIC_2998367.JPG,,26,true,0.3600000000000002,hl,keypress(j),0,false,298631.69999980927,298631.39999985695,291645.298,291880.19999980927,291695.448,298425.193,1,40,6,
sequence,flow.Sequence,6_5,2023-11-27T16:40:21.654Z,,,,,,,,,,,6935.951999856974,completion,,,,,,,high,low,,,,,,,true,,,,,false,298632.2999999523,298631.39999985695,291645.298,291880.09999990463,291695.448,298425.193,1,40,,
trial,html.Screen,6_6_0,2023-11-27T16:40:28.285Z,,,,1,0.8487429103619056,-0.9778257804233036,,,true,lh,6837.906999904604,response,-0.7911024675435955,1.2,-1.2,0.7975977016137676,1.2,-1.2,low,high,,ISIC_4554863.JPG,,ISIC_5813642.JPG,,27,true,0.42000000000000026,lh,keypress(e),0,false,305263.5,305263.09999990463,298408.48,298632.69999980927,298425.193,305071.483,1,40,7,
sequence,flow.Sequence,6_6,2023-11-27T16:40:28.286Z,,,,,,,,,,,6837.906999904604,completion,,,,,,,low,high,,,,,,,true,,,,,false,305263.89999985695,305263.09999990463,298408.48,298632.59999990463,298425.193,305071.483,1,40,,
trial,html.Screen,6_7_0,2023-11-27T16:40:35.559Z,,,,1,-1.0213365328004047,1.088524359911891,,,true,hl,7463.916999856941,response,1.2331439637486756,1.2,-1.2,-0.9691143900156988,1.2,-1.2,high,low,,ISIC_5434229.JPG,,ISIC_7877488.JPG,,26,true,0.3600000000000002,hl,keypress(j),0,false,312535.7999999523,312535.39999985695,305038.205,305264.19999980927,305071.483,312318.932,1,40,8,
sequence,flow.Sequence,6_7,2023-11-27T16:40:35.559Z,,,,,,,,,,,7463.916999856941,completion,,,,,,,high,low,,,,,,,true,,,,,false,312536.2999999523,312535.39999985695,305038.205,305264.09999990463,305071.483,312318.932,1,40,,
trial,html.Screen,6_8_0,2023-11-27T16:40:42.125Z,,,,1,-1.2915523362516486,-1.1264977790562936,,,true,hh,6783.167999904661,response,1.267958234005108,1.2,-1.2,0.8717905813957879,1.2,-1.2,high,high,,ISIC_0502582.JPG,,ISIC_9187876.JPG,,253,true,0.42000000000000026,hh,keypress(i),0,false,319102.2999999523,319102.09999990463,312302.273,312536.5,312318.932,318898.632,1,40,9,
sequence,flow.Sequence,6_8,2023-11-27T16:40:42.125Z,,,,,,,,,,,6783.167999904661,completion,,,,,,,high,high,,,,,,,true,,,,,false,319102.39999985695,319102.09999990463,312302.273,312536.39999985695,312318.932,318898.632,1,40,,
trial,html.Screen,6_9_0,2023-11-27T16:40:45.863Z,,,,1,-1.2750452296609045,-1.1682369131232675,,,true,hh,3940.9679999046493,response,1.2503149164557643,1.2,-1.2,1.0796591227570405,1.2,-1.2,high,high,,ISIC_0066399.JPG,,ISIC_2466892.JPG,,26,true,0.15000000000000002,hh,keypress(i),0,false,322839.89999985695,322839.59999990463,318865.178,319102.59999990463,318898.632,322655.708,1,40,10,
sequence,flow.Sequence,6_9,2023-11-27T16:40:45.863Z,,,,,,,,,,,3940.9679999046493,completion,,,,,,,high,high,,,,,,,true,,,,,false,322840.5,322839.59999990463,318865.178,319102.59999990463,318898.632,322655.708,1,40,,
trial,html.Screen,6_10_0,2023-11-27T16:40:53.550Z,,,,1,1.4747161152848791,-0.847048591307387,,,true,lh,7871.591999952332,response,-0.9235571765207048,1.2,-1.2,1.0008081653938232,1.2,-1.2,low,high,,ISIC_0016092.JPG,,ISIC_8796632.JPG,,27,true,0.42000000000000026,lh,keypress(e),0,false,330527.69999980927,330527.2999999523,322605.696,322840.7999999523,322655.708,330320.705,1,40,11,
sequence,flow.Sequence,6_10,2023-11-27T16:40:53.551Z,,,,,,,,,,,7871.591999952332,completion,,,,,,,low,high,,,,,,,true,,,,,false,330528.19999980927,330527.2999999523,322605.696,322840.69999980927,322655.708,330320.705,1,40,,
trial,html.Screen,6_11_0,2023-11-27T16:41:02.207Z,,,,1,-1.101214461533281,-1.1849883512428183,,,true,hh,8862.794999999984,response,1.415411781259296,1.2,-1.2,1.2541318165695772,1.2,-1.2,high,high,,ISIC_0064943.JPG,,ISIC_4277207.JPG,,179,true,0.3600000000000002,hh,keypress(i),0,false,339183.89999985695,339183.5,330303.913,330528.5,330320.705,338970.812,1,40,12,
sequence,flow.Sequence,6_11,2023-11-27T16:41:02.207Z,,,,,,,,,,,8862.794999999984,completion,,,,,,,high,high,,,,,,,true,,,,,false,339184.2999999523,339183.5,330303.913,330528.39999985695,330320.705,338970.812,1,40,,
trial,html.Screen,6_12_0,2023-11-27T16:41:10.917Z,,,,1,1.1210325063849345,1.1498648320956202,,,true,ll,8923.087999856973,response,-1.1383813631375823,1.2,-1.2,-1.1319312220332556,1.2,-1.2,low,low,,ISIC_0032162.JPG,,ISIC_6227397.JPG,,30,true,0.1,ll,keypress(f),0,false,347894,347893.89999985695,338954.212,339184.69999980927,338970.812,347687.792,1,40,13,
sequence,flow.Sequence,6_12,2023-11-27T16:41:10.917Z,,,,,,,,,,,8923.087999856973,completion,,,,,,,low,low,,,,,,,true,,,,,false,347894.09999990463,347893.89999985695,338954.212,339184.59999990463,338970.812,347687.792,1,40,,
trial,html.Screen,6_13_0,2023-11-27T16:41:16.261Z,,,,1,-1.2952503640839694,-1.107234527385344,,,true,hh,5550.207999999984,response,1.2503149164557643,1.2,-1.2,1.0796591227570405,1.2,-1.2,high,high,,ISIC_0034134.JPG,,ISIC_2466892.JPG,,26,true,0.15000000000000002,hh,keypress(i),0,false,353238,353238,347671.297,347894.09999990463,347687.792,353048.165,1,40,14,
sequence,flow.Sequence,6_13,2023-11-27T16:41:16.261Z,,,,,,,,,,,5550.207999999984,completion,,,,,,,high,high,,,,,,,true,,,,,false,353238.19999980927,353238,347671.297,347894.09999990463,347687.792,353048.165,1,40,,
trial,html.Screen,6_14_0,2023-11-27T16:41:26.663Z,,,,1,1.4747161152848791,-0.847048591307387,,,true,lh,10591.335000000021,response,-0.809764442462202,1.2,-1.2,1.005337148078696,1.2,-1.2,low,high,,ISIC_0016092.JPG,,ISIC_2379379.JPG,,27,true,0.42000000000000026,lh,keypress(e),0,false,363639.7999999523,363639.5,353014.989,353238.2999999523,353048.165,363468.486,1,40,15,
sequence,flow.Sequence,6_14,2023-11-27T16:41:26.663Z,,,,,,,,,,,10591.335000000021,completion,,,,,,,low,high,,,,,,,true,,,,,false,363640.19999980927,363639.5,353014.989,353238.2999999523,353048.165,363468.486,1,40,,
trial,html.Screen,6_15_0,2023-11-27T16:41:33.301Z,,,,1,-0.9388660854518424,0.79533948698576,,,true,hl,6809.113999904657,response,0.9696118525781644,1.2,-1.2,-0.9244148283103414,1.2,-1.2,high,low,,ISIC_9291926.JPG,,ISIC_7927525.JPG,,26,true,0.3600000000000002,hl,keypress(j),0,false,370277.69999980927,370277.59999990463,363418.544,363640.5,363468.486,370064.654,1,40,16,
sequence,flow.Sequence,6_15,2023-11-27T16:41:33.301Z,,,,,,,,,,,6809.113999904657,completion,,,,,,,high,low,,,,,,,true,,,,,false,370277.89999985695,370277.59999990463,363418.544,363640.39999985695,363468.486,370064.654,1,40,,
trial,html.Screen,6_16_0,2023-11-27T16:41:37.863Z,,,,1,1.2024083555600384,1.149077673153018,,,true,ll,4774.745999856968,response,-1.5477347901499845,1.2,-1.2,-1.3847208101694664,1.2,-1.2,low,low,,ISIC_3566243.JPG,,ISIC_0053542.JPG,,339,true,0.42000000000000026,ll,keypress(f),0,false,374839.7999999523,374839.39999985695,370048.158,370277.89999985695,370064.654,374656.934,1,40,17,
sequence,flow.Sequence,6_16,2023-11-27T16:41:37.863Z,,,,,,,,,,,4774.745999856968,completion,,,,,,,low,low,,,,,,,true,,,,,false,374840.5,374839.39999985695,370048.158,370277.89999985695,370064.654,374656.934,1,40,,
trial,html.Screen,6_17_0,2023-11-27T16:41:43.007Z,,,,1,-1.0115965332688306,0.8282633603842442,,,true,hl,5326.365999952308,response,0.9696118525781644,1.2,-1.2,-0.9244148283103414,1.2,-1.2,high,low,,ISIC_1069587.JPG,,ISIC_7927525.JPG,,26,true,0.3600000000000002,hl,keypress(j),0,false,379983.69999980927,379983.2999999523,374607.073,374840.59999990463,374656.934,379783.558,1,40,18,
sequence,flow.Sequence,6_17,2023-11-27T16:41:43.007Z,,,,,,,,,,,5326.365999952308,completion,,,,,,,high,low,,,,,,,true,,,,,false,379984.19999980927,379983.2999999523,374607.073,374840.59999990463,374656.934,379783.558,1,40,,
trial,html.Screen,6_18_0,2023-11-27T16:41:50.631Z,,,,1,1.2331439637486756,-0.9691143900156988,,,true,lh,7823.741999952297,response,-0.8200962008791046,1.2,-1.2,0.7936051642828523,1.2,-1.2,low,high,,ISIC_7877488.JPG,,ISIC_0027031.JPG,,27,true,0.42000000000000026,lh,keypress(e),0,false,387607.59999990463,387607.2999999523,379750.363,379984.39999985695,379783.558,387398.484,1,40,19,
sequence,flow.Sequence,6_18,2023-11-27T16:41:50.631Z,,,,,,,,,,,7823.741999952297,completion,,,,,,,low,high,,,,,,,true,,,,,false,387608.09999990463,387607.2999999523,379750.363,379984.2999999523,379783.558,387398.484,1,40,,
trial,html.Screen,6_19_0,2023-11-27T16:41:54.230Z,,,,1,-1.156827121261563,-1.2544342720917778,,,true,hh,3808.5160000000033,response,1.0969203109789527,1.2,-1.2,0.8758990386796874,1.2,-1.2,high,high,,ISIC_0060397.JPG,,ISIC_2800198.JPG,,179,true,0.3600000000000002,hh,keypress(i),0,false,391207.2999999523,391207,387381.657,387608.2999999523,387398.484,390988.81,1,40,20,
sequence,flow.Sequence,6_19,2023-11-27T16:41:54.231Z,,,,,,,,,,,3808.5160000000033,completion,,,,,,,high,high,,,,,,,true,,,,,false,391207.7999999523,391207,387381.657,387608.2999999523,387398.484,390988.81,1,40,,
trial,html.Screen,6_20_0,2023-11-27T16:42:00.222Z,,,,1,1.0789197754694622,1.1654690806750023,,,true,ll,6210.289999904635,response,-1.101214461533281,1.2,-1.2,-1.1849883512428183,1.2,-1.2,low,low,,ISIC_1576437.JPG,,ISIC_0064943.JPG,,30,true,0.1,ll,keypress(f),0,false,397199.2999999523,397199.09999990463,390972.1,391208,390988.81,396983.731,1,40,21,
sequence,flow.Sequence,6_20,2023-11-27T16:42:00.223Z,,,,,,,,,,,6210.289999904635,completion,,,,,,,low,low,,,,,,,true,,,,,false,397199.7999999523,397199.09999990463,390972.1,391207.89999985695,390988.81,396983.731,1,40,,
trial,html.Screen,6_21_0,2023-11-27T16:42:02.975Z,,,,1,1.2706447584800626,1.0903308007916603,,,true,ll,2967.66899985692,response,-1.1346217981791904,1.2,-1.2,-1.1555132168806113,1.2,-1.2,low,low,,ISIC_9425937.JPG,,ISIC_0032771.JPG,,53,true,0.15000000000000002,ll,keypress(f),0,false,399951.69999980927,399951.39999985695,396967.188,397200.09999990463,396983.731,399772.477,1,40,22,
sequence,flow.Sequence,6_21,2023-11-27T16:42:02.975Z,,,,,,,,,,,2967.66899985692,completion,,,,,,,low,low,,,,,,,true,,,,,false,399952.2999999523,399951.39999985695,396967.188,397200,396983.731,399772.477,1,40,,
trial,html.Screen,6_22_0,2023-11-27T16:42:09.398Z,,,,1,0.8534691366511764,-1.03975580494588,,,true,lh,6602.622999904619,response,-0.948927472020595,1.2,-1.2,1.0660437155921598,1.2,-1.2,low,high,,ISIC_0056788.JPG,,ISIC_5808758.JPG,,27,true,0.42000000000000026,lh,keypress(e),0,false,406375.39999985695,406375.09999990463,399722.397,399952.5,399772.477,406168.284,1,40,23,
sequence,flow.Sequence,6_22,2023-11-27T16:42:09.399Z,,,,,,,,,,,6602.622999904619,completion,,,,,,,low,high,,,,,,,true,,,,,false,406376,406375.09999990463,399722.397,399952.39999985695,399772.477,406168.284,1,40,,
trial,html.Screen,6_23_0,2023-11-27T16:42:14.375Z,,,,1,1.1653123206802332,1.2976858999596654,,,true,ll,5183.216000000015,response,-1.0351900568634125,1.2,-1.2,-1.060448537312289,1.2,-1.2,low,low,,ISIC_0071508.JPG,,ISIC_4377208.JPG,,245,true,0.3600000000000002,ll,keypress(f),0,false,411351.7999999523,411351.5,406151.743,406376.19999980927,406168.284,411161.322,1,40,24,
sequence,flow.Sequence,6_23,2023-11-27T16:42:14.375Z,,,,,,,,,,,5183.216000000015,completion,,,,,,,low,low,,,,,,,true,,,,,false,411352.39999985695,411351.5,406151.743,406376.19999980927,406168.284,411161.322,1,40,,
trial,html.Screen,6_24_0,2023-11-27T16:42:20.575Z,,,,1,-1.4092385398614515,1.3046237992197836,,,true,hl,6389.87799980928,response,0.8579451262594331,1.2,-1.2,-0.9633172970727744,1.2,-1.2,high,low,,ISIC_7254359.JPG,,ISIC_0067172.JPG,,26,true,0.3600000000000002,hl,keypress(j),0,false,417551.5,417551.19999980927,411128.15,411352.69999980927,411161.322,417340.012,1,40,25,
sequence,flow.Sequence,6_24,2023-11-27T16:42:20.575Z,,,,,,,,,,,6389.87799980928,completion,,,,,,,high,low,,,,,,,true,,,,,false,417552,417551.19999980927,411128.15,411352.59999990463,411161.322,417340.012,1,40,,
trial,html.Screen,6_25_0,2023-11-27T16:42:23.797Z,,,,1,1.3411179702686655,1.255103311449152,,,true,ll,3434.0879999046447,response,-0.8665886246441876,1.2,-1.2,-0.8507210279123499,1.2,-1.2,low,low,,ISIC_5611010.JPG,,ISIC_1071355.JPG,,339,true,0.42000000000000026,ll,keypress(f),0,false,420774.19999980927,420774.09999990463,417323.405,417552.2999999523,417340.012,420579.618,1,40,26,
sequence,flow.Sequence,6_25,2023-11-27T16:42:23.797Z,,,,,,,,,,,3434.0879999046447,completion,,,,,,,low,low,,,,,,,true,,,,,false,420774.39999985695,420774.09999990463,417323.405,417552.19999980927,417340.012,420579.618,1,40,,
trial,html.Screen,6_26_0,2023-11-27T16:42:30.631Z,,,,1,-1.276222161935671,0.9657780821973284,,,true,hl,7027.981999904616,response,1.2075172235545184,1.2,-1.2,-0.9116724966267612,1.2,-1.2,high,low,,ISIC_6710411.JPG,,ISIC_0024235.JPG,,26,true,0.3600000000000002,hl,keypress(j),0,false,427607.89999985695,427607.59999990463,420546.209,420774.39999985695,420579.618,427392.924,1,40,27,
sequence,flow.Sequence,6_26,2023-11-27T16:42:30.631Z,,,,,,,,,,,7027.981999904616,completion,,,,,,,high,low,,,,,,,true,,,,,false,427608.39999985695,427607.59999990463,420546.209,420774.39999985695,420579.618,427392.924,1,40,,
trial,html.Screen,6_27_0,2023-11-27T16:42:33.927Z,,,,1,-1.101214461533281,-1.1849883512428183,,,true,hh,3510.47599985695,response,1.101961018205887,1.2,-1.2,0.891963134716088,1.2,-1.2,high,high,,ISIC_0064943.JPG,,ISIC_5625747.JPG,,253,true,0.42000000000000026,hh,keypress(i),0,false,430903.69999980927,430903.39999985695,427376.41,427608.59999990463,427392.924,430699.442,1,40,28,
sequence,flow.Sequence,6_27,2023-11-27T16:42:33.928Z,,,,,,,,,,,3510.47599985695,completion,,,,,,,high,high,,,,,,,true,,,,,false,430904.19999980927,430903.39999985695,427376.41,427608.59999990463,427392.924,430699.442,1,40,,
trial,html.Screen,6_28_0,2023-11-27T16:42:36.815Z,,,,1,1.241406480986552,1.081912821786771,,,true,ll,3091.6579999046517,response,-1.2750452296609045,1.2,-1.2,-1.1682369131232675,1.2,-1.2,low,low,,ISIC_4223155.JPG,,ISIC_0066399.JPG,,30,true,0.1,ll,keypress(f),0,false,433791.5,433791.09999990463,430682.862,430904.39999985695,430699.442,433588.524,1,40,29,
sequence,flow.Sequence,6_28,2023-11-27T16:42:36.815Z,,,,,,,,,,,3091.6579999046517,completion,,,,,,,low,low,,,,,,,true,,,,,false,433792,433791.09999990463,430682.862,430904.2999999523,430699.442,433588.524,1,40,,
trial,html.Screen,6_29_0,2023-11-27T16:42:41.487Z,,,,1,1.2012395086389958,1.0618985767073823,,,true,ll,4874.976000000024,response,-1.1033977063872138,1.2,-1.2,-1.2513071571733083,1.2,-1.2,low,low,,ISIC_9876004.JPG,,ISIC_0025472.JPG,,53,true,0.15000000000000002,ll,keypress(f),0,false,438463.89999985695,438463.5,433555.112,433792.19999980927,433588.524,438247.383,1,40,30,
sequence,flow.Sequence,6_29,2023-11-27T16:42:41.488Z,,,,,,,,,,,4874.976000000024,completion,,,,,,,low,low,,,,,,,true,,,,,false,438464.5,438463.5,433555.112,433792.19999980927,433588.524,438247.383,1,40,,
trial,html.Screen,6_30_0,2023-11-27T16:42:45.655Z,,,,1,-1.152619213055059,-1.1117876838408909,,,true,hh,4383.816999809293,response,1.2318069697449794,1.2,-1.2,1.1703576816778267,1.2,-1.2,high,high,,ISIC_0061915.JPG,,ISIC_2732573.JPG,,26,true,0.15000000000000002,hh,keypress(i),0,false,442631.59999990463,442631.19999980927,438230.856,438464.69999980927,438247.383,442455.563,1,40,31,
sequence,flow.Sequence,6_30,2023-11-27T16:42:45.656Z,,,,,,,,,,,4383.816999809293,completion,,,,,,,high,high,,,,,,,true,,,,,false,442632.09999990463,442631.19999980927,438230.856,438464.69999980927,438247.383,442455.563,1,40,,
trial,html.Screen,6_31_0,2023-11-27T16:42:51.727Z,,,,1,-1.276222161935671,0.9657780821973284,,,true,hl,6248.036999904609,response,0.991282840649944,1.2,-1.2,-0.9397921099839784,1.2,-1.2,high,low,,ISIC_6710411.JPG,,ISIC_0000463.JPG,,26,true,0.3600000000000002,hl,keypress(j),0,false,448703.89999985695,448703.59999990463,442405.689,442632.39999985695,442455.563,448500.677,1,40,32,
sequence,flow.Sequence,6_31,2023-11-27T16:42:51.728Z,,,,,,,,,,,6248.036999904609,completion,,,,,,,high,low,,,,,,,true,,,,,false,448704.2999999523,448703.59999990463,442405.689,442632.2999999523,442455.563,448500.677,1,40,,
trial,html.Screen,6_32_0,2023-11-27T16:42:57.463Z,,,,1,0.9696118525781644,-0.9244148283103414,,,true,lh,5938.52299980924,response,-0.9388660854518424,1.2,-1.2,0.79533948698576,1.2,-1.2,low,high,,ISIC_7927525.JPG,,ISIC_9291926.JPG,,27,true,0.42000000000000026,lh,keypress(e),0,false,454439.5,454439.19999980927,448484.064,448704.59999990463,448500.677,454245.181,1,40,33,
sequence,flow.Sequence,6_32,2023-11-27T16:42:57.463Z,,,,,,,,,,,5938.52299980924,completion,,,,,,,low,high,,,,,,,true,,,,,false,454440,454439.19999980927,448484.064,448704.59999990463,448500.677,454245.181,1,40,,
trial,html.Screen,6_33_0,2023-11-27T16:43:05.031Z,,,,1,1.4747161152848791,-0.847048591307387,,,true,lh,7762.018999809283,response,-1.0164576835546473,1.2,-1.2,0.8120626538423016,1.2,-1.2,low,high,,ISIC_0016092.JPG,,ISIC_6002694.JPG,,27,true,0.42000000000000026,lh,keypress(e),0,false,462007.5,462007.19999980927,454211.975,454440.19999980927,454245.181,461809.921,1,40,34,
sequence,flow.Sequence,6_33,2023-11-27T16:43:05.031Z,,,,,,,,,,,7762.018999809283,completion,,,,,,,low,high,,,,,,,true,,,,,false,462007.89999985695,462007.19999980927,454211.975,454440.09999990463,454245.181,461809.921,1,40,,
trial,html.Screen,6_34_0,2023-11-27T16:43:14.879Z,,,,1,1.2331439637486756,-0.9691143900156988,,,true,lh,10045.17899990466,response,-0.8947611078712571,1.2,-1.2,0.8960964505004638,1.2,-1.2,low,high,,ISIC_7877488.JPG,,ISIC_6441128.JPG,,27,true,0.42000000000000026,lh,keypress(e),0,false,471855.5,471855.09999990463,461776.579,462008.19999980927,461809.921,471645.73,1,40,35,
sequence,flow.Sequence,6_34,2023-11-27T16:43:14.879Z,,,,,,,,,,,10045.17899990466,completion,,,,,,,low,high,,,,,,,true,,,,,false,471855.89999985695,471855.09999990463,461776.579,462008.09999990463,461809.921,471645.73,1,40,,
trial,html.Screen,6_35_0,2023-11-27T16:43:26.543Z,,,,1,1.2706447584800626,1.0903308007916603,,,true,ll,11873.569999952335,response,-1.2093854735946803,1.2,-1.2,-0.9302843940316656,1.2,-1.2,low,low,,ISIC_9425937.JPG,,ISIC_0058158.JPG,,245,true,0.3600000000000002,ll,keypress(f),0,false,483519.59999990463,483519.2999999523,471629.223,471856.09999990463,471645.73,483335.136,1,40,36,
sequence,flow.Sequence,6_35,2023-11-27T16:43:26.544Z,,,,,,,,,,,11873.569999952335,completion,,,,,,,low,low,,,,,,,true,,,,,false,483520.19999980927,483519.2999999523,471629.223,471856.09999990463,471645.73,483335.136,1,40,,
trial,html.Screen,6_36_0,2023-11-27T16:43:32.911Z,,,,1,0.9433720631499012,-1.0582071940347648,,,true,lh,6552.364000000001,response,-0.8623414234919863,1.2,-1.2,0.782830143980698,1.2,-1.2,low,high,,ISIC_4890201.JPG,,ISIC_2727016.JPG,,27,true,0.42000000000000026,lh,keypress(e),0,false,489887.7999999523,489887.5,483285.209,483520.39999985695,483335.136,489697.505,1,40,37,
sequence,flow.Sequence,6_36,2023-11-27T16:43:32.912Z,,,,,,,,,,,6552.364000000001,completion,,,,,,,low,high,,,,,,,true,,,,,false,489888.39999985695,489887.5,483285.209,483520.39999985695,483335.136,489697.505,1,40,,
trial,html.Screen,6_37_0,2023-11-27T16:43:38.511Z,,,,1,-1.4092385398614515,1.3046237992197836,,,true,hl,5789.494999999995,response,1.020990671779317,1.2,-1.2,-1.0116513850520903,1.2,-1.2,high,low,,ISIC_7254359.JPG,,ISIC_0011995.JPG,,26,true,0.3600000000000002,hl,keypress(j),0,false,495487.2999999523,495487,489664.285,489888.59999990463,489697.505,495291.747,1,40,38,
sequence,flow.Sequence,6_37,2023-11-27T16:43:38.512Z,,,,,,,,,,,5789.494999999995,completion,,,,,,,high,low,,,,,,,true,,,,,false,495487.7999999523,495487,489664.285,489888.59999990463,489697.505,495291.747,1,40,,
trial,html.Screen,6_38_0,2023-11-27T16:43:45.296Z,,,,1,-1.0264463986917702,1.2804054832904397,,,true,hl,6979.852999904659,response,1.331700944308701,1.2,-1.2,-0.9395196143259436,1.2,-1.2,high,low,,ISIC_7889838.JPG,,ISIC_1668831.JPG,,33,true,0.42000000000000026,hl,keypress(j),0,false,502271.89999985695,502271.59999990463,495258.555,495488.09999990463,495291.747,502054.918,1,40,39,
sequence,flow.Sequence,6_38,2023-11-27T16:43:45.296Z,,,,,,,,,,,6979.852999904659,completion,,,,,,,high,low,,,,,,,true,,,,,false,502272.39999985695,502271.59999990463,495258.555,495488,495291.747,502054.918,1,40,,
trial,html.Screen,6_39_0,2023-11-27T16:43:48.839Z,,,,1,-1.1346217981791904,-1.1555132168806113,,,true,hh,3760.28199980926,response,0.8109564763257635,1.2,-1.2,1.4249507182087946,1.2,-1.2,high,high,,ISIC_0032771.JPG,,ISIC_0004334.JPG,,253,true,0.42000000000000026,hh,keypress(i),0,false,505815.5,505815.19999980927,502038.376,502272.69999980927,502054.918,505612.051,1,40,40,
sequence,flow.Sequence,6_39,2023-11-27T16:43:48.840Z,,,,,,,,,,,3760.28199980926,completion,,,,,,,high,high,,,,,,,true,,,,,false,505816,505815.19999980927,502038.376,502272.59999990463,502054.918,505612.051,1,40,,
practice_loop,flow.Loop,6,2023-11-27T16:43:48.840Z,,,,,,,,,,,255917.81799980925,completion,,,,,,,,,,,,,,,true,,,,,false,505816.2999999523,505815.19999980927,249830.69,250070,249897.382,505612.051,1,40,,
stair_instructions,html.Screen,7,2023-11-27T16:43:55.486Z,,,,,,,,,,,6849.6489998092875,response,,,,,,,,,,,,,,,,,continue,click button,,,512462.19999980927,512461.69999980927,505595.203,505816.5,505612.051,512258.448,,,,
trial,html.Screen,8_0_0,2023-11-27T16:44:08.657Z,,,,2,-0.0329095507339554,0.0382899749693245,,0.05,false,ll,13374.552000000025,response,-1.29026082950341,1.2,-1.2,-1.144672688339213,1.2,-1.2,low,low,,ISIC_8812781.JPG,,ISIC_0054317.JPG,33,30,false,0.1,lh,keypress(e),0,true,525633.1999998093,525633,512224.739,512462.2999999523,512258.448,525433.753,1,40,1,
sequence,flow.Sequence,8_0,2023-11-27T16:44:08.657Z,,,,,,,,,,,13374.552000000025,completion,,,,,,,low,low,,,,,,,false,,,,,true,525633.2999999523,525633,512224.739,512462.2999999523,512258.448,525433.753,1,40,,
trial,html.Screen,8_1_0,2023-11-27T16:44:18.080Z,,,,2,0.0102460616775615,-0.0309670599545429,,0.05,true,hl,9621.646999856923,response,0.9433720631499012,1.15,-1.15,-1.0582071940347648,1.15,-1.2,high,low,,ISIC_0072041.JPG,,ISIC_4890201.JPG,33,26,false,0.3500000000000002,hl,keypress(j),0,true,535055.7999999523,535055.399999857,525417.044,525633.399999857,525433.753,534852.19,1,40,2,
sequence,flow.Sequence,8_1,2023-11-27T16:44:18.080Z,,,,,,,,,,,9621.646999856923,completion,,,,,,,high,low,,,,,,,false,,,,,true,535056.2999999523,535055.399999857,525417.044,525633.399999857,525433.753,534852.19,1,40,,
trial,html.Screen,8_2_0,2023-11-27T16:44:20.758Z,,,,2,-0.0329095507339554,0.0382899749693245,,0.05,true,ll,2881.810000000056,response,-1.188743606919222,1.15,-1.15,-1.0980226451001782,1.15,-1.15,low,low,,ISIC_8812781.JPG,,ISIC_0060481.JPG,33,27,false,0.1,ll,keypress(f),0,true,537734.0999999046,537734,534835.572,535056.5,534852.19,537524.002,1,40,3,
sequence,flow.Sequence,8_2,2023-11-27T16:44:20.758Z,,,,,,,,,,,2881.810000000056,completion,,,,,,,low,low,,,,,,,false,,,,,true,537734.1999998093,537734,534835.572,535056.5,534852.19,537524.002,1,40,,
trial,html.Screen,8_3_0,2023-11-27T16:44:34.711Z,,,,2,-0.0389988030702649,-0.0143212271490256,,0.05,false,hh,14162.89799985697,response,1.0565911491759823,1.15,-1.0281149195674715,1.0221582682700174,1.15,-1.0281149195674715,high,high,,ISIC_0064669.JPG,,ISIC_6604862.JPG,33,30,false,0.13,lh,keypress(e),0,true,551687.0999999046,551686.899999857,537507.34,537734.2999999523,537524.002,551485.042,1,40,4,
sequence,flow.Sequence,8_3,2023-11-27T16:44:34.712Z,,,,,,,,,,,14162.89799985697,completion,,,,,,,high,high,,,,,,,false,,,,,true,551687.5,551686.899999857,537507.34,537734.2999999523,537524.002,551485.042,1,40,,
trial,html.Screen,8_4_0,2023-11-27T16:44:42.616Z,,,,2,-0.0324770283903853,-0.0249968632204382,,0.05,true,hh,8106.557999904617,response,1.1137763092539212,1.15,-1.0281149195674715,1.1599906701455132,1.15,-1.0281149195674715,high,high,,ISIC_7266462.JPG,,ISIC_5413788.JPG,33,30,false,0.13,hh,keypress(i),0,true,559592,559591.5999999046,551451.169,551687.6999998093,551485.042,559383.175,1,40,5,
sequence,flow.Sequence,8_4,2023-11-27T16:44:42.617Z,,,,,,,,,,,8106.557999904617,completion,,,,,,,high,high,,,,,,,false,,,,,true,559592.5999999046,559591.5999999046,551451.169,551687.6999998093,551485.042,559383.175,1,40,,
trial,html.Screen,8_5_0,2023-11-27T16:44:51.680Z,,,,2,0.0277178575053843,-0.0395587463147856,,0.05,true,lh,9272.524999809219,response,-0.948927472020595,1.15,-1.0281149195674715,1.0660437155921598,1.0868834896997173,-1.0281149195674715,low,high,,ISIC_0010807.JPG,,ISIC_5808758.JPG,33,25,false,0.29000000000000015,lh,keypress(e),0,true,568656,568655.6999998093,559366.54,559592.7999999523,559383.175,568450.828,1,40,6,
sequence,flow.Sequence,8_5,2023-11-27T16:44:51.681Z,,,,,,,,,,,9272.524999809219,completion,,,,,,,low,high,,,,,,,false,,,,,true,568656.5999999046,568655.6999998093,559366.54,559592.6999998093,559383.175,568450.828,1,40,,
trial,html.Screen,8_6_0,2023-11-27T16:44:56.616Z,,,,2,0.0113873532168551,0.0054999201556291,,0.05,true,lh,5140.6720000000205,response,-0.7833710010171356,1.15,-1.0281149195674715,0.9315588090336896,1.0868834896997173,-1.0281149195674715,low,high,,ISIC_8812621.JPG,,ISIC_3826102.JPG,33,25,false,0.29000000000000015,lh,keypress(e),0,true,573591.7999999523,573591.5,568434.316,568656.899999857,568450.828,573377.082,1,40,7,
sequence,flow.Sequence,8_6,2023-11-27T16:44:56.617Z,,,,,,,,,,,5140.6720000000205,completion,,,,,,,low,high,,,,,,,false,,,,,true,573592.1999998093,573591.5,568434.316,568656.7999999523,568450.828,573377.082,1,40,,
trial,html.Screen,8_7_0,2023-11-27T16:45:04.505Z,,,,2,0.0113873532168551,0.0054999201556291,,0.05,false,hl,8102.817999856896,response,0.9579209317488,1.15,-0.9781149195674714,-1.0147487101263497,0.9488012623129247,-1.0281149195674715,high,low,,ISIC_8812621.JPG,,ISIC_8124482.JPG,33,26,false,0.29000000000000015,lh,keypress(e),0,true,581480.1999998093,581479.899999857,573360.587,573592.5,573377.082,581292.494,1,40,8,
sequence,flow.Sequence,8_7,2023-11-27T16:45:04.505Z,,,,,,,,,,,8102.817999856896,completion,,,,,,,high,low,,,,,,,false,,,,,true,581480.6999998093,581479.899999857,573360.587,573592.5,573377.082,581292.494,1,40,,
trial,html.Screen,8_8_0,2023-11-27T16:45:10.808Z,,,,2,0.0097091270150747,-0.0417921315885292,,0.05,true,hl,6491.105999904685,response,0.8809306963311293,1.15,-0.9781149195674714,-0.8614910030038974,0.9488012623129247,-1.0781149195674715,high,low,,ISIC_3967213.JPG,,ISIC_0013731.JPG,33,27,false,0.30000000000000016,hl,keypress(j),0,true,587784,587783.5999999046,581258.959,581480.899999857,581292.494,587571.376,1,40,9,
sequence,flow.Sequence,8_8,2023-11-27T16:45:10.809Z,,,,,,,,,,,6491.105999904685,completion,,,,,,,high,low,,,,,,,false,,,,,true,587784.5,587783.5999999046,581258.959,581480.899999857,581292.494,587571.376,1,40,,
trial,html.Screen,8_9_0,2023-11-27T16:45:22.926Z,,,,2,-0.039728379742806,0.0228701131373768,,0.05,true,lh,12330.623999999953,response,-0.948927472020595,1.15,-0.9781149195674714,1.0660437155921598,0.9488012623129247,-1.0781149195674715,low,high,,ISIC_0054073.JPG,,ISIC_5808758.JPG,33,26,false,0.21000000000000008,lh,keypress(e),0,true,599902.0999999046,599902,587554.88,587784.7999999523,587571.376,599695.126,1,40,10,
sequence,flow.Sequence,8_9,2023-11-27T16:45:22.927Z,,,,,,,,,,,12330.623999999953,completion,,,,,,,low,high,,,,,,,false,,,,,true,599902.1999998093,599902,587554.88,587784.5999999046,587571.376,599695.126,1,40,,
trial,html.Screen,8_10_0,2023-11-27T16:45:29.503Z,,,,2,-0.0450282431170921,0,,0.05,true,hh,6783.173999952269,response,1.0565911491759823,1.15,-0.9781149195674714,1.0221582682700174,0.9488012623129247,-1.0781149195674715,high,high,,ISIC_1805163.JPG,,ISIC_6604862.JPG,33,30,false,0.1,hh,keypress(i),0,true,606478.399999857,606478.2999999523,599678.346,599902.1999998093,599695.126,606274.425,1,40,11,
sequence,flow.Sequence,8_10,2023-11-27T16:45:29.503Z,,,,,,,,,,,6783.173999952269,completion,,,,,,,high,high,,,,,,,false,,,,,true,606478.5999999046,606478.2999999523,599678.346,599902.1999998093,599695.126,606274.425,1,40,,
trial,html.Screen,8_11_0,2023-11-27T16:45:33.305Z,,,,2,0.0112310719058792,-0.0469047359904117,,0.05,false,lh,4005.174999904586,response,-0.7723849213858904,0.9941009919310886,-0.9781149195674714,0.888372424147899,0.9941009919310886,-1.0781149195674715,low,high,,ISIC_0068184.JPG,,ISIC_3884221.JPG,33,26,false,0.22000000000000008,ll,keypress(f),0,true,610279.899999857,610279.5999999046,606241.247,606478.5999999046,606274.425,610065.16,1,40,12,
sequence,flow.Sequence,8_11,2023-11-27T16:45:33.305Z,,,,,,,,,,,4005.174999904586,completion,,,,,,,low,high,,,,,,,false,,,,,true,610280.5,610279.5999999046,606241.247,606478.5999999046,606274.425,610065.16,1,40,,
trial,html.Screen,8_12_0,2023-11-27T16:45:36.857Z,,,,2,0.0362376068089956,0.047825070846155,,0.05,false,hl,3766.2399998569163,response,0.7877939497981142,0.9941009919310886,-0.9281149195674714,-0.8415032780288271,1.0441009919310886,-1.0781149195674715,high,low,,ISIC_6985114.JPG,,ISIC_0067308.JPG,33,28,false,0.2400000000000001,hh,keypress(i),0,true,613831.6999998093,613831.399999857,610048.56,610280.6999998093,610065.16,613622.087,1,40,13,
sequence,flow.Sequence,8_12,2023-11-27T16:45:36.857Z,,,,,,,,,,,3766.2399998569163,completion,,,,,,,high,low,,,,,,,false,,,,,true,613832.1999998093,613831.399999857,610048.56,610280.6999998093,610065.16,613622.087,1,40,,
trial,html.Screen,8_13_0,2023-11-27T16:45:48.889Z,,,,2,0.0159061451859594,0.0296598845560212,,0.05,true,lh,12241.812999856891,response,-0.7468996036626098,0.9941009919310886,-0.9281149195674714,0.8073835700282378,1.0441009919310886,-1.1281149195674716,low,high,,ISIC_0072564.JPG,,ISIC_5335139.JPG,33,26,false,0.2400000000000001,lh,keypress(e),0,true,625864.1999998093,625863.899999857,613605.501,613832.399999857,613622.087,625645.575,1,40,14,
sequence,flow.Sequence,8_13,2023-11-27T16:45:48.890Z,,,,,,,,,,,12241.812999856891,completion,,,,,,,low,high,,,,,,,false,,,,,true,625864.6999998093,625863.899999857,613605.501,613832.399999857,613622.087,625645.575,1,40,,
trial,html.Screen,8_14_0,2023-11-27T16:45:52.479Z,,,,2,0.0277178575053843,-0.0395587463147856,,0.05,true,hh,3808.4250000000466,response,1.037577073517966,0.9941009919310886,-0.9281149195674714,1.027048110709042,1.0441009919310886,-1.1281149195674716,high,high,,ISIC_0010807.JPG,,ISIC_0004932.JPG,33,31,false,0.1,hh,keypress(i),0,true,629454.1999998093,629454,625628.922,625865,625645.575,629235.801,1,40,15,
sequence,flow.Sequence,8_14,2023-11-27T16:45:52.479Z,,,,,,,,,,,3808.4250000000466,completion,,,,,,,high,high,,,,,,,false,,,,,true,629454.399999857,629454,625628.922,625864.899999857,625645.575,629235.801,1,40,,
trial,html.Screen,8_15_0,2023-11-27T16:45:56.321Z,,,,2,0.013431314305098,-0.0140597582944232,,0.05,false,lh,4059.4989999523386,response,-0.8816288864119318,0.8672158403686399,-0.9281149195674714,0.801867301188093,0.8672158403686399,-1.1281149195674716,low,high,,ISIC_0069617.JPG,,ISIC_9196783.JPG,33,29,false,0.17000000000000004,ll,keypress(f),0,true,633295.6999998093,633295.2999999523,629219.068,629454.399999857,629235.801,633093.917,1,40,16,
sequence,flow.Sequence,8_15,2023-11-27T16:45:56.321Z,,,,,,,,,,,4059.4989999523386,completion,,,,,,,low,high,,,,,,,false,,,,,true,633296.1999998093,633295.2999999523,629219.068,629454.399999857,629235.801,633093.917,1,40,,
trial,html.Screen,8_16_0,2023-11-27T16:46:03.537Z,,,,2,-0.0085520978188085,0.0464691161264081,,0.05,false,ll,7417.8829999523,response,-0.850661315114799,0.8672158403686399,-0.8781149195674713,-1.2014901828022857,0.9172158403686399,-1.1281149195674716,low,low,,ISIC_0758797.JPG,,ISIC_0067808.JPG,33,39,false,0.1,lh,keypress(e),0,true,640512.0999999046,640511.7999999523,633059.899,633296.399999857,633093.917,640307.362,1,40,17,
sequence,flow.Sequence,8_16,2023-11-27T16:46:03.538Z,,,,,,,,,,,7417.8829999523,completion,,,,,,,low,low,,,,,,,false,,,,,true,640512.6999998093,640511.7999999523,633059.899,633296.399999857,633093.917,640307.362,1,40,,
trial,html.Screen,8_17_0,2023-11-27T16:46:12.145Z,,,,2,0,0.0264544974620926,,0.05,true,lh,8812.3379998093,response,-0.948927472020595,0.8672158403686399,-0.8781149195674713,1.0660437155921598,0.9172158403686399,-1.1781149195674716,low,high,,ISIC_0056991.JPG,,ISIC_5808758.JPG,33,25,false,0.16000000000000003,lh,keypress(e),0,true,649120,649119.6999998093,640290.817,640513,640307.362,648907.437,1,40,18,
sequence,flow.Sequence,8_17,2023-11-27T16:46:12.145Z,,,,,,,,,,,8812.3379998093,completion,,,,,,,low,high,,,,,,,false,,,,,true,649120.5,649119.6999998093,640290.817,640512.7999999523,640307.362,648907.437,1,40,,
trial,html.Screen,8_18_0,2023-11-27T16:46:18.169Z,,,,2,-0.0456515796420274,0.0273567130070961,,0.05,false,ll,6236.262999809231,response,-0.9049419708812736,0.8672158403686399,-0.8281149195674713,-1.1525122949771718,0.9172158403686399,-1.1781149195674716,low,low,,ISIC_0068610.JPG,,ISIC_0011348.JPG,33,29,false,0.1,lh,keypress(e),0,true,655144,655143.6999998093,648890.908,649120.7999999523,648907.437,654935.835,1,40,19,
sequence,flow.Sequence,8_18,2023-11-27T16:46:18.169Z,,,,,,,,,,,6236.262999809231,completion,,,,,,,low,low,,,,,,,false,,,,,true,655144.5,655143.6999998093,648890.908,649120.6999998093,648907.437,654935.835,1,40,,
trial,html.Screen,8_19_0,2023-11-27T16:46:21.865Z,,,,2,0,0.0264544974620926,,0.05,false,hl,3903.564999856986,response,0.706802912822355,0.8672158403686399,-0.8281149195674713,-1.168911077628813,0.9172158403686399,-1.1781149195674716,high,low,,ISIC_0056991.JPG,,ISIC_7358691.JPG,33,26,false,0.22000000000000008,hh,keypress(i),0,true,658839.7999999523,658839.399999857,654919.321,655144.6999998093,654935.835,658626.352,1,40,20,
sequence,flow.Sequence,8_19,2023-11-27T16:46:21.865Z,,,,,,,,,,,3903.564999856986,completion,,,,,,,high,low,,,,,,,false,,,,,true,658840.1999998093,658839.399999857,654919.321,655144.6999998093,654935.835,658626.352,1,40,,
trial,html.Screen,8_20_0,2023-11-27T16:46:26.889Z,,,,2,0.013431314305098,-0.0140597582944232,,0.05,true,hh,5237.34799980931,response,0.9487751044258608,0.8672158403686399,-0.8281149195674713,0.875032819970805,0.9172158403686399,-1.1781149195674716,high,high,,ISIC_0069617.JPG,,ISIC_4568084.JPG,33,39,false,0.1,hh,keypress(i),0,true,663863.899999857,663863.6999998093,658609.655,658840.5,658626.352,663652.806,1,40,21,
sequence,flow.Sequence,8_20,2023-11-27T16:46:26.889Z,,,,,,,,,,,5237.34799980931,completion,,,,,,,high,high,,,,,,,false,,,,,true,663864.5,663863.6999998093,658609.655,658840.399999857,658626.352,663652.806,1,40,,
trial,html.Screen,8_21_0,2023-11-27T16:46:36.625Z,,,,2,0.0188047466661863,-0.0288346930436979,,0.05,true,hl,9946.993999952334,response,0.879102500583965,0.7409178663965799,-0.8281149195674713,-1.0933081951979773,0.7409178663965799,-1.1781149195674716,high,low,,ISIC_0014157.JPG,,ISIC_0046223.JPG,33,27,false,0.21000000000000008,hl,keypress(j),0,true,673600.0999999046,673599.7999999523,663636.036,663864.6999998093,663652.806,673388.501,1,40,22,
sequence,flow.Sequence,8_21,2023-11-27T16:46:36.626Z,,,,,,,,,,,9946.993999952334,completion,,,,,,,high,low,,,,,,,false,,,,,true,673600.5999999046,673599.7999999523,663636.036,663864.6999998093,663652.806,673388.501,1,40,,
trial,html.Screen,8_22_0,2023-11-27T16:46:44.864Z,,,,2,-0.0324770283903853,-0.0249968632204382,,0.05,false,hh,8449.698999809218,response,0.6460235023111066,0.7409178663965799,-0.8281149195674713,0.7883321199284767,0.7409178663965799,-1.1781149195674716,high,high,,ISIC_7266462.JPG,,ISIC_1294049.JPG,33,86,false,0.1,hl,keypress(j),0,true,681838.2999999523,681838.1999998093,673371.747,673600.899999857,673388.501,681621.119,1,40,23,
sequence,flow.Sequence,8_22,2023-11-27T16:46:44.864Z,,,,,,,,,,,8449.698999809218,completion,,,,,,,high,high,,,,,,,false,,,,,true,681838.5999999046,681838.1999998093,673371.747,673600.7999999523,673388.501,681621.119,1,40,,
trial,html.Screen,8_23_0,2023-11-27T16:46:50.528Z,,,,2,0.0051189696037511,-0.0396625911332438,,0.05,true,ll,5881.280999857001,response,-0.8135784497248124,0.6909178663965798,-0.8281149195674713,-1.2213192787787848,0.7909178663965799,-1.1781149195674716,low,low,,ISIC_9742891.JPG,,ISIC_0029353.JPG,33,29,false,0.1,ll,keypress(f),0,true,687502.399999857,687502.399999857,681604.515,681838.5999999046,681621.119,687299.377,1,40,24,
sequence,flow.Sequence,8_23,2023-11-27T16:46:50.528Z,,,,,,,,,,,5881.280999857001,completion,,,,,,,low,low,,,,,,,false,,,,,true,687502.6999998093,687502.399999857,681604.515,681838.5999999046,681621.119,687299.377,1,40,,
trial,html.Screen,8_24_0,2023-11-27T16:46:54.521Z,,,,2,-0.0027483411352856,-0.0100996915276271,,0.05,false,hl,4196.222999904654,response,0.5946266402670454,0.6909178663965798,-1.107313736988381,-1.0906221698932466,0.7909178663965799,-1.107313736988381,high,low,,ISIC_7364041.JPG,,ISIC_0000072.JPG,33,25,false,0.16000000000000003,hh,keypress(i),0,true,691495.899999857,691495.5999999046,687265.623,687502.7999999523,687299.377,691289.969,1,40,25,
sequence,flow.Sequence,8_24,2023-11-27T16:46:54.522Z,,,,,,,,,,,4196.222999904654,completion,,,,,,,high,low,,,,,,,false,,,,,true,691496.399999857,691495.5999999046,687265.623,687502.7999999523,687299.377,691289.969,1,40,,
trial,html.Screen,8_25_0,2023-11-27T16:47:07.256Z,,,,2,0.0102460616775615,-0.0309670599545429,,0.05,false,hh,12940.230999809224,response,0.6106404064210753,0.6909178663965798,-1.107313736988381,0.7529150083671707,0.7909178663965799,-1.157313736988381,high,high,,ISIC_0072041.JPG,,ISIC_7526530.JPG,33,74,false,0.1,lh,keypress(e),0,true,704230.2999999523,704230.1999998093,691273.2,691496.6999998093,691289.969,704014.7,1,40,26,
sequence,flow.Sequence,8_25,2023-11-27T16:47:07.256Z,,,,,,,,,,,12940.230999809224,completion,,,,,,,high,high,,,,,,,false,,,,,true,704230.5,704230.1999998093,691273.2,691496.5999999046,691289.969,704014.7,1,40,,
trial,html.Screen,8_26_0,2023-11-27T16:47:13.321Z,,,,2,-0.0389988030702649,-0.0143212271490256,,0.05,true,ll,6280.699999856995,response,-1.1253220985777015,0.7409178663965799,-1.107313736988381,-1.108725659461368,0.7909178663965799,-1.157313736988381,low,low,,ISIC_0064669.JPG,,ISIC_0054954.JPG,33,27,false,0.1,ll,keypress(f),0,true,710295.6999998093,710295.399999857,703997.944,704230.5,704014.7,710093.822,1,40,27,
sequence,flow.Sequence,8_26,2023-11-27T16:47:13.322Z,,,,,,,,,,,6280.699999856995,completion,,,,,,,low,low,,,,,,,false,,,,,true,710296.2999999523,710295.399999857,703997.944,704230.5,704014.7,710093.822,1,40,,
trial,html.Screen,8_27_0,2023-11-27T16:47:18.639Z,,,,2,0.0097091270150747,-0.0417921315885292,,0.05,true,hl,5520.277999904589,response,0.879102500583965,0.7409178663965799,-1.107313736988381,-1.0933081951979773,0.7909178663965799,-1.157313736988381,high,low,,ISIC_3967213.JPG,,ISIC_0046223.JPG,33,25,false,0.19000000000000006,hl,keypress(j),0,true,715614.0999999046,715614.0999999046,710059.844,710296.5,710093.822,715403.536,1,40,28,
sequence,flow.Sequence,8_27,2023-11-27T16:47:18.640Z,,,,,,,,,,,5520.277999904589,completion,,,,,,,high,low,,,,,,,false,,,,,true,715614.1999998093,715614.0999999046,710059.844,710296.399999857,710093.822,715403.536,1,40,,
trial,html.Screen,8_28_0,2023-11-27T16:47:24.633Z,,,,2,-0.0070725527271049,-0.0049995141077508,,0.05,false,hl,6204.1639998093015,response,0.7016683761932542,0.7409178663965799,-1.107313736988381,-1.043794098855853,0.7909178663965799,-1.107313736988381,high,low,,ISIC_6124481.JPG,,ISIC_0033117.JPG,33,27,false,0.16000000000000003,hh,keypress(i),0,true,721608,721607.6999998093,715386.786,715614.2999999523,715403.536,721398.537,1,40,29,
sequence,flow.Sequence,8_28,2023-11-27T16:47:24.634Z,,,,,,,,,,,6204.1639998093015,completion,,,,,,,high,low,,,,,,,false,,,,,true,721608.5999999046,721607.6999998093,715386.786,715614.2999999523,715403.536,721398.537,1,40,,
trial,html.Screen,8_29_0,2023-11-27T16:47:32.202Z,,,,2,0.0102460616775615,-0.0309670599545429,,0.05,true,lh,7777.962999999989,response,-1.073191619565092,0.7403854383886095,-1.107313736988381,0.6195550709150465,0.7909178663965799,-1.157313736988381,low,high,,ISIC_0072041.JPG,,ISIC_9386509.JPG,33,28,false,0.21000000000000008,lh,keypress(e),0,true,729177,729176.5,721381.979,721608.7999999523,721398.537,728963.263,1,40,30,
sequence,flow.Sequence,8_29,2023-11-27T16:47:32.203Z,,,,,,,,,,,7777.962999999989,completion,,,,,,,low,high,,,,,,,false,,,,,true,729177.5999999046,729176.5,721381.979,721608.6999998093,721398.537,728963.263,1,40,,
trial,html.Screen,8_30_0,2023-11-27T16:47:42.034Z,,,,2,-0.0324770283903853,-0.0249968632204382,,0.05,false,ll,10044.336999904597,response,-1.0698162624196283,0.7403854383886095,-1.057313736988381,-1.219634566983089,0.6993287857495056,-1.157313736988381,low,low,,ISIC_7266462.JPG,,ISIC_0030552.JPG,33,29,false,0.1,hl,keypress(j),0,true,739008,739007.5999999046,728946.484,729177.7999999523,728963.263,738799.105,1,40,31,
sequence,flow.Sequence,8_30,2023-11-27T16:47:42.034Z,,,,,,,,,,,10044.336999904597,completion,,,,,,,low,low,,,,,,,false,,,,,true,739008.5999999046,739007.5999999046,728946.484,729177.6999998093,728963.263,738799.105,1,40,,
trial,html.Screen,8_31_0,2023-11-27T16:47:50.754Z,,,,2,-0.0085520978188085,0.0464691161264081,,0.05,false,hh,8928.794999856967,response,0.7723853975066318,0.7403854383886095,-1.107313736988381,0.6609799093256855,0.6993287857495056,-1.157313736988381,high,high,,ISIC_0758797.JPG,,ISIC_0030718.JPG,33,91,false,0.1,ll,keypress(f),0,true,747728.1999998093,747727.899999857,738782.52,739008.7999999523,738799.105,747516.042,1,40,32,
sequence,flow.Sequence,8_31,2023-11-27T16:47:50.754Z,,,,,,,,,,,8928.794999856967,completion,,,,,,,high,high,,,,,,,false,,,,,true,747728.7999999523,747727.899999857,738782.52,739008.6999998093,738799.105,747516.042,1,40,,
trial,html.Screen,8_32_0,2023-11-27T16:48:00.376Z,,,,2,0.0348234368746005,-0.0236866303880924,,0.05,false,lh,9834.057999904617,response,-1.0164576835546473,0.7903854383886095,-1.107313736988381,0.8120626538423016,0.7493287857495057,-1.157313736988381,low,high,,ISIC_0011099.JPG,,ISIC_6002694.JPG,33,26,false,0.20000000000000007,hh,keypress(i),0,true,757350.1999998093,757350.0999999046,747499.479,747729,747516.042,757134.769,1,40,33,
sequence,flow.Sequence,8_32,2023-11-27T16:48:00.376Z,,,,,,,,,,,9834.057999904617,completion,,,,,,,low,high,,,,,,,false,,,,,true,757350.2999999523,757350.0999999046,747499.479,747729,747516.042,757134.769,1,40,,
trial,html.Screen,8_33_0,2023-11-27T16:48:08.728Z,,,,2,-0.0116094682222121,0.0258434522530318,,0.05,false,hl,8567.731000000029,response,0.7265003924540593,0.7903854383886095,-1.157313736988381,-1.3016394336708117,0.7493287857495057,-1.157313736988381,high,low,,ISIC_9239632.JPG,,ISIC_0027684.JPG,33,27,false,0.20000000000000007,lh,keypress(e),0,true,765702.5999999046,765702.5,757118.207,757350.399999857,757134.769,765484.367,1,40,34,
sequence,flow.Sequence,8_33,2023-11-27T16:48:08.728Z,,,,,,,,,,,8567.731000000029,completion,,,,,,,high,low,,,,,,,false,,,,,true,765702.899999857,765702.5,757118.207,757350.399999857,757134.769,765484.367,1,40,,
trial,html.Screen,8_34_0,2023-11-27T16:48:11.474Z,,,,2,0.0134764727102299,0.0033499036460912,,0.05,true,ll,2963.2329999046633,response,-1.1346217981791904,0.8403854383886096,-1.157313736988381,-1.1555132168806113,0.7493287857495057,-1.157313736988381,low,low,,ISIC_0009998.JPG,,ISIC_0032771.JPG,33,29,false,0.1,ll,keypress(f),0,true,768447.899999857,768447.5999999046,765467.833,765702.899999857,765484.367,768239.86,1,40,35,
sequence,flow.Sequence,8_34,2023-11-27T16:48:11.474Z,,,,,,,,,,,2963.2329999046633,completion,,,,,,,low,low,,,,,,,false,,,,,true,768448.5,768447.5999999046,765467.833,765702.899999857,765484.367,768239.86,1,40,,
trial,html.Screen,8_35_0,2023-11-27T16:48:20.170Z,,,,2,-0.0363437082783146,-0.0333332186217051,,0.05,false,ll,8904.039999856963,response,-1.1877026569952844,0.8403854383886096,-1.157313736988381,-1.1604367569896263,0.7493287857495057,-1.157313736988381,low,low,,ISIC_3314555.JPG,,ISIC_0064589.JPG,33,29,false,0.1,lh,keypress(e),0,true,777144.1999998093,777143.899999857,768223.224,768448.6999998093,768239.86,776940.064,1,40,36,
sequence,flow.Sequence,8_35,2023-11-27T16:48:20.170Z,,,,,,,,,,,8904.039999856963,completion,,,,,,,low,low,,,,,,,false,,,,,true,777144.6999998093,777143.899999857,768223.224,768448.6999998093,768239.86,776940.064,1,40,,
trial,html.Screen,8_36_0,2023-11-27T16:48:28.776Z,,,,2,0.0134764727102299,0.0033499036460912,,0.05,true,ll,8810.435999999987,response,-1.101346104814838,0.8403854383886096,-1.121607936937948,-1.1225813067473052,0.7493287857495057,-1.157313736988381,low,low,,ISIC_0009998.JPG,,ISIC_8175453.JPG,33,27,false,0.1,ll,keypress(f),0,true,785750.6999998093,785750.5,776923.215,777145,776940.064,785540.045,1,40,37,
sequence,flow.Sequence,8_36,2023-11-27T16:48:28.777Z,,,,,,,,,,,8810.435999999987,completion,,,,,,,low,low,,,,,,,false,,,,,true,785750.899999857,785750.5,776923.215,777144.899999857,776940.064,785540.045,1,40,,
trial,html.Screen,8_37_0,2023-11-27T16:48:35.546Z,,,,2,-0.0069555338059566,0.0310100918136373,,0.05,false,lh,6979.754999952274,response,-1.1953970903384905,0.8403854383886096,-1.121607936937948,0.6243079106459266,0.7493287857495057,-1.157313736988381,low,high,,ISIC_0011177.JPG,,ISIC_0056156.JPG,33,25,false,0.20000000000000007,hl,keypress(j),0,true,792520.1999998093,792519.7999999523,785523.327,785751,785540.045,792303.223,1,40,38,
sequence,flow.Sequence,8_37,2023-11-27T16:48:35.547Z,,,,,,,,,,,6979.754999952274,completion,,,,,,,low,high,,,,,,,false,,,,,true,792520.6999998093,792519.7999999523,785523.327,785751,785540.045,792303.223,1,40,,
trial,html.Screen,8_38_0,2023-11-27T16:48:46.306Z,,,,2,0.0409338693593207,-0.0072462710499874,,0.05,true,hh,10976.876999904634,response,0.8126460224857274,0.8403854383886096,-1.171607936937948,0.7321020347557476,0.7993287857495057,-1.157313736988381,high,high,,ISIC_3608788.JPG,,ISIC_8719134.JPG,33,53,false,0.1,hh,keypress(i),0,true,803280.399999857,803280.0999999046,792286.6,792520.899999857,792303.223,803074.245,1,40,39,
sequence,flow.Sequence,8_38,2023-11-27T16:48:46.307Z,,,,,,,,,,,10976.876999904634,completion,,,,,,,high,high,,,,,,,false,,,,,true,803281,803280.0999999046,792286.6,792520.899999857,792303.223,803074.245,1,40,,
trial,html.Screen,8_39_0,2023-11-27T16:48:50.312Z,,,,2,0.0051189696037511,-0.0396625911332438,,0.05,true,hh,4211.854999904637,response,0.7482428566195203,0.8403854383886096,-1.171607936937948,0.8686759438897503,0.7993287857495057,-1.157313736988381,high,high,,ISIC_9742891.JPG,,ISIC_4000087.JPG,33,53,false,0.1,hh,keypress(i),0,true,807286.1999998093,807286.0999999046,803057.661,803281.2999999523,803074.245,807082.012,1,40,40,
sequence,flow.Sequence,8_39,2023-11-27T16:48:50.312Z,,,,,,,,,,,4211.854999904637,completion,,,,,,,high,high,,,,,,,false,,,,,true,807286.399999857,807286.0999999046,803057.661,803281.1999998093,803074.245,807082.012,1,40,,
stair_loop,flow.Loop,8,2023-11-27T16:48:50.312Z,,,,,,,,,,,295027.65199990466,completion,,,,,,,,,,,,,,,false,,,,,true,807286.399999857,807286.0999999046,512224.739,512462.19999980927,512258.448,807082.012,1,40,,
exp_instructions,html.Screen,9,2023-11-27T16:49:09.578Z,,,,,,,,,,,19468.687999809277,response,,,,,,,,,,,,,,,,,continue,keypress(Space),,,826551.5,826550.6999998093,807065.403,807286.5,807082.012,826336.106,,,,
trial,html.Screen,10_0_0,2023-11-27T16:49:14.096Z,,,,1,-0.0107854985447517,-0.0478010417136109,,0.05,true,ll,4733.393999999971,response,-1.101214461533281,0.7744399296907993,-1.0643328134941128,-1.1849883512428183,0.7714382247716454,-1.1564739735041996,low,low,,ISIC_0010500.JPG,9,ISIC_0064943.JPG,33,26,false,0.1,ll,keypress(f),0,false,831069.5999999046,831069.5,826319.195,826551.899999857,826336.106,830861.611,5,600,1,
break,html.Screen,10_0_1,2023-11-27T16:49:14.096Z,,,,,,,,,,,NaN,,,,,,,,low,low,,,,,,,false,,,,,false,831070,831069.899999857,,831069.6999998093,,830861.611,5,600,,
break_continue,html.Screen,10_0_2,2023-11-27T16:49:14.096Z,,,,,,,,,,,NaN,,,,,,,,low,low,,,,,,,false,,,,,false,831070.2999999523,831070.0999999046,,831070.0999999046,,830861.611,5,600,,
sequence,flow.Sequence,10_0,2023-11-27T16:49:14.096Z,,,,,,,,,,,4733.993999904604,completion,,,,,,,low,low,,,,,,,false,,,,,false,831070.2999999523,831070.0999999046,826319.195,826551.7999999523,826336.106,830861.611,5,600,,
trial,html.Screen,10_1_0,2023-11-27T16:49:23.290Z,,,,1,0,0.0264544974620926,,0.05,true,hl,9402.188999952283,response,0.9579209317488,0.7744399296907993,-1.0643328134941128,-1.0147487101263497,0.7714382247716454,-1.1564739735041996,high,low,,ISIC_0056991.JPG,9,ISIC_8124482.JPG,33,25,false,0.19000000000000006,hl,keypress(j),0,false,840264.0999999046,840263.7999999523,830845.082,831070.399999857,830861.611,840046.241,5,600,2,
break,html.Screen,10_1_1,2023-11-27T16:49:23.292Z,,,,,,,,,,,NaN,,,,,,,,high,low,,,,,,,false,,,,,false,840265.6999998093,840265.0999999046,,840264.5999999046,,840046.241,5,600,,
break_continue,html.Screen,10_1_2,2023-11-27T16:49:23.293Z,,,,,,,,,,,NaN,,,,,,,,high,low,,,,,,,false,,,,,false,840266.899999857,840266.5999999046,,840266.0999999046,,840046.241,5,600,,
sequence,flow.Sequence,10_1,2023-11-27T16:49:23.293Z,,,,,,,,,,,9404.988999904599,completion,,,,,,,high,low,,,,,,,false,,,,,false,840267.2999999523,840266.5999999046,830845.082,831070.399999857,830861.611,840046.241,5,600,,
trial,html.Screen,10_2_0,2023-11-27T16:49:32.330Z,,,,1,-0.0069555338059566,0.0310100918136373,,0.05,true,ll,9257.358999904594,response,-1.101346104814838,0.7744399296907993,-1.0643328134941128,-1.1225813067473052,0.7714382247716454,-1.1564739735041996,low,low,,ISIC_0011177.JPG,9,ISIC_8175453.JPG,33,26,false,0.1,ll,keypress(f),0,false,849303.899999857,849303.5999999046,840029.394,840267.5,840046.241,849097.106,5,600,3,
break,html.Screen,10_2_1,2023-11-27T16:49:32.331Z,,,,,,,,,,,NaN,,,,,,,,low,low,,,,,,,false,,,,,false,849305.1999998093,849304.899999857,,849304.2999999523,,849097.106,5,600,,
break_continue,html.Screen,10_2_2,2023-11-27T16:49:32.332Z,,,,,,,,,,,NaN,,,,,,,,low,low,,,,,,,false,,,,,false,849306,849305.6999998093,,849305.5,,849097.106,5,600,,
sequence,flow.Sequence,10_2,2023-11-27T16:49:32.332Z,,,,,,,,,,,9259.458999809227,completion,,,,,,,low,low,,,,,,,false,,,,,false,849306.2999999523,849305.6999998093,840029.394,840267.5,840046.241,849097.106,5,600,,
trial,html.Screen,10_3_0,2023-11-27T16:49:43.731Z,,,,1,-0.0107854985447517,-0.0478010417136109,,0.05,true,lh,11606.693999952287,response,-0.9238778505223862,0.7744399296907993,-1.0643328134941128,0.6879166947304511,0.7714382247716454,-1.1564739735041996,low,high,,ISIC_0010500.JPG,9,ISIC_0028291.JPG,33,28,false,0.19000000000000006,lh,keypress(e),0,false,860704.1999998093,860703.7999999523,849080.54,849306.5,849097.106,860486.017,5,600,4,
break,html.Screen,10_3_1,2023-11-27T16:49:43.732Z,,,,,,,,,,,NaN,,,,,,,,low,high,,,,,,,false,,,,,false,860705.5,860705.0999999046,,860704.5999999046,,860486.017,5,600,,
break_continue,html.Screen,10_3_2,2023-11-27T16:49:43.733Z,,,,,,,,,,,NaN,,,,,,,,low,high,,,,,,,false,,,,,false,860706.1999998093,860705.899999857,,860705.5999999046,,860486.017,5,600,,
sequence,flow.Sequence,10_3,2023-11-27T16:49:43.733Z,,,,,,,,,,,11608.79399985692,completion,,,,,,,low,high,,,,,,,false,,,,,false,860706.399999857,860705.899999857,849080.54,849306.399999857,849097.106,860486.017,5,600,,
trial,html.Screen,10_4_0,2023-11-27T16:49:47.547Z,,,,1,-0.007397293189458,-0.0174716772037504,,0.05,false,lh,4033.8829998569563,response,-1.129574242324536,0.7744399296907993,-1.0643328134941128,0.613782231426747,0.7714382247716454,-1.1564739735041996,low,high,,ISIC_0056226.JPG,9,ISIC_0069210.JPG,33,28,false,0.19000000000000006,ll,keypress(f),0,false,864520.1999998093,864519.899999857,860469.43,860706.6999998093,860486.017,864310.065,5,600,5,
break,html.Screen,10_4_1,2023-11-27T16:49:47.548Z,,,,,,,,,,,NaN,,,,,,,,low,high,,,,,,,false,,,,,false,864521.5,864521.1999998093,,864520.5999999046,,864310.065,5,600,,
break_continue,html.Screen,10_4_2,2023-11-27T16:49:47.549Z,,,,,,,,,,,NaN,,,,,,,,low,high,,,,,,,false,,,,,false,864522.2999999523,864522,,864521.7999999523,,864310.065,5,600,,
sequence,flow.Sequence,10_4,2023-11-27T16:49:47.549Z,,,,,,,,,,,4035.9830000000075,completion,,,,,,,low,high,,,,,,,false,,,,,false,864522.6999998093,864522,860469.43,860706.5999999046,860486.017,864310.065,5,600,,
trial,html.Screen,10_5_0,2023-11-27T16:49:52.698Z,,,,1,0.0277178575053843,-0.0395587463147856,,0.05,false,hl,5361.534999904688,response,0.8487429103619056,0.7744399296907993,-1.0643328134941128,-0.9778257804233036,0.7714382247716454,-1.1564739735041996,high,low,,ISIC_0010807.JPG,9,ISIC_4554863.JPG,33,25,false,0.19000000000000006,hh,keypress(i),0,false,869671.899999857,869671.5999999046,864293.4,864523,864310.065,869453.455,5,600,6,
break,html.Screen,10_5_1,2023-11-27T16:49:52.700Z,,,,,,,,,,,NaN,,,,,,,,high,low,,,,,,,false,,,,,false,869673.2999999523,869672.899999857,,869672.399999857,,869453.455,5,600,,
break_continue,html.Screen,10_5_2,2023-11-27T16:49:52.700Z,,,,,,,,,,,NaN,,,,,,,,high,low,,,,,,,false,,,,,false,869674.0999999046,869673.7999999523,,869673.5,,869453.455,5,600,,
sequence,flow.Sequence,10_5,2023-11-27T16:49:52.701Z,,,,,,,,,,,5363.734999952372,completion,,,,,,,high,low,,,,,,,false,,,,,false,869674.399999857,869673.7999999523,864293.4,864522.7999999523,864310.065,869453.455,5,600,,
trial,html.Screen,10_6_0,2023-11-27T16:50:03.994Z,,,,1,0.0051189696037511,-0.0396625911332438,,0.05,false,hl,11513.545000000042,response,0.7836356408583546,0.7744399296907993,-1.0643328134941128,-1.1197925594706428,0.7714382247716454,-1.1564739735041996,high,low,,ISIC_9742891.JPG,8,ISIC_0024961.JPG,33,25,false,0.19000000000000006,hh,keypress(i),0,false,880967.1999998093,880967,869436.775,869674.5999999046,869453.455,880758.798,5,600,7,
break,html.Screen,10_6_1,2023-11-27T16:50:03.994Z,,,,,,,,,,,NaN,,,,,,,,high,low,,,,,,,false,,,,,false,880968,880967.6999998093,,880967.399999857,,880758.798,5,600,,
break_continue,html.Screen,10_6_2,2023-11-27T16:50:03.995Z,,,,,,,,,,,NaN,,,,,,,,high,low,,,,,,,false,,,,,false,880968.399999857,880968.1999998093,,880968.0999999046,,880758.798,5,600,,
sequence,flow.Sequence,10_6,2023-11-27T16:50:03.995Z,,,,,,,,,,,11514.744999809307,completion,,,,,,,high,low,,,,,,,false,,,,,false,880968.5999999046,880968.1999998093,869436.775,869674.5999999046,869453.455,880758.798,5,600,,
trial,html.Screen,10_7_0,2023-11-27T16:50:12.419Z,,,,1,-0.0456515796420274,0.0273567130070961,,0.05,false,ll,8632.901999809314,response,-1.1346217981791904,0.7744399296907993,-1.0643328134941128,-1.1555132168806113,0.7714382247716454,-1.1564739735041996,low,low,,ISIC_0068610.JPG,9,ISIC_0032771.JPG,33,26,false,0.1,hl,keypress(j),0,false,889392.0999999046,889391.6999998093,880742.054,880968.5999999046,880758.798,889175.157,5,600,8,
break,html.Screen,10_7_1,2023-11-27T16:50:12.420Z,,,,,,,,,,,NaN,,,,,,,,low,low,,,,,,,false,,,,,false,889393.2999999523,889393.0999999046,,889392.5,,889175.157,5,600,,
break_continue,html.Screen,10_7_2,2023-11-27T16:50:12.421Z,,,,,,,,,,,NaN,,,,,,,,low,low,,,,,,,false,,,,,false,889394.0999999046,889393.899999857,,889393.5999999046,,889175.157,5,600,,
sequence,flow.Sequence,10_7,2023-11-27T16:50:12.421Z,,,,,,,,,,,8635.101999856997,completion,,,,,,,low,low,,,,,,,false,,,,,false,889394.5,889393.899999857,880742.054,880968.5999999046,880758.798,889175.157,5,600,,
trial,html.Screen,10_8_0,2023-11-27T16:50:20.851Z,,,,1,0,0.0264544974620926,,0.05,false,ll,8648.842999999993,response,-1.0525532302758762,0.7744399296907993,-1.0643328134941128,-1.1628982512509805,0.7714382247716454,-1.1564739735041996,low,low,,ISIC_0056991.JPG,9,ISIC_0033428.JPG,33,26,false,0.1,lh,keypress(e),0,false,897824.399999857,897824,889158.562,889394.6999998093,889175.157,897608.21,5,600,9,
break,html.Screen,10_8_1,2023-11-27T16:50:20.852Z,,,,,,,,,,,NaN,,,,,,,,low,low,,,,,,,false,,,,,false,897825.7999999523,897825.2999999523,,897824.899999857,,897608.21,5,600,,
break_continue,html.Screen,10_8_2,2023-11-27T16:50:20.853Z,,,,,,,,,,,NaN,,,,,,,,low,low,,,,,,,false,,,,,false,897826.5999999046,897826.2999999523,,897826.0999999046,,897608.21,5,600,,
sequence,flow.Sequence,10_8,2023-11-27T16:50:20.853Z,,,,,,,,,,,8651.14299995231,completion,,,,,,,low,low,,,,,,,false,,,,,false,897826.899999857,897826.2999999523,889158.562,889394.6999998093,889175.157,897608.21,5,600,,
trial,html.Screen,10_9_0,2023-11-27T16:50:32.907Z,,,,1,-0.0069555338059566,0.0310100918136373,,0.05,false,lh,12271.790000000037,response,-1.0748728054622358,0.7744399296907993,-1.0643328134941128,0.6883893701485907,0.7714382247716454,-1.1564739735041996,low,high,,ISIC_0011177.JPG,9,ISIC_0059219.JPG,33,28,false,0.19000000000000006,hl,keypress(j),0,false,909880.399999857,909880,897591.69,897827.1999998093,897608.21,909664.999,5,600,10,
break,html.Screen,10_9_1,2023-11-27T16:50:32.908Z,,,,,,,,,,,NaN,,,,,,,,low,high,,,,,,,false,,,,,false,909881.5999999046,909881.2999999523,,909880.7999999523,,909664.999,5,600,,
break_continue,html.Screen,10_9_2,2023-11-27T16:50:32.909Z,,,,,,,,,,,NaN,,,,,,,,low,high,,,,,,,false,,,,,false,909882.399999857,909882.0999999046,,909881.7999999523,,909664.999,5,600,,
sequence,flow.Sequence,10_9,2023-11-27T16:50:32.909Z,,,,,,,,,,,12273.88999990467,completion,,,,,,,low,high,,,,,,,false,,,,,false,909882.7999999523,909882.0999999046,897591.69,897827.0999999046,897608.21,909664.999,5,600,,
trial,html.Screen,10_10_0,2023-11-27T16:50:39.419Z,,,,1,-0.0070725527271049,-0.0049995141077508,,0.05,false,lh,6726.5010000000475,response,-0.8816288864119318,0.7744399296907993,-1.0643328134941128,0.801867301188093,0.7714382247716454,-1.1564739735041996,low,high,,ISIC_6124481.JPG,10,ISIC_9196783.JPG,33,28,false,0.19000000000000006,ll,keypress(f),0,false,916392,916391.5,909648.497,909883,909664.999,916177.678,5,600,11,
break,html.Screen,10_10_1,2023-11-27T16:50:39.420Z,,,,,,,,,,,NaN,,,,,,,,low,high,,,,,,,false,,,,,false,916393.0999999046,916392.7999999523,,916392.2999999523,,916177.678,5,600,,
break_continue,html.Screen,10_10_2,2023-11-27T16:50:39.421Z,,,,,,,,,,,NaN,,,,,,,,low,high,,,,,,,false,,,,,false,916393.7999999523,916393.6999998093,,916393.2999999523,,916177.678,5,600,,
sequence,flow.Sequence,10_10,2023-11-27T16:50:39.421Z,,,,,,,,,,,6728.700999809313,completion,,,,,,,low,high,,,,,,,false,,,,,false,916394.1999998093,916393.6999998093,909648.497,909882.899999857,909664.999,916177.678,5,600,,
trial,html.Screen,10_11_0,2023-11-27T16:50:45.258Z,,,,1,-0.0027483411352856,-0.0100996915276271,,0.05,true,hh,6053.12199995236,response,0.845289166520367,0.7744399296907993,-1.0643328134941128,0.6805870888087044,0.7714382247716454,-1.1564739735041996,high,high,,ISIC_7364041.JPG,9,ISIC_0070383.JPG,33,68,false,0.1,hh,keypress(i),0,false,922231,922230.7999999523,916161.066,916394.5,916177.678,922022.386,5,600,12,
break,html.Screen,10_11_1,2023-11-27T16:50:45.258Z,,,,,,,,,,,NaN,,,,,,,,high,high,,,,,,,false,,,,,false,922231.6999998093,922231.5999999046,,922231.2999999523,,922022.386,5,600,,
break_continue,html.Screen,10_11_2,2023-11-27T16:50:45.259Z,,,,,,,,,,,NaN,,,,,,,,high,high,,,,,,,false,,,,,false,922232,922231.899999857,,922231.7999999523,,922022.386,5,600,,
sequence,flow.Sequence,10_11,2023-11-27T16:50:45.259Z,,,,,,,,,,,6054.221999856993,completion,,,,,,,high,high,,,,,,,false,,,,,false,922232.1999998093,922231.899999857,916161.066,916394.399999857,916177.678,922022.386,5,600,,
trial,html.Screen,10_12_0,2023-11-27T16:50:51.659Z,,,,1,0.0159061451859594,0.0296598845560212,,0.05,true,ll,6609.613999999943,response,-1.1253220985777015,0.7744399296907993,-1.0643328134941128,-1.108725659461368,0.7714382247716454,-1.1564739735041996,low,low,,ISIC_0072564.JPG,9,ISIC_0054954.JPG,33,26,false,0.1,ll,keypress(f),0,false,928632.399999857,928632,922005.799,922232.399999857,922022.386,928418.173,5,600,13,
break,html.Screen,10_12_1,2023-11-27T16:50:51.661Z,,,,,,,,,,,NaN,,,,,,,,low,low,,,,,,,false,,,,,false,928633.7999999523,928633.399999857,,928632.899999857,,928418.173,5,600,,
break_continue,html.Screen,10_12_2,2023-11-27T16:50:51.661Z,,,,,,,,,,,NaN,,,,,,,,low,low,,,,,,,false,,,,,false,928634.399999857,928634.1999998093,,928634,,928418.173,5,600,,
sequence,flow.Sequence,10_12,2023-11-27T16:50:51.662Z,,,,,,,,,,,6611.813999809208,completion,,,,,,,low,low,,,,,,,false,,,,,false,928634.7999999523,928634.1999998093,922005.799,922232.2999999523,922022.386,928418.173,5,600,,
trial,html.Screen,10_13_0,2023-11-27T16:50:58.363Z,,,,1,0.0102460616775615,-0.0309670599545429,,0.05,true,lh,6917.926999904681,response,-1.1338210094314218,0.7744399296907993,-1.0643328134941128,0.5906485710437454,0.7714382247716454,-1.1564739735041996,low,high,,ISIC_0072041.JPG,10,ISIC_0046571.JPG,33,28,false,0.19000000000000006,lh,keypress(e),0,false,935336.399999857,935336.0999999046,928401.693,928635.0999999046,928418.173,935131.209,5,600,14,
break,html.Screen,10_13_1,2023-11-27T16:50:58.365Z,,,,,,,,,,,NaN,,,,,,,,low,high,,,,,,,false,,,,,false,935337.6999998093,935337.2999999523,,935336.899999857,,935131.209,5,600,,
break_continue,html.Screen,10_13_2,2023-11-27T16:50:58.365Z,,,,,,,,,,,NaN,,,,,,,,low,high,,,,,,,false,,,,,false,935338.5,935338.2999999523,,935338,,935131.209,5,600,,
sequence,flow.Sequence,10_13,2023-11-27T16:50:58.366Z,,,,,,,,,,,6920.126999952365,completion,,,,,,,low,high,,,,,,,false,,,,,false,935338.899999857,935338.2999999523,928401.693,928635,928418.173,935131.209,5,600,,
trial,html.Screen,10_14_0,2023-11-27T16:51:09.641Z,,,,1,0.0188047466661863,-0.0288346930436979,,0.05,true,ll,11483.190999856917,response,-0.9787884514439864,0.7744399296907993,-1.0643328134941128,-1.139528725910855,0.7714382247716454,-1.1564739735041996,low,low,,ISIC_0014157.JPG,8,ISIC_0032726.JPG,33,26,false,0.1,ll,keypress(f),0,false,946614.5,946614.399999857,935114.772,935339.1999998093,935131.209,946403.175,5,600,15,
break,html.Screen,10_14_1,2023-11-27T16:51:09.642Z,,,,,,,,,,,NaN,,,,,,,,low,low,,,,,,,false,,,,,false,946614.7999999523,946614.7999999523,,946614.6999998093,,946403.175,5,600,,
break_continue,html.Screen,10_14_2,2023-11-27T16:51:09.642Z,,,,,,,,,,,NaN,,,,,,,,low,low,,,,,,,false,,,,,false,946615,946615,,946614.899999857,,946403.175,5,600,,
sequence,flow.Sequence,10_14,2023-11-27T16:51:09.642Z,,,,,,,,,,,11483.790999999968,completion,,,,,,,low,low,,,,,,,false,,,,,false,946615.0999999046,946615,935114.772,935339.0999999046,935131.209,946403.175,5,600,,
trial,html.Screen,10_15_0,2023-11-27T16:51:17.387Z,,,,1,0.0097091270150747,-0.0417921315885292,,0.05,true,lh,7956.524999809219,response,-1.073191619565092,0.7744399296907993,-1.0643328134941128,0.6195550709150465,0.7714382247716454,-1.1564739735041996,low,high,,ISIC_3967213.JPG,9,ISIC_9386509.JPG,33,28,false,0.19000000000000006,lh,keypress(e),0,false,954360.1999998093,954359.6999998093,946386.629,946615.1999998093,946403.175,954151.599,5,600,16,
break,html.Screen,10_15_1,2023-11-27T16:51:17.388Z,,,,,,,,,,,NaN,,,,,,,,low,high,,,,,,,false,,,,,false,954361.399999857,954361.1999998093,,954360.5999999046,,954151.599,5,600,,
break_continue,html.Screen,10_15_2,2023-11-27T16:51:17.389Z,,,,,,,,,,,NaN,,,,,,,,low,high,,,,,,,false,,,,,false,954362.1999998093,954361.899999857,,954361.6999998093,,954151.599,5,600,,
sequence,flow.Sequence,10_15,2023-11-27T16:51:17.389Z,,,,,,,,,,,7958.724999856902,completion,,,,,,,low,high,,,,,,,false,,,,,false,954362.5,954361.899999857,946386.629,946615.1999998093,946403.175,954151.599,5,600,,
trial,html.Screen,10_16_0,2023-11-27T16:51:26.242Z,,,,1,0.0134764727102299,0.0033499036460912,,0.05,false,ll,9063.10099980922,response,-1.0351900568634125,0.7744399296907993,-1.0643328134941128,-1.060448537312289,0.7714382247716454,-1.1564739735041996,low,low,,ISIC_0009998.JPG,9,ISIC_4377208.JPG,33,26,false,0.1,lh,keypress(e),0,false,963214.899999857,963214.6999998093,954135.063,954362.7999999523,954151.599,963002.162,5,600,17,
break,html.Screen,10_16_1,2023-11-27T16:51:26.242Z,,,,,,,,,,,NaN,,,,,,,,low,low,,,,,,,false,,,,,false,963215.1999998093,963215.1999998093,,963215,,963002.162,5,600,,
break_continue,html.Screen,10_16_2,2023-11-27T16:51:26.242Z,,,,,,,,,,,NaN,,,,,,,,low,low,,,,,,,false,,,,,false,963215.5,963215.399999857,,963215.1999998093,,963002.162,5,600,,
sequence,flow.Sequence,10_16,2023-11-27T16:51:26.242Z,,,,,,,,,,,9063.800999856903,completion,,,,,,,low,low,,,,,,,false,,,,,false,963215.5,963215.399999857,954135.063,954362.5999999046,954151.599,963002.162,5,600,,
trial,html.Screen,10_17_0,2023-11-27T16:51:31.819Z,,,,1,-0.0363437082783146,-0.0333332186217051,,0.05,false,lh,5789.437999904621,response,-0.887838744955182,0.7744399296907993,-1.0643328134941128,0.7545096650863988,0.7714382247716454,-1.1564739735041996,low,high,,ISIC_3314555.JPG,9,ISIC_1488727.JPG,33,28,false,0.19000000000000006,hh,keypress(i),0,false,968792,968791.5999999046,962985.422,963215.5999999046,963002.162,968579.693,5,600,18,
break,html.Screen,10_17_1,2023-11-27T16:51:31.820Z,,,,,,,,,,,NaN,,,,,,,,low,high,,,,,,,false,,,,,false,968793.1999998093,968792.7999999523,,968792.2999999523,,968579.693,5,600,,
break_continue,html.Screen,10_17_2,2023-11-27T16:51:31.821Z,,,,,,,,,,,NaN,,,,,,,,low,high,,,,,,,false,,,,,false,968794,968793.6999998093,,968793.399999857,,968579.693,5,600,,
sequence,flow.Sequence,10_17,2023-11-27T16:51:31.821Z,,,,,,,,,,,5791.537999809254,completion,,,,,,,low,high,,,,,,,false,,,,,false,968794.2999999523,968793.6999998093,962985.422,963215.5999999046,963002.162,968579.693,5,600,,
trial,html.Screen,10_18_0,2023-11-27T16:51:36.282Z,,,,1,-0.0363437082783146,-0.0333332186217051,,0.05,true,hh,4674.706999856979,response,0.8365217666968449,0.7744399296907993,-1.0643328134941128,0.6770731947610622,0.7714382247716454,-1.1564739735041996,high,high,,ISIC_3314555.JPG,10,ISIC_7648726.JPG,33,68,false,0.1,hh,keypress(i),0,false,973254.5,973254.399999857,968563.181,968794.5,968579.693,973038.368,5,600,19,
break,html.Screen,10_18_1,2023-11-27T16:51:36.282Z,,,,,,,,,,,NaN,,,,,,,,high,high,,,,,,,false,,,,,false,973254.899999857,973254.6999998093,,973254.6999998093,,973038.368,5,600,,
break_continue,html.Screen,10_18_2,2023-11-27T16:51:36.282Z,,,,,,,,,,,NaN,,,,,,,,high,high,,,,,,,false,,,,,false,973255.0999999046,973255,,973254.899999857,,973038.368,5,600,,
sequence,flow.Sequence,10_18,2023-11-27T16:51:36.282Z,,,,,,,,,,,4675.30700000003,completion,,,,,,,high,high,,,,,,,false,,,,,false,973255.0999999046,973255,968563.181,968794.5,968579.693,973038.368,5,600,,
trial,html.Screen,10_19_0,2023-11-27T16:51:50.962Z,,,,1,0.0113873532168551,0.0054999201556291,,0.05,true,hl,14896.231999904616,response,0.7622914383475332,0.7744399296907993,-1.0643328134941128,-1.2637655821850098,0.7714382247716454,-1.1564739735041996,high,low,,ISIC_8812621.JPG,9,ISIC_0032005.JPG,33,25,false,0.19000000000000006,hl,keypress(j),0,false,987934.7999999523,987934.5999999046,973021.666,973255.1999998093,973038.368,987716.928,5,600,20,
break,html.Screen,10_19_1,2023-11-27T16:51:50.962Z,,,,,,,,,,,NaN,,,,,,,,high,low,,,,,,,false,,,,,false,987935,987935,,987934.7999999523,,987716.928,5,600,,
break_continue,html.Screen,10_19_2,2023-11-27T16:51:50.963Z,,,,,,,,,,,NaN,,,,,,,,high,low,,,,,,,false,,,,,false,987935.1999998093,987935.1999998093,,987935.1999998093,,987716.928,5,600,,
sequence,flow.Sequence,10_19,2023-11-27T16:51:50.963Z,,,,,,,,,,,14896.831999809248,completion,,,,,,,high,low,,,,,,,false,,,,,false,987935.2999999523,987935.1999998093,973021.666,973255.1999998093,973038.368,987716.928,5,600,,
trial,html.Screen,10_20_0,2023-11-27T16:51:57.266Z,,,,1,0.0134764727102299,0.0033499036460912,,0.05,true,ll,6521.37199995236,response,-1.0387488172228707,0.7744399296907993,-1.0643328134941128,-1.186629690487006,0.7714382247716454,-1.1564739735041996,low,low,,ISIC_0009998.JPG,9,ISIC_0015390.JPG,33,26,false,0.1,ll,keypress(f),0,false,994238.2999999523,994238.2999999523,987700.435,987935.399999857,987716.928,994029.204,5,600,21,
break,html.Screen,10_20_1,2023-11-27T16:51:57.266Z,,,,,,,,,,,NaN,,,,,,,,low,low,,,,,,,false,,,,,false,994238.6999998093,994238.5999999046,,994238.5,,994029.204,5,600,,
break_continue,html.Screen,10_20_2,2023-11-27T16:51:57.266Z,,,,,,,,,,,NaN,,,,,,,,low,low,,,,,,,false,,,,,false,994239,994238.899999857,,994238.7999999523,,994029.204,5,600,,
sequence,flow.Sequence,10_20,2023-11-27T16:51:57.266Z,,,,,,,,,,,6521.971999856993,completion,,,,,,,low,low,,,,,,,false,,,,,false,994239,994238.899999857,987700.435,987935.399999857,987716.928,994029.204,5,600,,
trial,html.Screen,10_21_0,2023-11-27T16:52:03.986Z,,,,1,-0.0450282431170921,0,,0.05,false,hl,6929.295999999973,response,0.5946266402670454,0.7744399296907993,-1.0643328134941128,-1.0906221698932466,0.7714382247716454,-1.1564739735041996,high,low,,ISIC_1805163.JPG,10,ISIC_0000072.JPG,33,25,false,0.19000000000000006,hh,keypress(i),0,false,1000958.6999998093,1000958.5,994012.637,994239.0999999046,994029.204,1000742.282,5,600,22,
break,html.Screen,10_21_1,2023-11-27T16:52:03.986Z,,,,,,,,,,,NaN,,,,,,,,high,low,,,,,,,false,,,,,false,1000959,1000959,,1000958.7999999523,,1000742.282,5,600,,
break_continue,html.Screen,10_21_2,2023-11-27T16:52:03.987Z,,,,,,,,,,,NaN,,,,,,,,high,low,,,,,,,false,,,,,false,1000959.2999999523,1000959.1999998093,,1000959.0999999046,,1000742.282,5,600,,
sequence,flow.Sequence,10_21,2023-11-27T16:52:03.987Z,,,,,,,,,,,6929.995999809238,completion,,,,,,,high,low,,,,,,,false,,,,,false,1000959.2999999523,1000959.1999998093,994012.637,994239.0999999046,994029.204,1000742.282,5,600,,
trial,html.Screen,10_22_0,2023-11-27T16:52:09.867Z,,,,1,-0.0450282431170921,0,,0.05,false,hl,6097.417999809259,response,0.5946266402670454,0.7744399296907993,-1.0643328134941128,-1.0906221698932466,0.7714382247716454,-1.1564739735041996,high,low,,ISIC_1805163.JPG,8,ISIC_0000072.JPG,33,25,false,0.19000000000000006,hh,keypress(i),0,false,1006840,1006839.6999998093,1000725.799,1000959.399999857,1000742.282,1006638.502,5,600,23,
break,html.Screen,10_22_1,2023-11-27T16:52:09.869Z,,,,,,,,,,,NaN,,,,,,,,high,low,,,,,,,false,,,,,false,1006841.1999998093,1006841,,1006840.399999857,,1006638.502,5,600,,
break_continue,html.Screen,10_22_2,2023-11-27T16:52:09.869Z,,,,,,,,,,,NaN,,,,,,,,high,low,,,,,,,false,,,,,false,1006842,1006841.7999999523,,1006841.5999999046,,1006638.502,5,600,,
sequence,flow.Sequence,10_22,2023-11-27T16:52:09.870Z,,,,,,,,,,,6099.51799995231,completion,,,,,,,high,low,,,,,,,false,,,,,false,1006842.399999857,1006841.7999999523,1000725.799,1000959.2999999523,1000742.282,1006638.502,5,600,,
trial,html.Screen,10_23_0,2023-11-27T16:52:19.092Z,,,,1,-0.0050679133050021,0.0009714874637896,,0.05,false,lh,9425.597999904654,response,-0.949907353050839,0.7744399296907993,-1.0643328134941128,0.6190748068479168,0.7714382247716454,-1.1564739735041996,low,high,,ISIC_9848743.JPG,9,ISIC_7059794.JPG,33,28,false,0.19000000000000006,hl,keypress(j),0,false,1016064.5,1016064.0999999046,1006603.763,1006842.5999999046,1006638.502,1015855.019,5,600,24,
break,html.Screen,10_23_1,2023-11-27T16:52:19.093Z,,,,,,,,,,,NaN,,,,,,,,low,high,,,,,,,false,,,,,false,1016065.5999999046,1016065.2999999523,,1016064.899999857,,1015855.019,5,600,,
break_continue,html.Screen,10_23_2,2023-11-27T16:52:19.094Z,,,,,,,,,,,NaN,,,,,,,,low,high,,,,,,,false,,,,,false,1016066.399999857,1016066.1999998093,,1016065.899999857,,1015855.019,5,600,,
sequence,flow.Sequence,10_23,2023-11-27T16:52:19.094Z,,,,,,,,,,,9427.697999809287,completion,,,,,,,low,high,,,,,,,false,,,,,false,1016066.5999999046,1016066.1999998093,1006603.763,1006842.5999999046,1006638.502,1015855.019,5,600,,
trial,html.Screen,10_24_0,2023-11-27T16:52:22.563Z,,,,1,-0.0217698886732706,0.0410870915161425,,0.05,true,ll,3680.780999952345,response,-1.042261683252976,0.7744399296907993,-1.0643328134941128,-1.2304407834713986,0.7714382247716454,-1.1564739735041996,low,low,,ISIC_0072173.JPG,9,ISIC_0011870.JPG,33,26,false,0.1,ll,keypress(f),0,false,1019536.0999999046,1019535.7999999523,1015838.535,1016066.7999999523,1015855.019,1019328.457,5,600,25,
break,html.Screen,10_24_1,2023-11-27T16:52:22.565Z,,,,,,,,,,,NaN,,,,,,,,low,low,,,,,,,false,,,,,false,1019537.1999998093,1019536.899999857,,1019536.5,,1019328.457,5,600,,
break_continue,html.Screen,10_24_2,2023-11-27T16:52:22.565Z,,,,,,,,,,,NaN,,,,,,,,low,low,,,,,,,false,,,,,false,1019538,1019537.7999999523,,1019537.5,,1019328.457,5,600,,
sequence,flow.Sequence,10_24,2023-11-27T16:52:22.566Z,,,,,,,,,,,3682.780999952345,completion,,,,,,,low,low,,,,,,,false,,,,,false,1019538.2999999523,1019537.7999999523,1015838.535,1016066.6999998093,1015855.019,1019328.457,5,600,,
trial,html.Screen,10_25_0,2023-11-27T16:52:26.299Z,,,,1,-0.0050679133050021,0.0009714874637896,,0.05,false,hl,3943.342999952263,response,0.7083588209645494,0.7744399296907993,-1.0643328134941128,-1.1496804492673935,0.7714382247716454,-1.1564739735041996,high,low,,ISIC_9848743.JPG,9,ISIC_0047004.JPG,33,25,false,0.19000000000000006,hh,keypress(i),0,false,1023272.1999998093,1023271.7999999523,1019311.715,1019538.5,1019328.457,1023069.659,5,600,26,
break,html.Screen,10_25_1,2023-11-27T16:52:26.301Z,,,,,,,,,,,NaN,,,,,,,,high,low,,,,,,,false,,,,,false,1023273.399999857,1023273.0999999046,,1023272.6999998093,,1023069.659,5,600,,
break_continue,html.Screen,10_25_2,2023-11-27T16:52:26.301Z,,,,,,,,,,,NaN,,,,,,,,high,low,,,,,,,false,,,,,false,1023274.0999999046,1023273.899999857,,1023273.5999999046,,1023069.659,5,600,,
sequence,flow.Sequence,10_25,2023-11-27T16:52:26.302Z,,,,,,,,,,,3945.4429998568958,completion,,,,,,,high,low,,,,,,,false,,,,,false,1023274.5,1023273.899999857,1019311.715,1019538.399999857,1019328.457,1023069.659,5,600,,
trial,html.Screen,10_26_0,2023-11-27T16:52:35.908Z,,,,1,-0.0217698886732706,0.0410870915161425,,0.05,true,lh,9810.440999904647,response,-1.031415631053946,0.7744399296907993,-1.0643328134941128,0.6661096126601223,0.7714382247716454,-1.1564739735041996,low,high,,ISIC_0072173.JPG,9,ISIC_8976269.JPG,33,28,false,0.19000000000000006,lh,keypress(e),0,false,1032880.399999857,1032880.0999999046,1023035.837,1023274.6999998093,1023069.659,1032671.084,5,600,27,
break,html.Screen,10_26_1,2023-11-27T16:52:35.909Z,,,,,,,,,,,NaN,,,,,,,,low,high,,,,,,,false,,,,,false,1032881.5999999046,1032881.1999998093,,1032880.7999999523,,1032671.084,5,600,,
break_continue,html.Screen,10_26_2,2023-11-27T16:52:35.910Z,,,,,,,,,,,NaN,,,,,,,,low,high,,,,,,,false,,,,,false,1032882.2999999523,1032882.1999998093,,1032881.7999999523,,1032671.084,5,600,,
sequence,flow.Sequence,10_26,2023-11-27T16:52:35.910Z,,,,,,,,,,,9812.54099980928,completion,,,,,,,low,high,,,,,,,false,,,,,false,1032882.6999998093,1032882.1999998093,1023035.837,1023274.5999999046,1023069.659,1032671.084,5,600,,
trial,html.Screen,10_27_0,2023-11-27T16:52:43.972Z,,,,1,0.0245376145053177,-0.0436993426328401,,0.05,false,ll,8272.715999952285,response,-1.1253220985777015,0.7744399296907993,-1.0643328134941128,-1.108725659461368,0.7714382247716454,-1.1564739735041996,low,low,,ISIC_0056444.JPG,8,ISIC_0054954.JPG,33,26,false,0.1,hh,keypress(i),0,false,1040944.0999999046,1040943.7999999523,1032654.635,1032882.899999857,1032671.084,1040736.798,5,600,28,
break,html.Screen,10_27_1,2023-11-27T16:52:43.973Z,,,,,,,,,,,NaN,,,,,,,,low,low,,,,,,,false,,,,,false,1040945.1999998093,1040944.899999857,,1040944.5,,1040736.798,5,600,,
break_continue,html.Screen,10_27_2,2023-11-27T16:52:43.974Z,,,,,,,,,,,NaN,,,,,,,,low,low,,,,,,,false,,,,,false,1040946.1999998093,1040945.5999999046,,1040945.2999999523,,1040736.798,5,600,,
sequence,flow.Sequence,10_27,2023-11-27T16:52:43.974Z,,,,,,,,,,,8274.5159999046,completion,,,,,,,low,low,,,,,,,false,,,,,false,1040946.5,1040945.5999999046,1032654.635,1032882.899999857,1032671.084,1040736.798,5,600,,
trial,html.Screen,10_28_0,2023-11-27T16:52:55.020Z,,,,1,-0.0027483411352856,-0.0100996915276271,,0.05,false,lh,11255.202000000048,response,-1.0469352660493296,0.7744399296907993,-1.0643328134941128,0.6175070748933676,0.7714382247716454,-1.1564739735041996,low,high,,ISIC_7364041.JPG,10,ISIC_1988335.JPG,33,28,false,0.19000000000000006,hh,keypress(i),0,false,1051992.399999857,1051992,1040720.144,1040946.6999998093,1040736.798,1051775.032,5,600,29,
break,html.Screen,10_28_1,2023-11-27T16:52:55.021Z,,,,,,,,,,,NaN,,,,,,,,low,high,,,,,,,false,,,,,false,1051993.5999999046,1051993.2999999523,,1051992.7999999523,,1051775.032,5,600,,
break_continue,html.Screen,10_28_2,2023-11-27T16:52:55.022Z,,,,,,,,,,,NaN,,,,,,,,low,high,,,,,,,false,,,,,false,1051994.2999999523,1051994.0999999046,,1051993.7999999523,,1051775.032,5,600,,
sequence,flow.Sequence,10_28,2023-11-27T16:52:55.022Z,,,,,,,,,,,11257.301999904681,completion,,,,,,,low,high,,,,,,,false,,,,,false,1051994.6999998093,1051994.0999999046,1040720.144,1040946.6999998093,1040736.798,1051775.032,5,600,,
trial,html.Screen,10_29_0,2023-11-27T16:53:02.235Z,,,,1,0.0409338693593207,-0.0072462710499874,,0.05,false,hl,7431.667999809375,response,0.7622914383475332,0.7744399296907993,-1.0643328134941128,-1.2637655821850098,0.7714382247716454,-1.1564739735041996,high,low,,ISIC_3608788.JPG,8,ISIC_0032005.JPG,33,25,false,0.19000000000000006,hh,keypress(i),0,false,1059206.7999999523,1059206.6999998093,1051758.433,1051994.899999857,1051775.032,1058989.001,5,600,30,
break,html.Screen,10_29_1,2023-11-27T16:53:02.235Z,,,,,,,,,,,NaN,,,,,,,,high,low,,,,,,,false,,,,,false,1059207.1999998093,1059207.1999998093,,1059206.899999857,,1058989.001,5,600,,
break_continue,html.Screen,10_29_2,2023-11-27T16:53:02.235Z,,,,,,,,,,,NaN,,,,,,,,high,low,,,,,,,false,,,,,false,1059207.399999857,1059207.399999857,,1059207.1999998093,,1058989.001,5,600,,
sequence,flow.Sequence,10_29,2023-11-27T16:53:02.235Z,,,,,,,,,,,7432.367999857059,completion,,,,,,,high,low,,,,,,,false,,,,,false,1059207.5999999046,1059207.399999857,1051758.433,1051994.899999857,1051775.032,1058989.001,5,600,,
trial,html.Screen,10_30_0,2023-11-27T16:53:07.818Z,,,,1,-0.039728379742806,0.0228701131373768,,0.05,true,ll,5801.298999952385,response,-1.0387488172228707,0.7744399296907993,-1.0643328134941128,-1.186629690487006,0.7714382247716454,-1.1564739735041996,low,low,,ISIC_0054073.JPG,9,ISIC_0015390.JPG,33,26,false,0.1,ll,keypress(f),0,false,1064790.399999857,1064790.2999999523,1058972.348,1059207.5999999046,1058989.001,1064583.223,5,600,31,
break,html.Screen,10_30_1,2023-11-27T16:53:07.818Z,,,,,,,,,,,NaN,,,,,,,,low,low,,,,,,,false,,,,,false,1064790.6999998093,1064790.6999998093,,1064790.5,,1064583.223,5,600,,
break_continue,html.Screen,10_30_2,2023-11-27T16:53:07.819Z,,,,,,,,,,,NaN,,,,,,,,low,low,,,,,,,false,,,,,false,1064790.899999857,1064790.7999999523,,1064790.7999999523,,1064583.223,5,600,,
sequence,flow.Sequence,10_30,2023-11-27T16:53:07.819Z,,,,,,,,,,,5801.798999952385,completion,,,,,,,low,low,,,,,,,false,,,,,false,1064791,1064790.7999999523,1058972.348,1059207.5999999046,1058989.001,1064583.223,5,600,,
trial,html.Screen,10_31_0,2023-11-27T16:53:11.308Z,,,,1,-0.0050679133050021,0.0009714874637896,,0.05,true,hh,3696.6769998569507,response,0.8129823105338526,0.7744399296907993,-1.0643328134941128,0.6761556401281956,0.7714382247716454,-1.1564739735041996,high,high,,ISIC_9848743.JPG,9,ISIC_8268025.JPG,33,68,false,0.1,hh,keypress(i),0,false,1068280.2999999523,1068279.899999857,1064566.632,1064791,1064583.223,1068073.345,5,600,32,
break,html.Screen,10_31_1,2023-11-27T16:53:11.309Z,,,,,,,,,,,NaN,,,,,,,,high,high,,,,,,,false,,,,,false,1068281.5999999046,1068281.1999998093,,1068280.7999999523,,1068073.345,5,600,,
break_continue,html.Screen,10_31_2,2023-11-27T16:53:11.310Z,,,,,,,,,,,NaN,,,,,,,,high,high,,,,,,,false,,,,,false,1068282.399999857,1068282.0999999046,,1068281.7999999523,,1068073.345,5,600,,
sequence,flow.Sequence,10_31,2023-11-27T16:53:11.310Z,,,,,,,,,,,3698.8769999046344,completion,,,,,,,high,high,,,,,,,false,,,,,false,1068282.7999999523,1068282.0999999046,1064566.632,1064791,1064583.223,1068073.345,5,600,,
trial,html.Screen,10_32_0,2023-11-27T16:53:16.620Z,,,,1,-0.0363437082783146,-0.0333332186217051,,0.05,false,hl,5518.554999856977,response,0.9433720631499012,0.7744399296907993,-1.0643328134941128,-1.0582071940347648,0.7714382247716454,-1.1564739735041996,high,low,,ISIC_3314555.JPG,8,ISIC_4890201.JPG,33,25,false,0.19000000000000006,hh,keypress(i),0,false,1073592.1999998093,1073591.899999857,1068056.895,1068283,1068073.345,1073383.661,5,600,33,
break,html.Screen,10_32_1,2023-11-27T16:53:16.621Z,,,,,,,,,,,NaN,,,,,,,,high,low,,,,,,,false,,,,,false,1073593.2999999523,1073593.0999999046,,1073592.5999999046,,1073383.661,5,600,,
break_continue,html.Screen,10_32_2,2023-11-27T16:53:16.622Z,,,,,,,,,,,NaN,,,,,,,,high,low,,,,,,,false,,,,,false,1073593.899999857,1073593.6999998093,,1073593.5,,1073383.661,5,600,,
sequence,flow.Sequence,10_32,2023-11-27T16:53:16.622Z,,,,,,,,,,,5520.354999809293,completion,,,,,,,high,low,,,,,,,false,,,,,false,1073594.1999998093,1073593.6999998093,1068056.895,1068282.7999999523,1068073.345,1073383.661,5,600,,
trial,html.Screen,10_33_0,2023-11-27T16:53:28.412Z,,,,1,0,0.0264544974620926,,0.05,true,ll,12000.738999856869,response,-0.9777849718157332,0.7744399296907993,-1.0643328134941128,-1.117811430082889,0.7714382247716454,-1.1564739735041996,low,low,,ISIC_0056991.JPG,9,ISIC_3256887.JPG,33,26,false,0.1,ll,keypress(f),0,false,1085384.6999998093,1085384.399999857,1073367.171,1073594.5,1073383.661,1085173.303,5,600,34,
break,html.Screen,10_33_1,2023-11-27T16:53:28.414Z,,,,,,,,,,,NaN,,,,,,,,low,low,,,,,,,false,,,,,false,1085386,1085385.5999999046,,1085385.1999998093,,1085173.303,5,600,,
break_continue,html.Screen,10_33_2,2023-11-27T16:53:28.414Z,,,,,,,,,,,NaN,,,,,,,,low,low,,,,,,,false,,,,,false,1085386.6999998093,1085386.399999857,,1085386.1999998093,,1085173.303,5,600,,
sequence,flow.Sequence,10_33,2023-11-27T16:53:28.415Z,,,,,,,,,,,12002.738999856869,completion,,,,,,,low,low,,,,,,,false,,,,,false,1085387,1085386.399999857,1073367.171,1073594.399999857,1073383.661,1085173.303,5,600,,
trial,html.Screen,10_34_0,2023-11-27T16:53:42.189Z,,,,1,0.0134764727102299,0.0033499036460912,,0.05,false,hl,13986.79699990456,response,0.676463054132483,0.7744399296907993,-1.0643328134941128,-1.309156631190435,0.7714382247716454,-1.1564739735041996,high,low,,ISIC_0009998.JPG,9,ISIC_0025927.JPG,33,25,false,0.19000000000000006,ll,keypress(f),0,false,1099160.5,1099160.0999999046,1085156.821,1085387.1999998093,1085173.303,1098950.117,5,600,35,
break,html.Screen,10_34_1,2023-11-27T16:53:42.190Z,,,,,,,,,,,NaN,,,,,,,,high,low,,,,,,,false,,,,,false,1099161.7999999523,1099161.5,,1099160.899999857,,1098950.117,5,600,,
break_continue,html.Screen,10_34_2,2023-11-27T16:53:42.191Z,,,,,,,,,,,NaN,,,,,,,,high,low,,,,,,,false,,,,,false,1099162.5999999046,1099162.2999999523,,1099162.0999999046,,1098950.117,5,600,,
sequence,flow.Sequence,10_34,2023-11-27T16:53:42.191Z,,,,,,,,,,,13988.996999952244,completion,,,,,,,high,low,,,,,,,false,,,,,false,1099163,1099162.2999999523,1085156.821,1085387.1999998093,1085173.303,1098950.117,5,600,,
trial,html.Screen,10_35_0,2023-11-27T16:53:49.660Z,,,,1,-0.0389988030702649,-0.0143212271490256,,0.05,true,lh,7681.782999856863,response,-1.031415631053946,0.7744399296907993,-1.0643328134941128,0.6661096126601223,0.7714382247716454,-1.1564739735041996,low,high,,ISIC_0064669.JPG,9,ISIC_8976269.JPG,33,28,false,0.19000000000000006,lh,keypress(e),0,false,1106632.2999999523,1106631.899999857,1098933.562,1099163.1999998093,1098950.117,1106414.636,5,600,36,
break,html.Screen,10_35_1,2023-11-27T16:53:49.662Z,,,,,,,,,,,NaN,,,,,,,,low,high,,,,,,,false,,,,,false,1106633.5999999046,1106633.1999998093,,1106632.6999998093,,1106414.636,5,600,,
break_continue,html.Screen,10_35_2,2023-11-27T16:53:49.663Z,,,,,,,,,,,NaN,,,,,,,,low,high,,,,,,,false,,,,,false,1106634.399999857,1106634.0999999046,,1106633.899999857,,1106414.636,5,600,,
sequence,flow.Sequence,10_35,2023-11-27T16:53:49.663Z,,,,,,,,,,,7683.982999904547,completion,,,,,,,low,high,,,,,,,false,,,,,false,1106634.6999998093,1106634.0999999046,1098933.562,1099163.1999998093,1098950.117,1106414.636,5,600,,
trial,html.Screen,10_36_0,2023-11-27T16:54:03.941Z,,,,1,0.0348234368746005,-0.0236866303880924,,0.05,false,hh,14497.563999809325,response,0.8382616284209584,0.7744399296907993,-1.0643328134941128,0.7276136672767647,0.7714382247716454,-1.1564739735041996,high,high,,ISIC_0011099.JPG,9,ISIC_0007740.JPG,33,68,false,0.1,ll,keypress(f),0,false,1120912.5999999046,1120912.1999998093,1106398.112,1106634.899999857,1106414.636,1120726.009,5,600,37,
break,html.Screen,10_36_1,2023-11-27T16:54:03.942Z,,,,,,,,,,,NaN,,,,,,,,high,high,,,,,,,false,,,,,false,1120913.7999999523,1120913.5,,1120912.899999857,,1120726.009,5,600,,
break_continue,html.Screen,10_36_2,2023-11-27T16:54:03.943Z,,,,,,,,,,,NaN,,,,,,,,high,high,,,,,,,false,,,,,false,1120914.5999999046,1120914.2999999523,,1120914.0999999046,,1120726.009,5,600,,
sequence,flow.Sequence,10_36,2023-11-27T16:54:03.943Z,,,,,,,,,,,14499.663999952376,completion,,,,,,,high,high,,,,,,,false,,,,,false,1120914.899999857,1120914.2999999523,1106398.112,1106634.899999857,1106414.636,1120726.009,5,600,,
trial,html.Screen,10_37_0,2023-11-27T16:54:09.613Z,,,,1,0.0362376068089956,0.047825070846155,,0.05,false,hl,5857.990999999922,response,0.8534691366511764,0.7744399296907993,-1.0643328134941128,-1.03975580494588,0.7714382247716454,-1.1564739735041996,high,low,,ISIC_6985114.JPG,9,ISIC_0056788.JPG,33,25,false,0.19000000000000006,hh,keypress(i),0,false,1126584.399999857,1126584,1120709.213,1120915.1999998093,1120726.009,1126370.149,5,600,38,
break,html.Screen,10_37_1,2023-11-27T16:54:09.614Z,,,,,,,,,,,NaN,,,,,,,,high,low,,,,,,,false,,,,,false,1126585.5999999046,1126585.2999999523,,1126584.7999999523,,1126370.149,5,600,,
