sender,sender_type,sender_id,timestamp,meta,,age,blockNo,c1,c2,condition,control_tolerance,correct,correctResponse,duration,ended_on,f1,f1_high,f1_low,f2,f2_high,f2_low,feature_level1,feature_level2,gender,img_left,img_reveal,img_right,n_control_images,n_target_images,practice,range_tolerance,response,response_action,selection_duration,staircase,time_commit,time_end,time_render,time_run,time_show,time_switch,total_blocks,total_trials,trialNo,url
informed_consent,html.Screen,0,2023-11-30T15:30:06.985Z,"{""labjs_version"":""20.2.4"",""labjs_build"":{""flavor"":""development"",""commit"":""f5b4a49f956347addd546a832a3327688c2c0fef""},""location"":""https://labjs.felixhenninger.com/api/labjs_preview/index.html"",""userAgent"":""Mozilla/5.0 (Windows NT 10.0; Win64; x64) AppleWebKit/537.36 (KHTML, like Gecko) Chrome/119.0.0.0 Safari/537.36"",""platform"":""Win32"",""language"":""en-US"",""locale"":""en-US"",""timeZone"":""America/Chicago"",""timezoneOffset"":360,""screen_width"":1680,""screen_height"":1050,""scroll_width"":825,""scroll_height"":888,""window_innerWidth"":825,""window_innerHeight"":936,""devicePixelRatio"":1}",,,,,,,,,,20188.285999856947,response,,,,,,,,,,,,,,,,,consent,click button,,,20947.89999985695,20938.89999985695,733.907,1202.7999999523163,750.614,20472.371,,,,{}
Demography form,html.Form,1,2023-11-30T15:30:11.921Z,,,19,,,,,,,,5411.428999952317,form submission,,,,,,,,,male,,,,,,,,,,,,25883.89999985695,25883.799999952316,20455.852,20948.299999952316,20472.371,25432.128,,,,
Welcome,html.Screen,2,2023-11-30T15:30:29.801Z,,,,,,,"[""asym"",""bor""]",,,,18330.77199985695,response,,,,,,,,,,,,,,,,,continue,click button,,,43763.39999985695,43762.89999985695,25415.301,25884,25432.128,43300.118,,,,
demo_instructions,html.Screen,3,2023-11-30T15:31:31.401Z,,,,,,,,,,,62062.78199985695,response,,,,,,,,,,,,,,,,,continue,click button,,,105363.59999990463,105362.89999985695,43283.69,43763.5,43300.118,104903.371,,,,
trial,html.Screen,4_0_0,2023-11-30T15:31:43.310Z,,,,0,-1.156827121261563,-1.2544342720917778,,,true,hh,12368.52899985695,response,1.0959058628476686,1.2,-1.2,1.1684835186766898,1.2,-1.2,high,high,,ISIC_0060397.JPG,,ISIC_5920470.JPG,,26,true,0.15000000000000002,hh,keypress(i),100,false,117272.5,117271.89999985695,104886.849,105363.69999980927,104903.371,116826.61,1,16,1,
sequence,flow.Sequence,4_0,2023-11-30T15:31:43.334Z,,,,,,,,,,,12368.52899985695,completion,,,,,,,high,high,,,,,,,true,,,,,false,117296,117271.89999985695,104886.849,105363.69999980927,104903.371,116826.61,1,16,,
trial,html.Screen,4_1_0,2023-11-30T15:31:47.219Z,,,,0,-1.2915523362516486,-1.1264977790562936,,,true,hh,4353.689999952316,response,1.2706447584800626,1.2,-1.2,1.0903308007916603,1.2,-1.2,high,high,,ISIC_0502582.JPG,,ISIC_9425937.JPG,,26,true,0.15000000000000002,hh,keypress(i),100,false,121180.69999980927,121180.29999995232,116809.988,117296.09999990463,116826.61,120734.321,1,16,2,
sequence,flow.Sequence,4_1,2023-11-30T15:31:47.219Z,,,,,,,,,,,4353.689999952316,completion,,,,,,,high,high,,,,,,,true,,,,,false,121181.39999985695,121180.29999995232,116809.988,117296.09999990463,116826.61,120734.321,1,16,,
trial,html.Screen,4_2_0,2023-11-30T15:31:52.499Z,,,,0,-1.242586748440878,-1.1207933200172129,,,true,hh,5726.378999809269,response,1.09666761087476,1.2,-1.2,1.1072126870290426,1.2,-1.2,high,high,,ISIC_0013073.JPG,,ISIC_0071754.JPG,,26,true,0.15000000000000002,hh,keypress(i),100,false,126461,126460.69999980927,120717.561,121181.79999995232,120734.321,126011.212,1,16,3,
sequence,flow.Sequence,4_2,2023-11-30T15:31:52.499Z,,,,,,,,,,,5726.378999809269,completion,,,,,,,high,high,,,,,,,true,,,,,false,126461.39999985695,126460.69999980927,120717.561,121181.79999995232,120734.321,126011.212,1,16,,
trial,html.Screen,4_3_0,2023-11-30T15:31:59.154Z,,,,0,-1.255256820488545,-1.1206426433062562,,,true,hh,7103.7880000000005,response,1.057008495826831,1.2,-1.2,1.1278122585028287,1.2,-1.2,high,high,,ISIC_0024652.JPG,,ISIC_2819798.JPG,,26,true,0.15000000000000002,hh,keypress(i),100,false,133115.69999980927,133115,125994.463,126461.59999990463,126011.212,132674.119,1,16,4,
sequence,flow.Sequence,4_3,2023-11-30T15:31:59.154Z,,,,,,,,,,,7103.7880000000005,completion,,,,,,,high,high,,,,,,,true,,,,,false,133116.59999990463,133115,125994.463,126461.59999990463,126011.212,132674.119,1,16,,
trial,html.Screen,4_4_0,2023-11-30T15:32:08.253Z,,,,0,1.241406480986552,1.081912821786771,,,true,ll,9540.280999856943,response,-1.29026082950341,1.2,-1.2,-1.144672688339213,1.2,-1.2,low,low,,ISIC_4223155.JPG,,ISIC_0054317.JPG,,30,true,0.1,ll,keypress(f),100,false,142215,142214.39999985695,132657.474,133117,132674.119,141775.174,1,16,5,
sequence,flow.Sequence,4_4,2023-11-30T15:32:08.254Z,,,,,,,,,,,9540.280999856943,completion,,,,,,,low,low,,,,,,,true,,,,,false,142215.89999985695,142214.39999985695,132657.474,133116.89999985695,132674.119,141775.174,1,16,,
trial,html.Screen,4_5_0,2023-11-30T15:32:14.444Z,,,,0,1.1653123206802332,1.2976858999596654,,,true,ll,6629.9259999046335,response,-1.1877026569952844,1.2,-1.2,-1.1604367569896263,1.2,-1.2,low,low,,ISIC_0071508.JPG,,ISIC_0064589.JPG,,53,true,0.15000000000000002,ll,keypress(f),100,false,148405.69999980927,148405.09999990463,141758.517,142216.29999995232,141775.174,147953.909,1,16,6,
sequence,flow.Sequence,4_5,2023-11-30T15:32:14.445Z,,,,,,,,,,,6629.9259999046335,completion,,,,,,,low,low,,,,,,,true,,,,,false,148406.39999985695,148405.09999990463,141758.517,142216.19999980927,141775.174,147953.909,1,16,,
trial,html.Screen,4_6_0,2023-11-30T15:32:17.251Z,,,,0,1.057008495826831,1.1278122585028287,,,true,ll,3258.290999809251,response,-1.2435042401134029,1.2,-1.2,-1.0592032583207498,1.2,-1.2,low,low,,ISIC_2819798.JPG,,ISIC_0056119.JPG,,53,true,0.15000000000000002,ll,keypress(f),100,false,151212.59999990463,151212.19999980927,147937.262,148406.69999980927,147953.909,150759.37,1,16,7,
sequence,flow.Sequence,4_6,2023-11-30T15:32:17.251Z,,,,,,,,,,,3258.290999809251,completion,,,,,,,low,low,,,,,,,true,,,,,false,151213.09999990463,151212.19999980927,147937.262,148406.59999990463,147953.909,150759.37,1,16,,
trial,html.Screen,4_7_0,2023-11-30T15:32:22.972Z,,,,0,1.2318069697449794,1.1703576816778267,,,true,ll,6173.5299998569535,response,-1.1253220985777015,1.2,-1.2,-1.108725659461368,1.2,-1.2,low,low,,ISIC_2732573.JPG,,ISIC_0054954.JPG,,53,true,0.15000000000000002,ll,keypress(f),100,false,156933.29999995232,156932.89999985695,150742.874,151213.39999985695,150759.37,156503.773,1,16,8,
sequence,flow.Sequence,4_7,2023-11-30T15:32:22.972Z,,,,,,,,,,,6173.5299998569535,completion,,,,,,,low,low,,,,,,,true,,,,,false,156933.89999985695,156932.89999985695,150742.874,151213.39999985695,150759.37,156503.773,1,16,,
trial,html.Screen,4_8_0,2023-11-30T15:32:33.184Z,,,,0,1.011737552725394,-0.8500530224490773,,,true,lh,10641.926999809279,response,-0.8035152873995188,1.2,-1.2,0.82868450251632,1.2,-1.2,low,high,,ISIC_2998367.JPG,,ISIC_0010671.JPG,,27,true,0.42000000000000026,lh,keypress(e),100,false,167146.19999980927,167145.69999980927,156470.447,156934.19999980927,156503.773,166723.676,1,16,9,
sequence,flow.Sequence,4_8,2023-11-30T15:32:33.185Z,,,,,,,,,,,10641.926999809279,completion,,,,,,,low,high,,,,,,,true,,,,,false,167147.09999990463,167145.69999980927,156470.447,156934.09999990463,156503.773,166723.676,1,16,,
trial,html.Screen,4_9_0,2023-11-30T15:32:45.526Z,,,,0,1.331700944308701,-0.9395196143259436,,,true,lh,12763.62399995231,response,-1.0264463986917702,1.2,-1.2,1.2804054832904397,1.2,-1.2,low,high,,ISIC_1668831.JPG,,ISIC_7889838.JPG,,27,true,0.42000000000000026,lh,keypress(e),100,false,179487.89999985695,179487.29999995232,166690.373,167147.59999990463,166723.676,179064.363,1,16,10,
sequence,flow.Sequence,4_9,2023-11-30T15:32:45.527Z,,,,,,,,,,,12763.62399995231,completion,,,,,,,low,high,,,,,,,true,,,,,false,179488.79999995232,179487.29999995232,166690.373,167147.5,166723.676,179064.363,1,16,,
trial,html.Screen,4_10_0,2023-11-30T15:32:52.268Z,,,,0,0.9454713230140772,-0.9245167441969216,,,true,lh,7164.936999952304,response,-0.7911024675435955,1.2,-1.2,0.7975977016137676,1.2,-1.2,low,high,,ISIC_9101055.JPG,,ISIC_5813642.JPG,,27,true,0.42000000000000026,lh,keypress(e),100,false,186230.19999980927,186229.29999995232,179031.037,179489,179064.363,185810.819,1,16,11,
sequence,flow.Sequence,4_10,2023-11-30T15:32:52.269Z,,,,,,,,,,,7164.936999952304,completion,,,,,,,low,high,,,,,,,true,,,,,false,186230.89999985695,186229.29999995232,179031.037,179489,179064.363,185810.819,1,16,,
trial,html.Screen,4_11_0,2023-11-30T15:33:04.720Z,,,,0,1.2075172235545184,-0.9116724966267612,,,true,lh,12870.08099985696,response,-0.8947611078712571,1.2,-1.2,0.8960964505004638,1.2,-1.2,low,high,,ISIC_0024235.JPG,,ISIC_6441128.JPG,,27,true,0.42000000000000026,lh,keypress(e),100,false,198681.39999985695,198680.89999985695,185760.845,186231.19999980927,185810.819,198268.422,1,16,12,
sequence,flow.Sequence,4_11,2023-11-30T15:33:04.720Z,,,,,,,,,,,12870.08099985696,completion,,,,,,,low,high,,,,,,,true,,,,,false,198682,198680.89999985695,185760.845,186231.09999990463,185810.819,198268.422,1,16,,
trial,html.Screen,4_12_0,2023-11-30T15:33:15.393Z,,,,0,-0.7871162143493278,0.8429329800778957,,,true,hl,11085.377999952325,response,1.2331439637486756,1.2,-1.2,-0.9691143900156988,1.2,-1.2,high,low,,ISIC_3439215.JPG,,ISIC_7877488.JPG,,26,true,0.3600000000000002,hl,keypress(j),100,false,209354.19999980927,209353.79999995232,198218.399,198682.29999995232,198268.422,208922.497,1,16,13,
sequence,flow.Sequence,4_12,2023-11-30T15:33:15.394Z,,,,,,,,,,,11085.377999952325,completion,,,,,,,high,low,,,,,,,true,,,,,false,209354.79999995232,209353.79999995232,198218.399,198682.09999990463,198268.422,208922.497,1,16,,
trial,html.Screen,4_13_0,2023-11-30T15:33:24.454Z,,,,0,-0.809764442462202,1.005337148078696,,,true,hl,9492.802999952313,response,0.7951166058716005,1.2,-1.2,-1.477327500998078,1.2,-1.2,high,low,,ISIC_2379379.JPG,,ISIC_0033925.JPG,,33,true,0.42000000000000026,hl,keypress(j),100,false,218415.59999990463,218415.29999995232,208889.212,209355.09999990463,208922.497,217990.087,1,16,14,
sequence,flow.Sequence,4_13,2023-11-30T15:33:24.455Z,,,,,,,,,,,9492.802999952313,completion,,,,,,,high,low,,,,,,,true,,,,,false,218416.29999995232,218415.29999995232,208889.212,209355,208922.497,217990.087,1,16,,
trial,html.Screen,4_14_0,2023-11-30T15:33:37.376Z,,,,0,-0.991146183030456,0.9949639823722534,,,true,hl,13346.81299985695,response,1.0865333402803938,1.2,-1.2,-1.0542635307358266,1.2,-1.2,high,low,,ISIC_6342224.JPG,,ISIC_0034006.JPG,,33,true,0.42000000000000026,hl,keypress(j),100,false,231337.29999995232,231336.89999985695,217956.814,218416.59999990463,217990.087,230915.308,1,16,15,
sequence,flow.Sequence,4_14,2023-11-30T15:33:37.377Z,,,,,,,,,,,13346.81299985695,completion,,,,,,,high,low,,,,,,,true,,,,,false,231338,231336.89999985695,217956.814,218416.5,217990.087,230915.308,1,16,,
trial,html.Screen,4_15_0,2023-11-30T15:33:48.720Z,,,,0,-0.8035152873995188,0.82868450251632,,,true,hl,11765.791999904643,response,1.0026266089287914,1.2,-1.2,-1.0913275913920335,1.2,-1.2,high,low,,ISIC_0010671.JPG,,ISIC_0033520.JPG,,33,true,0.42000000000000026,hl,keypress(j),100,false,242681.59999990463,242681.09999990463,230881.988,231338.29999995232,230915.308,242237.382,1,16,16,
sequence,flow.Sequence,4_15,2023-11-30T15:33:48.721Z,,,,,,,,,,,11765.791999904643,completion,,,,,,,high,low,,,,,,,true,,,,,false,242682.19999980927,242681.09999990463,230881.988,231338.29999995232,230915.308,242237.382,1,16,,
demonstration_loop,flow.Loop,4,2023-11-30T15:33:48.721Z,,,,,,,,,,,137777.72899990465,completion,,,,,,,,,,,,,,,true,,,,,false,242682.59999990463,242681.09999990463,104886.849,105363.69999980927,104903.371,242237.382,1,16,,
practice_instructions,html.Screen,5,2023-11-30T15:33:53.826Z,,,,,,,,,,,5541.71799990462,response,,,,,,,,,,,,,,,,,continue,click button,,,247787.09999990463,247779.09999990463,242220.758,242682.89999985695,242237.382,247330.584,,,,
trial,html.Screen,6_0_0,2023-11-30T15:34:01.852Z,,,,1,1.2711018615747949,1.1042234044781618,,,true,ll,8463.315999856946,response,-1.1383813631375823,1.2,-1.2,-1.1319312220332556,1.2,-1.2,low,low,,ISIC_8603734.JPG,,ISIC_6227397.JPG,,30,true,0.1,ll,keypress(f),0,false,255813.29999995232,255793.89999985695,247297.413,247787.19999980927,247330.584,255346.177,1,40,1,
sequence,flow.Sequence,6_0,2023-11-30T15:34:01.852Z,,,,,,,,,,,8463.315999856946,completion,,,,,,,low,low,,,,,,,true,,,,,false,255813.59999990463,255793.89999985695,247297.413,247787.19999980927,247330.584,255346.177,1,40,,
trial,html.Screen,6_1_0,2023-11-30T15:34:06.234Z,,,,1,1.0870240111136478,1.332340670965917,,,true,ll,4849.12299995232,response,-1.2435042401134029,1.2,-1.2,-1.0592032583207498,1.2,-1.2,low,low,,ISIC_0000660.JPG,,ISIC_0056119.JPG,,53,true,0.15000000000000002,ll,keypress(f),0,false,260195.29999995232,260195.29999995232,255330.148,255813.79999995232,255346.177,259771.438,1,40,2,
sequence,flow.Sequence,6_1,2023-11-30T15:34:06.234Z,,,,,,,,,,,4849.12299995232,completion,,,,,,,low,low,,,,,,,true,,,,,false,260195.5,260195.29999995232,255330.148,255813.69999980927,255346.177,259771.438,1,40,,
trial,html.Screen,6_2_0,2023-11-30T15:34:14.182Z,,,,1,-0.809764442462202,1.005337148078696,,,false,hl,8370.361999952322,response,0.858338058340649,1.2,-1.2,-0.9540612223480284,1.2,-1.2,high,low,,ISIC_2379379.JPG,,ISIC_8922893.JPG,,26,true,0.3600000000000002,lh,keypress(e),0,false,268142.19999980927,268141.7999999523,259721.543,260195.5,259771.438,267686.881,1,40,3,
sequence,flow.Sequence,6_2,2023-11-30T15:34:14.182Z,,,,,,,,,,,8370.361999952322,completion,,,,,,,high,low,,,,,,,true,,,,,false,268142.69999980927,268141.7999999523,259721.543,260195.5,259771.438,267686.881,1,40,,
trial,html.Screen,6_3_0,2023-11-30T15:34:24.861Z,,,,1,0.9696118525781644,-0.9244148283103414,,,false,lh,11134.119000000006,response,-0.7998855902596425,1.2,-1.2,1.1518579145663017,1.2,-1.2,low,high,,ISIC_7927525.JPG,,ISIC_0025061.JPG,,27,true,0.42000000000000026,ll,keypress(f),0,false,278821.39999985695,278821,267670.363,268143,267686.881,278374.345,1,40,4,
sequence,flow.Sequence,6_3,2023-11-30T15:34:24.862Z,,,,,,,,,,,11134.119000000006,completion,,,,,,,low,high,,,,,,,true,,,,,false,278822,278821,267670.363,268142.89999985695,267686.881,278374.345,1,40,,
trial,html.Screen,6_4_0,2023-11-30T15:34:34.421Z,,,,1,-0.7911024675435955,0.7975977016137676,,,false,hl,10006.354999809293,response,0.9433720631499012,1.2,-1.2,-1.0582071940347648,1.2,-1.2,high,low,,ISIC_5813642.JPG,,ISIC_4890201.JPG,,26,true,0.3600000000000002,hh,keypress(i),0,false,288381.09999990463,288380.69999980927,278341.088,278822.2999999523,278374.345,287926.254,1,40,5,
sequence,flow.Sequence,6_4,2023-11-30T15:34:34.421Z,,,,,,,,,,,10006.354999809293,completion,,,,,,,high,low,,,,,,,true,,,,,false,288381.5,288380.69999980927,278341.088,278822.19999980927,278374.345,287926.254,1,40,,
trial,html.Screen,6_5_0,2023-11-30T15:34:42.965Z,,,,1,0.991282840649944,-0.9397921099839784,,,false,lh,8998.545999952301,response,-0.991146183030456,1.2,-1.2,0.9949639823722534,1.2,-1.2,low,high,,ISIC_0000463.JPG,,ISIC_6342224.JPG,,27,true,0.42000000000000026,ll,keypress(f),0,false,296925.19999980927,296924.7999999523,287909.518,288381.69999980927,287926.254,296459.615,1,40,6,
sequence,flow.Sequence,6_5,2023-11-30T15:34:42.965Z,,,,,,,,,,,8998.545999952301,completion,,,,,,,low,high,,,,,,,true,,,,,false,296925.59999990463,296924.7999999523,287909.518,288381.69999980927,287926.254,296459.615,1,40,,
trial,html.Screen,6_6_0,2023-11-30T15:34:47.765Z,,,,1,-1.101214461533281,-1.1849883512428183,,,true,hh,5265.184999952326,response,1.201100953917304,1.2,-1.2,1.1751492358160105,1.2,-1.2,high,high,,ISIC_0064943.JPG,,ISIC_0647224.JPG,,179,true,0.3600000000000002,hh,keypress(i),0,false,301725.09999990463,301724.7999999523,296442.939,296925.89999985695,296459.615,301268.921,1,40,7,
sequence,flow.Sequence,6_6,2023-11-30T15:34:47.765Z,,,,,,,,,,,5265.184999952326,completion,,,,,,,high,high,,,,,,,true,,,,,false,301725.5,301724.7999999523,296442.939,296925.7999999523,296459.615,301268.921,1,40,,
trial,html.Screen,6_7_0,2023-11-30T15:34:55.773Z,,,,1,-1.2249552940807693,-1.1723015116910682,,,true,hh,8463.978999856976,response,1.1210325063849345,1.2,-1.2,1.1498648320956202,1.2,-1.2,high,high,,ISIC_0055251.JPG,,ISIC_0032162.JPG,,26,true,0.15000000000000002,hh,keypress(i),0,false,309733.2999999523,309732.89999985695,301252.415,301725.7999999523,301268.921,309284.563,1,40,8,
sequence,flow.Sequence,6_7,2023-11-30T15:34:55.774Z,,,,,,,,,,,8463.978999856976,completion,,,,,,,high,high,,,,,,,true,,,,,false,309733.7999999523,309732.89999985695,301252.415,301725.69999980927,301268.921,309284.563,1,40,,
trial,html.Screen,6_8_0,2023-11-30T15:35:01.325Z,,,,1,1.057008495826831,1.1278122585028287,,,true,ll,6000.036999904609,response,-1.101214461533281,1.2,-1.2,-1.1849883512428183,1.2,-1.2,low,low,,ISIC_2819798.JPG,,ISIC_0064943.JPG,,30,true,0.1,ll,keypress(f),0,false,315285.09999990463,315284.59999990463,309251.345,309734.09999990463,309284.563,314828.643,1,40,9,
sequence,flow.Sequence,6_8,2023-11-30T15:35:01.325Z,,,,,,,,,,,6000.036999904609,completion,,,,,,,low,low,,,,,,,true,,,,,false,315285.69999980927,315284.59999990463,309251.345,309734,309284.563,314828.643,1,40,,
trial,html.Screen,6_9_0,2023-11-30T15:35:09.974Z,,,,1,1.0959058628476686,1.1684835186766898,,,true,ll,9105.056999809283,response,-1.2282561398079586,1.2,-1.2,-1.210457198775374,1.2,-1.2,low,low,,ISIC_5920470.JPG,,ISIC_9141817.JPG,,53,true,0.15000000000000002,ll,keypress(f),0,false,323934.09999990463,323933.69999980927,314812.118,315286,314828.643,323528.915,1,40,10,
sequence,flow.Sequence,6_9,2023-11-30T15:35:09.974Z,,,,,,,,,,,9105.056999809283,completion,,,,,,,low,low,,,,,,,true,,,,,false,323934.59999990463,323933.69999980927,314812.118,315285.89999985695,314828.643,323528.915,1,40,,
trial,html.Screen,6_10_0,2023-11-30T15:35:19.213Z,,,,1,0.9696118525781644,-0.9244148283103414,,,false,lh,9643.585000000021,response,-0.7998855902596425,1.2,-1.2,1.1518579145663017,1.2,-1.2,low,high,,ISIC_7927525.JPG,,ISIC_0025061.JPG,,27,true,0.42000000000000026,ll,keypress(f),0,false,333172.7999999523,333172.5,323462.305,323934.89999985695,323528.915,332730.156,1,40,11,
sequence,flow.Sequence,6_10,2023-11-30T15:35:19.214Z,,,,,,,,,,,9643.585000000021,completion,,,,,,,low,high,,,,,,,true,,,,,false,333173.39999985695,333172.5,323462.305,323934.7999999523,323528.915,332730.156,1,40,,
trial,html.Screen,6_11_0,2023-11-30T15:35:27.774Z,,,,1,-1.4092385398614515,1.3046237992197836,,,false,hl,9002.943999904615,response,0.869932994914832,1.2,-1.2,-0.8880533324432531,1.2,-1.2,high,low,,ISIC_7254359.JPG,,ISIC_8617084.JPG,,26,true,0.3600000000000002,hh,keypress(i),0,false,341733.39999985695,341733.09999990463,332696.901,333173.59999990463,332730.156,341296.837,1,40,12,
sequence,flow.Sequence,6_11,2023-11-30T15:35:27.774Z,,,,,,,,,,,9002.943999904615,completion,,,,,,,high,low,,,,,,,true,,,,,false,341733.89999985695,341733.09999990463,332696.901,333173.59999990463,332730.156,341296.837,1,40,,
trial,html.Screen,6_12_0,2023-11-30T15:35:34.661Z,,,,1,-0.7871162143493278,0.8429329800778957,,,false,hl,7323.862999809266,response,0.9433720631499012,1.2,-1.2,-1.0582071940347648,1.2,-1.2,high,low,,ISIC_3439215.JPG,,ISIC_4890201.JPG,,33,true,0.42000000000000026,lh,keypress(e),0,false,348621,348620.69999980927,341263.606,341734.2999999523,341296.837,348160.206,1,40,13,
sequence,flow.Sequence,6_12,2023-11-30T15:35:34.662Z,,,,,,,,,,,7323.862999809266,completion,,,,,,,high,low,,,,,,,true,,,,,false,348621.59999990463,348620.69999980927,341263.606,341734.19999980927,341296.837,348160.206,1,40,,
trial,html.Screen,6_13_0,2023-11-30T15:35:41.487Z,,,,1,-1.2169050727663315,-1.1067845563421794,,,true,hh,7286.093999952311,response,1.2148140264214349,1.2,-1.2,1.0436713726380966,1.2,-1.2,high,high,,ISIC_7016261.JPG,,ISIC_7277310.JPG,,253,true,0.42000000000000026,hh,keypress(i),0,false,355446.5,355446.2999999523,348143.647,348621.7999999523,348160.206,355023.526,1,40,14,
sequence,flow.Sequence,6_13,2023-11-30T15:35:41.487Z,,,,,,,,,,,7286.093999952311,completion,,,,,,,high,high,,,,,,,true,,,,,false,355446.69999980927,355446.2999999523,348143.647,348621.7999999523,348160.206,355023.526,1,40,,
trial,html.Screen,6_14_0,2023-11-30T15:35:47.348Z,,,,1,1.331700944308701,-0.9395196143259436,,,false,lh,6283.773999952304,response,-0.8200962008791046,1.2,-1.2,0.7936051642828523,1.2,-1.2,low,high,,ISIC_1668831.JPG,,ISIC_0027031.JPG,,27,true,0.42000000000000026,hh,keypress(i),0,false,361307.39999985695,361307.2999999523,354973.619,355446.7999999523,355023.526,360851.531,1,40,15,
sequence,flow.Sequence,6_14,2023-11-30T15:35:47.348Z,,,,,,,,,,,6283.773999952304,completion,,,,,,,low,high,,,,,,,true,,,,,false,361307.59999990463,361307.2999999523,354973.619,355446.7999999523,355023.526,360851.531,1,40,,
trial,html.Screen,6_15_0,2023-11-30T15:35:57.686Z,,,,1,1.3189473926989124,1.0770264364718942,,,true,ll,10793.468999999983,response,-0.9262674596267249,1.2,-1.2,-1.0275767908572495,1.2,-1.2,low,low,,ISIC_6093728.JPG,,ISIC_5415749.JPG,,245,true,0.3600000000000002,ll,keypress(f),0,false,371645.39999985695,371645,360834.895,361307.59999990463,360851.531,371188.403,1,40,16,
sequence,flow.Sequence,6_15,2023-11-30T15:35:57.686Z,,,,,,,,,,,10793.468999999983,completion,,,,,,,low,low,,,,,,,true,,,,,false,371645.89999985695,371645,360834.895,361307.59999990463,360851.531,371188.403,1,40,,
trial,html.Screen,6_16_0,2023-11-30T15:36:06.708Z,,,,1,-1.1164729501046406,-1.2978935747992253,,,true,hh,9478.996999856958,response,1.0789197754694622,1.2,-1.2,1.1654690806750023,1.2,-1.2,high,high,,ISIC_0034166.JPG,,ISIC_1576437.JPG,,26,true,0.15000000000000002,hh,keypress(i),0,false,380667.5,380667.39999985695,371171.585,371646.19999980927,371188.403,380205.876,1,40,17,
sequence,flow.Sequence,6_16,2023-11-30T15:36:06.708Z,,,,,,,,,,,9478.996999856958,completion,,,,,,,high,high,,,,,,,true,,,,,false,380667.69999980927,380667.39999985695,371171.585,371646.19999980927,371188.403,380205.876,1,40,,
trial,html.Screen,6_17_0,2023-11-30T15:36:12.349Z,,,,1,1.2318069697449794,1.1703576816778267,,,true,ll,6101.723999904643,response,-1.1346217981791904,1.2,-1.2,-1.1555132168806113,1.2,-1.2,low,low,,ISIC_2732573.JPG,,ISIC_0032771.JPG,,30,true,0.1,ll,keypress(f),0,false,386307.7999999523,386307.59999990463,380189.249,380667.7999999523,380205.876,385883.597,1,40,18,
sequence,flow.Sequence,6_17,2023-11-30T15:36:12.349Z,,,,,,,,,,,6101.723999904643,completion,,,,,,,low,low,,,,,,,true,,,,,false,386307.89999985695,386307.59999990463,380189.249,380667.7999999523,380205.876,385883.597,1,40,,
trial,html.Screen,6_18_0,2023-11-30T15:36:24.918Z,,,,1,1.2331439637486756,-0.9691143900156988,,,true,lh,12993.402999999991,response,-0.9235571765207048,1.2,-1.2,1.0008081653938232,1.2,-1.2,low,high,,ISIC_7877488.JPG,,ISIC_8796632.JPG,,27,true,0.42000000000000026,lh,keypress(e),0,false,398877.39999985695,398877,385833.545,386308,385883.597,398424.69,1,40,19,
sequence,flow.Sequence,6_18,2023-11-30T15:36:24.919Z,,,,,,,,,,,12993.402999999991,completion,,,,,,,low,high,,,,,,,true,,,,,false,398877.7999999523,398877,385833.545,386308,385883.597,398424.69,1,40,,
trial,html.Screen,6_19_0,2023-11-30T15:36:32.830Z,,,,1,-0.7998855902596425,1.1518579145663017,,,true,hl,8363.90999990463,response,1.020990671779317,1.2,-1.2,-1.0116513850520903,1.2,-1.2,high,low,,ISIC_0025061.JPG,,ISIC_0011995.JPG,,26,true,0.3600000000000002,hl,keypress(j),0,false,406789,406788.59999990463,398407.978,398878.09999990463,398424.69,406323.411,1,40,20,
sequence,flow.Sequence,6_19,2023-11-30T15:36:32.830Z,,,,,,,,,,,8363.90999990463,completion,,,,,,,high,low,,,,,,,true,,,,,false,406789.39999985695,406788.59999990463,398407.978,398878,398424.69,406323.411,1,40,,
trial,html.Screen,6_20_0,2023-11-30T15:36:38.685Z,,,,1,1.0870240111136478,1.332340670965917,,,true,ll,6320.688999904611,response,-0.8488468966866934,1.2,-1.2,-0.9438364121327284,1.2,-1.2,low,low,,ISIC_0000660.JPG,,ISIC_0010749.JPG,,339,true,0.42000000000000026,ll,keypress(f),0,false,412644.2999999523,412644.09999990463,406306.816,406789.5,406323.411,412184.817,1,40,21,
sequence,flow.Sequence,6_20,2023-11-30T15:36:38.685Z,,,,,,,,,,,6320.688999904611,completion,,,,,,,low,low,,,,,,,true,,,,,false,412644.5,412644.09999990463,406306.816,406789.5,406323.411,412184.817,1,40,,
trial,html.Screen,6_21_0,2023-11-30T15:36:44.190Z,,,,1,1.1137763092539212,1.1599906701455132,,,true,ll,5964.082999856968,response,-1.343727382922318,1.2,-1.2,-1.2738570369689235,1.2,-1.2,low,low,,ISIC_5413788.JPG,,ISIC_0001157.JPG,,53,true,0.15000000000000002,ll,keypress(f),0,false,418149.09999990463,418148.89999985695,412168.27,412644.69999980927,412184.817,417695.594,1,40,22,
sequence,flow.Sequence,6_21,2023-11-30T15:36:44.191Z,,,,,,,,,,,5964.082999856968,completion,,,,,,,low,low,,,,,,,true,,,,,false,418149.7999999523,418148.89999985695,412168.27,412644.59999990463,412184.817,417695.594,1,40,,
trial,html.Screen,6_22_0,2023-11-30T15:36:48.077Z,,,,1,-1.2169050727663315,-1.1067845563421794,,,true,hh,4340.605999809282,response,1.1388430156686884,1.2,-1.2,1.2700552354887775,1.2,-1.2,high,high,,ISIC_7016261.JPG,,ISIC_9939653.JPG,,26,true,0.15000000000000002,hh,keypress(i),0,false,422036.5,422036.19999980927,417679.04,418150,417695.594,421603.121,1,40,23,
sequence,flow.Sequence,6_22,2023-11-30T15:36:48.078Z,,,,,,,,,,,4340.605999809282,completion,,,,,,,high,high,,,,,,,true,,,,,false,422037,422036.19999980927,417679.04,418149.89999985695,417695.594,421603.121,1,40,,
trial,html.Screen,6_23_0,2023-11-30T15:36:59.365Z,,,,1,1.331700944308701,-0.9395196143259436,,,true,lh,11720.478999904648,response,-0.9388660854518424,1.2,-1.2,0.79533948698576,1.2,-1.2,low,high,,ISIC_1668831.JPG,,ISIC_9291926.JPG,,27,true,0.42000000000000026,lh,keypress(e),0,false,433323.69999980927,433323.59999990463,421553.245,422037.19999980927,421603.121,432875.08,1,40,24,
sequence,flow.Sequence,6_23,2023-11-30T15:36:59.365Z,,,,,,,,,,,11720.478999904648,completion,,,,,,,low,high,,,,,,,true,,,,,false,433323.89999985695,433323.59999990463,421553.245,422037.19999980927,421603.121,432875.08,1,40,,
trial,html.Screen,6_24_0,2023-11-30T15:37:10.558Z,,,,1,1.011737552725394,-0.8500530224490773,,,true,lh,11642.119999809249,response,-0.7911024675435955,1.2,-1.2,0.7975977016137676,1.2,-1.2,low,high,,ISIC_2998367.JPG,,ISIC_5813642.JPG,,27,true,0.42000000000000026,lh,keypress(e),0,false,444517.5,444517.19999980927,432841.645,433323.89999985695,432875.08,444080.229,1,40,25,
sequence,flow.Sequence,6_24,2023-11-30T15:37:10.559Z,,,,,,,,,,,11642.119999809249,completion,,,,,,,low,high,,,,,,,true,,,,,false,444518,444517.19999980927,432841.645,433323.89999985695,432875.08,444080.229,1,40,,
trial,html.Screen,6_25_0,2023-11-30T15:37:23.207Z,,,,1,-1.0213365328004047,1.088524359911891,,,true,hl,13084.87099990464,response,1.0865333402803938,1.2,-1.2,-1.0542635307358266,1.2,-1.2,high,low,,ISIC_5434229.JPG,,ISIC_0034006.JPG,,26,true,0.3600000000000002,hl,keypress(j),0,false,457165.5,457165.09999990463,444046.896,444518.19999980927,444080.229,456704.848,1,40,26,
sequence,flow.Sequence,6_25,2023-11-30T15:37:23.207Z,,,,,,,,,,,13084.87099990464,completion,,,,,,,high,low,,,,,,,true,,,,,false,457166,457165.09999990463,444046.896,444518.09999990463,444080.229,456704.848,1,40,,
trial,html.Screen,6_26_0,2023-11-30T15:37:27.775Z,,,,1,-1.101214461533281,-1.1849883512428183,,,true,hh,5028.051999856951,response,0.7938518256595252,1.2,-1.2,1.275774577028331,1.2,-1.2,high,high,,ISIC_0064943.JPG,,ISIC_2426937.JPG,,253,true,0.42000000000000026,hh,keypress(i),0,false,461733.19999980927,461732.89999985695,456688.223,457166.2999999523,456704.848,461313.774,1,40,27,
sequence,flow.Sequence,6_26,2023-11-30T15:37:27.775Z,,,,,,,,,,,5028.051999856951,completion,,,,,,,high,high,,,,,,,true,,,,,false,461733.69999980927,461732.89999985695,456688.223,457166.09999990463,456704.848,461313.774,1,40,,
trial,html.Screen,6_27_0,2023-11-30T15:37:37.207Z,,,,1,-0.7809949855371787,0.8493861117004308,,,true,hl,9851.226000000024,response,1.2695509547992938,1.2,-1.2,-0.9641099676945492,1.2,-1.2,high,low,,ISIC_7450481.JPG,,ISIC_0025841.JPG,,26,true,0.3600000000000002,hl,keypress(j),0,false,471165.19999980927,471165,461263.837,461733.89999985695,461313.774,470716.003,1,40,28,
sequence,flow.Sequence,6_27,2023-11-30T15:37:37.207Z,,,,,,,,,,,9851.226000000024,completion,,,,,,,high,low,,,,,,,true,,,,,false,471165.89999985695,471165,461263.837,461733.89999985695,461313.774,470716.003,1,40,,
trial,html.Screen,6_28_0,2023-11-30T15:37:51.373Z,,,,1,0.858338058340649,-0.9540612223480284,,,true,lh,14615.79699995229,response,-0.8200962008791046,1.2,-1.2,0.7936051642828523,1.2,-1.2,low,high,,ISIC_8922893.JPG,,ISIC_0027031.JPG,,27,true,0.42000000000000026,lh,keypress(e),0,false,485331.89999985695,485331.7999999523,470682.069,471166.09999990463,470716.003,484876.322,1,40,29,
sequence,flow.Sequence,6_28,2023-11-30T15:37:51.373Z,,,,,,,,,,,14615.79699995229,completion,,,,,,,low,high,,,,,,,true,,,,,false,485332,485331.7999999523,470682.069,471166,470716.003,484876.322,1,40,,
trial,html.Screen,6_29_0,2023-11-30T15:38:06.135Z,,,,1,-1.4092385398614515,1.3046237992197836,,,true,hl,15216.97799995233,response,0.991282840649944,1.2,-1.2,-0.9397921099839784,1.2,-1.2,high,low,,ISIC_7254359.JPG,,ISIC_0000463.JPG,,26,true,0.3600000000000002,hl,keypress(j),0,false,500093.59999990463,500093.2999999523,484859.706,485332.09999990463,484876.322,499638.469,1,40,30,
sequence,flow.Sequence,6_29,2023-11-30T15:38:06.135Z,,,,,,,,,,,15216.97799995233,completion,,,,,,,high,low,,,,,,,true,,,,,false,500094,500093.2999999523,484859.706,485332,484876.322,499638.469,1,40,,
trial,html.Screen,6_30_0,2023-11-30T15:38:09.287Z,,,,1,-1.2952503640839694,-1.107234527385344,,,true,hh,3606.430999856966,response,0.9493297220358412,1.2,-1.2,0.9126122723623854,1.2,-1.2,high,high,,ISIC_0034134.JPG,,ISIC_9738202.JPG,,253,true,0.42000000000000026,hh,keypress(i),0,false,503245.19999980927,503244.89999985695,499621.852,500094.19999980927,499638.469,502811.293,1,40,31,
sequence,flow.Sequence,6_30,2023-11-30T15:38:09.287Z,,,,,,,,,,,3606.430999856966,completion,,,,,,,high,high,,,,,,,true,,,,,false,503245.69999980927,503244.89999985695,499621.852,500094.19999980927,499638.469,502811.293,1,40,,
trial,html.Screen,6_31_0,2023-11-30T15:38:12.551Z,,,,1,1.0858641668099058,1.1638942560200525,,,true,ll,3697.40699980926,response,-1.242586748440878,1.2,-1.2,-1.1207933200172129,1.2,-1.2,low,low,,ISIC_5439597.JPG,,ISIC_0013073.JPG,,30,true,0.1,ll,keypress(f),0,false,506509,506508.69999980927,502794.553,503245.89999985695,502811.293,506084.256,1,40,32,
sequence,flow.Sequence,6_31,2023-11-30T15:38:12.551Z,,,,,,,,,,,3697.40699980926,completion,,,,,,,low,low,,,,,,,true,,,,,false,506509.5,506508.69999980927,502794.553,503245.7999999523,502811.293,506084.256,1,40,,
trial,html.Screen,6_32_0,2023-11-30T15:38:21.328Z,,,,1,0.9579209317488,-1.0147487101263497,,,true,lh,9201.043999952322,response,-1.0115965332688306,1.2,-1.2,0.8282633603842442,1.2,-1.2,low,high,,ISIC_8124482.JPG,,ISIC_1069587.JPG,,27,true,0.42000000000000026,lh,keypress(e),0,false,515285.69999980927,515285.2999999523,506034.272,506509.69999980927,506084.256,514834.617,1,40,33,
sequence,flow.Sequence,6_32,2023-11-30T15:38:21.328Z,,,,,,,,,,,9201.043999952322,completion,,,,,,,low,high,,,,,,,true,,,,,false,515286.19999980927,515285.2999999523,506034.272,506509.69999980927,506084.256,514834.617,1,40,,
trial,html.Screen,6_33_0,2023-11-30T15:38:32.287Z,,,,1,-1.0264463986917702,1.2804054832904397,,,true,hl,11410.382999999973,response,1.2364994561934892,1.2,-1.2,-0.9174173651516624,1.2,-1.2,high,low,,ISIC_7889838.JPG,,ISIC_3481133.JPG,,26,true,0.3600000000000002,hl,keypress(j),0,false,526245.2999999523,526245,514818.046,515286.39999985695,514834.617,525789.334,1,40,34,
sequence,flow.Sequence,6_33,2023-11-30T15:38:32.288Z,,,,,,,,,,,11410.382999999973,completion,,,,,,,high,low,,,,,,,true,,,,,false,526245.7999999523,526245,514818.046,515286.39999985695,514834.617,525789.334,1,40,,
trial,html.Screen,6_34_0,2023-11-30T15:38:45.239Z,,,,1,-1.126264390089724,-1.271896565050952,,,true,hh,13407.465999952285,response,1.057008495826831,1.2,-1.2,1.1278122585028287,1.2,-1.2,high,high,,ISIC_1520897.JPG,,ISIC_2819798.JPG,,253,true,0.42000000000000026,hh,keypress(i),0,false,539197.0999999046,539196.7999999523,525772.657,526246,525789.334,538764.538,1,40,35,
sequence,flow.Sequence,6_34,2023-11-30T15:38:45.239Z,,,,,,,,,,,13407.465999952285,completion,,,,,,,high,high,,,,,,,true,,,,,false,539197.5999999046,539196.7999999523,525772.657,526246,525789.334,538764.538,1,40,,
trial,html.Screen,6_35_0,2023-11-30T15:38:57.847Z,,,,1,0.858338058340649,-0.9540612223480284,,,true,lh,13040.462000000058,response,-1.0264463986917702,1.2,-1.2,1.2804054832904397,1.2,-1.2,low,high,,ISIC_8922893.JPG,,ISIC_7889838.JPG,,27,true,0.42000000000000026,lh,keypress(e),0,false,551805.399999857,551805,538714.561,539197.899999857,538764.538,551356.862,1,40,36,
sequence,flow.Sequence,6_35,2023-11-30T15:38:57.848Z,,,,,,,,,,,13040.462000000058,completion,,,,,,,low,high,,,,,,,true,,,,,false,551805.7999999523,551805,538714.561,539197.7999999523,538764.538,551356.862,1,40,,
trial,html.Screen,6_36_0,2023-11-30T15:39:12.912Z,,,,1,-0.991146183030456,0.9949639823722534,,,true,hl,15512.237999904668,response,1.2364994561934892,1.2,-1.2,-0.9174173651516624,1.2,-1.2,high,low,,ISIC_6342224.JPG,,ISIC_3481133.JPG,,26,true,0.3600000000000002,hl,keypress(j),0,false,566869.399999857,566869.0999999046,551322.409,551806.0999999046,551356.862,566418.347,1,40,37,
sequence,flow.Sequence,6_36,2023-11-30T15:39:12.912Z,,,,,,,,,,,15512.237999904668,completion,,,,,,,high,low,,,,,,,true,,,,,false,566869.7999999523,566869.0999999046,551322.409,551806.0999999046,551356.862,566418.347,1,40,,
trial,html.Screen,6_37_0,2023-11-30T15:39:16.544Z,,,,1,-1.247270138097585,-1.1704704713504994,,,true,hh,4082.4529999523656,response,0.8323753563397326,1.2,-1.2,1.0355093302574103,1.2,-1.2,high,high,,ISIC_0065774.JPG,,ISIC_0046729.JPG,,253,true,0.42000000000000026,hh,keypress(i),0,false,570501.1999998093,570500.7999999523,566401.704,566870.1999998093,566418.347,570058.831,1,40,38,
sequence,flow.Sequence,6_37,2023-11-30T15:39:16.544Z,,,,,,,,,,,4082.4529999523656,completion,,,,,,,high,high,,,,,,,true,,,,,false,570501.5999999046,570500.7999999523,566401.704,566870,566418.347,570058.831,1,40,,
trial,html.Screen,6_38_0,2023-11-30T15:39:28.976Z,,,,1,1.131522954199764,1.1047184491749509,,,true,ll,12874.36899980926,response,-1.1474466950560966,1.2,-1.2,-1.268445326285509,1.2,-1.2,low,low,,ISIC_1868816.JPG,,ISIC_5216586.JPG,,30,true,0.1,ll,keypress(f),0,false,582933.5999999046,582933.1999998093,570025.61,570501.7999999523,570058.831,582483.067,1,40,39,
sequence,flow.Sequence,6_38,2023-11-30T15:39:28.977Z,,,,,,,,,,,12874.36899980926,completion,,,,,,,low,low,,,,,,,true,,,,,false,582934.0999999046,582933.1999998093,570025.61,570501.7999999523,570058.831,582483.067,1,40,,
trial,html.Screen,6_39_0,2023-11-30T15:39:31.784Z,,,,1,-1.2181031651370575,-1.2158573487067317,,,true,hh,3257.8329998569097,response,1.131522954199764,1.2,-1.2,1.1047184491749509,1.2,-1.2,high,high,,ISIC_7242312.JPG,,ISIC_1868816.JPG,,26,true,0.15000000000000002,hh,keypress(i),0,false,585741.2999999523,585740.899999857,582466.419,582934.5,582483.067,585288.692,1,40,40,
sequence,flow.Sequence,6_39,2023-11-30T15:39:31.784Z,,,,,,,,,,,3257.8329998569097,completion,,,,,,,high,high,,,,,,,true,,,,,false,585741.899999857,585740.899999857,582466.419,582934.2999999523,582483.067,585288.692,1,40,,
practice_loop,flow.Loop,6,2023-11-30T15:39:31.785Z,,,,,,,,,,,338410.3159998569,completion,,,,,,,,,,,,,,,true,,,,,false,585742.1999998093,585740.899999857,247297.413,247787.19999980927,247330.584,585288.692,1,40,,
stair_instructions,html.Screen,7,2023-11-30T15:39:35.406Z,,,,,,,,,,,4074.607999952277,response,,,,,,,,,,,,,,,,,continue,click button,,,589363.7999999523,589363.2999999523,585271.924,585742.399999857,585288.692,588912.981,,,,
trial,html.Screen,8_0_0,2023-11-30T15:39:50.142Z,,,,2,-0.0057914759495055,-0.0074667911845194,,0.05,false,hl,15186.018999999971,response,1.4747161152848791,1.2,-1.2,-0.847048591307387,1.2,-1.2,high,low,,ISIC_0058723.JPG,,ISIC_0016092.JPG,33,26,false,0.3600000000000002,lh,keypress(e),0,true,604099,604099,588878.935,589364,588912.981,603657.523,1,40,1,
sequence,flow.Sequence,8_0,2023-11-30T15:39:50.142Z,,,,,,,,,,,15186.018999999971,completion,,,,,,,high,low,,,,,,,false,,,,,true,604099.1999998093,604099,588878.935,589364,588912.981,603657.523,1,40,,
trial,html.Screen,8_1_0,2023-11-30T15:39:56.480Z,,,,2,0.0159061451859594,0.0296598845560212,,0.05,true,lh,6779.276999952272,response,-0.8816288864119318,1.2,-1.15,0.801867301188093,1.15,-1.2,low,high,,ISIC_0072564.JPG,,ISIC_9196783.JPG,33,27,false,0.3700000000000002,lh,keypress(e),0,true,610437.0999999046,610436.7999999523,603640.779,604099.1999998093,603657.523,609986.607,1,40,2,
sequence,flow.Sequence,8_1,2023-11-30T15:39:56.480Z,,,,,,,,,,,6779.276999952272,completion,,,,,,,low,high,,,,,,,false,,,,,true,610437.6999998093,610436.7999999523,603640.779,604099.1999998093,603657.523,609986.607,1,40,,
trial,html.Screen,8_2_0,2023-11-30T15:40:05.999Z,,,,2,-0.0070725527271049,-0.0049995141077508,,0.05,false,ll,9969.792999856989,response,-1.135372722680314,1.15,-1.15,-1.0926414044454305,1.15,-1.15,low,low,,ISIC_6124481.JPG,,ISIC_2355513.JPG,33,27,false,0.1,hh,keypress(i),0,true,619956.5999999046,619956.399999857,609969.969,610437.899999857,609986.607,619505.029,1,40,3,
sequence,flow.Sequence,8_2,2023-11-30T15:40:05.999Z,,,,,,,,,,,9969.792999856989,completion,,,,,,,low,low,,,,,,,false,,,,,true,619957,619956.399999857,609969.969,610437.7999999523,609986.607,619505.029,1,40,,
trial,html.Screen,8_3_0,2023-11-30T15:40:13.088Z,,,,2,0.0362376068089956,0.047825070846155,,0.05,false,lh,7539.870999856968,response,-0.7870237732709365,1.15,-1.15,0.9172955251119376,1.15,-1.15,low,high,,ISIC_6985114.JPG,,ISIC_0057716.JPG,33,27,false,0.3700000000000002,ll,keypress(f),0,true,627045.2999999523,627044.899999857,619488.474,619957.0999999046,619505.029,626602.169,1,40,4,
sequence,flow.Sequence,8_3,2023-11-30T15:40:13.089Z,,,,,,,,,,,7539.870999856968,completion,,,,,,,low,high,,,,,,,false,,,,,true,627045.899999857,627044.899999857,619488.474,619957.0999999046,619505.029,626602.169,1,40,,
trial,html.Screen,8_4_0,2023-11-30T15:40:25.815Z,,,,2,0,0.0264544974620926,,0.05,true,lh,13170.03099980927,response,-0.7809949855371787,1.15,-1.15,0.8493861117004308,1.15,-1.15,low,high,,ISIC_0056991.JPG,,ISIC_7450481.JPG,33,27,false,0.3700000000000002,lh,keypress(e),0,true,639772.1999998093,639772.1999998093,626568.932,627046,626602.169,639310.246,1,40,5,
sequence,flow.Sequence,8_4,2023-11-30T15:40:25.815Z,,,,,,,,,,,13170.03099980927,completion,,,,,,,low,high,,,,,,,false,,,,,true,639772.399999857,639772.1999998093,626568.932,627046,626602.169,639310.246,1,40,,
trial,html.Screen,8_5_0,2023-11-30T15:40:33.248Z,,,,2,0.000047919190197942736,0.0462652940855003,,0.05,false,hl,7894.953999809222,response,0.8979276789594874,1.15,-1.0999999999999999,-0.925374811016654,1.15,-1.15,high,low,,ISIC_0011507.JPG,,ISIC_4208361.JPG,33,25,false,0.31000000000000016,hh,keypress(i),0,true,647205.399999857,647205.1999998093,639293.693,639772.5,639310.246,646741.379,1,40,6,
sequence,flow.Sequence,8_5,2023-11-30T15:40:33.249Z,,,,,,,,,,,7894.953999809222,completion,,,,,,,high,low,,,,,,,false,,,,,true,647206,647205.1999998093,639293.693,639772.399999857,639310.246,646741.379,1,40,,
trial,html.Screen,8_6_0,2023-11-30T15:40:35.512Z,,,,2,0.000047919190197942736,0.0462652940855003,,0.05,true,hh,2727.7209999046754,response,1.1388430156686884,1.15,-1.0999999999999999,1.2700552354887775,1.15,-1.15,high,high,,ISIC_0011507.JPG,,ISIC_9939653.JPG,33,30,false,0.13,hh,keypress(i),0,true,649469.399999857,649469.0999999046,646724.85,647206.1999998093,646741.379,649012.468,1,40,7,
sequence,flow.Sequence,8_6,2023-11-30T15:40:35.513Z,,,,,,,,,,,2727.7209999046754,completion,,,,,,,high,high,,,,,,,false,,,,,true,649470,649469.0999999046,646724.85,647206.0999999046,646741.379,649012.468,1,40,,
trial,html.Screen,8_7_0,2023-11-30T15:40:51.189Z,,,,2,-0.0107854985447517,-0.0478010417136109,,0.05,,,15680.496999999974,timeout,-1.0377676235641546,1.0339914572241324,-1.0999999999999999,-1.0836906473836847,1.0339914572241324,-1.15,low,low,,ISIC_0010500.JPG,,ISIC_0010540.JPG,33,30,false,0.11,,,0,true,665146,665145.5,648995.763,649470.2999999523,649012.468,664692.965,1,40,8,
sequence,flow.Sequence,8_7,2023-11-30T15:40:51.190Z,,,,,,,,,,,16133.032000000007,completion,,,,,,,low,low,,,,,,,false,,,,,true,665146.6999998093,665145.5,648995.763,649470.1999998093,649012.468,664692.965,1,40,,
trial,html.Screen,8_8_0,2023-11-30T15:40:53.559Z,,,,2,0.0277178575053843,-0.0395587463147856,,0.05,false,ll,2822.834999952349,response,-1.101346104814838,1.0339914572241324,-1.0999999999999999,-1.1225813067473052,1.0339914572241324,-1.15,low,low,,ISIC_0010807.JPG,,ISIC_8175453.JPG,33,30,false,0.11,hl,keypress(j),0,true,667515.7999999523,667515.7999999523,664676.339,665147.0999999046,664692.965,667064.269,1,40,9,
sequence,flow.Sequence,8_8,2023-11-30T15:40:53.559Z,,,,,,,,,,,2822.834999952349,completion,,,,,,,low,low,,,,,,,false,,,,,true,667516,667515.7999999523,664676.339,665147,664692.965,667064.269,1,40,,
trial,html.Screen,8_9_0,2023-11-30T15:40:58.568Z,,,,2,-0.0217698886732706,0.0410870915161425,,0.05,false,hl,5460.830999904661,response,0.991282840649944,1.0339914572241324,-1.15,-0.9397921099839784,1.0339914572241324,-1.15,high,low,,ISIC_0072173.JPG,,ISIC_0000463.JPG,33,25,false,0.27000000000000013,hh,keypress(i),0,true,672525.399999857,672525.0999999046,667047.628,667516.0999999046,667064.269,672074.126,1,40,10,
sequence,flow.Sequence,8_9,2023-11-30T15:40:58.569Z,,,,,,,,,,,5460.830999904661,completion,,,,,,,high,low,,,,,,,false,,,,,true,672525.899999857,672525.0999999046,667047.628,667516,667064.269,672074.126,1,40,,
trial,html.Screen,8_10_0,2023-11-30T15:41:03.553Z,,,,2,0.0188047466661863,-0.0288346930436979,,0.05,true,ll,5435.173999952269,response,-1.0698162624196283,1.0339914572241324,-1.15,-1.219634566983089,1.0339914572241324,-1.15,low,low,,ISIC_0014157.JPG,,ISIC_0030552.JPG,33,27,false,0.1,ll,keypress(f),0,true,677509.5,677509.2999999523,672057.313,672526.0999999046,672074.126,677050.453,1,40,11,
sequence,flow.Sequence,8_10,2023-11-30T15:41:03.553Z,,,,,,,,,,,5435.173999952269,completion,,,,,,,low,low,,,,,,,false,,,,,true,677510.1999998093,677509.2999999523,672057.313,672526.0999999046,672074.126,677050.453,1,40,,
trial,html.Screen,8_11_0,2023-11-30T15:41:05.983Z,,,,2,0.0245376145053177,-0.0436993426328401,,0.05,true,hh,2889.846999952337,response,1.0097932576366906,1.0339914572241324,-1.15,1.0644834610939486,1.0339914572241324,-1.15,high,high,,ISIC_0056444.JPG,,ISIC_8559515.JPG,33,31,false,0.1,hh,keypress(i),0,true,679940.399999857,679940.2999999523,677033.854,677510.399999857,677050.453,679488.728,1,40,12,
sequence,flow.Sequence,8_11,2023-11-30T15:41:05.984Z,,,,,,,,,,,2889.846999952337,completion,,,,,,,high,high,,,,,,,false,,,,,true,679940.5999999046,679940.2999999523,677033.854,677510.2999999523,677050.453,679488.728,1,40,,
trial,html.Screen,8_12_0,2023-11-30T15:41:08.024Z,,,,2,0.0409338693593207,-0.0072462710499874,,0.05,true,hh,2492.37199990463,response,0.9071602543711612,0.9871383593653196,-1.15,1.073798502866343,1.0339914572241324,-1.15,high,high,,ISIC_3608788.JPG,,ISIC_6676776.JPG,33,31,false,0.1,hh,keypress(i),0,true,681981.399999857,681981.0999999046,679471.991,679940.6999998093,679488.728,681559.149,1,40,13,
sequence,flow.Sequence,8_12,2023-11-30T15:41:08.025Z,,,,,,,,,,,2492.37199990463,completion,,,,,,,high,high,,,,,,,false,,,,,true,681982,681981.0999999046,679471.991,679940.6999998093,679488.728,681559.149,1,40,,
trial,html.Screen,8_13_0,2023-11-30T15:41:12.120Z,,,,2,-0.0070725527271049,-0.0049995141077508,,0.05,true,lh,4517.950999904657,response,-1.0164576835546473,0.9871383593653196,-1.15,0.8120626538423016,0.9404793786187521,-1.15,low,high,,ISIC_6124481.JPG,,ISIC_6002694.JPG,33,29,false,0.31000000000000016,lh,keypress(e),0,true,686077.399999857,686077.0999999046,681509.031,681982.1999998093,681559.149,685617.031,1,40,14,
sequence,flow.Sequence,8_13,2023-11-30T15:41:12.121Z,,,,,,,,,,,4517.950999904657,completion,,,,,,,low,high,,,,,,,false,,,,,true,686078,686077.0999999046,681509.031,681982.1999998093,681559.149,685617.031,1,40,,
trial,html.Screen,8_14_0,2023-11-30T15:41:14.449Z,,,,2,-0.0116094682222121,0.0258434522530318,,0.05,true,hh,2788.2689999523573,response,1.008381128411934,0.9871383593653196,-1.0999999999999999,1.0088020117106191,0.9404793786187521,-1.15,high,high,,ISIC_9239632.JPG,,ISIC_6546903.JPG,33,39,false,0.1,hh,keypress(i),0,true,688405.5999999046,688405.2999999523,685600.553,686078.1999998093,685617.031,687971.897,1,40,15,
sequence,flow.Sequence,8_14,2023-11-30T15:41:14.449Z,,,,,,,,,,,2788.2689999523573,completion,,,,,,,high,high,,,,,,,false,,,,,true,688406.0999999046,688405.2999999523,685600.553,686078.0999999046,685617.031,687971.897,1,40,,
trial,html.Screen,8_15_0,2023-11-30T15:41:20.463Z,,,,2,0.013431314305098,-0.0140597582944232,,0.05,true,ll,6447.902999952319,response,-1.0910404089869363,0.8604323327764603,-1.0999999999999999,-1.119702461098404,0.8604323327764603,-1.15,low,low,,ISIC_0069617.JPG,,ISIC_0067097.JPG,33,30,false,0.11,ll,keypress(f),0,true,694419.899999857,694419.7999999523,687955.175,688406.399999857,687971.897,693966.82,1,40,16,
sequence,flow.Sequence,8_15,2023-11-30T15:41:20.463Z,,,,,,,,,,,6447.902999952319,completion,,,,,,,low,low,,,,,,,false,,,,,true,694420.0999999046,694419.7999999523,687955.175,688406.2999999523,687971.897,693966.82,1,40,,
trial,html.Screen,8_16_0,2023-11-30T15:41:26.544Z,,,,2,-0.0329095507339554,0.0382899749693245,,0.05,true,ll,6534.379999809316,response,-1.1383813631375823,0.8604323327764603,-1.0999999999999999,-1.1319312220332556,0.8604323327764603,-1.0553714350426702,low,low,,ISIC_8812781.JPG,,ISIC_6227397.JPG,33,29,false,0.1,ll,keypress(f),0,true,700501.5999999046,700501.1999998093,693949.999,694420.0999999046,693966.82,700045.145,1,40,17,
sequence,flow.Sequence,8_16,2023-11-30T15:41:26.545Z,,,,,,,,,,,6534.379999809316,completion,,,,,,,low,low,,,,,,,false,,,,,true,700502.1999998093,700501.1999998093,693949.999,694420.0999999046,693966.82,700045.145,1,40,,
trial,html.Screen,8_17_0,2023-11-30T15:41:29.137Z,,,,2,-0.0450282431170921,0,,0.05,false,hl,3048.0549998092465,response,0.869932994914832,0.8604323327764603,-1.0851562925854188,-0.8880533324432531,0.8604323327764603,-1.0553714350426702,high,low,,ISIC_1805163.JPG,,ISIC_8617084.JPG,33,25,false,0.17000000000000004,ll,keypress(f),0,true,703093.5,703093.1999998093,700028.633,700502.399999857,700045.145,702633.507,1,40,18,
sequence,flow.Sequence,8_17,2023-11-30T15:41:29.137Z,,,,,,,,,,,3048.0549998092465,completion,,,,,,,high,low,,,,,,,false,,,,,true,703094.0999999046,703093.1999998093,700028.633,700502.2999999523,700045.145,702633.507,1,40,,
trial,html.Screen,8_18_0,2023-11-30T15:41:35.145Z,,,,2,-0.0057914759495055,-0.0074667911845194,,0.05,false,lh,6467.692999809282,response,-1.2429840165564423,0.9104323327764603,-1.0851562925854188,0.7308963943423881,0.8604323327764603,-0.9599922772382543,low,high,,ISIC_0058723.JPG,,ISIC_1264576.JPG,33,26,false,0.2300000000000001,ll,keypress(f),0,true,709101.5999999046,709101.1999998093,702616.978,703094.399999857,702633.507,708645.185,1,40,19,
sequence,flow.Sequence,8_18,2023-11-30T15:41:35.145Z,,,,,,,,,,,6467.692999809282,completion,,,,,,,low,high,,,,,,,false,,,,,true,709102.1999998093,709101.1999998093,702616.978,703094.2999999523,702633.507,708645.185,1,40,,
trial,html.Screen,8_19_0,2023-11-30T15:41:37.911Z,,,,2,0.013431314305098,-0.0140597582944232,,0.05,true,hh,3222.9149999045767,response,0.8463538475082831,0.9104323327764603,-1.0851562925854188,0.8806175558408877,0.9104323327764603,-0.9599922772382543,high,high,,ISIC_0069617.JPG,,ISIC_8916136.JPG,33,44,false,0.1,hh,keypress(i),0,true,711868.2999999523,711868.0999999046,708628.583,709102.399999857,708645.185,711417.625,1,40,20,
sequence,flow.Sequence,8_19,2023-11-30T15:41:37.911Z,,,,,,,,,,,3222.9149999045767,completion,,,,,,,high,high,,,,,,,false,,,,,true,711868.399999857,711868.0999999046,708628.583,709102.2999999523,708645.185,711417.625,1,40,,
trial,html.Screen,8_20_0,2023-11-30T15:41:39.848Z,,,,2,-0.0050679133050021,0.0009714874637896,,0.05,false,hl,2387.375,response,0.8860551570327019,0.9104323327764603,-1.0851562925854188,-0.8067116931297591,0.9104323327764603,-0.9599922772382543,high,low,,ISIC_9848743.JPG,,ISIC_1457687.JPG,33,27,false,0.18000000000000005,hh,keypress(i),0,true,713805.2999999523,713805,711383.859,711868.399999857,711417.625,713354.482,1,40,21,
sequence,flow.Sequence,8_20,2023-11-30T15:41:39.849Z,,,,,,,,,,,2387.375,completion,,,,,,,high,low,,,,,,,false,,,,,true,713805.899999857,713805,711383.859,711868.399999857,711417.625,713354.482,1,40,,
trial,html.Screen,8_21_0,2023-11-30T15:41:48.504Z,,,,2,0.0277178575053843,-0.0395587463147856,,0.05,false,hl,9106.617999904673,response,0.7836356408583546,0.8333363564367948,-1.0851562925854188,-1.1197925594706428,0.9104323327764603,-1.0099922772382544,high,low,,ISIC_0010807.JPG,,ISIC_0024961.JPG,33,27,false,0.16000000000000003,hh,keypress(i),0,true,722461.399999857,722461.0999999046,713337.913,713806.0999999046,713354.482,722004.502,1,40,22,
sequence,flow.Sequence,8_21,2023-11-30T15:41:48.505Z,,,,,,,,,,,9106.617999904673,completion,,,,,,,high,low,,,,,,,false,,,,,true,722462,722461.0999999046,713337.913,713806.0999999046,713354.482,722004.502,1,40,,
trial,html.Screen,8_22_0,2023-11-30T15:41:50.903Z,,,,2,-0.0027483411352856,-0.0100996915276271,,0.05,true,hh,2855.597999904654,response,0.9191486333136276,0.8333363564367948,-1.0851562925854188,1.001866590114321,0.9104323327764603,-1.0599922772382544,high,high,,ISIC_7364041.JPG,,ISIC_0663941.JPG,33,43,false,0.1,hh,keypress(i),0,true,724860.1999998093,724860.0999999046,721987.882,722462.1999998093,722004.502,724409.589,1,40,23,
sequence,flow.Sequence,8_22,2023-11-30T15:41:50.903Z,,,,,,,,,,,2855.597999904654,completion,,,,,,,high,high,,,,,,,false,,,,,true,724860.5,724860.0999999046,721987.882,722462.1999998093,722004.502,724409.589,1,40,,
trial,html.Screen,8_23_0,2023-11-30T15:41:53.935Z,,,,2,0.0113873532168551,0.0054999201556291,,0.05,true,ll,3482.3109998569125,response,-1.1383813631375823,0.8427511154863379,-1.0851562925854188,-1.1319312220332556,0.8427511154863379,-1.0599922772382544,low,low,,ISIC_8812621.JPG,,ISIC_6227397.JPG,33,30,false,0.1,ll,keypress(f),0,true,727892,727891.899999857,724375.834,724860.5999999046,724409.589,727431.777,1,40,24,
sequence,flow.Sequence,8_23,2023-11-30T15:41:53.935Z,,,,,,,,,,,3482.3109998569125,completion,,,,,,,low,low,,,,,,,false,,,,,true,727892.0999999046,727891.899999857,724375.834,724860.5999999046,724409.589,727431.777,1,40,,
trial,html.Screen,8_24_0,2023-11-30T15:41:59.800Z,,,,2,-0.0324770283903853,-0.0249968632204382,,0.05,false,hh,6325.422999809263,response,0.9416900312335138,0.8427511154863379,-1.0851562925854188,0.8071149391753215,0.8427511154863379,-1.0599922772382544,high,high,,ISIC_7266462.JPG,,ISIC_2784686.JPG,33,52,false,0.1,ll,keypress(f),0,true,733757.5,733757.1999998093,727415.277,727892.2999999523,727431.777,733293.189,1,40,25,
sequence,flow.Sequence,8_24,2023-11-30T15:41:59.801Z,,,,,,,,,,,6325.422999809263,completion,,,,,,,high,high,,,,,,,false,,,,,true,733758.0999999046,733757.1999998093,727415.277,727892.2999999523,727431.777,733293.189,1,40,,
trial,html.Screen,8_25_0,2023-11-30T15:42:07.879Z,,,,2,0.0051189696037511,-0.0396625911332438,,0.05,false,hl,8542.510999809252,response,0.858338058340649,0.8927511154863379,-1.0851562925854188,-0.9540612223480284,0.8927511154863379,-1.0599922772382544,high,low,,ISIC_9742891.JPG,,ISIC_8922893.JPG,33,29,false,0.20000000000000007,hh,keypress(i),0,true,741835.7999999523,741835.6999998093,733276.512,733758.2999999523,733293.189,741375.586,1,40,26,
sequence,flow.Sequence,8_25,2023-11-30T15:42:07.879Z,,,,,,,,,,,8542.510999809252,completion,,,,,,,high,low,,,,,,,false,,,,,true,741835.899999857,741835.6999998093,733276.512,733758.1999998093,733293.189,741375.586,1,40,,
trial,html.Screen,8_26_0,2023-11-30T15:42:20.242Z,,,,2,-0.0070725527271049,-0.0049995141077508,,0.05,false,hl,12822.113999809255,response,0.9433720631499012,0.8927511154863379,-1.0851562925854188,-1.0582071940347648,0.8927511154863379,-1.1099922772382544,high,low,,ISIC_6124481.JPG,,ISIC_4890201.JPG,33,28,false,0.20000000000000007,ll,keypress(f),0,true,754198,754197.6999998093,741359.08,741836,741375.586,753749.678,1,40,27,
sequence,flow.Sequence,8_26,2023-11-30T15:42:20.243Z,,,,,,,,,,,12822.113999809255,completion,,,,,,,high,low,,,,,,,false,,,,,true,754198.5999999046,754197.6999998093,741359.08,741836,741375.586,753749.678,1,40,,
trial,html.Screen,8_27_0,2023-11-30T15:42:24.104Z,,,,2,-0.0389988030702649,-0.0143212271490256,,0.05,false,lh,4310.322000000044,response,-1.031415631053946,0.9427511154863379,-1.0851562925854188,0.6661096126601223,0.8927511154863379,-1.1099922772382544,low,high,,ISIC_0064669.JPG,,ISIC_8976269.JPG,33,25,false,0.2400000000000001,ll,keypress(f),0,true,758060.0999999046,758060,753716.154,754198.899999857,753749.678,757607.374,1,40,28,
sequence,flow.Sequence,8_27,2023-11-30T15:42:24.104Z,,,,,,,,,,,4310.322000000044,completion,,,,,,,low,high,,,,,,,false,,,,,true,758060.1999998093,758060,753716.154,754198.7999999523,753749.678,757607.374,1,40,,
trial,html.Screen,8_28_0,2023-11-30T15:42:32.594Z,,,,2,0.0362376068089956,0.047825070846155,,0.05,false,hh,8941.925999952364,response,0.9191486333136276,0.9427511154863379,-1.0851562925854188,1.001866590114321,0.9427511154863379,-1.1099922772382544,high,high,,ISIC_6985114.JPG,,ISIC_0663941.JPG,33,43,false,0.1,ll,keypress(f),0,true,766549.5999999046,766549.2999999523,757590.689,758060.2999999523,757607.374,766090.328,1,40,29,
sequence,flow.Sequence,8_28,2023-11-30T15:42:32.594Z,,,,,,,,,,,8941.925999952364,completion,,,,,,,high,high,,,,,,,false,,,,,true,766550.0999999046,766549.2999999523,757590.689,758060.2999999523,757607.374,766090.328,1,40,,
trial,html.Screen,8_29_0,2023-11-30T15:42:40.394Z,,,,2,0.000047919190197942736,0.0462652940855003,,0.05,true,hh,8258.971999952337,response,0.9525123994269484,0.992751115486338,-1.0851562925854188,1.0779941204178511,0.992751115486338,-1.1099922772382544,high,high,,ISIC_0011507.JPG,,ISIC_0009642.JPG,33,37,false,0.1,hh,keypress(i),0,true,774349.5999999046,774349.2999999523,766073.805,766550.399999857,766090.328,773888.874,1,40,30,
sequence,flow.Sequence,8_29,2023-11-30T15:42:40.394Z,,,,,,,,,,,8258.971999952337,completion,,,,,,,high,high,,,,,,,false,,,,,true,774350.1999998093,774349.2999999523,766073.805,766550.2999999523,766090.328,773888.874,1,40,,
trial,html.Screen,8_30_0,2023-11-30T15:42:43.570Z,,,,2,-0.0450282431170921,0,,0.05,false,hl,3636.6260000000475,response,1.2364994561934892,0.992751115486338,-1.0851562925854188,-0.9174173651516624,0.992751115486338,-1.1099922772382544,high,low,,ISIC_1805163.JPG,,ISIC_3481133.JPG,33,26,false,0.2500000000000001,ll,keypress(f),0,true,777525.7999999523,777525.5,773872.152,774350.5,773888.874,777078.425,1,40,31,
sequence,flow.Sequence,8_30,2023-11-30T15:42:43.570Z,,,,,,,,,,,3636.6260000000475,completion,,,,,,,high,low,,,,,,,false,,,,,true,777526.2999999523,777525.5,773872.152,774350.399999857,773888.874,777078.425,1,40,,
trial,html.Screen,8_31_0,2023-11-30T15:42:49.481Z,,,,2,-0.0107854985447517,-0.0478010417136109,,0.05,true,lh,6358.674999904586,response,-0.9235571765207048,1.042751115486338,-1.0851562925854188,1.0008081653938232,0.992751115486338,-1.0599922772382544,low,high,,ISIC_0010500.JPG,,ISIC_8796632.JPG,33,28,false,0.29000000000000015,lh,keypress(e),0,true,783437.399999857,783437.0999999046,777045.244,777526.5,777078.425,782973.2,1,40,32,
sequence,flow.Sequence,8_31,2023-11-30T15:42:49.482Z,,,,,,,,,,,6358.674999904586,completion,,,,,,,low,high,,,,,,,false,,,,,true,783438,783437.0999999046,777045.244,777526.399999857,777078.425,782973.2,1,40,,
trial,html.Screen,8_32_0,2023-11-30T15:42:53.465Z,,,,2,0.0188047466661863,-0.0288346930436979,,0.05,true,ll,4447.199999856995,response,-1.0130095662293503,1.042751115486338,-1.0351562925854187,-1.098939882801048,0.9894011429058371,-1.0599922772382544,low,low,,ISIC_0014157.JPG,,ISIC_0059897.JPG,33,31,false,0.1,ll,keypress(f),0,true,787420.5999999046,787420.399999857,782956.771,783438.1999998093,782973.2,786964.456,1,40,33,
sequence,flow.Sequence,8_32,2023-11-30T15:42:53.465Z,,,,,,,,,,,4447.199999856995,completion,,,,,,,low,low,,,,,,,false,,,,,true,787420.899999857,787420.399999857,782956.771,783438.0999999046,782973.2,786964.456,1,40,,
trial,html.Screen,8_33_0,2023-11-30T15:43:07.768Z,,,,2,-0.0456515796420274,0.0273567130070961,,0.05,false,ll,14759.143999904627,response,-1.0678895386758027,1.042751115486338,-1.0351562925854187,-1.0279759018569252,0.9894011429058371,-1.0599922772382544,low,low,,ISIC_0068610.JPG,,ISIC_0069933.JPG,33,31,false,0.1,hl,keypress(j),0,true,801723.6999998093,801723.5999999046,786947.61,787421,786964.456,801258.814,1,40,34,
sequence,flow.Sequence,8_33,2023-11-30T15:43:07.768Z,,,,,,,,,,,14759.143999904627,completion,,,,,,,low,low,,,,,,,false,,,,,true,801723.7999999523,801723.5999999046,786947.61,787421,786964.456,801258.814,1,40,,
trial,html.Screen,8_34_0,2023-11-30T15:43:12.888Z,,,,2,-0.0217698886732706,0.0410870915161425,,0.05,true,hh,5584.7859999046195,response,1.0270718265914571,1.042751115486338,-1.0851562925854188,0.9536353804316964,0.9894011429058371,-1.0134578923289865,high,high,,ISIC_0072173.JPG,,ISIC_3431915.JPG,33,34,false,0.1,hh,keypress(i),0,true,806843.7999999523,806843.5999999046,801242.217,801723.899999857,801258.814,806385.464,1,40,35,
sequence,flow.Sequence,8_34,2023-11-30T15:43:12.888Z,,,,,,,,,,,5584.7859999046195,completion,,,,,,,high,high,,,,,,,false,,,,,true,806843.899999857,806843.5999999046,801242.217,801723.7999999523,801258.814,806385.464,1,40,,
trial,html.Screen,8_35_0,2023-11-30T15:43:22.651Z,,,,2,-0.0050679133050021,0.0009714874637896,,0.05,false,ll,10220.235999809229,response,-1.0130095662293503,1.042751115486338,-1.0851562925854188,-1.098939882801048,0.9894011429058371,-1.0134578923289865,low,low,,ISIC_9848743.JPG,,ISIC_0059897.JPG,33,31,false,0.1,lh,keypress(e),0,true,816606.0999999046,816605.6999998093,806368.716,806843.899999857,806385.464,816154.461,1,40,36,
sequence,flow.Sequence,8_35,2023-11-30T15:43:22.651Z,,,,,,,,,,,10220.235999809229,completion,,,,,,,low,low,,,,,,,false,,,,,true,816606.5999999046,816605.6999998093,806368.716,806843.899999857,806385.464,816154.461,1,40,,
trial,html.Screen,8_36_0,2023-11-30T15:43:33.314Z,,,,2,0.0112310719058792,-0.0469047359904117,,0.05,false,lh,11114.938999856939,response,-0.8035152873995188,1.042751115486338,-1.0851562925854188,0.82868450251632,0.9894011429058371,-1.0634578923289866,low,high,,ISIC_0068184.JPG,,ISIC_0010671.JPG,33,27,false,0.29000000000000015,hh,keypress(i),0,true,827269.7999999523,827269.399999857,816137.823,816606.7999999523,816154.461,826841.939,1,40,37,
sequence,flow.Sequence,8_36,2023-11-30T15:43:33.315Z,,,,,,,,,,,11114.938999856939,completion,,,,,,,low,high,,,,,,,false,,,,,true,827270.2999999523,827269.399999857,816137.823,816606.7999999523,816154.461,826841.939,1,40,,
trial,html.Screen,8_37_0,2023-11-30T15:43:36.010Z,,,,2,-0.0217698886732706,0.0410870915161425,,0.05,false,hl,3123.1609999046195,response,1.011737552725394,1.042751115486338,-1.1351562925854188,-0.8500530224490773,0.9394011429058371,-1.0634578923289866,high,low,,ISIC_0072173.JPG,,ISIC_2998367.JPG,33,30,false,0.2600000000000001,hh,keypress(i),0,true,829965.399999857,829965.0999999046,826791.886,827270.5999999046,826841.939,829513.809,1,40,38,
sequence,flow.Sequence,8_37,2023-11-30T15:43:36.011Z,,,,,,,,,,,3123.1609999046195,completion,,,,,,,high,low,,,,,,,false,,,,,true,829966,829965.0999999046,826791.886,827270.5,826841.939,829513.809,1,40,,
trial,html.Screen,8_38_0,2023-11-30T15:43:45.738Z,,,,2,-0.0329095507339554,0.0382899749693245,,0.05,true,lh,10179.690999999992,response,-0.9014321140874824,0.992751115486338,-1.1351562925854188,0.7062038626894745,0.9394011429058371,-1.1134578923289866,low,high,,ISIC_8812781.JPG,,ISIC_3654454.JPG,33,25,false,0.29000000000000015,lh,keypress(e),0,true,839693.7999999523,839693.5,829497.226,829966.1999998093,829513.809,839249.427,1,40,39,
sequence,flow.Sequence,8_38,2023-11-30T15:43:45.739Z,,,,,,,,,,,10179.690999999992,completion,,,,,,,low,high,,,,,,,false,,,,,true,839694.399999857,839693.5,829497.226,829966.0999999046,829513.809,839249.427,1,40,,
trial,html.Screen,8_39_0,2023-11-30T15:43:51.417Z,,,,2,0.0362376068089956,0.047825070846155,,0.05,false,lh,6122.572999999975,response,-1.0122398223568725,0.992751115486338,-1.1351562925854188,0.7505228537454216,0.9394011429058371,-1.1134578923289866,low,high,,ISIC_6985114.JPG,,ISIC_0033802.JPG,33,25,false,0.29000000000000015,ll,keypress(f),0,true,845372.1999998093,845372,839216.18,839694.5999999046,839249.427,844910.455,1,40,40,
sequence,flow.Sequence,8_39,2023-11-30T15:43:51.417Z,,,,,,,,,,,6122.572999999975,completion,,,,,,,low,high,,,,,,,false,,,,,true,845372.2999999523,845372,839216.18,839694.5,839249.427,844910.455,1,40,,
stair_loop,flow.Loop,8,2023-11-30T15:43:51.417Z,,,,,,,,,,,256459.01899999997,completion,,,,,,,,,,,,,,,false,,,,,true,845372.2999999523,845372,588878.935,589364,588912.981,844910.455,1,40,,
exp_instructions,html.Screen,9,2023-11-30T15:43:54.233Z,,,,,,,,,,,3277.545000000042,response,,,,,,,,,,,,,,,,,continue,keypress(Space),,,848188.7999999523,848188,844893.933,845372.5,844910.455,847732.616,,,,
trial,html.Screen,10_0_0,2023-11-30T15:44:01.608Z,,,,1,-0.0027483411352856,-0.0100996915276271,,0.05,false,hl,7831.083999809227,response,1.0751036484083878,0.9601937004458898,-1.0876562925854187,-1.143906455483852,0.9390633090476561,-1.0660319617654743,high,low,,ISIC_7364041.JPG,9,ISIC_0064406.JPG,33,27,false,0.2300000000000001,ll,keypress(f),0,false,855563.7999999523,855563.6999998093,847715.912,848189.1999998093,847732.616,855096.946,5,600,1,
break,html.Screen,10_0_1,2023-11-30T15:44:01.609Z,,,,,,,,,,,NaN,,,,,,,,high,low,,,,,,,false,,,,,false,855564.2999999523,855564.0999999046,,855564,,855096.946,5,600,,
break_continue,html.Screen,10_0_2,2023-11-30T15:44:01.609Z,,,,,,,,,,,NaN,,,,,,,,high,low,,,,,,,false,,,,,false,855564.5,855564.399999857,,855564.2999999523,,855096.946,5,600,,
sequence,flow.Sequence,10_0,2023-11-30T15:44:01.609Z,,,,,,,,,,,7831.783999856911,completion,,,,,,,high,low,,,,,,,false,,,,,false,855564.6999998093,855564.399999857,847715.912,848189.0999999046,847732.616,855096.946,5,600,,
trial,html.Screen,10_1_0,2023-11-30T15:44:09.538Z,,,,1,0.0113873532168551,0.0054999201556291,,0.05,false,hh,8395.753999809269,response,1.0014506884079168,0.9601937004458898,-1.0876562925854187,0.8483652665994107,0.9390633090476561,-1.0660319617654743,high,high,,ISIC_8812621.JPG,8,ISIC_1110583.JPG,33,43,false,0.1,hl,keypress(j),0,false,863492.899999857,863492.6999998093,855080.35,855564.6999998093,855096.946,863045.765,5,600,2,
break,html.Screen,10_1_1,2023-11-30T15:44:09.539Z,,,,,,,,,,,NaN,,,,,,,,high,high,,,,,,,false,,,,,false,863494,863493.5999999046,,863493.1999998093,,863045.765,5,600,,
break_continue,html.Screen,10_1_2,2023-11-30T15:44:09.539Z,,,,,,,,,,,NaN,,,,,,,,high,high,,,,,,,false,,,,,false,863494.6999998093,863494.399999857,,863494.1999998093,,863045.765,5,600,,
sequence,flow.Sequence,10_1,2023-11-30T15:44:09.539Z,,,,,,,,,,,8397.453999856953,completion,,,,,,,high,high,,,,,,,false,,,,,false,863494.7999999523,863494.399999857,855080.35,855564.6999998093,855096.946,863045.765,5,600,,
trial,html.Screen,10_2_0,2023-11-30T15:44:13.939Z,,,,1,0.0159061451859594,0.0296598845560212,,0.05,false,lh,4847.634999856935,response,-1.0748728054622358,0.9601937004458898,-1.0876562925854187,0.6883893701485907,0.9390633090476561,-1.0660319617654743,low,high,,ISIC_0072564.JPG,10,ISIC_0059219.JPG,33,25,false,0.2600000000000001,hh,keypress(i),0,false,867893.6999998093,867893.399999857,863012.527,863495,863045.765,867437.642,5,600,3,
break,html.Screen,10_2_1,2023-11-30T15:44:13.940Z,,,,,,,,,,,NaN,,,,,,,,low,high,,,,,,,false,,,,,false,867895,867894.6999998093,,867894.1999998093,,867437.642,5,600,,
break_continue,html.Screen,10_2_2,2023-11-30T15:44:13.941Z,,,,,,,,,,,NaN,,,,,,,,low,high,,,,,,,false,,,,,false,867895.6999998093,867895.399999857,,867895.1999998093,,867437.642,5,600,,
sequence,flow.Sequence,10_2,2023-11-30T15:44:13.941Z,,,,,,,,,,,4849.634999856935,completion,,,,,,,low,high,,,,,,,false,,,,,false,867896.0999999046,867895.399999857,863012.527,863495,863045.765,867437.642,5,600,,
trial,html.Screen,10_3_0,2023-11-30T15:44:24.955Z,,,,1,-0.0107854985447517,-0.0478010417136109,,0.05,true,lh,11471.557999809273,response,-1.0645919307156395,0.9601937004458898,-1.0876562925854187,0.7087706688259032,0.9390633090476561,-1.0660319617654743,low,high,,ISIC_0010500.JPG,9,ISIC_0031575.JPG,33,25,false,0.2600000000000001,lh,keypress(e),0,false,878909.5999999046,878909.1999998093,867421.149,867896.2999999523,867437.642,878460.151,5,600,4,
break,html.Screen,10_3_1,2023-11-30T15:44:24.956Z,,,,,,,,,,,NaN,,,,,,,,low,high,,,,,,,false,,,,,false,878910.7999999523,878910.5,,878909.899999857,,878460.151,5,600,,
break_continue,html.Screen,10_3_2,2023-11-30T15:44:24.957Z,,,,,,,,,,,NaN,,,,,,,,low,high,,,,,,,false,,,,,false,878911.5999999046,878911.399999857,,878911.0999999046,,878460.151,5,600,,
sequence,flow.Sequence,10_3,2023-11-30T15:44:24.957Z,,,,,,,,,,,11473.757999856956,completion,,,,,,,low,high,,,,,,,false,,,,,false,878912,878911.399999857,867421.149,867896.1999998093,867437.642,878460.151,5,600,,
trial,html.Screen,10_4_0,2023-11-30T15:44:34.579Z,,,,1,0.0102460616775615,-0.0309670599545429,,0.05,true,lh,10072.948999904678,response,-1.0213365328004047,0.9601937004458898,-1.0876562925854187,1.088524359911891,0.9390633090476561,-1.0660319617654743,low,high,,ISIC_0072041.JPG,8,ISIC_5434229.JPG,33,25,false,0.2600000000000001,lh,keypress(e),0,false,888533.5,888533.0999999046,878425.806,878912.1999998093,878460.151,888077.859,5,600,5,
break,html.Screen,10_4_1,2023-11-30T15:44:34.580Z,,,,,,,,,,,NaN,,,,,,,,low,high,,,,,,,false,,,,,false,888534.6999998093,888534.399999857,,888533.899999857,,888077.859,5,600,,
break_continue,html.Screen,10_4_2,2023-11-30T15:44:34.581Z,,,,,,,,,,,NaN,,,,,,,,low,high,,,,,,,false,,,,,false,888535.399999857,888535.1999998093,,888535,,888077.859,5,600,,
sequence,flow.Sequence,10_4,2023-11-30T15:44:34.581Z,,,,,,,,,,,10075.04899980931,completion,,,,,,,low,high,,,,,,,false,,,,,false,888535.7999999523,888535.1999998093,878425.806,878912.0999999046,878460.151,888077.859,5,600,,
trial,html.Screen,10_5_0,2023-11-30T15:44:41.339Z,,,,1,0.0134764727102299,0.0033499036460912,,0.05,true,hh,7215.34099980921,response,0.8814695482989191,0.9601937004458898,-1.0876562925854187,0.8440767077088777,0.9390633090476561,-1.0660319617654743,high,high,,ISIC_0009998.JPG,8,ISIC_6392461.JPG,33,43,false,0.1,hh,keypress(i),0,false,895293.5999999046,895293.1999998093,888061.398,888536.0999999046,888077.859,894841.036,5,600,6,
break,html.Screen,10_5_1,2023-11-30T15:44:41.340Z,,,,,,,,,,,NaN,,,,,,,,high,high,,,,,,,false,,,,,false,895294.7999999523,895294.5,,895294,,894841.036,5,600,,
break_continue,html.Screen,10_5_2,2023-11-30T15:44:41.341Z,,,,,,,,,,,NaN,,,,,,,,high,high,,,,,,,false,,,,,false,895295.5999999046,895295.2999999523,,895295.0999999046,,894841.036,5,600,,
sequence,flow.Sequence,10_5,2023-11-30T15:44:41.341Z,,,,,,,,,,,7217.440999952261,completion,,,,,,,high,high,,,,,,,false,,,,,false,895295.899999857,895295.2999999523,888061.398,888536,888077.859,894841.036,5,600,,
trial,html.Screen,10_6_0,2023-11-30T15:44:43.594Z,,,,1,-0.0107854985447517,-0.0478010417136109,,0.05,true,hh,2707.4640000000363,response,0.8859261802814055,0.9601937004458898,-1.0876562925854187,0.9191342361964594,0.9390633090476561,-1.0660319617654743,high,high,,ISIC_0010500.JPG,8,ISIC_0029395.JPG,33,43,false,0.1,hh,keypress(i),0,false,897548.6999998093,897548.5,894824.438,895296.1999998093,894841.036,897095.339,5,600,7,
break,html.Screen,10_6_1,2023-11-30T15:44:43.594Z,,,,,,,,,,,NaN,,,,,,,,high,high,,,,,,,false,,,,,false,897549.2999999523,897549.0999999046,,897548.899999857,,897095.339,5,600,,
break_continue,html.Screen,10_6_2,2023-11-30T15:44:43.595Z,,,,,,,,,,,NaN,,,,,,,,high,high,,,,,,,false,,,,,false,897549.5999999046,897549.399999857,,897549.2999999523,,897095.339,5,600,,
sequence,flow.Sequence,10_6,2023-11-30T15:44:43.595Z,,,,,,,,,,,2708.363999856985,completion,,,,,,,high,high,,,,,,,false,,,,,false,897549.7999999523,897549.399999857,894824.438,895296.0999999046,894841.036,897095.339,5,600,,
trial,html.Screen,10_7_0,2023-11-30T15:44:53.731Z,,,,1,0.0051189696037511,-0.0396625911332438,,0.05,false,lh,10590.160999999964,response,-0.991146183030456,0.9601937004458898,-1.0876562925854187,0.9949639823722534,0.9390633090476561,-1.0660319617654743,low,high,,ISIC_9742891.JPG,9,ISIC_6342224.JPG,33,25,false,0.2600000000000001,ll,keypress(f),0,false,907685.7999999523,907685.5,897078.786,897549.899999857,897095.339,907231.758,5,600,8,
break,html.Screen,10_7_1,2023-11-30T15:44:53.732Z,,,,,,,,,,,NaN,,,,,,,,low,high,,,,,,,false,,,,,false,907687,907686.6999998093,,907686.1999998093,,907231.758,5,600,,
break_continue,html.Screen,10_7_2,2023-11-30T15:44:53.733Z,,,,,,,,,,,NaN,,,,,,,,low,high,,,,,,,false,,,,,false,907687.6999998093,907687.5,,907687.1999998093,,907231.758,5,600,,
sequence,flow.Sequence,10_7,2023-11-30T15:44:53.733Z,,,,,,,,,,,10592.160999999964,completion,,,,,,,low,high,,,,,,,false,,,,,false,907688,907687.5,897078.786,897549.899999857,897095.339,907231.758,5,600,,
trial,html.Screen,10_8_0,2023-11-30T15:44:58.058Z,,,,1,0.0134764727102299,0.0033499036460912,,0.05,false,hl,4780.641999856918,response,0.8809306963311293,0.9601937004458898,-1.0876562925854187,-0.8614910030038974,0.9390633090476561,-1.0660319617654743,high,low,,ISIC_0009998.JPG,8,ISIC_0013731.JPG,33,27,false,0.2300000000000001,hh,keypress(i),0,false,912012.6999998093,912012.399999857,907215.059,907688.2999999523,907231.758,911556.896,5,600,9,
break,html.Screen,10_8_1,2023-11-30T15:44:58.059Z,,,,,,,,,,,NaN,,,,,,,,high,low,,,,,,,false,,,,,false,912013.5,912013.2999999523,,912012.899999857,,911556.896,5,600,,
break_continue,html.Screen,10_8_2,2023-11-30T15:44:58.059Z,,,,,,,,,,,NaN,,,,,,,,high,low,,,,,,,false,,,,,false,912014.0999999046,912013.7999999523,,912013.5999999046,,911556.896,5,600,,
sequence,flow.Sequence,10_8,2023-11-30T15:44:58.059Z,,,,,,,,,,,4782.041999952286,completion,,,,,,,high,low,,,,,,,false,,,,,false,912014.2999999523,912013.7999999523,907215.059,907688.1999998093,907231.758,911556.896,5,600,,
trial,html.Screen,10_9_0,2023-11-30T15:45:05.147Z,,,,1,-0.0456515796420274,0.0273567130070961,,0.05,false,ll,7544.60400000005,response,-1.0678895386758027,0.9601937004458898,-1.0876562925854187,-1.0279759018569252,0.9390633090476561,-1.0660319617654743,low,low,,ISIC_0068610.JPG,9,ISIC_0069933.JPG,33,31,false,0.1,hl,keypress(j),0,false,919101.7999999523,919101.5,911540.33,912014.5,911556.896,918637.292,5,600,10,
break,html.Screen,10_9_1,2023-11-30T15:45:05.148Z,,,,,,,,,,,NaN,,,,,,,,low,low,,,,,,,false,,,,,false,919103.0999999046,919102.6999998093,,919102.1999998093,,918637.292,5,600,,
break_continue,html.Screen,10_9_2,2023-11-30T15:45:05.149Z,,,,,,,,,,,NaN,,,,,,,,low,low,,,,,,,false,,,,,false,919103.899999857,919103.5999999046,,919103.2999999523,,918637.292,5,600,,
sequence,flow.Sequence,10_9,2023-11-30T15:45:05.149Z,,,,,,,,,,,7546.703999904683,completion,,,,,,,low,low,,,,,,,false,,,,,false,919104.2999999523,919103.5999999046,911540.33,912014.399999857,911556.896,918637.292,5,600,,
trial,html.Screen,10_10_0,2023-11-30T15:45:11.585Z,,,,1,0.0097091270150747,-0.0417921315885292,,0.05,true,ll,6902.607999856933,response,-1.0130095662293503,0.9601937004458898,-1.0876562925854187,-1.098939882801048,0.9390633090476561,-1.0660319617654743,low,low,,ISIC_3967213.JPG,9,ISIC_0059897.JPG,33,31,false,0.1,ll,keypress(f),0,false,925540,925539.899999857,918620.877,919104.5,918637.292,925083.174,5,600,11,
break,html.Screen,10_10_1,2023-11-30T15:45:11.585Z,,,,,,,,,,,NaN,,,,,,,,low,low,,,,,,,false,,,,,false,925540.2999999523,925540.1999998093,,925540.0999999046,,925083.174,5,600,,
break_continue,html.Screen,10_10_2,2023-11-30T15:45:11.586Z,,,,,,,,,,,NaN,,,,,,,,low,low,,,,,,,false,,,,,false,925540.399999857,925540.399999857,,925540.399999857,,925083.174,5,600,,
sequence,flow.Sequence,10_10,2023-11-30T15:45:11.586Z,,,,,,,,,,,6903.107999856933,completion,,,,,,,low,low,,,,,,,false,,,,,false,925540.5,925540.399999857,918620.877,919104.5,918637.292,925083.174,5,600,,
trial,html.Screen,10_11_0,2023-11-30T15:45:16.339Z,,,,1,-0.0324770283903853,-0.0249968632204382,,0.05,false,hl,5210.4259999046335,response,0.8809306963311293,0.9601937004458898,-1.0876562925854187,-0.8614910030038974,0.9390633090476561,-1.0660319617654743,high,low,,ISIC_7266462.JPG,10,ISIC_0013731.JPG,33,27,false,0.2300000000000001,lh,keypress(e),0,false,930293.7999999523,930293.5999999046,925066.612,925540.5,925083.174,929842.445,5,600,12,
break,html.Screen,10_11_1,2023-11-30T15:45:16.341Z,,,,,,,,,,,NaN,,,,,,,,high,low,,,,,,,false,,,,,false,930295.0999999046,930294.7999999523,,930294.2999999523,,929842.445,5,600,,
break_continue,html.Screen,10_11_2,2023-11-30T15:45:16.341Z,,,,,,,,,,,NaN,,,,,,,,high,low,,,,,,,false,,,,,false,930295.7999999523,930295.6999998093,,930295.2999999523,,929842.445,5,600,,
sequence,flow.Sequence,10_11,2023-11-30T15:45:16.342Z,,,,,,,,,,,5212.525999809266,completion,,,,,,,high,low,,,,,,,false,,,,,false,930296.1999998093,930295.6999998093,925066.612,925540.5,925083.174,929842.445,5,600,,
trial,html.Screen,10_12_0,2023-11-30T15:45:23.284Z,,,,1,-0.0070725527271049,-0.0049995141077508,,0.05,false,hl,7395.3549999523675,response,0.7622914383475332,0.9601937004458898,-1.0876562925854187,-1.2637655821850098,0.9390633090476561,-1.0660319617654743,high,low,,ISIC_6124481.JPG,9,ISIC_0032005.JPG,33,27,false,0.2300000000000001,hh,keypress(i),0,false,937238.0999999046,937237.7999999523,929825.952,930296.5,929842.445,936805.991,5,600,13,
break,html.Screen,10_12_1,2023-11-30T15:45:23.285Z,,,,,,,,,,,NaN,,,,,,,,high,low,,,,,,,false,,,,,false,937239.2999999523,937239,,937238.5,,936805.991,5,600,,
break_continue,html.Screen,10_12_2,2023-11-30T15:45:23.286Z,,,,,,,,,,,NaN,,,,,,,,high,low,,,,,,,false,,,,,false,937240,937239.7999999523,,937239.5999999046,,936805.991,5,600,,
sequence,flow.Sequence,10_12,2023-11-30T15:45:23.286Z,,,,,,,,,,,7397.3549999523675,completion,,,,,,,high,low,,,,,,,false,,,,,false,937240.2999999523,937239.7999999523,929825.952,930296.2999999523,929842.445,936805.991,5,600,,
trial,html.Screen,10_13_0,2023-11-30T15:45:31.356Z,,,,1,0.0051189696037511,-0.0396625911332438,,0.05,false,hl,8504.008999999962,response,0.7877939497981142,0.9601937004458898,-1.0876562925854187,-0.8415032780288271,0.9390633090476561,-1.0660319617654743,high,low,,ISIC_9742891.JPG,9,ISIC_0067308.JPG,33,27,false,0.2300000000000001,hh,keypress(i),0,false,945310.399999857,945310,936756.11,937240.5,936805.991,944854.993,5,600,14,
break,html.Screen,10_13_1,2023-11-30T15:45:31.357Z,,,,,,,,,,,NaN,,,,,,,,high,low,,,,,,,false,,,,,false,945311.5999999046,945311.2999999523,,945310.6999998093,,944854.993,5,600,,
break_continue,html.Screen,10_13_2,2023-11-30T15:45:31.358Z,,,,,,,,,,,NaN,,,,,,,,high,low,,,,,,,false,,,,,false,945312.399999857,945312.0999999046,,945311.899999857,,944854.993,5,600,,
sequence,flow.Sequence,10_13,2023-11-30T15:45:31.358Z,,,,,,,,,,,8506.108999904594,completion,,,,,,,high,low,,,,,,,false,,,,,false,945312.6999998093,945312.0999999046,936756.11,937240.5,936805.991,944854.993,5,600,,
trial,html.Screen,10_14_0,2023-11-30T15:45:41.963Z,,,,1,-0.0050679133050021,0.0009714874637896,,0.05,true,lh,11062.406999856932,response,-0.9235571765207048,0.9601937004458898,-1.0876562925854187,1.0008081653938232,0.9390633090476561,-1.0660319617654743,low,high,,ISIC_9848743.JPG,9,ISIC_8796632.JPG,33,25,false,0.2600000000000001,lh,keypress(e),0,false,955917.7999999523,955917.399999857,944838.407,945313,944854.993,955458.926,5,600,15,
break,html.Screen,10_14_1,2023-11-30T15:45:41.965Z,,,,,,,,,,,NaN,,,,,,,,low,high,,,,,,,false,,,,,false,955918.899999857,955918.5999999046,,955918.1999998093,,955458.926,5,600,,
break_continue,html.Screen,10_14_2,2023-11-30T15:45:41.965Z,,,,,,,,,,,NaN,,,,,,,,low,high,,,,,,,false,,,,,false,955919.6999998093,955919.399999857,,955919.0999999046,,955458.926,5,600,,
sequence,flow.Sequence,10_14,2023-11-30T15:45:41.966Z,,,,,,,,,,,11064.406999856932,completion,,,,,,,low,high,,,,,,,false,,,,,false,955920,955919.399999857,944838.407,945312.899999857,944854.993,955458.926,5,600,,
trial,html.Screen,10_15_0,2023-11-30T15:45:49.908Z,,,,1,-0.0363437082783146,-0.0333332186217051,,0.05,false,hh,8403.074000000022,response,0.878837306607763,0.9601937004458898,-1.0876562925854187,0.9806817794837708,0.9390633090476561,-1.0660319617654743,high,high,,ISIC_3314555.JPG,9,ISIC_6250970.JPG,33,43,false,0.1,lh,keypress(e),0,false,963862.2999999523,963862,955442.335,955920.2999999523,955458.926,963424.481,5,600,16,
break,html.Screen,10_15_1,2023-11-30T15:45:49.909Z,,,,,,,,,,,NaN,,,,,,,,high,high,,,,,,,false,,,,,false,963863.5999999046,963863.2999999523,,963862.7999999523,,963424.481,5,600,,
break_continue,html.Screen,10_15_2,2023-11-30T15:45:49.910Z,,,,,,,,,,,NaN,,,,,,,,high,high,,,,,,,false,,,,,false,963864.2999999523,963864.0999999046,,963863.7999999523,,963424.481,5,600,,
sequence,flow.Sequence,10_15,2023-11-30T15:45:49.910Z,,,,,,,,,,,8405.173999904655,completion,,,,,,,high,high,,,,,,,false,,,,,false,963864.6999998093,963864.0999999046,955442.335,955920.1999998093,955458.926,963424.481,5,600,,
trial,html.Screen,10_16_0,2023-11-30T15:46:05.599Z,,,,1,0.0113873532168551,0.0054999201556291,,0.05,,,15680.527000000002,timeout,0.8487429103619056,0.9601937004458898,-1.0876562925854187,-0.9778257804233036,0.9390633090476561,-1.0660319617654743,high,low,,ISIC_8812621.JPG,8,ISIC_4554863.JPG,33,27,false,0.2300000000000001,,,0,false,979552.899999857,979552.5,963391.006,963864.899999857,963424.481,979105.008,5,600,17,
break,html.Screen,10_16_1,2023-11-30T15:46:05.600Z,,,,,,,,,,,NaN,,,,,,,,high,low,,,,,,,false,,,,,false,979554.399999857,979554.0999999046,,979553.5,,979105.008,5,600,,
break_continue,html.Screen,10_16_2,2023-11-30T15:46:05.601Z,,,,,,,,,,,NaN,,,,,,,,high,low,,,,,,,false,,,,,false,979555.1999998093,979554.899999857,,979554.6999998093,,979105.008,5,600,,
sequence,flow.Sequence,10_16,2023-11-30T15:46:05.601Z,,,,,,,,,,,16130.41899985692,completion,,,,,,,high,low,,,,,,,false,,,,,false,979555.5,979554.899999857,963391.006,963864.899999857,963424.481,979105.008,5,600,,
trial,html.Screen,10_17_0,2023-11-30T15:46:14.210Z,,,,1,-0.0050679133050021,0.0009714874637896,,0.05,false,lh,9058.691999809234,response,-0.9388029871780448,0.9601937004458898,-1.0876562925854187,0.6990723246540984,0.9390633090476561,-1.0660319617654743,low,high,,ISIC_9848743.JPG,8,ISIC_0014190.JPG,33,25,false,0.2600000000000001,ll,keypress(f),0,false,988163.899999857,988163.6999998093,979071.846,979555.7999999523,979105.008,987705.088,5,600,18,
break,html.Screen,10_17_1,2023-11-30T15:46:14.210Z,,,,,,,,,,,NaN,,,,,,,,low,high,,,,,,,false,,,,,false,988164.1999998093,988164.0999999046,,988163.899999857,,987705.088,5,600,,
break_continue,html.Screen,10_17_2,2023-11-30T15:46:14.210Z,,,,,,,,,,,NaN,,,,,,,,low,high,,,,,,,false,,,,,false,988164.399999857,988164.399999857,,988164.2999999523,,987705.088,5,600,,
sequence,flow.Sequence,10_17,2023-11-30T15:46:14.211Z,,,,,,,,,,,9059.391999856918,completion,,,,,,,low,high,,,,,,,false,,,,,false,988164.5,988164.399999857,979071.846,979555.5999999046,979105.008,987705.088,5,600,,
trial,html.Screen,10_18_0,2023-11-30T15:46:19.572Z,,,,1,0.0051189696037511,-0.0396625911332438,,0.05,true,ll,5820.2119999523275,response,-1.101346104814838,0.9601937004458898,-1.0876562925854187,-1.1225813067473052,0.9390633090476561,-1.0660319617654743,low,low,,ISIC_9742891.JPG,8,ISIC_8175453.JPG,33,31,false,0.1,ll,keypress(f),0,false,993525.6999998093,993525.2999999523,987688.493,988164.5,987705.088,993065.501,5,600,19,
break,html.Screen,10_18_1,2023-11-30T15:46:19.573Z,,,,,,,,,,,NaN,,,,,,,,low,low,,,,,,,false,,,,,false,993526.7999999523,993526.5999999046,,993526.0999999046,,993065.501,5,600,,
break_continue,html.Screen,10_18_2,2023-11-30T15:46:19.574Z,,,,,,,,,,,NaN,,,,,,,,low,low,,,,,,,false,,,,,false,993527.5999999046,993527.399999857,,993527,,993065.501,5,600,,
sequence,flow.Sequence,10_18,2023-11-30T15:46:19.574Z,,,,,,,,,,,5822.31199985696,completion,,,,,,,low,low,,,,,,,false,,,,,false,993527.899999857,993527.399999857,987688.493,988164.5,987705.088,993065.501,5,600,,
trial,html.Screen,10_19_0,2023-11-30T15:46:21.924Z,,,,1,0.000047919190197942736,0.0462652940855003,,0.05,true,hh,2811.798999952269,response,0.9684792294535484,0.9601937004458898,-1.0876562925854187,0.9741930282015964,0.9390633090476561,-1.0660319617654743,high,high,,ISIC_0011507.JPG,9,ISIC_3372750.JPG,33,43,false,0.1,hh,keypress(i),0,false,995877.5999999046,995877.2999999523,993048.994,993528.1999998093,993065.501,995420.044,5,600,20,
break,html.Screen,10_19_1,2023-11-30T15:46:21.925Z,,,,,,,,,,,NaN,,,,,,,,high,high,,,,,,,false,,,,,false,995878.7999999523,995878.5,,995878,,995420.044,5,600,,
break_continue,html.Screen,10_19_2,2023-11-30T15:46:21.926Z,,,,,,,,,,,NaN,,,,,,,,high,high,,,,,,,false,,,,,false,995879.5999999046,995879.2999999523,,995879.0999999046,,995420.044,5,600,,
sequence,flow.Sequence,10_19,2023-11-30T15:46:21.926Z,,,,,,,,,,,2813.798999952269,completion,,,,,,,high,high,,,,,,,false,,,,,false,995879.899999857,995879.2999999523,993048.994,993528.0999999046,993065.501,995420.044,5,600,,
trial,html.Screen,10_20_0,2023-11-30T15:46:23.820Z,,,,1,-0.0324770283903853,-0.0249968632204382,,0.05,true,hh,2353.255999952322,response,1.0366777133497644,0.9601937004458898,-1.0876562925854187,0.8674472391512381,0.9390633090476561,-1.0660319617654743,high,high,,ISIC_7266462.JPG,9,ISIC_0014431.JPG,33,43,false,0.1,hh,keypress(i),0,false,997773.6999998093,997773.2999999523,995403.618,995880.1999998093,995420.044,997324.662,5,600,21,
break,html.Screen,10_20_1,2023-11-30T15:46:23.821Z,,,,,,,,,,,NaN,,,,,,,,high,high,,,,,,,false,,,,,false,997774.7999999523,997774.5999999046,,997774,,997324.662,5,600,,
break_continue,html.Screen,10_20_2,2023-11-30T15:46:23.822Z,,,,,,,,,,,NaN,,,,,,,,high,high,,,,,,,false,,,,,false,997775.5999999046,997775.2999999523,,997775.0999999046,,997324.662,5,600,,
sequence,flow.Sequence,10_20,2023-11-30T15:46:23.822Z,,,,,,,,,,,2355.255999952322,completion,,,,,,,high,high,,,,,,,false,,,,,false,997775.899999857,997775.2999999523,995403.618,995880.0999999046,995420.044,997324.662,5,600,,
trial,html.Screen,10_21_0,2023-11-30T15:46:32.596Z,,,,1,-0.0456515796420274,0.0273567130070961,,0.05,true,lh,9224.937999904621,response,-1.276222161935671,0.9601937004458898,-1.0876562925854187,0.9657780821973284,0.9390633090476561,-1.0660319617654743,low,high,,ISIC_0068610.JPG,8,ISIC_6710411.JPG,33,25,false,0.2600000000000001,lh,keypress(e),0,false,1006550,1006549.5999999046,997290.543,997776.0999999046,997324.662,1006090.815,5,600,22,
break,html.Screen,10_21_1,2023-11-30T15:46:32.597Z,,,,,,,,,,,NaN,,,,,,,,low,high,,,,,,,false,,,,,false,1006551.0999999046,1006550.7999999523,,1006550.2999999523,,1006090.815,5,600,,
break_continue,html.Screen,10_21_2,2023-11-30T15:46:32.598Z,,,,,,,,,,,NaN,,,,,,,,low,high,,,,,,,false,,,,,false,1006551.7999999523,1006551.5,,1006551.2999999523,,1006090.815,5,600,,
sequence,flow.Sequence,10_21,2023-11-30T15:46:32.598Z,,,,,,,,,,,9226.837999999989,completion,,,,,,,low,high,,,,,,,false,,,,,false,1006552.0999999046,1006551.5,997290.543,997776.0999999046,997324.662,1006090.815,5,600,,
trial,html.Screen,10_22_0,2023-11-30T15:46:37.228Z,,,,1,-0.0107854985447517,-0.0478010417136109,,0.05,false,lh,5090.484999952372,response,-0.8816288864119318,0.9601937004458898,-1.0876562925854187,0.801867301188093,0.9390633090476561,-1.0660319617654743,low,high,,ISIC_0010500.JPG,9,ISIC_9196783.JPG,33,25,false,0.2600000000000001,hh,keypress(i),0,false,1011181.6999998093,1011181.2999999523,1006074.393,1006552.399999857,1006090.815,1010716.618,5,600,23,
break,html.Screen,10_22_1,2023-11-30T15:46:37.229Z,,,,,,,,,,,NaN,,,,,,,,low,high,,,,,,,false,,,,,false,1011182.899999857,1011182.5,,1011182,,1010716.618,5,600,,
break_continue,html.Screen,10_22_2,2023-11-30T15:46:37.230Z,,,,,,,,,,,NaN,,,,,,,,low,high,,,,,,,false,,,,,false,1011183.6999998093,1011183.399999857,,1011183.0999999046,,1010716.618,5,600,,
sequence,flow.Sequence,10_22,2023-11-30T15:46:37.230Z,,,,,,,,,,,5092.584999857005,completion,,,,,,,low,high,,,,,,,false,,,,,false,1011184,1011183.399999857,1006074.393,1006552.2999999523,1006090.815,1010716.618,5,600,,
trial,html.Screen,10_23_0,2023-11-30T15:46:45.940Z,,,,1,-0.0050679133050021,0.0009714874637896,,0.05,false,ll,9176.6819999523,response,-1.1682648288591504,0.9601937004458898,-1.0876562925854187,-1.004142980655507,0.9390633090476561,-1.0660319617654743,low,low,,ISIC_9848743.JPG,9,ISIC_3936223.JPG,33,31,false,0.1,lh,keypress(e),0,false,1019893.5999999046,1019893.2999999523,1010700.029,1011184.1999998093,1010716.618,1019433.496,5,600,24,
break,html.Screen,10_23_1,2023-11-30T15:46:45.941Z,,,,,,,,,,,NaN,,,,,,,,low,low,,,,,,,false,,,,,false,1019894.7999999523,1019894.5,,1019893.899999857,,1019433.496,5,600,,
break_continue,html.Screen,10_23_2,2023-11-30T15:46:45.942Z,,,,,,,,,,,NaN,,,,,,,,low,low,,,,,,,false,,,,,false,1019895.5,1019895.1999998093,,1019894.899999857,,1019433.496,5,600,,
sequence,flow.Sequence,10_23,2023-11-30T15:46:45.942Z,,,,,,,,,,,9178.581999809248,completion,,,,,,,low,low,,,,,,,false,,,,,false,1019895.7999999523,1019895.1999998093,1010700.029,1011184.0999999046,1010716.618,1019433.496,5,600,,
trial,html.Screen,10_24_0,2023-11-30T15:46:50.772Z,,,,1,0.0113873532168551,0.0054999201556291,,0.05,false,lh,5291.803999952273,response,-1.0645919307156395,0.9601937004458898,-1.0876562925854187,0.7087706688259032,0.9390633090476561,-1.0660319617654743,low,high,,ISIC_8812621.JPG,9,ISIC_0031575.JPG,33,25,false,0.2600000000000001,ll,keypress(f),0,false,1024725.6999998093,1024725.2999999523,1019416.978,1019895.899999857,1019433.496,1024292.961,5,600,25,
break,html.Screen,10_24_1,2023-11-30T15:46:50.773Z,,,,,,,,,,,NaN,,,,,,,,low,high,,,,,,,false,,,,,false,1024726.899999857,1024726.5,,1024726.0999999046,,1024292.961,5,600,,
break_continue,html.Screen,10_24_2,2023-11-30T15:46:50.774Z,,,,,,,,,,,NaN,,,,,,,,low,high,,,,,,,false,,,,,false,1024727.5999999046,1024727.399999857,,1024727.0999999046,,1024292.961,5,600,,
sequence,flow.Sequence,10_24,2023-11-30T15:46:50.774Z,,,,,,,,,,,5293.903999856906,completion,,,,,,,low,high,,,,,,,false,,,,,false,1024727.899999857,1024727.399999857,1019416.978,1019895.899999857,1019433.496,1024292.961,5,600,,
trial,html.Screen,10_25_0,2023-11-30T15:46:59.684Z,,,,1,0.0409338693593207,-0.0072462710499874,,0.05,false,hl,9344.638999904622,response,0.869932994914832,0.9601937004458898,-1.0876562925854187,-0.8880533324432531,0.9390633090476561,-1.0660319617654743,high,low,,ISIC_3608788.JPG,9,ISIC_8617084.JPG,33,27,false,0.2300000000000001,ll,keypress(f),0,false,1033638,1033637.5999999046,1024243.073,1024728.1999998093,1024292.961,1033176.912,5,600,26,
break,html.Screen,10_25_1,2023-11-30T15:46:59.685Z,,,,,,,,,,,NaN,,,,,,,,high,low,,,,,,,false,,,,,false,1033639.0999999046,1033638.899999857,,1033638.2999999523,,1033176.912,5,600,,
break_continue,html.Screen,10_25_2,2023-11-30T15:46:59.686Z,,,,,,,,,,,NaN,,,,,,,,high,low,,,,,,,false,,,,,false,1033639.899999857,1033639.5999999046,,1033639.2999999523,,1033176.912,5,600,,
sequence,flow.Sequence,10_25,2023-11-30T15:46:59.686Z,,,,,,,,,,,9346.638999904622,completion,,,,,,,high,low,,,,,,,false,,,,,false,1033640.1999998093,1033639.5999999046,1024243.073,1024728.0999999046,1024292.961,1033176.912,5,600,,
trial,html.Screen,10_26_0,2023-11-30T15:47:01.682Z,,,,1,-0.0116094682222121,0.0258434522530318,,0.05,true,hh,2458.887999952305,response,0.8859261802814055,0.9601937004458898,-1.0876562925854187,0.9191342361964594,0.9390633090476561,-1.0660319617654743,high,high,,ISIC_9239632.JPG,9,ISIC_0029395.JPG,33,43,false,0.1,hh,keypress(i),0,false,1035635.7999999523,1035635.7999999523,1033160.329,1033640.2999999523,1033176.912,1035180.834,5,600,27,
break,html.Screen,10_26_1,2023-11-30T15:47:01.682Z,,,,,,,,,,,NaN,,,,,,,,high,high,,,,,,,false,,,,,false,1035636.2999999523,1035636.1999998093,,1035636,,1035180.834,5,600,,
break_continue,html.Screen,10_26_2,2023-11-30T15:47:01.683Z,,,,,,,,,,,NaN,,,,,,,,high,high,,,,,,,false,,,,,false,1035636.5,1035636.399999857,,1035636.399999857,,1035180.834,5,600,,
sequence,flow.Sequence,10_26,2023-11-30T15:47:01.683Z,,,,,,,,,,,2459.4879998569377,completion,,,,,,,high,high,,,,,,,false,,,,,false,1035636.5999999046,1035636.399999857,1033160.329,1033640.2999999523,1033176.912,1035180.834,5,600,,
trial,html.Screen,10_27_0,2023-11-30T15:47:03.970Z,,,,1,-0.0217698886732706,0.0410870915161425,,0.05,true,hh,2743.265999904601,response,1.037577073517966,0.9601937004458898,-1.0876562925854187,1.027048110709042,0.9390633090476561,-1.0660319617654743,high,high,,ISIC_0072173.JPG,9,ISIC_0004932.JPG,33,43,false,0.1,hh,keypress(i),0,false,1037924.2999999523,1037924.0999999046,1035164.272,1035636.5999999046,1035180.834,1037468.606,5,600,28,
break,html.Screen,10_27_1,2023-11-30T15:47:03.971Z,,,,,,,,,,,NaN,,,,,,,,high,high,,,,,,,false,,,,,false,1037924.6999998093,1037924.5999999046,,1037924.5,,1037468.606,5,600,,
break_continue,html.Screen,10_27_2,2023-11-30T15:47:03.971Z,,,,,,,,,,,NaN,,,,,,,,high,high,,,,,,,false,,,,,false,1037924.899999857,1037924.7999999523,,1037924.7999999523,,1037468.606,5,600,,
sequence,flow.Sequence,10_27,2023-11-30T15:47:03.971Z,,,,,,,,,,,2743.9659999522846,completion,,,,,,,high,high,,,,,,,false,,,,,false,1037925.0999999046,1037924.7999999523,1035164.272,1035636.5999999046,1035180.834,1037468.606,5,600,,
trial,html.Screen,10_28_0,2023-11-30T15:47:09.836Z,,,,1,0.0362376068089956,0.047825070846155,,0.05,true,lh,6320.993999904604,response,-1.0164576835546473,0.9601937004458898,-1.0876562925854187,0.8120626538423016,0.9390633090476561,-1.0660319617654743,low,high,,ISIC_6985114.JPG,9,ISIC_6002694.JPG,33,25,false,0.2600000000000001,lh,keypress(e),0,false,1043789.899999857,1043789.5999999046,1037452.142,1037925.0999999046,1037468.606,1043330.01,5,600,29,
break,html.Screen,10_28_1,2023-11-30T15:47:09.837Z,,,,,,,,,,,NaN,,,,,,,,low,high,,,,,,,false,,,,,false,1043791.1999998093,1043790.899999857,,1043790.2999999523,,1043330.01,5,600,,
break_continue,html.Screen,10_28_2,2023-11-30T15:47:09.838Z,,,,,,,,,,,NaN,,,,,,,,low,high,,,,,,,false,,,,,false,1043791.899999857,1043791.5999999046,,1043791.399999857,,1043330.01,5,600,,
sequence,flow.Sequence,10_28,2023-11-30T15:47:09.838Z,,,,,,,,,,,6322.993999904604,completion,,,,,,,low,high,,,,,,,false,,,,,false,1043792.1999998093,1043791.5999999046,1037452.142,1037925.0999999046,1037468.606,1043330.01,5,600,,
trial,html.Screen,10_29_0,2023-11-30T15:47:12.108Z,,,,1,0.0134764727102299,0.0033499036460912,,0.05,true,hh,2731.4899999999907,response,0.898110633304784,0.9601937004458898,-1.0876562925854187,0.9140284419528476,0.9390633090476561,-1.0660319617654743,high,high,,ISIC_0009998.JPG,9,ISIC_7210119.JPG,33,43,false,0.1,hh,keypress(i),0,false,1046061.7999999523,1046061.5,1043313.584,1043792.5,1043330.01,1045601.071,5,600,30,
break,html.Screen,10_29_1,2023-11-30T15:47:12.109Z,,,,,,,,,,,NaN,,,,,,,,high,high,,,,,,,false,,,,,false,1046063.0999999046,1046062.7999999523,,1046062.2999999523,,1045601.071,5,600,,
break_continue,html.Screen,10_29_2,2023-11-30T15:47:12.110Z,,,,,,,,,,,NaN,,,,,,,,high,high,,,,,,,false,,,,,false,1046063.899999857,1046063.5999999046,,1046063.2999999523,,1045601.071,5,600,,
sequence,flow.Sequence,10_29,2023-11-30T15:47:12.110Z,,,,,,,,,,,2733.5899999046233,completion,,,,,,,high,high,,,,,,,false,,,,,false,1046064.1999998093,1046063.5999999046,1043313.584,1043792.399999857,1043330.01,1045601.071,5,600,,
trial,html.Screen,10_30_0,2023-11-30T15:47:15.019Z,,,,1,-0.0329095507339554,0.0382899749693245,,0.05,false,lh,3370.8289998569526,response,-0.8816288864119318,0.9601937004458898,-1.0876562925854187,0.801867301188093,0.9390633090476561,-1.0660319617654743,low,high,,ISIC_8812781.JPG,10,ISIC_9196783.JPG,33,25,false,0.2600000000000001,ll,keypress(f),0,false,1048972,1048971.899999857,1045584.521,1046064.5,1045601.071,1048506.734,5,600,31,
break,html.Screen,10_30_1,2023-11-30T15:47:15.019Z,,,,,,,,,,,NaN,,,,,,,,low,high,,,,,,,false,,,,,false,1048972.399999857,1048972.2999999523,,1048972.0999999046,,1048506.734,5,600,,
break_continue,html.Screen,10_30_2,2023-11-30T15:47:15.019Z,,,,,,,,,,,NaN,,,,,,,,low,high,,,,,,,false,,,,,false,1048972.5999999046,1048972.5,,1048972.5,,1048506.734,5,600,,
sequence,flow.Sequence,10_30,2023-11-30T15:47:15.019Z,,,,,,,,,,,3371.4290000000037,completion,,,,,,,low,high,,,,,,,false,,,,,false,1048972.5999999046,1048972.5,1045584.521,1046064.2999999523,1045601.071,1048506.734,5,600,,
trial,html.Screen,10_31_0,2023-11-30T15:47:25.229Z,,,,1,-0.0027483411352856,-0.0100996915276271,,0.05,true,lh,10675.46599980921,response,-1.0748728054622358,0.9601937004458898,-1.0876562925854187,0.6883893701485907,0.9390633090476561,-1.0660319617654743,low,high,,ISIC_7364041.JPG,9,ISIC_0059219.JPG,33,25,false,0.2600000000000001,lh,keypress(e),0,false,1059182.5999999046,1059182.1999998093,1048490.198,1048972.6999998093,1048506.734,1058726.622,5,600,32,
break,html.Screen,10_31_1,2023-11-30T15:47:25.230Z,,,,,,,,,,,NaN,,,,,,,,low,high,,,,,,,false,,,,,false,1059183.7999999523,1059183.5,,1059183,,1058726.622,5,600,,
break_continue,html.Screen,10_31_2,2023-11-30T15:47:25.231Z,,,,,,,,,,,NaN,,,,,,,,low,high,,,,,,,false,,,,,false,1059184.5999999046,1059184.2999999523,,1059184.0999999046,,1058726.622,5,600,,
sequence,flow.Sequence,10_31,2023-11-30T15:47:25.232Z,,,,,,,,,,,10677.565999952261,completion,,,,,,,low,high,,,,,,,false,,,,,false,1059185,1059184.2999999523,1048490.198,1048972.5999999046,1048506.734,1058726.622,5,600,,
trial,html.Screen,10_32_0,2023-11-30T15:47:31.229Z,,,,1,-0.0057914759495055,-0.0074667911845194,,0.05,false,lh,6454.977999904659,response,-1.0164576835546473,0.9601937004458898,-1.0876562925854187,0.8120626538423016,0.9390633090476561,-1.0660319617654743,low,high,,ISIC_0058723.JPG,9,ISIC_6002694.JPG,33,25,false,0.2600000000000001,ll,keypress(f),0,false,1065181.899999857,1065181.5999999046,1058710.087,1059185.0999999046,1058726.622,1064721.648,5,600,33,
break,html.Screen,10_32_1,2023-11-30T15:47:31.230Z,,,,,,,,,,,NaN,,,,,,,,low,high,,,,,,,false,,,,,false,1065183.1999998093,1065182.899999857,,1065182.399999857,,1064721.648,5,600,,
break_continue,html.Screen,10_32_2,2023-11-30T15:47:31.231Z,,,,,,,,,,,NaN,,,,,,,,low,high,,,,,,,false,,,,,false,1065184,1065183.6999998093,,1065183.399999857,,1064721.648,5,600,,
sequence,flow.Sequence,10_32,2023-11-30T15:47:31.231Z,,,,,,,,,,,6457.077999809291,completion,,,,,,,low,high,,,,,,,false,,,,,false,1065184.2999999523,1065183.6999998093,1058710.087,1059185,1058726.622,1064721.648,5,600,,
trial,html.Screen,10_33_0,2023-11-30T15:47:41.124Z,,,,1,-0.0389988030702649,-0.0143212271490256,,0.05,true,ll,10355.851999999955,response,-1.0525532302758762,0.9601937004458898,-1.0876562925854187,-1.1628982512509805,0.9390633090476561,-1.0660319617654743,low,low,,ISIC_0064669.JPG,9,ISIC_0033428.JPG,33,31,false,0.1,ll,keypress(f),0,false,1075077.5999999046,1075077.5,1064705.047,1065184.5999999046,1064721.648,1074624.355,5,600,34,
break,html.Screen,10_33_1,2023-11-30T15:47:41.125Z,,,,,,,,,,,NaN,,,,,,,,low,low,,,,,,,false,,,,,false,1075077.899999857,1075077.899999857,,1075077.7999999523,,1074624.355,5,600,,
break_continue,html.Screen,10_33_2,2023-11-30T15:47:41.125Z,,,,,,,,,,,NaN,,,,,,,,low,low,,,,,,,false,,,,,false,1075078.1999998093,1075078.0999999046,,1075078.0999999046,,1074624.355,5,600,,
sequence,flow.Sequence,10_33,2023-11-30T15:47:41.125Z,,,,,,,,,,,10356.451999904588,completion,,,,,,,low,low,,,,,,,false,,,,,false,1075078.2999999523,1075078.0999999046,1064705.047,1065184.5,1064721.648,1074624.355,5,600,,
trial,html.Screen,10_34_0,2023-11-30T15:47:43.604Z,,,,1,-0.0050679133050021,0.0009714874637896,,0.05,true,hh,2933.1450000000186,response,1.0014506884079168,0.9601937004458898,-1.0876562925854187,0.8483652665994107,0.9390633090476561,-1.0660319617654743,high,high,,ISIC_9848743.JPG,9,ISIC_1110583.JPG,33,43,false,0.1,hh,keypress(i),0,false,1077557.7999999523,1077557.5,1074607.737,1075078.2999999523,1074624.355,1077112.453,5,600,35,
break,html.Screen,10_34_1,2023-11-30T15:47:43.606Z,,,,,,,,,,,NaN,,,,,,,,high,high,,,,,,,false,,,,,false,1077559.0999999046,1077558.6999998093,,1077558.1999998093,,1077112.453,5,600,,
break_continue,html.Screen,10_34_2,2023-11-30T15:47:43.607Z,,,,,,,,,,,NaN,,,,,,,,high,high,,,,,,,false,,,,,false,1077559.899999857,1077559.5,,1077559.2999999523,,1077112.453,5,600,,
sequence,flow.Sequence,10_34,2023-11-30T15:47:43.607Z,,,,,,,,,,,2935.1450000000186,completion,,,,,,,high,high,,,,,,,false,,,,,false,1077560.1999998093,1077559.5,1074607.737,1075078.2999999523,1074624.355,1077112.453,5,600,,
trial,html.Screen,10_35_0,2023-11-30T15:47:50.604Z,,,,1,-0.0027483411352856,-0.0100996915276271,,0.05,false,ll,7444.946999856969,response,-1.101346104814838,0.9601937004458898,-1.0876562925854187,-1.1225813067473052,0.9390633090476561,-1.0660319617654743,low,low,,ISIC_7364041.JPG,8,ISIC_8175453.JPG,33,31,false,0.1,hl,keypress(j),0,false,1084557.7999999523,1084557.399999857,1077079.266,1077560.5,1077112.453,1084126.079,5,600,36,
break,html.Screen,10_35_1,2023-11-30T15:47:50.606Z,,,,,,,,,,,NaN,,,,,,,,low,low,,,,,,,false,,,,,false,1084559,1084558.6999998093,,1084558.1999998093,,1084126.079,5,600,,
break_continue,html.Screen,10_35_2,2023-11-30T15:47:50.606Z,,,,,,,,,,,NaN,,,,,,,,low,low,,,,,,,false,,,,,false,1084559.6999998093,1084559.399999857,,1084559.1999998093,,1084126.079,5,600,,
sequence,flow.Sequence,10_35,2023-11-30T15:47:50.607Z,,,,,,,,,,,7446.946999856969,completion,,,,,,,low,low,,,,,,,false,,,,,false,1084560,1084559.399999857,1077079.266,1077560.399999857,1077112.453,1084126.079,5,600,,
trial,html.Screen,10_36_0,2023-11-30T15:47:57.179Z,,,,1,0.0134764727102299,0.0033499036460912,,0.05,false,hl,7006.1209998093545,response,0.8979276789594874,0.9601937004458898,-1.0876562925854187,-0.925374811016654,0.9390633090476561,-1.0660319617654743,high,low,,ISIC_0009998.JPG,8,ISIC_4208361.JPG,33,27,false,0.2300000000000001,hh,keypress(i),0,false,1091132.2999999523,1091132.1999998093,1084076.165,1084560.1999998093,1084126.079,1090672.138,5,600,37,
break,html.Screen,10_36_1,2023-11-30T15:47:57.179Z,,,,,,,,,,,NaN,,,,,,,,high,low,,,,,,,false,,,,,false,1091132.6999998093,1091132.5999999046,,1091132.5,,1090672.138,5,600,,
break_continue,html.Screen,10_36_2,2023-11-30T15:47:57.180Z,,,,,,,,,,,NaN,,,,,,,,high,low,,,,,,,false,,,,,false,1091132.7999999523,1091132.7999999523,,1091132.6999998093,,1090672.138,5,600,,
sequence,flow.Sequence,10_36,2023-11-30T15:47:57.180Z,,,,,,,,,,,7006.720999952406,completion,,,,,,,high,low,,,,,,,false,,,,,false,1091132.899999857,1091132.7999999523,1084076.165,1084560.1999998093,1084126.079,1090672.138,5,600,,
trial,html.Screen,10_37_0,2023-11-30T15:48:05.997Z,,,,1,-0.0217698886732706,0.0410870915161425,,0.05,false,hl,9277.56199980923,response,0.7745647318095624,0.9601937004458898,-1.0876562925854187,-1.1610302064435811,0.9390633090476561,-1.0660319617654743,high,low,,ISIC_0072173.JPG,8,ISIC_0033004.JPG,33,27,false,0.2300000000000001,ll,keypress(f),0,false,1099950,1099949.6999998093,1090655.446,1091133,1090672.138,1099489.301,5,600,38,
break,html.Screen,10_37_1,2023-11-30T15:48:05.998Z,,,,,,,,,,,NaN,,,,,,,,high,low,,,,,,,false,,,,,false,1099951.1999998093,1099950.899999857,,1099950.399999857,,1099489.301,5,600,,
