sender,sender_type,sender_id,timestamp,meta,,age,blockNo,c1,c2,condition,control_tolerance,correct,correctResponse,duration,ended_on,f1,f1_high,f1_low,f2,f2_high,f2_low,feature_level1,feature_level2,gender,img_left,img_reveal,img_right,n_control_images,n_target_images,practice,range_tolerance,response,response_action,selection_duration,staircase,time_commit,time_end,time_render,time_run,time_show,time_switch,total_blocks,total_trials,trialNo,url
informed_consent,html.Screen,0,2023-11-29T16:32:42.566Z,"{""labjs_version"":""20.2.4"",""labjs_build"":{""flavor"":""development"",""commit"":""f5b4a49f956347addd546a832a3327688c2c0fef""},""location"":""https://labjs.felixhenninger.com/api/labjs_preview/index.html"",""userAgent"":""Mozilla/5.0 (Windows NT 10.0; Win64; x64) AppleWebKit/537.36 (KHTML, like Gecko) Chrome/119.0.0.0 Safari/537.36"",""platform"":""Win32"",""language"":""en-US"",""locale"":""en-US"",""timeZone"":""America/Chicago"",""timezoneOffset"":360,""screen_width"":1680,""screen_height"":1050,""scroll_width"":825,""scroll_height"":888,""window_innerWidth"":825,""window_innerHeight"":936,""devicePixelRatio"":1}",,,,,,,,,,25336.748999856947,response,,,,,,,,,,,,,,,,,consent,click button,,,26109.5,26100.89999985695,747.408,946.7000000476837,764.151,25913.112,,,,{}
Demography form,html.Form,1,2023-11-29T16:32:49.207Z,,,20,,,,,,,,6837.387999999999,form submission,,,,,,,,,male,,,,,,,,,,,,32750.599999904633,32750.5,25896.302,26109.799999952316,25913.112,32559.422,,,,
Welcome,html.Screen,2,2023-11-29T16:33:35.335Z,,,,,,,"[""bor"",""col""]",,,,46317.37799995232,response,,,,,,,,,,,,,,,,,continue,click button,,,78877.20000004768,78876.79999995232,32542.568,32750.700000047684,32559.422,78682.361,,,,
demo_instructions,html.Screen,3,2023-11-29T16:34:04.208Z,,,,,,,,,,,29066.538999856944,response,,,,,,,,,,,,,,,,,continue,click button,,,107749.39999985695,107748.89999985695,78665.702,78877.29999995232,78682.361,107555.116,,,,
trial,html.Screen,4_0_0,2023-11-29T16:34:19.141Z,,,,0,-1.136677654701082,-1.2647850993872314,,,true,hh,15127.183999952322,response,1.3379750533585932,1.2,-1.2,1.1671342614509763,1.2,-1.2,high,high,,ISIC_0015436.JPG,,ISIC_0063556.JPG,,25,true,0.14,hh,keypress(i),100,false,122682.39999985695,122682.29999995232,107538.557,107749.5,107555.116,122500.87,1,16,1,
sequence,flow.Sequence,4_0,2023-11-29T16:34:19.142Z,,,,,,,,,,,15127.183999952322,completion,,,,,,,high,high,,,,,,,true,,,,,false,122682.70000004768,122682.29999995232,107538.557,107749.5,107555.116,122500.87,1,16,,
trial,html.Screen,4_1_0,2023-11-29T16:34:26.589Z,,,,0,-1.136677654701082,-1.2647850993872314,,,true,hh,7628.729999904637,response,1.2804054832904397,1.2,-1.2,1.171271535505083,1.2,-1.2,high,high,,ISIC_0015436.JPG,,ISIC_7889838.JPG,,25,true,0.14,hh,keypress(i),100,false,130129.79999995232,130129.59999990463,122484.368,122682.70000004768,122500.87,129948.876,1,16,2,
sequence,flow.Sequence,4_1,2023-11-29T16:34:26.589Z,,,,,,,,,,,7628.729999904637,completion,,,,,,,high,high,,,,,,,true,,,,,false,130130,130129.59999990463,122484.368,122682.70000004768,122500.87,129948.876,1,16,,
trial,html.Screen,4_2_0,2023-11-29T16:34:29.892Z,,,,0,-1.1936751736668425,-1.2584308630745344,,,true,hh,3484.023999856945,response,1.2946277435220357,1.2,-1.2,1.255157480204324,1.2,-1.2,high,high,,ISIC_0061265.JPG,,ISIC_1870309.JPG,,25,true,0.14,hh,keypress(i),100,false,133433.09999990463,133432.89999985695,129932.048,130130.09999990463,129948.876,133255.157,1,16,3,
sequence,flow.Sequence,4_2,2023-11-29T16:34:29.893Z,,,,,,,,,,,3484.023999856945,completion,,,,,,,high,high,,,,,,,true,,,,,false,133433.59999990463,133432.89999985695,129932.048,130130.09999990463,129948.876,133255.157,1,16,,
trial,html.Screen,4_3_0,2023-11-29T16:34:33.886Z,,,,0,-1.0865209011322887,-1.1401461171952545,,,true,hh,4171.14299995231,response,1.151139267005652,1.2,-1.2,1.0838749490501327,1.2,-1.2,high,high,,ISIC_0016145.JPG,,ISIC_0002566.JPG,,25,true,0.14,hh,keypress(i),100,false,137426.70000004768,137426.29999995232,133238.576,133433.70000004768,133255.157,137246.342,1,16,4,
sequence,flow.Sequence,4_3,2023-11-29T16:34:33.886Z,,,,,,,,,,,4171.14299995231,completion,,,,,,,high,high,,,,,,,true,,,,,false,137427.29999995232,137426.29999995232,133238.576,133433.70000004768,133255.157,137246.342,1,16,,
trial,html.Screen,4_4_0,2023-11-29T16:34:40.811Z,,,,0,1.2246024683501224,1.2904526351590244,,,true,ll,7105.457999952312,response,-1.1243896694621007,1.2,-1.2,-1.1772340944704969,1.2,-1.2,low,low,,ISIC_4730066.JPG,,ISIC_0062765.JPG,,30,true,0.13,ll,keypress(f),100,false,144352.29999995232,144351.79999995232,137229.566,137427.5,137246.342,144176.542,1,16,5,
sequence,flow.Sequence,4_4,2023-11-29T16:34:40.812Z,,,,,,,,,,,7105.457999952312,completion,,,,,,,low,low,,,,,,,true,,,,,false,144353.09999990463,144351.79999995232,137229.566,137427.39999985695,137246.342,144176.542,1,16,,
trial,html.Screen,4_5_0,2023-11-29T16:34:47.852Z,,,,0,1.2219550761700546,1.2809901875733454,,,true,ll,7215.75799995233,response,-1.0769708994456726,1.2,-1.2,-1.2196503533725178,1.2,-1.2,low,low,,ISIC_6463417.JPG,,ISIC_0063824.JPG,,40,true,0.14,ll,keypress(f),100,false,151392.5,151392.29999995232,144159.701,144353.39999985695,144176.542,151206.917,1,16,6,
sequence,flow.Sequence,4_5,2023-11-29T16:34:47.852Z,,,,,,,,,,,7215.75799995233,completion,,,,,,,low,low,,,,,,,true,,,,,false,151392.79999995232,151392.29999995232,144159.701,144353.39999985695,144176.542,151206.917,1,16,,
trial,html.Screen,4_6_0,2023-11-29T16:34:52.950Z,,,,0,1.2804054832904397,1.171271535505083,,,true,ll,5283.982999856962,response,-1.0915173513546716,1.2,-1.2,-1.266840220031473,1.2,-1.2,low,low,,ISIC_7889838.JPG,,ISIC_8241457.JPG,,40,true,0.14,ll,keypress(f),100,false,156491.09999990463,156490.89999985695,151189.976,151393,151206.917,156316.647,1,16,7,
sequence,flow.Sequence,4_6,2023-11-29T16:34:52.950Z,,,,,,,,,,,5283.982999856962,completion,,,,,,,low,low,,,,,,,true,,,,,false,156491.39999985695,156490.89999985695,151189.976,151393,151206.917,156316.647,1,16,,
trial,html.Screen,4_7_0,2023-11-29T16:34:55.505Z,,,,0,1.1684835186766898,1.2921331918483707,,,true,ll,2729.0530000476865,response,-1.071312313440387,1.2,-1.2,-1.0935391476164529,1.2,-1.2,low,low,,ISIC_5920470.JPG,,ISIC_0063680.JPG,,40,true,0.14,ll,keypress(f),100,false,159045.89999985695,159045.70000004768,156300.047,156491.59999990463,156316.647,158871.736,1,16,8,
sequence,flow.Sequence,4_7,2023-11-29T16:34:55.505Z,,,,,,,,,,,2729.0530000476865,completion,,,,,,,low,low,,,,,,,true,,,,,false,159046,159045.70000004768,156300.047,156491.59999990463,156316.647,158871.736,1,16,,
trial,html.Screen,4_8_0,2023-11-29T16:35:02.557Z,,,,0,0.989300717252516,-0.7908280206937478,,,true,lh,7226.163999856944,response,-1.2081146885025262,1.2,-1.2,1.195668832085049,1.2,-1.2,low,high,,ISIC_6416533.JPG,,ISIC_7369690.JPG,,27,true,0.40000000000000024,lh,keypress(e),100,false,166098.09999990463,166097.89999985695,158854.909,159046.09999990463,158871.736,165918.833,1,16,9,
sequence,flow.Sequence,4_8,2023-11-29T16:35:02.557Z,,,,,,,,,,,7226.163999856944,completion,,,,,,,low,high,,,,,,,true,,,,,false,166098.39999985695,166097.89999985695,158854.909,159046.09999990463,158871.736,165918.833,1,16,,
trial,html.Screen,4_9_0,2023-11-29T16:35:06.270Z,,,,0,0.8719231363109603,-0.7704280220140033,,,true,lh,3892.1669999999867,response,-0.8350129142228142,1.2,-1.2,0.8172547818270586,1.2,-1.2,low,high,,ISIC_0029453.JPG,,ISIC_0301568.JPG,,40,true,0.4500000000000003,lh,keypress(e),100,false,169811.09999990463,169811,165901.956,166098.39999985695,165918.833,169625.996,1,16,10,
sequence,flow.Sequence,4_9,2023-11-29T16:35:06.270Z,,,,,,,,,,,3892.1669999999867,completion,,,,,,,low,high,,,,,,,true,,,,,false,169811.39999985695,169811,165901.956,166098.39999985695,165918.833,169625.996,1,16,,
trial,html.Screen,4_10_0,2023-11-29T16:35:12.285Z,,,,0,1.2054195059663604,-0.7760611240296147,,,true,lh,6199.603999904619,response,-0.7856143618373893,1.2,-1.2,1.0273608829432213,1.2,-1.2,low,high,,ISIC_8712559.JPG,,ISIC_9303849.JPG,,40,true,0.4500000000000003,lh,keypress(e),100,false,175825.70000004768,175825.59999990463,169609.155,169811.39999985695,169625.996,175637.532,1,16,11,
sequence,flow.Sequence,4_10,2023-11-29T16:35:12.285Z,,,,,,,,,,,6199.603999904619,completion,,,,,,,low,high,,,,,,,true,,,,,false,175825.89999985695,175825.59999990463,169609.155,169811.39999985695,169625.996,175637.532,1,16,,
trial,html.Screen,4_11_0,2023-11-29T16:35:16.479Z,,,,0,0.9653573371180936,-0.854766800381037,,,true,lh,4382.26799995231,response,-1.045301444872812,1.2,-1.2,1.0872560254441277,1.2,-1.2,low,high,,ISIC_9640145.JPG,,ISIC_4507700.JPG,,40,true,0.4500000000000003,lh,keypress(e),100,false,180020,180019.79999995232,175620.85,175826,175637.532,179845.858,1,16,12,
sequence,flow.Sequence,4_11,2023-11-29T16:35:16.479Z,,,,,,,,,,,4382.26799995231,completion,,,,,,,low,high,,,,,,,true,,,,,false,180020.20000004768,180019.79999995232,175620.85,175826,175637.532,179845.858,1,16,,
trial,html.Screen,4_12_0,2023-11-29T16:35:24.135Z,,,,0,-0.8987343013179191,0.8149073454566363,,,true,hl,7827.241999904625,response,1.199471562817528,1.2,-1.2,-0.8631260534979347,1.2,-1.2,high,low,,ISIC_0472513.JPG,,ISIC_0030754.JPG,,26,true,0.4500000000000003,hl,keypress(j),100,false,187673.29999995232,187673.09999990463,179829.036,180020.29999995232,179845.858,187493.885,1,16,13,
sequence,flow.Sequence,4_12,2023-11-29T16:35:24.135Z,,,,,,,,,,,7827.241999904625,completion,,,,,,,high,low,,,,,,,true,,,,,false,187673.70000004768,187673.09999990463,179829.036,180020.29999995232,179845.858,187493.885,1,16,,
trial,html.Screen,4_13_0,2023-11-29T16:35:26.816Z,,,,0,-0.9633172970727744,0.8472659344792351,,,true,hl,2860.414999952307,response,0.7882758084023446,1.2,-1.2,-0.8296405881378283,1.2,-1.2,high,low,,ISIC_0067172.JPG,,ISIC_0065882.JPG,,26,true,0.4500000000000003,hl,keypress(j),100,false,190354.5,190354.29999995232,187477.259,187673.79999995232,187493.885,190165.779,1,16,14,
sequence,flow.Sequence,4_13,2023-11-29T16:35:26.816Z,,,,,,,,,,,2860.414999952307,completion,,,,,,,high,low,,,,,,,true,,,,,false,190354.70000004768,190354.29999995232,187477.259,187673.79999995232,187493.885,190165.779,1,16,,
trial,html.Screen,4_14_0,2023-11-29T16:35:30.914Z,,,,0,-1.2594580992890123,0.8833175387485132,,,true,hl,4286.921000047674,response,0.8513427412482127,1.2,-1.2,-0.9295303568095064,1.2,-1.2,high,low,,ISIC_0011933.JPG,,ISIC_0034164.JPG,,26,true,0.4500000000000003,hl,keypress(j),100,false,194452.79999995232,194452.70000004768,190149.143,190354.89999985695,190165.779,194273.832,1,16,15,
sequence,flow.Sequence,4_14,2023-11-29T16:35:30.914Z,,,,,,,,,,,4286.921000047674,completion,,,,,,,high,low,,,,,,,true,,,,,false,194452.89999985695,194452.70000004768,190149.143,190354.79999995232,190165.779,194273.832,1,16,,
trial,html.Screen,4_15_0,2023-11-29T16:35:34.562Z,,,,0,-0.8067116931297591,1.215898074058027,,,true,hl,3826.368000047689,response,1.0453124399868816,1.2,-1.2,-0.8986747280184286,1.2,-1.2,high,low,,ISIC_1457687.JPG,,ISIC_0013967.JPG,,26,true,0.4500000000000003,hl,keypress(j),100,false,198100.39999985695,198100.20000004768,194257.094,194453,194273.832,197914.174,1,16,16,
sequence,flow.Sequence,4_15,2023-11-29T16:35:34.562Z,,,,,,,,,,,3826.368000047689,completion,,,,,,,high,low,,,,,,,true,,,,,false,198100.70000004768,198100.20000004768,194257.094,194453,194273.832,197914.174,1,16,,
demonstration_loop,flow.Loop,4,2023-11-29T16:35:34.562Z,,,,,,,,,,,90545.08400004769,completion,,,,,,,,,,,,,,,true,,,,,false,198100.89999985695,198100.20000004768,107538.557,107749.5,107555.116,197914.174,1,16,,
practice_instructions,html.Screen,5,2023-11-29T16:35:40.826Z,,,,,,,,,,,6442.326000000001,response,,,,,,,,,,,,,,,,,continue,click button,,,204364.59999990463,204356.5,197897.528,198101.09999990463,197914.174,204176.507,,,,
trial,html.Screen,6_0_0,2023-11-29T16:35:46.269Z,,,,1,1.151139267005652,1.0838749490501327,,,true,ll,5618.09299990462,response,-1.186629690487006,1.2,-1.2,-1.3269945600040771,1.2,-1.2,low,low,,ISIC_0002566.JPG,,ISIC_0015390.JPG,,30,true,0.13,ll,keypress(f),0,false,209807.20000004768,209794.59999990463,204159.659,204364.70000004768,204176.507,209603.6,1,40,1,
sequence,flow.Sequence,6_0,2023-11-29T16:35:46.269Z,,,,,,,,,,,5618.09299990462,completion,,,,,,,low,low,,,,,,,true,,,,,false,209807.5,209794.59999990463,204159.659,204364.70000004768,204176.507,209603.6,1,40,,
trial,html.Screen,6_1_0,2023-11-29T16:35:51.412Z,,,,1,-1.1936751736668425,-1.2584308630745344,,,false,hh,5346.6999999523105,response,1.109799097093339,1.2,-1.2,1.091507924157762,1.2,-1.2,high,high,,ISIC_0061265.JPG,,ISIC_0765584.JPG,,25,true,0.14,hl,keypress(j),0,false,214950.59999990463,214950.29999995232,209586.899,209807.59999990463,209603.6,214763.597,1,40,2,
sequence,flow.Sequence,6_1,2023-11-29T16:35:51.412Z,,,,,,,,,,,5346.6999999523105,completion,,,,,,,high,high,,,,,,,true,,,,,false,214950.89999985695,214950.29999995232,209586.899,209807.59999990463,209603.6,214763.597,1,40,,
trial,html.Screen,6_2_0,2023-11-29T16:35:55.931Z,,,,1,0.8110121381849364,-0.7563142141851558,,,false,lh,4705.603000047675,response,-0.8443403196524287,1.2,-1.2,0.8858525429102605,1.2,-1.2,low,high,,ISIC_0033605.JPG,,ISIC_8777813.JPG,,27,true,0.40000000000000024,ll,keypress(f),0,false,219469.20000004768,219469.20000004768,214730.324,214951.09999990463,214763.597,219272.377,1,40,3,
sequence,flow.Sequence,6_2,2023-11-29T16:35:55.931Z,,,,,,,,,,,4705.603000047675,completion,,,,,,,low,high,,,,,,,true,,,,,false,219469.39999985695,219469.20000004768,214730.324,214951.09999990463,214763.597,219272.377,1,40,,
trial,html.Screen,6_3_0,2023-11-29T16:36:00.074Z,,,,1,-0.9617893983965208,0.9453006131304652,,,false,hl,4340.522999856941,response,1.3046390428588206,1.2,-1.2,-0.7942099232219556,1.2,-1.2,high,low,,ISIC_4229473.JPG,,ISIC_0013096.JPG,,26,true,0.4500000000000003,hh,keypress(i),0,false,223613,223612.89999985695,219255.755,219469.5,219272.377,223413.768,1,40,4,
sequence,flow.Sequence,6_3,2023-11-29T16:36:00.074Z,,,,,,,,,,,4340.522999856941,completion,,,,,,,high,low,,,,,,,true,,,,,false,223613.09999990463,223612.89999985695,219255.755,219469.5,219272.377,223413.768,1,40,,
trial,html.Screen,6_4_0,2023-11-29T16:36:03.939Z,,,,1,1.274752206258116,1.2988509166163749,,,false,ll,4063.631999856938,response,-0.94165594025755,1.2,-1.2,-0.8169638598102704,1.2,-1.2,low,low,,ISIC_6704623.JPG,,ISIC_0072429.JPG,,288,true,0.40000000000000024,hh,keypress(i),0,false,227477.5,227477.39999985695,223397.082,223613.20000004768,223413.768,227288.209,1,40,5,
sequence,flow.Sequence,6_4,2023-11-29T16:36:03.939Z,,,,,,,,,,,4063.631999856938,completion,,,,,,,low,low,,,,,,,true,,,,,false,227477.70000004768,227477.39999985695,223397.082,223613.09999990463,223413.768,227288.209,1,40,,
trial,html.Screen,6_5_0,2023-11-29T16:36:07.612Z,,,,1,-1.2014901828022857,-1.1484096197304636,,,true,hh,3861.991000047681,response,1.274752206258116,1.2,-1.2,1.2988509166163749,1.2,-1.2,high,high,,ISIC_0067808.JPG,,ISIC_6704623.JPG,,25,true,0.14,hh,keypress(i),0,false,231150.59999990463,231150.20000004768,227271.468,227477.70000004768,227288.209,230961.84,1,40,6,
sequence,flow.Sequence,6_5,2023-11-29T16:36:07.612Z,,,,,,,,,,,3861.991000047681,completion,,,,,,,high,high,,,,,,,true,,,,,false,231151,231150.20000004768,227271.468,227477.70000004768,227288.209,230961.84,1,40,,
trial,html.Screen,6_6_0,2023-11-29T16:36:11.011Z,,,,1,1.2804054832904397,1.171271535505083,,,true,ll,3587.95999995232,response,-1.1117876838408909,1.2,-1.2,-1.2957497771092716,1.2,-1.2,low,low,,ISIC_7889838.JPG,,ISIC_0061915.JPG,,30,true,0.13,ll,keypress(f),0,false,234550,234549.79999995232,230945.209,231151.20000004768,230961.84,234351.745,1,40,7,
sequence,flow.Sequence,6_6,2023-11-29T16:36:11.012Z,,,,,,,,,,,3587.95999995232,completion,,,,,,,low,low,,,,,,,true,,,,,false,234550.20000004768,234549.79999995232,230945.209,231151.09999990463,230961.84,234351.745,1,40,,
trial,html.Screen,6_7_0,2023-11-29T16:36:14.523Z,,,,1,1.1843968275545205,1.2828739728067764,,,true,ll,3709.6549998569535,response,-1.0605529903237636,1.2,-1.2,-1.1183115777058938,1.2,-1.2,low,low,,ISIC_0002901.JPG,,ISIC_0011365.JPG,,40,true,0.14,ll,keypress(f),0,false,238061.5,238061.39999985695,234335.232,234550.39999985695,234351.745,237875.221,1,40,8,
sequence,flow.Sequence,6_7,2023-11-29T16:36:14.523Z,,,,,,,,,,,3709.6549998569535,completion,,,,,,,low,low,,,,,,,true,,,,,false,238061.59999990463,238061.39999985695,234335.232,234550.39999985695,234351.745,237875.221,1,40,,
trial,html.Screen,6_8_0,2023-11-29T16:36:18.996Z,,,,1,-0.9633172970727744,0.8472659344792351,,,true,hl,4657.979000047693,response,1.2362557973341337,1.2,-1.2,-1.2548266183352603,1.2,-1.2,high,low,,ISIC_0067172.JPG,,ISIC_0033886.JPG,,26,true,0.4500000000000003,hl,keypress(j),0,false,242533.39999985695,242533.20000004768,237841.977,238061.59999990463,237875.221,242333.882,1,40,9,
sequence,flow.Sequence,6_8,2023-11-29T16:36:18.996Z,,,,,,,,,,,4657.979000047693,completion,,,,,,,high,low,,,,,,,true,,,,,false,242533.59999990463,242533.20000004768,237841.977,238061.59999990463,237875.221,242333.882,1,40,,
trial,html.Screen,6_9_0,2023-11-29T16:36:21.252Z,,,,1,-1.1668613502915044,-1.327068780840367,,,true,hh,2455.1179999999877,response,1.3794745596957585,1.2,-1.2,1.3078626540563885,1.2,-1.2,high,high,,ISIC_0054459.JPG,,ISIC_3601224.JPG,,203,true,0.40000000000000024,hh,keypress(i),0,false,244789.09999990463,244789,242317.247,242533.70000004768,242333.882,244604.988,1,40,10,
sequence,flow.Sequence,6_9,2023-11-29T16:36:21.252Z,,,,,,,,,,,2455.1179999999877,completion,,,,,,,high,high,,,,,,,true,,,,,false,244789.20000004768,244789,242317.247,242533.70000004768,242333.882,244604.988,1,40,,
trial,html.Screen,6_10_0,2023-11-29T16:36:24.636Z,,,,1,1.0329549150636406,-1.01584100839286,,,false,lh,3568.1119999046205,response,-1.0685314915436992,1.2,-1.2,0.8203833713472237,1.2,-1.2,low,high,,ISIC_0054670.JPG,,ISIC_0029374.JPG,,27,true,0.40000000000000024,hl,keypress(j),0,false,248173.20000004768,248173.09999990463,244571.623,244789.29999995232,244604.988,247978.182,1,40,11,
sequence,flow.Sequence,6_10,2023-11-29T16:36:24.636Z,,,,,,,,,,,3568.1119999046205,completion,,,,,,,low,high,,,,,,,true,,,,,false,248173.29999995232,248173.09999990463,244571.623,244789.29999995232,244604.988,247978.182,1,40,,
trial,html.Screen,6_11_0,2023-11-29T16:36:27.404Z,,,,1,-1.168911077628813,1.2181838235193114,,,false,hl,2963.217999856948,response,1.0369885917487718,1.2,-1.2,-0.8486937878412699,1.2,-1.2,high,low,,ISIC_7358691.JPG,,ISIC_6917681.JPG,,26,true,0.4500000000000003,hh,keypress(i),0,false,250941.5,250941.39999985695,247961.492,248173.39999985695,247978.182,250750.533,1,40,12,
sequence,flow.Sequence,6_11,2023-11-29T16:36:27.404Z,,,,,,,,,,,2963.217999856948,completion,,,,,,,high,low,,,,,,,true,,,,,false,250941.70000004768,250941.39999985695,247961.492,248173.29999995232,247978.182,250750.533,1,40,,
trial,html.Screen,6_12_0,2023-11-29T16:36:33.124Z,,,,1,1.1684835186766898,1.2921331918483707,,,true,ll,5910.566999904637,response,-1.5039823485899328,1.2,-1.2,-1.1665943858643009,1.2,-1.2,low,low,,ISIC_5920470.JPG,,ISIC_0071388.JPG,,288,true,0.40000000000000024,ll,keypress(f),0,false,256661.20000004768,256661.09999990463,250733.67,250941.79999995232,250750.533,256478.054,1,40,13,
sequence,flow.Sequence,6_12,2023-11-29T16:36:33.124Z,,,,,,,,,,,5910.566999904637,completion,,,,,,,low,low,,,,,,,true,,,,,false,256661.29999995232,256661.09999990463,250733.67,250941.79999995232,250750.533,256478.054,1,40,,
trial,html.Screen,6_13_0,2023-11-29T16:36:37.316Z,,,,1,0.8828738626295417,-0.8288177599439582,,,false,lh,4375.245999952313,response,-0.90812608370647,1.2,-1.2,1.2720026872926935,1.2,-1.2,low,high,,ISIC_0056041.JPG,,ISIC_0450295.JPG,,27,true,0.40000000000000024,hh,keypress(i),0,false,260853.39999985695,260853.29999995232,256444.693,256661.39999985695,256478.054,260652.831,1,40,14,
sequence,flow.Sequence,6_13,2023-11-29T16:36:37.316Z,,,,,,,,,,,4375.245999952313,completion,,,,,,,low,high,,,,,,,true,,,,,false,260853.5,260853.29999995232,256444.693,256661.39999985695,256478.054,260652.831,1,40,,
trial,html.Screen,6_14_0,2023-11-29T16:36:41.421Z,,,,1,0.7883321712536753,-1.0011430756825364,,,false,lh,4305.068999856943,response,-0.9617893983965208,1.2,-1.2,0.9453006131304652,1.2,-1.2,low,high,,ISIC_9828853.JPG,,ISIC_4229473.JPG,,40,true,0.4500000000000003,ll,keypress(f),0,false,264958.2000000477,264957.89999985695,260636.411,260853.5,260652.831,264760.836,1,40,15,
sequence,flow.Sequence,6_14,2023-11-29T16:36:41.421Z,,,,,,,,,,,4305.068999856943,completion,,,,,,,low,high,,,,,,,true,,,,,false,264958.5,264957.89999985695,260636.411,260853.5,260652.831,264760.836,1,40,,
trial,html.Screen,6_15_0,2023-11-29T16:36:47.893Z,,,,1,-0.9662688541319592,0.929746784178986,,,false,hl,6669.063999856939,response,0.7883321712536753,1.2,-1.2,-1.0011430756825364,1.2,-1.2,high,low,,ISIC_0011077.JPG,,ISIC_9828853.JPG,,26,true,0.4500000000000003,hh,keypress(i),0,false,271430,271429.89999985695,264744.162,264958.7000000477,264760.836,271240.1,1,40,16,
sequence,flow.Sequence,6_15,2023-11-29T16:36:47.893Z,,,,,,,,,,,6669.063999856939,completion,,,,,,,high,low,,,,,,,true,,,,,false,271430.2000000477,271429.89999985695,264744.162,264958.5,264760.836,271240.1,1,40,,
trial,html.Screen,6_16_0,2023-11-29T16:36:59.156Z,,,,1,-0.9633172970727744,0.8472659344792351,,,false,hl,11453.100000047707,response,0.8034318937720549,1.2,-1.2,-1.0024917298189338,1.2,-1.2,high,low,,ISIC_0067172.JPG,,ISIC_0032766.JPG,,26,true,0.4500000000000003,hh,keypress(i),0,false,282693.2999999523,282693.2000000477,271223.62,271430.39999985695,271240.1,282512.034,1,40,17,
sequence,flow.Sequence,6_16,2023-11-29T16:36:59.156Z,,,,,,,,,,,11453.100000047707,completion,,,,,,,high,low,,,,,,,true,,,,,false,282693.5,282693.2000000477,271223.62,271430.2999999523,271240.1,282512.034,1,40,,
trial,html.Screen,6_17_0,2023-11-29T16:37:05.989Z,,,,1,-0.8544507134472948,0.9244388608707323,,,true,hl,7013.765999952331,response,1.0329549150636406,1.2,-1.2,-1.01584100839286,1.2,-1.2,high,low,,ISIC_3565564.JPG,,ISIC_0054670.JPG,,26,true,0.4500000000000003,hl,keypress(j),0,false,289526,289525.7999999523,282478.609,282693.59999990463,282512.034,289325.264,1,40,18,
sequence,flow.Sequence,6_17,2023-11-29T16:37:05.989Z,,,,,,,,,,,7013.765999952331,completion,,,,,,,high,low,,,,,,,true,,,,,false,289526.39999985695,289525.7999999523,282478.609,282693.59999990463,282512.034,289325.264,1,40,,
trial,html.Screen,6_18_0,2023-11-29T16:37:19.526Z,,,,1,-0.8867328775712738,1.0063426986460375,,,false,hl,13736.735999999975,response,0.9754077946987664,1.2,-1.2,-1.1821868813141057,1.2,-1.2,high,low,,ISIC_0055759.JPG,,ISIC_0024317.JPG,,26,true,0.4500000000000003,hh,keypress(i),0,false,303062.2000000477,303062,289308.645,289526.59999990463,289325.264,302868.312,1,40,19,
sequence,flow.Sequence,6_18,2023-11-29T16:37:19.527Z,,,,,,,,,,,13736.735999999975,completion,,,,,,,high,low,,,,,,,true,,,,,false,303062.59999990463,303062,289308.645,289526.5,289325.264,302868.312,1,40,,
trial,html.Screen,6_19_0,2023-11-29T16:37:21.814Z,,,,1,-1.1117876838408909,-1.2957497771092716,,,true,hh,2481.1880000000237,response,1.3898276901544475,1.2,-1.2,0.8571395219505213,1.2,-1.2,high,high,,ISIC_0061915.JPG,,ISIC_2463014.JPG,,203,true,0.40000000000000024,hh,keypress(i),0,false,305349.7000000477,305349.5,302851.709,303062.7000000477,302868.312,305172.755,1,40,20,
sequence,flow.Sequence,6_19,2023-11-29T16:37:21.814Z,,,,,,,,,,,2481.1880000000237,completion,,,,,,,high,high,,,,,,,true,,,,,false,305349.89999985695,305349.5,302851.709,303062.7000000477,302868.312,305172.755,1,40,,
trial,html.Screen,6_20_0,2023-11-29T16:37:25.485Z,,,,1,1.0453124399868816,-0.8986747280184286,,,false,lh,3847.945000047679,response,-0.9138670886161264,1.2,-1.2,0.8414121478342018,1.2,-1.2,low,high,,ISIC_0013967.JPG,,ISIC_6709052.JPG,,27,true,0.40000000000000024,ll,keypress(f),0,false,309020.89999985695,309020.7000000477,305139.439,305350.09999990463,305172.755,308829.896,1,40,21,
sequence,flow.Sequence,6_20,2023-11-29T16:37:25.485Z,,,,,,,,,,,3847.945000047679,completion,,,,,,,low,high,,,,,,,true,,,,,false,309021,309020.7000000477,305139.439,305350,305172.755,308829.896,1,40,,
trial,html.Screen,6_21_0,2023-11-29T16:37:28.189Z,,,,1,-1.0773466327271526,-1.1601445610079184,,,true,hh,2895.003999856941,response,0.9798314852960236,1.2,-1.2,1.167024525807191,1.2,-1.2,high,high,,ISIC_0055169.JPG,,ISIC_4341261.JPG,,265,true,0.4500000000000003,hh,keypress(i),0,false,311725,311724.89999985695,308813.393,309021,308829.896,311535.131,1,40,22,
sequence,flow.Sequence,6_21,2023-11-29T16:37:28.189Z,,,,,,,,,,,2895.003999856941,completion,,,,,,,high,high,,,,,,,true,,,,,false,311725.09999990463,311724.89999985695,308813.393,309021,308829.896,311535.131,1,40,,
trial,html.Screen,6_22_0,2023-11-29T16:37:34.221Z,,,,1,1.160746324899676,1.1927876559115576,,,false,ll,6221.968999904639,response,-1.1936751736668425,1.2,-1.2,-1.2584308630745344,1.2,-1.2,low,low,,ISIC_8651053.JPG,,ISIC_0061265.JPG,,30,true,0.13,lh,keypress(e),0,false,317757.2000000477,317757.09999990463,311518.508,311725.09999990463,311535.131,317580.219,1,40,23,
sequence,flow.Sequence,6_22,2023-11-29T16:37:34.222Z,,,,,,,,,,,6221.968999904639,completion,,,,,,,low,low,,,,,,,true,,,,,false,317757.39999985695,317757.09999990463,311518.508,311725.09999990463,311535.131,317580.219,1,40,,
trial,html.Screen,6_23_0,2023-11-29T16:37:37.454Z,,,,1,-0.9617893983965208,0.9453006131304652,,,false,hl,3409.2810000000172,response,0.7882758084023446,1.2,-1.2,-0.8296405881378283,1.2,-1.2,high,low,,ISIC_4229473.JPG,,ISIC_0065882.JPG,,26,true,0.4500000000000003,hh,keypress(i),0,false,320989.7000000477,320989.5,317546.898,317757.5,317580.219,320803.208,1,40,24,
sequence,flow.Sequence,6_23,2023-11-29T16:37:37.454Z,,,,,,,,,,,3409.2810000000172,completion,,,,,,,high,low,,,,,,,true,,,,,false,320990,320989.5,317546.898,317757.39999985695,317580.219,320803.208,1,40,,
trial,html.Screen,6_24_0,2023-11-29T16:37:39.341Z,,,,1,-1.2081146885025262,1.195668832085049,,,false,hl,2073.8919999046484,response,0.7882758084023446,1.2,-1.2,-0.8296405881378283,1.2,-1.2,high,low,,ISIC_7369690.JPG,,ISIC_0065882.JPG,,26,true,0.4500000000000003,hh,keypress(i),0,false,322877.2000000477,322877.09999990463,320769.963,320990.09999990463,320803.208,322673.476,1,40,25,
sequence,flow.Sequence,6_24,2023-11-29T16:37:39.341Z,,,,,,,,,,,2073.8919999046484,completion,,,,,,,high,low,,,,,,,true,,,,,false,322877.2999999523,322877.09999990463,320769.963,320990,320803.208,322673.476,1,40,,
trial,html.Screen,6_25_0,2023-11-29T16:37:44.101Z,,,,1,1.0453124399868816,-0.8986747280184286,,,false,lh,4963.623999904608,response,-1.0116417541846066,1.2,-1.2,1.033442916947398,1.2,-1.2,low,high,,ISIC_0013967.JPG,,ISIC_0031389.JPG,,27,true,0.40000000000000024,ll,keypress(f),0,false,327637.2999999523,327637.09999990463,322656.897,322877.2999999523,322673.476,327450.725,1,40,26,
sequence,flow.Sequence,6_25,2023-11-29T16:37:44.102Z,,,,,,,,,,,4963.623999904608,completion,,,,,,,low,high,,,,,,,true,,,,,false,327637.39999985695,327637.09999990463,322656.897,322877.2999999523,322673.476,327450.725,1,40,,
trial,html.Screen,6_26_0,2023-11-29T16:37:49.109Z,,,,1,-1.0769708994456726,-1.2196503533725178,,,true,hh,5194.475000047707,response,1.5793180618311822,1.2,-1.2,0.8384436306332896,1.2,-1.2,high,high,,ISIC_0063824.JPG,,ISIC_1584535.JPG,,265,true,0.4500000000000003,hh,keypress(i),0,false,332645.39999985695,332645.2000000477,327416.15,327637.39999985695,327450.725,332459.187,1,40,27,
sequence,flow.Sequence,6_26,2023-11-29T16:37:49.110Z,,,,,,,,,,,5194.475000047707,completion,,,,,,,high,high,,,,,,,true,,,,,false,332645.5,332645.2000000477,327416.15,327637.39999985695,327450.725,332459.187,1,40,,
trial,html.Screen,6_27_0,2023-11-29T16:37:54.933Z,,,,1,1.2578167348825195,-0.8371819698254004,,,false,lh,6009.813000000024,response,-0.8500530224490773,1.2,-1.2,1.0893360711742854,1.2,-1.2,low,high,,ISIC_9613570.JPG,,ISIC_2998367.JPG,,27,true,0.40000000000000024,hl,keypress(j),0,false,338469,338469,332426.006,332645.5,332459.187,338270.483,1,40,28,
sequence,flow.Sequence,6_27,2023-11-29T16:37:54.933Z,,,,,,,,,,,6009.813000000024,completion,,,,,,,low,high,,,,,,,true,,,,,false,338469.09999990463,338469,332426.006,332645.5,332459.187,338270.483,1,40,,
trial,html.Screen,6_28_0,2023-11-29T16:37:59.021Z,,,,1,0.8034318937720549,-1.0024917298189338,,,false,lh,4286.616999904625,response,-0.7714570894008278,1.2,-1.2,0.9113656554657036,1.2,-1.2,low,high,,ISIC_0032766.JPG,,ISIC_4529092.JPG,,40,true,0.4500000000000003,ll,keypress(f),0,false,342557.2999999523,342557.09999990463,338253.746,338469.2000000477,338270.483,342361.778,1,40,29,
sequence,flow.Sequence,6_28,2023-11-29T16:37:59.022Z,,,,,,,,,,,4286.616999904625,completion,,,,,,,low,high,,,,,,,true,,,,,false,342557.5,342557.09999990463,338253.746,338469.09999990463,338270.483,342361.778,1,40,,
trial,html.Screen,6_29_0,2023-11-29T16:38:02.438Z,,,,1,1.2578167348825195,-0.8371819698254004,,,true,lh,3611.9220000476926,response,-0.7872534775441857,1.2,-1.2,0.8441107693833454,1.2,-1.2,low,high,,ISIC_9613570.JPG,,ISIC_0028788.JPG,,40,true,0.4500000000000003,lh,keypress(e),0,false,345973.7999999523,345973.7000000477,342345.201,342557.5,342361.778,345785.16,1,40,30,
sequence,flow.Sequence,6_29,2023-11-29T16:38:02.438Z,,,,,,,,,,,3611.9220000476926,completion,,,,,,,low,high,,,,,,,true,,,,,false,345974.09999990463,345973.7000000477,342345.201,342557.5,342361.778,345785.16,1,40,,
trial,html.Screen,6_30_0,2023-11-29T16:38:09.637Z,,,,1,-1.2749714218614645,-1.1578619398362149,,,false,hh,7387.939999904658,response,1.008831959223626,1.2,-1.2,0.9823409524664072,1.2,-1.2,high,high,,ISIC_0024999.JPG,,ISIC_1579745.JPG,,265,true,0.4500000000000003,hl,keypress(j),0,false,353173.2999999523,353173.09999990463,345768.388,345974.2999999523,345785.16,352982.673,1,40,31,
sequence,flow.Sequence,6_30,2023-11-29T16:38:09.638Z,,,,,,,,,,,7387.939999904658,completion,,,,,,,high,high,,,,,,,true,,,,,false,353173.5,353173.09999990463,345768.388,345974.2000000477,345785.16,352982.673,1,40,,
trial,html.Screen,6_31_0,2023-11-29T16:38:11.766Z,,,,1,-1.1668613502915044,-1.327068780840367,,,true,hh,2318.926999904623,response,1.2541318165695772,1.2,-1.2,1.085289936617366,1.2,-1.2,high,high,,ISIC_0054459.JPG,,ISIC_4277207.JPG,,25,true,0.14,hh,keypress(i),0,false,355301.89999985695,355301.59999990463,352965.909,353173.59999990463,352982.673,355103.253,1,40,32,
sequence,flow.Sequence,6_31,2023-11-29T16:38:11.766Z,,,,,,,,,,,2318.926999904623,completion,,,,,,,high,high,,,,,,,true,,,,,false,355302.2000000477,355301.59999990463,352965.909,353173.5,352982.673,355103.253,1,40,,
trial,html.Screen,6_32_0,2023-11-29T16:38:14.030Z,,,,1,1.2804054832904397,1.171271535505083,,,true,ll,2462.646999856923,response,-1.1117876838408909,1.2,-1.2,-1.2957497771092716,1.2,-1.2,low,low,,ISIC_7889838.JPG,,ISIC_0061915.JPG,,30,true,0.13,ll,keypress(f),0,false,357566.09999990463,357565.89999985695,355086.746,355302.39999985695,355103.253,357374.434,1,40,33,
sequence,flow.Sequence,6_32,2023-11-29T16:38:14.031Z,,,,,,,,,,,2462.646999856923,completion,,,,,,,low,low,,,,,,,true,,,,,false,357566.5,357565.89999985695,355086.746,355302.2999999523,355103.253,357374.434,1,40,,
trial,html.Screen,6_33_0,2023-11-29T16:38:21.776Z,,,,1,-1.1441767540243375,-1.0949087392471728,,,false,hh,7935.4659998569405,response,1.2219550761700546,1.2,-1.2,1.2809901875733454,1.2,-1.2,high,high,,ISIC_0054146.JPG,,ISIC_6463417.JPG,,25,true,0.14,hl,keypress(j),0,false,365310.09999990463,365309.89999985695,357357.714,357566.7000000477,357374.434,365123.236,1,40,34,
sequence,flow.Sequence,6_33,2023-11-29T16:38:21.776Z,,,,,,,,,,,7935.4659998569405,completion,,,,,,,high,high,,,,,,,true,,,,,false,365310.5,365309.89999985695,357357.714,357566.59999990463,357374.434,365123.236,1,40,,
trial,html.Screen,6_34_0,2023-11-29T16:38:25.838Z,,,,1,-0.8544507134472948,0.9244388608707323,,,false,hl,4249.563999952341,response,1.0329549150636406,1.2,-1.2,-1.01584100839286,1.2,-1.2,high,low,,ISIC_3565564.JPG,,ISIC_0054670.JPG,,26,true,0.4500000000000003,ll,keypress(f),0,false,369372.89999985695,369372.7999999523,365089.456,365310.59999990463,365123.236,369180.63,1,40,35,
sequence,flow.Sequence,6_34,2023-11-29T16:38:25.839Z,,,,,,,,,,,4249.563999952341,completion,,,,,,,high,low,,,,,,,true,,,,,false,369373,369372.7999999523,365089.456,365310.59999990463,365123.236,369180.63,1,40,,
trial,html.Screen,6_35_0,2023-11-29T16:38:29.270Z,,,,1,1.3246728710248594,1.1527736000922424,,,false,ll,3624.1699999523116,response,-1.1265364076882312,1.2,-1.2,-0.9147575031014517,1.2,-1.2,low,low,,ISIC_6876281.JPG,,ISIC_0029513.JPG,,288,true,0.40000000000000024,lh,keypress(e),0,false,372804.7999999523,372804.7999999523,369163.956,369373,369180.63,372603.928,1,40,36,
sequence,flow.Sequence,6_35,2023-11-29T16:38:29.270Z,,,,,,,,,,,3624.1699999523116,completion,,,,,,,low,low,,,,,,,true,,,,,false,372804.89999985695,372804.7999999523,369163.956,369373,369180.63,372603.928,1,40,,
trial,html.Screen,6_36_0,2023-11-29T16:38:36.535Z,,,,1,1.3246728710248594,1.1527736000922424,,,true,ll,7465.571999999986,response,-1.0865209011322887,1.2,-1.2,-1.1401461171952545,1.2,-1.2,low,low,,ISIC_6876281.JPG,,ISIC_0016145.JPG,,40,true,0.14,ll,keypress(f),0,false,380069.7000000477,380069.5,372587.168,372805,372603.928,379868.064,1,40,37,
sequence,flow.Sequence,6_36,2023-11-29T16:38:36.535Z,,,,,,,,,,,7465.571999999986,completion,,,,,,,low,low,,,,,,,true,,,,,false,380069.89999985695,380069.5,372587.168,372805,372603.928,379868.064,1,40,,
trial,html.Screen,6_37_0,2023-11-29T16:38:44.406Z,,,,1,-1.071312313440387,-1.0935391476164529,,,false,hh,8072.636000047671,response,1.0659165756604234,1.2,-1.2,1.0867497316848906,1.2,-1.2,high,high,,ISIC_0063680.JPG,,ISIC_5807608.JPG,,25,true,0.14,hl,keypress(j),0,false,387940.7999999523,387940.7000000477,379851.287,380069.89999985695,379868.064,387750.062,1,40,38,
sequence,flow.Sequence,6_37,2023-11-29T16:38:44.406Z,,,,,,,,,,,8072.636000047671,completion,,,,,,,high,high,,,,,,,true,,,,,false,387940.89999985695,387940.7000000477,379851.287,380069.89999985695,379868.064,387750.062,1,40,,
trial,html.Screen,6_38_0,2023-11-29T16:38:47.767Z,,,,1,1.3246728710248594,1.1527736000922424,,,true,ll,3551.23799995234,response,-1.1392972253022884,1.2,-1.2,-1.208510423375335,1.2,-1.2,low,low,,ISIC_6876281.JPG,,ISIC_0046526.JPG,,30,true,0.13,ll,keypress(f),0,false,391301.39999985695,391301.2999999523,387733.369,387941,387750.062,391106.552,1,40,39,
sequence,flow.Sequence,6_38,2023-11-29T16:38:47.767Z,,,,,,,,,,,3551.23799995234,completion,,,,,,,low,low,,,,,,,true,,,,,false,391301.7000000477,391301.2999999523,387733.369,387941,387750.062,391106.552,1,40,,
trial,html.Screen,6_39_0,2023-11-29T16:38:54.063Z,,,,1,0.8828738626295417,-0.8288177599439582,,,true,lh,6490.447999999975,response,-0.9662688541319592,1.2,-1.2,0.929746784178986,1.2,-1.2,low,high,,ISIC_0056041.JPG,,ISIC_0011077.JPG,,27,true,0.40000000000000024,lh,keypress(e),0,false,397597.2000000477,397597,391090.012,391301.7999999523,391106.552,397402.223,1,40,40,
sequence,flow.Sequence,6_39,2023-11-29T16:38:54.063Z,,,,,,,,,,,6490.447999999975,completion,,,,,,,low,high,,,,,,,true,,,,,false,397597.2999999523,397597,391090.012,391301.7999999523,391106.552,397402.223,1,40,,
practice_loop,flow.Loop,6,2023-11-29T16:38:54.063Z,,,,,,,,,,,193420.493,completion,,,,,,,,,,,,,,,true,,,,,false,397597.39999985695,397597,204159.659,204364.70000004768,204176.507,397402.223,1,40,,
stair_instructions,html.Screen,7,2023-11-29T16:39:03.006Z,,,,,,,,,,,9138.277000000002,response,,,,,,,,,,,,,,,,,continue,click button,,,406541,406540.5,397385.429,397597.39999985695,397402.223,406352.979,,,,
trial,html.Screen,8_0_0,2023-11-29T16:39:10.604Z,,,,2,-0.039520186367207,-0.0377961575607372,,0.04,false,lh,7785.521000000008,response,-0.7856143618373893,1.2,-1.2,1.0273608829432213,1.2,-1.2,low,high,,ISIC_6356149.JPG,,ISIC_9303849.JPG,28,40,false,0.4500000000000003,hl,keypress(j),0,true,414138.59999990463,414138.5,406336.192,406541.09999990463,406352.979,413951.001,1,40,1,
sequence,flow.Sequence,8_0,2023-11-29T16:39:10.604Z,,,,,,,,,,,7785.521000000008,completion,,,,,,,low,high,,,,,,,false,,,,,true,414138.89999985695,414138.5,406336.192,406541.09999990463,406352.979,413951.001,1,40,,
trial,html.Screen,8_1_0,2023-11-29T16:39:13.263Z,,,,2,0.0367744112927588,0.0324865661712824,,0.04,false,lh,2846.298999952327,response,-0.8987343013179191,1.15,-1.2,0.8149073454566363,1.2,-1.15,low,high,,ISIC_4523565.JPG,,ISIC_0472513.JPG,28,27,false,0.40000000000000024,hh,keypress(i),0,true,416797.39999985695,416797.2999999523,413934.324,414139,413951.001,416606.312,1,40,2,
sequence,flow.Sequence,8_1,2023-11-29T16:39:13.263Z,,,,,,,,,,,2846.298999952327,completion,,,,,,,low,high,,,,,,,false,,,,,true,416797.59999990463,416797.2999999523,413934.324,414139,413951.001,416606.312,1,40,,
trial,html.Screen,8_2_0,2023-11-29T16:39:16.479Z,,,,2,0.0119001144851157,-0.0063430114540141,,0.04,true,ll,3406.6880000000237,response,-1.1195710731537871,1.15,-1.2,-1.1961732733209125,1.15,-1.15,low,low,,ISIC_0003822.JPG,,ISIC_0067170.JPG,28,27,false,0.13,ll,keypress(f),0,true,420013.09999990463,420013,416589.498,416797.7000000477,416606.312,419812.359,1,40,3,
sequence,flow.Sequence,8_2,2023-11-29T16:39:16.479Z,,,,,,,,,,,3406.6880000000237,completion,,,,,,,low,low,,,,,,,false,,,,,true,420013.2000000477,420013,416589.498,416797.7000000477,416606.312,419812.359,1,40,,
trial,html.Screen,8_3_0,2023-11-29T16:39:21.843Z,,,,2,-0.0088741920055285,-0.0058246074740588,,0.04,false,ll,5563.240999904636,response,-1.1243896694621007,1.15,-1.15,-1.1772340944704969,1.15,-1.15,low,low,,ISIC_4136663.JPG,,ISIC_0062765.JPG,28,27,false,0.1,lh,keypress(e),0,true,425375.7000000477,425375.59999990463,419795.857,420013.2000000477,419812.359,425172.82,1,40,4,
sequence,flow.Sequence,8_3,2023-11-29T16:39:21.843Z,,,,,,,,,,,5563.240999904636,completion,,,,,,,low,low,,,,,,,false,,,,,true,425375.7999999523,425375.59999990463,419795.857,420013.2000000477,419812.359,425172.82,1,40,,
trial,html.Screen,8_4_0,2023-11-29T16:39:23.872Z,,,,2,0.0367706518941078,-0.0161069838272154,,0.04,true,hh,2232.3800000476767,response,1.1018283884093611,1.15,-1.1102814713915066,1.053767307212406,1.15,-1.15,high,high,,ISIC_0033419.JPG,,ISIC_6785249.JPG,28,27,false,0.14,hh,keypress(i),0,true,427405.2999999523,427405.2000000477,425156.22,425375.89999985695,425172.82,427210.117,1,40,5,
sequence,flow.Sequence,8_4,2023-11-29T16:39:23.872Z,,,,,,,,,,,2232.3800000476767,completion,,,,,,,high,high,,,,,,,false,,,,,true,427405.39999985695,427405.2000000477,425156.22,425375.7999999523,425172.82,427210.117,1,40,,
trial,html.Screen,8_5_0,2023-11-29T16:39:27.760Z,,,,2,0.0283578106329894,-0.0088840758711548,,0.04,false,hl,4082.982999904605,response,0.8110121381849364,1.15,-1.1102814713915066,-0.7563142141851558,1.0277978478108836,-1.15,high,low,,ISIC_0060707.JPG,,ISIC_0033605.JPG,28,26,false,0.40000000000000024,lh,keypress(e),0,true,431293.09999990463,431293.09999990463,427193.637,427405.5,427210.117,431101.038,1,40,6,
sequence,flow.Sequence,8_5,2023-11-29T16:39:27.760Z,,,,,,,,,,,4082.982999904605,completion,,,,,,,high,low,,,,,,,false,,,,,true,431293.2999999523,431293.09999990463,427193.637,427405.5,427210.117,431101.038,1,40,,
trial,html.Screen,8_6_0,2023-11-29T16:39:30.904Z,,,,2,0.0308384937406319,-0.0038396364323947,,0.04,true,lh,3335.761999952316,response,-1.045301444872812,1.15,-1.1102814713915066,1.0872560254441277,1.0277978478108836,-1.15,low,high,,ISIC_0029825.JPG,,ISIC_4507700.JPG,28,26,false,0.27000000000000013,lh,keypress(e),0,true,434437,434436.7999999523,431084.43,431293.2999999523,431101.038,434240.458,1,40,7,
sequence,flow.Sequence,8_6,2023-11-29T16:39:30.904Z,,,,,,,,,,,3335.761999952316,completion,,,,,,,low,high,,,,,,,false,,,,,true,434437.09999990463,434436.7999999523,431084.43,431293.2999999523,431101.038,434240.458,1,40,,
trial,html.Screen,8_7_0,2023-11-29T16:39:32.728Z,,,,2,-0.0109416414475118,-0.005246498750811,,0.04,false,hl,2020.5420000000158,response,1.0453124399868816,1.15,-1.1102814713915066,-0.8986747280184286,1.0277978478108836,-1.15,high,low,,ISIC_0064279.JPG,,ISIC_0013967.JPG,28,26,false,0.40000000000000024,hh,keypress(i),0,true,436261.09999990463,436261,434223.756,434437.09999990463,434240.458,436060.733,1,40,8,
sequence,flow.Sequence,8_7,2023-11-29T16:39:32.728Z,,,,,,,,,,,2020.5420000000158,completion,,,,,,,high,low,,,,,,,false,,,,,true,436261.2000000477,436261,434223.756,434437.09999990463,434240.458,436060.733,1,40,,
trial,html.Screen,8_8_0,2023-11-29T16:39:48.525Z,,,,2,-0.0164027439304477,0.0082910758715273,,0.04,,,15814.04800000001,timeout,1.1072126870290426,1.15,-1.1102814713915066,0.9917482735105084,1.0277978478108836,-1.15,high,high,,ISIC_7381224.JPG,,ISIC_0071754.JPG,28,31,false,0.13,,,0,true,452058.09999990463,452057.7000000477,436043.978,436261.2999999523,436060.733,451874.781,1,40,9,
sequence,flow.Sequence,8_8,2023-11-29T16:39:48.525Z,,,,,,,,,,,15996.967000047676,completion,,,,,,,high,high,,,,,,,false,,,,,true,452058.59999990463,452057.7000000477,436043.978,436261.2999999523,436060.733,451874.781,1,40,,
trial,html.Screen,8_9_0,2023-11-29T16:40:00.889Z,,,,2,0.0286056110007553,0.036125199756515,,0.04,false,lh,12547.118999856932,response,-0.90812608370647,1.15,-1.1102814713915066,1.2720026872926935,1.0277978478108836,-1.15,low,high,,ISIC_6535558.JPG,,ISIC_0450295.JPG,28,26,false,0.27000000000000013,hl,keypress(j),0,true,464422.09999990463,464421.89999985695,451841.586,452058.7999999523,451874.781,464232.104,1,40,10,
sequence,flow.Sequence,8_9,2023-11-29T16:40:00.889Z,,,,,,,,,,,12547.118999856932,completion,,,,,,,low,high,,,,,,,false,,,,,true,464422.39999985695,464421.89999985695,451841.586,452058.7000000477,451874.781,464232.104,1,40,,
trial,html.Screen,8_10_0,2023-11-29T16:40:06.401Z,,,,2,0.0308384937406319,-0.0038396364323947,,0.04,false,lh,5701.695999952324,response,-0.8544507134472948,1.15,-1.1602814713915066,0.9244388608707323,1.0777978478108836,-1.15,low,high,,ISIC_0029825.JPG,,ISIC_3565564.JPG,28,25,false,0.31000000000000016,ll,keypress(f),0,true,469934.09999990463,469933.7999999523,464215.418,464422.5,464232.104,469742.839,1,40,11,
sequence,flow.Sequence,8_10,2023-11-29T16:40:06.401Z,,,,,,,,,,,5701.695999952324,completion,,,,,,,low,high,,,,,,,false,,,,,true,469934.39999985695,469933.7999999523,464215.418,464422.5,464232.104,469742.839,1,40,,
trial,html.Screen,8_11_0,2023-11-29T16:40:12.256Z,,,,2,0.0044063257337227,0.0172548282859886,,0.04,false,ll,6046.361000047706,response,-1.0769708994456726,1.15,-1.1602814713915066,-1.2196503533725178,1.1277978478108837,-1.15,low,low,,ISIC_7413786.JPG,,ISIC_0063824.JPG,28,26,false,0.1,hh,keypress(i),0,true,475789.39999985695,475789.2000000477,469726.162,469934.5,469742.839,475587.561,1,40,12,
sequence,flow.Sequence,8_11,2023-11-29T16:40:12.256Z,,,,,,,,,,,6046.361000047706,completion,,,,,,,low,low,,,,,,,false,,,,,true,475789.5,475789.2000000477,469726.162,469934.5,469742.839,475587.561,1,40,,
trial,html.Screen,8_12_0,2023-11-29T16:40:20.073Z,,,,2,0,-0.0102871556606504,,0.04,true,hh,8017.439000000013,response,1.077278111180185,1.15,-1.1602814713915066,1.1530533996184025,1.1277978478108837,-1.15,high,high,,ISIC_1805163.JPG,,ISIC_9525136.JPG,28,29,false,0.14,hh,keypress(i),0,true,483605.2000000477,483605,475570.854,475789.59999990463,475587.561,483402.717,1,40,13,
sequence,flow.Sequence,8_12,2023-11-29T16:40:20.074Z,,,,,,,,,,,8017.439000000013,completion,,,,,,,high,high,,,,,,,false,,,,,true,483605.39999985695,483605,475570.854,475789.59999990463,475587.561,483402.717,1,40,,
trial,html.Screen,8_13_0,2023-11-29T16:40:28.066Z,,,,2,-0.0164027439304477,0.0082910758715273,,0.04,false,ll,8194.782999999996,response,-1.1746004947382946,1.0651657553992937,-1.1602814713915066,-1.2207657619249948,1.1277978478108837,-1.15,low,low,,ISIC_7381224.JPG,,ISIC_0012069.JPG,28,26,false,0.1,lh,keypress(e),0,true,491597.7999999523,491597.5,483386.252,483605.39999985695,483402.717,491401.635,1,40,14,
sequence,flow.Sequence,8_13,2023-11-29T16:40:28.066Z,,,,,,,,,,,8194.782999999996,completion,,,,,,,low,low,,,,,,,false,,,,,true,491598,491597.5,483386.252,483605.39999985695,483402.717,491401.635,1,40,,
trial,html.Screen,8_14_0,2023-11-29T16:40:41.306Z,,,,2,0.0200295718112167,0.0155559071275806,,0.04,false,hh,13436.065000047674,response,1.0067659067144603,1.0651657553992937,-1.1602814713915066,1.1702231398575993,1.1277978478108837,-1.15,high,high,,ISIC_0061343.JPG,,ISIC_0064784.JPG,28,25,false,0.13,lh,keypress(e),0,true,504837.89999985695,504837.7000000477,491385.038,491598.2000000477,491401.635,504644.05,1,40,15,
sequence,flow.Sequence,8_14,2023-11-29T16:40:41.306Z,,,,,,,,,,,13436.065000047674,completion,,,,,,,high,high,,,,,,,false,,,,,true,504838.2000000477,504837.7000000477,491385.038,491598.2000000477,491401.635,504644.05,1,40,,
trial,html.Screen,8_15_0,2023-11-29T16:40:47.225Z,,,,2,-0.0374659946425444,-0.0086043094957617,,0.04,false,hh,6113.049999904644,response,1.109799097093339,1.1151657553992937,-1.1602814713915066,1.091507924157762,1.0777978478108836,-1.15,high,high,,ISIC_0033051.JPG,,ISIC_0765584.JPG,28,29,false,0.12,lh,keypress(e),0,true,510757.2999999523,510757.09999990463,504627.199,504838.2999999523,504644.05,510555.546,1,40,16,
sequence,flow.Sequence,8_15,2023-11-29T16:40:47.226Z,,,,,,,,,,,6113.049999904644,completion,,,,,,,high,high,,,,,,,false,,,,,true,510757.39999985695,510757.09999990463,504627.199,504838.2000000477,504644.05,510555.546,1,40,,
trial,html.Screen,8_16_0,2023-11-29T16:40:50.914Z,,,,2,-0.0109416414475118,-0.005246498750811,,0.04,false,lh,3889.7539999523433,response,-1.423867498658875,1.1651657553992938,-1.1602814713915066,0.7901771595160324,1.0777978478108836,-1.15,low,high,,ISIC_0064279.JPG,,ISIC_3136228.JPG,28,25,false,0.31000000000000016,hh,keypress(i),0,true,514445.39999985695,514445.2999999523,510538.887,510757.5,510555.546,514246.043,1,40,17,
sequence,flow.Sequence,8_16,2023-11-29T16:40:50.914Z,,,,,,,,,,,3889.7539999523433,completion,,,,,,,low,high,,,,,,,false,,,,,true,514445.5,514445.2999999523,510538.887,510757.5,510555.546,514246.043,1,40,,
trial,html.Screen,8_17_0,2023-11-29T16:41:00.418Z,,,,2,-0.001445457736793,-0.0165307427449982,,0.04,true,ll,9703.256999952311,response,-1.063036912656269,1.1651657553992938,-1.1602814713915066,-1.1534875859179432,0.8908425418368973,-1.15,low,low,,ISIC_0027350.JPG,,ISIC_0010772.JPG,28,26,false,0.1,ll,keypress(f),0,true,523949.5,523949.2999999523,514229.386,514445.7000000477,514246.043,523747.863,1,40,18,
sequence,flow.Sequence,8_17,2023-11-29T16:41:00.418Z,,,,,,,,,,,9703.256999952311,completion,,,,,,,low,low,,,,,,,false,,,,,true,523949.7999999523,523949.2999999523,514229.386,514445.59999990463,514246.043,523747.863,1,40,,
trial,html.Screen,8_18_0,2023-11-29T16:41:03.714Z,,,,2,-0.0088741920055285,-0.0058246074740588,,0.04,true,hh,3497.3370000476716,response,1.2814186888670185,1.1651657553992938,-1.1602814713915066,0.8765393465827035,0.8908425418368973,-1.15,high,high,,ISIC_4136663.JPG,,ISIC_9260499.JPG,28,26,false,0.12,hh,keypress(i),0,true,527245.2999999523,527245.2000000477,523731.366,523949.7999999523,523747.863,527054.31,1,40,19,
sequence,flow.Sequence,8_18,2023-11-29T16:41:03.714Z,,,,,,,,,,,3497.3370000476716,completion,,,,,,,high,high,,,,,,,false,,,,,true,527245.5999999046,527245.2000000477,523731.366,523949.7999999523,523747.863,527054.31,1,40,,
trial,html.Screen,8_19_0,2023-11-29T16:41:06.969Z,,,,2,0,-0.0102871556606504,,0.04,false,hl,3446.589999856893,response,0.8719231363109603,1.1651657553992938,-1.1602814713915066,-0.7704280220140033,0.8908425418368973,-1.15,high,low,,ISIC_1805163.JPG,,ISIC_0029453.JPG,28,25,false,0.40000000000000024,lh,keypress(e),0,true,530501,530500.899999857,527037.815,527245.7000000477,527054.31,530310.885,1,40,20,
sequence,flow.Sequence,8_19,2023-11-29T16:41:06.969Z,,,,,,,,,,,3446.589999856893,completion,,,,,,,high,low,,,,,,,false,,,,,true,530501.0999999046,530500.899999857,527037.815,527245.7000000477,527054.31,530310.885,1,40,,
trial,html.Screen,8_20_0,2023-11-29T16:41:09.314Z,,,,2,0.0044063257337227,0.0172548282859886,,0.04,false,lh,2534.5149998569395,response,-0.9633172970727744,1.1651657553992938,-1.1602814713915066,0.8472659344792351,0.8908425418368973,-1.15,low,high,,ISIC_7413786.JPG,,ISIC_0067172.JPG,28,26,false,0.2500000000000001,hh,keypress(i),0,true,532845.5999999046,532845.399999857,530294.085,530501.2000000477,530310.885,532648.539,1,40,21,
sequence,flow.Sequence,8_20,2023-11-29T16:41:09.314Z,,,,,,,,,,,2534.5149998569395,completion,,,,,,,low,high,,,,,,,false,,,,,true,532845.7999999523,532845.399999857,530294.085,530501.2000000477,530310.885,532648.539,1,40,,
trial,html.Screen,8_21_0,2023-11-29T16:41:12.218Z,,,,2,-0.0388334549081915,0.0303399972963369,,0.04,false,hl,3100.9610000000102,response,0.8110121381849364,1.1651657553992938,-1.1602814713915066,-0.7563142141851558,0.8119026405309693,-1.15,high,low,,ISIC_4961708.JPG,,ISIC_0033605.JPG,28,25,false,0.40000000000000024,lh,keypress(e),0,true,535749.5999999046,535749.5,532631.991,532846,532648.539,535554.313,1,40,22,
sequence,flow.Sequence,8_21,2023-11-29T16:41:12.218Z,,,,,,,,,,,3100.9610000000102,completion,,,,,,,high,low,,,,,,,false,,,,,true,535749.899999857,535749.5,532631.991,532846,532648.539,535554.313,1,40,,
trial,html.Screen,8_22_0,2023-11-29T16:41:22.443Z,,,,2,0.0308384937406319,-0.0038396364323947,,0.04,false,ll,10418.48699995235,response,-1.2194553326562725,1.1651657553992938,-1.1602814713915066,-1.2381726989215684,0.8119026405309693,-1.15,low,low,,ISIC_0029825.JPG,,ISIC_0068975.JPG,28,26,false,0.1,lh,keypress(e),0,true,545972.899999857,545972.7999999523,535537.572,535750,535554.313,545774.039,1,40,23,
sequence,flow.Sequence,8_22,2023-11-29T16:41:22.443Z,,,,,,,,,,,10418.48699995235,completion,,,,,,,low,low,,,,,,,false,,,,,true,545972.899999857,545972.7999999523,535537.572,535749.899999857,535554.313,545774.039,1,40,,
trial,html.Screen,8_23_0,2023-11-29T16:41:26.067Z,,,,2,-0.0088741920055285,-0.0058246074740588,,0.04,true,hh,3823.161000047694,response,1.1903131706835868,1.1651657553992938,-1.1602814713915066,0.8022149865267544,0.8119026405309693,-1.15,high,high,,ISIC_4136663.JPG,,ISIC_1233104.JPG,28,26,false,0.11,hh,keypress(i),0,true,549597.399999857,549597.2000000477,545757.371,545973.0999999046,545774.039,549397.793,1,40,24,
sequence,flow.Sequence,8_23,2023-11-29T16:41:26.067Z,,,,,,,,,,,3823.161000047694,completion,,,,,,,high,high,,,,,,,false,,,,,true,549597.7000000477,549597.2000000477,545757.371,545973,545774.039,549397.793,1,40,,
trial,html.Screen,8_24_0,2023-11-29T16:41:30.036Z,,,,2,-0.0388181790775959,0.0049623405709465,,0.04,false,lh,4168.306999904686,response,-0.9617893983965208,1.1651657553992938,-1.1602814713915066,0.9453006131304652,0.8119026405309693,-1.15,low,high,,ISIC_0061880.JPG,,ISIC_4229473.JPG,28,25,false,0.2300000000000001,ll,keypress(f),0,true,553566.5,553566.0999999046,549381.044,549597.7999999523,549397.793,553372.246,1,40,25,
sequence,flow.Sequence,8_24,2023-11-29T16:41:30.037Z,,,,,,,,,,,4168.306999904686,completion,,,,,,,low,high,,,,,,,false,,,,,true,553566.899999857,553566.0999999046,549381.044,549597.7999999523,549397.793,553372.246,1,40,,
trial,html.Screen,8_25_0,2023-11-29T16:41:33.811Z,,,,2,0,-0.0102871556606504,,0.04,false,ll,3968.653999856906,response,-1.0642195369108791,1.1651657553992938,-1.1102814713915066,-1.0897657776277234,0.8619026405309693,-1.15,low,low,,ISIC_1805163.JPG,,ISIC_0071988.JPG,28,29,false,0.1,lh,keypress(e),0,true,557340.899999857,557340.899999857,553355.415,553567.2000000477,553372.246,557146.135,1,40,26,
sequence,flow.Sequence,8_25,2023-11-29T16:41:33.811Z,,,,,,,,,,,3968.653999856906,completion,,,,,,,low,low,,,,,,,false,,,,,true,557341.0999999046,557340.899999857,553355.415,553567,553372.246,557146.135,1,40,,
trial,html.Screen,8_26_0,2023-11-29T16:41:45.171Z,,,,2,-0.001445457736793,-0.0165307427449982,,0.04,false,hl,11555.464999904623,response,0.9653573371180936,1.1651657553992938,-1.1102814713915066,-0.854766800381037,0.8619026405309693,-1.15,high,low,,ISIC_0027350.JPG,,ISIC_9640145.JPG,28,25,false,0.40000000000000024,ll,keypress(f),0,true,568701.7999999523,568701.5999999046,557129.651,557341.0999999046,557146.135,568501.576,1,40,27,
sequence,flow.Sequence,8_26,2023-11-29T16:41:45.172Z,,,,,,,,,,,11555.464999904623,completion,,,,,,,high,low,,,,,,,false,,,,,true,568702.2000000477,568701.5999999046,557129.651,557341.0999999046,557146.135,568501.576,1,40,,
trial,html.Screen,8_27_0,2023-11-29T16:41:51.939Z,,,,2,-0.0074667911845194,0.018500200317654,,0.04,true,hh,6968.023999904632,response,1.1290536173202614,1.1651657553992938,-1.1102814713915066,0.9768663240505168,0.8619026405309693,-1.15,high,high,,ISIC_0058723.JPG,,ISIC_2196127.JPG,28,28,false,0.12,hh,keypress(i),0,true,575469.899999857,575469.5999999046,568484.961,568702.2999999523,568501.576,575281.461,1,40,28,
sequence,flow.Sequence,8_27,2023-11-29T16:41:51.940Z,,,,,,,,,,,6968.023999904632,completion,,,,,,,high,high,,,,,,,false,,,,,true,575470.2000000477,575469.5999999046,568484.961,568702.2999999523,568501.576,575281.461,1,40,,
trial,html.Screen,8_28_0,2023-11-29T16:41:55.059Z,,,,2,-0.0164027439304477,0.0082910758715273,,0.04,false,ll,3307.838999952306,response,-1.1243896694621007,1.1651657553992938,-1.1102814713915066,-1.1772340944704969,0.8619026405309693,-1.15,low,low,,ISIC_7381224.JPG,,ISIC_0062765.JPG,28,29,false,0.1,lh,keypress(e),0,true,578589.5,578589.2999999523,575264.825,575470.399999857,575281.461,578404.176,1,40,29,
sequence,flow.Sequence,8_28,2023-11-29T16:41:55.059Z,,,,,,,,,,,3307.838999952306,completion,,,,,,,low,low,,,,,,,false,,,,,true,578589.7000000477,578589.2999999523,575264.825,575470.399999857,575281.461,578404.176,1,40,,
trial,html.Screen,8_29_0,2023-11-29T16:41:58.283Z,,,,2,-0.0088741920055285,-0.0058246074740588,,0.04,false,hl,3409.223999856971,response,1.058275612142778,1.1651657553992938,-1.0602814713915065,-0.7824898568540655,0.8619026405309693,-1.15,high,low,,ISIC_4136663.JPG,,ISIC_4906385.JPG,28,25,false,0.40000000000000024,lh,keypress(e),0,true,581813.5999999046,581813.399999857,578370.911,578589.7999999523,578404.176,581610.409,1,40,30,
sequence,flow.Sequence,8_29,2023-11-29T16:41:58.283Z,,,,,,,,,,,3409.223999856971,completion,,,,,,,high,low,,,,,,,false,,,,,true,581813.7999999523,581813.399999857,578370.911,578589.7000000477,578404.176,581610.409,1,40,,
trial,html.Screen,8_30_0,2023-11-29T16:42:00.858Z,,,,2,-0.0241900387072296,0.0339955304424736,,0.04,true,hh,2778.1909999046475,response,1.2290925886582755,1.1651657553992938,-1.0602814713915065,0.8900015904856239,0.8619026405309693,-1.15,high,high,,ISIC_0010789.JPG,,ISIC_5102688.JPG,28,28,false,0.12,hh,keypress(i),0,true,584388.7000000477,584388.5999999046,581593.918,581813.899999857,581610.409,584198.857,1,40,31,
sequence,flow.Sequence,8_30,2023-11-29T16:42:00.858Z,,,,,,,,,,,2778.1909999046475,completion,,,,,,,high,high,,,,,,,false,,,,,true,584388.7999999523,584388.5999999046,581593.918,581813.899999857,581610.409,584198.857,1,40,,
trial,html.Screen,8_31_0,2023-11-29T16:42:06.771Z,,,,2,0.0258224118104549,-0.0029364553353019,,0.04,false,hl,6102.542999856989,response,1.2362557973341337,1.1651657553992938,-1.0602814713915065,-1.2548266183352603,1.0095470895719496,-1.15,high,low,,ISIC_8325226.JPG,,ISIC_0033886.JPG,28,25,false,0.40000000000000024,hh,keypress(i),0,true,590301.7000000477,590301.399999857,584182.132,584388.7999999523,584198.857,590110.276,1,40,32,
sequence,flow.Sequence,8_31,2023-11-29T16:42:06.772Z,,,,,,,,,,,6102.542999856989,completion,,,,,,,high,low,,,,,,,false,,,,,true,590301.899999857,590301.399999857,584182.132,584388.7999999523,584198.857,590110.276,1,40,,
trial,html.Screen,8_32_0,2023-11-29T16:42:10.051Z,,,,2,0.0286056110007553,0.036125199756515,,0.04,false,ll,3470.7240000000456,response,-0.9836672814341636,1.1826741929962046,-1.0602814713915065,-1.0629122718286683,1.0095470895719496,-1.15,low,low,,ISIC_6535558.JPG,,ISIC_0062161.JPG,28,37,false,0.1,lh,keypress(e),0,true,593581.0999999046,593581,590093.729,590302.0999999046,590110.276,593383.36,1,40,33,
sequence,flow.Sequence,8_32,2023-11-29T16:42:10.051Z,,,,,,,,,,,3470.7240000000456,completion,,,,,,,low,low,,,,,,,false,,,,,true,593581.2999999523,593581,590093.729,590302,590110.276,593383.36,1,40,,
trial,html.Screen,8_33_0,2023-11-29T16:42:14.947Z,,,,2,-0.0109416414475118,-0.005246498750811,,0.04,true,hh,5093.840000047698,response,1.151139267005652,1.1826741929962046,-1.0602814713915065,1.0838749490501327,1.0095470895719496,-1.15,high,high,,ISIC_0064279.JPG,,ISIC_0002566.JPG,28,28,false,0.13,hh,keypress(i),0,true,598477.2999999523,598477.2000000477,593366.668,593581.2999999523,593383.36,598276.167,1,40,34,
sequence,flow.Sequence,8_33,2023-11-29T16:42:14.947Z,,,,,,,,,,,5093.840000047698,completion,,,,,,,high,high,,,,,,,false,,,,,true,598477.5999999046,598477.2000000477,593366.668,593581.2999999523,593383.36,598276.167,1,40,,
trial,html.Screen,8_34_0,2023-11-29T16:42:20.469Z,,,,2,0.0283578106329894,-0.0088840758711548,,0.04,false,hl,5721.533000047668,response,1.2054195059663604,1.1826741929962046,-1.0602814713915065,-0.7760611240296147,1.0095470895719496,-1.15,high,low,,ISIC_0060707.JPG,,ISIC_8712559.JPG,28,25,false,0.40000000000000024,hh,keypress(i),0,true,603997.899999857,603997.7000000477,598259.655,598477.7000000477,598276.167,603803.573,1,40,35,
sequence,flow.Sequence,8_34,2023-11-29T16:42:20.469Z,,,,,,,,,,,5721.533000047668,completion,,,,,,,high,low,,,,,,,false,,,,,true,603998.0999999046,603997.7000000477,598259.655,598477.5999999046,598276.167,603803.573,1,40,,
trial,html.Screen,8_35_0,2023-11-29T16:42:24.340Z,,,,2,-0.0074667911845194,0.018500200317654,,0.04,false,hl,4065.326999856974,response,1.0369885917487718,1.0946472275082464,-1.0602814713915065,-0.8486937878412699,1.0095470895719496,-1.15,high,low,,ISIC_0058723.JPG,,ISIC_6917681.JPG,28,25,false,0.3700000000000002,lh,keypress(e),0,true,607869.0999999046,607868.899999857,603787.07,603998.2000000477,603803.573,607677.754,1,40,36,
sequence,flow.Sequence,8_35,2023-11-29T16:42:24.340Z,,,,,,,,,,,4065.326999856974,completion,,,,,,,high,low,,,,,,,false,,,,,true,607869.2999999523,607868.899999857,603787.07,603998.0999999046,603803.573,607677.754,1,40,,
trial,html.Screen,8_36_0,2023-11-29T16:42:33.364Z,,,,2,0.0119001144851157,-0.0063430114540141,,0.04,false,lh,9215.04599995236,response,-1.0685314915436992,1.1446472275082464,-1.0602814713915065,0.8203833713472237,1.0095470895719496,-1.15,low,high,,ISIC_0003822.JPG,,ISIC_0029374.JPG,28,27,false,0.2400000000000001,ll,keypress(f),0,true,616893,616892.7999999523,607661.194,607869.399999857,607677.754,616695.293,1,40,37,
sequence,flow.Sequence,8_36,2023-11-29T16:42:33.364Z,,,,,,,,,,,9215.04599995236,completion,,,,,,,low,high,,,,,,,false,,,,,true,616893.0999999046,616892.7999999523,607661.194,607869.2999999523,607677.754,616695.293,1,40,,
trial,html.Screen,8_37_0,2023-11-29T16:42:38.629Z,,,,2,-0.0109416414475118,-0.005246498750811,,0.04,true,ll,5462.106999857002,response,-0.970732112511705,1.1446472275082464,-1.0102814713915065,-1.166572336354465,1.0595470895719497,-1.15,low,low,,ISIC_0064279.JPG,,ISIC_0010778.JPG,28,39,false,0.1,ll,keypress(f),0,true,622157.5999999046,622157.399999857,616678.751,616893.2000000477,616695.293,621955.574,1,40,38,
sequence,flow.Sequence,8_37,2023-11-29T16:42:38.629Z,,,,,,,,,,,5462.106999857002,completion,,,,,,,low,low,,,,,,,false,,,,,true,622157.899999857,622157.399999857,616678.751,616893.2000000477,616695.293,621955.574,1,40,,
trial,html.Screen,8_38_0,2023-11-29T16:42:41.132Z,,,,2,0.0009714874637896,-0.0174815595031679,,0.04,false,hl,2705.4259999999776,response,1.2054195059663604,1.1446472275082464,-1.0102814713915065,-0.7760611240296147,1.0595470895719497,-1.15,high,low,,ISIC_9848743.JPG,,ISIC_8712559.JPG,28,26,false,0.40000000000000024,hh,keypress(i),0,true,624661.0999999046,624661,621938.882,622158,621955.574,624460.407,1,40,39,
sequence,flow.Sequence,8_38,2023-11-29T16:42:41.132Z,,,,,,,,,,,2705.4259999999776,completion,,,,,,,high,low,,,,,,,false,,,,,true,624661.399999857,624661,621938.882,622158,621955.574,624460.407,1,40,,
trial,html.Screen,8_39_0,2023-11-29T16:42:44.060Z,,,,2,0.0220026381002083,-0.0170756452911772,,0.04,false,lh,3128.692999904626,response,-0.9617893983965208,1.1446472275082464,-1.0102814713915065,0.9453006131304652,1.0595470895719497,-1.15,low,high,,ISIC_5347806.JPG,,ISIC_4229473.JPG,28,28,false,0.2500000000000001,hh,keypress(i),0,true,627589.0999999046,627589.0999999046,624443.923,624661.5,624460.407,627399.631,1,40,40,
sequence,flow.Sequence,8_39,2023-11-29T16:42:44.060Z,,,,,,,,,,,3128.692999904626,completion,,,,,,,low,high,,,,,,,false,,,,,true,627589.2000000477,627589.0999999046,624443.923,624661.399999857,624460.407,627399.631,1,40,,
stair_loop,flow.Loop,8,2023-11-29T16:42:44.060Z,,,,,,,,,,,221236.12099990464,completion,,,,,,,,,,,,,,,false,,,,,true,627589.2999999523,627589.0999999046,406336.192,406541,406352.979,627399.631,1,40,,
exp_instructions,html.Screen,9,2023-11-29T16:42:46.764Z,,,,,,,,,,,2893.168999952264,response,,,,,,,,,,,,,,,,,continue,keypress(Space),,,630293.5,630292.7999999523,627382.899,627589.399999857,627399.631,630104.994,,,,
trial,html.Screen,10_0_0,2023-11-29T16:42:56.071Z,,,,1,0.0286056110007553,0.036125199756515,,0.04,true,ll,9495.206000047736,response,-1.0887084502656488,1.1601623890660688,-1.0877814713915066,-1.0539327766106836,0.9272896376647068,-1.1499999999999997,low,low,,ISIC_6535558.JPG,9,ISIC_0030417.JPG,28,29,false,0.1,ll,keypress(f),0,false,639600.2999999523,639600.2000000477,630087.962,630293.7000000477,630104.994,639406.172,5,600,1,
break,html.Screen,10_0_1,2023-11-29T16:42:56.072Z,,,,,,,,,,,NaN,,,,,,,,low,low,,,,,,,false,,,,,false,639600.899999857,639600.7000000477,,639600.399999857,,639406.172,5,600,,
break_continue,html.Screen,10_0_2,2023-11-29T16:42:56.072Z,,,,,,,,,,,NaN,,,,,,,,low,low,,,,,,,false,,,,,false,639601.2000000477,639601,,639601,,639406.172,5,600,,
sequence,flow.Sequence,10_0,2023-11-29T16:42:56.072Z,,,,,,,,,,,9496.006000000052,completion,,,,,,,low,low,,,,,,,false,,,,,false,639601.2999999523,639601,630087.962,630293.7000000477,630104.994,639406.172,5,600,,
trial,html.Screen,10_1_0,2023-11-29T16:43:00.396Z,,,,1,0.0076984477620101,0.0069458408496562,,0.04,false,ll,4518.427999904612,response,-1.082709423673037,1.1601623890660688,-1.0877814713915066,-1.1184338818466155,0.9272896376647068,-1.1499999999999997,low,low,,ISIC_0000434.JPG,9,ISIC_0058666.JPG,28,29,false,0.1,lh,keypress(e),0,false,643924.7000000477,643924.5999999046,639389.46,639601.399999857,639406.172,643731.192,5,600,2,
break,html.Screen,10_1_1,2023-11-29T16:43:00.397Z,,,,,,,,,,,NaN,,,,,,,,low,low,,,,,,,false,,,,,false,643925.399999857,643925.2999999523,,643925.0999999046,,643731.192,5,600,,
break_continue,html.Screen,10_1_2,2023-11-29T16:43:00.397Z,,,,,,,,,,,NaN,,,,,,,,low,low,,,,,,,false,,,,,false,643925.7999999523,643925.7000000477,,643925.5,,643731.192,5,600,,
sequence,flow.Sequence,10_1,2023-11-29T16:43:00.397Z,,,,,,,,,,,4519.528000047663,completion,,,,,,,low,low,,,,,,,false,,,,,false,643925.899999857,643925.7000000477,639389.46,639601.399999857,639406.172,643731.192,5,600,,
trial,html.Screen,10_2_0,2023-11-29T16:43:03.500Z,,,,1,-0.0065172941585523,0.0118857043117315,,0.04,false,hl,3297.607999952277,response,0.9754077946987664,1.1601623890660688,-1.0877814713915066,-1.1821868813141057,0.9272896376647068,-1.1499999999999997,high,low,,ISIC_6119202.JPG,8,ISIC_0024317.JPG,28,25,false,0.40000000000000024,hh,keypress(i),0,false,647028.899999857,647028.7999999523,643714.685,643926,643731.192,646837.499,5,600,3,
break,html.Screen,10_2_1,2023-11-29T16:43:03.500Z,,,,,,,,,,,NaN,,,,,,,,high,low,,,,,,,false,,,,,false,647029.2000000477,647029.2000000477,,647029,,646837.499,5,600,,
break_continue,html.Screen,10_2_2,2023-11-29T16:43:03.501Z,,,,,,,,,,,NaN,,,,,,,,high,low,,,,,,,false,,,,,false,647029.5,647029.399999857,,647029.2999999523,,646837.499,5,600,,
sequence,flow.Sequence,10_2,2023-11-29T16:43:03.501Z,,,,,,,,,,,3298.2079998569097,completion,,,,,,,high,low,,,,,,,false,,,,,false,647029.7000000477,647029.399999857,643714.685,643926,643731.192,646837.499,5,600,,
trial,html.Screen,10_3_0,2023-11-29T16:43:05.956Z,,,,1,0.0367744112927588,0.0324865661712824,,0.04,true,hh,2647.300999952364,response,1.090663233695186,1.1601623890660688,-1.0877814713915066,0.832189069975425,0.9272896376647068,-1.1499999999999997,high,high,,ISIC_4523565.JPG,9,ISIC_0057344.JPG,28,25,false,0.12,hh,keypress(i),0,false,649484.899999857,649484.7999999523,646820.788,647029.7000000477,646837.499,649292.17,5,600,4,
break,html.Screen,10_3_1,2023-11-29T16:43:05.956Z,,,,,,,,,,,NaN,,,,,,,,high,high,,,,,,,false,,,,,false,649485.2999999523,649485.2000000477,,649485,,649292.17,5,600,,
break_continue,html.Screen,10_3_2,2023-11-29T16:43:05.957Z,,,,,,,,,,,NaN,,,,,,,,high,high,,,,,,,false,,,,,false,649485.399999857,649485.399999857,,649485.2999999523,,649292.17,5,600,,
sequence,flow.Sequence,10_3,2023-11-29T16:43:05.957Z,,,,,,,,,,,2647.9009998569963,completion,,,,,,,high,high,,,,,,,false,,,,,false,649485.5,649485.399999857,646820.788,647029.7000000477,646837.499,649292.17,5,600,,
trial,html.Screen,10_4_0,2023-11-29T16:43:12.764Z,,,,1,0.0044063257337227,0.0172548282859886,,0.04,false,hh,7000.729999856907,response,1.0733807306669467,1.1601623890660688,-1.0877814713915066,0.9781766331161578,0.9272896376647068,-1.1499999999999997,high,high,,ISIC_7413786.JPG,10,ISIC_0032383.JPG,28,25,false,0.12,hl,keypress(j),0,false,656293,656292.899999857,649275.533,649485.5999999046,649292.17,656088.575,5,600,5,
break,html.Screen,10_4_1,2023-11-29T16:43:12.764Z,,,,,,,,,,,NaN,,,,,,,,high,high,,,,,,,false,,,,,false,656293.2999999523,656293.2000000477,,656293.0999999046,,656088.575,5,600,,
break_continue,html.Screen,10_4_2,2023-11-29T16:43:12.765Z,,,,,,,,,,,NaN,,,,,,,,high,high,,,,,,,false,,,,,false,656293.5,656293.399999857,,656293.399999857,,656088.575,5,600,,
sequence,flow.Sequence,10_4,2023-11-29T16:43:12.765Z,,,,,,,,,,,7001.229999856907,completion,,,,,,,high,high,,,,,,,false,,,,,false,656293.5999999046,656293.399999857,649275.533,649485.5999999046,649292.17,656088.575,5,600,,
trial,html.Screen,10_5_0,2023-11-29T16:43:15.124Z,,,,1,0.0044063257337227,0.0172548282859886,,0.04,false,lh,2564.1250000477303,response,-0.8867328775712738,1.1601623890660688,-1.0877814713915066,1.0063426986460375,0.9272896376647068,-1.1499999999999997,low,high,,ISIC_7413786.JPG,10,ISIC_0055759.JPG,28,25,false,0.2400000000000001,ll,keypress(f),0,false,658652.7999999523,658652.7000000477,656072.097,656293.7000000477,656088.575,658460.137,5,600,6,
break,html.Screen,10_5_1,2023-11-29T16:43:15.124Z,,,,,,,,,,,NaN,,,,,,,,low,high,,,,,,,false,,,,,false,658653.2000000477,658653.0999999046,,658652.899999857,,658460.137,5,600,,
break_continue,html.Screen,10_5_2,2023-11-29T16:43:15.125Z,,,,,,,,,,,NaN,,,,,,,,low,high,,,,,,,false,,,,,false,658653.5,658653.399999857,,658653.2999999523,,658460.137,5,600,,
sequence,flow.Sequence,10_5,2023-11-29T16:43:15.125Z,,,,,,,,,,,2564.8249998569954,completion,,,,,,,low,high,,,,,,,false,,,,,false,658653.5999999046,658653.399999857,656072.097,656293.7000000477,656088.575,658460.137,5,600,,
trial,html.Screen,10_6_0,2023-11-29T16:43:17.220Z,,,,1,-0.0199950873045219,-0.0172506388509166,,0.04,true,hh,2288.863000000012,response,1.0733807306669467,1.1601623890660688,-1.0877814713915066,0.9781766331161578,0.9272896376647068,-1.1499999999999997,high,high,,ISIC_0029906.JPG,9,ISIC_0032383.JPG,28,25,false,0.12,hh,keypress(i),0,false,660749.2000000477,660749,658443.285,658653.5999999046,658460.137,660547.243,5,600,7,
break,html.Screen,10_6_1,2023-11-29T16:43:17.221Z,,,,,,,,,,,NaN,,,,,,,,high,high,,,,,,,false,,,,,false,660749.5999999046,660749.5999999046,,660749.2999999523,,660547.243,5,600,,
break_continue,html.Screen,10_6_2,2023-11-29T16:43:17.221Z,,,,,,,,,,,NaN,,,,,,,,high,high,,,,,,,false,,,,,false,660750,660749.7999999523,,660749.7000000477,,660547.243,5,600,,
sequence,flow.Sequence,10_6,2023-11-29T16:43:17.221Z,,,,,,,,,,,2289.6629999523284,completion,,,,,,,high,high,,,,,,,false,,,,,false,660750.0999999046,660749.7999999523,658443.285,658653.5999999046,658460.137,660547.243,5,600,,
trial,html.Screen,10_7_0,2023-11-29T16:43:19.541Z,,,,1,-0.0198696495649504,0.0387952353063878,,0.04,false,hl,2521.457000047667,response,0.8513427412482127,1.1601623890660688,-1.0877814713915066,-0.9295303568095064,0.9272896376647068,-1.1499999999999997,high,low,,ISIC_6735970.JPG,9,ISIC_0034164.JPG,28,25,false,0.40000000000000024,hh,keypress(i),0,false,663068.7999999523,663068.7000000477,660530.691,660750.2000000477,660547.243,662868.434,5,600,8,
break,html.Screen,10_7_1,2023-11-29T16:43:19.542Z,,,,,,,,,,,NaN,,,,,,,,high,low,,,,,,,false,,,,,false,663069.0999999046,663069.0999999046,,663069,,662868.434,5,600,,
break_continue,html.Screen,10_7_2,2023-11-29T16:43:19.542Z,,,,,,,,,,,NaN,,,,,,,,high,low,,,,,,,false,,,,,false,663069.2999999523,663069.2000000477,,663069.2000000477,,662868.434,5,600,,
sequence,flow.Sequence,10_7,2023-11-29T16:43:19.542Z,,,,,,,,,,,2521.957000047667,completion,,,,,,,high,low,,,,,,,false,,,,,false,663069.399999857,663069.2000000477,660530.691,660750.2000000477,660547.243,662868.434,5,600,,
trial,html.Screen,10_8_0,2023-11-29T16:43:26.285Z,,,,1,-0.0388334549081915,0.0303399972963369,,0.04,true,hl,6944.565999999992,response,0.8828738626295417,1.1601623890660688,-1.0877814713915066,-0.8288177599439582,0.9272896376647068,-1.1499999999999997,high,low,,ISIC_4961708.JPG,9,ISIC_0056041.JPG,28,25,false,0.40000000000000024,hl,keypress(j),0,false,669813.0999999046,669813,662851.894,663069.5,662868.434,669614.881,5,600,9,
break,html.Screen,10_8_1,2023-11-29T16:43:26.286Z,,,,,,,,,,,NaN,,,,,,,,high,low,,,,,,,false,,,,,false,669813.2999999523,669813.2999999523,,669813.0999999046,,669614.881,5,600,,
break_continue,html.Screen,10_8_2,2023-11-29T16:43:26.286Z,,,,,,,,,,,NaN,,,,,,,,high,low,,,,,,,false,,,,,false,669813.5999999046,669813.5,,669813.399999857,,669614.881,5,600,,
sequence,flow.Sequence,10_8,2023-11-29T16:43:26.286Z,,,,,,,,,,,6945.065999999992,completion,,,,,,,high,low,,,,,,,false,,,,,false,669813.7000000477,669813.5,662851.894,663069.5,662868.434,669614.881,5,600,,
trial,html.Screen,10_9_0,2023-11-29T16:43:28.949Z,,,,1,0.0076984477620101,0.0069458408496562,,0.04,true,hh,2861.918999952264,response,1.1850103722230376,1.1601623890660688,-1.0877814713915066,0.8836550297565611,0.9272896376647068,-1.1499999999999997,high,high,,ISIC_0000434.JPG,9,ISIC_9879347.JPG,28,25,false,0.12,hh,keypress(i),0,false,672476.899999857,672476.7999999523,669598.404,669813.7000000477,669614.881,672286.769,5,600,10,
break,html.Screen,10_9_1,2023-11-29T16:43:28.950Z,,,,,,,,,,,NaN,,,,,,,,high,high,,,,,,,false,,,,,false,672477.2000000477,672477.2000000477,,672477.0999999046,,672286.769,5,600,,
break_continue,html.Screen,10_9_2,2023-11-29T16:43:28.950Z,,,,,,,,,,,NaN,,,,,,,,high,high,,,,,,,false,,,,,false,672477.5999999046,672477.399999857,,672477.399999857,,672286.769,5,600,,
sequence,flow.Sequence,10_9,2023-11-29T16:43:28.950Z,,,,,,,,,,,2862.5189998568967,completion,,,,,,,high,high,,,,,,,false,,,,,false,672477.5999999046,672477.399999857,669598.404,669813.7000000477,669614.881,672286.769,5,600,,
trial,html.Screen,10_10_0,2023-11-29T16:43:30.685Z,,,,1,-0.0388181790775959,0.0049623405709465,,0.04,false,hl,1925.9310000477126,response,1.0453124399868816,1.1601623890660688,-1.0877814713915066,-0.8986747280184286,0.9272896376647068,-1.1499999999999997,high,low,,ISIC_0061880.JPG,10,ISIC_0013967.JPG,28,25,false,0.40000000000000024,hh,keypress(i),0,false,674212.7999999523,674212.7000000477,672270.173,672477.5999999046,672286.769,674023.464,5,600,11,
break,html.Screen,10_10_1,2023-11-29T16:43:30.686Z,,,,,,,,,,,NaN,,,,,,,,high,low,,,,,,,false,,,,,false,674213.2999999523,674213.0999999046,,674212.899999857,,674023.464,5,600,,
break_continue,html.Screen,10_10_2,2023-11-29T16:43:30.686Z,,,,,,,,,,,NaN,,,,,,,,high,low,,,,,,,false,,,,,false,674213.7000000477,674213.5,,674213.399999857,,674023.464,5,600,,
sequence,flow.Sequence,10_10,2023-11-29T16:43:30.686Z,,,,,,,,,,,1926.7310000000289,completion,,,,,,,high,low,,,,,,,false,,,,,false,674213.7000000477,674213.5,672270.173,672477.5999999046,672286.769,674023.464,5,600,,
trial,html.Screen,10_11_0,2023-11-29T16:43:37.431Z,,,,1,0.0118382036798625,0.0300588245877227,,0.04,false,hl,6934.4359998569125,response,1.075512775389519,1.1601623890660688,-1.0877814713915066,-1.0454702683049502,0.9272896376647068,-1.1499999999999997,high,low,,ISIC_4748605.JPG,9,ISIC_0033603.JPG,28,25,false,0.40000000000000024,hh,keypress(i),0,false,680958.0999999046,680957.899999857,674006.735,674213.7999999523,674023.464,680771.038,5,600,12,
break,html.Screen,10_11_1,2023-11-29T16:43:37.431Z,,,,,,,,,,,NaN,,,,,,,,high,low,,,,,,,false,,,,,false,680958.899999857,680958.7000000477,,680958.399999857,,680771.038,5,600,,
break_continue,html.Screen,10_11_2,2023-11-29T16:43:37.432Z,,,,,,,,,,,NaN,,,,,,,,high,low,,,,,,,false,,,,,false,680959.5999999046,680959.399999857,,680959.2000000477,,680771.038,5,600,,
sequence,flow.Sequence,10_11,2023-11-29T16:43:37.432Z,,,,,,,,,,,6935.9359998569125,completion,,,,,,,high,low,,,,,,,false,,,,,false,680959.899999857,680959.399999857,674006.735,674213.7999999523,674023.464,680771.038,5,600,,
trial,html.Screen,10_12_0,2023-11-29T16:43:39.870Z,,,,1,0.0283578106329894,-0.0088840758711548,,0.04,false,hl,2625.9620000000577,response,1.2362557973341337,1.1601623890660688,-1.0877814713915066,-1.2548266183352603,0.9272896376647068,-1.1499999999999997,high,low,,ISIC_0060707.JPG,9,ISIC_0033886.JPG,28,25,false,0.40000000000000024,hh,keypress(i),0,false,683397.2000000477,683397,680736.629,680960,680771.038,683208.028,5,600,13,
break,html.Screen,10_12_1,2023-11-29T16:43:39.870Z,,,,,,,,,,,NaN,,,,,,,,high,low,,,,,,,false,,,,,false,683397.5999999046,683397.5,,683397.2999999523,,683208.028,5,600,,
break_continue,html.Screen,10_12_2,2023-11-29T16:43:39.870Z,,,,,,,,,,,NaN,,,,,,,,high,low,,,,,,,false,,,,,false,683397.7999999523,683397.7000000477,,683397.5999999046,,683208.028,5,600,,
sequence,flow.Sequence,10_12,2023-11-29T16:43:39.870Z,,,,,,,,,,,2626.6620000477415,completion,,,,,,,high,low,,,,,,,false,,,,,false,683398,683397.7000000477,680736.629,680959.899999857,680771.038,683208.028,5,600,,
trial,html.Screen,10_13_0,2023-11-29T16:43:42.326Z,,,,1,0.0367706518941078,-0.0161069838272154,,0.04,true,ll,2645.4719999999506,response,-1.0865209011322887,1.1601623890660688,-1.0877814713915066,-1.1401461171952545,0.9272896376647068,-1.1499999999999997,low,low,,ISIC_0033419.JPG,9,ISIC_0016145.JPG,28,29,false,0.1,ll,keypress(f),0,false,685853.5999999046,685853.5,683191.412,683398,683208.028,685663.034,5,600,14,
break,html.Screen,10_13_1,2023-11-29T16:43:42.327Z,,,,,,,,,,,NaN,,,,,,,,low,low,,,,,,,false,,,,,false,685854.399999857,685854.2000000477,,685853.7999999523,,685663.034,5,600,,
break_continue,html.Screen,10_13_2,2023-11-29T16:43:42.327Z,,,,,,,,,,,NaN,,,,,,,,low,low,,,,,,,false,,,,,false,685855.0999999046,685854.7999999523,,685854.5999999046,,685663.034,5,600,,
sequence,flow.Sequence,10_13,2023-11-29T16:43:42.328Z,,,,,,,,,,,2646.771999952267,completion,,,,,,,low,low,,,,,,,false,,,,,false,685855.2000000477,685854.7999999523,683191.412,683398,683208.028,685663.034,5,600,,
trial,html.Screen,10_14_0,2023-11-29T16:43:45.781Z,,,,1,0,-0.0102871556606504,,0.04,false,hh,3645.765999952331,response,1.1450360947247324,1.1601623890660688,-1.0877814713915066,0.9543756979111568,0.9272896376647068,-1.1499999999999997,high,high,,ISIC_1805163.JPG,8,ISIC_1234463.JPG,28,25,false,0.12,lh,keypress(e),0,false,689309,689308.7999999523,685646.063,685855.2999999523,685663.034,689119.461,5,600,15,
break,html.Screen,10_14_1,2023-11-29T16:43:45.782Z,,,,,,,,,,,NaN,,,,,,,,high,high,,,,,,,false,,,,,false,689309.399999857,689309.399999857,,689309.2000000477,,689119.461,5,600,,
break_continue,html.Screen,10_14_2,2023-11-29T16:43:45.782Z,,,,,,,,,,,NaN,,,,,,,,high,high,,,,,,,false,,,,,false,689309.7000000477,689309.5999999046,,689309.5,,689119.461,5,600,,
sequence,flow.Sequence,10_14,2023-11-29T16:43:45.782Z,,,,,,,,,,,3646.5659999046475,completion,,,,,,,high,high,,,,,,,false,,,,,false,689309.7999999523,689309.5999999046,685646.063,685855.2999999523,685663.034,689119.461,5,600,,
trial,html.Screen,10_15_0,2023-11-29T16:43:51.095Z,,,,1,0.0367744112927588,0.0324865661712824,,0.04,false,lh,5502.438999856939,response,-1.0685314915436992,1.1601623890660688,-1.0877814713915066,0.8203833713472237,0.9272896376647068,-1.1499999999999997,low,high,,ISIC_4523565.JPG,10,ISIC_0029374.JPG,28,25,false,0.2400000000000001,hh,keypress(i),0,false,694622.2000000477,694621.899999857,689102.812,689309.899999857,689119.461,694429.822,5,600,16,
break,html.Screen,10_15_1,2023-11-29T16:43:51.095Z,,,,,,,,,,,NaN,,,,,,,,low,high,,,,,,,false,,,,,false,694623,694622.7999999523,,694622.5,,694429.822,5,600,,
break_continue,html.Screen,10_15_2,2023-11-29T16:43:51.096Z,,,,,,,,,,,NaN,,,,,,,,low,high,,,,,,,false,,,,,false,694623.7000000477,694623.5,,694623.2000000477,,694429.822,5,600,,
sequence,flow.Sequence,10_15,2023-11-29T16:43:51.096Z,,,,,,,,,,,5504.03899999999,completion,,,,,,,low,high,,,,,,,false,,,,,false,694624,694623.5,689102.812,689309.899999857,689119.461,694429.822,5,600,,
trial,html.Screen,10_16_0,2023-11-29T16:43:57.190Z,,,,1,0.0220026381002083,-0.0170756452911772,,0.04,true,hl,6287.577999856905,response,0.989300717252516,1.1601623890660688,-1.0877814713915066,-0.7908280206937478,0.9272896376647068,-1.1499999999999997,high,low,,ISIC_5347806.JPG,9,ISIC_6416533.JPG,28,25,false,0.40000000000000024,hl,keypress(j),0,false,700717.7000000477,700717.399999857,694413.275,694624.2000000477,694429.822,700525.045,5,600,17,
break,html.Screen,10_16_1,2023-11-29T16:43:57.191Z,,,,,,,,,,,NaN,,,,,,,,high,low,,,,,,,false,,,,,false,700718.5,700718.399999857,,700717.899999857,,700525.045,5,600,,
break_continue,html.Screen,10_16_2,2023-11-29T16:43:57.192Z,,,,,,,,,,,NaN,,,,,,,,high,low,,,,,,,false,,,,,false,700719.2000000477,700719,,700718.7999999523,,700525.045,5,600,,
sequence,flow.Sequence,10_16,2023-11-29T16:43:57.192Z,,,,,,,,,,,6289.177999999956,completion,,,,,,,high,low,,,,,,,false,,,,,false,700719.5,700719,694413.275,694624.0999999046,694429.822,700525.045,5,600,,
trial,html.Screen,10_17_0,2023-11-29T16:44:02.613Z,,,,1,0.0044063257337227,0.0172548282859886,,0.04,false,hh,5615.554999904591,response,1.1450360947247324,1.1601623890660688,-1.0877814713915066,0.9543756979111568,0.9272896376647068,-1.1499999999999997,high,high,,ISIC_7413786.JPG,9,ISIC_1234463.JPG,28,25,false,0.12,lh,keypress(e),0,false,706140.7000000477,706140.5999999046,700508.338,700719.5999999046,700525.045,705953.501,5,600,18,
break,html.Screen,10_17_1,2023-11-29T16:44:02.613Z,,,,,,,,,,,NaN,,,,,,,,high,high,,,,,,,false,,,,,false,706141,706140.899999857,,706140.7999999523,,705953.501,5,600,,
break_continue,html.Screen,10_17_2,2023-11-29T16:44:02.614Z,,,,,,,,,,,NaN,,,,,,,,high,high,,,,,,,false,,,,,false,706141.2000000477,706141.0999999046,,706141.0999999046,,705953.501,5,600,,
sequence,flow.Sequence,10_17,2023-11-29T16:44:02.614Z,,,,,,,,,,,5616.054999904591,completion,,,,,,,high,high,,,,,,,false,,,,,false,706141.2999999523,706141.0999999046,700508.338,700719.5999999046,700525.045,705953.501,5,600,,
trial,html.Screen,10_18_0,2023-11-29T16:44:05.214Z,,,,1,0.0076984477620101,0.0069458408496562,,0.04,true,hh,2787.598999904585,response,1.1072126870290426,1.1601623890660688,-1.0877814713915066,0.9917482735105084,0.9272896376647068,-1.1499999999999997,high,high,,ISIC_0000434.JPG,9,ISIC_0071754.JPG,28,25,false,0.12,hh,keypress(i),0,false,708741.2999999523,708741.0999999046,705918.955,706141.2999999523,705953.501,708540.625,5,600,19,
break,html.Screen,10_18_1,2023-11-29T16:44:05.214Z,,,,,,,,,,,NaN,,,,,,,,high,high,,,,,,,false,,,,,false,708741.899999857,708741.7000000477,,708741.5,,708540.625,5,600,,
break_continue,html.Screen,10_18_2,2023-11-29T16:44:05.215Z,,,,,,,,,,,NaN,,,,,,,,high,high,,,,,,,false,,,,,false,708742.399999857,708742.2000000477,,708742.0999999046,,708540.625,5,600,,
sequence,flow.Sequence,10_18,2023-11-29T16:44:05.215Z,,,,,,,,,,,2788.699000047636,completion,,,,,,,high,high,,,,,,,false,,,,,false,708742.5,708742.2000000477,705918.955,706141.2999999523,705953.501,708540.625,5,600,,
trial,html.Screen,10_19_0,2023-11-29T16:44:09.126Z,,,,1,0.0200295718112167,0.0155559071275806,,0.04,true,ll,4112.274999856949,response,-1.082709423673037,1.1601623890660688,-1.0877814713915066,-1.1184338818466155,0.9272896376647068,-1.1499999999999997,low,low,,ISIC_0061343.JPG,9,ISIC_0058666.JPG,28,29,false,0.1,ll,keypress(f),0,false,712653.0999999046,712652.899999857,708524.146,708742.5999999046,708540.625,712466.336,5,600,20,
break,html.Screen,10_19_1,2023-11-29T16:44:09.126Z,,,,,,,,,,,NaN,,,,,,,,low,low,,,,,,,false,,,,,false,712653.5999999046,712653.399999857,,712653.2000000477,,712466.336,5,600,,
break_continue,html.Screen,10_19_2,2023-11-29T16:44:09.126Z,,,,,,,,,,,NaN,,,,,,,,low,low,,,,,,,false,,,,,false,712653.899999857,712653.7000000477,,712653.5999999046,,712466.336,5,600,,
sequence,flow.Sequence,10_19,2023-11-29T16:44:09.126Z,,,,,,,,,,,4113.075000047684,completion,,,,,,,low,low,,,,,,,false,,,,,false,712653.899999857,712653.7000000477,708524.146,708742.5999999046,708540.625,712466.336,5,600,,
trial,html.Screen,10_20_0,2023-11-29T16:44:14.525Z,,,,1,-0.0164027439304477,0.0082910758715273,,0.04,false,hh,5586.3640000476735,response,1.2101243893950622,1.1601623890660688,-1.0877814713915066,0.9721089662087676,0.9272896376647068,-1.1499999999999997,high,high,,ISIC_7381224.JPG,9,ISIC_0760740.JPG,28,25,false,0.12,ll,keypress(f),0,false,718052.7999999523,718052.7000000477,712431.52,712654.0999999046,712466.336,717858.776,5,600,21,
break,html.Screen,10_20_1,2023-11-29T16:44:14.526Z,,,,,,,,,,,NaN,,,,,,,,high,high,,,,,,,false,,,,,false,718053.2999999523,718053.2000000477,,718053,,717858.776,5,600,,
break_continue,html.Screen,10_20_2,2023-11-29T16:44:14.526Z,,,,,,,,,,,NaN,,,,,,,,high,high,,,,,,,false,,,,,false,718053.5,718053.399999857,,718053.399999857,,717858.776,5,600,,
sequence,flow.Sequence,10_20,2023-11-29T16:44:14.526Z,,,,,,,,,,,5587.063999856939,completion,,,,,,,high,high,,,,,,,false,,,,,false,718053.5999999046,718053.399999857,712431.52,712654,712466.336,717858.776,5,600,,
trial,html.Screen,10_21_0,2023-11-29T16:44:18.895Z,,,,1,0.0283578106329894,-0.0088840758711548,,0.04,true,hh,4562.323999904678,response,1.086808687078377,1.1601623890660688,-1.0877814713915066,0.8881204850517516,0.9272896376647068,-1.1499999999999997,high,high,,ISIC_0060707.JPG,9,ISIC_4014307.JPG,28,25,false,0.12,hh,keypress(i),0,false,722421.2000000477,722421.0999999046,717842.002,718053.5999999046,717858.776,722217.211,5,600,22,
break,html.Screen,10_21_1,2023-11-29T16:44:18.895Z,,,,,,,,,,,NaN,,,,,,,,high,high,,,,,,,false,,,,,false,722421.7000000477,722421.5999999046,,722421.399999857,,722217.211,5,600,,
break_continue,html.Screen,10_21_2,2023-11-29T16:44:18.896Z,,,,,,,,,,,NaN,,,,,,,,high,high,,,,,,,false,,,,,false,722422.0999999046,722421.899999857,,722421.7999999523,,722217.211,5,600,,
sequence,flow.Sequence,10_21,2023-11-29T16:44:18.896Z,,,,,,,,,,,4563.1239998569945,completion,,,,,,,high,high,,,,,,,false,,,,,false,722422.2000000477,722421.899999857,717842.002,718053.5999999046,717858.776,722217.211,5,600,,
trial,html.Screen,10_22_0,2023-11-29T16:44:21.343Z,,,,1,-0.0388334549081915,0.0303399972963369,,0.04,false,hh,2651.4890000476735,response,1.085906502329253,1.1601623890660688,-1.0877814713915066,0.8769314895018409,0.9272896376647068,-1.1499999999999997,high,high,,ISIC_4961708.JPG,9,ISIC_2693412.JPG,28,25,false,0.12,ll,keypress(f),0,false,724868.899999857,724868.7000000477,722200.635,722422.2999999523,722217.211,724672.145,5,600,23,
break,html.Screen,10_22_1,2023-11-29T16:44:21.343Z,,,,,,,,,,,NaN,,,,,,,,high,high,,,,,,,false,,,,,false,724869.2999999523,724869.2000000477,,724869,,724672.145,5,600,,
break_continue,html.Screen,10_22_2,2023-11-29T16:44:21.343Z,,,,,,,,,,,NaN,,,,,,,,high,high,,,,,,,false,,,,,false,724869.5,724869.399999857,,724869.2999999523,,724672.145,5,600,,
sequence,flow.Sequence,10_22,2023-11-29T16:44:21.343Z,,,,,,,,,,,2652.1889998569386,completion,,,,,,,high,high,,,,,,,false,,,,,false,724869.5,724869.399999857,722200.635,722422.2000000477,722217.211,724672.145,5,600,,
trial,html.Screen,10_23_0,2023-11-29T16:44:24.231Z,,,,1,-0.0374659946425444,-0.0086043094957617,,0.04,false,hh,3084.75499985693,response,1.2101243893950622,1.1601623890660688,-1.0877814713915066,0.9721089662087676,0.9272896376647068,-1.1499999999999997,high,high,,ISIC_0033051.JPG,9,ISIC_0760740.JPG,28,25,false,0.12,ll,keypress(f),0,false,727757.0999999046,727756.899999857,724655.403,724869.5999999046,724672.145,727560.905,5,600,24,
break,html.Screen,10_23_1,2023-11-29T16:44:24.231Z,,,,,,,,,,,NaN,,,,,,,,high,high,,,,,,,false,,,,,false,727757.399999857,727757.2999999523,,727757.2000000477,,727560.905,5,600,,
break_continue,html.Screen,10_23_2,2023-11-29T16:44:24.231Z,,,,,,,,,,,NaN,,,,,,,,high,high,,,,,,,false,,,,,false,727757.5999999046,727757.5999999046,,727757.5,,727560.905,5,600,,
sequence,flow.Sequence,10_23,2023-11-29T16:44:24.231Z,,,,,,,,,,,3085.454999904614,completion,,,,,,,high,high,,,,,,,false,,,,,false,727757.7000000477,727757.5999999046,724655.403,724869.5999999046,724672.145,727560.905,5,600,,
trial,html.Screen,10_24_0,2023-11-29T16:44:28.231Z,,,,1,-0.0065172941585523,0.0118857043117315,,0.04,false,hl,4196.094999999972,response,0.8926515927689261,1.1601623890660688,-1.0877814713915066,-0.7935960767768927,0.9272896376647068,-1.1499999999999997,high,low,,ISIC_6119202.JPG,8,ISIC_8901371.JPG,28,25,false,0.40000000000000024,ll,keypress(f),0,false,731757.0999999046,731757,727544.32,727757.7999999523,727560.905,731570.115,5,600,25,
break,html.Screen,10_24_1,2023-11-29T16:44:28.231Z,,,,,,,,,,,NaN,,,,,,,,high,low,,,,,,,false,,,,,false,731757.399999857,731757.399999857,,731757.2999999523,,731570.115,5,600,,
break_continue,html.Screen,10_24_2,2023-11-29T16:44:28.232Z,,,,,,,,,,,NaN,,,,,,,,high,low,,,,,,,false,,,,,false,731757.7000000477,731757.5999999046,,731757.5999999046,,731570.115,5,600,,
sequence,flow.Sequence,10_24,2023-11-29T16:44:28.232Z,,,,,,,,,,,4196.694999904605,completion,,,,,,,high,low,,,,,,,false,,,,,false,731757.7999999523,731757.5999999046,727544.32,727757.7999999523,727560.905,731570.115,5,600,,
trial,html.Screen,10_25_0,2023-11-29T16:44:30.759Z,,,,1,-0.0164027439304477,0.0082910758715273,,0.04,false,lh,2714.8850000000093,response,-1.0116417541846066,1.1601623890660688,-1.0877814713915066,1.033442916947398,0.9272896376647068,-1.1499999999999997,low,high,,ISIC_7381224.JPG,9,ISIC_0031389.JPG,28,25,false,0.2400000000000001,ll,keypress(f),0,false,734285.0999999046,734285,731535.516,731757.899999857,731570.115,734090.295,5,600,26,
break,html.Screen,10_25_1,2023-11-29T16:44:30.759Z,,,,,,,,,,,NaN,,,,,,,,low,high,,,,,,,false,,,,,false,734285.5,734285.5,,734285.2999999523,,734090.295,5,600,,
break_continue,html.Screen,10_25_2,2023-11-29T16:44:30.760Z,,,,,,,,,,,NaN,,,,,,,,low,high,,,,,,,false,,,,,false,734285.7999999523,734285.7000000477,,734285.5999999046,,734090.295,5,600,,
sequence,flow.Sequence,10_25,2023-11-29T16:44:30.760Z,,,,,,,,,,,2715.585000047693,completion,,,,,,,low,high,,,,,,,false,,,,,false,734285.7999999523,734285.7000000477,731535.516,731757.899999857,731570.115,734090.295,5,600,,
trial,html.Screen,10_26_0,2023-11-29T16:44:35.152Z,,,,1,0.0119001144851157,-0.0063430114540141,,0.04,false,lh,4587.405000047642,response,-1.0153439398566937,1.1601623890660688,-1.0877814713915066,0.93001438372942,0.9272896376647068,-1.1499999999999997,low,high,,ISIC_0003822.JPG,9,ISIC_8211214.JPG,28,25,false,0.2400000000000001,ll,keypress(f),0,false,738677.899999857,738677.7000000477,734073.708,734285.899999857,734090.295,738482.217,5,600,27,
break,html.Screen,10_26_1,2023-11-29T16:44:35.152Z,,,,,,,,,,,NaN,,,,,,,,low,high,,,,,,,false,,,,,false,738678.7000000477,738678.5,,738678.2000000477,,738482.217,5,600,,
break_continue,html.Screen,10_26_2,2023-11-29T16:44:35.153Z,,,,,,,,,,,NaN,,,,,,,,low,high,,,,,,,false,,,,,false,738679.2000000477,738679.0999999046,,738678.7999999523,,738482.217,5,600,,
sequence,flow.Sequence,10_26,2023-11-29T16:44:35.153Z,,,,,,,,,,,4588.804999904591,completion,,,,,,,low,high,,,,,,,false,,,,,false,738679.5,738679.0999999046,734073.708,734285.899999857,734090.295,738482.217,5,600,,
trial,html.Screen,10_27_0,2023-11-29T16:44:37.496Z,,,,1,0.0076984477620101,0.0069458408496562,,0.04,true,hh,2539.3829999046866,response,1.135180301076722,1.1601623890660688,-1.0877814713915066,0.8279199409322678,0.9272896376647068,-1.1499999999999997,high,high,,ISIC_0000434.JPG,9,ISIC_8637134.JPG,28,25,false,0.12,hh,keypress(i),0,false,741021.899999857,741021.5999999046,738465.647,738679.7000000477,738482.217,740820.029,5,600,28,
break,html.Screen,10_27_1,2023-11-29T16:44:37.496Z,,,,,,,,,,,NaN,,,,,,,,high,high,,,,,,,false,,,,,false,741022.5999999046,741022.399999857,,741022.0999999046,,740820.029,5,600,,
break_continue,html.Screen,10_27_2,2023-11-29T16:44:37.497Z,,,,,,,,,,,NaN,,,,,,,,high,high,,,,,,,false,,,,,false,741023.2999999523,741023,,741022.7000000477,,740820.029,5,600,,
sequence,flow.Sequence,10_27,2023-11-29T16:44:37.497Z,,,,,,,,,,,2540.783000000054,completion,,,,,,,high,high,,,,,,,false,,,,,false,741023.5,741023,738465.647,738679.5999999046,738482.217,740820.029,5,600,,
trial,html.Screen,10_28_0,2023-11-29T16:44:39.983Z,,,,1,0.0044063257337227,0.0172548282859886,,0.04,false,lh,2688.770999952336,response,-0.9111352818043872,1.1601623890660688,-1.0877814713915066,0.7517932332411794,0.9272896376647068,-1.1499999999999997,low,high,,ISIC_7413786.JPG,9,ISIC_3346045.JPG,28,25,false,0.2400000000000001,ll,keypress(f),0,false,743509,743508.7999999523,740803.545,741023.7000000477,740820.029,743308.217,5,600,29,
break,html.Screen,10_28_1,2023-11-29T16:44:39.983Z,,,,,,,,,,,NaN,,,,,,,,low,high,,,,,,,false,,,,,false,743509.399999857,743509.2999999523,,743509.0999999046,,743308.217,5,600,,
break_continue,html.Screen,10_28_2,2023-11-29T16:44:39.984Z,,,,,,,,,,,NaN,,,,,,,,low,high,,,,,,,false,,,,,false,743509.7000000477,743509.5999999046,,743509.5,,743308.217,5,600,,
sequence,flow.Sequence,10_28,2023-11-29T16:44:39.984Z,,,,,,,,,,,2689.570999904652,completion,,,,,,,low,high,,,,,,,false,,,,,false,743509.7999999523,743509.5999999046,740803.545,741023.7000000477,740820.029,743308.217,5,600,,
trial,html.Screen,10_29_0,2023-11-29T16:44:43.264Z,,,,1,0.0076984477620101,0.0069458408496562,,0.04,false,hh,3481.8829999046866,response,1.085906502329253,1.1601623890660688,-1.0877814713915066,0.8769314895018409,0.9272896376647068,-1.1499999999999997,high,high,,ISIC_0000434.JPG,9,ISIC_2693412.JPG,28,25,false,0.12,ll,keypress(f),0,false,746790.5,746790.0999999046,743291.654,743509.899999857,743308.217,746598.005,5,600,30,
break,html.Screen,10_29_1,2023-11-29T16:44:43.265Z,,,,,,,,,,,NaN,,,,,,,,high,high,,,,,,,false,,,,,false,746791.7000000477,746791.399999857,,746790.899999857,,746598.005,5,600,,
break_continue,html.Screen,10_29_2,2023-11-29T16:44:43.266Z,,,,,,,,,,,NaN,,,,,,,,high,high,,,,,,,false,,,,,false,746792.5999999046,746792.2000000477,,746791.899999857,,746598.005,5,600,,
sequence,flow.Sequence,10_29,2023-11-29T16:44:43.267Z,,,,,,,,,,,3483.9830000477377,completion,,,,,,,high,high,,,,,,,false,,,,,false,746792.899999857,746792.2000000477,743291.654,743509.899999857,743308.217,746598.005,5,600,,
trial,html.Screen,10_30_0,2023-11-29T16:44:46.328Z,,,,1,0.0220026381002083,-0.0170756452911772,,0.04,false,lh,3255.695000047679,response,-1.045301444872812,1.1601623890660688,-1.0877814713915066,1.0872560254441277,0.9272896376647068,-1.1499999999999997,low,high,,ISIC_5347806.JPG,9,ISIC_4507700.JPG,28,25,false,0.2400000000000001,ll,keypress(f),0,false,749853.899999857,749853.7000000477,746581.233,746793.0999999046,746598.005,749653.891,5,600,31,
break,html.Screen,10_30_1,2023-11-29T16:44:46.328Z,,,,,,,,,,,NaN,,,,,,,,low,high,,,,,,,false,,,,,false,749854.5999999046,749854.399999857,,749854.0999999046,,749653.891,5,600,,
break_continue,html.Screen,10_30_2,2023-11-29T16:44:46.329Z,,,,,,,,,,,NaN,,,,,,,,low,high,,,,,,,false,,,,,false,749855.0999999046,749854.899999857,,749854.7000000477,,749653.891,5,600,,
sequence,flow.Sequence,10_30,2023-11-29T16:44:46.329Z,,,,,,,,,,,3256.894999856944,completion,,,,,,,low,high,,,,,,,false,,,,,false,749855.2999999523,749854.899999857,746581.233,746793,746598.005,749653.891,5,600,,
trial,html.Screen,10_31_0,2023-11-29T16:44:48.607Z,,,,1,-0.0088741920055285,-0.0058246074740588,,0.04,true,hh,2478.8090000477387,response,1.2253309214495711,1.1601623890660688,-1.0877814713915066,1.00408952972084,0.9272896376647068,-1.1499999999999997,high,high,,ISIC_4136663.JPG,9,ISIC_5850699.JPG,28,25,false,0.12,hh,keypress(i),0,false,752132.7999999523,752132.7000000477,749637.397,749855.5,749653.891,751941.66,5,600,32,
break,html.Screen,10_31_1,2023-11-29T16:44:48.607Z,,,,,,,,,,,NaN,,,,,,,,high,high,,,,,,,false,,,,,false,752133.0999999046,752133,,752132.899999857,,751941.66,5,600,,
break_continue,html.Screen,10_31_2,2023-11-29T16:44:48.607Z,,,,,,,,,,,NaN,,,,,,,,high,high,,,,,,,false,,,,,false,752133.2999999523,752133.2999999523,,752133.0999999046,,751941.66,5,600,,
sequence,flow.Sequence,10_31,2023-11-29T16:44:48.607Z,,,,,,,,,,,2479.4089999523712,completion,,,,,,,high,high,,,,,,,false,,,,,false,752133.2999999523,752133.2999999523,749637.397,749855.5,749653.891,751941.66,5,600,,
trial,html.Screen,10_32_0,2023-11-29T16:44:51.007Z,,,,1,0.0367744112927588,0.0324865661712824,,0.04,false,hl,2591.6399999522837,response,0.989300717252516,1.1601623890660688,-1.0877814713915066,-0.7908280206937478,0.9272896376647068,-1.1499999999999997,high,low,,ISIC_4523565.JPG,9,ISIC_6416533.JPG,28,25,false,0.40000000000000024,hh,keypress(i),0,false,754533.5,754533.2999999523,751925.187,752133.399999857,751941.66,754329.684,5,600,33,
break,html.Screen,10_32_1,2023-11-29T16:44:51.008Z,,,,,,,,,,,NaN,,,,,,,,high,low,,,,,,,false,,,,,false,754534.0999999046,754533.899999857,,754533.7000000477,,754329.684,5,600,,
break_continue,html.Screen,10_32_2,2023-11-29T16:44:51.008Z,,,,,,,,,,,NaN,,,,,,,,high,low,,,,,,,false,,,,,false,754534.5,754534.2999999523,,754534.0999999046,,754329.684,5,600,,
sequence,flow.Sequence,10_32,2023-11-29T16:44:51.008Z,,,,,,,,,,,2592.6399999522837,completion,,,,,,,high,low,,,,,,,false,,,,,false,754534.5999999046,754534.2999999523,751925.187,752133.399999857,751941.66,754329.684,5,600,,
trial,html.Screen,10_33_0,2023-11-29T16:44:54.983Z,,,,1,-0.0109416414475118,-0.005246498750811,,0.04,true,hh,4179.016000047675,response,1.1450360947247324,1.1601623890660688,-1.0877814713915066,0.9543756979111568,0.9272896376647068,-1.1499999999999997,high,high,,ISIC_0064279.JPG,9,ISIC_1234463.JPG,28,25,false,0.12,hh,keypress(i),0,false,758508.7999999523,758508.7000000477,754313.16,754534.7000000477,754329.684,758321.549,5,600,34,
break,html.Screen,10_33_1,2023-11-29T16:44:54.983Z,,,,,,,,,,,NaN,,,,,,,,high,high,,,,,,,false,,,,,false,758509.2000000477,758509.2000000477,,758509,,758321.549,5,600,,
break_continue,html.Screen,10_33_2,2023-11-29T16:44:54.983Z,,,,,,,,,,,NaN,,,,,,,,high,high,,,,,,,false,,,,,false,758509.5,758509.2999999523,,758509.2999999523,,758321.549,5,600,,
sequence,flow.Sequence,10_33,2023-11-29T16:44:54.983Z,,,,,,,,,,,4179.615999952308,completion,,,,,,,high,high,,,,,,,false,,,,,false,758509.5,758509.2999999523,754313.16,754534.5999999046,754329.684,758321.549,5,600,,
trial,html.Screen,10_34_0,2023-11-29T16:44:57.079Z,,,,1,-0.0164027439304477,0.0082910758715273,,0.04,true,hh,2283.35099985695,response,1.1055382068806878,1.1601623890660688,-1.0877814713915066,1.0166010471189206,0.9272896376647068,-1.1499999999999997,high,high,,ISIC_7381224.JPG,9,ISIC_5420979.JPG,28,25,false,0.12,hh,keypress(i),0,false,760605,760604.899999857,758287.539,758509.5,758321.549,760408.189,5,600,35,
break,html.Screen,10_34_1,2023-11-29T16:44:57.079Z,,,,,,,,,,,NaN,,,,,,,,high,high,,,,,,,false,,,,,false,760605.399999857,760605.2999999523,,760605.2000000477,,760408.189,5,600,,
break_continue,html.Screen,10_34_2,2023-11-29T16:44:57.079Z,,,,,,,,,,,NaN,,,,,,,,high,high,,,,,,,false,,,,,false,760605.5999999046,760605.5,,760605.399999857,,760408.189,5,600,,
sequence,flow.Sequence,10_34,2023-11-29T16:44:57.080Z,,,,,,,,,,,2283.951000000001,completion,,,,,,,high,high,,,,,,,false,,,,,false,760605.7999999523,760605.5,758287.539,758509.5,758321.549,760408.189,5,600,,
trial,html.Screen,10_35_0,2023-11-29T16:45:00.038Z,,,,1,-0.0074667911845194,0.018500200317654,,0.04,true,hh,3156.4109999046195,response,1.086808687078377,1.1601623890660688,-1.0877814713915066,0.8881204850517516,0.9272896376647068,-1.1499999999999997,high,high,,ISIC_0058723.JPG,9,ISIC_4014307.JPG,28,25,false,0.12,hh,keypress(i),0,false,763564.7000000477,763564.5999999046,760391.546,760605.7999999523,760408.189,763363.855,5,600,36,
break,html.Screen,10_35_1,2023-11-29T16:45:00.039Z,,,,,,,,,,,NaN,,,,,,,,high,high,,,,,,,false,,,,,false,763565.0999999046,763565.0999999046,,763564.7999999523,,763363.855,5,600,,
break_continue,html.Screen,10_35_2,2023-11-29T16:45:00.039Z,,,,,,,,,,,NaN,,,,,,,,high,high,,,,,,,false,,,,,false,763565.399999857,763565.2999999523,,763565.2000000477,,763363.855,5,600,,
sequence,flow.Sequence,10_35,2023-11-29T16:45:00.039Z,,,,,,,,,,,3157.1109999523032,completion,,,,,,,high,high,,,,,,,false,,,,,false,763565.399999857,763565.2999999523,760391.546,760605.7999999523,760408.189,763363.855,5,600,,
trial,html.Screen,10_36_0,2023-11-29T16:45:04.551Z,,,,1,0,-0.0102871556606504,,0.04,true,lh,4713.345000047702,response,-1.0788024398087033,1.1601623890660688,-1.0877814713915066,0.9911875460374616,0.9272896376647068,-1.1499999999999997,low,high,,ISIC_1805163.JPG,9,ISIC_5951430.JPG,28,25,false,0.2400000000000001,lh,keypress(e),0,false,768077.2999999523,768077.2000000477,763347.163,763565.399999857,763363.855,767889.954,5,600,37,
break,html.Screen,10_36_1,2023-11-29T16:45:04.552Z,,,,,,,,,,,NaN,,,,,,,,low,high,,,,,,,false,,,,,false,768077.7999999523,768077.5999999046,,768077.399999857,,767889.954,5,600,,
break_continue,html.Screen,10_36_2,2023-11-29T16:45:04.552Z,,,,,,,,,,,NaN,,,,,,,,low,high,,,,,,,false,,,,,false,768078.0999999046,768077.899999857,,768077.7999999523,,767889.954,5,600,,
sequence,flow.Sequence,10_36,2023-11-29T16:45:04.552Z,,,,,,,,,,,4714.0449998569675,completion,,,,,,,low,high,,,,,,,false,,,,,false,768078.0999999046,768077.899999857,763347.163,763565.399999857,763363.855,767889.954,5,600,,
trial,html.Screen,10_37_0,2023-11-29T16:45:08.816Z,,,,1,0.0119001144851157,-0.0063430114540141,,0.04,true,hh,4451.746000047657,response,1.149077673153018,1.1601623890660688,-1.0877814713915066,0.8142209573918602,0.9272896376647068,-1.1499999999999997,high,high,,ISIC_0003822.JPG,9,ISIC_3566243.JPG,28,25,false,0.12,hh,keypress(i),0,false,772341.899999857,772341.7000000477,767856.093,768078.2000000477,767889.954,772164.407,5,600,38,
break,html.Screen,10_37_1,2023-11-29T16:45:08.817Z,,,,,,,,,,,NaN,,,,,,,,high,high,,,,,,,false,,,,,false,772342.7999999523,772342.5999999046,,772342.2999999523,,772164.407,5,600,,
break_continue,html.Screen,10_37_2,2023-11-29T16:45:08.817Z,,,,,,,,,,,NaN,,,,,,,,high,high,,,,,,,false,,,,,false,772343.399999857,772343.0999999046,,772342.899999857,,772164.407,5,600,,
sequence,flow.Sequence,10_37,2023-11-29T16:45:08.817Z,,,,,,,,,,,4453.145999904606,completion,,,,,,,high,high,,,,,,,false,,,,,false,772343.5999999046,772343.0999999046,767856.093,768078.2000000477,767889.954,772164.407,5,600,,
trial,html.Screen,10_38_0,2023-11-29T16:45:12.510Z,,,,1,0.0308384937406319,-0.0038396364323947,,0.04,false,hl,3872.192999904626,response,0.8513427412482127,1.1601623890660688,-1.0877814713915066,-0.9295303568095064,0.9272896376647068,-1.1499999999999997,high,low,,ISIC_0029825.JPG,8,ISIC_0034164.JPG,28,25,false,0.40000000000000024,hh,keypress(i),0,false,776036.7000000477,776036.5999999046,772131.19,772343.7000000477,772164.407,775838.207,5,600,39,
