sender,sender_type,sender_id,timestamp,meta,,age,blockNo,c1,c2,condition,control_tolerance,correct,correctResponse,duration,ended_on,f1,f1_high,f1_low,f2,f2_high,f2_low,feature_level1,feature_level2,gender,img_left,img_reveal,img_right,n_control_images,n_target_images,practice,range_tolerance,response,response_action,selection_duration,staircase,time_commit,time_end,time_render,time_run,time_show,time_switch,total_blocks,total_trials,trialNo,url
informed_consent,html.Screen,0,2023-11-30T19:32:44.183Z,"{""labjs_version"":""20.2.4"",""labjs_build"":{""flavor"":""development"",""commit"":""f5b4a49f956347addd546a832a3327688c2c0fef""},""location"":""https://labjs.felixhenninger.com/api/labjs_preview/index.html"",""userAgent"":""Mozilla/5.0 (Windows NT 10.0; Win64; x64) AppleWebKit/537.36 (KHTML, like Gecko) Chrome/119.0.0.0 Safari/537.36"",""platform"":""Win32"",""language"":""en-US"",""locale"":""en-US"",""timeZone"":""America/Chicago"",""timezoneOffset"":360,""screen_width"":1920,""screen_height"":1080,""scroll_width"":945,""scroll_height"":918,""window_innerWidth"":945,""window_innerHeight"":966,""devicePixelRatio"":1}",,,,,,,,,,13086.442999904633,response,,,,,,,,,,,,,,,,,consent,click button,,,13641.900000095367,13635.099999904633,532.026,686,548.657,13498.686,,,,{}
Demography form,html.Form,1,2023-11-30T19:32:50.215Z,,,19,,,,,,,,6175.014000047684,form submission,,,,,,,,,male,,,,,,,,,,,,19673.799999952316,19673.700000047684,13482.154,13642,13498.686,19531.967,,,,
Welcome,html.Screen,2,2023-11-30T19:33:11.474Z,,,,,,,"[""bor"",""col""]",,,,21400.332999952316,response,,,,,,,,,,,,,,,,,continue,keypress(Space),,,40932.799999952316,40932.299999952316,19515.349,19673.900000095367,19531.967,40798.781,,,,
demo_instructions,html.Screen,3,2023-11-30T19:33:59.650Z,,,,,,,,,,,48309.119000095365,response,,,,,,,,,,,,,,,,,continue,keypress(Space),,,89108.5,89107.90000009537,40781.966,40933,40798.781,88965.204,,,,
trial,html.Screen,4_0_0,2023-11-30T19:34:10.890Z,,,,0,-1.1302628852630028,-1.288906469447243,,,true,hh,11383.395999904635,response,1.109799097093339,1.2,-1.2,1.091507924157762,1.2,-1.2,high,high,,ISIC_0071050.JPG,,ISIC_0765584.JPG,,25,true,0.14,hh,keypress(i),100,false,100348.90000009537,100348.59999990463,88947.698,89108.59999990463,88965.204,100232.322,1,16,1,
sequence,flow.Sequence,4_0,2023-11-30T19:34:10.890Z,,,,,,,,,,,11383.395999904635,completion,,,,,,,high,high,,,,,,,true,,,,,false,100349,100348.59999990463,88947.698,89108.5,88965.204,100232.322,1,16,,
trial,html.Screen,4_1_0,2023-11-30T19:34:21.040Z,,,,0,-1.1746004947382946,-1.2207657619249948,,,true,hh,10265.777999904632,response,1.3246728710248594,1.2,-1.2,1.1527736000922424,1.2,-1.2,high,high,,ISIC_0012069.JPG,,ISIC_6876281.JPG,,25,true,0.14,hh,keypress(i),100,false,110498.29999995232,110498.09999990463,100215.387,100349.09999990463,100232.322,110381.95,1,16,2,
sequence,flow.Sequence,4_1,2023-11-30T19:34:21.040Z,,,,,,,,,,,10265.777999904632,completion,,,,,,,high,high,,,,,,,true,,,,,false,110498.40000009537,110498.09999990463,100215.387,100349.09999990463,100232.322,110381.95,1,16,,
trial,html.Screen,4_2_0,2023-11-30T19:34:26.501Z,,,,0,-1.2033647433750492,-1.0718012192341555,,,true,hh,5577.250000047687,response,1.2541318165695772,1.2,-1.2,1.085289936617366,1.2,-1.2,high,high,,ISIC_0061606.JPG,,ISIC_4277207.JPG,,25,true,0.14,hh,keypress(i),100,false,115959.29999995232,115959.20000004768,110365.467,110498.5,110381.95,115832.304,1,16,3,
sequence,flow.Sequence,4_2,2023-11-30T19:34:26.501Z,,,,,,,,,,,5577.250000047687,completion,,,,,,,high,high,,,,,,,true,,,,,false,115959.59999990463,115959.20000004768,110365.467,110498.5,110381.95,115832.304,1,16,,
trial,html.Screen,4_3_0,2023-11-30T19:34:29.737Z,,,,0,-1.1117876838408909,-1.2957497771092716,,,true,hh,3363.4959999523126,response,1.2724293858920366,1.2,-1.2,1.149360738769835,1.2,-1.2,high,high,,ISIC_0061915.JPG,,ISIC_1264725.JPG,,25,true,0.14,hh,keypress(i),100,false,119196,119195.79999995232,115815.199,115959.59999990463,115832.304,119082.085,1,16,4,
sequence,flow.Sequence,4_3,2023-11-30T19:34:29.738Z,,,,,,,,,,,3363.4959999523126,completion,,,,,,,high,high,,,,,,,true,,,,,false,119196.29999995232,119195.79999995232,115815.199,115959.59999990463,115832.304,119082.085,1,16,,
trial,html.Screen,4_4_0,2023-11-30T19:34:39.056Z,,,,0,1.1409143352872226,1.1323007949069106,,,true,ll,9432.615000047677,response,-1.0865209011322887,1.2,-1.2,-1.1401461171952545,1.2,-1.2,low,low,,ISIC_0030291.JPG,,ISIC_0016145.JPG,,30,true,0.13,ll,keypress(f),100,false,128514.90000009537,128514.70000004768,119065.354,119196.40000009537,119082.085,128398.709,1,16,5,
sequence,flow.Sequence,4_4,2023-11-30T19:34:39.056Z,,,,,,,,,,,9432.615000047677,completion,,,,,,,low,low,,,,,,,true,,,,,false,128515,128514.70000004768,119065.354,119196.29999995232,119082.085,128398.709,1,16,,
trial,html.Screen,4_5_0,2023-11-30T19:34:46.980Z,,,,0,1.0943527860463682,1.124481746658104,,,true,ll,8040.191000095365,response,-1.1117876838408909,1.2,-1.2,-1.2957497771092716,1.2,-1.2,low,low,,ISIC_0438136.JPG,,ISIC_0061915.JPG,,40,true,0.14,ll,keypress(f),100,false,136439.09999990463,136438.90000009537,128382.287,128515.09999990463,128398.709,136315.186,1,16,6,
sequence,flow.Sequence,4_5,2023-11-30T19:34:46.981Z,,,,,,,,,,,8040.191000095365,completion,,,,,,,low,low,,,,,,,true,,,,,false,136439.20000004768,136438.90000009537,128382.287,128515,128398.709,136315.186,1,16,,
trial,html.Screen,4_6_0,2023-11-30T19:34:48.937Z,,,,0,1.3379750533585932,1.1671342614509763,,,true,ll,2080.4139999046456,response,-1.082709423673037,1.2,-1.2,-1.1184338818466155,1.2,-1.2,low,low,,ISIC_0063556.JPG,,ISIC_0058666.JPG,,40,true,0.14,ll,keypress(f),100,false,138395.79999995232,138395.59999990463,136298.725,136439.29999995232,136315.186,138282.022,1,16,7,
sequence,flow.Sequence,4_6,2023-11-30T19:34:48.937Z,,,,,,,,,,,2080.4139999046456,completion,,,,,,,low,low,,,,,,,true,,,,,false,138395.90000009537,138395.59999990463,136298.725,136439.29999995232,136315.186,138282.022,1,16,,
trial,html.Screen,4_7_0,2023-11-30T19:34:50.832Z,,,,0,1.109799097093339,1.091507924157762,,,true,ll,2007.9780000000028,response,-1.0849202097813322,1.2,-1.2,-1.0851127310415287,1.2,-1.2,low,low,,ISIC_0765584.JPG,,ISIC_0010289.JPG,,40,true,0.14,ll,keypress(f),100,false,140290.09999990463,140290,138265.314,138396,138282.022,140165.174,1,16,8,
sequence,flow.Sequence,4_7,2023-11-30T19:34:50.832Z,,,,,,,,,,,2007.9780000000028,completion,,,,,,,low,low,,,,,,,true,,,,,false,140290.29999995232,140290,138265.314,138395.90000009537,138282.022,140165.174,1,16,,
trial,html.Screen,4_8_0,2023-11-30T19:35:02.515Z,,,,0,0.7991459998473059,-1.0280788723474688,,,true,lh,11808.326000000001,response,-0.9662688541319592,1.2,-1.2,0.929746784178986,1.2,-1.2,low,high,,ISIC_7951202.JPG,,ISIC_0011077.JPG,,27,true,0.40000000000000024,lh,keypress(e),100,false,151973.70000004768,151973.5,140148.49,140290.40000009537,140165.174,151848.488,1,16,9,
sequence,flow.Sequence,4_8,2023-11-30T19:35:02.515Z,,,,,,,,,,,11808.326000000001,completion,,,,,,,low,high,,,,,,,true,,,,,false,151973.79999995232,151973.5,140148.49,140290.40000009537,140165.174,151848.488,1,16,,
trial,html.Screen,4_9_0,2023-11-30T19:35:06.993Z,,,,0,1.0453124399868816,-0.8986747280184286,,,true,lh,4602.912000095355,response,-0.9617893983965208,1.2,-1.2,0.9453006131304652,1.2,-1.2,low,high,,ISIC_0013967.JPG,,ISIC_4229473.JPG,,40,true,0.4500000000000003,lh,keypress(e),100,false,156451.59999990463,156451.40000009537,151831.822,151973.90000009537,151848.488,156332.065,1,16,10,
sequence,flow.Sequence,4_9,2023-11-30T19:35:06.993Z,,,,,,,,,,,4602.912000095355,completion,,,,,,,low,high,,,,,,,true,,,,,false,156451.70000004768,156451.40000009537,151831.822,151973.79999995232,151848.488,156332.065,1,16,,
trial,html.Screen,4_10_0,2023-11-30T19:35:10.107Z,,,,0,1.2054195059663604,-0.7760611240296147,,,true,lh,3233.4349999999977,response,-1.2646773654288392,1.2,-1.2,0.952963803634235,1.2,-1.2,low,high,,ISIC_8712559.JPG,,ISIC_1996356.JPG,,40,true,0.4500000000000003,lh,keypress(e),100,false,159565.70000004768,159565.5,156315.145,156451.79999995232,156332.065,159448.487,1,16,11,
sequence,flow.Sequence,4_10,2023-11-30T19:35:10.107Z,,,,,,,,,,,3233.4349999999977,completion,,,,,,,low,high,,,,,,,true,,,,,false,159565.79999995232,159565.5,156315.145,156451.79999995232,156332.065,159448.487,1,16,,
trial,html.Screen,4_11_0,2023-11-30T19:35:12.167Z,,,,0,0.7518277461369444,-1.3860759020802074,,,true,lh,2175.5130000000063,response,-0.8307508446051526,1.2,-1.2,1.1707575338936729,1.2,-1.2,low,high,,ISIC_7967397.JPG,,ISIC_0028606.JPG,,40,true,0.4500000000000003,lh,keypress(e),100,false,161624.09999990463,161624,159431.851,159565.79999995232,159448.487,161498.485,1,16,12,
sequence,flow.Sequence,4_11,2023-11-30T19:35:12.167Z,,,,,,,,,,,2175.5130000000063,completion,,,,,,,low,high,,,,,,,true,,,,,false,161624.20000004768,161624,159431.851,159565.79999995232,159448.487,161498.485,1,16,,
trial,html.Screen,4_12_0,2023-11-30T19:35:19.057Z,,,,0,-0.9544693251394116,1.0727539917203766,,,true,hl,7015.6149999046465,response,1.199471562817528,1.2,-1.2,-0.8631260534979347,1.2,-1.2,high,low,,ISIC_0055147.JPG,,ISIC_0030754.JPG,,26,true,0.4500000000000003,hl,keypress(j),100,false,168514.59999990463,168514.09999990463,161481.807,161624.29999995232,161498.485,168398.486,1,16,13,
sequence,flow.Sequence,4_12,2023-11-30T19:35:19.057Z,,,,,,,,,,,7015.6149999046465,completion,,,,,,,high,low,,,,,,,true,,,,,false,168515,168514.09999990463,161481.807,161624.29999995232,161498.485,168398.486,1,16,,
trial,html.Screen,4_13_0,2023-11-30T19:35:23.455Z,,,,0,-0.9138670886161264,0.8414121478342018,,,true,hl,4513.613999904628,response,0.7518277461369444,1.2,-1.2,-1.3860759020802074,1.2,-1.2,high,low,,ISIC_6709052.JPG,,ISIC_7967397.JPG,,26,true,0.4500000000000003,hl,keypress(j),100,false,172912.40000009537,172912.09999990463,168381.807,168515,168398.486,172798.562,1,16,14,
sequence,flow.Sequence,4_13,2023-11-30T19:35:23.455Z,,,,,,,,,,,4513.613999904628,completion,,,,,,,high,low,,,,,,,true,,,,,false,172912.40000009537,172912.09999990463,168381.807,168515,168398.486,172798.562,1,16,,
trial,html.Screen,4_14_0,2023-11-30T19:35:25.163Z,,,,0,-0.90812608370647,1.2720026872926935,,,true,hl,1822.237999952311,response,0.7518277461369444,1.2,-1.2,-1.3860759020802074,1.2,-1.2,high,low,,ISIC_0450295.JPG,,ISIC_7967397.JPG,,26,true,0.4500000000000003,hl,keypress(j),100,false,174621,174620.79999995232,172782.047,172912.5,172798.562,174498.9,1,16,15,
sequence,flow.Sequence,4_14,2023-11-30T19:35:25.164Z,,,,,,,,,,,1822.237999952311,completion,,,,,,,high,low,,,,,,,true,,,,,false,174621.09999990463,174620.79999995232,172782.047,172912.5,172798.562,174498.9,1,16,,
trial,html.Screen,4_15_0,2023-11-30T19:35:27.383Z,,,,0,-0.8067116931297591,1.215898074058027,,,true,hl,2342.0000000953733,response,1.075512775389519,1.2,-1.2,-1.0454702683049502,1.2,-1.2,high,low,,ISIC_1457687.JPG,,ISIC_0033603.JPG,,26,true,0.4500000000000003,hl,keypress(j),100,false,176841,176840.90000009537,174481.792,174621.09999990463,174498.9,176715.298,1,16,16,
sequence,flow.Sequence,4_15,2023-11-30T19:35:27.384Z,,,,,,,,,,,2342.0000000953733,completion,,,,,,,high,low,,,,,,,true,,,,,false,176841.09999990463,176840.90000009537,174481.792,174621.09999990463,174498.9,176715.298,1,16,,
demonstration_loop,flow.Loop,4,2023-11-30T19:35:27.384Z,,,,,,,,,,,87875.69600009537,completion,,,,,,,,,,,,,,,true,,,,,false,176841.29999995232,176840.90000009537,88947.698,89108.5,88965.204,176715.298,1,16,,
practice_instructions,html.Screen,5,2023-11-30T19:35:56.280Z,,,,,,,,,,,29016.70199999999,response,,,,,,,,,,,,,,,,,continue,keypress(Space),,,205737.79999995232,205732,176698.458,176841.29999995232,176715.298,205598.444,,,,
trial,html.Screen,6_0_0,2023-11-30T19:36:03.619Z,,,,1,1.2946277435220357,1.255157480204324,,,true,ll,7478.155999904644,response,-1.14454137020797,1.2,-1.2,-1.1082302786512033,1.2,-1.2,low,low,,ISIC_1870309.JPG,,ISIC_0065128.JPG,,30,true,0.13,ll,keypress(f),0,false,213076.79999995232,213076.59999990463,205580.741,205737.90000009537,205598.444,212948.394,1,40,1,
sequence,flow.Sequence,6_0,2023-11-30T19:36:03.619Z,,,,,,,,,,,7478.155999904644,completion,,,,,,,low,low,,,,,,,true,,,,,false,213077,213076.59999990463,205580.741,205737.79999995232,205598.444,212948.394,1,40,,
trial,html.Screen,6_1_0,2023-11-30T19:36:06.532Z,,,,1,0.9754077946987664,-1.1821868813141057,,,false,lh,3040.905999952316,response,-0.9617893983965208,1.2,-1.2,0.9453006131304652,1.2,-1.2,low,high,,ISIC_0024317.JPG,,ISIC_4229473.JPG,,27,true,0.40000000000000024,hh,keypress(i),0,false,215989.40000009537,215989.29999995232,212931.546,213077,212948.394,215848.401,1,40,2,
sequence,flow.Sequence,6_1,2023-11-30T19:36:06.532Z,,,,,,,,,,,3040.905999952316,completion,,,,,,,low,high,,,,,,,true,,,,,false,215989.5,215989.29999995232,212931.546,213077,212948.394,215848.401,1,40,,
trial,html.Screen,6_2_0,2023-11-30T19:36:11.939Z,,,,1,-1.0773466327271526,-1.1601445610079184,,,false,hh,5548.098999999987,response,1.2219550761700546,1.2,-1.2,1.2809901875733454,1.2,-1.2,high,high,,ISIC_0055169.JPG,,ISIC_6463417.JPG,,265,true,0.4500000000000003,hl,keypress(j),0,false,221396.59999990463,221396.5,215831.944,215989.5,215848.401,221265.08,1,40,3,
sequence,flow.Sequence,6_2,2023-11-30T19:36:11.939Z,,,,,,,,,,,5548.098999999987,completion,,,,,,,high,high,,,,,,,true,,,,,false,221396.70000004768,221396.5,215831.944,215989.5,215848.401,221265.08,1,40,,
trial,html.Screen,6_3_0,2023-11-30T19:36:17.188Z,,,,1,-1.2646773654288392,0.952963803634235,,,true,hl,5379.719999952329,response,1.3046390428588206,1.2,-1.2,-0.7942099232219556,1.2,-1.2,high,low,,ISIC_1996356.JPG,,ISIC_0013096.JPG,,26,true,0.4500000000000003,hl,keypress(j),0,false,226644.90000009537,226644.79999995232,221248.669,221396.70000004768,221265.08,226515.05,1,40,4,
sequence,flow.Sequence,6_3,2023-11-30T19:36:17.188Z,,,,,,,,,,,5379.719999952329,completion,,,,,,,high,low,,,,,,,true,,,,,false,226645,226644.79999995232,221248.669,221396.70000004768,221265.08,226515.05,1,40,,
trial,html.Screen,6_4_0,2023-11-30T19:36:20.771Z,,,,1,1.1409143352872226,1.1323007949069106,,,true,ll,3713.4500000000116,response,-0.9574234872819756,1.2,-1.2,-1.3003764624334877,1.2,-1.2,low,low,,ISIC_0030291.JPG,,ISIC_0054167.JPG,,288,true,0.40000000000000024,ll,keypress(f),0,false,230228.59999990463,230228.5,226498.496,226645,226515.05,230098.388,1,40,5,
sequence,flow.Sequence,6_4,2023-11-30T19:36:20.772Z,,,,,,,,,,,3713.4500000000116,completion,,,,,,,low,low,,,,,,,true,,,,,false,230228.70000004768,230228.5,226498.496,226645,226515.05,230098.388,1,40,,
trial,html.Screen,6_5_0,2023-11-30T19:36:23.827Z,,,,1,1.0329549150636406,-1.01584100839286,,,false,lh,3186.012000095361,response,-0.9633172970727744,1.2,-1.2,0.8472659344792351,1.2,-1.2,low,high,,ISIC_0054670.JPG,,ISIC_0067172.JPG,,27,true,0.40000000000000024,hh,keypress(i),0,false,233284.40000009537,233284.40000009537,230081.766,230228.79999995232,230098.388,233148.375,1,40,6,
sequence,flow.Sequence,6_5,2023-11-30T19:36:23.827Z,,,,,,,,,,,3186.012000095361,completion,,,,,,,low,high,,,,,,,true,,,,,false,233284.59999990463,233284.40000009537,230081.766,230228.70000004768,230098.388,233148.375,1,40,,
trial,html.Screen,6_6_0,2023-11-30T19:36:26.163Z,,,,1,-1.2646773654288392,0.952963803634235,,,false,hl,2472.2249999046326,response,1.0887164761389951,1.2,-1.2,-1.5357518752548716,1.2,-1.2,high,low,,ISIC_1996356.JPG,,ISIC_0028127.JPG,,26,true,0.4500000000000003,ll,keypress(f),0,false,235620.59999990463,235620.59999990463,233131.636,233284.59999990463,233148.375,235481.876,1,40,7,
sequence,flow.Sequence,6_6,2023-11-30T19:36:26.164Z,,,,,,,,,,,2472.2249999046326,completion,,,,,,,high,low,,,,,,,true,,,,,false,235620.79999995232,235620.59999990463,233131.636,233284.59999990463,233148.375,235481.876,1,40,,
trial,html.Screen,6_7_0,2023-11-30T19:36:28.691Z,,,,1,-1.136677654701082,-1.2647850993872314,,,true,hh,2666.423999952327,response,1.0040510013663018,1.2,-1.2,0.9707475308236284,1.2,-1.2,high,high,,ISIC_0015436.JPG,,ISIC_0026911.JPG,,203,true,0.40000000000000024,hh,keypress(i),0,false,238148.40000009537,238148.29999995232,235465.263,235620.79999995232,235481.876,238015.03,1,40,8,
sequence,flow.Sequence,6_7,2023-11-30T19:36:28.691Z,,,,,,,,,,,2666.423999952327,completion,,,,,,,high,high,,,,,,,true,,,,,false,238148.59999990463,238148.29999995232,235465.263,235620.79999995232,235481.876,238015.03,1,40,,
trial,html.Screen,6_8_0,2023-11-30T19:36:30.979Z,,,,1,0.7518277461369444,-1.3860759020802074,,,false,lh,2421.5699999046337,response,-1.045301444872812,1.2,-1.2,1.0872560254441277,1.2,-1.2,low,high,,ISIC_7967397.JPG,,ISIC_4507700.JPG,,27,true,0.40000000000000024,hh,keypress(i),0,false,240436.70000004768,240436.59999990463,237998.351,238148.59999990463,238015.03,240298.353,1,40,9,
sequence,flow.Sequence,6_8,2023-11-30T19:36:30.980Z,,,,,,,,,,,2421.5699999046337,completion,,,,,,,low,high,,,,,,,true,,,,,false,240436.79999995232,240436.59999990463,237998.351,238148.59999990463,238015.03,240298.353,1,40,,
trial,html.Screen,6_9_0,2023-11-30T19:36:32.851Z,,,,1,1.0887164761389951,-1.5357518752548716,,,false,lh,2009.5470000953646,response,-0.8500530224490773,1.2,-1.2,1.0893360711742854,1.2,-1.2,low,high,,ISIC_0028127.JPG,,ISIC_2998367.JPG,,40,true,0.4500000000000003,hh,keypress(i),0,false,242308.09999990463,242307.90000009537,240281.921,240436.79999995232,240298.353,242165.03,1,40,10,
sequence,flow.Sequence,6_9,2023-11-30T19:36:32.851Z,,,,,,,,,,,2009.5470000953646,completion,,,,,,,low,high,,,,,,,true,,,,,false,242308.20000004768,242307.90000009537,240281.921,240436.79999995232,240298.353,242165.03,1,40,,
trial,html.Screen,6_10_0,2023-11-30T19:36:37.730Z,,,,1,-1.2646773654288392,0.952963803634235,,,false,hl,5022.670000047685,response,0.8719231363109603,1.2,-1.2,-0.7704280220140033,1.2,-1.2,high,low,,ISIC_1996356.JPG,,ISIC_0029453.JPG,,26,true,0.4500000000000003,lh,keypress(e),0,false,247187.70000004768,247187.70000004768,242148.779,242308.20000004768,242165.03,247048.37,1,40,11,
sequence,flow.Sequence,6_10,2023-11-30T19:36:37.731Z,,,,,,,,,,,5022.670000047685,completion,,,,,,,high,low,,,,,,,true,,,,,false,247187.79999995232,247187.70000004768,242148.779,242308.20000004768,242165.03,247048.37,1,40,,
trial,html.Screen,6_11_0,2023-11-30T19:36:39.651Z,,,,1,-0.8067116931297591,1.215898074058027,,,false,hl,2059.929999952321,response,1.0369885917487718,1.2,-1.2,-0.8486937878412699,1.2,-1.2,high,low,,ISIC_1457687.JPG,,ISIC_6917681.JPG,,26,true,0.4500000000000003,hh,keypress(i),0,false,249108.40000009537,249108.29999995232,247031.738,247187.79999995232,247048.37,248965.014,1,40,12,
sequence,flow.Sequence,6_11,2023-11-30T19:36:39.651Z,,,,,,,,,,,2059.929999952321,completion,,,,,,,high,low,,,,,,,true,,,,,false,249108.5,249108.29999995232,247031.738,247187.79999995232,247048.37,248965.014,1,40,,
trial,html.Screen,6_12_0,2023-11-30T19:36:43.187Z,,,,1,1.0659165756604234,1.0867497316848906,,,false,ll,3679.2859999523207,response,-0.955888202457274,1.2,-1.2,-1.1636701289603852,1.2,-1.2,low,low,,ISIC_5807608.JPG,,ISIC_0058098.JPG,,288,true,0.40000000000000024,hl,keypress(j),0,false,252644.5,252644.29999995232,248948.313,249108.70000004768,248965.014,252515.063,1,40,13,
sequence,flow.Sequence,6_12,2023-11-30T19:36:43.187Z,,,,,,,,,,,3679.2859999523207,completion,,,,,,,low,low,,,,,,,true,,,,,false,252644.59999990463,252644.29999995232,248948.313,249108.59999990463,248965.014,252515.063,1,40,,
trial,html.Screen,6_13_0,2023-11-30T19:36:45.171Z,,,,1,0.8110121381849364,-0.7563142141851558,,,false,lh,2113.137000047689,response,-0.8307508446051526,1.2,-1.2,1.1707575338936729,1.2,-1.2,low,high,,ISIC_0033605.JPG,,ISIC_0028606.JPG,,27,true,0.40000000000000024,hh,keypress(i),0,false,254628.29999995232,254628.20000004768,252498.584,252644.59999990463,252515.063,254498.792,1,40,14,
sequence,flow.Sequence,6_13,2023-11-30T19:36:45.171Z,,,,,,,,,,,2113.137000047689,completion,,,,,,,low,high,,,,,,,true,,,,,false,254628.40000009537,254628.20000004768,252498.584,252644.59999990463,252515.063,254498.792,1,40,,
trial,html.Screen,6_14_0,2023-11-30T19:36:49.060Z,,,,1,1.2219550761700546,1.2809901875733454,,,true,ll,4018.0079999523296,response,-1.2977265460592142,1.2,-1.2,-0.7659165333957175,1.2,-1.2,low,low,,ISIC_6463417.JPG,,ISIC_3738751.JPG,,359,true,0.4500000000000003,ll,keypress(f),0,false,258516.90000009537,258516.79999995232,254481.851,254628.5,254498.792,258381.737,1,40,15,
sequence,flow.Sequence,6_14,2023-11-30T19:36:49.060Z,,,,,,,,,,,4018.0079999523296,completion,,,,,,,low,low,,,,,,,true,,,,,false,258517.09999990463,258516.79999995232,254481.851,254628.40000009537,254498.792,258381.737,1,40,,
trial,html.Screen,6_15_0,2023-11-30T19:36:52.371Z,,,,1,1.1989130276493527,1.2666195460149832,,,true,ll,3446.862999904639,response,-1.1936751736668425,1.2,-1.2,-1.2584308630745344,1.2,-1.2,low,low,,ISIC_0031705.JPG,,ISIC_0061265.JPG,,40,true,0.14,ll,keypress(f),0,false,261828.70000004768,261828.59999990463,258365.032,258517.20000004768,258381.737,261698.346,1,40,16,
sequence,flow.Sequence,6_15,2023-11-30T19:36:52.372Z,,,,,,,,,,,3446.862999904639,completion,,,,,,,low,low,,,,,,,true,,,,,false,261828.79999995232,261828.59999990463,258365.032,258517.09999990463,258381.737,261698.346,1,40,,
trial,html.Screen,6_16_0,2023-11-30T19:36:55.139Z,,,,1,-0.8544507134472948,0.9244388608707323,,,false,hl,2898.253999904642,response,1.199471562817528,1.2,-1.2,-0.8631260534979347,1.2,-1.2,high,low,,ISIC_3565564.JPG,,ISIC_0030754.JPG,,26,true,0.4500000000000003,ll,keypress(f),0,false,264596.7000000477,264596.59999990463,261681.71,261828.90000009537,261698.346,264465.189,1,40,17,
sequence,flow.Sequence,6_16,2023-11-30T19:36:55.140Z,,,,,,,,,,,2898.253999904642,completion,,,,,,,high,low,,,,,,,true,,,,,false,264596.7999999523,264596.59999990463,261681.71,261828.90000009537,261698.346,264465.189,1,40,,
trial,html.Screen,6_17_0,2023-11-30T19:36:58.099Z,,,,1,-1.082709423673037,-1.1184338818466155,,,true,hh,3091.2110000953544,response,0.940974390526586,1.2,-1.2,0.8027264864579817,1.2,-1.2,high,high,,ISIC_0058666.JPG,,ISIC_0032341.JPG,,203,true,0.40000000000000024,hh,keypress(i),0,false,267556.5,267556.40000009537,264448.719,264596.7999999523,264465.189,267415,1,40,18,
sequence,flow.Sequence,6_17,2023-11-30T19:36:58.099Z,,,,,,,,,,,3091.2110000953544,completion,,,,,,,high,high,,,,,,,true,,,,,false,267556.7000000477,267556.40000009537,264448.719,264596.7999999523,264465.189,267415,1,40,,
trial,html.Screen,6_18_0,2023-11-30T19:36:59.715Z,,,,1,0.9653573371180936,-0.854766800381037,,,false,lh,1757.4000000953674,response,-0.9244148283103414,1.2,-1.2,0.9712966348713286,1.2,-1.2,low,high,,ISIC_9640145.JPG,,ISIC_7927525.JPG,,27,true,0.40000000000000024,hh,keypress(i),0,false,269172.5,269172.40000009537,267398.522,267556.7000000477,267415,269031.699,1,40,19,
sequence,flow.Sequence,6_18,2023-11-30T19:36:59.715Z,,,,,,,,,,,1757.4000000953674,completion,,,,,,,low,high,,,,,,,true,,,,,false,269172.59999990463,269172.40000009537,267398.522,267556.7000000477,267415,269031.699,1,40,,
trial,html.Screen,6_19_0,2023-11-30T19:37:01.747Z,,,,1,-1.1048559518249943,-1.2252457981338687,,,true,hh,2172.40099990461,response,0.9381357191664412,1.2,-1.2,0.7568873197636701,1.2,-1.2,high,high,,ISIC_0060817.JPG,,ISIC_9808863.JPG,,265,true,0.4500000000000003,hh,keypress(i),0,false,271204.2000000477,271204.09999990463,269015.046,269172.59999990463,269031.699,271065.179,1,40,20,
sequence,flow.Sequence,6_19,2023-11-30T19:37:01.747Z,,,,,,,,,,,2172.40099990461,completion,,,,,,,high,high,,,,,,,true,,,,,false,271204.2999999523,271204.09999990463,269015.046,269172.59999990463,269031.699,271065.179,1,40,,
trial,html.Screen,6_20_0,2023-11-30T19:37:03.715Z,,,,1,-1.1746004947382946,-1.2207657619249948,,,true,hh,2107.3209999999963,response,1.151139267005652,1.2,-1.2,1.0838749490501327,1.2,-1.2,high,high,,ISIC_0012069.JPG,,ISIC_0002566.JPG,,25,true,0.14,hh,keypress(i),0,false,273172.59999990463,273172.5,271048.449,271204.2999999523,271065.179,273031.672,1,40,21,
sequence,flow.Sequence,6_20,2023-11-30T19:37:03.715Z,,,,,,,,,,,2107.3209999999963,completion,,,,,,,high,high,,,,,,,true,,,,,false,273172.7000000477,273172.5,271048.449,271204.2999999523,271065.179,273031.672,1,40,,
trial,html.Screen,6_21_0,2023-11-30T19:37:05.299Z,,,,1,-1.2194553326562725,-1.2381726989215684,,,true,hh,1724.6279999522958,response,1.274417010249866,1.2,-1.2,1.0725495669014795,1.2,-1.2,high,high,,ISIC_0068975.JPG,,ISIC_8849004.JPG,,25,true,0.14,hh,keypress(i),0,false,274756.5,274756.2999999523,273015.14,273172.7999999523,273031.672,274614.987,1,40,22,
sequence,flow.Sequence,6_21,2023-11-30T19:37:05.299Z,,,,,,,,,,,1724.6279999522958,completion,,,,,,,high,high,,,,,,,true,,,,,false,274756.59999990463,274756.2999999523,273015.14,273172.7000000477,273031.672,274614.987,1,40,,
trial,html.Screen,6_22_0,2023-11-30T19:37:08.451Z,,,,1,-0.8867328775712738,1.0063426986460375,,,false,hl,3293.512999999977,response,1.0887164761389951,1.2,-1.2,-1.5357518752548716,1.2,-1.2,high,low,,ISIC_0055759.JPG,,ISIC_0028127.JPG,,26,true,0.4500000000000003,hh,keypress(i),0,false,277908.5,277908.5,274598.477,274756.59999990463,274614.987,277764.992,1,40,23,
sequence,flow.Sequence,6_22,2023-11-30T19:37:08.451Z,,,,,,,,,,,3293.512999999977,completion,,,,,,,high,low,,,,,,,true,,,,,false,277908.59999990463,277908.5,274598.477,274756.59999990463,274614.987,277764.992,1,40,,
trial,html.Screen,6_23_0,2023-11-30T19:37:12.724Z,,,,1,1.3379750533585932,1.1671342614509763,,,false,ll,4415.5079999999725,response,-0.8392703619497953,1.2,-1.2,-1.3679631540484087,1.2,-1.2,low,low,,ISIC_0063556.JPG,,ISIC_0060893.JPG,,288,true,0.40000000000000024,lh,keypress(e),0,false,282180.59999990463,282180.5,277748.484,277908.7000000477,277764.992,282048.325,1,40,24,
sequence,flow.Sequence,6_23,2023-11-30T19:37:12.724Z,,,,,,,,,,,4415.5079999999725,completion,,,,,,,low,low,,,,,,,true,,,,,false,282180.7999999523,282180.5,277748.484,277908.7000000477,277764.992,282048.325,1,40,,
trial,html.Screen,6_24_0,2023-11-30T19:37:15.268Z,,,,1,-0.9662688541319592,0.929746784178986,,,false,hl,2676.1749999999884,response,0.9653573371180936,1.2,-1.2,-0.854766800381037,1.2,-1.2,high,low,,ISIC_0011077.JPG,,ISIC_9640145.JPG,,26,true,0.4500000000000003,hh,keypress(i),0,false,284724.59999990463,284724.5,282031.754,282180.90000009537,282048.325,284581.642,1,40,25,
sequence,flow.Sequence,6_24,2023-11-30T19:37:15.268Z,,,,,,,,,,,2676.1749999999884,completion,,,,,,,high,low,,,,,,,true,,,,,false,284724.7000000477,284724.5,282031.754,282180.90000009537,282048.325,284581.642,1,40,,
trial,html.Screen,6_25_0,2023-11-30T19:37:17.764Z,,,,1,-1.168911077628813,1.2181838235193114,,,false,hl,2638.95799990464,response,1.0329549150636406,1.2,-1.2,-1.01584100839286,1.2,-1.2,high,low,,ISIC_7358691.JPG,,ISIC_0054670.JPG,,26,true,0.4500000000000003,ll,keypress(f),0,false,287220.7000000477,287220.59999990463,284565.117,284724.7999999523,284581.642,287081.639,1,40,26,
sequence,flow.Sequence,6_25,2023-11-30T19:37:17.764Z,,,,,,,,,,,2638.95799990464,completion,,,,,,,high,low,,,,,,,true,,,,,false,287220.7999999523,287220.59999990463,284565.117,284724.7999999523,284581.642,287081.639,1,40,,
trial,html.Screen,6_26_0,2023-11-30T19:37:20.388Z,,,,1,0.7882758084023446,-0.8296405881378283,,,false,lh,2762.6609999522916,response,-1.2646773654288392,1.2,-1.2,0.952963803634235,1.2,-1.2,low,high,,ISIC_0065882.JPG,,ISIC_1996356.JPG,,27,true,0.40000000000000024,hl,keypress(j),0,false,289844.40000009537,289844.2999999523,287065.095,287220.90000009537,287081.639,289714.967,1,40,27,
sequence,flow.Sequence,6_26,2023-11-30T19:37:20.388Z,,,,,,,,,,,2762.6609999522916,completion,,,,,,,low,high,,,,,,,true,,,,,false,289844.5,289844.2999999523,287065.095,287220.90000009537,287081.639,289714.967,1,40,,
trial,html.Screen,6_27_0,2023-11-30T19:37:25.556Z,,,,1,-0.9089402323867112,0.8034544077281132,,,false,hl,5297.433000095363,response,1.0887164761389951,1.2,-1.2,-1.5357518752548716,1.2,-1.2,high,low,,ISIC_3585381.JPG,,ISIC_0028127.JPG,,26,true,0.4500000000000003,lh,keypress(e),0,false,295012.5,295012.40000009537,289698.425,289844.5,289714.967,294881.899,1,40,28,
sequence,flow.Sequence,6_27,2023-11-30T19:37:25.556Z,,,,,,,,,,,5297.433000095363,completion,,,,,,,high,low,,,,,,,true,,,,,false,295012.5,295012.40000009537,289698.425,289844.5,289714.967,294881.899,1,40,,
trial,html.Screen,6_28_0,2023-11-30T19:37:30.436Z,,,,1,1.274752206258116,1.2988509166163749,,,false,ll,5010.501000095392,response,-0.9912923619519602,1.2,-1.2,-1.1419452407123123,1.2,-1.2,low,low,,ISIC_6704623.JPG,,ISIC_0064863.JPG,,288,true,0.40000000000000024,hl,keypress(j),0,false,299892.40000009537,299892.40000009537,294864.846,295012.59999990463,294881.899,299765.494,1,40,29,
sequence,flow.Sequence,6_28,2023-11-30T19:37:30.436Z,,,,,,,,,,,5010.501000095392,completion,,,,,,,low,low,,,,,,,true,,,,,false,299892.59999990463,299892.40000009537,294864.846,295012.59999990463,294881.899,299765.494,1,40,,
trial,html.Screen,6_29_0,2023-11-30T19:37:32.308Z,,,,1,-1.0865209011322887,-1.1401461171952545,,,true,hh,1998.9060000953614,response,1.1989130276493527,1.2,-1.2,1.2666195460149832,1.2,-1.2,high,high,,ISIC_0016145.JPG,,ISIC_0031705.JPG,,25,true,0.14,hh,keypress(i),0,false,301764.5,301764.40000009537,299731.66,299892.59999990463,299765.494,301631.622,1,40,30,
sequence,flow.Sequence,6_29,2023-11-30T19:37:32.308Z,,,,,,,,,,,1998.9060000953614,completion,,,,,,,high,high,,,,,,,true,,,,,false,301764.59999990463,301764.40000009537,299731.66,299892.59999990463,299765.494,301631.622,1,40,,
trial,html.Screen,6_30_0,2023-11-30T19:37:34.292Z,,,,1,0.9754077946987664,-1.1821868813141057,,,false,lh,2116.9779999046586,response,-1.2020012168275056,1.2,-1.2,0.923753102263735,1.2,-1.2,low,high,,ISIC_0024317.JPG,,ISIC_0000022.JPG,,27,true,0.40000000000000024,hh,keypress(i),0,false,303748.7000000477,303748.59999990463,301615.115,301764.59999990463,301631.622,303615.114,1,40,31,
sequence,flow.Sequence,6_30,2023-11-30T19:37:34.292Z,,,,,,,,,,,2116.9779999046586,completion,,,,,,,low,high,,,,,,,true,,,,,false,303748.7999999523,303748.59999990463,301615.115,301764.59999990463,301631.622,303615.114,1,40,,
trial,html.Screen,6_31_0,2023-11-30T19:37:36.020Z,,,,1,-1.1392972253022884,-1.208510423375335,,,true,hh,1861.3859999999986,response,1.4249507182087946,1.2,-1.2,0.7770923448835394,1.2,-1.2,high,high,,ISIC_0046526.JPG,,ISIC_0004334.JPG,,265,true,0.4500000000000003,hh,keypress(i),0,false,305476.59999990463,305476.5,303598.41,303748.90000009537,303615.114,305348.31,1,40,32,
sequence,flow.Sequence,6_31,2023-11-30T19:37:36.020Z,,,,,,,,,,,1861.3859999999986,completion,,,,,,,high,high,,,,,,,true,,,,,false,305476.59999990463,305476.5,303598.41,303748.7999999523,303615.114,305348.31,1,40,,
trial,html.Screen,6_32_0,2023-11-30T19:37:37.524Z,,,,1,-1.1746004947382946,-1.2207657619249948,,,true,hh,1631.9899999523186,response,1.2946277435220357,1.2,-1.2,1.255157480204324,1.2,-1.2,high,high,,ISIC_0012069.JPG,,ISIC_1870309.JPG,,25,true,0.14,hh,keypress(i),0,false,306980.40000009537,306980.2999999523,305314.994,305476.7000000477,305348.31,306848.297,1,40,33,
sequence,flow.Sequence,6_32,2023-11-30T19:37:37.524Z,,,,,,,,,,,1631.9899999523186,completion,,,,,,,high,high,,,,,,,true,,,,,false,306980.5,306980.2999999523,305314.994,305476.7000000477,305348.31,306848.297,1,40,,
trial,html.Screen,6_33_0,2023-11-30T19:37:40.659Z,,,,1,-0.9244148283103414,0.9712966348713286,,,false,hl,3267.802999904612,response,0.8926515927689261,1.2,-1.2,-0.7935960767768927,1.2,-1.2,high,low,,ISIC_7927525.JPG,,ISIC_8901371.JPG,,26,true,0.4500000000000003,lh,keypress(e),0,false,310116.2000000477,310116.09999990463,306831.791,306980.5,306848.297,309981.625,1,40,34,
sequence,flow.Sequence,6_33,2023-11-30T19:37:40.659Z,,,,,,,,,,,3267.802999904612,completion,,,,,,,high,low,,,,,,,true,,,,,false,310116.2999999523,310116.09999990463,306831.791,306980.5,306848.297,309981.625,1,40,,
trial,html.Screen,6_34_0,2023-11-30T19:37:42.388Z,,,,1,0.7518277461369444,-1.3860759020802074,,,false,lh,1862.6749999523163,response,-1.0153439398566937,1.2,-1.2,0.93001438372942,1.2,-1.2,low,high,,ISIC_7967397.JPG,,ISIC_8211214.JPG,,27,true,0.40000000000000024,hh,keypress(i),0,false,311844.5,311844.2999999523,309964.849,310116.2999999523,309981.625,311715.136,1,40,35,
sequence,flow.Sequence,6_34,2023-11-30T19:37:42.388Z,,,,,,,,,,,1862.6749999523163,completion,,,,,,,low,high,,,,,,,true,,,,,false,311844.5,311844.2999999523,309964.849,310116.2999999523,309981.625,311715.136,1,40,,
trial,html.Screen,6_35_0,2023-11-30T19:37:46.115Z,,,,1,1.2600330864275875,1.0958628838888655,,,false,ll,3856.8640000000014,response,-1.3027600372271029,1.2,-1.2,-0.9860793445378752,1.2,-1.2,low,low,,ISIC_0026996.JPG,,ISIC_0014703.JPG,,359,true,0.4500000000000003,lh,keypress(e),0,false,315572.09999990463,315572,311698.214,311844.5,311715.136,315431.624,1,40,36,
sequence,flow.Sequence,6_35,2023-11-30T19:37:46.115Z,,,,,,,,,,,3856.8640000000014,completion,,,,,,,low,low,,,,,,,true,,,,,false,315572.2000000477,315572,311698.214,311844.5,311715.136,315431.624,1,40,,
trial,html.Screen,6_36_0,2023-11-30T19:37:48.724Z,,,,1,1.252716660627398,1.183977080937476,,,true,ll,2748.8759999999893,response,-1.071312313440387,1.2,-1.2,-1.0935391476164529,1.2,-1.2,low,low,,ISIC_0034194.JPG,,ISIC_0063680.JPG,,40,true,0.14,ll,keypress(f),0,false,318180.59999990463,318180.5,315415.105,315572.2999999523,315431.624,318048.539,1,40,37,
sequence,flow.Sequence,6_36,2023-11-30T19:37:48.724Z,,,,,,,,,,,2748.8759999999893,completion,,,,,,,low,low,,,,,,,true,,,,,false,318180.7000000477,318180.5,315415.105,315572.2999999523,315431.624,318048.539,1,40,,
trial,html.Screen,6_37_0,2023-11-30T19:37:50.804Z,,,,1,1.274417010249866,1.0725495669014795,,,true,ll,2211.8610000953777,response,-1.0650939066726144,1.2,-1.2,-1.315677757912145,1.2,-1.2,low,low,,ISIC_8849004.JPG,,ISIC_0070163.JPG,,40,true,0.14,ll,keypress(f),0,false,320260.5,320260.40000009537,318031.735,318180.7000000477,318048.539,320131.692,1,40,38,
sequence,flow.Sequence,6_37,2023-11-30T19:37:50.804Z,,,,,,,,,,,2211.8610000953777,completion,,,,,,,low,low,,,,,,,true,,,,,false,320260.59999990463,320260.40000009537,318031.735,318180.7000000477,318048.539,320131.692,1,40,,
trial,html.Screen,6_38_0,2023-11-30T19:37:53.460Z,,,,1,-1.2691569063625474,-1.1264228993232308,,,true,hh,2784.6079999523354,response,1.1684835186766898,1.2,-1.2,1.2921331918483707,1.2,-1.2,high,high,,ISIC_4980656.JPG,,ISIC_5920470.JPG,,25,true,0.14,hh,keypress(i),0,false,322916.5,322916.2999999523,320115.21,320260.59999990463,320131.692,322781.619,1,40,39,
sequence,flow.Sequence,6_38,2023-11-30T19:37:53.460Z,,,,,,,,,,,2784.6079999523354,completion,,,,,,,high,high,,,,,,,true,,,,,false,322916.59999990463,322916.2999999523,320115.21,320260.59999990463,320131.692,322781.619,1,40,,
trial,html.Screen,6_39_0,2023-11-30T19:37:56.292Z,,,,1,1.3046390428588206,-0.7942099232219556,,,false,lh,2966.9809999046265,response,-1.168911077628813,1.2,-1.2,1.2181838235193114,1.2,-1.2,low,high,,ISIC_0013096.JPG,,ISIC_7358691.JPG,,27,true,0.40000000000000024,hl,keypress(j),0,false,325748.7000000477,325748.59999990463,322764.864,322916.59999990463,322781.619,325615.116,1,40,40,
sequence,flow.Sequence,6_39,2023-11-30T19:37:56.292Z,,,,,,,,,,,2966.9809999046265,completion,,,,,,,low,high,,,,,,,true,,,,,false,325748.7000000477,325748.59999990463,322764.864,322916.59999990463,322781.619,325615.116,1,40,,
practice_loop,flow.Loop,6,2023-11-30T19:37:56.292Z,,,,,,,,,,,120150.15599990464,completion,,,,,,,,,,,,,,,true,,,,,false,325748.7999999523,325748.59999990463,205580.741,205737.79999995232,205598.444,325615.116,1,40,,
stair_instructions,html.Screen,7,2023-11-30T19:38:07.172Z,,,,,,,,,,,11012.88400000002,response,,,,,,,,,,,,,,,,,continue,keypress(Space),,,336628.40000009537,336628,325598.4,325748.7999999523,325615.116,336498.457,,,,
trial,html.Screen,8_0_0,2023-11-30T19:38:10.803Z,,,,2,-0.0198696495649504,0.0387952353063878,,0.04,false,lh,3761.4430000953726,response,-0.7629099401226335,1.2,-1.2,0.8515956627075536,1.2,-1.2,low,high,,ISIC_6735970.JPG,,ISIC_0028718.JPG,28,40,false,0.4500000000000003,hh,keypress(i),0,true,340260,340259.90000009537,336481.33,336628.5,336498.457,340132.023,1,40,1,
sequence,flow.Sequence,8_0,2023-11-30T19:38:10.803Z,,,,,,,,,,,3761.4430000953726,completion,,,,,,,low,high,,,,,,,false,,,,,true,340260.09999990463,340259.90000009537,336481.33,336628.5,336498.457,340132.023,1,40,,
trial,html.Screen,8_1_0,2023-11-30T19:38:20.996Z,,,,2,-0.0241900387072296,0.0339955304424736,,0.04,false,ll,10320.377000095381,response,-1.0865209011322887,1.15,-1.2,-1.1401461171952545,1.15,-1.15,low,low,,ISIC_0010789.JPG,,ISIC_0016145.JPG,28,27,false,0.13,hl,keypress(j),0,true,350452.40000009537,350452.40000009537,340114.968,340260.2000000477,340132.023,350314.909,1,40,2,
sequence,flow.Sequence,8_1,2023-11-30T19:38:20.996Z,,,,,,,,,,,10320.377000095381,completion,,,,,,,low,low,,,,,,,false,,,,,true,350452.5,350452.40000009537,340114.968,340260.2000000477,340132.023,350314.909,1,40,,
trial,html.Screen,8_2_0,2023-11-30T19:38:23.732Z,,,,2,0.0258224118104549,-0.0029364553353019,,0.04,true,hh,2873.4910000953823,response,1.0107375180488247,1.15,-1.2,1.2079382542709534,1.15,-1.15,high,high,,ISIC_8325226.JPG,,ISIC_0025602.JPG,28,27,false,0.14,hh,keypress(i),0,true,353188.5,353188.40000009537,350298.076,350452.59999990463,350314.909,353048.226,1,40,3,
sequence,flow.Sequence,8_2,2023-11-30T19:38:23.732Z,,,,,,,,,,,2873.4910000953823,completion,,,,,,,high,high,,,,,,,false,,,,,true,353188.5,353188.40000009537,350298.076,350452.59999990463,350314.909,353048.226,1,40,,
trial,html.Screen,8_3_0,2023-11-30T19:38:28.196Z,,,,2,0.0283578106329894,-0.0088840758711548,,0.04,false,lh,4604.174000095343,response,-0.9244148283103414,1.15,-1.15,0.9712966348713286,1.059337886159889,-1.15,low,high,,ISIC_0060707.JPG,,ISIC_7927525.JPG,28,26,false,0.30000000000000016,hl,keypress(j),0,true,357652.40000009537,357652.40000009537,353031.953,353188.59999990463,353048.226,357515.022,1,40,4,
sequence,flow.Sequence,8_3,2023-11-30T19:38:28.196Z,,,,,,,,,,,4604.174000095343,completion,,,,,,,low,high,,,,,,,false,,,,,true,357652.5,357652.40000009537,353031.953,353188.59999990463,353048.226,357515.022,1,40,,
trial,html.Screen,8_4_0,2023-11-30T19:38:29.876Z,,,,2,-0.001445457736793,-0.0165307427449982,,0.04,true,hh,1817.3780000953702,response,1.0733807306669467,1.15,-1.15,0.9781766331161578,1.109337886159889,-1.15,high,high,,ISIC_0027350.JPG,,ISIC_0032383.JPG,28,32,false,0.14,hh,keypress(i),0,true,359332.59999990463,359332.40000009537,357498.31,357652.59999990463,357515.022,359198.429,1,40,5,
sequence,flow.Sequence,8_4,2023-11-30T19:38:29.876Z,,,,,,,,,,,1817.3780000953702,completion,,,,,,,high,high,,,,,,,false,,,,,true,359332.7000000477,359332.40000009537,357498.31,357652.5,357515.022,359198.429,1,40,,
trial,html.Screen,8_5_0,2023-11-30T19:38:31.732Z,,,,2,0.0367706518941078,-0.0161069838272154,,0.04,false,lh,1990.27100004768,response,-1.2081146885025262,0.9757786818915521,-1.15,1.195668832085049,1.109337886159889,-1.15,low,high,,ISIC_0033419.JPG,,ISIC_7369690.JPG,28,26,false,0.3200000000000002,hh,keypress(i),0,true,361188.7999999523,361188.7000000477,359181.814,359332.7000000477,359198.429,361048.213,1,40,6,
sequence,flow.Sequence,8_5,2023-11-30T19:38:31.732Z,,,,,,,,,,,1990.27100004768,completion,,,,,,,low,high,,,,,,,false,,,,,true,361188.90000009537,361188.7000000477,359181.814,359332.7000000477,359198.429,361048.213,1,40,,
trial,html.Screen,8_6_0,2023-11-30T19:38:33.412Z,,,,2,0.0286056110007553,0.036125199756515,,0.04,false,hl,1820.0869999523275,response,0.6761556401281956,0.9757786818915521,-1.15,-0.9655386457143784,1.0369227326006034,-1.15,high,low,,ISIC_6535558.JPG,,ISIC_8268025.JPG,28,26,false,0.3200000000000002,hh,keypress(i),0,true,362868.40000009537,362868.2999999523,361031.975,361188.90000009537,361048.213,362731.539,1,40,7,
sequence,flow.Sequence,8_6,2023-11-30T19:38:33.412Z,,,,,,,,,,,1820.0869999523275,completion,,,,,,,high,low,,,,,,,false,,,,,true,362868.5,362868.2999999523,361031.975,361188.90000009537,361048.213,362731.539,1,40,,
trial,html.Screen,8_7_0,2023-11-30T19:38:35.140Z,,,,2,-0.0388181790775959,0.0049623405709465,,0.04,false,hl,1864.7609999523265,response,1.0453124399868816,0.9757786818915521,-1.15,-0.8986747280184286,1.0369227326006034,-1.15,high,low,,ISIC_0061880.JPG,,ISIC_0013967.JPG,28,26,false,0.3200000000000002,hh,keypress(i),0,true,364596.5,364596.2999999523,362715.313,362868.5,362731.539,364465.005,1,40,8,
sequence,flow.Sequence,8_7,2023-11-30T19:38:35.140Z,,,,,,,,,,,1864.7609999523265,completion,,,,,,,high,low,,,,,,,false,,,,,true,364596.59999990463,364596.2999999523,362715.313,362868.5,362731.539,364465.005,1,40,,
trial,html.Screen,8_8_0,2023-11-30T19:38:37.108Z,,,,2,0.0308384937406319,-0.0038396364323947,,0.04,false,ll,2099.395000095363,response,-1.082709423673037,0.8107340400575386,-1.15,-1.1184338818466155,1.0369227326006034,-1.15,low,low,,ISIC_0029825.JPG,,ISIC_0058666.JPG,28,27,false,0.1,hh,keypress(i),0,true,366564.5,366564.40000009537,364448.379,364596.59999990463,364465.005,366431.711,1,40,9,
sequence,flow.Sequence,8_8,2023-11-30T19:38:37.108Z,,,,,,,,,,,2099.395000095363,completion,,,,,,,low,low,,,,,,,false,,,,,true,366564.5,366564.40000009537,364448.379,364596.59999990463,364465.005,366431.711,1,40,,
trial,html.Screen,8_9_0,2023-11-30T19:38:39.716Z,,,,2,0.0119001144851157,-0.0063430114540141,,0.04,false,lh,2740.588999952306,response,-0.9633172970727744,0.8107340400575386,-1.15,0.8472659344792351,1.0369227326006034,-1.15,low,high,,ISIC_0003822.JPG,,ISIC_0067172.JPG,28,25,false,0.29000000000000015,ll,keypress(f),0,true,369172.40000009537,369172.2999999523,366415.293,366564.5,366431.711,369031.559,1,40,10,
sequence,flow.Sequence,8_9,2023-11-30T19:38:39.716Z,,,,,,,,,,,2740.588999952306,completion,,,,,,,low,high,,,,,,,false,,,,,true,369172.5,369172.2999999523,366415.293,366564.5,366431.711,369031.559,1,40,,
trial,html.Screen,8_10_0,2023-11-30T19:38:41.300Z,,,,2,0.0076984477620101,0.0069458408496562,,0.04,true,hh,1724.6410000476753,response,0.8073835700282378,0.8107340400575386,-1.15,1.0079605779898853,1.0869227326006035,-1.15,high,high,,ISIC_0000434.JPG,,ISIC_5335139.JPG,28,31,false,0.1,hh,keypress(i),0,true,370756.2999999523,370756.2000000477,369014.842,369172.5,369031.559,370614.878,1,40,11,
sequence,flow.Sequence,8_10,2023-11-30T19:38:41.300Z,,,,,,,,,,,1724.6410000476753,completion,,,,,,,high,high,,,,,,,false,,,,,true,370756.40000009537,370756.2000000477,369014.842,369172.5,369031.559,370614.878,1,40,,
trial,html.Screen,8_11_0,2023-11-30T19:38:42.356Z,,,,2,0.0009714874637896,-0.0174815595031679,,0.04,false,ll,1197.7219999046065,response,-1.0849202097813322,0.8107340400575386,-1.15,-1.0851127310415287,1.0869227326006035,-1.15,low,low,,ISIC_9848743.JPG,,ISIC_0010289.JPG,28,27,false,0.1,hl,keypress(j),0,true,371812.59999990463,371812.59999990463,370598.458,370756.40000009537,370614.878,371682.005,1,40,12,
sequence,flow.Sequence,8_11,2023-11-30T19:38:42.356Z,,,,,,,,,,,1197.7219999046065,completion,,,,,,,low,low,,,,,,,false,,,,,true,371812.7999999523,371812.59999990463,370598.458,370756.40000009537,370614.878,371682.005,1,40,,
trial,html.Screen,8_12_0,2023-11-30T19:38:45.188Z,,,,2,-0.0241900387072296,0.0339955304424736,,0.04,false,lh,2962.2949999523116,response,-0.8987343013179191,0.8107340400575386,-1.15,0.8149073454566363,1.0869227326006035,-1.15,low,high,,ISIC_0010789.JPG,,ISIC_0472513.JPG,28,29,false,0.3200000000000002,hh,keypress(i),0,true,374644.40000009537,374644.2999999523,371665.154,371812.7999999523,371682.005,374515.068,1,40,13,
sequence,flow.Sequence,8_12,2023-11-30T19:38:45.188Z,,,,,,,,,,,2962.2949999523116,completion,,,,,,,low,high,,,,,,,false,,,,,true,374644.5,374644.2999999523,371665.154,371812.7999999523,371682.005,374515.068,1,40,,
trial,html.Screen,8_13_0,2023-11-30T19:38:47.028Z,,,,2,0.0367706518941078,-0.0161069838272154,,0.04,true,hh,1969.332000095339,response,0.7918012854539199,0.8107340400575386,-1.15,1.0631481857644678,1.0369227326006034,-1.15,high,high,,ISIC_0033419.JPG,,ISIC_0033137.JPG,28,39,false,0.1,hh,keypress(i),0,true,376484.5,376484.40000009537,374498.148,374644.59999990463,374515.068,376348.402,1,40,14,
sequence,flow.Sequence,8_13,2023-11-30T19:38:47.028Z,,,,,,,,,,,1969.332000095339,completion,,,,,,,high,high,,,,,,,false,,,,,true,376484.7000000477,376484.40000009537,374498.148,374644.59999990463,374515.068,376348.402,1,40,,
trial,html.Screen,8_14_0,2023-11-30T19:38:52.355Z,,,,2,-0.0109416414475118,-0.005246498750811,,0.04,false,hl,5463.097999999998,response,0.7246771568562105,0.8774747356091939,-1.15,-0.9161385080362604,1.0369227326006034,-1.15,high,low,,ISIC_0064279.JPG,,ISIC_0028225.JPG,28,26,false,0.28000000000000014,lh,keypress(e),0,true,381811.7000000477,381811.5,376331.788,376484.7000000477,376348.402,381681.996,1,40,15,
sequence,flow.Sequence,8_14,2023-11-30T19:38:52.355Z,,,,,,,,,,,5463.097999999998,completion,,,,,,,high,low,,,,,,,false,,,,,true,381811.7999999523,381811.5,376331.788,376484.7000000477,376348.402,381681.996,1,40,,
trial,html.Screen,8_15_0,2023-11-30T19:38:55.204Z,,,,2,-0.0199950873045219,-0.0172506388509166,,0.04,false,ll,2977.904000095383,response,-1.0849202097813322,0.9274747356091939,-1.15,-1.0851127310415287,1.0369227326006034,-1.15,low,low,,ISIC_0029906.JPG,,ISIC_0010289.JPG,28,27,false,0.1,hl,keypress(j),0,true,384660,384659.90000009537,381664.973,381811.7999999523,381681.996,384548.642,1,40,16,
sequence,flow.Sequence,8_15,2023-11-30T19:38:55.204Z,,,,,,,,,,,2977.904000095383,completion,,,,,,,low,low,,,,,,,false,,,,,true,384660.09999990463,384659.90000009537,381664.973,381811.7999999523,381681.996,384548.642,1,40,,
trial,html.Screen,8_16_0,2023-11-30T19:38:58.404Z,,,,2,-0.0065172941585523,0.0118857043117315,,0.04,true,hh,3311.6579999523237,response,1.00975234958099,0.9274747356091939,-1.15,0.958677033057289,1.0369227326006034,-1.15,high,high,,ISIC_6119202.JPG,,ISIC_0976232.JPG,28,30,false,0.1,hh,keypress(i),0,true,387860.2999999523,387860.2999999523,384531.554,384660.09999990463,384548.642,387731.717,1,40,17,
sequence,flow.Sequence,8_16,2023-11-30T19:38:58.404Z,,,,,,,,,,,3311.6579999523237,completion,,,,,,,high,high,,,,,,,false,,,,,true,387860.5,387860.2999999523,384531.554,384660.09999990463,384548.642,387731.717,1,40,,
trial,html.Screen,8_17_0,2023-11-30T19:39:00.260Z,,,,2,-0.0388181790775959,0.0049623405709465,,0.04,false,hl,1984.4830000476795,response,0.7088606387153258,0.9274747356091939,-1.15,-0.948610930521224,0.9342146913191394,-1.15,high,low,,ISIC_0061880.JPG,,ISIC_0026293.JPG,28,25,false,0.30000000000000016,hh,keypress(i),0,true,389716.2000000477,389716.2000000477,387714.996,387860.5,387731.717,389581.823,1,40,18,
sequence,flow.Sequence,8_17,2023-11-30T19:39:00.260Z,,,,,,,,,,,1984.4830000476795,completion,,,,,,,high,low,,,,,,,false,,,,,true,389716.40000009537,389716.2000000477,387714.996,387860.5,387731.717,389581.823,1,40,,
trial,html.Screen,8_18_0,2023-11-30T19:39:03.748Z,,,,2,-0.0198696495649504,0.0387952353063878,,0.04,false,ll,3622.377000047709,response,-1.0769708994456726,0.8093064941481578,-1.15,-1.2196503533725178,0.9342146913191394,-1.15,low,low,,ISIC_6735970.JPG,,ISIC_0063824.JPG,28,27,false,0.1,hl,keypress(j),0,true,393204.2999999523,393204.2000000477,389565.103,389716.40000009537,389581.823,393064.844,1,40,19,
sequence,flow.Sequence,8_18,2023-11-30T19:39:03.748Z,,,,,,,,,,,3622.377000047709,completion,,,,,,,low,low,,,,,,,false,,,,,true,393204.40000009537,393204.2000000477,389565.103,389716.40000009537,389581.823,393064.844,1,40,,
trial,html.Screen,8_19_0,2023-11-30T19:39:06.132Z,,,,2,-0.0241900387072296,0.0339955304424736,,0.04,false,lh,2523.6560000000172,response,-0.9111352818043872,0.8093064941481578,-1.15,0.7517932332411794,0.9342146913191394,-1.15,low,high,,ISIC_0010789.JPG,,ISIC_3346045.JPG,28,26,false,0.27000000000000013,hh,keypress(i),0,true,395588.59999990463,395588.5,393048.177,393204.5,393064.844,395448.174,1,40,20,
sequence,flow.Sequence,8_19,2023-11-30T19:39:06.132Z,,,,,,,,,,,2523.6560000000172,completion,,,,,,,low,high,,,,,,,false,,,,,true,395588.7000000477,395588.5,393048.177,393204.5,393064.844,395448.174,1,40,,
trial,html.Screen,8_20_0,2023-11-30T19:39:12.132Z,,,,2,0.0118382036798625,0.0300588245877227,,0.04,false,lh,6140.125999952317,response,-0.9198276163642348,0.8093064941481578,-1.15,0.7754915110667046,0.9342146913191394,-1.15,low,high,,ISIC_4748605.JPG,,ISIC_7840728.JPG,28,26,false,0.27000000000000013,ll,keypress(f),0,true,401588.40000009537,401588.2999999523,395431.957,395588.7000000477,395448.174,401448.174,1,40,21,
sequence,flow.Sequence,8_20,2023-11-30T19:39:12.132Z,,,,,,,,,,,6140.125999952317,completion,,,,,,,low,high,,,,,,,false,,,,,true,401588.59999990463,401588.2999999523,395431.957,395588.7000000477,395448.174,401448.174,1,40,,
trial,html.Screen,8_21_0,2023-11-30T19:39:14.132Z,,,,2,0.0076984477620101,0.0069458408496562,,0.04,false,lh,2140.125999952317,response,-1.168911077628813,0.8093064941481578,-1.15,1.2181838235193114,0.9842146913191394,-1.15,low,high,,ISIC_0000434.JPG,,ISIC_7358691.JPG,28,25,false,0.28000000000000014,hh,keypress(i),0,true,403588.40000009537,403588.2999999523,401431.568,401588.59999990463,401448.174,403448.181,1,40,22,
sequence,flow.Sequence,8_21,2023-11-30T19:39:14.132Z,,,,,,,,,,,2140.125999952317,completion,,,,,,,low,high,,,,,,,false,,,,,true,403588.5,403588.2999999523,401431.568,401588.59999990463,401448.174,403448.181,1,40,,
trial,html.Screen,8_22_0,2023-11-30T19:39:16.212Z,,,,2,0.0308384937406319,-0.0038396364323947,,0.04,false,hl,2219.719000095385,response,0.6054216347801914,0.8093064941481578,-1.15,-1.235209389257644,0.9842146913191394,-1.15,high,low,,ISIC_0029825.JPG,,ISIC_0014722.JPG,28,26,false,0.2500000000000001,lh,keypress(e),0,true,405668,405667.90000009537,403431.663,403588.5,403448.181,405531.606,1,40,23,
sequence,flow.Sequence,8_22,2023-11-30T19:39:16.212Z,,,,,,,,,,,2219.719000095385,completion,,,,,,,high,low,,,,,,,false,,,,,true,405668.2000000477,405667.90000009537,403431.663,403588.5,403448.181,405531.606,1,40,,
trial,html.Screen,8_23_0,2023-11-30T19:39:18.628Z,,,,2,0.0367706518941078,-0.0161069838272154,,0.04,true,ll,2552.6939999522874,response,-1.1048559518249943,0.8593064941481579,-1.15,-1.2252457981338687,0.9842146913191394,-1.15,low,low,,ISIC_0033419.JPG,,ISIC_0060817.JPG,28,27,false,0.1,ll,keypress(f),0,true,408084.40000009537,408084.2999999523,405515.244,405668.2000000477,405531.606,407948.405,1,40,24,
sequence,flow.Sequence,8_23,2023-11-30T19:39:18.628Z,,,,,,,,,,,2552.6939999522874,completion,,,,,,,low,low,,,,,,,false,,,,,true,408084.5,408084.2999999523,405515.244,405668.2000000477,405531.606,407948.405,1,40,,
trial,html.Screen,8_24_0,2023-11-30T19:39:20.644Z,,,,2,-0.0065172941585523,0.0118857043117315,,0.04,true,hl,2151.4950000953395,response,0.6384738134667467,0.8593064941481579,-1.15,-1.3665474896398355,0.9842146913191394,-1.15,high,low,,ISIC_6119202.JPG,,ISIC_0057487.JPG,28,25,false,0.2600000000000001,hl,keypress(j),0,true,410100,410099.90000009537,407931.632,408084.59999990463,407948.405,409964.949,1,40,25,
sequence,flow.Sequence,8_24,2023-11-30T19:39:20.644Z,,,,,,,,,,,2151.4950000953395,completion,,,,,,,high,low,,,,,,,false,,,,,true,410100.09999990463,410099.90000009537,407931.632,408084.59999990463,407948.405,409964.949,1,40,,
trial,html.Screen,8_25_0,2023-11-30T19:39:22.468Z,,,,2,0.0119001144851157,-0.0063430114540141,,0.04,true,hl,1959.2510000476614,response,0.7010101889216934,0.8593064941481579,-1.15,-0.9022783418178474,0.9842146913191394,-1.0999999999999999,high,low,,ISIC_0003822.JPG,,ISIC_0057858.JPG,28,27,false,0.2600000000000001,hl,keypress(j),0,true,411924.40000009537,411924.2000000477,409948.403,410100.2000000477,409964.949,411781.491,1,40,26,
sequence,flow.Sequence,8_25,2023-11-30T19:39:22.468Z,,,,,,,,,,,1959.2510000476614,completion,,,,,,,high,low,,,,,,,false,,,,,true,411924.40000009537,411924.2000000477,409948.403,410100.2000000477,409964.949,411781.491,1,40,,
trial,html.Screen,8_26_0,2023-11-30T19:39:28.196Z,,,,2,0.0076984477620101,0.0069458408496562,,0.04,false,hl,5871.00900000002,response,0.6526724457046548,0.8093064941481578,-1.15,-1.080229511722363,0.9842146913191394,-1.0999999999999999,high,low,,ISIC_0000434.JPG,,ISIC_4876193.JPG,28,27,false,0.2400000000000001,hh,keypress(i),0,true,417652.5,417652.5,411765.073,411924.5,411781.491,417514.943,1,40,27,
sequence,flow.Sequence,8_26,2023-11-30T19:39:28.197Z,,,,,,,,,,,5871.00900000002,completion,,,,,,,high,low,,,,,,,false,,,,,true,417652.7000000477,417652.5,411765.073,411924.5,411781.491,417514.943,1,40,,
trial,html.Screen,8_27_0,2023-11-30T19:39:30.468Z,,,,2,0.0044063257337227,0.0172548282859886,,0.04,false,ll,2409.356999952288,response,-1.0642195369108791,0.8093064941481578,-1.15,-1.0897657776277234,0.9842146913191394,-1.15,low,low,,ISIC_7413786.JPG,,ISIC_0071988.JPG,28,27,false,0.1,lh,keypress(e),0,true,419924.40000009537,419924.2999999523,417498.173,417652.7000000477,417514.943,419781.481,1,40,28,
sequence,flow.Sequence,8_27,2023-11-30T19:39:30.468Z,,,,,,,,,,,2409.356999952288,completion,,,,,,,low,low,,,,,,,false,,,,,true,419924.59999990463,419924.2999999523,417498.173,417652.7000000477,417514.943,419781.481,1,40,,
trial,html.Screen,8_28_0,2023-11-30T19:39:34.996Z,,,,2,0.0044063257337227,0.0172548282859886,,0.04,false,ll,4670.618999904604,response,-1.011046725964536,0.8093064941481578,-1.0999999999999999,-1.2027346117133495,0.9842146913191394,-1.15,low,low,,ISIC_7413786.JPG,,ISIC_0000292.JPG,28,27,false,0.1,lh,keypress(e),0,true,424452.2000000477,424452.09999990463,419765.224,419924.59999990463,419781.481,424315,1,40,29,
sequence,flow.Sequence,8_28,2023-11-30T19:39:34.996Z,,,,,,,,,,,4670.618999904604,completion,,,,,,,low,low,,,,,,,false,,,,,true,424452.40000009537,424452.09999990463,419765.224,419924.59999990463,419781.481,424315,1,40,,
trial,html.Screen,8_29_0,2023-11-30T19:39:37.972Z,,,,2,0.0119001144851157,-0.0063430114540141,,0.04,true,ll,3113.2999999523163,response,-1.0454436589399478,0.8093064941481578,-1.0999999999999999,-1.110086733022912,0.9842146913191394,-1.15,low,low,,ISIC_0003822.JPG,,ISIC_0053916.JPG,28,27,false,0.1,ll,keypress(f),0,true,427428.40000009537,427428.2999999523,424298.024,424452.40000009537,424315,427298.423,1,40,30,
sequence,flow.Sequence,8_29,2023-11-30T19:39:37.972Z,,,,,,,,,,,3113.2999999523163,completion,,,,,,,low,low,,,,,,,false,,,,,true,427428.5,427428.2999999523,424298.024,424452.40000009537,424315,427298.423,1,40,,
trial,html.Screen,8_30_0,2023-11-30T19:39:40.852Z,,,,2,0,-0.0102871556606504,,0.04,true,ll,3009.8769999523065,response,-0.9766645409582418,0.8093064941481578,-1.02776519598143,-1.086167902767275,0.9842146913191394,-1.15,low,low,,ISIC_1805163.JPG,,ISIC_0011526.JPG,28,39,false,0.1,ll,keypress(f),0,true,430308.40000009537,430308.2999999523,427281.671,427428.59999990463,427298.423,430164.803,1,40,31,
sequence,flow.Sequence,8_30,2023-11-30T19:39:40.852Z,,,,,,,,,,,3009.8769999523065,completion,,,,,,,low,low,,,,,,,false,,,,,true,430308.5,430308.2999999523,427281.671,427428.5,427298.423,430164.803,1,40,,
trial,html.Screen,8_31_0,2023-11-30T19:39:42.708Z,,,,2,0.0076984477620101,0.0069458408496562,,0.04,true,hh,1998.8970000476693,response,0.8666323445825409,0.8093064941481578,-1.02776519598143,0.9101747326852082,0.9842146913191394,-0.9814162218627585,high,high,,ISIC_0000434.JPG,,ISIC_9155028.JPG,28,48,false,0.1,hh,keypress(i),0,true,432163.90000009537,432163.7000000477,430148.243,430308.59999990463,430164.803,432031.453,1,40,32,
sequence,flow.Sequence,8_31,2023-11-30T19:39:42.708Z,,,,,,,,,,,1998.8970000476693,completion,,,,,,,high,high,,,,,,,false,,,,,true,432164,432163.7000000477,430148.243,430308.5,430164.803,432031.453,1,40,,
trial,html.Screen,8_32_0,2023-11-30T19:39:45.988Z,,,,2,-0.0088741920055285,-0.0058246074740588,,0.04,false,hl,3412.846999952337,response,0.8472024037189965,0.7593064941481578,-1.02776519598143,-0.986370061404882,0.9342146913191394,-0.9814162218627585,high,low,,ISIC_4136663.JPG,,ISIC_0054355.JPG,28,25,false,0.17000000000000004,lh,keypress(e),0,true,435444.40000009537,435444.2999999523,432015.05,432164.09999990463,432031.453,435314.979,1,40,33,
sequence,flow.Sequence,8_32,2023-11-30T19:39:45.988Z,,,,,,,,,,,3412.846999952337,completion,,,,,,,high,low,,,,,,,false,,,,,true,435444.5,435444.2999999523,432015.05,432164,432031.453,435314.979,1,40,,
trial,html.Screen,8_33_0,2023-11-30T19:39:50.068Z,,,,2,0.0009714874637896,-0.0174815595031679,,0.04,true,hh,4209.1209999046405,response,0.875032819970805,0.8093064941481578,-1.02776519598143,0.9230722071334148,0.9342146913191394,-1.0314162218627585,high,high,,ISIC_9848743.JPG,,ISIC_4568084.JPG,28,52,false,0.1,hh,keypress(i),0,true,439524.2999999523,439524.09999990463,435298.13,435444.5,435314.979,439381.471,1,40,34,
sequence,flow.Sequence,8_33,2023-11-30T19:39:50.068Z,,,,,,,,,,,4209.1209999046405,completion,,,,,,,high,high,,,,,,,false,,,,,true,439524.40000009537,439524.09999990463,435298.13,435444.5,435314.979,439381.471,1,40,,
trial,html.Screen,8_34_0,2023-11-30T19:39:54.660Z,,,,2,0.0009714874637896,-0.0174815595031679,,0.04,true,lh,4735.02899999998,response,-0.8867328775712738,0.8093064941481578,-1.02776519598143,1.0063426986460375,0.9342146913191394,-1.0314162218627585,low,high,,ISIC_9848743.JPG,,ISIC_0055759.JPG,28,25,false,0.22000000000000008,lh,keypress(e),0,true,444116.59999990463,444116.5,439364.951,439524.40000009537,439381.471,443981.902,1,40,35,
sequence,flow.Sequence,8_34,2023-11-30T19:39:54.661Z,,,,,,,,,,,4735.02899999998,completion,,,,,,,low,high,,,,,,,false,,,,,true,444116.59999990463,444116.5,439364.951,439524.40000009537,439381.471,443981.902,1,40,,
trial,html.Screen,8_35_0,2023-11-30T19:39:56.900Z,,,,2,0.0119001144851157,-0.0063430114540141,,0.04,true,hh,2374.298000047682,response,0.7653567704423454,0.8093064941481578,-0.97776519598143,1.0008177728634988,0.9147074528897261,-1.0314162218627585,high,high,,ISIC_0003822.JPG,,ISIC_0013898.JPG,28,56,false,0.1,hh,keypress(i),0,true,446356.5,446356.2000000477,443964.92,444116.7000000477,443981.902,446214.815,1,40,36,
sequence,flow.Sequence,8_35,2023-11-30T19:39:56.900Z,,,,,,,,,,,2374.298000047682,completion,,,,,,,high,high,,,,,,,false,,,,,true,446356.5,446356.2000000477,443964.92,444116.7000000477,443981.902,446214.815,1,40,,
trial,html.Screen,8_36_0,2023-11-30T19:39:58.900Z,,,,2,0.0076984477620101,0.0069458408496562,,0.04,true,hh,2141.484999952314,response,0.8153135636447707,0.8330872716529221,-0.97776519598143,0.9269022323245946,0.9147074528897261,-1.0314162218627585,high,high,,ISIC_0000434.JPG,,ISIC_5239607.JPG,28,51,false,0.1,hh,keypress(i),0,true,448356.40000009537,448356.2999999523,446198.234,446356.59999990463,446214.815,448214.764,1,40,37,
sequence,flow.Sequence,8_36,2023-11-30T19:39:58.900Z,,,,,,,,,,,2141.484999952314,completion,,,,,,,high,high,,,,,,,false,,,,,true,448356.40000009537,448356.2999999523,446198.234,446356.59999990463,446214.815,448214.764,1,40,,
trial,html.Screen,8_37_0,2023-11-30T19:40:00.596Z,,,,2,-0.0164027439304477,0.0082910758715273,,0.04,true,hh,1837.2359999999753,response,0.8063086831157171,0.8330872716529221,-0.97776519598143,0.7804750549895122,0.8211078979846826,-1.0314162218627585,high,high,,ISIC_7381224.JPG,,ISIC_0002899.JPG,28,51,false,0.1,hh,keypress(i),0,true,450052.09999990463,450052,448198.353,448356.40000009537,448214.764,449914.872,1,40,38,
sequence,flow.Sequence,8_37,2023-11-30T19:40:00.596Z,,,,,,,,,,,1837.2359999999753,completion,,,,,,,high,high,,,,,,,false,,,,,true,450052.2000000477,450052,448198.353,448356.40000009537,448214.764,449914.872,1,40,,
trial,html.Screen,8_38_0,2023-11-30T19:40:02.836Z,,,,2,0,-0.0102871556606504,,0.04,false,hl,2377.2279999046586,response,0.6053594235836648,0.7433918690526147,-0.97776519598143,-0.9666375392777208,0.8211078979846826,-1.0314162218627585,high,low,,ISIC_1805163.JPG,,ISIC_0068314.JPG,28,29,false,0.20000000000000007,ll,keypress(f),0,true,452292.2000000477,452292.09999990463,449898.317,450052.2999999523,449914.872,452165.653,1,40,39,
sequence,flow.Sequence,8_38,2023-11-30T19:40:02.836Z,,,,,,,,,,,2377.2279999046586,completion,,,,,,,high,low,,,,,,,false,,,,,true,452292.2999999523,452292.09999990463,449898.317,450052.2000000477,449914.872,452165.653,1,40,,
trial,html.Screen,8_39_0,2023-11-30T19:40:05.700Z,,,,2,0.0076984477620101,0.0069458408496562,,0.04,false,lh,2990.7470000953763,response,-0.8165346395107898,0.7933918690526147,-0.97776519598143,0.7657798385266591,0.8211078979846826,-1.0314162218627585,low,high,,ISIC_0000434.JPG,,ISIC_2283628.JPG,28,30,false,0.18000000000000005,hl,keypress(j),0,true,455156.5,455156.40000009537,452131.628,452292.2999999523,452165.653,455014.756,1,40,40,
sequence,flow.Sequence,8_39,2023-11-30T19:40:05.701Z,,,,,,,,,,,2990.7470000953763,completion,,,,,,,low,high,,,,,,,false,,,,,true,455156.59999990463,455156.40000009537,452131.628,452292.2999999523,452165.653,455014.756,1,40,,
stair_loop,flow.Loop,8,2023-11-30T19:40:05.701Z,,,,,,,,,,,118657.94300009537,completion,,,,,,,,,,,,,,,false,,,,,true,455156.59999990463,455156.40000009537,336481.33,336628.5,336498.457,455014.756,1,40,,
exp_instructions,html.Screen,9,2023-11-30T19:40:14.036Z,,,,,,,,,,,8477.043999952322,response,,,,,,,,,,,,,,,,,continue,keypress(Space),,,463492.2000000477,463491.7999999523,454998.321,455156.7999999523,455014.756,463365.723,,,,
trial,html.Screen,10_0_0,2023-11-30T19:40:17.812Z,,,,1,0,-0.0102871556606504,,0.04,true,ll,3902.576999952318,response,-1.0437879361189135,0.81259310938908,-1.071382597990715,-1.0467954238943018,0.9427979484760295,-1.0866372998382416,low,low,,ISIC_1805163.JPG,8,ISIC_0011626.JPG,28,36,false,0.1,ll,keypress(f),0,false,467268.40000009537,467268.2999999523,463331.596,463492.2999999523,463365.723,467131.429,5,600,1,
break,html.Screen,10_0_1,2023-11-30T19:40:17.813Z,,,,,,,,,,,NaN,,,,,,,,low,low,,,,,,,false,,,,,false,467268.7000000477,467268.59999990463,,467268.5,,467131.429,5,600,,
break_continue,html.Screen,10_0_2,2023-11-30T19:40:17.813Z,,,,,,,,,,,NaN,,,,,,,,low,low,,,,,,,false,,,,,false,467269,467269,,467268.90000009537,,467131.429,5,600,,
sequence,flow.Sequence,10_0,2023-11-30T19:40:17.813Z,,,,,,,,,,,3903.277000000002,completion,,,,,,,low,low,,,,,,,false,,,,,false,467269.09999990463,467269,463331.596,463492.2999999523,463365.723,467131.429,5,600,,
trial,html.Screen,10_1_0,2023-11-30T19:40:20.868Z,,,,1,0.0044063257337227,0.0172548282859886,,0.04,false,lh,3192.77100004768,response,-1.2646773654288392,0.81259310938908,-1.071382597990715,0.952963803634235,0.9427979484760295,-1.0866372998382416,low,high,,ISIC_7413786.JPG,8,ISIC_1996356.JPG,28,25,false,0.2300000000000001,hh,keypress(i),0,false,470324.2999999523,470324.2000000477,467114.917,467269.09999990463,467131.429,470181.426,5,600,2,
break,html.Screen,10_1_1,2023-11-30T19:40:20.868Z,,,,,,,,,,,NaN,,,,,,,,low,high,,,,,,,false,,,,,false,470324.59999990463,470324.59999990463,,470324.40000009537,,470181.426,5,600,,
break_continue,html.Screen,10_1_2,2023-11-30T19:40:20.869Z,,,,,,,,,,,NaN,,,,,,,,low,high,,,,,,,false,,,,,false,470324.7999999523,470324.7000000477,,470324.59999990463,,470181.426,5,600,,
sequence,flow.Sequence,10_1,2023-11-30T19:40:20.869Z,,,,,,,,,,,3193.27100004768,completion,,,,,,,low,high,,,,,,,false,,,,,false,470324.90000009537,470324.7000000477,467114.917,467269.09999990463,467131.429,470181.426,5,600,,
trial,html.Screen,10_2_0,2023-11-30T19:40:24.756Z,,,,1,0.0308384937406319,-0.0038396364323947,,0.04,false,hh,4030.774000047706,response,0.904926943774141,0.81259310938908,-1.071382597990715,0.8630923941752319,0.9427979484760295,-1.0866372998382416,high,high,,ISIC_0029825.JPG,9,ISIC_4573624.JPG,28,55,false,0.1,lh,keypress(e),0,false,474212.2999999523,474212.2000000477,470164.875,470324.90000009537,470181.426,474081.875,5,600,3,
break,html.Screen,10_2_1,2023-11-30T19:40:24.756Z,,,,,,,,,,,NaN,,,,,,,,high,high,,,,,,,false,,,,,false,474212.5,474212.5,,474212.2999999523,,474081.875,5,600,,
break_continue,html.Screen,10_2_2,2023-11-30T19:40:24.757Z,,,,,,,,,,,NaN,,,,,,,,high,high,,,,,,,false,,,,,false,474212.7999999523,474212.7000000477,,474212.59999990463,,474081.875,5,600,,
sequence,flow.Sequence,10_2,2023-11-30T19:40:24.757Z,,,,,,,,,,,4031.274000047706,completion,,,,,,,high,high,,,,,,,false,,,,,false,474212.90000009537,474212.7000000477,470164.875,470324.90000009537,470181.426,474081.875,5,600,,
trial,html.Screen,10_3_0,2023-11-30T19:40:28.420Z,,,,1,-0.0164027439304477,0.0082910758715273,,0.04,false,hh,3794.4249999523163,response,0.875928844868032,0.81259310938908,-1.071382597990715,1.0147952958458766,0.9427979484760295,-1.0866372998382416,high,high,,ISIC_7381224.JPG,9,ISIC_7492682.JPG,28,55,false,0.1,lh,keypress(e),0,false,477876.40000009537,477876.2999999523,474064.695,474212.90000009537,474081.875,477748.324,5,600,4,
break,html.Screen,10_3_1,2023-11-30T19:40:28.420Z,,,,,,,,,,,NaN,,,,,,,,high,high,,,,,,,false,,,,,false,477876.7000000477,477876.7000000477,,477876.5,,477748.324,5,600,,
break_continue,html.Screen,10_3_2,2023-11-30T19:40:28.421Z,,,,,,,,,,,NaN,,,,,,,,high,high,,,,,,,false,,,,,false,477877,477876.7999999523,,477876.7000000477,,477748.324,5,600,,
sequence,flow.Sequence,10_3,2023-11-30T19:40:28.421Z,,,,,,,,,,,3794.9249999523163,completion,,,,,,,high,high,,,,,,,false,,,,,false,477877,477876.7999999523,474064.695,474212.90000009537,474081.875,477748.324,5,600,,
trial,html.Screen,10_4_0,2023-11-30T19:40:33.124Z,,,,1,0.0119001144851157,-0.0063430114540141,,0.04,true,lh,4831.475999952294,response,-0.9662688541319592,0.81259310938908,-1.071382597990715,0.929746784178986,0.9427979484760295,-1.0866372998382416,low,high,,ISIC_0003822.JPG,8,ISIC_0011077.JPG,28,25,false,0.2300000000000001,lh,keypress(e),0,false,482579.7999999523,482579.7999999523,477714.957,477877.09999990463,477748.324,482448.235,5,600,5,
break,html.Screen,10_4_1,2023-11-30T19:40:33.124Z,,,,,,,,,,,NaN,,,,,,,,low,high,,,,,,,false,,,,,false,482580.09999990463,482580,,482579.90000009537,,482448.235,5,600,,
break_continue,html.Screen,10_4_2,2023-11-30T19:40:33.124Z,,,,,,,,,,,NaN,,,,,,,,low,high,,,,,,,false,,,,,false,482580.2999999523,482580.2000000477,,482580.09999990463,,482448.235,5,600,,
sequence,flow.Sequence,10_4,2023-11-30T19:40:33.124Z,,,,,,,,,,,4831.876000047661,completion,,,,,,,low,high,,,,,,,false,,,,,false,482580.40000009537,482580.2000000477,477714.957,477877,477748.324,482448.235,5,600,,
trial,html.Screen,10_5_0,2023-11-30T19:40:35.060Z,,,,1,-0.0088741920055285,-0.0058246074740588,,0.04,false,hl,2067.9650000476977,response,0.6053594235836648,0.81259310938908,-1.071382597990715,-0.9666375392777208,0.9427979484760295,-1.0866372998382416,high,low,,ISIC_4136663.JPG,9,ISIC_0068314.JPG,28,28,false,0.2400000000000001,hh,keypress(i),0,false,484516.2999999523,484516.2000000477,482431.819,482580.40000009537,482448.235,484381.87,5,600,6,
break,html.Screen,10_5_1,2023-11-30T19:40:35.060Z,,,,,,,,,,,NaN,,,,,,,,high,low,,,,,,,false,,,,,false,484516.59999990463,484516.59999990463,,484516.40000009537,,484381.87,5,600,,
break_continue,html.Screen,10_5_2,2023-11-30T19:40:35.061Z,,,,,,,,,,,NaN,,,,,,,,high,low,,,,,,,false,,,,,false,484516.90000009537,484516.7000000477,,484516.7000000477,,484381.87,5,600,,
sequence,flow.Sequence,10_5,2023-11-30T19:40:35.061Z,,,,,,,,,,,2068.4650000476977,completion,,,,,,,high,low,,,,,,,false,,,,,false,484516.90000009537,484516.7000000477,482431.819,482580.40000009537,482448.235,484381.87,5,600,,
trial,html.Screen,10_6_0,2023-11-30T19:40:38.068Z,,,,1,-0.0374659946425444,-0.0086043094957617,,0.04,false,hh,3142.1300000000047,response,0.7334538256992545,0.81259310938908,-1.071382597990715,0.8837864902869942,0.9427979484760295,-1.0866372998382416,high,high,,ISIC_0033051.JPG,9,ISIC_4332846.JPG,28,55,false,0.1,ll,keypress(f),0,false,487524.09999990463,487524,484364.915,484516.90000009537,484381.87,487381.406,5,600,7,
break,html.Screen,10_6_1,2023-11-30T19:40:38.068Z,,,,,,,,,,,NaN,,,,,,,,high,high,,,,,,,false,,,,,false,487524.40000009537,487524.40000009537,,487524.2999999523,,487381.406,5,600,,
break_continue,html.Screen,10_6_2,2023-11-30T19:40:38.068Z,,,,,,,,,,,NaN,,,,,,,,high,high,,,,,,,false,,,,,false,487524.7000000477,487524.7000000477,,487524.59999990463,,487381.406,5,600,,
sequence,flow.Sequence,10_6,2023-11-30T19:40:38.069Z,,,,,,,,,,,3142.8300000476884,completion,,,,,,,high,high,,,,,,,false,,,,,false,487524.7999999523,487524.7000000477,484364.915,484516.90000009537,484381.87,487381.406,5,600,,
trial,html.Screen,10_7_0,2023-11-30T19:40:41.780Z,,,,1,0.0118382036798625,0.0300588245877227,,0.04,true,hl,3854.99400009535,response,0.8034318937720549,0.81259310938908,-1.071382597990715,-1.0024917298189338,0.9427979484760295,-1.0866372998382416,high,low,,ISIC_4748605.JPG,10,ISIC_0032766.JPG,28,28,false,0.2400000000000001,hl,keypress(j),0,false,491236.40000009537,491236.40000009537,487364.856,487524.7999999523,487381.406,491098.067,5,600,8,
break,html.Screen,10_7_1,2023-11-30T19:40:41.781Z,,,,,,,,,,,NaN,,,,,,,,high,low,,,,,,,false,,,,,false,491236.7999999523,491236.7000000477,,491236.59999990463,,491098.067,5,600,,
break_continue,html.Screen,10_7_2,2023-11-30T19:40:41.781Z,,,,,,,,,,,NaN,,,,,,,,high,low,,,,,,,false,,,,,false,491237,491237,,491236.90000009537,,491098.067,5,600,,
sequence,flow.Sequence,10_7,2023-11-30T19:40:41.781Z,,,,,,,,,,,3855.5939999999828,completion,,,,,,,high,low,,,,,,,false,,,,,false,491237.09999990463,491237,487364.856,487524.7999999523,487381.406,491098.067,5,600,,
trial,html.Screen,10_8_0,2023-11-30T19:40:44.628Z,,,,1,0.0200295718112167,0.0155559071275806,,0.04,true,lh,2986.2329999523354,response,-1.0116417541846066,0.81259310938908,-1.071382597990715,1.033442916947398,0.9427979484760295,-1.0866372998382416,low,high,,ISIC_0061343.JPG,9,ISIC_0031389.JPG,28,25,false,0.2300000000000001,lh,keypress(e),0,false,494084.40000009537,494084.2999999523,491081.482,491237.09999990463,491098.067,493948.507,5,600,9,
break,html.Screen,10_8_1,2023-11-30T19:40:44.628Z,,,,,,,,,,,NaN,,,,,,,,low,high,,,,,,,false,,,,,false,494084.7000000477,494084.59999990463,,494084.40000009537,,493948.507,5,600,,
break_continue,html.Screen,10_8_2,2023-11-30T19:40:44.629Z,,,,,,,,,,,NaN,,,,,,,,low,high,,,,,,,false,,,,,false,494084.90000009537,494084.7999999523,,494084.7999999523,,493948.507,5,600,,
sequence,flow.Sequence,10_8,2023-11-30T19:40:44.629Z,,,,,,,,,,,2986.7329999523354,completion,,,,,,,low,high,,,,,,,false,,,,,false,494084.90000009537,494084.7999999523,491081.482,491237.09999990463,491098.067,493948.507,5,600,,
trial,html.Screen,10_9_0,2023-11-30T19:40:46.564Z,,,,1,-0.0388181790775959,0.0049623405709465,,0.04,true,hh,2071.292999952333,response,0.7945270488878992,0.81259310938908,-1.071382597990715,0.9054354695775536,0.9427979484760295,-1.0866372998382416,high,high,,ISIC_0061880.JPG,9,ISIC_5820693.JPG,28,55,false,0.1,hh,keypress(i),0,false,496020,496019.7999999523,493931.457,494085,493948.507,495881.394,5,600,10,
break,html.Screen,10_9_1,2023-11-30T19:40:46.564Z,,,,,,,,,,,NaN,,,,,,,,high,high,,,,,,,false,,,,,false,496020.2000000477,496020.2000000477,,496020.09999990463,,495881.394,5,600,,
break_continue,html.Screen,10_9_2,2023-11-30T19:40:46.564Z,,,,,,,,,,,NaN,,,,,,,,high,high,,,,,,,false,,,,,false,496020.5,496020.40000009537,,496020.2999999523,,495881.394,5,600,,
sequence,flow.Sequence,10_9,2023-11-30T19:40:46.564Z,,,,,,,,,,,2071.893000095384,completion,,,,,,,high,high,,,,,,,false,,,,,false,496020.5,496020.40000009537,493931.457,494085,493948.507,495881.394,5,600,,
trial,html.Screen,10_10_0,2023-11-30T19:40:48.548Z,,,,1,0.0044063257337227,0.0172548282859886,,0.04,false,lh,2122.7059999046614,response,-0.9617893983965208,0.81259310938908,-1.071382597990715,0.9453006131304652,0.9427979484760295,-1.0866372998382416,low,high,,ISIC_7413786.JPG,8,ISIC_4229473.JPG,28,25,false,0.2300000000000001,ll,keypress(f),0,false,498004.2999999523,498004.09999990463,495864.86,496020.5,495881.394,497864.834,5,600,11,
break,html.Screen,10_10_1,2023-11-30T19:40:48.548Z,,,,,,,,,,,NaN,,,,,,,,low,high,,,,,,,false,,,,,false,498004.5,498004.40000009537,,498004.2999999523,,497864.834,5,600,,
break_continue,html.Screen,10_10_2,2023-11-30T19:40:48.549Z,,,,,,,,,,,NaN,,,,,,,,low,high,,,,,,,false,,,,,false,498004.7000000477,498004.7000000477,,498004.59999990463,,497864.834,5,600,,
sequence,flow.Sequence,10_10,2023-11-30T19:40:48.549Z,,,,,,,,,,,2123.3060000477126,completion,,,,,,,low,high,,,,,,,false,,,,,false,498004.7999999523,498004.7000000477,495864.86,496020.5,495881.394,497864.834,5,600,,
trial,html.Screen,10_11_0,2023-11-30T19:40:50.612Z,,,,1,-0.0388181790775959,0.0049623405709465,,0.04,true,ll,2203.066000095394,response,-1.0918237468930412,0.81259310938908,-1.071382597990715,-1.0199940959248062,0.9427979484760295,-1.0866372998382416,low,low,,ISIC_0061880.JPG,9,ISIC_0064120.JPG,28,36,false,0.1,ll,keypress(f),0,false,500068,500067.90000009537,497848.433,498004.90000009537,497864.834,499931.379,5,600,12,
break,html.Screen,10_11_1,2023-11-30T19:40:50.612Z,,,,,,,,,,,NaN,,,,,,,,low,low,,,,,,,false,,,,,false,500068.2999999523,500068.2000000477,,500068.09999990463,,499931.379,5,600,,
break_continue,html.Screen,10_11_2,2023-11-30T19:40:50.612Z,,,,,,,,,,,NaN,,,,,,,,low,low,,,,,,,false,,,,,false,500068.59999990463,500068.40000009537,,500068.2999999523,,499931.379,5,600,,
sequence,flow.Sequence,10_11,2023-11-30T19:40:50.612Z,,,,,,,,,,,2203.566000095394,completion,,,,,,,low,low,,,,,,,false,,,,,false,500068.59999990463,500068.40000009537,497848.433,498004.90000009537,497864.834,499931.379,5,600,,
trial,html.Screen,10_12_0,2023-11-30T19:40:53.540Z,,,,1,0.0286056110007553,0.036125199756515,,0.04,false,hl,3065.021000095352,response,0.6742481921837281,0.81259310938908,-1.071382597990715,-0.9118635731669033,0.9427979484760295,-1.0866372998382416,high,low,,ISIC_6535558.JPG,9,ISIC_7961365.JPG,28,28,false,0.2400000000000001,hh,keypress(i),0,false,502996.5,502996.40000009537,499914.957,500068.7000000477,499931.379,502864.724,5,600,13,
break,html.Screen,10_12_1,2023-11-30T19:40:53.541Z,,,,,,,,,,,NaN,,,,,,,,high,low,,,,,,,false,,,,,false,502996.7999999523,502996.7000000477,,502996.59999990463,,502864.724,5,600,,
break_continue,html.Screen,10_12_2,2023-11-30T19:40:53.541Z,,,,,,,,,,,NaN,,,,,,,,high,low,,,,,,,false,,,,,false,502997,502997,,502996.90000009537,,502864.724,5,600,,
sequence,flow.Sequence,10_12,2023-11-30T19:40:53.541Z,,,,,,,,,,,3065.6209999999846,completion,,,,,,,high,low,,,,,,,false,,,,,false,502997,502997,499914.957,500068.59999990463,499931.379,502864.724,5,600,,
trial,html.Screen,10_13_0,2023-11-30T19:40:55.796Z,,,,1,-0.0088741920055285,-0.0058246074740588,,0.04,true,ll,2387.4760000476963,response,-1.0333845898785206,0.81259310938908,-1.071382597990715,-0.998838774713298,0.9427979484760295,-1.0866372998382416,low,low,,ISIC_4136663.JPG,9,ISIC_0010486.JPG,28,36,false,0.1,ll,keypress(f),0,false,505252.2999999523,505252.2000000477,502848.165,502997.09999990463,502864.724,505114.817,5,600,14,
break,html.Screen,10_13_1,2023-11-30T19:40:55.796Z,,,,,,,,,,,NaN,,,,,,,,low,low,,,,,,,false,,,,,false,505252.59999990463,505252.5,,505252.40000009537,,505114.817,5,600,,
break_continue,html.Screen,10_13_2,2023-11-30T19:40:55.797Z,,,,,,,,,,,NaN,,,,,,,,low,low,,,,,,,false,,,,,false,505252.90000009537,505252.7999999523,,505252.59999990463,,505114.817,5,600,,
sequence,flow.Sequence,10_13,2023-11-30T19:40:55.797Z,,,,,,,,,,,2388.075999952329,completion,,,,,,,low,low,,,,,,,false,,,,,false,505252.90000009537,505252.7999999523,502848.165,502997.09999990463,502864.724,505114.817,5,600,,
trial,html.Screen,10_14_0,2023-11-30T19:40:57.844Z,,,,1,-0.0388181790775959,0.0049623405709465,,0.04,true,hh,2185.4829999523354,response,0.8991086866898779,0.81259310938908,-1.071382597990715,0.8657681961662855,0.9427979484760295,-1.0866372998382416,high,high,,ISIC_0061880.JPG,9,ISIC_0005304.JPG,28,55,false,0.1,hh,keypress(i),0,false,507300.2999999523,507300.2999999523,505098.224,505252.90000009537,505114.817,507164.944,5,600,15,
break,html.Screen,10_14_1,2023-11-30T19:40:57.844Z,,,,,,,,,,,NaN,,,,,,,,high,high,,,,,,,false,,,,,false,507300.7000000477,507300.5,,507300.2999999523,,507164.944,5,600,,
break_continue,html.Screen,10_14_2,2023-11-30T19:40:57.845Z,,,,,,,,,,,NaN,,,,,,,,high,high,,,,,,,false,,,,,false,507300.7999999523,507300.7999999523,,507300.7000000477,,507164.944,5,600,,
sequence,flow.Sequence,10_14,2023-11-30T19:40:57.845Z,,,,,,,,,,,2185.9829999523354,completion,,,,,,,high,high,,,,,,,false,,,,,false,507300.90000009537,507300.7999999523,505098.224,505252.90000009537,505114.817,507164.944,5,600,,
trial,html.Screen,10_15_0,2023-11-30T19:41:02.803Z,,,,1,0.0286056110007553,0.036125199756515,,0.04,false,hl,5094.45600009535,response,0.596541813401575,0.81259310938908,-1.071382597990715,-1.1480840263727845,0.9427979484760295,-1.0866372998382416,high,low,,ISIC_6535558.JPG,8,ISIC_2146346.JPG,28,28,false,0.2400000000000001,lh,keypress(e),0,false,512259.40000009537,512259.40000009537,507148.222,507300.90000009537,507164.944,512132.571,5,600,16,
break,html.Screen,10_15_1,2023-11-30T19:41:02.804Z,,,,,,,,,,,NaN,,,,,,,,high,low,,,,,,,false,,,,,false,512259.7999999523,512259.7000000477,,512259.5,,512132.571,5,600,,
break_continue,html.Screen,10_15_2,2023-11-30T19:41:02.804Z,,,,,,,,,,,NaN,,,,,,,,high,low,,,,,,,false,,,,,false,512260.09999990463,512259.90000009537,,512259.90000009537,,512132.571,5,600,,
sequence,flow.Sequence,10_15,2023-11-30T19:41:02.804Z,,,,,,,,,,,5094.95600009535,completion,,,,,,,high,low,,,,,,,false,,,,,false,512260.2000000477,512259.90000009537,507148.222,507300.90000009537,507164.944,512132.571,5,600,,
trial,html.Screen,10_16_0,2023-11-30T19:41:04.660Z,,,,1,0.0257631352671967,0.0202837002774028,,0.04,false,lh,1983.6290000476874,response,-0.9244148283103414,0.81259310938908,-1.071382597990715,0.9712966348713286,0.9427979484760295,-1.0866372998382416,low,high,,ISIC_0032797.JPG,9,ISIC_7927525.JPG,28,25,false,0.2300000000000001,hh,keypress(i),0,false,514116.2999999523,514116.2000000477,512098.035,512260.2000000477,512132.571,513981.577,5,600,17,
break,html.Screen,10_16_1,2023-11-30T19:41:04.660Z,,,,,,,,,,,NaN,,,,,,,,low,high,,,,,,,false,,,,,false,514116.7000000477,514116.59999990463,,514116.40000009537,,513981.577,5,600,,
break_continue,html.Screen,10_16_2,2023-11-30T19:41:04.661Z,,,,,,,,,,,NaN,,,,,,,,low,high,,,,,,,false,,,,,false,514116.7999999523,514116.7999999523,,514116.7000000477,,513981.577,5,600,,
sequence,flow.Sequence,10_16,2023-11-30T19:41:04.661Z,,,,,,,,,,,1984.22899995232,completion,,,,,,,low,high,,,,,,,false,,,,,false,514116.7999999523,514116.7999999523,512098.035,512260.2000000477,512132.571,513981.577,5,600,,
trial,html.Screen,10_17_0,2023-11-30T19:41:06.820Z,,,,1,-0.001445457736793,-0.0165307427449982,,0.04,true,ll,2294.6230000476935,response,-1.071312313440387,0.81259310938908,-1.071382597990715,-1.0935391476164529,0.9427979484760295,-1.0866372998382416,low,low,,ISIC_0027350.JPG,9,ISIC_0063680.JPG,28,36,false,0.1,ll,keypress(f),0,false,516276.40000009537,516276.2000000477,513964.65,514116.90000009537,513981.577,516148.308,5,600,18,
break,html.Screen,10_17_1,2023-11-30T19:41:06.820Z,,,,,,,,,,,NaN,,,,,,,,low,low,,,,,,,false,,,,,false,516276.59999990463,516276.59999990463,,516276.5,,516148.308,5,600,,
break_continue,html.Screen,10_17_2,2023-11-30T19:41:06.821Z,,,,,,,,,,,NaN,,,,,,,,low,low,,,,,,,false,,,,,false,516276.90000009537,516276.7999999523,,516276.7000000477,,516148.308,5,600,,
sequence,flow.Sequence,10_17,2023-11-30T19:41:06.821Z,,,,,,,,,,,2295.222999952326,completion,,,,,,,low,low,,,,,,,false,,,,,false,516276.90000009537,516276.7999999523,513964.65,514116.90000009537,513981.577,516148.308,5,600,,
trial,html.Screen,10_18_0,2023-11-30T19:41:08.980Z,,,,1,-0.039520186367207,-0.0377961575607372,,0.04,true,ll,2287.8920000476646,response,-1.0679712388489528,0.81259310938908,-1.071382597990715,-1.0509600192807842,0.9427979484760295,-1.0866372998382416,low,low,,ISIC_6356149.JPG,9,ISIC_0015180.JPG,28,36,false,0.1,ll,keypress(f),0,false,518436.2999999523,518436.2000000477,516114.804,516276.90000009537,516148.308,518298.209,5,600,19,
break,html.Screen,10_18_1,2023-11-30T19:41:08.980Z,,,,,,,,,,,NaN,,,,,,,,low,low,,,,,,,false,,,,,false,518436.59999990463,518436.5,,518436.2999999523,,518298.209,5,600,,
break_continue,html.Screen,10_18_2,2023-11-30T19:41:08.981Z,,,,,,,,,,,NaN,,,,,,,,low,low,,,,,,,false,,,,,false,518436.7999999523,518436.7000000477,,518436.59999990463,,518298.209,5,600,,
sequence,flow.Sequence,10_18,2023-11-30T19:41:08.981Z,,,,,,,,,,,2288.3920000476646,completion,,,,,,,low,low,,,,,,,false,,,,,false,518436.7999999523,518436.7000000477,516114.804,516276.90000009537,516148.308,518298.209,5,600,,
trial,html.Screen,10_19_0,2023-11-30T19:41:15.109Z,,,,1,-0.0374659946425444,-0.0086043094957617,,0.04,false,hh,6266.090999952343,response,0.7146913032816444,0.81259310938908,-1.071382597990715,0.9241960109301964,0.9427979484760295,-1.0866372998382416,high,high,,ISIC_0033051.JPG,9,ISIC_0000297.JPG,28,55,false,0.1,lh,keypress(e),0,false,524564.5,524564.2999999523,518281.605,518436.7999999523,518298.209,524431.542,5,600,20,
break,html.Screen,10_19_1,2023-11-30T19:41:15.109Z,,,,,,,,,,,NaN,,,,,,,,high,high,,,,,,,false,,,,,false,524564.7000000477,524564.7000000477,,524564.5,,524431.542,5,600,,
break_continue,html.Screen,10_19_2,2023-11-30T19:41:15.109Z,,,,,,,,,,,NaN,,,,,,,,high,high,,,,,,,false,,,,,false,524565,524564.9000000954,,524564.9000000954,,524431.542,5,600,,
sequence,flow.Sequence,10_19,2023-11-30T19:41:15.109Z,,,,,,,,,,,6266.691000095394,completion,,,,,,,high,high,,,,,,,false,,,,,false,524565,524564.9000000954,518281.605,518436.7999999523,518298.209,524431.542,5,600,,
trial,html.Screen,10_20_0,2023-11-30T19:41:18.613Z,,,,1,0.0118382036798625,0.0300588245877227,,0.04,false,hh,3636.658000047668,response,0.7553497600333596,0.81259310938908,-1.071382597990715,1.0400427384571451,0.9427979484760295,-1.0866372998382416,high,high,,ISIC_4748605.JPG,8,ISIC_0561634.JPG,28,55,false,0.1,lh,keypress(e),0,false,528068.4000000954,528068.2000000477,524414.868,524565.0999999046,524431.542,527931.371,5,600,21,
break,html.Screen,10_20_1,2023-11-30T19:41:18.613Z,,,,,,,,,,,NaN,,,,,,,,high,high,,,,,,,false,,,,,false,528068.7000000477,528068.5999999046,,528068.5,,527931.371,5,600,,
break_continue,html.Screen,10_20_2,2023-11-30T19:41:18.613Z,,,,,,,,,,,NaN,,,,,,,,high,high,,,,,,,false,,,,,false,528069,528068.7999999523,,528068.7999999523,,527931.371,5,600,,
sequence,flow.Sequence,10_20,2023-11-30T19:41:18.614Z,,,,,,,,,,,3637.2579999523005,completion,,,,,,,high,high,,,,,,,false,,,,,false,528069,528068.7999999523,524414.868,524565.0999999046,524431.542,527931.371,5,600,,
trial,html.Screen,10_21_0,2023-11-30T19:41:20.661Z,,,,1,-0.0065172941585523,0.0118857043117315,,0.04,true,lh,2184.9289999522734,response,-1.0116417541846066,0.81259310938908,-1.071382597990715,1.033442916947398,0.9427979484760295,-1.0866372998382416,low,high,,ISIC_6119202.JPG,9,ISIC_0031389.JPG,28,25,false,0.2300000000000001,lh,keypress(e),0,false,530116.4000000954,530116.2999999523,527914.879,528069,527931.371,529981.432,5,600,22,
break,html.Screen,10_21_1,2023-11-30T19:41:20.661Z,,,,,,,,,,,NaN,,,,,,,,low,high,,,,,,,false,,,,,false,530116.5999999046,530116.5,,530116.4000000954,,529981.432,5,600,,
break_continue,html.Screen,10_21_2,2023-11-30T19:41:20.661Z,,,,,,,,,,,NaN,,,,,,,,low,high,,,,,,,false,,,,,false,530116.7999999523,530116.7000000477,,530116.7000000477,,529981.432,5,600,,
sequence,flow.Sequence,10_21,2023-11-30T19:41:20.661Z,,,,,,,,,,,2185.329000047641,completion,,,,,,,low,high,,,,,,,false,,,,,false,530116.9000000954,530116.7000000477,527914.879,528069,527931.371,529981.432,5,600,,
trial,html.Screen,10_22_0,2023-11-30T19:41:22.517Z,,,,1,0.0118382036798625,0.0300588245877227,,0.04,false,hl,1990.6679999046028,response,0.6116142998577564,0.81259310938908,-1.071382597990715,-0.958564243697126,0.9427979484760295,-1.0866372998382416,high,low,,ISIC_4748605.JPG,9,ISIC_3203344.JPG,28,28,false,0.2400000000000001,hh,keypress(i),0,false,531972.2000000477,531972.0999999046,529964.819,530116.9000000954,529981.432,531831.345,5,600,23,
break,html.Screen,10_22_1,2023-11-30T19:41:22.517Z,,,,,,,,,,,NaN,,,,,,,,high,low,,,,,,,false,,,,,false,531972.5,531972.4000000954,,531972.2999999523,,531831.345,5,600,,
break_continue,html.Screen,10_22_2,2023-11-30T19:41:22.517Z,,,,,,,,,,,NaN,,,,,,,,high,low,,,,,,,false,,,,,false,531972.7000000477,531972.5999999046,,531972.5999999046,,531831.345,5,600,,
sequence,flow.Sequence,10_22,2023-11-30T19:41:22.517Z,,,,,,,,,,,1991.1679999046028,completion,,,,,,,high,low,,,,,,,false,,,,,false,531972.7999999523,531972.5999999046,529964.819,530116.9000000954,529981.432,531831.345,5,600,,
trial,html.Screen,10_23_0,2023-11-30T19:41:24.549Z,,,,1,0.0119001144851157,-0.0063430114540141,,0.04,false,hl,2172.8550000477117,response,0.6761556401281956,0.81259310938908,-1.071382597990715,-0.9655386457143784,0.9427979484760295,-1.0866372998382416,high,low,,ISIC_0003822.JPG,9,ISIC_8268025.JPG,28,28,false,0.2400000000000001,hh,keypress(i),0,false,534004.2999999523,534004.2000000477,531814.816,531972.9000000954,531831.345,533864.686,5,600,24,
break,html.Screen,10_23_1,2023-11-30T19:41:24.549Z,,,,,,,,,,,NaN,,,,,,,,high,low,,,,,,,false,,,,,false,534004.5999999046,534004.5,,534004.5,,533864.686,5,600,,
break_continue,html.Screen,10_23_2,2023-11-30T19:41:24.549Z,,,,,,,,,,,NaN,,,,,,,,high,low,,,,,,,false,,,,,false,534004.7999999523,534004.7999999523,,534004.5999999046,,533864.686,5,600,,
sequence,flow.Sequence,10_23,2023-11-30T19:41:24.549Z,,,,,,,,,,,2173.454999952344,completion,,,,,,,high,low,,,,,,,false,,,,,false,534004.9000000954,534004.7999999523,531814.816,531972.9000000954,531831.345,533864.686,5,600,,
trial,html.Screen,10_24_0,2023-11-30T19:41:26.405Z,,,,1,0,-0.0102871556606504,,0.04,false,hl,1995.314000000013,response,0.9754077946987664,0.81259310938908,-1.071382597990715,-1.1821868813141057,0.9427979484760295,-1.0866372998382416,high,low,,ISIC_1805163.JPG,9,ISIC_0024317.JPG,28,28,false,0.2400000000000001,hh,keypress(i),0,false,535860.0999999046,535860,533848.172,534004.9000000954,533864.686,535748.249,5,600,25,
break,html.Screen,10_24_1,2023-11-30T19:41:26.405Z,,,,,,,,,,,NaN,,,,,,,,high,low,,,,,,,false,,,,,false,535860.5,535860.4000000954,,535860.2000000477,,535748.249,5,600,,
break_continue,html.Screen,10_24_2,2023-11-30T19:41:26.405Z,,,,,,,,,,,NaN,,,,,,,,high,low,,,,,,,false,,,,,false,535860.7000000477,535860.5999999046,,535860.5,,535748.249,5,600,,
sequence,flow.Sequence,10_24,2023-11-30T19:41:26.405Z,,,,,,,,,,,1995.9139999046456,completion,,,,,,,high,low,,,,,,,false,,,,,false,535860.7000000477,535860.5999999046,533848.172,534004.9000000954,533864.686,535748.249,5,600,,
trial,html.Screen,10_25_0,2023-11-30T19:41:28.261Z,,,,1,-0.0065172941585523,0.0118857043117315,,0.04,false,lh,1968.0509999523638,response,-0.9089402323867112,0.81259310938908,-1.071382597990715,0.8034544077281132,0.9427979484760295,-1.0866372998382416,low,high,,ISIC_6119202.JPG,9,ISIC_3585381.JPG,28,25,false,0.2300000000000001,ll,keypress(f),0,false,537716.5,537716.2999999523,535731.791,535860.7000000477,535748.249,537581.397,5,600,26,
break,html.Screen,10_25_1,2023-11-30T19:41:28.261Z,,,,,,,,,,,NaN,,,,,,,,low,high,,,,,,,false,,,,,false,537716.7000000477,537716.5999999046,,537716.5,,537581.397,5,600,,
break_continue,html.Screen,10_25_2,2023-11-30T19:41:28.261Z,,,,,,,,,,,NaN,,,,,,,,low,high,,,,,,,false,,,,,false,537716.9000000954,537716.7999999523,,537716.7000000477,,537581.397,5,600,,
sequence,flow.Sequence,10_25,2023-11-30T19:41:28.261Z,,,,,,,,,,,1968.5509999523638,completion,,,,,,,low,high,,,,,,,false,,,,,false,537717,537716.7999999523,535731.791,535860.7000000477,535748.249,537581.397,5,600,,
trial,html.Screen,10_26_0,2023-11-30T19:41:30.085Z,,,,1,0.0044063257337227,0.0172548282859886,,0.04,false,hl,1958.7029999046354,response,0.7883321712536753,0.81259310938908,-1.071382597990715,-1.0011430756825364,0.9427979484760295,-1.0866372998382416,high,low,,ISIC_7413786.JPG,10,ISIC_9828853.JPG,28,28,false,0.2400000000000001,hh,keypress(i),0,false,539540.2000000477,539540.0999999046,537564.75,537717,537581.397,539398.008,5,600,27,
break,html.Screen,10_26_1,2023-11-30T19:41:30.085Z,,,,,,,,,,,NaN,,,,,,,,high,low,,,,,,,false,,,,,false,539540.4000000954,539540.2999999523,,539540.2000000477,,539398.008,5,600,,
break_continue,html.Screen,10_26_2,2023-11-30T19:41:30.085Z,,,,,,,,,,,NaN,,,,,,,,high,low,,,,,,,false,,,,,false,539540.5999999046,539540.4000000954,,539540.4000000954,,539398.008,5,600,,
sequence,flow.Sequence,10_26,2023-11-30T19:41:30.085Z,,,,,,,,,,,1959.0030000953702,completion,,,,,,,high,low,,,,,,,false,,,,,false,539540.5999999046,539540.4000000954,537564.75,537717,537581.397,539398.008,5,600,,
trial,html.Screen,10_27_0,2023-11-30T19:41:32.117Z,,,,1,-0.039520186367207,-0.0377961575607372,,0.04,false,lh,2174.091999904602,response,-0.9138670886161264,0.81259310938908,-1.071382597990715,0.8414121478342018,0.9427979484760295,-1.0866372998382416,low,high,,ISIC_6356149.JPG,8,ISIC_6709052.JPG,28,25,false,0.2300000000000001,ll,keypress(f),0,false,541572.2000000477,541572.0999999046,539381.435,539540.5999999046,539398.008,541431.336,5,600,28,
break,html.Screen,10_27_1,2023-11-30T19:41:32.117Z,,,,,,,,,,,NaN,,,,,,,,low,high,,,,,,,false,,,,,false,541572.4000000954,541572.4000000954,,541572.2000000477,,541431.336,5,600,,
break_continue,html.Screen,10_27_2,2023-11-30T19:41:32.117Z,,,,,,,,,,,NaN,,,,,,,,low,high,,,,,,,false,,,,,false,541572.7000000477,541572.5,,541572.5,,541431.336,5,600,,
sequence,flow.Sequence,10_27,2023-11-30T19:41:32.117Z,,,,,,,,,,,2174.4919999999693,completion,,,,,,,low,high,,,,,,,false,,,,,false,541572.7000000477,541572.5,539381.435,539540.5999999046,539398.008,541431.336,5,600,,
trial,html.Screen,10_28_0,2023-11-30T19:41:34.644Z,,,,1,0.0220026381002083,-0.0170756452911772,,0.04,false,hl,2668.463999952306,response,0.6053594235836648,0.81259310938908,-1.071382597990715,-0.9666375392777208,0.9427979484760295,-1.0866372998382416,high,low,,ISIC_5347806.JPG,8,ISIC_0068314.JPG,28,28,false,0.2400000000000001,ll,keypress(f),0,false,544099.9000000954,544099.7999999523,541414.916,541572.7000000477,541431.336,543964.916,5,600,29,
break,html.Screen,10_28_1,2023-11-30T19:41:34.645Z,,,,,,,,,,,NaN,,,,,,,,high,low,,,,,,,false,,,,,false,544100.2000000477,544100.0999999046,,544100,,543964.916,5,600,,
break_continue,html.Screen,10_28_2,2023-11-30T19:41:34.645Z,,,,,,,,,,,NaN,,,,,,,,high,low,,,,,,,false,,,,,false,544100.4000000954,544100.2999999523,,544100.2000000477,,543964.916,5,600,,
sequence,flow.Sequence,10_28,2023-11-30T19:41:34.645Z,,,,,,,,,,,2668.963999952306,completion,,,,,,,high,low,,,,,,,false,,,,,false,544100.5,544100.2999999523,541414.916,541572.7000000477,541431.336,543964.916,5,600,,
trial,html.Screen,10_29_0,2023-11-30T19:41:37.733Z,,,,1,-0.0109416414475118,-0.005246498750811,,0.04,false,lh,3223.383999952348,response,-0.8544507134472948,0.81259310938908,-1.071382597990715,0.9244388608707323,0.9427979484760295,-1.0866372998382416,low,high,,ISIC_0064279.JPG,9,ISIC_3565564.JPG,28,25,false,0.2300000000000001,ll,keypress(f),0,false,547188.4000000954,547188.2999999523,543948.244,544100.5,543964.916,547047.999,5,600,30,
break,html.Screen,10_29_1,2023-11-30T19:41:37.733Z,,,,,,,,,,,NaN,,,,,,,,low,high,,,,,,,false,,,,,false,547188.7999999523,547188.7000000477,,547188.5,,547047.999,5,600,,
break_continue,html.Screen,10_29_2,2023-11-30T19:41:37.733Z,,,,,,,,,,,NaN,,,,,,,,low,high,,,,,,,false,,,,,false,547188.9000000954,547188.9000000954,,547188.7999999523,,547047.999,5,600,,
sequence,flow.Sequence,10_29,2023-11-30T19:41:37.733Z,,,,,,,,,,,3223.984000095399,completion,,,,,,,low,high,,,,,,,false,,,,,false,547189,547188.9000000954,543948.244,544100.5,543964.916,547047.999,5,600,,
trial,html.Screen,10_30_0,2023-11-30T19:41:39.733Z,,,,1,-0.0198696495649504,0.0387952353063878,,0.04,false,lh,2140.401000095415,response,-0.9544693251394116,0.81259310938908,-1.071382597990715,1.0727539917203766,0.9427979484760295,-1.0866372998382416,low,high,,ISIC_6735970.JPG,10,ISIC_0055147.JPG,28,25,false,0.2300000000000001,hh,keypress(i),0,false,549188.5,549188.4000000954,547031.462,547189,547047.999,549048.092,5,600,31,
break,html.Screen,10_30_1,2023-11-30T19:41:39.733Z,,,,,,,,,,,NaN,,,,,,,,low,high,,,,,,,false,,,,,false,549188.7999999523,549188.7000000477,,549188.5,,549048.092,5,600,,
break_continue,html.Screen,10_30_2,2023-11-30T19:41:39.733Z,,,,,,,,,,,NaN,,,,,,,,low,high,,,,,,,false,,,,,false,549188.9000000954,549188.9000000954,,549188.7999999523,,549048.092,5,600,,
sequence,flow.Sequence,10_30,2023-11-30T19:41:39.733Z,,,,,,,,,,,2140.901000095415,completion,,,,,,,low,high,,,,,,,false,,,,,false,549188.9000000954,549188.9000000954,547031.462,547189,547047.999,549048.092,5,600,,
trial,html.Screen,10_31_0,2023-11-30T19:41:42.101Z,,,,1,0.0308384937406319,-0.0038396364323947,,0.04,false,hh,2508.1080000477377,response,0.8538847735848973,0.81259310938908,-1.071382597990715,0.979053170316694,0.9427979484760295,-1.0866372998382416,high,high,,ISIC_0029825.JPG,9,ISIC_1269461.JPG,28,55,false,0.1,ll,keypress(f),0,false,551556.2000000477,551556.2000000477,549031.311,549189,549048.092,551431.344,5,600,32,
break,html.Screen,10_31_1,2023-11-30T19:41:42.101Z,,,,,,,,,,,NaN,,,,,,,,high,high,,,,,,,false,,,,,false,551556.5,551556.5,,551556.4000000954,,551431.344,5,600,,
break_continue,html.Screen,10_31_2,2023-11-30T19:41:42.101Z,,,,,,,,,,,NaN,,,,,,,,high,high,,,,,,,false,,,,,false,551556.5999999046,551556.5999999046,,551556.5999999046,,551431.344,5,600,,
sequence,flow.Sequence,10_31,2023-11-30T19:41:42.101Z,,,,,,,,,,,2508.5079999046866,completion,,,,,,,high,high,,,,,,,false,,,,,false,551556.5999999046,551556.5999999046,549031.311,549189,549048.092,551431.344,5,600,,
trial,html.Screen,10_32_0,2023-11-30T19:41:44.212Z,,,,1,0.0009714874637896,-0.0174815595031679,,0.04,true,hh,2236.155999999959,response,0.7584502386393838,0.81259310938908,-1.071382597990715,0.9825823454317724,0.9427979484760295,-1.0866372998382416,high,high,,ISIC_9848743.JPG,9,ISIC_9820910.JPG,28,55,false,0.1,hh,keypress(i),0,false,553667.7000000477,553667.5,551414.818,551556.7999999523,551431.344,553531.524,5,600,33,
break,html.Screen,10_32_1,2023-11-30T19:41:44.212Z,,,,,,,,,,,NaN,,,,,,,,high,high,,,,,,,false,,,,,false,553668,553667.7999999523,,553667.7000000477,,553531.524,5,600,,
break_continue,html.Screen,10_32_2,2023-11-30T19:41:44.213Z,,,,,,,,,,,NaN,,,,,,,,high,high,,,,,,,false,,,,,false,553668.2000000477,553668.0999999046,,553668,,553531.524,5,600,,
sequence,flow.Sequence,10_32,2023-11-30T19:41:44.213Z,,,,,,,,,,,2236.7559999045916,completion,,,,,,,high,high,,,,,,,false,,,,,false,553668.2000000477,553668.0999999046,551414.818,551556.7000000477,551431.344,553531.524,5,600,,
trial,html.Screen,10_33_0,2023-11-30T19:41:45.893Z,,,,1,0.0308384937406319,-0.0038396364323947,,0.04,true,hh,1816.5759999046568,response,0.7151945682937986,0.81259310938908,-1.071382597990715,0.9514368385965256,0.9427979484760295,-1.0866372998382416,high,high,,ISIC_0029825.JPG,9,ISIC_0198331.JPG,28,55,false,0.1,hh,keypress(i),0,false,555348.2999999523,555348.0999999046,553515.076,553668.2000000477,553531.524,555214.835,5,600,34,
break,html.Screen,10_33_1,2023-11-30T19:41:45.893Z,,,,,,,,,,,NaN,,,,,,,,high,high,,,,,,,false,,,,,false,555348.5999999046,555348.5,,555348.2999999523,,555214.835,5,600,,
break_continue,html.Screen,10_33_2,2023-11-30T19:41:45.893Z,,,,,,,,,,,NaN,,,,,,,,high,high,,,,,,,false,,,,,false,555348.7000000477,555348.7000000477,,555348.7000000477,,555214.835,5,600,,
sequence,flow.Sequence,10_33,2023-11-30T19:41:45.893Z,,,,,,,,,,,1817.176000047708,completion,,,,,,,high,high,,,,,,,false,,,,,false,555348.7999999523,555348.7000000477,553515.076,553668.2000000477,553531.524,555214.835,5,600,,
trial,html.Screen,10_34_0,2023-11-30T19:41:47.845Z,,,,1,0.0200295718112167,0.0155559071275806,,0.04,true,ll,2085.5650000954047,response,-0.9766645409582418,0.81259310938908,-1.071382597990715,-1.086167902767275,0.9427979484760295,-1.0866372998382416,low,low,,ISIC_0061343.JPG,10,ISIC_0011526.JPG,28,36,false,0.1,ll,keypress(f),0,false,557300.4000000954,557300.4000000954,555198.034,555348.7999999523,555214.835,557164.709,5,600,35,
break,html.Screen,10_34_1,2023-11-30T19:41:47.845Z,,,,,,,,,,,NaN,,,,,,,,low,low,,,,,,,false,,,,,false,557300.7000000477,557300.5999999046,,557300.5,,557164.709,5,600,,
break_continue,html.Screen,10_34_2,2023-11-30T19:41:47.845Z,,,,,,,,,,,NaN,,,,,,,,low,low,,,,,,,false,,,,,false,557300.9000000954,557300.7999999523,,557300.7999999523,,557164.709,5,600,,
sequence,flow.Sequence,10_34,2023-11-30T19:41:47.845Z,,,,,,,,,,,2085.9649999523535,completion,,,,,,,low,low,,,,,,,false,,,,,false,557301,557300.7999999523,555198.034,555348.7999999523,555214.835,557164.709,5,600,,
trial,html.Screen,10_35_0,2023-11-30T19:41:49.877Z,,,,1,0.0283578106329894,-0.0088840758711548,,0.04,false,lh,2167.390999904601,response,-0.9662688541319592,0.81259310938908,-1.071382597990715,0.929746784178986,0.9427979484760295,-1.0866372998382416,low,high,,ISIC_0060707.JPG,8,ISIC_0011077.JPG,28,25,false,0.2300000000000001,ll,keypress(f),0,false,559332.2999999523,559332.0999999046,557148.108,557301,557164.709,559198.162,5,600,36,
break,html.Screen,10_35_1,2023-11-30T19:41:49.877Z,,,,,,,,,,,NaN,,,,,,,,low,high,,,,,,,false,,,,,false,559332.7000000477,559332.5,,559332.4000000954,,559198.162,5,600,,
break_continue,html.Screen,10_35_2,2023-11-30T19:41:49.877Z,,,,,,,,,,,NaN,,,,,,,,low,high,,,,,,,false,,,,,false,559332.7999999523,559332.7999999523,,559332.7000000477,,559198.162,5,600,,
sequence,flow.Sequence,10_35,2023-11-30T19:41:49.877Z,,,,,,,,,,,2168.0909999522846,completion,,,,,,,low,high,,,,,,,false,,,,,false,559333,559332.7999999523,557148.108,557301,557164.709,559198.162,5,600,,
trial,html.Screen,10_36_0,2023-11-30T19:41:52.405Z,,,,1,-0.0388181790775959,0.0049623405709465,,0.04,false,hl,2662.0380000476725,response,0.7308116448711435,0.81259310938908,-1.071382597990715,-0.908713834988551,0.9427979484760295,-1.0866372998382416,high,low,,ISIC_0061880.JPG,9,ISIC_7811951.JPG,28,28,false,0.2400000000000001,hh,keypress(i),0,false,561860.2000000477,561860.2000000477,559181.573,559333,559198.162,561731.497,5,600,37,
break,html.Screen,10_36_1,2023-11-30T19:41:52.405Z,,,,,,,,,,,NaN,,,,,,,,high,low,,,,,,,false,,,,,false,561860.5,561860.5,,561860.4000000954,,561731.497,5,600,,
break_continue,html.Screen,10_36_2,2023-11-30T19:41:52.405Z,,,,,,,,,,,NaN,,,,,,,,high,low,,,,,,,false,,,,,false,561860.7999999523,561860.7000000477,,561860.5999999046,,561731.497,5,600,,
sequence,flow.Sequence,10_36,2023-11-30T19:41:52.405Z,,,,,,,,,,,2662.5380000476725,completion,,,,,,,high,low,,,,,,,false,,,,,false,561860.9000000954,561860.7000000477,559181.573,559333,559198.162,561731.497,5,600,,
trial,html.Screen,10_37_0,2023-11-30T19:41:54.116Z,,,,1,0.0119001144851157,-0.0063430114540141,,0.04,false,lh,1840.003000000026,response,-0.9244148283103414,0.81259310938908,-1.071382597990715,0.9712966348713286,0.9427979484760295,-1.0866372998382416,low,high,,ISIC_0003822.JPG,8,ISIC_7927525.JPG,28,25,false,0.2300000000000001,hh,keypress(i),0,false,563571.5999999046,563571.5,561714.628,561860.9000000954,561731.497,563448.081,5,600,38,
break,html.Screen,10_37_1,2023-11-30T19:41:54.116Z,,,,,,,,,,,NaN,,,,,,,,low,high,,,,,,,false,,,,,false,563571.7999999523,563571.7999999523,,563571.7000000477,,563448.081,5,600,,
break_continue,html.Screen,10_37_2,2023-11-30T19:41:54.116Z,,,,,,,,,,,NaN,,,,,,,,low,high,,,,,,,false,,,,,false,563572,563571.9000000954,,563571.9000000954,,563448.081,5,600,,
sequence,flow.Sequence,10_37,2023-11-30T19:41:54.116Z,,,,,,,,,,,1840.4030000953935,completion,,,,,,,low,high,,,,,,,false,,,,,false,563572,563571.9000000954,561714.628,561860.9000000954,561731.497,563448.081,5,600,,
trial,html.Screen,10_38_0,2023-11-30T19:41:55.861Z,,,,1,0,-0.0102871556606504,,0.04,false,lh,1868.2189999523107,response,-0.9244148283103414,0.81259310938908,-1.071382597990715,0.9712966348713286,0.9427979484760295,-1.0866372998382416,low,high,,ISIC_1805163.JPG,9,ISIC_7927525.JPG,28,25,false,0.2300000000000001,hl,keypress(j),0,false,565316.2999999523,565316.2999999523,563431.335,563572,563448.081,565181.585,5,600,39,
