sender,sender_type,sender_id,timestamp,meta,,age,blockNo,c1,c2,condition,control_tolerance,correct,correctResponse,duration,ended_on,f1,f1_high,f1_low,f2,f2_high,f2_low,feature_level1,feature_level2,gender,img_left,img_reveal,img_right,n_control_images,n_target_images,practice,range_tolerance,response,response_action,selection_duration,staircase,time_commit,time_end,time_render,time_run,time_show,time_switch,total_blocks,total_trials,trialNo,url
informed_consent,html.Screen,0,2023-11-29T16:32:15.786Z,"{""labjs_version"":""20.2.4"",""labjs_build"":{""flavor"":""development"",""commit"":""f5b4a49f956347addd546a832a3327688c2c0fef""},""location"":""https://labjs.felixhenninger.com/api/labjs_preview/index.html"",""userAgent"":""Mozilla/5.0 (Windows NT 10.0; Win64; x64) AppleWebKit/537.36 (KHTML, like Gecko) Chrome/119.0.0.0 Safari/537.36"",""platform"":""Win32"",""language"":""en-US"",""locale"":""en-US"",""timeZone"":""America/Chicago"",""timezoneOffset"":360,""screen_width"":1920,""screen_height"":1080,""scroll_width"":945,""scroll_height"":918,""window_innerWidth"":945,""window_innerHeight"":966,""devicePixelRatio"":1}",,,,,,,,,,16379.569999856949,response,,,,,,,,,,,,,,,,,consent,click button,,,17027.5,17020.89999985695,624.619,794.2999999523163,641.33,16874.827,,,,{}
Demography form,html.Form,1,2023-11-29T16:32:22.785Z,,,18,,,,,,,,7152.172999999999,form submission,,,,,,,,,female,,,,,,,,,,,,24027.099999904633,24027,16858.424,17027.700000047684,16874.827,23858.073,,,,
Welcome,html.Screen,2,2023-11-29T16:32:35.996Z,,,,,,,"[""asym"",""bor""]",,,,13378.726999952316,response,,,,,,,,,,,,,,,,,continue,click button,,,37237.5,37236.799999952316,23841.32,24027.200000047684,23858.073,37074.805,,,,
demo_instructions,html.Screen,3,2023-11-29T16:33:09.565Z,,,,,,,,,,,33730.09499985695,response,,,,,,,,,,,,,,,,,continue,click button,,,70805.59999990463,70804.89999985695,37058.131,37237.59999990463,37074.805,70641.264,,,,
trial,html.Screen,4_0_0,2023-11-29T16:33:19.434Z,,,,0,-1.152619213055059,-1.1117876838408909,,,true,hh,10033.635999856953,response,1.0870240111136478,1.2,-1.2,1.332340670965917,1.2,-1.2,high,high,,ISIC_0061915.JPG,,ISIC_0000660.JPG,,26,true,0.15000000000000002,hh,keypress(i),100,false,80675.09999990463,80674.89999985695,70624.789,70805.70000004768,70641.264,80524.865,1,16,1,
sequence,flow.Sequence,4_0,2023-11-29T16:33:19.440Z,,,,,,,,,,,10033.635999856953,completion,,,,,,,high,high,,,,,,,true,,,,,false,80680.59999990463,80674.89999985695,70624.789,70805.70000004768,70641.264,80524.865,1,16,,
trial,html.Screen,4_1_0,2023-11-29T16:33:25.076Z,,,,0,-1.2915523362516486,-1.1264977790562936,,,true,hh,5791.8350000476785,response,1.1642596483638106,1.2,-1.2,1.109799097093339,1.2,-1.2,high,high,,ISIC_0502582.JPG,,ISIC_0765584.JPG,,26,true,0.15000000000000002,hh,keypress(i),100,false,86316.89999985695,86316.70000004768,80507.961,80680.70000004768,80524.865,86158.181,1,16,2,
sequence,flow.Sequence,4_1,2023-11-29T16:33:25.076Z,,,,,,,,,,,5791.8350000476785,completion,,,,,,,high,high,,,,,,,true,,,,,false,86317.20000004768,86316.70000004768,80507.961,80680.70000004768,80524.865,86158.181,1,16,,
trial,html.Screen,4_2_0,2023-11-29T16:33:30.057Z,,,,0,-1.2952503640839694,-1.107234527385344,,,true,hh,5139.519000047687,response,1.0717785279820962,1.2,-1.2,1.1267239445830604,1.2,-1.2,high,high,,ISIC_0034134.JPG,,ISIC_9948815.JPG,,26,true,0.15000000000000002,hh,keypress(i),100,false,91297.89999985695,91297.70000004768,86141.231,86317.29999995232,86158.181,91141.674,1,16,3,
sequence,flow.Sequence,4_2,2023-11-29T16:33:30.057Z,,,,,,,,,,,5139.519000047687,completion,,,,,,,high,high,,,,,,,true,,,,,false,91298.09999990463,91297.70000004768,86141.231,86317.29999995232,86158.181,91141.674,1,16,,
trial,html.Screen,4_3_0,2023-11-29T16:33:31.566Z,,,,0,-1.1877026569952844,-1.1604367569896263,,,true,hh,1664.6259999523172,response,1.057008495826831,1.2,-1.2,1.1278122585028287,1.2,-1.2,high,high,,ISIC_0064589.JPG,,ISIC_2819798.JPG,,26,true,0.15000000000000002,hh,keypress(i),100,false,92806.5,92806.29999995232,91124.577,91298.20000004768,91141.674,92658.08,1,16,4,
sequence,flow.Sequence,4_3,2023-11-29T16:33:31.566Z,,,,,,,,,,,1664.6259999523172,completion,,,,,,,high,high,,,,,,,true,,,,,false,92806.70000004768,92806.29999995232,91124.577,91298.20000004768,91141.674,92658.08,1,16,,
trial,html.Screen,4_4_0,2023-11-29T16:33:41.266Z,,,,0,1.2318069697449794,1.1703576816778267,,,true,ll,9848.919999999998,response,-1.1474466950560966,1.2,-1.2,-1.268445326285509,1.2,-1.2,low,low,,ISIC_2732573.JPG,,ISIC_5216586.JPG,,30,true,0.1,ll,keypress(f),100,false,102507.29999995232,102507,92641.513,92806.70000004768,92658.08,102358.08,1,16,5,
sequence,flow.Sequence,4_4,2023-11-29T16:33:41.266Z,,,,,,,,,,,9848.919999999998,completion,,,,,,,low,low,,,,,,,true,,,,,false,102507.39999985695,102507,92641.513,92806.70000004768,92658.08,102358.08,1,16,,
trial,html.Screen,4_5_0,2023-11-29T16:33:50.215Z,,,,0,1.2706447584800626,1.0903308007916603,,,true,ll,9097.120000047682,response,-1.1383813631375823,1.2,-1.2,-1.1319312220332556,1.2,-1.2,low,low,,ISIC_9425937.JPG,,ISIC_6227397.JPG,,53,true,0.15000000000000002,ll,keypress(f),100,false,111455.39999985695,111455.20000004768,102341.489,102507.39999985695,102358.08,111308.088,1,16,6,
sequence,flow.Sequence,4_5,2023-11-29T16:33:50.215Z,,,,,,,,,,,9097.120000047682,completion,,,,,,,low,low,,,,,,,true,,,,,false,111455.5,111455.20000004768,102341.489,102507.39999985695,102358.08,111308.088,1,16,,
trial,html.Screen,4_6_0,2023-11-29T16:33:52.748Z,,,,0,1.2706447584800626,1.0903308007916603,,,true,ll,2680.6120000476803,response,-1.2618585285282764,1.2,-1.2,-1.0804044917288194,1.2,-1.2,low,low,,ISIC_9425937.JPG,,ISIC_0011691.JPG,,53,true,0.15000000000000002,ll,keypress(f),100,false,113988.79999995232,113988.70000004768,111291.604,111455.70000004768,111308.088,113841.41,1,16,7,
sequence,flow.Sequence,4_6,2023-11-29T16:33:52.748Z,,,,,,,,,,,2680.6120000476803,completion,,,,,,,low,low,,,,,,,true,,,,,false,113988.89999985695,113988.70000004768,111291.604,111455.59999990463,111308.088,113841.41,1,16,,
trial,html.Screen,4_7_0,2023-11-29T16:34:00.384Z,,,,0,1.09666761087476,1.1072126870290426,,,true,ll,7782.79000004768,response,-1.152619213055059,1.2,-1.2,-1.1117876838408909,1.2,-1.2,low,low,,ISIC_0071754.JPG,,ISIC_0061915.JPG,,53,true,0.15000000000000002,ll,keypress(f),100,false,121624.29999995232,121624.20000004768,113824.746,113988.89999985695,113841.41,121474.54,1,16,8,
sequence,flow.Sequence,4_7,2023-11-29T16:34:00.384Z,,,,,,,,,,,7782.79000004768,completion,,,,,,,low,low,,,,,,,true,,,,,false,121624.39999985695,121624.20000004768,113824.746,113988.89999985695,113841.41,121474.54,1,16,,
trial,html.Screen,4_8_0,2023-11-29T16:34:10.944Z,,,,0,0.858338058340649,-0.9540612223480284,,,true,lh,10709.559999904639,response,-0.8655167308525522,1.2,-1.2,0.9298580423306444,1.2,-1.2,low,high,,ISIC_8922893.JPG,,ISIC_4603706.JPG,,27,true,0.42000000000000026,lh,keypress(e),100,false,132184.29999995232,132184.09999990463,121457.879,121624.59999990463,121474.54,132024.61,1,16,9,
sequence,flow.Sequence,4_8,2023-11-29T16:34:10.944Z,,,,,,,,,,,10709.559999904639,completion,,,,,,,low,high,,,,,,,true,,,,,false,132184.5,132184.09999990463,121457.879,121624.39999985695,121474.54,132024.61,1,16,,
trial,html.Screen,4_9_0,2023-11-29T16:34:16.603Z,,,,0,0.858338058340649,-0.9540612223480284,,,true,lh,5818.890000000014,response,-0.809764442462202,1.2,-1.2,1.005337148078696,1.2,-1.2,low,high,,ISIC_8922893.JPG,,ISIC_2379379.JPG,,27,true,0.42000000000000026,lh,keypress(e),100,false,137843.70000004768,137843.5,132007.967,132184.5,132024.61,137691.431,1,16,10,
sequence,flow.Sequence,4_9,2023-11-29T16:34:16.603Z,,,,,,,,,,,5818.890000000014,completion,,,,,,,low,high,,,,,,,true,,,,,false,137843.89999985695,137843.5,132007.967,132184.5,132024.61,137691.431,1,16,,
trial,html.Screen,4_10_0,2023-11-29T16:34:20.406Z,,,,0,0.8579451262594331,-0.9633172970727744,,,true,lh,3955.0689999999886,response,-0.991146183030456,1.2,-1.2,0.9949639823722534,1.2,-1.2,low,high,,ISIC_0067172.JPG,,ISIC_6342224.JPG,,27,true,0.42000000000000026,lh,keypress(e),100,false,141646.5,141646.5,137674.538,137843.89999985695,137691.431,141491.43,1,16,11,
sequence,flow.Sequence,4_10,2023-11-29T16:34:20.406Z,,,,,,,,,,,3955.0689999999886,completion,,,,,,,low,high,,,,,,,true,,,,,false,141646.70000004768,141646.5,137674.538,137843.89999985695,137691.431,141491.43,1,16,,
trial,html.Screen,4_11_0,2023-11-29T16:34:23.999Z,,,,0,0.869932994914832,-0.8880533324432531,,,true,lh,3747.6699999046396,response,-0.9388660854518424,1.2,-1.2,0.79533948698576,1.2,-1.2,low,high,,ISIC_8617084.JPG,,ISIC_9291926.JPG,,27,true,0.42000000000000026,lh,keypress(e),100,false,145239.20000004768,145239.09999990463,141474.519,141646.79999995232,141491.43,145091.247,1,16,12,
sequence,flow.Sequence,4_11,2023-11-29T16:34:23.999Z,,,,,,,,,,,3747.6699999046396,completion,,,,,,,low,high,,,,,,,true,,,,,false,145239.29999995232,145239.09999990463,141474.519,141646.79999995232,141491.43,145091.247,1,16,,
trial,html.Screen,4_12_0,2023-11-29T16:34:34.458Z,,,,0,-0.8035152873995188,0.82868450251632,,,true,hl,10607.052999952313,response,1.2331439637486756,1.2,-1.2,-0.9691143900156988,1.2,-1.2,high,low,,ISIC_0010671.JPG,,ISIC_7877488.JPG,,26,true,0.3600000000000002,hl,keypress(j),100,false,155698.39999985695,155698.29999995232,145074.675,145239.39999985695,145091.247,155541.301,1,16,13,
sequence,flow.Sequence,4_12,2023-11-29T16:34:34.458Z,,,,,,,,,,,10607.052999952313,completion,,,,,,,high,low,,,,,,,true,,,,,false,155698.59999990463,155698.29999995232,145074.675,145239.39999985695,145091.247,155541.301,1,16,,
trial,html.Screen,4_13_0,2023-11-29T16:34:37.078Z,,,,0,-0.809764442462202,1.005337148078696,,,true,hl,2777.399000047677,response,1.1181734135756094,1.2,-1.2,-0.944560381774994,1.2,-1.2,high,low,,ISIC_2379379.JPG,,ISIC_9688534.JPG,,33,true,0.42000000000000026,hl,keypress(j),100,false,158318.89999985695,158318.70000004768,155524.488,155698.59999990463,155541.301,158174.531,1,16,14,
sequence,flow.Sequence,4_13,2023-11-29T16:34:37.078Z,,,,,,,,,,,2777.399000047677,completion,,,,,,,high,low,,,,,,,true,,,,,false,158319.09999990463,158318.70000004768,155524.488,155698.59999990463,155541.301,158174.531,1,16,,
trial,html.Screen,4_14_0,2023-11-29T16:34:38.787Z,,,,0,-1.0022829373011404,0.8311726972863814,,,true,hl,1853.0689999046444,response,1.0656673213158945,1.2,-1.2,-0.8082541692781954,1.2,-1.2,high,low,,ISIC_0033287.JPG,,ISIC_0033985.JPG,,33,true,0.42000000000000026,hl,keypress(j),100,false,160027.79999995232,160027.59999990463,158157.865,158319.20000004768,158174.531,159874.461,1,16,15,
sequence,flow.Sequence,4_14,2023-11-29T16:34:38.787Z,,,,,,,,,,,1853.0689999046444,completion,,,,,,,high,low,,,,,,,true,,,,,false,160027.79999995232,160027.59999990463,158157.865,158319.20000004768,158174.531,159874.461,1,16,,
trial,html.Screen,4_15_0,2023-11-29T16:34:40.301Z,,,,0,-1.276222161935671,0.9657780821973284,,,true,hl,1667.1389999046223,response,0.9579209317488,1.2,-1.2,-1.0147487101263497,1.2,-1.2,high,low,,ISIC_6710411.JPG,,ISIC_8124482.JPG,,33,true,0.42000000000000026,hl,keypress(j),100,false,161541.79999995232,161541.59999990463,159857.828,160027.89999985695,159874.461,161391.326,1,16,16,
sequence,flow.Sequence,4_15,2023-11-29T16:34:40.301Z,,,,,,,,,,,1667.1389999046223,completion,,,,,,,high,low,,,,,,,true,,,,,false,161541.89999985695,161541.59999990463,159857.828,160027.89999985695,159874.461,161391.326,1,16,,
demonstration_loop,flow.Loop,4,2023-11-29T16:34:40.301Z,,,,,,,,,,,90900.33599990464,completion,,,,,,,,,,,,,,,true,,,,,false,161542,161541.59999990463,70624.789,70805.70000004768,70641.264,161391.326,1,16,,
practice_instructions,html.Screen,5,2023-11-29T16:34:43.700Z,,,,,,,,,,,3549.173999999999,response,,,,,,,,,,,,,,,,,continue,click button,,,164941.09999990463,164940.5,161374.495,161542,161391.326,164791.288,,,,
trial,html.Screen,6_0_0,2023-11-29T16:34:52.157Z,,,,1,1.201100953917304,1.1751492358160105,,,true,ll,8600.912000047683,response,-1.156827121261563,1.2,-1.2,-1.2544342720917778,1.2,-1.2,low,low,,ISIC_0647224.JPG,,ISIC_0060397.JPG,,30,true,0.1,ll,keypress(f),0,false,173397.89999985695,173392.20000004768,164774.684,164941.29999995232,164791.288,173241.276,1,40,1,
sequence,flow.Sequence,6_0,2023-11-29T16:34:52.157Z,,,,,,,,,,,8600.912000047683,completion,,,,,,,low,low,,,,,,,true,,,,,false,173398,173392.20000004768,164774.684,164941.29999995232,164791.288,173241.276,1,40,,
trial,html.Screen,6_1_0,2023-11-29T16:34:59.526Z,,,,1,1.2318069697449794,1.1703576816778267,,,true,ll,7524.924000047671,response,-1.2915523362516486,1.2,-1.2,-1.1264977790562936,1.2,-1.2,low,low,,ISIC_2732573.JPG,,ISIC_0502582.JPG,,53,true,0.15000000000000002,ll,keypress(f),0,false,180766.29999995232,180766.20000004768,173224.491,173398,173241.276,180607.983,1,40,2,
sequence,flow.Sequence,6_1,2023-11-29T16:34:59.526Z,,,,,,,,,,,7524.924000047671,completion,,,,,,,low,low,,,,,,,true,,,,,false,180766.39999985695,180766.20000004768,173224.491,173398,173241.276,180607.983,1,40,,
trial,html.Screen,6_2_0,2023-11-29T16:35:09.109Z,,,,1,-1.1164729501046406,-1.2978935747992253,,,false,hh,9742.116999904625,response,1.2724584600905462,1.2,-1.2,1.1411016103695344,1.2,-1.2,high,high,,ISIC_0034166.JPG,,ISIC_0059625.JPG,,26,true,0.15000000000000002,lh,keypress(e),0,false,190350.20000004768,190350.09999990463,180574.554,180766.5,180607.983,190191.099,1,40,3,
sequence,flow.Sequence,6_2,2023-11-29T16:35:09.110Z,,,,,,,,,,,9742.116999904625,completion,,,,,,,high,high,,,,,,,true,,,,,false,190350.39999985695,190350.09999990463,180574.554,180766.5,180607.983,190191.099,1,40,,
trial,html.Screen,6_3_0,2023-11-29T16:35:13.637Z,,,,1,-0.9388660854518424,0.79533948698576,,,false,hl,4686.500999904645,response,0.8809306963311293,1.2,-1.2,-0.8614910030038974,1.2,-1.2,high,low,,ISIC_9291926.JPG,,ISIC_0013731.JPG,,26,true,0.3600000000000002,hh,keypress(i),0,false,194877.70000004768,194877.59999990463,190174.177,190350.39999985695,190191.099,194707.761,1,40,4,
sequence,flow.Sequence,6_3,2023-11-29T16:35:13.637Z,,,,,,,,,,,4686.500999904645,completion,,,,,,,high,low,,,,,,,true,,,,,false,194877.79999995232,194877.59999990463,190174.177,190350.39999985695,190191.099,194707.761,1,40,,
trial,html.Screen,6_4_0,2023-11-29T16:35:22.246Z,,,,1,0.9696118525781644,-0.9244148283103414,,,false,lh,8778.439000047685,response,-0.9388660854518424,1.2,-1.2,0.79533948698576,1.2,-1.2,low,high,,ISIC_7927525.JPG,,ISIC_9291926.JPG,,27,true,0.42000000000000026,hl,keypress(j),0,false,203486.29999995232,203486.20000004768,194691.246,194877.79999995232,194707.761,203324.425,1,40,5,
sequence,flow.Sequence,6_4,2023-11-29T16:35:22.246Z,,,,,,,,,,,8778.439000047685,completion,,,,,,,low,high,,,,,,,true,,,,,false,203486.39999985695,203486.20000004768,194691.246,194877.79999995232,194707.761,203324.425,1,40,,
trial,html.Screen,6_5_0,2023-11-29T16:35:29.285Z,,,,1,-1.101346104814838,-1.1225813067473052,,,true,hh,7201.174999904644,response,1.1401739481722466,1.2,-1.2,0.9054500502539348,1.2,-1.2,high,high,,ISIC_8175453.JPG,,ISIC_6260086.JPG,,179,true,0.3600000000000002,hh,keypress(i),0,false,210525.79999995232,210525.59999990463,203307.75,203486.5,203324.425,210357.745,1,40,6,
sequence,flow.Sequence,6_5,2023-11-29T16:35:29.285Z,,,,,,,,,,,7201.174999904644,completion,,,,,,,high,high,,,,,,,true,,,,,false,210525.89999985695,210525.59999990463,203307.75,203486.5,203324.425,210357.745,1,40,,
trial,html.Screen,6_6_0,2023-11-29T16:35:34.822Z,,,,1,0.8534691366511764,-1.03975580494588,,,true,lh,5704.455000047688,response,-0.9235571765207048,1.2,-1.2,1.0008081653938232,1.2,-1.2,low,high,,ISIC_0056788.JPG,,ISIC_8796632.JPG,,27,true,0.42000000000000026,lh,keypress(e),0,false,216062.29999995232,216062.20000004768,210340.838,210526,210357.745,215891.093,1,40,7,
sequence,flow.Sequence,6_6,2023-11-29T16:35:34.822Z,,,,,,,,,,,5704.455000047688,completion,,,,,,,low,high,,,,,,,true,,,,,false,216062.39999985695,216062.20000004768,210340.838,210525.89999985695,210357.745,215891.093,1,40,,
trial,html.Screen,6_7_0,2023-11-29T16:35:40.213Z,,,,1,1.057008495826831,1.1278122585028287,,,true,ll,5562.4070000000065,response,-0.9306454722820696,1.2,-1.2,-0.9812399591657396,1.2,-1.2,low,low,,ISIC_2819798.JPG,,ISIC_0009940.JPG,,245,true,0.3600000000000002,ll,keypress(f),0,false,221453.5,221453.5,215874.685,216062.39999985695,215891.093,221291.084,1,40,8,
sequence,flow.Sequence,6_7,2023-11-29T16:35:40.213Z,,,,,,,,,,,5562.4070000000065,completion,,,,,,,low,low,,,,,,,true,,,,,false,221453.70000004768,221453.5,215874.685,216062.39999985695,215891.093,221291.084,1,40,,
trial,html.Screen,6_8_0,2023-11-29T16:35:43.701Z,,,,1,-0.7911024675435955,0.7975977016137676,,,false,hl,3651.116000047681,response,1.011737552725394,1.2,-1.2,-0.8500530224490773,1.2,-1.2,high,low,,ISIC_5813642.JPG,,ISIC_2998367.JPG,,26,true,0.3600000000000002,hh,keypress(i),0,false,224942.29999995232,224942.20000004768,221274.403,221453.79999995232,221291.084,224774.581,1,40,9,
sequence,flow.Sequence,6_8,2023-11-29T16:35:43.702Z,,,,,,,,,,,3651.116000047681,completion,,,,,,,high,low,,,,,,,true,,,,,false,224942.29999995232,224942.20000004768,221274.403,221453.70000004768,221291.084,224774.581,1,40,,
trial,html.Screen,6_9_0,2023-11-29T16:35:49.269Z,,,,1,-1.1877026569952844,-1.1604367569896263,,,true,hh,5735.218999952311,response,0.8995154199215303,1.2,-1.2,0.8258046477520162,1.2,-1.2,high,high,,ISIC_0064589.JPG,,ISIC_6345354.JPG,,253,true,0.42000000000000026,hh,keypress(i),0,false,230509.89999985695,230509.79999995232,224757.827,224942.29999995232,224774.581,230341.159,1,40,10,
sequence,flow.Sequence,6_9,2023-11-29T16:35:49.269Z,,,,,,,,,,,5735.218999952311,completion,,,,,,,high,high,,,,,,,true,,,,,false,230510,230509.79999995232,224757.827,224942.29999995232,224774.581,230341.159,1,40,,
trial,html.Screen,6_10_0,2023-11-29T16:35:53.109Z,,,,1,1.057008495826831,1.1278122585028287,,,true,ll,4008.340999999986,response,-1.255256820488545,1.2,-1.2,-1.1206426433062562,1.2,-1.2,low,low,,ISIC_2819798.JPG,,ISIC_0024652.JPG,,30,true,0.1,ll,keypress(f),0,false,234349.59999990463,234349.5,230324.419,230510,230341.159,234191.365,1,40,11,
sequence,flow.Sequence,6_10,2023-11-29T16:35:53.109Z,,,,,,,,,,,4008.340999999986,completion,,,,,,,low,low,,,,,,,true,,,,,false,234349.70000004768,234349.5,230324.419,230510,230341.159,234191.365,1,40,,
trial,html.Screen,6_11_0,2023-11-29T16:35:56.069Z,,,,1,0.991282840649944,-0.9397921099839784,,,false,lh,3118.234999904642,response,-0.7809949855371787,1.2,-1.2,0.8493861117004308,1.2,-1.2,low,high,,ISIC_0000463.JPG,,ISIC_7450481.JPG,,27,true,0.42000000000000026,ll,keypress(f),0,false,237309.59999990463,237309.59999990463,234157.891,234349.79999995232,234191.365,237141.119,1,40,12,
sequence,flow.Sequence,6_11,2023-11-29T16:35:56.069Z,,,,,,,,,,,3118.234999904642,completion,,,,,,,low,high,,,,,,,true,,,,,false,237309.79999995232,237309.59999990463,234157.891,234349.70000004768,234191.365,237141.119,1,40,,
trial,html.Screen,6_12_0,2023-11-29T16:36:01.573Z,,,,1,-1.1253220985777015,-1.108725659461368,,,false,hh,5673.081000047678,response,0.9525123994269484,1.2,-1.2,1.0779941204178511,1.2,-1.2,high,high,,ISIC_0054954.JPG,,ISIC_0009642.JPG,,179,true,0.3600000000000002,lh,keypress(e),0,false,242814.29999995232,242814.20000004768,237124.498,237309.89999985695,237141.119,242641.07,1,40,13,
sequence,flow.Sequence,6_12,2023-11-29T16:36:01.574Z,,,,,,,,,,,5673.081000047678,completion,,,,,,,high,high,,,,,,,true,,,,,false,242814.39999985695,242814.20000004768,237124.498,237309.79999995232,237141.119,242641.07,1,40,,
trial,html.Screen,6_13_0,2023-11-29T16:36:05.333Z,,,,1,1.2503149164557643,1.0796591227570405,,,true,ll,3933.0299999046256,response,-1.2181031651370575,1.2,-1.2,-1.2158573487067317,1.2,-1.2,low,low,,ISIC_2466892.JPG,,ISIC_7242312.JPG,,30,true,0.1,ll,keypress(f),0,false,246574.20000004768,246574.09999990463,242624.424,242814.39999985695,242641.07,246407.959,1,40,14,
sequence,flow.Sequence,6_13,2023-11-29T16:36:05.333Z,,,,,,,,,,,3933.0299999046256,completion,,,,,,,low,low,,,,,,,true,,,,,false,246574.20000004768,246574.09999990463,242624.424,242814.39999985695,242641.07,246407.959,1,40,,
trial,html.Screen,6_14_0,2023-11-29T16:36:07.477Z,,,,1,-1.101214461533281,-1.1849883512428183,,,true,hh,2310.241000047681,response,1.1653123206802332,1.2,-1.2,1.2976858999596654,1.2,-1.2,high,high,,ISIC_0064943.JPG,,ISIC_0071508.JPG,,26,true,0.15000000000000002,hh,keypress(i),0,false,248718.29999995232,248718.20000004768,246391.159,246574.29999995232,246407.959,248557.696,1,40,15,
sequence,flow.Sequence,6_14,2023-11-29T16:36:07.478Z,,,,,,,,,,,2310.241000047681,completion,,,,,,,high,high,,,,,,,true,,,,,false,248718.39999985695,248718.20000004768,246391.159,246574.29999995232,246407.959,248557.696,1,40,,
trial,html.Screen,6_15_0,2023-11-29T16:36:14.949Z,,,,1,-1.0115965332688306,0.8282633603842442,,,true,hl,7632.403999904636,response,0.9579209317488,1.2,-1.2,-1.0147487101263497,1.2,-1.2,high,low,,ISIC_1069587.JPG,,ISIC_8124482.JPG,,26,true,0.3600000000000002,hl,keypress(j),0,false,256190.20000004768,256190.09999990463,248541.133,248718.39999985695,248557.696,256024.399,1,40,16,
sequence,flow.Sequence,6_15,2023-11-29T16:36:14.949Z,,,,,,,,,,,7632.403999904636,completion,,,,,,,high,low,,,,,,,true,,,,,false,256190.20000004768,256190.09999990463,248541.133,248718.39999985695,248557.696,256024.399,1,40,,
trial,html.Screen,6_16_0,2023-11-29T16:36:26.309Z,,,,1,0.9579209317488,-1.0147487101263497,,,true,lh,11525.600999999995,response,-0.7809949855371787,1.2,-1.2,0.8493861117004308,1.2,-1.2,low,high,,ISIC_8124482.JPG,,ISIC_7450481.JPG,,27,true,0.42000000000000026,lh,keypress(e),0,false,267550,267550,256007.915,256190.29999995232,256024.399,267391.151,1,40,17,
sequence,flow.Sequence,6_16,2023-11-29T16:36:26.309Z,,,,,,,,,,,11525.600999999995,completion,,,,,,,low,high,,,,,,,true,,,,,false,267550.09999990463,267550,256007.915,256190.29999995232,256024.399,267391.151,1,40,,
trial,html.Screen,6_17_0,2023-11-29T16:36:29.606Z,,,,1,1.020990671779317,-1.0116513850520903,,,false,lh,3455.549000047671,response,-0.809764442462202,1.2,-1.2,1.005337148078696,1.2,-1.2,low,high,,ISIC_0011995.JPG,,ISIC_2379379.JPG,,27,true,0.42000000000000026,hh,keypress(i),0,false,270846.7999999523,270846.7000000477,267374.397,267550.2000000477,267391.151,270674.356,1,40,18,
sequence,flow.Sequence,6_17,2023-11-29T16:36:29.606Z,,,,,,,,,,,3455.549000047671,completion,,,,,,,low,high,,,,,,,true,,,,,false,270847,270846.7000000477,267374.397,267550.09999990463,267391.151,270674.356,1,40,,
trial,html.Screen,6_18_0,2023-11-29T16:36:31.605Z,,,,1,-1.2181031651370575,-1.2158573487067317,,,true,hh,2171.143999999971,response,0.878837306607763,1.2,-1.2,0.9806817794837708,1.2,-1.2,high,high,,ISIC_7242312.JPG,,ISIC_6250970.JPG,,179,true,0.3600000000000002,hh,keypress(i),0,false,272845.59999990463,272845.5,270657.871,270847,270674.356,272674.339,1,40,19,
sequence,flow.Sequence,6_18,2023-11-29T16:36:31.605Z,,,,,,,,,,,2171.143999999971,completion,,,,,,,high,high,,,,,,,true,,,,,false,272845.7000000477,272845.5,270657.871,270847,270674.356,272674.339,1,40,,
trial,html.Screen,6_19_0,2023-11-29T16:36:33.285Z,,,,1,-1.101214461533281,-1.1849883512428183,,,true,hh,1851.7609999046545,response,1.2711018615747949,1.2,-1.2,1.1042234044781618,1.2,-1.2,high,high,,ISIC_0064943.JPG,,ISIC_8603734.JPG,,26,true,0.15000000000000002,hh,keypress(i),0,false,274526.2000000477,274526.09999990463,272657.686,272845.7999999523,272674.339,274357.665,1,40,20,
sequence,flow.Sequence,6_19,2023-11-29T16:36:33.286Z,,,,,,,,,,,1851.7609999046545,completion,,,,,,,high,high,,,,,,,true,,,,,false,274526.2999999523,274526.09999990463,272657.686,272845.7999999523,272674.339,274357.665,1,40,,
trial,html.Screen,6_20_0,2023-11-29T16:36:40.309Z,,,,1,-0.9388660854518424,0.79533948698576,,,true,hl,7192.335000000021,response,1.0026266089287914,1.2,-1.2,-1.0913275913920335,1.2,-1.2,high,low,,ISIC_9291926.JPG,,ISIC_0033520.JPG,,26,true,0.3600000000000002,hl,keypress(j),0,false,281550.09999990463,281550,274341.428,274526.2999999523,274357.665,281391.121,1,40,21,
sequence,flow.Sequence,6_20,2023-11-29T16:36:40.309Z,,,,,,,,,,,7192.335000000021,completion,,,,,,,high,low,,,,,,,true,,,,,false,281550.2000000477,281550,274341.428,274526.2999999523,274357.665,281391.121,1,40,,
trial,html.Screen,6_21_0,2023-11-29T16:36:45.989Z,,,,1,-0.8655167308525522,0.9298580423306444,,,true,hl,5838.778999856964,response,1.0656673213158945,1.2,-1.2,-0.8082541692781954,1.2,-1.2,high,low,,ISIC_4603706.JPG,,ISIC_0033985.JPG,,33,true,0.42000000000000026,hl,keypress(j),0,false,287230,287229.89999985695,281374.291,281550.2999999523,281391.121,287057.661,1,40,22,
sequence,flow.Sequence,6_21,2023-11-29T16:36:45.989Z,,,,,,,,,,,5838.778999856964,completion,,,,,,,high,low,,,,,,,true,,,,,false,287230.09999990463,287229.89999985695,281374.291,281550.2999999523,281391.121,287057.661,1,40,,
trial,html.Screen,6_22_0,2023-11-29T16:36:49.733Z,,,,1,1.1210325063849345,1.1498648320956202,,,true,ll,3916.338999999978,response,-1.0931477426281198,1.2,-1.2,-1.0028306951898116,1.2,-1.2,low,low,,ISIC_0032162.JPG,,ISIC_0026531.JPG,,339,true,0.42000000000000026,ll,keypress(f),0,false,290974.09999990463,290974,287041.029,287230.2000000477,287057.661,290808.095,1,40,23,
sequence,flow.Sequence,6_22,2023-11-29T16:36:49.733Z,,,,,,,,,,,3916.338999999978,completion,,,,,,,low,low,,,,,,,true,,,,,false,290974.2000000477,290974,287041.029,287230.2000000477,287057.661,290808.095,1,40,,
trial,html.Screen,6_23_0,2023-11-29T16:36:53.093Z,,,,1,-1.156827121261563,-1.2544342720917778,,,true,hh,3526.0049999046605,response,1.1653123206802332,1.2,-1.2,1.2976858999596654,1.2,-1.2,high,high,,ISIC_0060397.JPG,,ISIC_0071508.JPG,,26,true,0.15000000000000002,hh,keypress(i),0,false,294334.2999999523,294334.09999990463,290791.153,290974.2000000477,290808.095,294174.313,1,40,24,
sequence,flow.Sequence,6_23,2023-11-29T16:36:53.093Z,,,,,,,,,,,3526.0049999046605,completion,,,,,,,high,high,,,,,,,true,,,,,false,294334.2999999523,294334.09999990463,290791.153,290974.2000000477,290808.095,294174.313,1,40,,
trial,html.Screen,6_24_0,2023-11-29T16:36:59.541Z,,,,1,0.8809306963311293,-0.8614910030038974,,,true,lh,6607.286999904609,response,-0.8623414234919863,1.2,-1.2,0.782830143980698,1.2,-1.2,low,high,,ISIC_0013731.JPG,,ISIC_2727016.JPG,,27,true,0.42000000000000026,lh,keypress(e),0,false,300781.7000000477,300781.59999990463,294157.646,294334.39999985695,294174.313,300607.659,1,40,25,
sequence,flow.Sequence,6_24,2023-11-29T16:36:59.541Z,,,,,,,,,,,6607.286999904609,completion,,,,,,,low,high,,,,,,,true,,,,,false,300781.7999999523,300781.59999990463,294157.646,294334.39999985695,294174.313,300607.659,1,40,,
trial,html.Screen,6_25_0,2023-11-29T16:37:03.509Z,,,,1,1.0959058628476686,1.1684835186766898,,,true,ll,4142.341000000015,response,-1.2040551955011098,1.2,-1.2,-1.001135039205613,1.2,-1.2,low,low,,ISIC_5920470.JPG,,ISIC_0068886.JPG,,245,true,0.3600000000000002,ll,keypress(f),0,false,304750.09999990463,304750,300591.029,300781.89999985695,300607.659,304590.996,1,40,26,
sequence,flow.Sequence,6_25,2023-11-29T16:37:03.509Z,,,,,,,,,,,4142.341000000015,completion,,,,,,,low,low,,,,,,,true,,,,,false,304750.2000000477,304750,300591.029,300781.7999999523,300607.659,304590.996,1,40,,
trial,html.Screen,6_26_0,2023-11-29T16:37:07.141Z,,,,1,-0.7998855902596425,1.1518579145663017,,,false,hl,3791.0040000000154,response,1.0026266089287914,1.2,-1.2,-1.0913275913920335,1.2,-1.2,high,low,,ISIC_0025061.JPG,,ISIC_0033520.JPG,,26,true,0.3600000000000002,hh,keypress(i),0,false,308382.09999990463,308382,304574.196,304750.2999999523,304590.996,308225.165,1,40,27,
sequence,flow.Sequence,6_26,2023-11-29T16:37:07.141Z,,,,,,,,,,,3791.0040000000154,completion,,,,,,,high,low,,,,,,,true,,,,,false,308382.2000000477,308382,304574.196,304750.2999999523,304590.996,308225.165,1,40,,
trial,html.Screen,6_27_0,2023-11-29T16:37:10.293Z,,,,1,1.0959058628476686,1.1684835186766898,,,true,ll,3308.73499985697,response,-0.9306454722820696,1.2,-1.2,-0.9812399591657396,1.2,-1.2,low,low,,ISIC_5920470.JPG,,ISIC_0009940.JPG,,339,true,0.42000000000000026,ll,keypress(f),0,false,311534.09999990463,311533.89999985695,308191.14,308382.2000000477,308225.165,311374.346,1,40,28,
sequence,flow.Sequence,6_27,2023-11-29T16:37:10.293Z,,,,,,,,,,,3308.73499985697,completion,,,,,,,low,low,,,,,,,true,,,,,false,311534.2000000477,311533.89999985695,308191.14,308382.2000000477,308225.165,311374.346,1,40,,
trial,html.Screen,6_28_0,2023-11-29T16:37:12.613Z,,,,1,-1.2322060291690602,-1.2686491386389651,,,true,hh,2479.5539998569293,response,1.0789197754694622,1.2,-1.2,1.1654690806750023,1.2,-1.2,high,high,,ISIC_0011697.JPG,,ISIC_1576437.JPG,,26,true,0.15000000000000002,hh,keypress(i),0,false,313854.09999990463,313853.89999985695,311357.767,311534.2000000477,311374.346,313690.994,1,40,29,
sequence,flow.Sequence,6_28,2023-11-29T16:37:12.613Z,,,,,,,,,,,2479.5539998569293,completion,,,,,,,high,high,,,,,,,true,,,,,false,313854.2000000477,313853.89999985695,311357.767,311534.2000000477,311374.346,313690.994,1,40,,
trial,html.Screen,6_29_0,2023-11-29T16:37:17.381Z,,,,1,-0.8816288864119318,0.801867301188093,,,true,hl,4931.1059999046265,response,1.0865333402803938,1.2,-1.2,-1.0542635307358266,1.2,-1.2,high,low,,ISIC_9196783.JPG,,ISIC_0034006.JPG,,26,true,0.3600000000000002,hl,keypress(j),0,false,318622.2999999523,318622.09999990463,313674.41,313854.2000000477,313690.994,318457.708,1,40,30,
sequence,flow.Sequence,6_29,2023-11-29T16:37:17.381Z,,,,,,,,,,,4931.1059999046265,completion,,,,,,,high,low,,,,,,,true,,,,,false,318622.2999999523,318622.09999990463,313674.41,313854.2000000477,313690.994,318457.708,1,40,,
trial,html.Screen,6_30_0,2023-11-29T16:37:23.397Z,,,,1,0.869932994914832,-0.8880533324432531,,,true,lh,6179.792000000016,response,-1.276222161935671,1.2,-1.2,0.9657780821973284,1.2,-1.2,low,high,,ISIC_8617084.JPG,,ISIC_6710411.JPG,,27,true,0.42000000000000026,lh,keypress(e),0,false,324637.59999990463,324637.5,318441.018,318622.39999985695,318457.708,324474.288,1,40,31,
sequence,flow.Sequence,6_30,2023-11-29T16:37:23.397Z,,,,,,,,,,,6179.792000000016,completion,,,,,,,low,high,,,,,,,true,,,,,false,324637.7000000477,324637.5,318441.018,318622.2999999523,318457.708,324474.288,1,40,,
trial,html.Screen,6_31_0,2023-11-29T16:37:25.653Z,,,,1,0.8809306963311293,-0.8614910030038974,,,false,lh,2419.7119999999995,response,-0.8092423703106274,1.2,-1.2,1.1870093485714288,1.2,-1.2,low,high,,ISIC_0013731.JPG,,ISIC_8592235.JPG,,27,true,0.42000000000000026,hh,keypress(i),0,false,326894.09999990463,326894,324457.7,324637.7000000477,324474.288,326724.274,1,40,32,
sequence,flow.Sequence,6_31,2023-11-29T16:37:25.653Z,,,,,,,,,,,2419.7119999999995,completion,,,,,,,low,high,,,,,,,true,,,,,false,326894.2999999523,326894,324457.7,324637.7000000477,324474.288,326724.274,1,40,,
trial,html.Screen,6_32_0,2023-11-29T16:37:33.509Z,,,,1,-0.7998855902596425,1.1518579145663017,,,true,hl,8025.125999856973,response,1.2075172235545184,1.2,-1.2,-0.9116724966267612,1.2,-1.2,high,low,,ISIC_0025061.JPG,,ISIC_0024235.JPG,,26,true,0.3600000000000002,hl,keypress(j),0,false,334749.5,334749.39999985695,326707.828,326894.2999999523,326724.274,334591.374,1,40,33,
sequence,flow.Sequence,6_32,2023-11-29T16:37:33.509Z,,,,,,,,,,,8025.125999856973,completion,,,,,,,high,low,,,,,,,true,,,,,false,334749.59999990463,334749.39999985695,326707.828,326894.2999999523,326724.274,334591.374,1,40,,
trial,html.Screen,6_33_0,2023-11-29T16:37:38.469Z,,,,1,1.1598623261077452,1.203269031614007,,,false,ll,5118.525999856938,response,-0.7846840640804751,1.2,-1.2,-1.0912590313299513,1.2,-1.2,low,low,,ISIC_0002639.JPG,,ISIC_0026352.JPG,,339,true,0.42000000000000026,hl,keypress(j),0,false,339709.89999985695,339709.89999985695,334574.274,334749.59999990463,334591.374,339541.09,1,40,34,
sequence,flow.Sequence,6_33,2023-11-29T16:37:38.469Z,,,,,,,,,,,5118.525999856938,completion,,,,,,,low,low,,,,,,,true,,,,,false,339710,339709.89999985695,334574.274,334749.59999990463,334591.374,339541.09,1,40,,
trial,html.Screen,6_34_0,2023-11-29T16:37:40.325Z,,,,1,-1.2282561398079586,-1.210457198775374,,,true,hh,2024.7099999522907,response,1.2503149164557643,1.2,-1.2,1.0796591227570405,1.2,-1.2,high,high,,ISIC_9141817.JPG,,ISIC_2466892.JPG,,26,true,0.15000000000000002,hh,keypress(i),0,false,341565.89999985695,341565.7999999523,339524.381,339710.09999990463,339541.09,341408.145,1,40,35,
sequence,flow.Sequence,6_34,2023-11-29T16:37:40.325Z,,,,,,,,,,,2024.7099999522907,completion,,,,,,,high,high,,,,,,,true,,,,,false,341566,341565.7999999523,339524.381,339710.09999990463,339541.09,341408.145,1,40,,
trial,html.Screen,6_35_0,2023-11-29T16:37:42.661Z,,,,1,-0.7809949855371787,0.8493861117004308,,,false,hl,2493.75499985693,response,0.9433720631499012,1.2,-1.2,-1.0582071940347648,1.2,-1.2,high,low,,ISIC_7450481.JPG,,ISIC_4890201.JPG,,26,true,0.3600000000000002,hh,keypress(i),0,false,343901.89999985695,343901.89999985695,341374.505,341566,341408.145,343741.121,1,40,36,
sequence,flow.Sequence,6_35,2023-11-29T16:37:42.661Z,,,,,,,,,,,2493.75499985693,completion,,,,,,,high,low,,,,,,,true,,,,,false,343902.09999990463,343901.89999985695,341374.505,341566,341408.145,343741.121,1,40,,
trial,html.Screen,6_36_0,2023-11-29T16:37:46.485Z,,,,1,1.2331439637486756,-0.9691143900156988,,,true,lh,3985.079000047699,response,-0.8035152873995188,1.2,-1.2,0.82868450251632,1.2,-1.2,low,high,,ISIC_7877488.JPG,,ISIC_0010671.JPG,,27,true,0.42000000000000026,lh,keypress(e),0,false,347726.2000000477,347726.2000000477,343724.194,343902.09999990463,343741.121,347557.578,1,40,37,
sequence,flow.Sequence,6_36,2023-11-29T16:37:46.485Z,,,,,,,,,,,3985.079000047699,completion,,,,,,,low,high,,,,,,,true,,,,,false,347726.39999985695,347726.2000000477,343724.194,343902.09999990463,343741.121,347557.578,1,40,,
trial,html.Screen,6_37_0,2023-11-29T16:37:52.389Z,,,,1,-0.7809949855371787,0.8493861117004308,,,false,hl,6072.122000047704,response,0.8979276789594874,1.2,-1.2,-0.925374811016654,1.2,-1.2,high,low,,ISIC_7450481.JPG,,ISIC_4208361.JPG,,26,true,0.3600000000000002,hh,keypress(i),0,false,353629.7999999523,353629.7000000477,347541.006,347726.39999985695,347557.578,353457.589,1,40,38,
sequence,flow.Sequence,6_37,2023-11-29T16:37:52.389Z,,,,,,,,,,,6072.122000047704,completion,,,,,,,high,low,,,,,,,true,,,,,false,353629.89999985695,353629.7000000477,347541.006,347726.39999985695,347557.578,353457.589,1,40,,
trial,html.Screen,6_38_0,2023-11-29T16:37:54.645Z,,,,1,0.8979276789594874,-0.925374811016654,,,true,lh,2428.411000000022,response,-0.991146183030456,1.2,-1.2,0.9949639823722534,1.2,-1.2,low,high,,ISIC_4208361.JPG,,ISIC_6342224.JPG,,27,true,0.42000000000000026,lh,keypress(e),0,false,355886.09999990463,355886,353440.988,353630,353457.589,355724.511,1,40,39,
sequence,flow.Sequence,6_38,2023-11-29T16:37:54.645Z,,,,,,,,,,,2428.411000000022,completion,,,,,,,low,high,,,,,,,true,,,,,false,355886.09999990463,355886,353440.988,353630,353457.589,355724.511,1,40,,
trial,html.Screen,6_39_0,2023-11-29T16:37:56.501Z,,,,1,1.0870240111136478,1.332340670965917,,,false,ll,2017.088999904634,response,-0.9147928199303512,1.2,-1.2,-1.1862713348854166,1.2,-1.2,low,low,,ISIC_0000660.JPG,,ISIC_0015136.JPG,,245,true,0.3600000000000002,hh,keypress(i),0,false,357741.7000000477,357741.59999990463,355707.967,355886.2000000477,355724.511,357574.445,1,40,40,
sequence,flow.Sequence,6_39,2023-11-29T16:37:56.501Z,,,,,,,,,,,2017.088999904634,completion,,,,,,,low,low,,,,,,,true,,,,,false,357741.7999999523,357741.59999990463,355707.967,355886.09999990463,355724.511,357574.445,1,40,,
practice_loop,flow.Loop,6,2023-11-29T16:37:56.501Z,,,,,,,,,,,192950.31199990463,completion,,,,,,,,,,,,,,,true,,,,,false,357741.89999985695,357741.59999990463,164774.684,164941.29999995232,164791.288,357574.445,1,40,,
stair_instructions,html.Screen,7,2023-11-29T16:38:01.996Z,,,,,,,,,,,5662.054999999993,response,,,,,,,,,,,,,,,,,continue,click button,,,363237.09999990463,363236.5,357557.918,357741.89999985695,357574.445,363074.247,,,,
trial,html.Screen,8_0_0,2023-11-29T16:38:12.455Z,,,,2,-0.0456515796420274,0.0273567130070961,,0.05,true,lh,10621.652999856975,response,-1.0213365328004047,1.2,-1.2,1.088524359911891,1.2,-1.2,low,high,,ISIC_0068610.JPG,,ISIC_5434229.JPG,33,27,false,0.42000000000000026,lh,keypress(e),0,true,373696,373695.89999985695,363057.743,363237.39999985695,363074.247,373541.338,1,40,1,
sequence,flow.Sequence,8_0,2023-11-29T16:38:12.455Z,,,,,,,,,,,10621.652999856975,completion,,,,,,,low,high,,,,,,,false,,,,,true,373696.09999990463,373695.89999985695,363057.743,363237.2999999523,363074.247,373541.338,1,40,,
trial,html.Screen,8_1_0,2023-11-29T16:38:17.287Z,,,,2,0.0051189696037511,-0.0396625911332438,,0.05,true,lh,4986.56199985696,response,-0.7871162143493278,1.15,-1.15,0.8429329800778957,1.15,-1.15,low,high,,ISIC_9742891.JPG,,ISIC_3439215.JPG,33,27,false,0.3700000000000002,lh,keypress(e),0,true,378528,378527.89999985695,373524.22,373696.09999990463,373541.338,378357.653,1,40,2,
sequence,flow.Sequence,8_1,2023-11-29T16:38:17.287Z,,,,,,,,,,,4986.56199985696,completion,,,,,,,low,high,,,,,,,false,,,,,true,378528.09999990463,378527.89999985695,373524.22,373696.09999990463,373541.338,378357.653,1,40,,
trial,html.Screen,8_2_0,2023-11-29T16:38:21.301Z,,,,2,0.0051189696037511,-0.0396625911332438,,0.05,false,ll,4184.246999856958,response,-1.1762578943048685,1.15,-1.0999999999999999,-1.0434857167145009,0.9157286699948933,-1.15,low,low,,ISIC_9742891.JPG,,ISIC_0032544.JPG,33,30,false,0.11,hl,keypress(j),0,true,382542,382541.89999985695,378341.01,378528.09999990463,378357.653,382374.417,1,40,3,
sequence,flow.Sequence,8_2,2023-11-29T16:38:21.301Z,,,,,,,,,,,4184.246999856958,completion,,,,,,,low,low,,,,,,,false,,,,,true,382542.09999990463,382541.89999985695,378341.01,378528.09999990463,378357.653,382374.417,1,40,,
trial,html.Screen,8_3_0,2023-11-29T16:38:23.653Z,,,,2,-0.0069555338059566,0.0310100918136373,,0.05,true,ll,2519.283000047668,response,-1.2071341803968807,1.15,-1.15,-1.235960269089932,0.9157286699948933,-1.15,low,low,,ISIC_0011177.JPG,,ISIC_0058174.JPG,33,27,false,0.1,ll,keypress(f),0,true,384893.7000000477,384893.7000000477,382357.709,382542.2000000477,382374.417,384724.382,1,40,4,
sequence,flow.Sequence,8_3,2023-11-29T16:38:23.653Z,,,,,,,,,,,2519.283000047668,completion,,,,,,,low,low,,,,,,,false,,,,,true,384893.89999985695,384893.7000000477,382357.709,382542.2000000477,382374.417,384724.382,1,40,,
trial,html.Screen,8_4_0,2023-11-29T16:38:26.069Z,,,,2,0.0134764727102299,0.0033499036460912,,0.05,true,hh,2585.5179998569656,response,1.135787555082309,1.15,-1.15,1.0095789588135065,0.9157286699948933,-1.1715472247434062,high,high,,ISIC_0009998.JPG,,ISIC_0032526.JPG,33,28,false,0.1,hh,keypress(i),0,true,387310,387309.89999985695,384707.941,384893.89999985695,384724.382,387140.961,1,40,5,
sequence,flow.Sequence,8_4,2023-11-29T16:38:26.069Z,,,,,,,,,,,2585.5179998569656,completion,,,,,,,high,high,,,,,,,false,,,,,true,387310.2000000477,387309.89999985695,384707.941,384893.89999985695,384724.382,387140.961,1,40,,
trial,html.Screen,8_5_0,2023-11-29T16:38:29.877Z,,,,2,0.000047919190197942736,0.0462652940855003,,0.05,false,hh,3976.6389999046223,response,1.1992690276444409,1.15,-1.15,0.8422907349004582,0.9157286699948933,-1.1715472247434062,high,high,,ISIC_0011507.JPG,,ISIC_5934948.JPG,33,28,false,0.1,lh,keypress(e),0,true,391117.7000000477,391117.59999990463,387124.602,387310.2000000477,387140.961,390957.818,1,40,6,
sequence,flow.Sequence,8_5,2023-11-29T16:38:29.877Z,,,,,,,,,,,3976.6389999046223,completion,,,,,,,high,high,,,,,,,false,,,,,true,391118,391117.59999990463,387124.602,387310.2000000477,387140.961,390957.818,1,40,,
trial,html.Screen,8_6_0,2023-11-29T16:38:45.704Z,,,,2,0.0051189696037511,-0.0396625911332438,,0.05,,,15816.360999999975,timeout,1.0955230579285264,1.15,-1.15,0.8842300616754196,0.8759348468569823,-1.1715472247434062,high,high,,ISIC_9742891.JPG,,ISIC_4148086.JPG,33,29,false,0.1,,,0,true,406945.59999990463,406945.5,390941.036,391118,390957.818,406774.179,1,40,7,
sequence,flow.Sequence,8_6,2023-11-29T16:38:45.705Z,,,,,,,,,,,15987.681999999972,completion,,,,,,,high,high,,,,,,,false,,,,,true,406945.7000000477,406945.5,390941.036,391118,390957.818,406774.179,1,40,,
trial,html.Screen,8_7_0,2023-11-29T16:39:01.571Z,,,,2,-0.007397293189458,-0.0174716772037504,,0.05,,,15866.646999999997,timeout,-1.0122398223568725,1.15,-1.15,0.7505228537454216,0.8759348468569823,-1.1715472247434062,low,high,,ISIC_0056226.JPG,,ISIC_0033802.JPG,33,27,false,0.2600000000000001,,,0,true,422811.7000000477,422811.59999990463,406757.53,406945.7000000477,406774.179,422640.826,1,40,8,
sequence,flow.Sequence,8_7,2023-11-29T16:39:01.571Z,,,,,,,,,,,16037.420999904629,completion,,,,,,,low,high,,,,,,,false,,,,,true,422811.7999999523,422811.59999990463,406757.53,406945.7000000477,406774.179,422640.826,1,40,,
trial,html.Screen,8_8_0,2023-11-29T16:39:09.365Z,,,,2,-0.0363437082783146,-0.0333332186217051,,0.05,false,lh,7964.874000047683,response,-1.073191619565092,1.15,-1.15,0.6195550709150465,0.8759348468569823,-1.1715472247434062,low,high,,ISIC_3314555.JPG,,ISIC_9386509.JPG,33,27,false,0.2600000000000001,hh,keypress(i),0,true,430605.7999999523,430605.7000000477,422624.354,422811.89999985695,422640.826,430440.949,1,40,9,
sequence,flow.Sequence,8_8,2023-11-29T16:39:09.365Z,,,,,,,,,,,7964.874000047683,completion,,,,,,,low,high,,,,,,,false,,,,,true,430605.89999985695,430605.7000000477,422624.354,422811.89999985695,422640.826,430440.949,1,40,,
trial,html.Screen,8_9_0,2023-11-29T16:39:13.365Z,,,,2,-0.0070725527271049,-0.0049995141077508,,0.05,true,ll,4164.9509998569265,response,-1.101214461533281,1.15,-1.15,-1.1849883512428183,0.8759348468569823,-1.1715472247434062,low,low,,ISIC_6124481.JPG,,ISIC_0064943.JPG,33,31,false,0.1,ll,keypress(f),0,true,434606,434605.89999985695,430424.345,430605.89999985695,430440.949,434440.817,1,40,10,
sequence,flow.Sequence,8_9,2023-11-29T16:39:13.365Z,,,,,,,,,,,4164.9509998569265,completion,,,,,,,low,low,,,,,,,false,,,,,true,434606.09999990463,434605.89999985695,430424.345,430605.89999985695,430440.949,434440.817,1,40,,
trial,html.Screen,8_10_0,2023-11-29T16:39:20.949Z,,,,2,-0.0389988030702649,-0.0143212271490256,,0.05,true,hh,7749.183000000019,response,1.1011373150916248,1.15,-1.15,0.7816231038128233,0.8759348468569823,-1.1715472247434062,high,high,,ISIC_0064669.JPG,,ISIC_8477065.JPG,33,29,false,0.1,hh,keypress(i),0,true,442190.09999990463,442190,434424.198,434606.2000000477,434440.817,442024.139,1,40,11,
sequence,flow.Sequence,8_10,2023-11-29T16:39:20.949Z,,,,,,,,,,,7749.183000000019,completion,,,,,,,high,high,,,,,,,false,,,,,true,442190.2999999523,442190,434424.198,434606.2000000477,434440.817,442024.139,1,40,,
trial,html.Screen,8_11_0,2023-11-29T16:39:27.845Z,,,,2,-0.0217698886732706,0.0410870915161425,,0.05,true,lh,7061.860999999975,response,-1.1615388892961138,1.15,-1.15,0.6952763480624806,0.8913802094522241,-1.1715472247434062,low,high,,ISIC_0072173.JPG,,ISIC_1280780.JPG,33,26,false,0.27000000000000013,lh,keypress(e),0,true,449086.09999990463,449086,442007.251,442190.2999999523,442024.139,448924.225,1,40,12,
sequence,flow.Sequence,8_11,2023-11-29T16:39:27.845Z,,,,,,,,,,,7061.860999999975,completion,,,,,,,low,high,,,,,,,false,,,,,true,449086.2000000477,449086,442007.251,442190.2999999523,442024.139,448924.225,1,40,,
trial,html.Screen,8_12_0,2023-11-29T16:39:33.477Z,,,,2,0.0097091270150747,-0.0417921315885292,,0.05,true,hh,5793.775000000023,response,1.079549480496248,1.15,-1.0999999999999999,0.9336079040538864,0.8913802094522241,-1.1715472247434062,high,high,,ISIC_3967213.JPG,,ISIC_6913045.JPG,33,28,false,0.1,hh,keypress(i),0,true,454718.09999990463,454718,448907.515,449086.2000000477,448924.225,454557.675,1,40,13,
sequence,flow.Sequence,8_12,2023-11-29T16:39:33.477Z,,,,,,,,,,,5793.775000000023,completion,,,,,,,high,high,,,,,,,false,,,,,true,454718.2000000477,454718,448907.515,449086.2000000477,448924.225,454557.675,1,40,,
trial,html.Screen,8_13_0,2023-11-29T16:39:49.356Z,,,,2,-0.0057914759495055,-0.0074667911845194,,0.05,,,15866.440999999992,timeout,0.6866025217140785,0.7644421260581835,-1.0999999999999999,-0.9978764930756644,0.7644421260581835,-1.1715472247434062,high,low,,ISIC_0058723.JPG,,ISIC_0009100.JPG,33,28,false,0.20000000000000007,,,0,true,470596.89999985695,470596.7999999523,454541.066,454718.2999999523,454557.675,470424.116,1,40,14,
sequence,flow.Sequence,8_13,2023-11-29T16:39:49.356Z,,,,,,,,,,,16039.124999952328,completion,,,,,,,high,low,,,,,,,false,,,,,true,470597,470596.7999999523,454541.066,454718.2999999523,454557.675,470424.116,1,40,,
trial,html.Screen,8_14_0,2023-11-29T16:40:05.168Z,,,,2,0,0.0264544974620926,,0.05,,,15816.779000000039,timeout,0.8399678098416189,0.7644421260581835,-1.0999999999999999,0.7546375633653641,0.7644421260581835,-1.1715472247434062,high,high,,ISIC_0056991.JPG,,ISIC_3994250.JPG,33,68,false,0.1,,,0,true,486408.7999999523,486408.59999990463,470407.704,470597,470424.116,486240.895,1,40,15,
sequence,flow.Sequence,8_14,2023-11-29T16:40:05.168Z,,,,,,,,,,,15984.483999904653,completion,,,,,,,high,high,,,,,,,false,,,,,true,486408.89999985695,486408.59999990463,470407.704,470597,470424.116,486240.895,1,40,,
trial,html.Screen,8_15_0,2023-11-29T16:40:09.941Z,,,,2,0.0245376145053177,-0.0436993426328401,,0.05,false,hh,4940.704999904614,response,0.7055427605250187,0.7644421260581835,-1.0999999999999999,0.7933847109872884,0.7644421260581835,-1.1715472247434062,high,high,,ISIC_0056444.JPG,,ISIC_3552318.JPG,33,68,false,0.1,lh,keypress(e),0,true,491181.7000000477,491181.59999990463,486224.355,486408.89999985695,486240.895,491024.637,1,40,16,
sequence,flow.Sequence,8_15,2023-11-29T16:40:09.941Z,,,,,,,,,,,4940.704999904614,completion,,,,,,,high,high,,,,,,,false,,,,,true,491181.7999999523,491181.59999990463,486224.355,486408.89999985695,486240.895,491024.637,1,40,,
trial,html.Screen,8_16_0,2023-11-29T16:40:12.325Z,,,,2,0.0188047466661863,-0.0288346930436979,,0.05,false,hl,2540.762999856961,response,0.7836356408583546,0.8144421260581836,-1.0999999999999999,-1.1197925594706428,0.7644421260581835,-1.1715472247434062,high,low,,ISIC_0014157.JPG,,ISIC_0024961.JPG,33,27,false,0.21000000000000008,ll,keypress(f),0,true,493565.59999990463,493565.39999985695,490990.576,491181.89999985695,491024.637,493407.94,1,40,17,
sequence,flow.Sequence,8_16,2023-11-29T16:40:12.325Z,,,,,,,,,,,2540.762999856961,completion,,,,,,,high,low,,,,,,,false,,,,,true,493565.59999990463,493565.39999985695,490990.576,491181.89999985695,491024.637,493407.94,1,40,,
trial,html.Screen,8_17_0,2023-11-29T16:40:14.933Z,,,,2,0.0112310719058792,-0.0469047359904117,,0.05,false,hl,2765.859999952314,response,0.8579451262594331,0.8644421260581836,-1.0999999999999999,-0.9633172970727744,0.7644421260581835,-1.1215472247434062,high,low,,ISIC_0068184.JPG,,ISIC_0067172.JPG,33,26,false,0.19000000000000006,hh,keypress(i),0,true,496173.89999985695,496173.7999999523,493374.074,493565.7000000477,493407.94,496007.52,1,40,18,
sequence,flow.Sequence,8_17,2023-11-29T16:40:14.933Z,,,,,,,,,,,2765.859999952314,completion,,,,,,,high,low,,,,,,,false,,,,,true,496174,496173.7999999523,493374.074,493565.7000000477,493407.94,496007.52,1,40,,
trial,html.Screen,8_18_0,2023-11-29T16:40:22.341Z,,,,2,-0.0456515796420274,0.0273567130070961,,0.05,false,hh,7573.87999985693,response,0.7647836924873925,0.8644421260581836,-1.0999999999999999,0.8316555381467203,0.7644421260581835,-1.1715472247434062,high,high,,ISIC_0068610.JPG,,ISIC_0027145.JPG,33,60,false,0.1,lh,keypress(e),0,true,503581.5,503581.39999985695,495990.713,496174.09999990463,496007.52,503407.396,1,40,19,
sequence,flow.Sequence,8_18,2023-11-29T16:40:22.341Z,,,,,,,,,,,7573.87999985693,completion,,,,,,,high,high,,,,,,,false,,,,,true,503581.59999990463,503581.39999985695,495990.713,496174,496007.52,503407.396,1,40,,
trial,html.Screen,8_19_0,2023-11-29T16:40:27.044Z,,,,2,-0.0057914759495055,-0.0074667911845194,,0.05,false,hl,4877.403999952308,response,0.7836356408583546,0.9144421260581836,-1.0999999999999999,-1.1197925594706428,0.7948003322030767,-1.1715472247434062,high,low,,ISIC_0058723.JPG,,ISIC_0024961.JPG,33,27,false,0.2300000000000001,hh,keypress(i),0,true,508284.89999985695,508284.7999999523,503390.575,503581.59999990463,503407.396,508124.061,1,40,20,
sequence,flow.Sequence,8_19,2023-11-29T16:40:27.044Z,,,,,,,,,,,4877.403999952308,completion,,,,,,,high,low,,,,,,,false,,,,,true,508285,508284.7999999523,503390.575,503581.59999990463,503407.396,508124.061,1,40,,
trial,html.Screen,8_20_0,2023-11-29T16:40:29.348Z,,,,2,0.0051189696037511,-0.0396625911332438,,0.05,true,ll,2465.1390000476968,response,-1.188743606919222,0.9144421260581836,-1.0999999999999999,-1.0980226451001782,0.7948003322030767,-1.1715472247434062,low,low,,ISIC_9742891.JPG,,ISIC_0060481.JPG,33,26,false,0.1,ll,keypress(f),0,true,510589.2999999523,510589.2000000477,508107.475,508285,508124.061,510424.223,1,40,21,
sequence,flow.Sequence,8_20,2023-11-29T16:40:29.349Z,,,,,,,,,,,2465.1390000476968,completion,,,,,,,low,low,,,,,,,false,,,,,true,510589.5,510589.2000000477,508107.475,508285,508124.061,510424.223,1,40,,
trial,html.Screen,8_21_0,2023-11-29T16:40:32.677Z,,,,2,0.0277178575053843,-0.0395587463147856,,0.05,false,lh,3493.777000000002,response,-0.9580096600137252,0.9144421260581836,-1.0999999999999999,0.6337880611168651,0.7948003322030767,-1.1715472247434062,low,high,,ISIC_0010807.JPG,,ISIC_0026008.JPG,33,29,false,0.21000000000000008,hh,keypress(i),0,true,513918,513918,510407.369,510589.5,510424.223,513757.607,1,40,22,
sequence,flow.Sequence,8_21,2023-11-29T16:40:32.677Z,,,,,,,,,,,3493.777000000002,completion,,,,,,,low,high,,,,,,,false,,,,,true,513918.09999990463,513918,510407.369,510589.5,510424.223,513757.607,1,40,,
trial,html.Screen,8_22_0,2023-11-29T16:40:35.061Z,,,,2,0.0362376068089956,0.047825070846155,,0.05,true,lh,2544.0930000476656,response,-0.9388029871780448,0.9144421260581836,-1.15,0.6990723246540984,0.7948003322030767,-1.1715472247434062,low,high,,ISIC_6985114.JPG,,ISIC_0014190.JPG,33,26,false,0.22000000000000008,lh,keypress(e),0,true,516301.7999999523,516301.7000000477,513740.905,513918.2000000477,513757.607,516140.942,1,40,23,
sequence,flow.Sequence,8_22,2023-11-29T16:40:35.061Z,,,,,,,,,,,2544.0930000476656,completion,,,,,,,low,high,,,,,,,false,,,,,true,516301.89999985695,516301.7000000477,513740.905,513918.2000000477,513757.607,516140.942,1,40,,
trial,html.Screen,8_23_0,2023-11-29T16:40:40.085Z,,,,2,-0.0329095507339554,0.0382899749693245,,0.05,true,ll,5184.758000047703,response,-1.247270138097585,0.9144421260581836,-1.15,-1.1704704713504994,0.7448003322030766,-1.1715472247434062,low,low,,ISIC_8812781.JPG,,ISIC_0065774.JPG,33,31,false,0.1,ll,keypress(f),0,true,521325.7999999523,521325.7000000477,516124.275,516301.89999985695,516140.942,521157.436,1,40,24,
sequence,flow.Sequence,8_23,2023-11-29T16:40:40.085Z,,,,,,,,,,,5184.758000047703,completion,,,,,,,low,low,,,,,,,false,,,,,true,521325.89999985695,521325.7000000477,516124.275,516301.89999985695,516140.942,521157.436,1,40,,
trial,html.Screen,8_24_0,2023-11-29T16:40:43.348Z,,,,2,-0.0107854985447517,-0.0478010417136109,,0.05,false,hl,3431.463999856962,response,1.0865333402803938,0.9144421260581836,-1.004636729264272,-1.0542635307358266,0.7448003322030766,-1.004636729264272,high,low,,ISIC_0010500.JPG,,ISIC_0034006.JPG,33,25,false,0.19000000000000006,lh,keypress(e),0,true,524589,524588.899999857,521140.785,521325.89999985695,521157.436,524424.052,1,40,25,
sequence,flow.Sequence,8_24,2023-11-29T16:40:43.348Z,,,,,,,,,,,3431.463999856962,completion,,,,,,,high,low,,,,,,,false,,,,,true,524589.0999999046,524588.899999857,521140.785,521325.89999985695,521157.436,524424.052,1,40,,
trial,html.Screen,8_25_0,2023-11-29T16:40:51.205Z,,,,2,-0.0389988030702649,-0.0143212271490256,,0.05,false,hl,8021.847999856924,response,0.8809306963311293,0.9644421260581837,-1.004636729264272,-0.8614910030038974,0.7448003322030766,-1.054636729264272,high,low,,ISIC_0064669.JPG,,ISIC_0013731.JPG,33,25,false,0.22000000000000008,ll,keypress(f),0,true,532446,532445.899999857,524407.514,524589.2000000477,524424.052,532274.031,1,40,26,
sequence,flow.Sequence,8_25,2023-11-29T16:40:51.205Z,,,,,,,,,,,8021.847999856924,completion,,,,,,,high,low,,,,,,,false,,,,,true,532446,532445.899999857,524407.514,524589.2000000477,524424.052,532274.031,1,40,,
trial,html.Screen,8_26_0,2023-11-29T16:40:55.349Z,,,,2,-0.007397293189458,-0.0174716772037504,,0.05,false,lh,4315.768999952357,response,-0.8484262439038232,1.0144421260581837,-1.004636729264272,0.6791355686919245,0.7448003322030766,-1.054636729264272,low,high,,ISIC_0056226.JPG,,ISIC_9436034.JPG,33,26,false,0.16000000000000003,hh,keypress(i),0,true,536589.899999857,536589.7999999523,532257.585,532446.0999999046,532274.031,536424.028,1,40,27,
sequence,flow.Sequence,8_26,2023-11-29T16:40:55.349Z,,,,,,,,,,,4315.768999952357,completion,,,,,,,low,high,,,,,,,false,,,,,true,536590,536589.7999999523,532257.585,532446.0999999046,532274.031,536424.028,1,40,,
trial,html.Screen,8_27_0,2023-11-29T16:40:59.493Z,,,,2,-0.0450282431170921,0,,0.05,false,hl,4309.3719998568995,response,0.8579451262594331,1.0144421260581837,-1.054636729264272,-0.9633172970727744,0.7448003322030766,-1.054636729264272,high,low,,ISIC_1805163.JPG,,ISIC_0067172.JPG,33,27,false,0.2400000000000001,hh,keypress(i),0,true,540733.5,540733.399999857,536407.733,536590.0999999046,536424.028,540574.295,1,40,28,
sequence,flow.Sequence,8_27,2023-11-29T16:40:59.493Z,,,,,,,,,,,4309.3719998568995,completion,,,,,,,high,low,,,,,,,false,,,,,true,540733.5999999046,540733.399999857,536407.733,536590.0999999046,536424.028,540574.295,1,40,,
trial,html.Screen,8_28_0,2023-11-29T16:41:09.078Z,,,,2,0.0245376145053177,-0.0436993426328401,,0.05,false,hl,9744.004999952274,response,0.7745647318095624,1.0144421260581837,-1.054636729264272,-1.1610302064435811,0.7448003322030766,-1.104636729264272,high,low,,ISIC_0056444.JPG,,ISIC_0033004.JPG,33,26,false,0.2500000000000001,hh,keypress(i),0,true,550318.5,550318.2999999523,540557.473,540733.7000000477,540574.295,550157.423,1,40,29,
sequence,flow.Sequence,8_28,2023-11-29T16:41:09.078Z,,,,,,,,,,,9744.004999952274,completion,,,,,,,high,low,,,,,,,false,,,,,true,550318.5999999046,550318.2999999523,540557.473,540733.5999999046,540574.295,550157.423,1,40,,
trial,html.Screen,8_29_0,2023-11-29T16:41:13.973Z,,,,2,0.000047919190197942736,0.0462652940855003,,0.05,false,lh,5056.376999952365,response,-1.0748728054622358,0.7662549290344978,-1.054636729264272,0.6883893701485907,0.7448003322030766,-1.154636729264272,low,high,,ISIC_0011507.JPG,,ISIC_0059219.JPG,33,25,false,0.17000000000000004,hh,keypress(i),0,true,555213.7999999523,555213.7999999523,550140.806,550318.7000000477,550157.423,555040.693,1,40,30,
sequence,flow.Sequence,8_29,2023-11-29T16:41:13.973Z,,,,,,,,,,,5056.376999952365,completion,,,,,,,low,high,,,,,,,false,,,,,true,555214,555213.7999999523,550140.806,550318.7000000477,550157.423,555040.693,1,40,,
trial,html.Screen,8_30_0,2023-11-29T16:41:16.309Z,,,,2,0.0188047466661863,-0.0288346930436979,,0.05,false,hl,2508.9069999046624,response,0.7622914383475332,0.7662549290344978,-1.104636729264272,-1.2637655821850098,0.7231672482040119,-1.154636729264272,high,low,,ISIC_0014157.JPG,,ISIC_0032005.JPG,33,25,false,0.19000000000000006,hh,keypress(i),0,true,557549.7999999523,557549.5999999046,555024.124,555214.0999999046,555040.693,557390.929,1,40,31,
sequence,flow.Sequence,8_30,2023-11-29T16:41:16.309Z,,,,,,,,,,,2508.9069999046624,completion,,,,,,,high,low,,,,,,,false,,,,,true,557549.7999999523,557549.5999999046,555024.124,555214,555040.693,557390.929,1,40,,
trial,html.Screen,8_31_0,2023-11-29T16:41:19.861Z,,,,2,-0.0027483411352856,-0.0100996915276271,,0.05,false,hh,3710.670999904629,response,0.83641796815312,0.7662549290344978,-1.104636729264272,0.6896038848182635,0.7231672482040119,-1.154636729264272,high,high,,ISIC_7364041.JPG,,ISIC_4132082.JPG,33,78,false,0.1,ll,keypress(f),0,true,561101.7999999523,561101.5999999046,557374.404,557549.899999857,557390.929,560940.853,1,40,32,
sequence,flow.Sequence,8_31,2023-11-29T16:41:19.861Z,,,,,,,,,,,3710.670999904629,completion,,,,,,,high,high,,,,,,,false,,,,,true,561101.899999857,561101.5999999046,557374.404,557549.899999857,557390.929,560940.853,1,40,,
trial,html.Screen,8_32_0,2023-11-29T16:41:24.997Z,,,,2,-0.0389988030702649,-0.0143212271490256,,0.05,false,ll,5296.9469999523135,response,-1.1346217981791904,0.8162549290344978,-1.104636729264272,-1.1555132168806113,0.773167248204012,-1.154636729264272,low,low,,ISIC_0064669.JPG,,ISIC_0032771.JPG,33,26,false,0.1,hh,keypress(i),0,true,566237.899999857,566237.7999999523,560924.157,561101.899999857,560940.853,566074.193,1,40,33,
sequence,flow.Sequence,8_32,2023-11-29T16:41:24.997Z,,,,,,,,,,,5296.9469999523135,completion,,,,,,,low,low,,,,,,,false,,,,,true,566238,566237.7999999523,560924.157,561101.899999857,560940.853,566074.193,1,40,,
trial,html.Screen,8_33_0,2023-11-29T16:41:30.165Z,,,,2,0.000047919190197942736,0.0462652940855003,,0.05,false,lh,5331.0070000477135,response,-0.9873794329144926,0.8162549290344978,-1.154636729264272,0.7991077882008257,0.773167248204012,-1.154636729264272,low,high,,ISIC_0011507.JPG,,ISIC_0013498.JPG,33,25,false,0.22000000000000008,ll,keypress(f),0,true,571405.399999857,571405.2000000477,566057.204,566238.0999999046,566074.193,571240.693,1,40,34,
sequence,flow.Sequence,8_33,2023-11-29T16:41:30.165Z,,,,,,,,,,,5331.0070000477135,completion,,,,,,,low,high,,,,,,,false,,,,,true,571405.5999999046,571405.2000000477,566057.204,566238.0999999046,566074.193,571240.693,1,40,,
trial,html.Screen,8_34_0,2023-11-29T16:41:34.837Z,,,,2,0.013431314305098,-0.0140597582944232,,0.05,false,ll,4836.5070000477135,response,-1.135372722680314,0.8162549290344978,-1.154636729264272,-1.0926414044454305,0.823167248204012,-1.154636729264272,low,low,,ISIC_0069617.JPG,,ISIC_2355513.JPG,33,28,false,0.1,hh,keypress(i),0,true,576077.399999857,576077.2000000477,571224.072,571405.5999999046,571240.693,575907.315,1,40,35,
sequence,flow.Sequence,8_34,2023-11-29T16:41:34.837Z,,,,,,,,,,,4836.5070000477135,completion,,,,,,,low,low,,,,,,,false,,,,,true,576077.399999857,576077.2000000477,571224.072,571405.5999999046,571240.693,575907.315,1,40,,
trial,html.Screen,8_35_0,2023-11-29T16:41:38.133Z,,,,2,-0.0085520978188085,0.0464691161264081,,0.05,false,hl,3466.3850000477396,response,0.6866025217140785,0.8162549290344978,-1.154636729264272,-0.9978764930756644,0.823167248204012,-1.154636729264272,high,low,,ISIC_0758797.JPG,,ISIC_0009100.JPG,33,26,false,0.20000000000000007,lh,keypress(e),0,true,579373.7999999523,579373.7000000477,575890.514,576077.5,575907.315,579207.292,1,40,36,
sequence,flow.Sequence,8_35,2023-11-29T16:41:38.133Z,,,,,,,,,,,3466.3850000477396,completion,,,,,,,high,low,,,,,,,false,,,,,true,579374,579373.7000000477,575890.514,576077.399999857,575907.315,579207.292,1,40,,
trial,html.Screen,8_36_0,2023-11-29T16:41:41.925Z,,,,2,0.0102460616775615,-0.0309670599545429,,0.05,true,ll,3958.607999856933,response,-1.0762260610050776,0.8662549290344979,-1.154636729264272,-1.082709423673037,0.823167248204012,-1.154636729264272,low,low,,ISIC_0072041.JPG,,ISIC_0058666.JPG,33,28,false,0.1,ll,keypress(f),0,true,583165.899999857,583165.899999857,579190.822,579374,579207.292,583024.238,1,40,37,
sequence,flow.Sequence,8_36,2023-11-29T16:41:41.925Z,,,,,,,,,,,3958.607999856933,completion,,,,,,,low,low,,,,,,,false,,,,,true,583166,583165.899999857,579190.822,579374,579207.292,583024.238,1,40,,
trial,html.Screen,8_37_0,2023-11-29T16:41:49.973Z,,,,2,0.000047919190197942736,0.0462652940855003,,0.05,true,ll,8189.561999952304,response,-1.1877026569952844,0.8662549290344979,-1.154636729264272,-1.1604367569896263,0.823167248204012,-1.154636729264272,low,low,,ISIC_0011507.JPG,,ISIC_0064589.JPG,33,28,false,0.1,ll,keypress(f),0,true,591213.899999857,591213.7999999523,583007.506,583166.0999999046,583024.238,591040.635,1,40,38,
sequence,flow.Sequence,8_37,2023-11-29T16:41:49.973Z,,,,,,,,,,,8189.561999952304,completion,,,,,,,low,low,,,,,,,false,,,,,true,591214,591213.7999999523,583007.506,583166.0999999046,583024.238,591040.635,1,40,,
trial,html.Screen,8_38_0,2023-11-29T16:41:54.997Z,,,,2,0.013431314305098,-0.0140597582944232,,0.05,true,ll,5197.2649998569395,response,-0.9777849718157332,0.8662549290344979,-1.0715730903313316,-1.117811430082889,0.823167248204012,-1.0715730903313316,low,low,,ISIC_0069617.JPG,,ISIC_3256887.JPG,33,29,false,0.1,ll,keypress(f),0,true,596238.0999999046,596237.899999857,591023.851,591214,591040.635,596074.145,1,40,39,
sequence,flow.Sequence,8_38,2023-11-29T16:41:54.997Z,,,,,,,,,,,5197.2649998569395,completion,,,,,,,low,low,,,,,,,false,,,,,true,596238.2000000477,596237.899999857,591023.851,591214,591040.635,596074.145,1,40,,
trial,html.Screen,8_39_0,2023-11-29T16:42:10.809Z,,,,2,-0.0329095507339554,0.0382899749693245,,0.05,,,15816.491000000038,timeout,0.9612329482175124,0.8662549290344979,-1.0715730903313316,0.8723650867900061,0.823167248204012,-1.0715730903313316,high,high,,ISIC_8812781.JPG,,ISIC_4563766.JPG,33,50,false,0.1,,,0,true,612049.399999857,612049.2000000477,596057.319,596238.2000000477,596074.145,611890.636,1,40,40,
sequence,flow.Sequence,8_39,2023-11-29T16:42:10.809Z,,,,,,,,,,,15975.055000047665,completion,,,,,,,high,high,,,,,,,false,,,,,true,612049.5,612049.2000000477,596057.319,596238.2000000477,596074.145,611890.636,1,40,,
stair_loop,flow.Loop,8,2023-11-29T16:42:10.809Z,,,,,,,,,,,248974.9530000477,completion,,,,,,,,,,,,,,,false,,,,,true,612049.5,612049.2000000477,363057.743,363237.2999999523,363074.247,611890.636,1,40,,
exp_instructions,html.Screen,9,2023-11-29T16:42:17.749Z,,,,,,,,,,,7098.363999999943,response,,,,,,,,,,,,,,,,,continue,keypress(Space),,,618989.2999999523,618989,611857.559,612049.5,611890.636,618823.956,,,,
trial,html.Screen,10_0_0,2023-11-29T16:42:22.807Z,,,,1,-0.039728379742806,0.0228701131373768,,0.05,true,hh,5223.843999952311,response,0.9416900312335138,0.8804391676951562,-1.0954030195181235,0.8071149391753215,0.7764837902035442,-1.1247124644668047,high,high,,ISIC_0054073.JPG,9,ISIC_2784686.JPG,33,56,false,0.1,hh,keypress(i),0,false,624047.899999857,624047.7999999523,618807.237,618989.399999857,618823.956,623873.92,5,600,1,
break,html.Screen,10_0_1,2023-11-29T16:42:22.808Z,,,,,,,,,,,NaN,,,,,,,,high,high,,,,,,,false,,,,,false,624048.399999857,624048.2000000477,,624048,,623873.92,5,600,,
break_continue,html.Screen,10_0_2,2023-11-29T16:42:22.808Z,,,,,,,,,,,NaN,,,,,,,,high,high,,,,,,,false,,,,,false,624048.5999999046,624048.5,,624048.5,,623873.92,5,600,,
sequence,flow.Sequence,10_0,2023-11-29T16:42:22.808Z,,,,,,,,,,,5224.543999999994,completion,,,,,,,high,high,,,,,,,false,,,,,false,624048.7000000477,624048.5,618807.237,618989.399999857,618823.956,623873.92,5,600,,
trial,html.Screen,10_1_0,2023-11-29T16:42:24.693Z,,,,1,0.0245376145053177,-0.0436993426328401,,0.05,true,hh,2059.6799999045907,response,0.7848009721557384,0.8804391676951562,-1.0954030195181235,0.750809298734252,0.7764837902035442,-1.1247124644668047,high,high,,ISIC_0056444.JPG,9,ISIC_9648812.JPG,33,56,false,0.1,hh,keypress(i),0,false,625933.7000000477,625933.5999999046,623857.568,624048.7000000477,623873.92,625774.115,5,600,2,
break,html.Screen,10_1_1,2023-11-29T16:42:24.694Z,,,,,,,,,,,NaN,,,,,,,,high,high,,,,,,,false,,,,,false,625934.0999999046,625933.899999857,,625933.7999999523,,625774.115,5,600,,
break_continue,html.Screen,10_1_2,2023-11-29T16:42:24.694Z,,,,,,,,,,,NaN,,,,,,,,high,high,,,,,,,false,,,,,false,625934.2999999523,625934.2999999523,,625934.2000000477,,625774.115,5,600,,
sequence,flow.Sequence,10_1,2023-11-29T16:42:24.694Z,,,,,,,,,,,2060.3799999522744,completion,,,,,,,high,high,,,,,,,false,,,,,false,625934.2999999523,625934.2999999523,623857.568,624048.7000000477,623873.92,625774.115,5,600,,
trial,html.Screen,10_2_0,2023-11-29T16:42:29.621Z,,,,1,0.0159061451859594,0.0296598845560212,,0.05,false,ll,5087.284999856958,response,-1.1783311757907324,0.8804391676951562,-1.0954030195181235,-1.0915173513546716,0.7764837902035442,-1.1247124644668047,low,low,,ISIC_0072564.JPG,9,ISIC_8241457.JPG,33,28,false,0.1,hl,keypress(j),0,false,630861.5,630861.399999857,625757.702,625934.399999857,625774.115,630690.579,5,600,3,
break,html.Screen,10_2_1,2023-11-29T16:42:29.621Z,,,,,,,,,,,NaN,,,,,,,,low,low,,,,,,,false,,,,,false,630861.899999857,630861.7000000477,,630861.5999999046,,630690.579,5,600,,
break_continue,html.Screen,10_2_2,2023-11-29T16:42:29.621Z,,,,,,,,,,,NaN,,,,,,,,low,low,,,,,,,false,,,,,false,630862,630861.899999857,,630861.899999857,,630690.579,5,600,,
sequence,flow.Sequence,10_2,2023-11-29T16:42:29.621Z,,,,,,,,,,,5087.784999856958,completion,,,,,,,low,low,,,,,,,false,,,,,false,630862,630861.899999857,625757.702,625934.399999857,625774.115,630690.579,5,600,,
trial,html.Screen,10_3_0,2023-11-29T16:42:35.333Z,,,,1,0.013431314305098,-0.0140597582944232,,0.05,false,hl,5883.220999952289,response,1.020990671779317,0.8804391676951562,-1.0954030195181235,-1.0116513850520903,0.7764837902035442,-1.1247124644668047,high,low,,ISIC_0069617.JPG,8,ISIC_0011995.JPG,33,27,false,0.20000000000000007,hh,keypress(i),0,false,636573.7999999523,636573.7999999523,630674.037,630862.0999999046,630690.579,636407.247,5,600,4,
break,html.Screen,10_3_1,2023-11-29T16:42:35.334Z,,,,,,,,,,,NaN,,,,,,,,high,low,,,,,,,false,,,,,false,636574.2000000477,636574,,636573.899999857,,636407.247,5,600,,
break_continue,html.Screen,10_3_2,2023-11-29T16:42:35.334Z,,,,,,,,,,,NaN,,,,,,,,high,low,,,,,,,false,,,,,false,636574.2999999523,636574.2000000477,,636574.2000000477,,636407.247,5,600,,
sequence,flow.Sequence,10_3,2023-11-29T16:42:35.334Z,,,,,,,,,,,5883.621000047657,completion,,,,,,,high,low,,,,,,,false,,,,,false,636574.399999857,636574.2000000477,630674.037,630862.0999999046,630690.579,636407.247,5,600,,
trial,html.Screen,10_4_0,2023-11-29T16:42:38.229Z,,,,1,0.0362376068089956,0.047825070846155,,0.05,false,lh,3062.253000000026,response,-1.0115965332688306,0.8804391676951562,-1.0954030195181235,0.8282633603842442,0.7764837902035442,-1.1247124644668047,low,high,,ISIC_6985114.JPG,8,ISIC_1069587.JPG,33,25,false,0.19000000000000006,hh,keypress(i),0,false,639469.5999999046,639469.5,636390.812,636574.399999857,636407.247,639307.507,5,600,5,
break,html.Screen,10_4_1,2023-11-29T16:42:38.229Z,,,,,,,,,,,NaN,,,,,,,,low,high,,,,,,,false,,,,,false,639470,639469.7999999523,,639469.7999999523,,639307.507,5,600,,
break_continue,html.Screen,10_4_2,2023-11-29T16:42:38.230Z,,,,,,,,,,,NaN,,,,,,,,low,high,,,,,,,false,,,,,false,639470.0999999046,639470.0999999046,,639470.0999999046,,639307.507,5,600,,
sequence,flow.Sequence,10_4,2023-11-29T16:42:38.230Z,,,,,,,,,,,3062.8529999046586,completion,,,,,,,low,high,,,,,,,false,,,,,false,639470.2000000477,639470.0999999046,636390.812,636574.399999857,636407.247,639307.507,5,600,,
trial,html.Screen,10_5_0,2023-11-29T16:42:42.645Z,,,,1,0.0051189696037511,-0.0396625911332438,,0.05,true,lh,4578.1930000477005,response,-1.1338210094314218,0.8804391676951562,-1.0954030195181235,0.5906485710437454,0.7764837902035442,-1.1247124644668047,low,high,,ISIC_9742891.JPG,9,ISIC_0046571.JPG,33,25,false,0.19000000000000006,lh,keypress(e),0,false,643885.7999999523,643885.7000000477,639290.77,639470.2000000477,639307.507,643724.14,5,600,6,
break,html.Screen,10_5_1,2023-11-29T16:42:42.645Z,,,,,,,,,,,NaN,,,,,,,,low,high,,,,,,,false,,,,,false,643886.0999999046,643886,,643885.899999857,,643724.14,5,600,,
break_continue,html.Screen,10_5_2,2023-11-29T16:42:42.646Z,,,,,,,,,,,NaN,,,,,,,,low,high,,,,,,,false,,,,,false,643886.2000000477,643886.2000000477,,643886.2000000477,,643724.14,5,600,,
sequence,flow.Sequence,10_5,2023-11-29T16:42:42.646Z,,,,,,,,,,,4578.6930000477005,completion,,,,,,,low,high,,,,,,,false,,,,,false,643886.2999999523,643886.2000000477,639290.77,639470.2000000477,639307.507,643724.14,5,600,,
trial,html.Screen,10_6_0,2023-11-29T16:42:47.637Z,,,,1,0.0277178575053843,-0.0395587463147856,,0.05,true,ll,5153.56000004767,response,-1.0387488172228707,0.8804391676951562,-1.0954030195181235,-1.186629690487006,0.7764837902035442,-1.1247124644668047,low,low,,ISIC_0010807.JPG,10,ISIC_0015390.JPG,33,28,false,0.1,ll,keypress(f),0,false,648877.7999999523,648877.7000000477,643707.388,643886.2999999523,643724.14,648707.228,5,600,7,
break,html.Screen,10_6_1,2023-11-29T16:42:47.637Z,,,,,,,,,,,NaN,,,,,,,,low,low,,,,,,,false,,,,,false,648878.0999999046,648878,,648877.899999857,,648707.228,5,600,,
break_continue,html.Screen,10_6_2,2023-11-29T16:42:47.638Z,,,,,,,,,,,NaN,,,,,,,,low,low,,,,,,,false,,,,,false,648878.2999999523,648878.2000000477,,648878.0999999046,,648707.228,5,600,,
sequence,flow.Sequence,10_6,2023-11-29T16:42:47.638Z,,,,,,,,,,,5154.06000004767,completion,,,,,,,low,low,,,,,,,false,,,,,false,648878.2999999523,648878.2000000477,643707.388,643886.2999999523,643724.14,648707.228,5,600,,
trial,html.Screen,10_7_0,2023-11-29T16:42:50.309Z,,,,1,0.000047919190197942736,0.0462652940855003,,0.05,false,lh,2841.771999999997,response,-1.1953970903384905,0.8804391676951562,-1.0954030195181235,0.6243079106459266,0.7764837902035442,-1.1247124644668047,low,high,,ISIC_0011507.JPG,9,ISIC_0056156.JPG,33,25,false,0.19000000000000006,hh,keypress(i),0,false,651549.0999999046,651549,648690.452,648878.399999857,648707.228,651390.824,5,600,8,
break,html.Screen,10_7_1,2023-11-29T16:42:50.309Z,,,,,,,,,,,NaN,,,,,,,,low,high,,,,,,,false,,,,,false,651549.399999857,651549.2999999523,,651549.2000000477,,651390.824,5,600,,
break_continue,html.Screen,10_7_2,2023-11-29T16:42:50.309Z,,,,,,,,,,,NaN,,,,,,,,low,high,,,,,,,false,,,,,false,651549.5999999046,651549.5999999046,,651549.5,,651390.824,5,600,,
sequence,flow.Sequence,10_7,2023-11-29T16:42:50.309Z,,,,,,,,,,,2842.37199990463,completion,,,,,,,low,high,,,,,,,false,,,,,false,651549.5999999046,651549.5999999046,648690.452,648878.2999999523,648707.228,651390.824,5,600,,
trial,html.Screen,10_8_0,2023-11-29T16:42:52.389Z,,,,1,0.013431314305098,-0.0140597582944232,,0.05,false,lh,2238.3760000476614,response,-1.0645919307156395,0.8804391676951562,-1.0954030195181235,0.7087706688259032,0.7764837902035442,-1.1247124644668047,low,high,,ISIC_0069617.JPG,9,ISIC_0031575.JPG,33,25,false,0.19000000000000006,hh,keypress(i),0,false,653629.2999999523,653629.2000000477,651357.425,651549.7000000477,651390.824,653457.189,5,600,9,
break,html.Screen,10_8_1,2023-11-29T16:42:52.389Z,,,,,,,,,,,NaN,,,,,,,,low,high,,,,,,,false,,,,,false,653629.7000000477,653629.5,,653629.2999999523,,653457.189,5,600,,
break_continue,html.Screen,10_8_2,2023-11-29T16:42:52.389Z,,,,,,,,,,,NaN,,,,,,,,low,high,,,,,,,false,,,,,false,653629.7999999523,653629.7999999523,,653629.7000000477,,653457.189,5,600,,
sequence,flow.Sequence,10_8,2023-11-29T16:42:52.389Z,,,,,,,,,,,2238.975999952294,completion,,,,,,,low,high,,,,,,,false,,,,,false,653629.899999857,653629.7999999523,651357.425,651549.7000000477,651390.824,653457.189,5,600,,
trial,html.Screen,10_9_0,2023-11-29T16:42:57.765Z,,,,1,0.0362376068089956,0.047825070846155,,0.05,false,hl,5548.610999952303,response,0.8487429103619056,0.8804391676951562,-1.0954030195181235,-0.9778257804233036,0.7764837902035442,-1.1247124644668047,high,low,,ISIC_6985114.JPG,9,ISIC_4554863.JPG,33,27,false,0.20000000000000007,hh,keypress(i),0,false,659005.899999857,659005.7999999523,653440.834,653629.899999857,653457.189,658840.674,5,600,10,
break,html.Screen,10_9_1,2023-11-29T16:42:57.766Z,,,,,,,,,,,NaN,,,,,,,,high,low,,,,,,,false,,,,,false,659006.0999999046,659006,,659006,,658840.674,5,600,,
break_continue,html.Screen,10_9_2,2023-11-29T16:42:57.766Z,,,,,,,,,,,NaN,,,,,,,,high,low,,,,,,,false,,,,,false,659006.399999857,659006.2999999523,,659006.2000000477,,658840.674,5,600,,
sequence,flow.Sequence,10_9,2023-11-29T16:42:57.766Z,,,,,,,,,,,5549.110999952303,completion,,,,,,,high,low,,,,,,,false,,,,,false,659006.5,659006.2999999523,653440.834,653629.899999857,653457.189,658840.674,5,600,,
trial,html.Screen,10_10_0,2023-11-29T16:42:59.493Z,,,,1,-0.0389988030702649,-0.0143212271490256,,0.05,false,hl,1892.9259999046335,response,0.9433720631499012,0.8804391676951562,-1.0954030195181235,-1.0582071940347648,0.7764837902035442,-1.1247124644668047,high,low,,ISIC_0064669.JPG,9,ISIC_4890201.JPG,33,27,false,0.20000000000000007,hh,keypress(i),0,false,660733.7000000477,660733.5999999046,658824.155,659006.5,658840.674,660574.061,5,600,11,
break,html.Screen,10_10_1,2023-11-29T16:42:59.494Z,,,,,,,,,,,NaN,,,,,,,,high,low,,,,,,,false,,,,,false,660734,660734,,660733.899999857,,660574.061,5,600,,
break_continue,html.Screen,10_10_2,2023-11-29T16:42:59.494Z,,,,,,,,,,,NaN,,,,,,,,high,low,,,,,,,false,,,,,false,660734.2000000477,660734.0999999046,,660734,,660574.061,5,600,,
sequence,flow.Sequence,10_10,2023-11-29T16:42:59.494Z,,,,,,,,,,,1893.4259999046335,completion,,,,,,,high,low,,,,,,,false,,,,,false,660734.2999999523,660734.0999999046,658824.155,659006.5,658840.674,660574.061,5,600,,
trial,html.Screen,10_11_0,2023-11-29T16:43:02.213Z,,,,1,0.0245376145053177,-0.0436993426328401,,0.05,false,lh,2879.439000000013,response,-1.073191619565092,0.8804391676951562,-1.0954030195181235,0.6195550709150465,0.7764837902035442,-1.1247124644668047,low,high,,ISIC_0056444.JPG,9,ISIC_9386509.JPG,33,25,false,0.19000000000000006,hh,keypress(i),0,false,663453.5999999046,663453.5,660557.453,660734.2999999523,660574.061,663307.408,5,600,12,
break,html.Screen,10_11_1,2023-11-29T16:43:02.213Z,,,,,,,,,,,NaN,,,,,,,,low,high,,,,,,,false,,,,,false,663454,663453.899999857,,663453.7000000477,,663307.408,5,600,,
break_continue,html.Screen,10_11_2,2023-11-29T16:43:02.214Z,,,,,,,,,,,NaN,,,,,,,,low,high,,,,,,,false,,,,,false,663454.2000000477,663454,,663454,,663307.408,5,600,,
sequence,flow.Sequence,10_11,2023-11-29T16:43:02.214Z,,,,,,,,,,,2879.939000000013,completion,,,,,,,low,high,,,,,,,false,,,,,false,663454.2000000477,663454,660557.453,660734.2999999523,660574.061,663307.408,5,600,,
trial,html.Screen,10_12_0,2023-11-29T16:43:05.269Z,,,,1,0.0348234368746005,-0.0236866303880924,,0.05,false,hl,3201.991999856895,response,0.7016683761932542,0.8804391676951562,-1.0954030195181235,-1.043794098855853,0.7764837902035442,-1.1247124644668047,high,low,,ISIC_0011099.JPG,9,ISIC_0033117.JPG,33,27,false,0.20000000000000007,lh,keypress(e),0,false,666509.5,666509.399999857,663290.811,663454.2000000477,663307.408,666340.701,5,600,13,
break,html.Screen,10_12_1,2023-11-29T16:43:05.269Z,,,,,,,,,,,NaN,,,,,,,,high,low,,,,,,,false,,,,,false,666509.7999999523,666509.7000000477,,666509.5,,666340.701,5,600,,
break_continue,html.Screen,10_12_2,2023-11-29T16:43:05.269Z,,,,,,,,,,,NaN,,,,,,,,high,low,,,,,,,false,,,,,false,666509.899999857,666509.899999857,,666509.7999999523,,666340.701,5,600,,
sequence,flow.Sequence,10_12,2023-11-29T16:43:05.270Z,,,,,,,,,,,3202.491999856895,completion,,,,,,,high,low,,,,,,,false,,,,,false,666510,666509.899999857,663290.811,663454.2000000477,663307.408,666340.701,5,600,,
trial,html.Screen,10_13_0,2023-11-29T16:43:09.973Z,,,,1,-0.0329095507339554,0.0382899749693245,,0.05,true,ll,4873.198999856948,response,-1.110766057559199,0.8804391676951562,-1.0954030195181235,-1.0312818210504362,0.7764837902035442,-1.1247124644668047,low,low,,ISIC_8812781.JPG,8,ISIC_0069620.JPG,33,28,false,0.1,ll,keypress(f),0,false,671213.899999857,671213.899999857,666323.8,666510,666340.701,671040.544,5,600,14,
break,html.Screen,10_13_1,2023-11-29T16:43:09.974Z,,,,,,,,,,,NaN,,,,,,,,low,low,,,,,,,false,,,,,false,671214.2000000477,671214.2000000477,,671214,,671040.544,5,600,,
break_continue,html.Screen,10_13_2,2023-11-29T16:43:09.974Z,,,,,,,,,,,NaN,,,,,,,,low,low,,,,,,,false,,,,,false,671214.399999857,671214.2999999523,,671214.2000000477,,671040.544,5,600,,
sequence,flow.Sequence,10_13,2023-11-29T16:43:09.974Z,,,,,,,,,,,4873.598999952315,completion,,,,,,,low,low,,,,,,,false,,,,,false,671214.5,671214.2999999523,666323.8,666510,666340.701,671040.544,5,600,,
trial,html.Screen,10_14_0,2023-11-29T16:43:11.813Z,,,,1,-0.0217698886732706,0.0410870915161425,,0.05,false,ll,2013.0559999046382,response,-1.0698162624196283,0.8804391676951562,-1.0954030195181235,-1.219634566983089,0.7764837902035442,-1.1247124644668047,low,low,,ISIC_0072173.JPG,9,ISIC_0030552.JPG,33,28,false,0.1,hh,keypress(i),0,false,673053.7000000477,673053.5999999046,671023.952,671214.5,671040.544,672890.972,5,600,15,
break,html.Screen,10_14_1,2023-11-29T16:43:11.814Z,,,,,,,,,,,NaN,,,,,,,,low,low,,,,,,,false,,,,,false,673054.0999999046,673054,,673053.7999999523,,672890.972,5,600,,
break_continue,html.Screen,10_14_2,2023-11-29T16:43:11.814Z,,,,,,,,,,,NaN,,,,,,,,low,low,,,,,,,false,,,,,false,673054.2000000477,673054.2000000477,,673054.2000000477,,672890.972,5,600,,
sequence,flow.Sequence,10_14,2023-11-29T16:43:11.814Z,,,,,,,,,,,2013.6560000476893,completion,,,,,,,low,low,,,,,,,false,,,,,false,673054.2999999523,673054.2000000477,671023.952,671214.5,671040.544,672890.972,5,600,,
trial,html.Screen,10_15_0,2023-11-29T16:43:14.085Z,,,,1,0.013431314305098,-0.0140597582944232,,0.05,false,ll,2434.427999856998,response,-1.1762578943048685,0.8804391676951562,-1.0954030195181235,-1.0434857167145009,0.7764837902035442,-1.1247124644668047,low,low,,ISIC_0069617.JPG,9,ISIC_0032544.JPG,33,28,false,0.1,lh,keypress(e),0,false,675325.5,675325.399999857,672874.048,673054.2999999523,672890.972,675157.399,5,600,16,
break,html.Screen,10_15_1,2023-11-29T16:43:14.085Z,,,,,,,,,,,NaN,,,,,,,,low,low,,,,,,,false,,,,,false,675325.7000000477,675325.7000000477,,675325.5,,675157.399,5,600,,
break_continue,html.Screen,10_15_2,2023-11-29T16:43:14.086Z,,,,,,,,,,,NaN,,,,,,,,low,low,,,,,,,false,,,,,false,675326,675326,,675325.899999857,,675157.399,5,600,,
sequence,flow.Sequence,10_15,2023-11-29T16:43:14.086Z,,,,,,,,,,,2435.0280000000494,completion,,,,,,,low,low,,,,,,,false,,,,,false,675326,675326,672874.048,673054.2999999523,672890.972,675157.399,5,600,,
trial,html.Screen,10_16_0,2023-11-29T16:43:15.605Z,,,,1,0.0051189696037511,-0.0396625911332438,,0.05,false,ll,1688.301000047708,response,-1.0678895386758027,0.8804391676951562,-1.0954030195181235,-1.0279759018569252,0.7764837902035442,-1.1247124644668047,low,low,,ISIC_9742891.JPG,9,ISIC_0069933.JPG,33,28,false,0.1,hh,keypress(i),0,false,676845.899999857,676845.7000000477,675140.652,675326.0999999046,675157.399,676673.857,5,600,17,
break,html.Screen,10_16_1,2023-11-29T16:43:15.606Z,,,,,,,,,,,NaN,,,,,,,,low,low,,,,,,,false,,,,,false,676846.0999999046,676846,,676845.899999857,,676673.857,5,600,,
break_continue,html.Screen,10_16_2,2023-11-29T16:43:15.606Z,,,,,,,,,,,NaN,,,,,,,,low,low,,,,,,,false,,,,,false,676846.2999999523,676846.2999999523,,676846.2999999523,,676673.857,5,600,,
sequence,flow.Sequence,10_16,2023-11-29T16:43:15.606Z,,,,,,,,,,,1688.9009999523405,completion,,,,,,,low,low,,,,,,,false,,,,,false,676846.5,676846.2999999523,675140.652,675326,675157.399,676673.857,5,600,,
trial,html.Screen,10_17_0,2023-11-29T16:43:21.397Z,,,,1,-0.0389988030702649,-0.0143212271490256,,0.05,false,lh,5963.843000047724,response,-1.1615388892961138,0.8804391676951562,-1.0954030195181235,0.6952763480624806,0.7764837902035442,-1.1247124644668047,low,high,,ISIC_0064669.JPG,9,ISIC_1280780.JPG,33,25,false,0.19000000000000006,ll,keypress(f),0,false,682637.7999999523,682637.7000000477,676657.38,676846.5,676673.857,682474.042,5,600,18,
break,html.Screen,10_17_1,2023-11-29T16:43:21.398Z,,,,,,,,,,,NaN,,,,,,,,low,high,,,,,,,false,,,,,false,682638.2000000477,682638.0999999046,,682637.899999857,,682474.042,5,600,,
break_continue,html.Screen,10_17_2,2023-11-29T16:43:21.398Z,,,,,,,,,,,NaN,,,,,,,,low,high,,,,,,,false,,,,,false,682638.399999857,682638.2999999523,,682638.2000000477,,682474.042,5,600,,
sequence,flow.Sequence,10_17,2023-11-29T16:43:21.398Z,,,,,,,,,,,5964.442999952356,completion,,,,,,,low,high,,,,,,,false,,,,,false,682638.399999857,682638.2999999523,676657.38,676846.5,676673.857,682474.042,5,600,,
trial,html.Screen,10_18_0,2023-11-29T16:43:25.653Z,,,,1,0.013431314305098,-0.0140597582944232,,0.05,false,lh,4419.557999904617,response,-1.1615388892961138,0.8804391676951562,-1.0954030195181235,0.6952763480624806,0.7764837902035442,-1.1247124644668047,low,high,,ISIC_0069617.JPG,9,ISIC_1280780.JPG,33,25,false,0.19000000000000006,hl,keypress(j),0,false,686893.7000000477,686893.5999999046,682457.403,682638.399999857,682474.042,686723.894,5,600,19,
break,html.Screen,10_18_1,2023-11-29T16:43:25.654Z,,,,,,,,,,,NaN,,,,,,,,low,high,,,,,,,false,,,,,false,686894,686894,,686893.7999999523,,686723.894,5,600,,
break_continue,html.Screen,10_18_2,2023-11-29T16:43:25.654Z,,,,,,,,,,,NaN,,,,,,,,low,high,,,,,,,false,,,,,false,686894.0999999046,686894.0999999046,,686894,,686723.894,5,600,,
sequence,flow.Sequence,10_18,2023-11-29T16:43:25.654Z,,,,,,,,,,,4420.057999904617,completion,,,,,,,low,high,,,,,,,false,,,,,false,686894.2000000477,686894.0999999046,682457.403,682638.399999857,682474.042,686723.894,5,600,,
trial,html.Screen,10_19_0,2023-11-29T16:43:31.189Z,,,,1,0.0097091270150747,-0.0417921315885292,,0.05,true,hh,5705.505999856978,response,0.8678670292271872,0.8804391676951562,-1.0954030195181235,0.6802987008879134,0.7764837902035442,-1.1247124644668047,high,high,,ISIC_3967213.JPG,8,ISIC_1932064.JPG,33,56,false,0.1,hh,keypress(i),0,false,692429.5,692429.399999857,686707.438,686894.2000000477,686723.894,692257.171,5,600,20,
break,html.Screen,10_19_1,2023-11-29T16:43:31.189Z,,,,,,,,,,,NaN,,,,,,,,high,high,,,,,,,false,,,,,false,692429.7999999523,692429.7000000477,,692429.5,,692257.171,5,600,,
break_continue,html.Screen,10_19_2,2023-11-29T16:43:31.189Z,,,,,,,,,,,NaN,,,,,,,,high,high,,,,,,,false,,,,,false,692429.899999857,692429.899999857,,692429.7999999523,,692257.171,5,600,,
sequence,flow.Sequence,10_19,2023-11-29T16:43:31.189Z,,,,,,,,,,,5706.005999856978,completion,,,,,,,high,high,,,,,,,false,,,,,false,692430,692429.899999857,686707.438,686894.2000000477,686723.894,692257.171,5,600,,
trial,html.Screen,10_20_0,2023-11-29T16:43:34.005Z,,,,1,0.0277178575053843,-0.0395587463147856,,0.05,false,lh,2988.5290000477107,response,-0.9238778505223862,0.8804391676951562,-1.0954030195181235,0.6879166947304511,0.7764837902035442,-1.1247124644668047,low,high,,ISIC_0010807.JPG,8,ISIC_0028291.JPG,33,25,false,0.19000000000000006,hh,keypress(i),0,false,695245.899999857,695245.7000000477,692240.833,692430,692257.171,695073.834,5,600,21,
break,html.Screen,10_20_1,2023-11-29T16:43:34.006Z,,,,,,,,,,,NaN,,,,,,,,low,high,,,,,,,false,,,,,false,695246.2000000477,695246.0999999046,,695245.899999857,,695073.834,5,600,,
break_continue,html.Screen,10_20_2,2023-11-29T16:43:34.006Z,,,,,,,,,,,NaN,,,,,,,,low,high,,,,,,,false,,,,,false,695246.2999999523,695246.2000000477,,695246.2000000477,,695073.834,5,600,,
sequence,flow.Sequence,10_20,2023-11-29T16:43:34.006Z,,,,,,,,,,,2989.0290000477107,completion,,,,,,,low,high,,,,,,,false,,,,,false,695246.2999999523,695246.2000000477,692240.833,692430,692257.171,695073.834,5,600,,
trial,html.Screen,10_21_0,2023-11-29T16:43:36.613Z,,,,1,-0.0389988030702649,-0.0143212271490256,,0.05,false,lh,2779.765999904601,response,-1.0164576835546473,0.8804391676951562,-1.0954030195181235,0.8120626538423016,0.7764837902035442,-1.1247124644668047,low,high,,ISIC_0064669.JPG,9,ISIC_6002694.JPG,33,25,false,0.19000000000000006,ll,keypress(f),0,false,697853.5999999046,697853.5999999046,695057.389,695246.399999857,695073.834,697690.678,5,600,22,
break,html.Screen,10_21_1,2023-11-29T16:43:36.613Z,,,,,,,,,,,NaN,,,,,,,,low,high,,,,,,,false,,,,,false,697854,697853.899999857,,697853.7999999523,,697690.678,5,600,,
break_continue,html.Screen,10_21_2,2023-11-29T16:43:36.614Z,,,,,,,,,,,NaN,,,,,,,,low,high,,,,,,,false,,,,,false,697854.0999999046,697854.0999999046,,697854.0999999046,,697690.678,5,600,,
sequence,flow.Sequence,10_21,2023-11-29T16:43:36.614Z,,,,,,,,,,,2780.265999904601,completion,,,,,,,low,high,,,,,,,false,,,,,false,697854.2000000477,697854.0999999046,695057.389,695246.399999857,695073.834,697690.678,5,600,,
trial,html.Screen,10_22_0,2023-11-29T16:43:41.173Z,,,,1,0.0159061451859594,0.0296598845560212,,0.05,false,ll,4722.822000000044,response,-1.101346104814838,0.8804391676951562,-1.0954030195181235,-1.1225813067473052,0.7764837902035442,-1.1247124644668047,low,low,,ISIC_0072564.JPG,8,ISIC_8175453.JPG,33,28,false,0.1,hh,keypress(i),0,false,702413.7000000477,702413.5,697674.06,697854.2000000477,697690.678,702240.473,5,600,23,
break,html.Screen,10_22_1,2023-11-29T16:43:41.174Z,,,,,,,,,,,NaN,,,,,,,,low,low,,,,,,,false,,,,,false,702414,702413.899999857,,702413.7999999523,,702240.473,5,600,,
break_continue,html.Screen,10_22_2,2023-11-29T16:43:41.174Z,,,,,,,,,,,NaN,,,,,,,,low,low,,,,,,,false,,,,,false,702414.2000000477,702414.0999999046,,702414,,702240.473,5,600,,
sequence,flow.Sequence,10_22,2023-11-29T16:43:41.174Z,,,,,,,,,,,4723.421999904676,completion,,,,,,,low,low,,,,,,,false,,,,,false,702414.2999999523,702414.0999999046,697674.06,697854.2000000477,697690.678,702240.473,5,600,,
trial,html.Screen,10_23_0,2023-11-29T16:43:43.317Z,,,,1,-0.0329095507339554,0.0382899749693245,,0.05,false,hl,2317.1269999046344,response,0.9433720631499012,0.8804391676951562,-1.0954030195181235,-1.0582071940347648,0.7764837902035442,-1.1247124644668047,high,low,,ISIC_8812781.JPG,10,ISIC_4890201.JPG,33,27,false,0.20000000000000007,ll,keypress(f),0,false,704557.5999999046,704557.5999999046,702224.105,702414.2999999523,702240.473,704390.575,5,600,24,
break,html.Screen,10_23_1,2023-11-29T16:43:43.317Z,,,,,,,,,,,NaN,,,,,,,,high,low,,,,,,,false,,,,,false,704557.899999857,704557.899999857,,704557.7000000477,,704390.575,5,600,,
break_continue,html.Screen,10_23_2,2023-11-29T16:43:43.318Z,,,,,,,,,,,NaN,,,,,,,,high,low,,,,,,,false,,,,,false,704558.0999999046,704558.0999999046,,704558,,704390.575,5,600,,
sequence,flow.Sequence,10_23,2023-11-29T16:43:43.318Z,,,,,,,,,,,2317.6269999046344,completion,,,,,,,high,low,,,,,,,false,,,,,false,704558.0999999046,704558.0999999046,702224.105,702414.2999999523,702240.473,704390.575,5,600,,
trial,html.Screen,10_24_0,2023-11-29T16:43:44.949Z,,,,1,0.0051189696037511,-0.0396625911332438,,0.05,false,ll,1799.2249999523629,response,-1.0377676235641546,0.8804391676951562,-1.0954030195181235,-1.0836906473836847,0.7764837902035442,-1.1247124644668047,low,low,,ISIC_9742891.JPG,9,ISIC_0010540.JPG,33,28,false,0.1,hh,keypress(i),0,false,706189.7999999523,706189.7999999523,704374.013,704558.2000000477,704390.575,706023.823,5,600,25,
break,html.Screen,10_24_1,2023-11-29T16:43:44.950Z,,,,,,,,,,,NaN,,,,,,,,low,low,,,,,,,false,,,,,false,706190.0999999046,706190.0999999046,,706189.899999857,,706023.823,5,600,,
break_continue,html.Screen,10_24_2,2023-11-29T16:43:44.950Z,,,,,,,,,,,NaN,,,,,,,,low,low,,,,,,,false,,,,,false,706190.2999999523,706190.2999999523,,706190.0999999046,,706023.823,5,600,,
sequence,flow.Sequence,10_24,2023-11-29T16:43:44.950Z,,,,,,,,,,,1799.7249999523629,completion,,,,,,,low,low,,,,,,,false,,,,,false,706190.2999999523,706190.2999999523,704374.013,704558.2000000477,704390.575,706023.823,5,600,,
trial,html.Screen,10_25_0,2023-11-29T16:43:47.365Z,,,,1,-0.039728379742806,0.0228701131373768,,0.05,true,ll,2581.9769999523414,response,-1.110766057559199,0.8804391676951562,-1.0954030195181235,-1.0312818210504362,0.7764837902035442,-1.1247124644668047,low,low,,ISIC_0054073.JPG,9,ISIC_0069620.JPG,33,28,false,0.1,ll,keypress(f),0,false,708605.899999857,708605.7999999523,706007.383,706190.2999999523,706023.823,708440.59,5,600,26,
break,html.Screen,10_25_1,2023-11-29T16:43:47.366Z,,,,,,,,,,,NaN,,,,,,,,low,low,,,,,,,false,,,,,false,708606.2000000477,708606,,708606,,708440.59,5,600,,
break_continue,html.Screen,10_25_2,2023-11-29T16:43:47.366Z,,,,,,,,,,,NaN,,,,,,,,low,low,,,,,,,false,,,,,false,708606.399999857,708606.2999999523,,708606.2000000477,,708440.59,5,600,,
sequence,flow.Sequence,10_25,2023-11-29T16:43:47.366Z,,,,,,,,,,,2582.4769999523414,completion,,,,,,,low,low,,,,,,,false,,,,,false,708606.399999857,708606.2999999523,706007.383,706190.2999999523,706023.823,708440.59,5,600,,
trial,html.Screen,10_26_0,2023-11-29T16:43:51.349Z,,,,1,-0.0217698886732706,0.0410870915161425,,0.05,true,hl,4148.910000000033,response,0.9433720631499012,0.8804391676951562,-1.0954030195181235,-1.0582071940347648,0.7764837902035442,-1.1247124644668047,high,low,,ISIC_0072173.JPG,8,ISIC_4890201.JPG,33,27,false,0.20000000000000007,hl,keypress(j),0,false,712589.5999999046,712589.5,708423.79,708606.5,708440.59,712424.009,5,600,27,
break,html.Screen,10_26_1,2023-11-29T16:43:51.349Z,,,,,,,,,,,NaN,,,,,,,,high,low,,,,,,,false,,,,,false,712589.899999857,712589.899999857,,712589.7000000477,,712424.009,5,600,,
break_continue,html.Screen,10_26_2,2023-11-29T16:43:51.350Z,,,,,,,,,,,NaN,,,,,,,,high,low,,,,,,,false,,,,,false,712590,712590,,712589.899999857,,712424.009,5,600,,
sequence,flow.Sequence,10_26,2023-11-29T16:43:51.350Z,,,,,,,,,,,4149.410000000033,completion,,,,,,,high,low,,,,,,,false,,,,,false,712590.0999999046,712590,708423.79,708606.399999857,708440.59,712424.009,5,600,,
trial,html.Screen,10_27_0,2023-11-29T16:43:56.181Z,,,,1,-0.0456515796420274,0.0273567130070961,,0.05,false,lh,4997.590999904671,response,-0.9580096600137252,0.8804391676951562,-1.0954030195181235,0.6337880611168651,0.7764837902035442,-1.1247124644668047,low,high,,ISIC_0068610.JPG,10,ISIC_0026008.JPG,33,25,false,0.19000000000000006,hl,keypress(j),0,false,717421.7999999523,717421.5999999046,712407.584,712590.0999999046,712424.009,717257.229,5,600,28,
break,html.Screen,10_27_1,2023-11-29T16:43:56.182Z,,,,,,,,,,,NaN,,,,,,,,low,high,,,,,,,false,,,,,false,717422,717421.899999857,,717421.899999857,,717257.229,5,600,,
break_continue,html.Screen,10_27_2,2023-11-29T16:43:56.182Z,,,,,,,,,,,NaN,,,,,,,,low,high,,,,,,,false,,,,,false,717422.2000000477,717422.2000000477,,717422.0999999046,,717257.229,5,600,,
sequence,flow.Sequence,10_27,2023-11-29T16:43:56.182Z,,,,,,,,,,,4998.191000047722,completion,,,,,,,low,high,,,,,,,false,,,,,false,717422.2999999523,717422.2000000477,712407.584,712590.0999999046,712424.009,717257.229,5,600,,
trial,html.Screen,10_28_0,2023-11-29T16:44:01.685Z,,,,1,-0.007397293189458,-0.0174716772037504,,0.05,false,hl,5668.370999904582,response,0.6970565704787165,0.8804391676951562,-1.0954030195181235,-1.189673590156875,0.7764837902035442,-1.1247124644668047,high,low,,ISIC_0056226.JPG,9,ISIC_0032522.JPG,33,27,false,0.20000000000000007,hh,keypress(i),0,false,722925.7000000477,722925.5999999046,717240.62,717422.2999999523,717257.229,722757.266,5,600,29,
break,html.Screen,10_28_1,2023-11-29T16:44:01.686Z,,,,,,,,,,,NaN,,,,,,,,high,low,,,,,,,false,,,,,false,722926,722925.899999857,,722925.7000000477,,722757.266,5,600,,
break_continue,html.Screen,10_28_2,2023-11-29T16:44:01.686Z,,,,,,,,,,,NaN,,,,,,,,high,low,,,,,,,false,,,,,false,722926.2000000477,722926.0999999046,,722926,,722757.266,5,600,,
sequence,flow.Sequence,10_28,2023-11-29T16:44:01.686Z,,,,,,,,,,,5668.870999904582,completion,,,,,,,high,low,,,,,,,false,,,,,false,722926.2000000477,722926.0999999046,717240.62,717422.2999999523,717257.229,722757.266,5,600,,
trial,html.Screen,10_29_0,2023-11-29T16:44:07.653Z,,,,1,-0.0363437082783146,-0.0333332186217051,,0.05,true,ll,6136.3339999046875,response,-1.1346217981791904,0.8804391676951562,-1.0954030195181235,-1.1555132168806113,0.7764837902035442,-1.1247124644668047,low,low,,ISIC_3314555.JPG,8,ISIC_0032771.JPG,33,28,false,0.1,ll,keypress(f),0,false,728893.7999999523,728893.5999999046,722740.611,722926.2000000477,722757.266,728723.799,5,600,30,
break,html.Screen,10_29_1,2023-11-29T16:44:07.654Z,,,,,,,,,,,NaN,,,,,,,,low,low,,,,,,,false,,,,,false,728894.0999999046,728894,,728893.7999999523,,728723.799,5,600,,
break_continue,html.Screen,10_29_2,2023-11-29T16:44:07.654Z,,,,,,,,,,,NaN,,,,,,,,low,low,,,,,,,false,,,,,false,728894.2999999523,728894.2000000477,,728894.2000000477,,728723.799,5,600,,
sequence,flow.Sequence,10_29,2023-11-29T16:44:07.654Z,,,,,,,,,,,6136.934000047739,completion,,,,,,,low,low,,,,,,,false,,,,,false,728894.2999999523,728894.2000000477,722740.611,722926.2000000477,722757.266,728723.799,5,600,,
trial,html.Screen,10_30_0,2023-11-29T16:44:10.757Z,,,,1,0.0362376068089956,0.047825070846155,,0.05,true,hh,3273.701000000001,response,0.9031332540970408,0.8804391676951562,-1.0954030195181235,0.853200189915778,0.7764837902035442,-1.1247124644668047,high,high,,ISIC_6985114.JPG,9,ISIC_4679971.JPG,33,56,false,0.1,hh,keypress(i),0,false,731997.7000000477,731997.5,728707.337,728894.399999857,728723.799,731823.807,5,600,31,
break,html.Screen,10_30_1,2023-11-29T16:44:10.758Z,,,,,,,,,,,NaN,,,,,,,,high,high,,,,,,,false,,,,,false,731998,731997.899999857,,731997.7999999523,,731823.807,5,600,,
break_continue,html.Screen,10_30_2,2023-11-29T16:44:10.758Z,,,,,,,,,,,NaN,,,,,,,,high,high,,,,,,,false,,,,,false,731998.2000000477,731998.2000000477,,731998.0999999046,,731823.807,5,600,,
sequence,flow.Sequence,10_30,2023-11-29T16:44:10.758Z,,,,,,,,,,,3274.4010000476846,completion,,,,,,,high,high,,,,,,,false,,,,,false,731998.2999999523,731998.2000000477,728707.337,728894.399999857,728723.799,731823.807,5,600,,
trial,html.Screen,10_31_0,2023-11-29T16:44:14.917Z,,,,1,0.0159061451859594,0.0296598845560212,,0.05,true,lh,4333.592999856919,response,-1.1338210094314218,0.8804391676951562,-1.0954030195181235,0.5906485710437454,0.7764837902035442,-1.1247124644668047,low,high,,ISIC_0072564.JPG,8,ISIC_0046571.JPG,33,25,false,0.19000000000000006,lh,keypress(e),0,false,736157.5,736157.399999857,731807.32,731998.2999999523,731823.807,735990.478,5,600,32,
break,html.Screen,10_31_1,2023-11-29T16:44:14.917Z,,,,,,,,,,,NaN,,,,,,,,low,high,,,,,,,false,,,,,false,736157.7999999523,736157.7000000477,,736157.5,,735990.478,5,600,,
break_continue,html.Screen,10_31_2,2023-11-29T16:44:14.918Z,,,,,,,,,,,NaN,,,,,,,,low,high,,,,,,,false,,,,,false,736158,736157.899999857,,736157.7999999523,,735990.478,5,600,,
sequence,flow.Sequence,10_31,2023-11-29T16:44:14.918Z,,,,,,,,,,,4334.092999856919,completion,,,,,,,low,high,,,,,,,false,,,,,false,736158,736157.899999857,731807.32,731998.2999999523,731823.807,735990.478,5,600,,
trial,html.Screen,10_32_0,2023-11-29T16:44:18.245Z,,,,1,-0.0456515796420274,0.0273567130070961,,0.05,false,lh,3495.12199990463,response,-0.9873794329144926,0.8804391676951562,-1.0954030195181235,0.7991077882008257,0.7764837902035442,-1.1247124644668047,low,high,,ISIC_0068610.JPG,8,ISIC_0013498.JPG,33,25,false,0.19000000000000006,hh,keypress(i),0,false,739485.7000000477,739485.5999999046,735974.121,736158,735990.478,739323.981,5,600,33,
break,html.Screen,10_32_1,2023-11-29T16:44:18.246Z,,,,,,,,,,,NaN,,,,,,,,low,high,,,,,,,false,,,,,false,739486.0999999046,739486,,739485.899999857,,739323.981,5,600,,
break_continue,html.Screen,10_32_2,2023-11-29T16:44:18.246Z,,,,,,,,,,,NaN,,,,,,,,low,high,,,,,,,false,,,,,false,739486.2999999523,739486.2000000477,,739486.0999999046,,739323.981,5,600,,
sequence,flow.Sequence,10_32,2023-11-29T16:44:18.246Z,,,,,,,,,,,3495.722000047681,completion,,,,,,,low,high,,,,,,,false,,,,,false,739486.2999999523,739486.2000000477,735974.121,736158,735990.478,739323.981,5,600,,
trial,html.Screen,10_33_0,2023-11-29T16:44:20.821Z,,,,1,0.0134764727102299,0.0033499036460912,,0.05,true,ll,2737.6189999046037,response,-1.1877026569952844,0.8804391676951562,-1.0954030195181235,-1.1604367569896263,0.7764837902035442,-1.1247124644668047,low,low,,ISIC_0009998.JPG,8,ISIC_0064589.JPG,33,28,false,0.1,ll,keypress(f),0,false,742061.7000000477,742061.5999999046,739307.361,739486.399999857,739323.981,741890.448,5,600,34,
break,html.Screen,10_33_1,2023-11-29T16:44:20.822Z,,,,,,,,,,,NaN,,,,,,,,low,low,,,,,,,false,,,,,false,742062,742061.899999857,,742061.7000000477,,741890.448,5,600,,
break_continue,html.Screen,10_33_2,2023-11-29T16:44:20.822Z,,,,,,,,,,,NaN,,,,,,,,low,low,,,,,,,false,,,,,false,742062.2000000477,742062.0999999046,,742062,,741890.448,5,600,,
sequence,flow.Sequence,10_33,2023-11-29T16:44:20.822Z,,,,,,,,,,,2738.1189999046037,completion,,,,,,,low,low,,,,,,,false,,,,,false,742062.2000000477,742062.0999999046,739307.361,739486.2999999523,739323.981,741890.448,5,600,,
trial,html.Screen,10_34_0,2023-11-29T16:44:25.589Z,,,,1,-0.0389988030702649,-0.0143212271490256,,0.05,false,hl,4938.951999856974,response,0.706802912822355,0.8804391676951562,-1.0954030195181235,-1.168911077628813,0.7764837902035442,-1.1247124644668047,high,low,,ISIC_0064669.JPG,9,ISIC_7358691.JPG,33,27,false,0.20000000000000007,lh,keypress(e),0,false,746829.5,746829.399999857,741874.034,742062.2999999523,741890.448,746657.16,5,600,35,
break,html.Screen,10_34_1,2023-11-29T16:44:25.589Z,,,,,,,,,,,NaN,,,,,,,,high,low,,,,,,,false,,,,,false,746829.7999999523,746829.7999999523,,746829.5999999046,,746657.16,5,600,,
break_continue,html.Screen,10_34_2,2023-11-29T16:44:25.590Z,,,,,,,,,,,NaN,,,,,,,,high,low,,,,,,,false,,,,,false,746830,746829.899999857,,746829.7999999523,,746657.16,5,600,,
sequence,flow.Sequence,10_34,2023-11-29T16:44:25.590Z,,,,,,,,,,,4939.451999856974,completion,,,,,,,high,low,,,,,,,false,,,,,false,746830.0999999046,746829.899999857,741874.034,742062.2999999523,741890.448,746657.16,5,600,,
trial,html.Screen,10_35_0,2023-11-29T16:44:27.333Z,,,,1,-0.0116094682222121,0.0258434522530318,,0.05,true,hh,1916.4399999046,response,0.8763019378351439,0.8804391676951562,-1.0954030195181235,0.7027992851342155,0.7764837902035442,-1.1247124644668047,high,high,,ISIC_9239632.JPG,9,ISIC_8671453.JPG,33,56,false,0.1,hh,keypress(i),0,false,748573.7999999523,748573.5999999046,746640.673,746830.0999999046,746657.16,748407.551,5,600,36,
break,html.Screen,10_35_1,2023-11-29T16:44:27.334Z,,,,,,,,,,,NaN,,,,,,,,high,high,,,,,,,false,,,,,false,748574,748574,,748573.7999999523,,748407.551,5,600,,
break_continue,html.Screen,10_35_2,2023-11-29T16:44:27.334Z,,,,,,,,,,,NaN,,,,,,,,high,high,,,,,,,false,,,,,false,748574.2000000477,748574.2000000477,,748574.0999999046,,748407.551,5,600,,
sequence,flow.Sequence,10_35,2023-11-29T16:44:27.334Z,,,,,,,,,,,1917.0400000476511,completion,,,,,,,high,high,,,,,,,false,,,,,false,748574.2999999523,748574.2000000477,746640.673,746830.0999999046,746657.16,748407.551,5,600,,
trial,html.Screen,10_36_0,2023-11-29T16:44:29.589Z,,,,1,-0.007397293189458,-0.0174716772037504,,0.05,true,hh,2422.048999904655,response,0.9427152362523844,0.8804391676951562,-1.0954030195181235,0.7453177160521216,0.7764837902035442,-1.1247124644668047,high,high,,ISIC_0056226.JPG,9,ISIC_0360367.JPG,33,56,false,0.1,hh,keypress(i),0,false,750829.7000000477,750829.5999999046,748390.695,748574.2999999523,748407.551,750657.101,5,600,37,
break,html.Screen,10_36_1,2023-11-29T16:44:29.590Z,,,,,,,,,,,NaN,,,,,,,,high,high,,,,,,,false,,,,,false,750830,750829.899999857,,750829.7999999523,,750657.101,5,600,,
break_continue,html.Screen,10_36_2,2023-11-29T16:44:29.590Z,,,,,,,,,,,NaN,,,,,,,,high,high,,,,,,,false,,,,,false,750830.0999999046,750830.0999999046,,750830,,750657.101,5,600,,
sequence,flow.Sequence,10_36,2023-11-29T16:44:29.590Z,,,,,,,,,,,2422.548999904655,completion,,,,,,,high,high,,,,,,,false,,,,,false,750830.2000000477,750830.0999999046,748390.695,748574.2999999523,748407.551,750657.101,5,600,,
trial,html.Screen,10_37_0,2023-11-29T16:44:31.877Z,,,,1,0.013431314305098,-0.0140597582944232,,0.05,false,hl,2460.398999999976,response,0.7016683761932542,0.8804391676951562,-1.0954030195181235,-1.043794098855853,0.7764837902035442,-1.1247124644668047,high,low,,ISIC_0069617.JPG,9,ISIC_0033117.JPG,33,27,false,0.20000000000000007,hh,keypress(i),0,false,753117.5999999046,753117.5,750640.68,750830.2000000477,750657.101,752957.549,5,600,38,
break,html.Screen,10_37_1,2023-11-29T16:44:31.878Z,,,,,,,,,,,NaN,,,,,,,,high,low,,,,,,,false,,,,,false,753117.899999857,753117.7999999523,,753117.5999999046,,752957.549,5,600,,
break_continue,html.Screen,10_37_2,2023-11-29T16:44:31.878Z,,,,,,,,,,,NaN,,,,,,,,high,low,,,,,,,false,,,,,false,753118.0999999046,753118,,753117.899999857,,752957.549,5,600,,
sequence,flow.Sequence,10_37,2023-11-29T16:44:31.878Z,,,,,,,,,,,2460.898999999976,completion,,,,,,,high,low,,,,,,,false,,,,,false,753118.0999999046,753118,750640.68,750830.2000000477,750657.101,752957.549,5,600,,
