sender,sender_type,sender_id,timestamp,meta,,age,blockNo,c1,c2,condition,control_tolerance,correct,correctResponse,duration,ended_on,f1,f1_high,f1_low,f2,f2_high,f2_low,feature_level1,feature_level2,gender,img_left,img_reveal,img_right,n_control_images,n_target_images,practice,range_tolerance,response,response_action,selection_duration,staircase,time_commit,time_end,time_render,time_run,time_show,time_switch,total_blocks,total_trials,trialNo,url
informed_consent,html.Screen,0,2023-11-27T18:40:59.666Z,"{""labjs_version"":""20.2.4"",""labjs_build"":{""flavor"":""development"",""commit"":""f5b4a49f956347addd546a832a3327688c2c0fef""},""location"":""https://labjs.felixhenninger.com/api/labjs_preview/index.html"",""userAgent"":""Mozilla/5.0 (Windows NT 10.0; Win64; x64) AppleWebKit/537.36 (KHTML, like Gecko) Chrome/119.0.0.0 Safari/537.36"",""platform"":""Win32"",""language"":""en-US"",""locale"":""en-US"",""timeZone"":""America/Chicago"",""timezoneOffset"":360,""screen_width"":1680,""screen_height"":1050,""scroll_width"":825,""scroll_height"":888,""window_innerWidth"":825,""window_innerHeight"":936,""devicePixelRatio"":1}",,,,,,,,,,21613.958999952316,response,,,,,,,,,,,,,,,,,consent,click button,,,22357.299999952316,22348.299999952316,717.735,906.2999999523163,734.341,22159.36,,,,{}
Demography form,html.Form,1,2023-11-27T18:41:07.121Z,,,18,,,,,,,,7653.540000095367,form submission,,,,,,,,,female,,,,,,,,,,,,29813,29812.900000095367,22142.865,22357.599999904633,22159.36,29607.191,,,,
Welcome,html.Screen,2,2023-11-27T18:41:57.396Z,,,,,,,"[""bor"",""col""]",,,,50477.309,response,,,,,,,,,,,,,,,,,continue,click button,,,80085.09999990463,80084.5,29590.636,29813.200000047684,29607.191,79888.402,,,,
demo_instructions,html.Screen,3,2023-11-27T18:42:21.668Z,,,,,,,,,,,24468.097999999998,response,,,,,,,,,,,,,,,,,continue,click button,,,104357,104356.5,79871.934,80085.29999995232,79888.402,104169,,,,
trial,html.Screen,4_0_0,2023-11-27T18:42:28.509Z,,,,0,-1.1243896694621007,-1.1772340944704969,,,true,hh,7028.799999952316,response,1.2253191093367526,1.2,-1.2,1.241905252673026,1.2,-1.2,high,high,,ISIC_0062765.JPG,,ISIC_1195689.JPG,,25,true,0.14,hh,keypress(i),100,false,111198,111197.79999995232,104152.548,104357.09999990463,104169,111015.685,1,16,1,
sequence,flow.Sequence,4_0,2023-11-27T18:42:28.516Z,,,,,,,,,,,7028.799999952316,completion,,,,,,,high,high,,,,,,,true,,,,,false,111205.40000009537,111197.79999995232,104152.548,104357.09999990463,104169,111015.685,1,16,,
trial,html.Screen,4_1_0,2023-11-27T18:42:33.502Z,,,,0,-1.082709423673037,-1.1184338818466155,,,true,hh,5175.21500009537,response,1.2946277435220357,1.2,-1.2,1.255157480204324,1.2,-1.2,high,high,,ISIC_0058666.JPG,,ISIC_1870309.JPG,,25,true,0.14,hh,keypress(i),100,false,116191.09999990463,116190.90000009537,110998.955,111205.5,111015.685,116008.713,1,16,2,
sequence,flow.Sequence,4_1,2023-11-27T18:42:33.502Z,,,,,,,,,,,5175.21500009537,completion,,,,,,,high,high,,,,,,,true,,,,,false,116191.40000009537,116190.90000009537,110998.955,111205.5,111015.685,116008.713,1,16,,
trial,html.Screen,4_2_0,2023-11-27T18:42:35.992Z,,,,0,-1.082709423673037,-1.1184338818466155,,,true,hh,2671.886999904629,response,1.2253191093367526,1.2,-1.2,1.241905252673026,1.2,-1.2,high,high,,ISIC_0058666.JPG,,ISIC_1195689.JPG,,25,true,0.14,hh,keypress(i),100,false,118680.79999995232,118680.59999990463,115992.018,116191.40000009537,116008.713,118496.874,1,16,3,
sequence,flow.Sequence,4_2,2023-11-27T18:42:35.992Z,,,,,,,,,,,2671.886999904629,completion,,,,,,,high,high,,,,,,,true,,,,,false,118681.09999990463,118680.59999990463,115992.018,116191.40000009537,116008.713,118496.874,1,16,,
trial,html.Screen,4_3_0,2023-11-27T18:42:38.002Z,,,,0,-1.186629690487006,-1.3269945600040771,,,true,hh,2192.5260000953713,response,1.1870093485714288,1.2,-1.2,1.3339880978442629,1.2,-1.2,high,high,,ISIC_0015390.JPG,,ISIC_8592235.JPG,,25,true,0.14,hh,keypress(i),100,false,120689.90000009537,120689.40000009537,118480.19,118681.20000004768,118496.874,120517.738,1,16,4,
sequence,flow.Sequence,4_3,2023-11-27T18:42:38.003Z,,,,,,,,,,,2192.5260000953713,completion,,,,,,,high,high,,,,,,,true,,,,,false,120690.59999990463,120689.40000009537,118480.19,118681.09999990463,118496.874,120517.738,1,16,,
trial,html.Screen,4_4_0,2023-11-27T18:42:42.985Z,,,,0,1.077278111180185,1.1530533996184025,,,true,ll,5153.762000000002,response,-1.186629690487006,1.2,-1.2,-1.3269945600040771,1.2,-1.2,low,low,,ISIC_9525136.JPG,,ISIC_0015390.JPG,,30,true,0.13,ll,keypress(f),100,false,125672.09999990463,125671.5,120500.869,120690.90000009537,120517.738,125494.086,1,16,5,
sequence,flow.Sequence,4_4,2023-11-27T18:42:42.985Z,,,,,,,,,,,5153.762000000002,completion,,,,,,,low,low,,,,,,,true,,,,,false,125672.79999995232,125671.5,120500.869,120690.90000009537,120517.738,125494.086,1,16,,
trial,html.Screen,4_5_0,2023-11-27T18:42:50.043Z,,,,0,1.1870093485714288,1.3339880978442629,,,true,ll,7235.414000000004,response,-1.060922596470156,1.2,-1.2,-1.152385059054538,1.2,-1.2,low,low,,ISIC_8592235.JPG,,ISIC_0067719.JPG,,40,true,0.14,ll,keypress(f),100,false,132730.09999990463,132729.5,125477.213,125673.20000004768,125494.086,132557.7,1,16,6,
sequence,flow.Sequence,4_5,2023-11-27T18:42:50.043Z,,,,,,,,,,,7235.414000000004,completion,,,,,,,low,low,,,,,,,true,,,,,false,132730.79999995232,132729.5,125477.213,125673.09999990463,125494.086,132557.7,1,16,,
trial,html.Screen,4_6_0,2023-11-27T18:42:53.079Z,,,,0,1.151139267005652,1.0838749490501327,,,true,ll,3208.0999999523046,response,-1.0769708994456726,1.2,-1.2,-1.2196503533725178,1.2,-1.2,low,low,,ISIC_0002566.JPG,,ISIC_0063824.JPG,,40,true,0.14,ll,keypress(f),100,false,135766.29999995232,135765.79999995232,132540.905,132731.09999990463,132557.7,135580.215,1,16,7,
sequence,flow.Sequence,4_6,2023-11-27T18:42:53.079Z,,,,,,,,,,,3208.0999999523046,completion,,,,,,,low,low,,,,,,,true,,,,,false,135766.79999995232,135765.79999995232,132540.905,132731,132557.7,135580.215,1,16,,
trial,html.Screen,4_7_0,2023-11-27T18:42:55.549Z,,,,0,1.2246024683501224,1.2904526351590244,,,true,ll,2655.384999904636,response,-1.0605529903237636,1.2,-1.2,-1.1183115777058938,1.2,-1.2,low,low,,ISIC_4730066.JPG,,ISIC_0011365.JPG,,40,true,0.14,ll,keypress(f),100,false,138236,138235.59999990463,135563.51,135767,135580.215,138101.695,1,16,8,
sequence,flow.Sequence,4_7,2023-11-27T18:42:55.549Z,,,,,,,,,,,2655.384999904636,completion,,,,,,,low,low,,,,,,,true,,,,,false,138236.5,138235.59999990463,135563.51,135767,135580.215,138101.695,1,16,,
trial,html.Screen,4_8_0,2023-11-27T18:43:00.818Z,,,,0,0.7518277461369444,-1.3860759020802074,,,true,lh,5403.505000047677,response,-1.0788024398087033,1.2,-1.2,0.9911875460374616,1.2,-1.2,low,high,,ISIC_7967397.JPG,,ISIC_5951430.JPG,,27,true,0.40000000000000024,lh,keypress(e),100,false,143505.29999995232,143505.20000004768,138035.034,138236.79999995232,138101.695,143328.548,1,16,9,
sequence,flow.Sequence,4_8,2023-11-27T18:43:00.818Z,,,,,,,,,,,5403.505000047677,completion,,,,,,,low,high,,,,,,,true,,,,,false,143505.5,143505.20000004768,138035.034,138236.70000004768,138101.695,143328.548,1,16,,
trial,html.Screen,4_9_0,2023-11-27T18:43:05.055Z,,,,0,0.7518277461369444,-1.3860759020802074,,,true,lh,4413.45199999999,response,-0.8544507134472948,1.2,-1.2,0.9244388608707323,1.2,-1.2,low,high,,ISIC_7967397.JPG,,ISIC_3565564.JPG,,40,true,0.4500000000000003,lh,keypress(e),100,false,147742.29999995232,147742,143311.848,143505.59999990463,143328.548,147586.829,1,16,10,
sequence,flow.Sequence,4_9,2023-11-27T18:43:05.055Z,,,,,,,,,,,4413.45199999999,completion,,,,,,,low,high,,,,,,,true,,,,,false,147742.90000009537,147742,143311.848,143505.59999990463,143328.548,147586.829,1,16,,
trial,html.Screen,4_10_0,2023-11-27T18:43:08.147Z,,,,0,1.0887164761389951,-1.5357518752548716,,,true,lh,3247.171000000002,response,-0.9111352818043872,1.2,-1.2,0.7517932332411794,1.2,-1.2,low,high,,ISIC_0028127.JPG,,ISIC_3346045.JPG,,40,true,0.4500000000000003,lh,keypress(e),100,false,150834.29999995232,150834,147553.493,147743.09999990463,147586.829,150676.195,1,16,11,
sequence,flow.Sequence,4_10,2023-11-27T18:43:08.147Z,,,,,,,,,,,3247.171000000002,completion,,,,,,,low,high,,,,,,,true,,,,,false,150834.79999995232,150834,147553.493,147743,147586.829,150676.195,1,16,,
trial,html.Screen,4_11_0,2023-11-27T18:43:12.946Z,,,,0,1.0329549150636406,-1.01584100839286,,,true,lh,4956.804999999993,response,-0.8350129142228142,1.2,-1.2,0.8172547818270586,1.2,-1.2,low,high,,ISIC_0054670.JPG,,ISIC_0301568.JPG,,40,true,0.4500000000000003,lh,keypress(e),100,false,155633.40000009537,155633,150642.861,150835,150676.195,155468.845,1,16,12,
sequence,flow.Sequence,4_11,2023-11-27T18:43:12.947Z,,,,,,,,,,,4956.804999999993,completion,,,,,,,low,high,,,,,,,true,,,,,false,155633.90000009537,155633,150642.861,150835,150676.195,155468.845,1,16,,
trial,html.Screen,4_12_0,2023-11-27T18:43:18.595Z,,,,0,-0.8544507134472948,0.9244388608707323,,,true,hl,5813.555000095366,response,0.8719231363109603,1.2,-1.2,-0.7704280220140033,1.2,-1.2,high,low,,ISIC_3565564.JPG,,ISIC_0029453.JPG,,26,true,0.4500000000000003,hl,keypress(j),100,false,161282.79999995232,161282.40000009537,155435.574,155634.29999995232,155468.845,161129.871,1,16,13,
sequence,flow.Sequence,4_12,2023-11-27T18:43:18.596Z,,,,,,,,,,,5813.555000095366,completion,,,,,,,high,low,,,,,,,true,,,,,false,161283.40000009537,161282.40000009537,155435.574,155634.20000004768,155468.845,161129.871,1,16,,
trial,html.Screen,4_13_0,2023-11-27T18:43:23.018Z,,,,0,-0.9138670886161264,0.8414121478342018,,,true,hl,4575.529000095354,response,0.9653573371180936,1.2,-1.2,-0.854766800381037,1.2,-1.2,high,low,,ISIC_6709052.JPG,,ISIC_9640145.JPG,,26,true,0.4500000000000003,hl,keypress(j),100,false,165705.79999995232,165705.40000009537,161079.894,161283.59999990463,161129.871,165555.139,1,16,14,
sequence,flow.Sequence,4_13,2023-11-27T18:43:23.019Z,,,,,,,,,,,4575.529000095354,completion,,,,,,,high,low,,,,,,,true,,,,,false,165706.29999995232,165705.40000009537,161079.894,161283.59999990463,161129.871,165555.139,1,16,,
trial,html.Screen,4_14_0,2023-11-27T18:43:25.552Z,,,,0,-0.9662688541319592,0.929746784178986,,,true,hl,2683.6609999523207,response,0.8828738626295417,1.2,-1.2,-0.8288177599439582,1.2,-1.2,high,low,,ISIC_0011077.JPG,,ISIC_0056041.JPG,,26,true,0.4500000000000003,hl,keypress(j),100,false,168239.29999995232,168238.79999995232,165505.167,165706.5,165555.139,168076.72,1,16,15,
sequence,flow.Sequence,4_14,2023-11-27T18:43:25.553Z,,,,,,,,,,,2683.6609999523207,completion,,,,,,,high,low,,,,,,,true,,,,,false,168240,168238.79999995232,165505.167,165706.5,165555.139,168076.72,1,16,,
trial,html.Screen,4_15_0,2023-11-27T18:43:29.908Z,,,,0,-0.9089402323867112,0.8034544077281132,,,true,hl,4518.379999904631,response,1.2362557973341337,1.2,-1.2,-1.2548266183352603,1.2,-1.2,high,low,,ISIC_3585381.JPG,,ISIC_0033886.JPG,,26,true,0.4500000000000003,hl,keypress(j),100,false,172595.40000009537,172595.09999990463,168043.388,168240.20000004768,168076.72,172418.514,1,16,16,
sequence,flow.Sequence,4_15,2023-11-27T18:43:29.909Z,,,,,,,,,,,4518.379999904631,completion,,,,,,,high,low,,,,,,,true,,,,,false,172596,172595.09999990463,168043.388,168240.20000004768,168076.72,172418.514,1,16,,
demonstration_loop,flow.Loop,4,2023-11-27T18:43:29.909Z,,,,,,,,,,,68426.09999990463,completion,,,,,,,,,,,,,,,true,,,,,false,172596.29999995232,172595.09999990463,104152.548,104357.09999990463,104169,172418.514,1,16,,
practice_instructions,html.Screen,5,2023-11-27T18:44:04.119Z,,,,,,,,,,,34378.18600004769,response,,,,,,,,,,,,,,,,,continue,click button,,,206804.90000009537,206796.70000004768,172401.923,172596.5,172418.514,206651.792,,,,
trial,html.Screen,6_0_0,2023-11-27T18:44:11.173Z,,,,1,-1.0153439398566937,0.93001438372942,,,false,hl,7200.50799995233,response,1.2054195059663604,1.2,-1.2,-0.7760611240296147,1.2,-1.2,high,low,,ISIC_8211214.JPG,,ISIC_8712559.JPG,,26,true,0.4500000000000003,hh,keypress(i),0,false,213859.09999990463,213852.29999995232,206585.247,206805.09999990463,206651.792,213682.144,1,40,1,
sequence,flow.Sequence,6_0,2023-11-27T18:44:11.174Z,,,,,,,,,,,7200.50799995233,completion,,,,,,,high,low,,,,,,,true,,,,,false,213859.20000004768,213852.29999995232,206585.247,206805.09999990463,206651.792,213682.144,1,40,,
trial,html.Screen,6_1_0,2023-11-27T18:44:16.657Z,,,,1,0.8830264383952469,-0.8635562538060516,,,true,lh,5659.856,response,-1.2081146885025262,1.2,-1.2,1.195668832085049,1.2,-1.2,low,high,,ISIC_0032258.JPG,,ISIC_7369690.JPG,,27,true,0.40000000000000024,lh,keypress(e),0,false,219342.20000004768,219342,213648.756,213859.29999995232,213682.144,219159.533,1,40,2,
sequence,flow.Sequence,6_1,2023-11-27T18:44:16.657Z,,,,,,,,,,,5659.856,completion,,,,,,,low,high,,,,,,,true,,,,,false,219342.59999990463,219342,213648.756,213859.29999995232,213682.144,219159.533,1,40,,
trial,html.Screen,6_2_0,2023-11-27T18:44:20.783Z,,,,1,1.1684835186766898,1.2921331918483707,,,true,ll,4309.467000000004,response,-0.7946824925549466,1.2,-1.2,-1.1131375205418623,1.2,-1.2,low,low,,ISIC_5920470.JPG,,ISIC_0060096.JPG,,359,true,0.4500000000000003,ll,keypress(f),0,false,223469.20000004768,223469,219126.051,219342.79999995232,219159.533,223284.416,1,40,3,
sequence,flow.Sequence,6_2,2023-11-27T18:44:20.784Z,,,,,,,,,,,4309.467000000004,completion,,,,,,,low,low,,,,,,,true,,,,,false,223469.29999995232,223469,219126.051,219342.70000004768,219159.533,223284.416,1,40,,
trial,html.Screen,6_3_0,2023-11-27T18:44:25.263Z,,,,1,-1.1302628852630028,-1.288906469447243,,,true,hh,4664.284000047686,response,1.2253191093367526,1.2,-1.2,1.241905252673026,1.2,-1.2,high,high,,ISIC_0071050.JPG,,ISIC_1195689.JPG,,25,true,0.14,hh,keypress(i),0,false,227948.90000009537,227948.70000004768,223250.942,223469.40000009537,223284.416,227759.555,1,40,4,
sequence,flow.Sequence,6_3,2023-11-27T18:44:25.263Z,,,,,,,,,,,4664.284000047686,completion,,,,,,,high,high,,,,,,,true,,,,,false,227949,227948.70000004768,223250.942,223469.40000009537,223284.416,227759.555,1,40,,
trial,html.Screen,6_4_0,2023-11-27T18:44:28.033Z,,,,1,-1.082709423673037,-1.1184338818466155,,,true,hh,2959.1450000476907,response,1.3246728710248594,1.2,-1.2,1.1527736000922424,1.2,-1.2,high,high,,ISIC_0058666.JPG,,ISIC_6876281.JPG,,25,true,0.14,hh,keypress(i),0,false,230719,230718.70000004768,227742.815,227949.09999990463,227759.555,230598.415,1,40,5,
sequence,flow.Sequence,6_4,2023-11-27T18:44:28.034Z,,,,,,,,,,,2959.1450000476907,completion,,,,,,,high,high,,,,,,,true,,,,,false,230719.5,230718.70000004768,227742.815,227949.09999990463,227759.555,230598.415,1,40,,
trial,html.Screen,6_5_0,2023-11-27T18:44:32.761Z,,,,1,-0.8047295996345292,1.551750455622795,,,false,hl,4848.084999999992,response,0.8513427412482127,1.2,-1.2,-0.9295303568095064,1.2,-1.2,high,low,,ISIC_7717907.JPG,,ISIC_0034164.JPG,,26,true,0.4500000000000003,hh,keypress(i),0,false,235446.90000009537,235446.5,230514.972,230719.79999995232,230598.415,235274.175,1,40,6,
sequence,flow.Sequence,6_5,2023-11-27T18:44:32.762Z,,,,,,,,,,,4848.084999999992,completion,,,,,,,high,low,,,,,,,true,,,,,false,235447.40000009537,235446.5,230514.972,230719.70000004768,230598.415,235274.175,1,40,,
trial,html.Screen,6_6_0,2023-11-27T18:44:38.563Z,,,,1,-0.8987343013179191,0.8149073454566363,,,false,hl,5972.225000095379,response,0.8719231363109603,1.2,-1.2,-0.7704280220140033,1.2,-1.2,high,low,,ISIC_0472513.JPG,,ISIC_0029453.JPG,,26,true,0.4500000000000003,lh,keypress(e),0,false,241246.70000004768,241246.40000009537,235241.019,235447.59999990463,235274.175,241068.792,1,40,7,
sequence,flow.Sequence,6_6,2023-11-27T18:44:38.564Z,,,,,,,,,,,5972.225000095379,completion,,,,,,,high,low,,,,,,,true,,,,,false,241247.20000004768,241246.40000009537,235241.019,235447.5,235274.175,241068.792,1,40,,
trial,html.Screen,6_7_0,2023-11-27T18:44:42.627Z,,,,1,0.7883321712536753,-1.0011430756825364,,,false,lh,4241.408000047697,response,-1.0116417541846066,1.2,-1.2,1.033442916947398,1.2,-1.2,low,high,,ISIC_9828853.JPG,,ISIC_0031389.JPG,,27,true,0.40000000000000024,ll,keypress(f),0,false,245310.5,245310.20000004768,241035.574,241247.5,241068.792,245127.96,1,40,8,
sequence,flow.Sequence,6_7,2023-11-27T18:44:42.627Z,,,,,,,,,,,4241.408000047697,completion,,,,,,,low,high,,,,,,,true,,,,,false,245310.90000009537,245310.20000004768,241035.574,241247.40000009537,241068.792,245127.96,1,40,,
trial,html.Screen,6_8_0,2023-11-27T18:44:49.603Z,,,,1,-1.2646773654288392,0.952963803634235,,,true,hl,7158.540000000008,response,0.8828738626295417,1.2,-1.2,-0.8288177599439582,1.2,-1.2,high,low,,ISIC_1996356.JPG,,ISIC_0056041.JPG,,26,true,0.4500000000000003,hl,keypress(j),0,false,252286.90000009537,252286.5,245093.403,245311.09999990463,245127.96,252106.951,1,40,9,
sequence,flow.Sequence,6_8,2023-11-27T18:44:49.604Z,,,,,,,,,,,7158.540000000008,completion,,,,,,,high,low,,,,,,,true,,,,,false,252287.40000009537,252286.5,245093.403,245311.09999990463,245127.96,252106.951,1,40,,
trial,html.Screen,6_9_0,2023-11-27T18:44:55.419Z,,,,1,0.8926515927689261,-0.7935960767768927,,,true,lh,5995.348999952315,response,-1.0788024398087033,1.2,-1.2,0.9911875460374616,1.2,-1.2,low,high,,ISIC_8901371.JPG,,ISIC_5951430.JPG,,27,true,0.40000000000000024,lh,keypress(e),0,false,258102.59999990463,258102.29999995232,252073.683,252287.70000004768,252106.951,257918.347,1,40,10,
sequence,flow.Sequence,6_9,2023-11-27T18:44:55.419Z,,,,,,,,,,,5995.348999952315,completion,,,,,,,low,high,,,,,,,true,,,,,false,258103.09999990463,258102.29999995232,252073.683,252287.59999990463,252106.951,257918.347,1,40,,
trial,html.Screen,6_10_0,2023-11-27T18:44:58.883Z,,,,1,1.1989130276493527,1.2666195460149832,,,true,ll,3647.853000047675,response,-1.4999886889122802,1.2,-1.2,-0.8767219558395388,1.2,-1.2,low,low,,ISIC_0031705.JPG,,ISIC_0064986.JPG,,359,true,0.4500000000000003,ll,keypress(f),0,false,261566.59999990463,261566.20000004768,257901.729,258103.40000009537,257918.347,261374.997,1,40,11,
sequence,flow.Sequence,6_10,2023-11-27T18:44:58.884Z,,,,,,,,,,,3647.853000047675,completion,,,,,,,low,low,,,,,,,true,,,,,false,261567.09999990463,261566.20000004768,257901.729,258103.29999995232,257918.347,261374.997,1,40,,
trial,html.Screen,6_11_0,2023-11-27T18:45:01.675Z,,,,1,-1.1441767540243375,-1.0949087392471728,,,true,hh,2983.502999999997,response,1.2600330864275875,1.2,-1.2,1.0958628838888655,1.2,-1.2,high,high,,ISIC_0054146.JPG,,ISIC_0026996.JPG,,25,true,0.14,hh,keypress(i),0,false,264358.7999999523,264358.5,261358.5,261567.40000009537,261374.997,264163.752,1,40,12,
sequence,flow.Sequence,6_11,2023-11-27T18:45:01.676Z,,,,,,,,,,,2983.502999999997,completion,,,,,,,high,high,,,,,,,true,,,,,false,264359.5,264358.5,261358.5,261567.29999995232,261374.997,264163.752,1,40,,
trial,html.Screen,6_12_0,2023-11-27T18:45:04.914Z,,,,1,1.1684835186766898,1.2921331918483707,,,true,ll,3433.448000047705,response,-1.236306205926646,1.2,-1.2,-1.116612676102794,1.2,-1.2,low,low,,ISIC_5920470.JPG,,ISIC_0054341.JPG,,30,true,0.13,ll,keypress(f),0,false,267597.2999999523,267597.2000000477,264147.165,264359.7999999523,264163.752,267403.383,1,40,13,
sequence,flow.Sequence,6_12,2023-11-27T18:45:04.914Z,,,,,,,,,,,3433.448000047705,completion,,,,,,,low,low,,,,,,,true,,,,,false,267597.5,267597.2000000477,264147.165,264359.7999999523,264163.752,267403.383,1,40,,
trial,html.Screen,6_13_0,2023-11-27T18:45:09.914Z,,,,1,1.2253191093367526,1.241905252673026,,,true,ll,5193.6170000000275,response,-1.2691569063625474,1.2,-1.2,-1.1264228993232308,1.2,-1.2,low,low,,ISIC_1195689.JPG,,ISIC_4980656.JPG,,40,true,0.14,ll,keypress(f),0,false,272597.2000000477,272597,267386.929,267597.59999990463,267403.383,272413.484,1,40,14,
sequence,flow.Sequence,6_13,2023-11-27T18:45:09.914Z,,,,,,,,,,,5193.6170000000275,completion,,,,,,,low,low,,,,,,,true,,,,,false,272597.2999999523,272597,267386.929,267597.59999990463,267403.383,272413.484,1,40,,
trial,html.Screen,6_14_0,2023-11-27T18:45:12.067Z,,,,1,1.2253191093367526,1.241905252673026,,,true,ll,2336.8159999523195,response,-1.2118207001489876,1.2,-1.2,-1.3164676315545727,1.2,-1.2,low,low,,ISIC_1195689.JPG,,ISIC_0066476.JPG,,40,true,0.14,ll,keypress(f),0,false,274750.7000000477,274750.2999999523,272379.935,272597.40000009537,272413.484,274567.937,1,40,15,
sequence,flow.Sequence,6_14,2023-11-27T18:45:12.068Z,,,,,,,,,,,2336.8159999523195,completion,,,,,,,low,low,,,,,,,true,,,,,false,274751.2000000477,274750.2999999523,272379.935,272597.40000009537,272413.484,274567.937,1,40,,
trial,html.Screen,6_15_0,2023-11-27T18:45:20.763Z,,,,1,-1.1746004947382946,-1.2207657619249948,,,true,hh,8878.36299995234,response,1.2246024683501224,1.2,-1.2,1.2904526351590244,1.2,-1.2,high,high,,ISIC_0012069.JPG,,ISIC_4730066.JPG,,25,true,0.14,hh,keypress(i),0,false,283446.59999990463,283446.2999999523,274534.153,274751.5,274567.937,283250.908,1,40,16,
sequence,flow.Sequence,6_15,2023-11-27T18:45:20.764Z,,,,,,,,,,,8878.36299995234,completion,,,,,,,high,high,,,,,,,true,,,,,false,283447.2000000477,283446.2999999523,274534.153,274751.5,274567.937,283250.908,1,40,,
trial,html.Screen,6_16_0,2023-11-27T18:45:22.786Z,,,,1,-1.186629690487006,-1.3269945600040771,,,true,hh,2218.1919999046368,response,1.0659165756604234,1.2,-1.2,1.0867497316848906,1.2,-1.2,high,high,,ISIC_0015390.JPG,,ISIC_5807608.JPG,,25,true,0.14,hh,keypress(i),0,false,285469.2000000477,285469.09999990463,283234.327,283447.5,283250.908,285271.518,1,40,17,
sequence,flow.Sequence,6_16,2023-11-27T18:45:22.786Z,,,,,,,,,,,2218.1919999046368,completion,,,,,,,high,high,,,,,,,true,,,,,false,285469.40000009537,285469.09999990463,283234.327,283447.40000009537,283250.908,285271.518,1,40,,
trial,html.Screen,6_17_0,2023-11-27T18:45:29.715Z,,,,1,-1.0769708994456726,-1.2196503533725178,,,true,hh,7126.781999952334,response,1.077278111180185,1.2,-1.2,1.1530533996184025,1.2,-1.2,high,high,,ISIC_0063824.JPG,,ISIC_9525136.JPG,,25,true,0.14,hh,keypress(i),0,false,292398.7000000477,292398.2999999523,285254.964,285469.5,285271.518,292201.664,1,40,18,
sequence,flow.Sequence,6_17,2023-11-27T18:45:29.716Z,,,,,,,,,,,7126.781999952334,completion,,,,,,,high,high,,,,,,,true,,,,,false,292399.2000000477,292398.2999999523,285254.964,285469.5,285271.518,292201.664,1,40,,
trial,html.Screen,6_18_0,2023-11-27T18:45:34.267Z,,,,1,1.160746324899676,1.1927876559115576,,,true,ll,4749.036000047694,response,-1.0769708994456726,1.2,-1.2,-1.2196503533725178,1.2,-1.2,low,low,,ISIC_8651053.JPG,,ISIC_0063824.JPG,,30,true,0.13,ll,keypress(f),0,false,296951,296950.7000000477,292185.161,292399.5,292201.664,296810.637,1,40,19,
sequence,flow.Sequence,6_18,2023-11-27T18:45:34.268Z,,,,,,,,,,,4749.036000047694,completion,,,,,,,low,low,,,,,,,true,,,,,false,296951.40000009537,296950.7000000477,292185.161,292399.5,292201.664,296810.637,1,40,,
trial,html.Screen,6_19_0,2023-11-27T18:45:37.099Z,,,,1,1.2054195059663604,-0.7760611240296147,,,true,lh,2971.363000000012,response,-0.9138670886161264,1.2,-1.2,0.8414121478342018,1.2,-1.2,low,high,,ISIC_8712559.JPG,,ISIC_6709052.JPG,,27,true,0.40000000000000024,lh,keypress(e),0,false,299782.2000000477,299782,296744.04,296951.7000000477,296810.637,299599.38,1,40,20,
sequence,flow.Sequence,6_19,2023-11-27T18:45:37.099Z,,,,,,,,,,,2971.363000000012,completion,,,,,,,low,high,,,,,,,true,,,,,false,299782.7000000477,299782,296744.04,296951.59999990463,296810.637,299599.38,1,40,,
trial,html.Screen,6_20_0,2023-11-27T18:45:42.509Z,,,,1,0.7882758084023446,-0.8296405881378283,,,true,lh,5590.919999952312,response,-1.0926414044454305,1.2,-1.2,0.7741624649032207,1.2,-1.2,low,high,,ISIC_0065882.JPG,,ISIC_2355513.JPG,,40,true,0.4500000000000003,lh,keypress(e),0,false,305190.59999990463,305190.2999999523,299566.216,299783,299599.38,305009.921,1,40,21,
sequence,flow.Sequence,6_20,2023-11-27T18:45:42.509Z,,,,,,,,,,,5590.919999952312,completion,,,,,,,low,high,,,,,,,true,,,,,false,305191.2000000477,305190.2999999523,299566.216,299782.90000009537,299599.38,305009.921,1,40,,
trial,html.Screen,6_21_0,2023-11-27T18:45:43.837Z,,,,1,0.8513427412482127,-0.9295303568095064,,,true,lh,1508.2790000477107,response,-0.7714570894008278,1.2,-1.2,0.9113656554657036,1.2,-1.2,low,high,,ISIC_0034164.JPG,,ISIC_4529092.JPG,,40,true,0.4500000000000003,lh,keypress(e),0,false,306518.59999990463,306518.2000000477,304976.657,305191.40000009537,305009.921,306345.856,1,40,22,
sequence,flow.Sequence,6_21,2023-11-27T18:45:43.837Z,,,,,,,,,,,1508.2790000477107,completion,,,,,,,low,high,,,,,,,true,,,,,false,306519.09999990463,306518.2000000477,304976.657,305191.40000009537,305009.921,306345.856,1,40,,
trial,html.Screen,6_22_0,2023-11-27T18:45:45.141Z,,,,1,0.8926515927689261,-0.7935960767768927,,,true,lh,1476.6439999999711,response,-0.7692916291112835,1.2,-1.2,0.7818604706992622,1.2,-1.2,low,high,,ISIC_8901371.JPG,,ISIC_7844825.JPG,,40,true,0.4500000000000003,lh,keypress(e),0,false,307822.7999999523,307822.5,306312.58,306519.2999999523,306345.856,307648.388,1,40,23,
sequence,flow.Sequence,6_22,2023-11-27T18:45:45.142Z,,,,,,,,,,,1476.6439999999711,completion,,,,,,,low,high,,,,,,,true,,,,,false,307823.5,307822.5,306312.58,306519.2000000477,306345.856,307648.388,1,40,,
trial,html.Screen,6_23_0,2023-11-27T18:45:46.541Z,,,,1,-0.9544693251394116,1.0727539917203766,,,true,hl,1573.8120000477065,response,1.0887164761389951,1.2,-1.2,-1.5357518752548716,1.2,-1.2,high,low,,ISIC_0055147.JPG,,ISIC_0028127.JPG,,26,true,0.4500000000000003,hl,keypress(j),0,false,309222.5,309222.2000000477,307615.188,307823.7999999523,307648.388,309034.599,1,40,24,
sequence,flow.Sequence,6_23,2023-11-27T18:45:46.541Z,,,,,,,,,,,1573.8120000477065,completion,,,,,,,high,low,,,,,,,true,,,,,false,309223.09999990463,309222.2000000477,307615.188,307823.7000000477,307648.388,309034.599,1,40,,
trial,html.Screen,6_24_0,2023-11-27T18:45:47.717Z,,,,1,1.3379750533585932,1.1671342614509763,,,true,ll,1363.6010000476963,response,-1.0059228250363343,1.2,-1.2,-1.3139143825328468,1.2,-1.2,low,low,,ISIC_0063556.JPG,,ISIC_0033479.JPG,,288,true,0.40000000000000024,ll,keypress(f),0,false,310398.7000000477,310398.2000000477,309017.735,309223.2999999523,309034.599,310236.756,1,40,25,
sequence,flow.Sequence,6_24,2023-11-27T18:45:47.717Z,,,,,,,,,,,1363.6010000476963,completion,,,,,,,low,low,,,,,,,true,,,,,false,310399.09999990463,310398.2000000477,309017.735,309223.2000000477,309034.599,310236.756,1,40,,
trial,html.Screen,6_25_0,2023-11-27T18:45:50.133Z,,,,1,-0.8544507134472948,0.9244388608707323,,,true,hl,2577.4440000476898,response,0.7991459998473059,1.2,-1.2,-1.0280788723474688,1.2,-1.2,high,low,,ISIC_3565564.JPG,,ISIC_7951202.JPG,,26,true,0.4500000000000003,hl,keypress(j),0,false,312814.5,312814.2000000477,310186.693,310399.2999999523,310236.756,312624.834,1,40,26,
sequence,flow.Sequence,6_25,2023-11-27T18:45:50.133Z,,,,,,,,,,,2577.4440000476898,completion,,,,,,,high,low,,,,,,,true,,,,,false,312815,312814.2000000477,310186.693,310399.2999999523,310236.756,312624.834,1,40,,
trial,html.Screen,6_26_0,2023-11-27T18:45:51.813Z,,,,1,-1.1746004947382946,-1.2207657619249948,,,true,hh,1869.4659999523428,response,1.4791526186726216,1.2,-1.2,1.080921084754615,1.2,-1.2,high,high,,ISIC_0012069.JPG,,ISIC_6737771.JPG,,203,true,0.40000000000000024,hh,keypress(i),0,false,314494.59999990463,314494.2999999523,312608.29,312815.2999999523,312624.834,314328.053,1,40,27,
sequence,flow.Sequence,6_26,2023-11-27T18:45:51.813Z,,,,,,,,,,,1869.4659999523428,completion,,,,,,,high,high,,,,,,,true,,,,,false,314495.2000000477,314494.2999999523,312608.29,312815.2000000477,312624.834,314328.053,1,40,,
trial,html.Screen,6_27_0,2023-11-27T18:45:53.101Z,,,,1,1.075512775389519,-1.0454702683049502,,,true,lh,1454.2469999523018,response,-1.2594580992890123,1.2,-1.2,0.8833175387485132,1.2,-1.2,low,high,,ISIC_0033603.JPG,,ISIC_0011933.JPG,,27,true,0.40000000000000024,lh,keypress(e),0,false,315782.59999990463,315782.2999999523,314278.225,314495.59999990463,314328.053,315597.206,1,40,28,
sequence,flow.Sequence,6_27,2023-11-27T18:45:53.101Z,,,,,,,,,,,1454.2469999523018,completion,,,,,,,low,high,,,,,,,true,,,,,false,315783.2000000477,315782.2999999523,314278.225,314495.5,314328.053,315597.206,1,40,,
trial,html.Screen,6_28_0,2023-11-27T18:45:54.276Z,,,,1,-0.90812608370647,1.2720026872926935,,,true,hl,1360.2939999999944,response,0.989300717252516,1.2,-1.2,-0.7908280206937478,1.2,-1.2,high,low,,ISIC_0450295.JPG,,ISIC_6416533.JPG,,26,true,0.4500000000000003,hl,keypress(j),0,false,316957.7000000477,316957.5,315580.521,315783.2999999523,315597.206,316766.206,1,40,29,
sequence,flow.Sequence,6_28,2023-11-27T18:45:54.276Z,,,,,,,,,,,1360.2939999999944,completion,,,,,,,high,low,,,,,,,true,,,,,false,316958.2000000477,316957.5,315580.521,315783.2999999523,315597.206,316766.206,1,40,,
trial,html.Screen,6_29_0,2023-11-27T18:45:56.365Z,,,,1,-1.071312313440387,-1.0935391476164529,,,true,hh,2280.194000095362,response,1.5793180618311822,1.2,-1.2,0.8384436306332896,1.2,-1.2,high,high,,ISIC_0063680.JPG,,ISIC_1584535.JPG,,203,true,0.40000000000000024,hh,keypress(i),0,false,319046.7000000477,319046.40000009537,316749.526,316958.2999999523,316766.206,318920.31,1,40,30,
sequence,flow.Sequence,6_29,2023-11-27T18:45:56.365Z,,,,,,,,,,,2280.194000095362,completion,,,,,,,high,high,,,,,,,true,,,,,false,319047.2000000477,319046.40000009537,316749.526,316958.2999999523,316766.206,318920.31,1,40,,
trial,html.Screen,6_30_0,2023-11-27T18:45:58.125Z,,,,1,-0.8307508446051526,1.1707575338936729,,,true,hl,1885.9899999523186,response,1.2362557973341337,1.2,-1.2,-1.2548266183352603,1.2,-1.2,high,low,,ISIC_0028606.JPG,,ISIC_0033886.JPG,,26,true,0.4500000000000003,hl,keypress(j),0,false,320806.7000000477,320806.2999999523,318836.998,319047.40000009537,318920.31,320607.035,1,40,31,
sequence,flow.Sequence,6_30,2023-11-27T18:45:58.125Z,,,,,,,,,,,1885.9899999523186,completion,,,,,,,high,low,,,,,,,true,,,,,false,320807.09999990463,320806.2999999523,318836.998,319047.40000009537,318920.31,320607.035,1,40,,
trial,html.Screen,6_31_0,2023-11-27T18:45:59.653Z,,,,1,1.1870093485714288,1.3339880978442629,,,true,ll,1727.264999952342,response,-1.3876053446140826,1.2,-1.2,-1.003456017014458,1.2,-1.2,low,low,,ISIC_8592235.JPG,,ISIC_0031795.JPG,,288,true,0.40000000000000024,ll,keypress(f),0,false,322334.59999990463,322334.2999999523,320590.462,320807.2999999523,320607.035,322143.283,1,40,32,
sequence,flow.Sequence,6_31,2023-11-27T18:45:59.653Z,,,,,,,,,,,1727.264999952342,completion,,,,,,,low,low,,,,,,,true,,,,,false,322335.2000000477,322334.2999999523,320590.462,320807.2999999523,320607.035,322143.283,1,40,,
trial,html.Screen,6_32_0,2023-11-27T18:46:01.261Z,,,,1,-1.082709423673037,-1.1184338818466155,,,true,hh,1799.2170000000042,response,1.160746324899676,1.2,-1.2,1.1927876559115576,1.2,-1.2,high,high,,ISIC_0058666.JPG,,ISIC_8651053.JPG,,25,true,0.14,hh,keypress(i),0,false,323942.7999999523,323942.5,322126.807,322335.40000009537,322143.283,323779.792,1,40,33,
sequence,flow.Sequence,6_32,2023-11-27T18:46:01.261Z,,,,,,,,,,,1799.2170000000042,completion,,,,,,,high,high,,,,,,,true,,,,,false,323943.2999999523,323942.5,322126.807,322335.2999999523,322143.283,323779.792,1,40,,
trial,html.Screen,6_33_0,2023-11-27T18:46:03.188Z,,,,1,-0.9089402323867112,0.8034544077281132,,,true,hl,2089.6080000953516,response,0.8034318937720549,1.2,-1.2,-1.0024917298189338,1.2,-1.2,high,low,,ISIC_3585381.JPG,,ISIC_0032766.JPG,,26,true,0.4500000000000003,hl,keypress(j),0,false,325869.5,325869.40000009537,323729.974,323943.59999990463,323779.792,325683.559,1,40,34,
sequence,flow.Sequence,6_33,2023-11-27T18:46:03.188Z,,,,,,,,,,,2089.6080000953516,completion,,,,,,,high,low,,,,,,,true,,,,,false,325869.7000000477,325869.40000009537,323729.974,323943.5,323779.792,325683.559,1,40,,
trial,html.Screen,6_34_0,2023-11-27T18:46:04.925Z,,,,1,-1.2194553326562725,-1.2381726989215684,,,true,hh,1922.740999952308,response,0.8639662056285013,1.2,-1.2,0.9092203211946492,1.2,-1.2,high,high,,ISIC_0068975.JPG,,ISIC_2634356.JPG,,203,true,0.40000000000000024,hh,keypress(i),0,false,327606.59999990463,327606.2999999523,325666.806,325869.7999999523,325683.559,327453.613,1,40,35,
sequence,flow.Sequence,6_34,2023-11-27T18:46:04.925Z,,,,,,,,,,,1922.740999952308,completion,,,,,,,high,high,,,,,,,true,,,,,false,327607.09999990463,327606.2999999523,325666.806,325869.7999999523,325683.559,327453.613,1,40,,
trial,html.Screen,6_35_0,2023-11-27T18:46:06.573Z,,,,1,-1.0685314915436992,0.8203833713472237,,,true,hl,1800.886999999988,response,1.199471562817528,1.2,-1.2,-0.8631260534979347,1.2,-1.2,high,low,,ISIC_0029374.JPG,,ISIC_0030754.JPG,,26,true,0.4500000000000003,hl,keypress(j),0,false,329254.7999999523,329254.5,327403.752,327607.40000009537,327453.613,329090.124,1,40,36,
sequence,flow.Sequence,6_35,2023-11-27T18:46:06.573Z,,,,,,,,,,,1800.886999999988,completion,,,,,,,high,low,,,,,,,true,,,,,false,329255.40000009537,329254.5,327403.752,327607.2999999523,327453.613,329090.124,1,40,,
trial,html.Screen,6_36_0,2023-11-27T18:46:08.181Z,,,,1,0.989300717252516,-0.7908280206937478,,,true,lh,1772.3759999999893,response,-0.9662688541319592,1.2,-1.2,0.929746784178986,1.2,-1.2,low,high,,ISIC_6416533.JPG,,ISIC_0011077.JPG,,27,true,0.40000000000000024,lh,keypress(e),0,false,330862.90000009537,330862.5,329040.122,329255.59999990463,329090.124,330676.633,1,40,37,
sequence,flow.Sequence,6_36,2023-11-27T18:46:08.181Z,,,,,,,,,,,1772.3759999999893,completion,,,,,,,low,high,,,,,,,true,,,,,false,330863.2999999523,330862.5,329040.122,329255.59999990463,329090.124,330676.633,1,40,,
trial,html.Screen,6_37_0,2023-11-27T18:46:09.899Z,,,,1,1.2946277435220357,1.255157480204324,,,true,ll,1904.267000095395,response,-1.5910077180508115,1.2,-1.2,-0.7598043415754455,1.2,-1.2,low,low,,ISIC_1870309.JPG,,ISIC_0062935.JPG,,359,true,0.4500000000000003,ll,keypress(f),0,false,332581,332580.90000009537,330660.1,330863.59999990463,330676.633,332397.689,1,40,38,
sequence,flow.Sequence,6_37,2023-11-27T18:46:09.899Z,,,,,,,,,,,1904.267000095395,completion,,,,,,,low,low,,,,,,,true,,,,,false,332581.09999990463,332580.90000009537,330660.1,330863.5,330676.633,332397.689,1,40,,
trial,html.Screen,6_38_0,2023-11-27T18:46:11.436Z,,,,1,1.0943527860463682,1.124481746658104,,,true,ll,1720.4109999046195,response,-1.0605529903237636,1.2,-1.2,-1.1183115777058938,1.2,-1.2,low,low,,ISIC_0438136.JPG,,ISIC_0011365.JPG,,40,true,0.14,ll,keypress(f),0,false,334118.40000009537,334118.09999990463,332363.379,332581.09999990463,332397.689,333949.595,1,40,39,
sequence,flow.Sequence,6_38,2023-11-27T18:46:11.437Z,,,,,,,,,,,1720.4109999046195,completion,,,,,,,low,low,,,,,,,true,,,,,false,334119,334118.09999990463,332363.379,332581.09999990463,332397.689,333949.595,1,40,,
trial,html.Screen,6_39_0,2023-11-27T18:46:13.019Z,,,,1,0.8513427412482127,-0.9295303568095064,,,true,lh,1751.7049999523442,response,-1.0116417541846066,1.2,-1.2,1.033442916947398,1.2,-1.2,low,high,,ISIC_0034164.JPG,,ISIC_0031389.JPG,,27,true,0.40000000000000024,lh,keypress(e),0,false,335701.5,335701.2999999523,333916.374,334119.2000000477,333949.595,335502.599,1,40,40,
sequence,flow.Sequence,6_39,2023-11-27T18:46:13.020Z,,,,,,,,,,,1751.7049999523442,completion,,,,,,,low,high,,,,,,,true,,,,,false,335701.59999990463,335701.2999999523,333916.374,334119.09999990463,333949.595,335502.599,1,40,,
practice_loop,flow.Loop,6,2023-11-27T18:46:13.020Z,,,,,,,,,,,129049.50799995233,completion,,,,,,,,,,,,,,,true,,,,,false,335701.7000000477,335701.2999999523,206585.247,206805,206651.792,335502.599,1,40,,
stair_instructions,html.Screen,7,2023-11-27T18:46:21.307Z,,,,,,,,,,,8486.101000047696,response,,,,,,,,,,,,,,,,,continue,click button,,,343989.2000000477,343988.7000000477,335486.04,335701.7999999523,335502.599,343802.168,,,,
trial,html.Screen,8_0_0,2023-11-27T18:46:25.499Z,,,,2,-0.039520186367207,-0.0377961575607372,,0.04,false,hl,4378.931999904627,response,0.7882758084023446,1.2,-1.2,-0.8296405881378283,1.2,-1.2,high,low,,ISIC_6356149.JPG,,ISIC_0065882.JPG,28,26,false,0.4500000000000003,hh,keypress(i),0,true,348181.2000000477,348181.09999990463,343785.666,343989.40000009537,343802.168,347993.598,1,40,1,
sequence,flow.Sequence,8_0,2023-11-27T18:46:25.499Z,,,,,,,,,,,4378.931999904627,completion,,,,,,,high,low,,,,,,,false,,,,,true,348181.40000009537,348181.09999990463,343785.666,343989.40000009537,343802.168,347993.598,1,40,,
trial,html.Screen,8_1_0,2023-11-27T18:46:28.373Z,,,,2,0.0044063257337227,0.0172548282859886,,0.04,false,hl,3060.8020000953693,response,1.075512775389519,1.15,-1.15,-1.0454702683049502,1.15,-1.2,high,low,,ISIC_7413786.JPG,,ISIC_0033603.JPG,28,25,false,0.42000000000000026,ll,keypress(f),0,true,351054.7000000477,351054.40000009537,347976.945,348181.40000009537,347993.598,350865.938,1,40,2,
sequence,flow.Sequence,8_1,2023-11-27T18:46:28.373Z,,,,,,,,,,,3060.8020000953693,completion,,,,,,,high,low,,,,,,,false,,,,,true,351055.09999990463,351054.40000009537,347976.945,348181.40000009537,347993.598,350865.938,1,40,,
trial,html.Screen,8_2_0,2023-11-27T18:46:31.222Z,,,,2,0,-0.0102871556606504,,0.04,true,ll,3037.5619999999763,response,-1.0865209011322887,1.15,-1.15,-1.1401461171952545,1.15,-1.15,low,low,,ISIC_1805163.JPG,,ISIC_0016145.JPG,28,27,false,0.1,ll,keypress(f),0,true,353903.59999990463,353903.5,350849.373,351055.40000009537,350865.938,353704.696,1,40,3,
sequence,flow.Sequence,8_2,2023-11-27T18:46:31.222Z,,,,,,,,,,,3037.5619999999763,completion,,,,,,,low,low,,,,,,,false,,,,,true,353903.7000000477,353903.5,350849.373,351055.40000009537,350865.938,353704.696,1,40,,
trial,html.Screen,8_3_0,2023-11-27T18:46:35.733Z,,,,2,0,-0.0102871556606504,,0.04,false,hh,4709.804000000004,response,1.109799097093339,1.15,-1.15,1.091507924157762,1.15,-1.0633335091637715,high,high,,ISIC_1805163.JPG,,ISIC_0765584.JPG,28,27,false,0.14,lh,keypress(e),0,true,358414.7999999523,358414.5,353688.144,353903.7999999523,353704.696,358230.329,1,40,4,
sequence,flow.Sequence,8_3,2023-11-27T18:46:35.733Z,,,,,,,,,,,4709.804000000004,completion,,,,,,,high,high,,,,,,,false,,,,,true,358415.40000009537,358414.5,353688.144,353903.7999999523,353704.696,358230.329,1,40,,
trial,html.Screen,8_4_0,2023-11-27T18:46:38.983Z,,,,2,-0.0388334549081915,0.0303399972963369,,0.04,true,ll,3432.170999999973,response,-1.2014901828022857,1.15,-1.15,-1.1484096197304636,1.15,-1.0633335091637715,low,low,,ISIC_4961708.JPG,,ISIC_0067808.JPG,28,27,false,0.1,ll,keypress(f),0,true,361662.90000009537,361662.5,358213.68,358415.59999990463,358230.329,361486.548,1,40,5,
sequence,flow.Sequence,8_4,2023-11-27T18:46:38.983Z,,,,,,,,,,,3432.170999999973,completion,,,,,,,low,low,,,,,,,false,,,,,true,361663.5,361662.5,358213.68,358415.59999990463,358230.329,361486.548,1,40,,
trial,html.Screen,8_5_0,2023-11-27T18:46:41.991Z,,,,2,0.0367706518941078,-0.0161069838272154,,0.04,true,hh,3184.152000047674,response,1.2600330864275875,1.15,-1.1249499012663746,1.0958628838888655,1.15,-1.0633335091637715,high,high,,ISIC_0033419.JPG,,ISIC_0026996.JPG,28,27,false,0.14,hh,keypress(i),0,true,364671.09999990463,364670.7000000477,361453.325,361663.7999999523,361486.548,364475.674,1,40,6,
sequence,flow.Sequence,8_5,2023-11-27T18:46:41.991Z,,,,,,,,,,,3184.152000047674,completion,,,,,,,high,high,,,,,,,false,,,,,true,364671.59999990463,364670.7000000477,361453.325,361663.7000000477,361486.548,364475.674,1,40,,
trial,html.Screen,8_6_0,2023-11-27T18:46:44.119Z,,,,2,-0.0388334549081915,0.0303399972963369,,0.04,true,ll,2322.826000000001,response,-1.0679712388489528,1.15,-1.1249499012663746,-1.0509600192807842,1.1279479851582266,-1.0633335091637715,low,low,,ISIC_4961708.JPG,,ISIC_0015180.JPG,28,34,false,0.1,ll,keypress(f),0,true,366798.7999999523,366798.5,364459.222,364671.90000009537,364475.674,366613.18,1,40,7,
sequence,flow.Sequence,8_6,2023-11-27T18:46:44.119Z,,,,,,,,,,,2322.826000000001,completion,,,,,,,low,low,,,,,,,false,,,,,true,366799.2999999523,366798.5,364459.222,364671.90000009537,364475.674,366613.18,1,40,,
trial,html.Screen,8_7_0,2023-11-27T18:46:47.183Z,,,,2,0.0257631352671967,0.0202837002774028,,0.04,false,hl,3249.4199999046396,response,1.2499674737468107,1.15,-1.1249499012663746,-0.7169661572441197,1.1279479851582266,-1.0094656290648685,high,low,,ISIC_0032797.JPG,,ISIC_0013617.JPG,28,26,false,0.31000000000000016,hh,keypress(i),0,true,369862.90000009537,369862.59999990463,366596.681,366799.59999990463,366613.18,369669.1,1,40,8,
sequence,flow.Sequence,8_7,2023-11-27T18:46:47.183Z,,,,,,,,,,,3249.4199999046396,completion,,,,,,,high,low,,,,,,,false,,,,,true,369863.40000009537,369862.59999990463,366596.681,366799.59999990463,366613.18,369669.1,1,40,,
trial,html.Screen,8_8_0,2023-11-27T18:46:52.031Z,,,,2,0.0286056110007553,0.036125199756515,,0.04,false,ll,5041.999999904656,response,-1.1209497725708388,1.0999999999999999,-1.1249499012663746,-0.9895687497294692,1.1279479851582266,-1.0594656290648685,low,low,,ISIC_6535558.JPG,,ISIC_0027751.JPG,28,33,false,0.1,lh,keypress(e),0,true,374711.5,374711.09999990463,369652.591,369863.7000000477,369669.1,374511.932,1,40,9,
sequence,flow.Sequence,8_8,2023-11-27T18:46:52.032Z,,,,,,,,,,,5041.999999904656,completion,,,,,,,low,low,,,,,,,false,,,,,true,374712,374711.09999990463,369652.591,369863.7000000477,369669.1,374511.932,1,40,,
trial,html.Screen,8_9_0,2023-11-27T18:46:54.199Z,,,,2,-0.039520186367207,-0.0377961575607372,,0.04,true,ll,2366.768000047712,response,-1.011046725964536,1.0999999999999999,-1.044460505709896,-1.2027346117133495,1.1279479851582266,-1.1094656290648686,low,low,,ISIC_6356149.JPG,,ISIC_0000292.JPG,28,42,false,0.1,ll,keypress(f),0,true,376879.09999990463,376878.7000000477,374495.296,374712.09999990463,374511.932,376699.468,1,40,10,
sequence,flow.Sequence,8_9,2023-11-27T18:46:54.199Z,,,,,,,,,,,2366.768000047712,completion,,,,,,,low,low,,,,,,,false,,,,,true,376879.59999990463,376878.7000000477,374495.296,374712.09999990463,374511.932,376699.468,1,40,,
trial,html.Screen,8_10_0,2023-11-27T18:46:59.326Z,,,,2,0.0200295718112167,0.0155559071275806,,0.04,false,lh,5306.73200004769,response,-0.9662688541319592,1.0999999999999999,-1.044460505709896,0.929746784178986,1.1279479851582266,-1.1094656290648686,low,high,,ISIC_0061343.JPG,,ISIC_0011077.JPG,28,26,false,0.29000000000000015,ll,keypress(f),0,true,382006.40000009537,382006.2000000477,376666.228,376879.7999999523,376699.468,381826.085,1,40,11,
sequence,flow.Sequence,8_10,2023-11-27T18:46:59.327Z,,,,,,,,,,,5306.73200004769,completion,,,,,,,low,high,,,,,,,false,,,,,true,382006.90000009537,382006.2000000477,376666.228,376879.7999999523,376699.468,381826.085,1,40,,
trial,html.Screen,8_11_0,2023-11-27T18:47:03.415Z,,,,2,-0.0388181790775959,0.0049623405709465,,0.04,true,hl,4268.714999952295,response,0.7991459998473059,1.0999999999999999,-1.0345017329226542,-1.0280788723474688,1.1779479851582266,-1.1094656290648686,high,low,,ISIC_0061880.JPG,,ISIC_7951202.JPG,28,26,false,0.3600000000000002,hl,keypress(j),0,true,386095.2000000477,386094.7999999523,381792.887,382007.09999990463,381826.085,385917.379,1,40,12,
sequence,flow.Sequence,8_11,2023-11-27T18:47:03.415Z,,,,,,,,,,,4268.714999952295,completion,,,,,,,high,low,,,,,,,false,,,,,true,386095.59999990463,386094.7999999523,381792.887,382007,381826.085,385917.379,1,40,,
trial,html.Screen,8_12_0,2023-11-27T18:47:09.039Z,,,,2,0.0308384937406319,-0.0038396364323947,,0.04,false,lh,5801.220999904617,response,-0.7629099401226335,1.0999999999999999,-1.0345017329226542,0.8515956627075536,1.1779479851582266,-1.0594656290648685,low,high,,ISIC_0029825.JPG,,ISIC_0028718.JPG,28,26,false,0.3300000000000002,hh,keypress(i),0,true,391718.90000009537,391718.59999990463,385884.238,386095.90000009537,385917.379,391545.042,1,40,13,
sequence,flow.Sequence,8_12,2023-11-27T18:47:09.039Z,,,,,,,,,,,5801.220999904617,completion,,,,,,,low,high,,,,,,,false,,,,,true,391719.5,391718.59999990463,385884.238,386095.90000009537,385917.379,391545.042,1,40,,
trial,html.Screen,8_13_0,2023-11-27T18:47:16.541Z,,,,2,0.0200295718112167,0.0155559071275806,,0.04,false,lh,7676.2579999523,response,-0.9633172970727744,1.0999999999999999,-1.0845017329226543,0.8472659344792351,1.1779479851582266,-1.0594656290648685,low,high,,ISIC_0061343.JPG,,ISIC_0067172.JPG,28,26,false,0.3400000000000002,ll,keypress(f),0,true,399221.40000009537,399221.2999999523,391511.554,391719.7000000477,391545.042,399026.243,1,40,14,
sequence,flow.Sequence,8_13,2023-11-27T18:47:16.541Z,,,,,,,,,,,7676.2579999523,completion,,,,,,,low,high,,,,,,,false,,,,,true,399221.5,399221.2999999523,391511.554,391719.7000000477,391545.042,399026.243,1,40,,
trial,html.Screen,8_14_0,2023-11-27T18:47:21.199Z,,,,2,-0.0374659946425444,-0.0086043094957617,,0.04,false,hh,4852.256999999983,response,0.9832288967264424,1.0999999999999999,-1.0845017329226543,1.0898586098590013,1.1779479851582266,-1.0594656290648685,high,high,,ISIC_0033051.JPG,,ISIC_2724529.JPG,28,26,false,0.14,ll,keypress(f),0,true,403878.90000009537,403878.5,399009.736,399221.5,399026.243,403685.333,1,40,15,
sequence,flow.Sequence,8_14,2023-11-27T18:47:21.199Z,,,,,,,,,,,4852.256999999983,completion,,,,,,,high,high,,,,,,,false,,,,,true,403879.40000009537,403878.5,399009.736,399221.5,399026.243,403685.333,1,40,,
trial,html.Screen,8_15_0,2023-11-27T18:47:24.597Z,,,,2,0.0283578106329894,-0.0088840758711548,,0.04,true,hh,3591.667000000016,response,1.2246024683501224,1.15,-1.0845017329226543,1.2904526351590244,1.1779479851582266,-1.0594656290648685,high,high,,ISIC_0060707.JPG,,ISIC_4730066.JPG,28,26,false,0.14,hh,keypress(i),0,true,407277.09999990463,407277,403668.824,403879.7000000477,403685.333,407091.977,1,40,16,
sequence,flow.Sequence,8_15,2023-11-27T18:47:24.597Z,,,,,,,,,,,3591.667000000016,completion,,,,,,,high,high,,,,,,,false,,,,,true,407277.2999999523,407277,403668.824,403879.59999990463,403685.333,407091.977,1,40,,
trial,html.Screen,8_16_0,2023-11-27T18:47:30.871Z,,,,2,0.0367744112927588,0.0324865661712824,,0.04,true,hl,6458.822999952303,response,0.989300717252516,1.15,-1.0845017329226543,-0.7908280206937478,1.1779479851582266,-1.0594656290648685,high,low,,ISIC_4523565.JPG,,ISIC_6416533.JPG,28,27,false,0.3500000000000002,hl,keypress(j),0,true,413551.09999990463,413550.7999999523,407075.258,407277.2999999523,407091.977,413354.135,1,40,17,
sequence,flow.Sequence,8_16,2023-11-27T18:47:30.871Z,,,,,,,,,,,6458.822999952303,completion,,,,,,,high,low,,,,,,,false,,,,,true,413551.59999990463,413550.7999999523,407075.258,407277.2999999523,407091.977,413354.135,1,40,,
trial,html.Screen,8_17_0,2023-11-27T18:47:34.557Z,,,,2,-0.0388334549081915,0.0303399972963369,,0.04,true,hh,3882.8649999999907,response,1.2246024683501224,1.0999999999999999,-1.0845017329226543,1.2904526351590244,1.1779479851582266,-1.0594656290648685,high,high,,ISIC_4961708.JPG,,ISIC_4730066.JPG,28,26,false,0.14,hh,keypress(i),0,true,417237.09999990463,417237,413337.712,413551.7999999523,413354.135,417044.688,1,40,18,
sequence,flow.Sequence,8_17,2023-11-27T18:47:34.557Z,,,,,,,,,,,3882.8649999999907,completion,,,,,,,high,high,,,,,,,false,,,,,true,417237.2999999523,417237,413337.712,413551.7999999523,413354.135,417044.688,1,40,,
trial,html.Screen,8_18_0,2023-11-27T18:47:41.936Z,,,,2,0.0367706518941078,-0.0161069838272154,,0.04,false,lh,7569.911999904609,response,-1.2594580992890123,1.0999999999999999,-1.0845017329226543,0.8833175387485132,1.1575275517545733,-1.0594656290648685,low,high,,ISIC_0033419.JPG,,ISIC_0011933.JPG,28,25,false,0.3200000000000002,hl,keypress(j),0,true,424614.90000009537,424614.59999990463,417028.177,417237.2999999523,417044.688,424425.772,1,40,19,
sequence,flow.Sequence,8_18,2023-11-27T18:47:41.937Z,,,,,,,,,,,7569.911999904609,completion,,,,,,,low,high,,,,,,,false,,,,,true,424615.40000009537,424614.59999990463,417028.177,417237.2999999523,417044.688,424425.772,1,40,,
trial,html.Screen,8_19_0,2023-11-27T18:47:45.320Z,,,,2,0,-0.0102871556606504,,0.04,true,ll,3572.8279999046354,response,-1.0593040390975434,1.0999999999999999,-1.1345017329226543,-1.0413442695273454,1.1575275517545733,-1.0594656290648685,low,low,,ISIC_1805163.JPG,,ISIC_0061293.JPG,28,31,false,0.1,ll,keypress(f),0,true,427998.90000009537,427998.59999990463,424408.956,424615.59999990463,424425.772,427816.092,1,40,20,
sequence,flow.Sequence,8_19,2023-11-27T18:47:45.321Z,,,,,,,,,,,3572.8279999046354,completion,,,,,,,low,low,,,,,,,false,,,,,true,427999.40000009537,427998.59999990463,424408.956,424615.5,424425.772,427816.092,1,40,,
trial,html.Screen,8_20_0,2023-11-27T18:47:49.032Z,,,,2,-0.0199950873045219,-0.0172506388509166,,0.04,false,hl,3894.407999999996,response,0.8034318937720549,1.0999999999999999,-1.1345017329226543,-1.0024917298189338,1.1575275517545733,-1.0003241543124444,high,low,,ISIC_0029906.JPG,,ISIC_0032766.JPG,28,29,false,0.30000000000000016,hh,keypress(i),0,true,431710.90000009537,431710.5,427782.385,427999.7000000477,427816.092,431522.858,1,40,21,
sequence,flow.Sequence,8_20,2023-11-27T18:47:49.033Z,,,,,,,,,,,3894.407999999996,completion,,,,,,,high,low,,,,,,,false,,,,,true,431711.2999999523,431710.5,427782.385,427999.59999990463,427816.092,431522.858,1,40,,
trial,html.Screen,8_21_0,2023-11-27T18:47:51.560Z,,,,2,-0.0065172941585523,0.0118857043117315,,0.04,false,lh,2715.6419999999925,response,-0.9633172970727744,1.0499999999999998,-1.1345017329226543,0.8472659344792351,1.1575275517545733,-1.0503241543124444,low,high,,ISIC_6119202.JPG,,ISIC_0067172.JPG,28,27,false,0.3500000000000002,hh,keypress(i),0,true,434238.7000000477,434238.5,431506.384,431711.59999990463,431522.858,434044.378,1,40,22,
sequence,flow.Sequence,8_21,2023-11-27T18:47:51.561Z,,,,,,,,,,,2715.6419999999925,completion,,,,,,,low,high,,,,,,,false,,,,,true,434239.2000000477,434238.5,431506.384,431711.5,431522.858,434044.378,1,40,,
trial,html.Screen,8_22_0,2023-11-27T18:47:54.296Z,,,,2,0.0220026381002083,-0.0170756452911772,,0.04,true,ll,2930.3220000476576,response,-1.1441767540243375,1.0499999999999998,-1.1845017329226544,-1.0949087392471728,1.1575275517545733,-1.0503241543124444,low,low,,ISIC_5347806.JPG,,ISIC_0054146.JPG,28,30,false,0.12,ll,keypress(f),0,true,436975,436974.7000000477,434027.982,434239.59999990463,434044.378,436783.074,1,40,23,
sequence,flow.Sequence,8_22,2023-11-27T18:47:54.297Z,,,,,,,,,,,2930.3220000476576,completion,,,,,,,low,low,,,,,,,false,,,,,true,436975.59999990463,436974.7000000477,434027.982,434239.5,434044.378,436783.074,1,40,,
trial,html.Screen,8_23_0,2023-11-27T18:47:56.608Z,,,,2,0.0367706518941078,-0.0161069838272154,,0.04,true,ll,2503.4259999999776,response,-1.14454137020797,1.0499999999999998,-1.1845017329226544,-1.1082302786512033,1.1575275517545733,-1.0503241543124444,low,low,,ISIC_0033419.JPG,,ISIC_0065128.JPG,28,30,false,0.12,ll,keypress(f),0,true,439286.7999999523,439286.5,436766.599,436975.7999999523,436783.074,439104.246,1,40,24,
sequence,flow.Sequence,8_23,2023-11-27T18:47:56.609Z,,,,,,,,,,,2503.4259999999776,completion,,,,,,,low,low,,,,,,,false,,,,,true,439287.2000000477,439286.5,436766.599,436975.7000000477,436783.074,439104.246,1,40,,
trial,html.Screen,8_24_0,2023-11-27T18:48:00.431Z,,,,2,0.0367706518941078,-0.0161069838272154,,0.04,false,hl,4005.454000047699,response,1.1711869602302662,1.0499999999999998,-1.051569508949188,-0.7434626355969514,1.1575275517545733,-1.051569508949188,high,low,,ISIC_0033419.JPG,,ISIC_0059052.JPG,28,26,false,0.31000000000000016,hh,keypress(i),0,true,443109.90000009537,443109.7000000477,439071.112,439287.5,439104.246,442928.364,1,40,25,
sequence,flow.Sequence,8_24,2023-11-27T18:48:00.432Z,,,,,,,,,,,4005.454000047699,completion,,,,,,,high,low,,,,,,,false,,,,,true,443110.09999990463,443109.7000000477,439071.112,439287.5,439104.246,442928.364,1,40,,
trial,html.Screen,8_25_0,2023-11-27T18:48:08.361Z,,,,2,0.0076984477620101,0.0069458408496562,,0.04,true,lh,8110.435999952315,response,-1.0788024398087033,1.0499999999999998,-1.051569508949188,0.9911875460374616,1.1575275517545733,-1.1015695089491881,low,high,,ISIC_0000434.JPG,,ISIC_5951430.JPG,28,27,false,0.3200000000000002,lh,keypress(e),0,true,451039.09999990463,451038.7999999523,442895.205,443110.2000000477,442928.364,450843.795,1,40,26,
sequence,flow.Sequence,8_25,2023-11-27T18:48:08.361Z,,,,,,,,,,,8110.435999952315,completion,,,,,,,low,high,,,,,,,false,,,,,true,451039.59999990463,451038.7999999523,442895.205,443110.09999990463,442928.364,450843.795,1,40,,
trial,html.Screen,8_26_0,2023-11-27T18:48:13.680Z,,,,2,0.0009714874637896,-0.0174815595031679,,0.04,false,hh,5514.705000000016,response,1.0161855018674797,1.0499999999999998,-1.051569508949188,1.1331366334676347,1.1075275517545733,-1.1015695089491881,high,high,,ISIC_9848743.JPG,,ISIC_3521671.JPG,28,26,false,0.12,ll,keypress(f),0,true,456358.90000009537,456358.5,450827.157,451039.7999999523,450843.795,456170.808,1,40,27,
sequence,flow.Sequence,8_26,2023-11-27T18:48:13.681Z,,,,,,,,,,,5514.705000000016,completion,,,,,,,high,high,,,,,,,false,,,,,true,456359.40000009537,456358.5,450827.157,451039.7999999523,450843.795,456170.808,1,40,,
trial,html.Screen,8_27_0,2023-11-27T18:48:19.120Z,,,,2,0.0258224118104549,-0.0029364553353019,,0.04,false,lh,5627.892000047665,response,-0.7396001261916139,1.0999999999999999,-1.051569508949188,0.9901017340796716,1.1575275517545733,-1.1015695089491881,low,high,,ISIC_8325226.JPG,,ISIC_8679617.JPG,28,27,false,0.3200000000000002,hl,keypress(j),0,true,461798.90000009537,461798.7000000477,456154.245,456359.7000000477,456170.808,461631.646,1,40,28,
sequence,flow.Sequence,8_27,2023-11-27T18:48:19.121Z,,,,,,,,,,,5627.892000047665,completion,,,,,,,low,high,,,,,,,false,,,,,true,461799.5,461798.7000000477,456154.245,456359.7000000477,456170.808,461631.646,1,40,,
trial,html.Screen,8_28_0,2023-11-27T18:48:26.744Z,,,,2,-0.039520186367207,-0.0377961575607372,,0.04,false,hh,7790.853999999992,response,1.0257168197307909,1.0999999999999999,-1.1015695089491881,1.0403166496930305,1.1575275517545733,-1.1015695089491881,high,high,,ISIC_6356149.JPG,,ISIC_1690909.JPG,28,26,false,0.14,lh,keypress(e),0,true,469422.7999999523,469422.5,461614.94,461799.7999999523,461631.646,469246.245,1,40,29,
sequence,flow.Sequence,8_28,2023-11-27T18:48:26.745Z,,,,,,,,,,,7790.853999999992,completion,,,,,,,high,high,,,,,,,false,,,,,true,469423.40000009537,469422.5,461614.94,461799.7999999523,461631.646,469246.245,1,40,,
trial,html.Screen,8_29_0,2023-11-27T18:48:29.833Z,,,,2,0.0257631352671967,0.0202837002774028,,0.04,false,hl,3264.7550000000047,response,1.0369885917487718,1.15,-1.1015695089491881,-0.8486937878412699,1.1575275517545733,-1.1015695089491881,high,low,,ISIC_0032797.JPG,,ISIC_6917681.JPG,28,27,false,0.3700000000000002,ll,keypress(f),0,true,472511.2999999523,472511,469212.891,469423.59999990463,469246.245,472318.935,1,40,30,
sequence,flow.Sequence,8_29,2023-11-27T18:48:29.833Z,,,,,,,,,,,3264.7550000000047,completion,,,,,,,high,low,,,,,,,false,,,,,true,472511.7000000477,472511,469212.891,469423.5,469246.245,472318.935,1,40,,
trial,html.Screen,8_30_0,2023-11-27T18:48:40.770Z,,,,2,0.0257631352671967,0.0202837002774028,,0.04,true,hh,11127.765000047686,response,1.109799097093339,1.15,-1.1015695089491881,1.091507924157762,1.1575275517545733,-1.1015695089491881,high,high,,ISIC_0032797.JPG,,ISIC_0765584.JPG,28,26,false,0.14,hh,keypress(i),0,true,483447,483446.7000000477,472302.436,472512,472318.935,483256.938,1,40,31,
sequence,flow.Sequence,8_30,2023-11-27T18:48:40.771Z,,,,,,,,,,,11127.765000047686,completion,,,,,,,high,high,,,,,,,false,,,,,true,483447.5,483446.7000000477,472302.436,472512,472318.935,483256.938,1,40,,
trial,html.Screen,8_31_0,2023-11-27T18:48:42.762Z,,,,2,0.0220026381002083,-0.0170756452911772,,0.04,true,ll,2181.5619999999763,response,-1.0918237468930412,1.15,-1.1015695089491881,-1.0199940959248062,1.0506535106255506,-1.1015695089491881,low,low,,ISIC_5347806.JPG,,ISIC_0064120.JPG,28,30,false,0.1,ll,keypress(f),0,true,485438.90000009537,485438.5,483240.315,483447.7999999523,483256.938,485260.791,1,40,32,
sequence,flow.Sequence,8_31,2023-11-27T18:48:42.763Z,,,,,,,,,,,2181.5619999999763,completion,,,,,,,low,low,,,,,,,false,,,,,true,485439.40000009537,485438.5,483240.315,483447.7000000477,483256.938,485260.791,1,40,,
trial,html.Screen,8_32_0,2023-11-27T18:48:46.418Z,,,,2,-0.0388334549081915,0.0303399972963369,,0.04,false,lh,3833.808999904606,response,-0.9198276163642348,1.15,-1.1015695089491881,0.7754915110667046,1.0506535106255506,-1.0059089214089236,low,high,,ISIC_4961708.JPG,,ISIC_7840728.JPG,28,28,false,0.28000000000000014,ll,keypress(f),0,true,489094.90000009537,489094.59999990463,485227.61,485439.59999990463,485260.791,488901.302,1,40,33,
sequence,flow.Sequence,8_32,2023-11-27T18:48:46.419Z,,,,,,,,,,,3833.808999904606,completion,,,,,,,low,high,,,,,,,false,,,,,true,489095.2999999523,489094.59999990463,485227.61,485439.59999990463,485260.791,488901.302,1,40,,
trial,html.Screen,8_33_0,2023-11-27T18:48:50.914Z,,,,2,-0.0198696495649504,0.0387952353063878,,0.04,true,hh,4689.598000095342,response,1.274417010249866,1.15,-0.9558256816286379,1.0725495669014795,1.1006535106255506,-1.0059089214089236,high,high,,ISIC_6735970.JPG,,ISIC_8849004.JPG,28,27,false,0.13,hh,keypress(i),0,true,493591.2999999523,493590.90000009537,488884.535,489095.5,488901.302,493393.279,1,40,34,
sequence,flow.Sequence,8_33,2023-11-27T18:48:50.915Z,,,,,,,,,,,4689.598000095342,completion,,,,,,,high,high,,,,,,,false,,,,,true,493591.7999999523,493590.90000009537,488884.535,489095.5,488901.302,493393.279,1,40,,
trial,html.Screen,8_34_0,2023-11-27T18:48:56.280Z,,,,2,0.0009714874637896,-0.0174815595031679,,0.04,true,hh,5563.921000047703,response,1.008831959223626,1.1234832885756727,-0.9558256816286379,0.9823409524664072,1.1006535106255506,-1.0059089214089236,high,high,,ISIC_9848743.JPG,,ISIC_1579745.JPG,28,30,false,0.13,hh,keypress(i),0,true,498957.2999999523,498957.2000000477,493376.764,493592,493393.279,498770.432,1,40,35,
sequence,flow.Sequence,8_34,2023-11-27T18:48:56.281Z,,,,,,,,,,,5563.921000047703,completion,,,,,,,high,high,,,,,,,false,,,,,true,498957.40000009537,498957.2000000477,493376.764,493592,493393.279,498770.432,1,40,,
trial,html.Screen,8_35_0,2023-11-27T18:48:58.696Z,,,,2,-0.0065172941585523,0.0118857043117315,,0.04,false,lh,2602.667999904661,response,-0.9198276163642348,1.1234832885756727,-0.9558256816286379,0.7754915110667046,0.9455864558450164,-1.0059089214089236,low,high,,ISIC_6119202.JPG,,ISIC_7840728.JPG,28,28,false,0.19000000000000006,hh,keypress(i),0,true,501373.09999990463,501373.09999990463,498753.905,498957.5,498770.432,501191.776,1,40,36,
sequence,flow.Sequence,8_35,2023-11-27T18:48:58.696Z,,,,,,,,,,,2602.667999904661,completion,,,,,,,low,high,,,,,,,false,,,,,true,501373.2000000477,501373.09999990463,498753.905,498957.40000009537,498770.432,501191.776,1,40,,
trial,html.Screen,8_36_0,2023-11-27T18:49:01.394Z,,,,2,-0.0374659946425444,-0.0086043094957617,,0.04,false,hl,2878.924000047671,response,1.0329549150636406,1.1234832885756727,-1.005825681628638,-1.01584100839286,0.9455864558450164,-1.0059089214089236,high,low,,ISIC_0033051.JPG,,ISIC_0054670.JPG,28,25,false,0.30000000000000016,ll,keypress(f),0,true,504071.09999990463,504070.7000000477,501158.646,501373.2999999523,501191.776,503880.367,1,40,37,
sequence,flow.Sequence,8_36,2023-11-27T18:49:01.395Z,,,,,,,,,,,2878.924000047671,completion,,,,,,,high,low,,,,,,,false,,,,,true,504071.59999990463,504070.7000000477,501158.646,501373.2999999523,501191.776,503880.367,1,40,,
trial,html.Screen,8_37_0,2023-11-27T18:49:05.882Z,,,,2,0.0200295718112167,0.0155559071275806,,0.04,false,lh,4677.833000047656,response,-0.7872534775441857,1.1734832885756727,-1.005825681628638,0.8441107693833454,0.9455864558450164,-1.0059089214089236,low,high,,ISIC_0061343.JPG,,ISIC_0028788.JPG,28,25,false,0.22000000000000008,ll,keypress(f),0,true,508558.40000009537,508558.2000000477,503863.869,504071.90000009537,503880.367,508372.604,1,40,38,
sequence,flow.Sequence,8_37,2023-11-27T18:49:05.882Z,,,,,,,,,,,4677.833000047656,completion,,,,,,,low,high,,,,,,,false,,,,,true,508558.90000009537,508558.2000000477,503863.869,504071.7999999523,503880.367,508372.604,1,40,,
trial,html.Screen,8_38_0,2023-11-27T18:49:14.610Z,,,,2,0.0367706518941078,-0.0161069838272154,,0.04,false,ll,8914.096000047692,response,-0.9314324055507326,1.1734832885756727,-1.005825681628638,-0.974030949255159,0.9955864558450165,-1.0059089214089236,low,low,,ISIC_0033419.JPG,,ISIC_9024529.JPG,28,38,false,0.1,hh,keypress(i),0,true,517287,517286.7000000477,508355.794,508559.09999990463,508372.604,517106.108,1,40,39,
sequence,flow.Sequence,8_38,2023-11-27T18:49:14.611Z,,,,,,,,,,,8914.096000047692,completion,,,,,,,low,low,,,,,,,false,,,,,true,517287.5,517286.7000000477,508355.794,508559.09999990463,508372.604,517106.108,1,40,,
trial,html.Screen,8_39_0,2023-11-27T18:49:19.946Z,,,,2,0.0286056110007553,0.036125199756515,,0.04,true,hl,5516.391999999993,response,0.8513427412482127,1.1734832885756727,-1.055825681628638,-0.9295303568095064,0.9955864558450165,-1.0559089214089237,high,low,,ISIC_6535558.JPG,,ISIC_0034164.JPG,28,25,false,0.3500000000000002,hl,keypress(j),0,true,522622.90000009537,522622.5,517072.729,517287.7999999523,517106.108,522433.208,1,40,40,
sequence,flow.Sequence,8_39,2023-11-27T18:49:19.947Z,,,,,,,,,,,5516.391999999993,completion,,,,,,,high,low,,,,,,,false,,,,,true,522623.5,522622.5,517072.729,517287.7000000477,517106.108,522433.208,1,40,,
stair_loop,flow.Loop,8,2023-11-27T18:49:19.947Z,,,,,,,,,,,178820.332,completion,,,,,,,,,,,,,,,false,,,,,true,522623.7999999523,522622.5,343785.666,343989.40000009537,343802.168,522433.208,1,40,,
exp_instructions,html.Screen,9,2023-11-27T18:49:38.371Z,,,,,,,,,,,18612.591999952332,response,,,,,,,,,,,,,,,,,continue,keypress(Space),,,541046.7999999523,541045.7999999523,522416.552,522623.90000009537,522433.208,540852.328,,,,
trial,html.Screen,10_0_0,2023-11-27T18:49:41.075Z,,,,1,0.0367744112927588,0.0324865661712824,,0.04,true,hh,2898.372000047704,response,1.033832433609739,1.1120449865727022,-1.0646456141816891,1.139863018685685,1.0906674695513798,-1.0505562030057338,high,high,,ISIC_4523565.JPG,9,ISIC_0008510.JPG,28,28,false,0.12,hh,keypress(i),0,false,543751.0999999046,543750.7000000477,540835.67,541047.2000000477,540852.328,543574.286,5,600,1,
break,html.Screen,10_0_1,2023-11-27T18:49:41.077Z,,,,,,,,,,,NaN,,,,,,,,high,high,,,,,,,false,,,,,false,543752.5999999046,543752.2000000477,,543751.4000000954,,543574.286,5,600,,
break_continue,html.Screen,10_0_2,2023-11-27T18:49:41.078Z,,,,,,,,,,,NaN,,,,,,,,high,high,,,,,,,false,,,,,false,543753.7999999523,543753.2000000477,,543752.7999999523,,543574.286,5,600,,
sequence,flow.Sequence,10_0,2023-11-27T18:49:41.079Z,,,,,,,,,,,2900.872000047704,completion,,,,,,,high,high,,,,,,,false,,,,,false,543754.0999999046,543753.2000000477,540835.67,541047.0999999046,540852.328,543574.286,5,600,,
trial,html.Screen,10_1_0,2023-11-27T18:49:44.348Z,,,,1,0.0009714874637896,-0.0174815595031679,,0.04,false,hl,3448.5139999523526,response,0.8830264383952469,1.1120449865727022,-1.0646456141816891,-0.8635562538060516,1.0906674695513798,-1.0505562030057338,high,low,,ISIC_9848743.JPG,8,ISIC_0032258.JPG,28,25,false,0.3200000000000002,hh,keypress(i),0,false,547023.2000000477,547022.7999999523,543541.093,543754.4000000954,543574.286,546847.335,5,600,2,
break,html.Screen,10_1_1,2023-11-27T18:49:44.349Z,,,,,,,,,,,NaN,,,,,,,,high,low,,,,,,,false,,,,,false,547024.5,547024.0999999046,,547023.5999999046,,546847.335,5,600,,
break_continue,html.Screen,10_1_2,2023-11-27T18:49:44.350Z,,,,,,,,,,,NaN,,,,,,,,high,low,,,,,,,false,,,,,false,547025.5,547025,,547024.7000000477,,546847.335,5,600,,
sequence,flow.Sequence,10_1,2023-11-27T18:49:44.350Z,,,,,,,,,,,3450.7140000000363,completion,,,,,,,high,low,,,,,,,false,,,,,false,547025.7999999523,547025,543541.093,543754.2999999523,543574.286,546847.335,5,600,,
trial,html.Screen,10_2_0,2023-11-27T18:49:49.625Z,,,,1,-0.0109416414475118,-0.005246498750811,,0.04,false,hl,5453.665000000037,response,1.2054195059663604,1.1120449865727022,-1.0646456141816891,-0.7760611240296147,1.0906674695513798,-1.0505562030057338,high,low,,ISIC_0064279.JPG,8,ISIC_8712559.JPG,28,25,false,0.3200000000000002,hh,keypress(i),0,false,552301.0999999046,552301,546813.983,547026,546847.335,552107.557,5,600,3,
break,html.Screen,10_2_1,2023-11-27T18:49:49.626Z,,,,,,,,,,,NaN,,,,,,,,high,low,,,,,,,false,,,,,false,552301.4000000954,552301.2999999523,,552301.2000000477,,552107.557,5,600,,
break_continue,html.Screen,10_2_2,2023-11-27T18:49:49.626Z,,,,,,,,,,,NaN,,,,,,,,high,low,,,,,,,false,,,,,false,552301.5999999046,552301.5,,552301.4000000954,,552107.557,5,600,,
sequence,flow.Sequence,10_2,2023-11-27T18:49:49.626Z,,,,,,,,,,,5454.165000000037,completion,,,,,,,high,low,,,,,,,false,,,,,false,552301.5999999046,552301.5,546813.983,547025.9000000954,546847.335,552107.557,5,600,,
trial,html.Screen,10_3_0,2023-11-27T18:49:55.483Z,,,,1,-0.0388181790775959,0.0049623405709465,,0.04,true,ll,6051.042999904603,response,-0.9778659253485126,1.1120449865727022,-1.0646456141816891,-1.073781767171294,1.0906674695513798,-1.0505562030057338,low,low,,ISIC_0061880.JPG,8,ISIC_0067733.JPG,28,41,false,0.1,ll,keypress(f),0,false,558159,558158.5999999046,552091.03,552301.7000000477,552107.557,557969.013,5,600,4,
break,html.Screen,10_3_1,2023-11-27T18:49:55.485Z,,,,,,,,,,,NaN,,,,,,,,low,low,,,,,,,false,,,,,false,558160.2999999523,558159.9000000954,,558159.4000000954,,557969.013,5,600,,
break_continue,html.Screen,10_3_2,2023-11-27T18:49:55.486Z,,,,,,,,,,,NaN,,,,,,,,low,low,,,,,,,false,,,,,false,558161.2999999523,558160.9000000954,,558160.5999999046,,557969.013,5,600,,
sequence,flow.Sequence,10_3,2023-11-27T18:49:55.486Z,,,,,,,,,,,6053.343000095338,completion,,,,,,,low,low,,,,,,,false,,,,,false,558161.5999999046,558160.9000000954,552091.03,552301.7000000477,552107.557,557969.013,5,600,,
trial,html.Screen,10_4_0,2023-11-27T18:49:58.795Z,,,,1,-0.0074667911845194,0.018500200317654,,0.04,true,ll,3501.4869999999646,response,-0.9657289110900686,1.1120449865727022,-1.0646456141816891,-0.9643331448263084,1.0906674695513798,-1.0505562030057338,low,low,,ISIC_0058723.JPG,9,ISIC_0063447.JPG,28,41,false,0.1,ll,keypress(f),0,false,561470.9000000954,561470.5,557952.491,558161.9000000954,557969.013,561275.417,5,600,5,
break,html.Screen,10_4_1,2023-11-27T18:49:58.797Z,,,,,,,,,,,NaN,,,,,,,,low,low,,,,,,,false,,,,,false,561472.2000000477,561471.9000000954,,561471.4000000954,,561275.417,5,600,,
break_continue,html.Screen,10_4_2,2023-11-27T18:49:58.798Z,,,,,,,,,,,NaN,,,,,,,,low,low,,,,,,,false,,,,,false,561473.2000000477,561472.7999999523,,561472.5,,561275.417,5,600,,
sequence,flow.Sequence,10_4,2023-11-27T18:49:58.798Z,,,,,,,,,,,3503.786999952281,completion,,,,,,,low,low,,,,,,,false,,,,,false,561473.5999999046,561472.7999999523,557952.491,558161.9000000954,557969.013,561275.417,5,600,,
trial,html.Screen,10_5_0,2023-11-27T18:50:03.996Z,,,,1,-0.039520186367207,-0.0377961575607372,,0.04,true,hh,5395.3829999523,response,1.1290536173202614,1.1120449865727022,-1.0646456141816891,0.9768663240505168,1.0906674695513798,-1.0505562030057338,high,high,,ISIC_6356149.JPG,8,ISIC_2196127.JPG,28,28,false,0.12,hh,keypress(i),0,false,566671.0999999046,566670.7999999523,561258.951,561473.7999999523,561275.417,566485.557,5,600,6,
break,html.Screen,10_5_1,2023-11-27T18:50:03.997Z,,,,,,,,,,,NaN,,,,,,,,high,high,,,,,,,false,,,,,false,566672.4000000954,566672.0999999046,,566671.5999999046,,566485.557,5,600,,
break_continue,html.Screen,10_5_2,2023-11-27T18:50:03.998Z,,,,,,,,,,,NaN,,,,,,,,high,high,,,,,,,false,,,,,false,566673.4000000954,566672.9000000954,,566672.5999999046,,566485.557,5,600,,
sequence,flow.Sequence,10_5,2023-11-27T18:50:03.998Z,,,,,,,,,,,5397.483000095352,completion,,,,,,,high,high,,,,,,,false,,,,,false,566673.5999999046,566672.9000000954,561258.951,561473.7999999523,561275.417,566485.557,5,600,,
trial,html.Screen,10_6_0,2023-11-27T18:50:09.219Z,,,,1,0.0367706518941078,-0.0161069838272154,,0.04,true,lh,5408.7429999522865,response,-0.9617893983965208,1.1120449865727022,-1.0646456141816891,0.9453006131304652,1.0906674695513798,-1.0505562030057338,low,high,,ISIC_0033419.JPG,10,ISIC_4229473.JPG,28,27,false,0.28000000000000014,lh,keypress(e),0,false,571894.7000000477,571894.2999999523,566468.993,566673.9000000954,566485.557,571695.794,5,600,7,
break,html.Screen,10_6_1,2023-11-27T18:50:09.220Z,,,,,,,,,,,NaN,,,,,,,,low,high,,,,,,,false,,,,,false,571895.9000000954,571895.5999999046,,571895.0999999046,,571695.794,5,600,,
break_continue,html.Screen,10_6_2,2023-11-27T18:50:09.221Z,,,,,,,,,,,NaN,,,,,,,,low,high,,,,,,,false,,,,,false,571896.7999999523,571896.4000000954,,571896.2000000477,,571695.794,5,600,,
sequence,flow.Sequence,10_6,2023-11-27T18:50:09.221Z,,,,,,,,,,,5410.843000095338,completion,,,,,,,low,high,,,,,,,false,,,,,false,571897.0999999046,571896.4000000954,566468.993,566673.9000000954,566485.557,571695.794,5,600,,
trial,html.Screen,10_7_0,2023-11-27T18:50:13.355Z,,,,1,-0.0241900387072296,0.0339955304424736,,0.04,true,hh,4334.805999904638,response,1.2253309214495711,1.1120449865727022,-1.0646456141816891,1.00408952972084,1.0906674695513798,-1.0505562030057338,high,high,,ISIC_0010789.JPG,10,ISIC_5850699.JPG,28,28,false,0.12,hh,keypress(i),0,false,576030.7999999523,576030.5999999046,571679.177,571897.2999999523,571695.794,575837.093,5,600,8,
break,html.Screen,10_7_1,2023-11-27T18:50:13.356Z,,,,,,,,,,,NaN,,,,,,,,high,high,,,,,,,false,,,,,false,576032.0999999046,576031.7999999523,,576031.2999999523,,575837.093,5,600,,
break_continue,html.Screen,10_7_2,2023-11-27T18:50:13.357Z,,,,,,,,,,,NaN,,,,,,,,high,high,,,,,,,false,,,,,false,576032.9000000954,576032.5,,576032.2999999523,,575837.093,5,600,,
sequence,flow.Sequence,10_7,2023-11-27T18:50:13.358Z,,,,,,,,,,,4336.706000000006,completion,,,,,,,high,high,,,,,,,false,,,,,false,576033.2999999523,576032.5,571679.177,571897.2999999523,571695.794,575837.093,5,600,,
trial,html.Screen,10_8_0,2023-11-27T18:50:18.284Z,,,,1,0.0220026381002083,-0.0170756452911772,,0.04,true,hh,5121.807000095374,response,1.1018283884093611,1.1120449865727022,-1.0646456141816891,1.053767307212406,1.0906674695513798,-1.0505562030057338,high,high,,ISIC_5347806.JPG,10,ISIC_6785249.JPG,28,28,false,0.12,hh,keypress(i),0,false,580959.2999999523,580958.9000000954,575820.588,576033.5,575837.093,580763.353,5,600,9,
break,html.Screen,10_8_1,2023-11-27T18:50:18.285Z,,,,,,,,,,,NaN,,,,,,,,high,high,,,,,,,false,,,,,false,580960.7000000477,580960.2000000477,,580959.7999999523,,580763.353,5,600,,
break_continue,html.Screen,10_8_2,2023-11-27T18:50:18.286Z,,,,,,,,,,,NaN,,,,,,,,high,high,,,,,,,false,,,,,false,580961.7000000477,580961.2999999523,,580961,,580763.353,5,600,,
sequence,flow.Sequence,10_8,2023-11-27T18:50:18.286Z,,,,,,,,,,,5124.206999952323,completion,,,,,,,high,high,,,,,,,false,,,,,false,580962.0999999046,580961.2999999523,575820.588,576033.5,575837.093,580763.353,5,600,,
trial,html.Screen,10_9_0,2023-11-27T18:50:21.515Z,,,,1,-0.0388334549081915,0.0303399972963369,,0.04,true,ll,3427.347000047681,response,-1.048482877784125,1.1120449865727022,-1.0646456141816891,-1.0716857765902368,1.0906674695513798,-1.0505562030057338,low,low,,ISIC_4961708.JPG,8,ISIC_0063961.JPG,28,41,false,0.1,ll,keypress(f),0,false,584191.0999999046,584190.7000000477,580746.603,580962.2999999523,580763.353,584002.988,5,600,10,
break,html.Screen,10_9_1,2023-11-27T18:50:21.517Z,,,,,,,,,,,NaN,,,,,,,,low,low,,,,,,,false,,,,,false,584192.4000000954,584192,,584191.5,,584002.988,5,600,,
break_continue,html.Screen,10_9_2,2023-11-27T18:50:21.518Z,,,,,,,,,,,NaN,,,,,,,,low,low,,,,,,,false,,,,,false,584193.2999999523,584192.9000000954,,584192.5999999046,,584002.988,5,600,,
sequence,flow.Sequence,10_9,2023-11-27T18:50:21.518Z,,,,,,,,,,,3429.5470000953646,completion,,,,,,,low,low,,,,,,,false,,,,,false,584193.5999999046,584192.9000000954,580746.603,580962.2999999523,580763.353,584002.988,5,600,,
trial,html.Screen,10_10_0,2023-11-27T18:50:26.676Z,,,,1,0.0119001144851157,-0.0063430114540141,,0.04,false,lh,5347.912000095355,response,-1.2020012168275056,1.1120449865727022,-1.0646456141816891,0.923753102263735,1.0906674695513798,-1.0505562030057338,low,high,,ISIC_0003822.JPG,8,ISIC_0000022.JPG,28,27,false,0.28000000000000014,ll,keypress(f),0,false,589351.2000000477,589350.9000000954,583986.487,584193.9000000954,584002.988,589163.014,5,600,11,
break,html.Screen,10_10_1,2023-11-27T18:50:26.677Z,,,,,,,,,,,NaN,,,,,,,,low,high,,,,,,,false,,,,,false,589352.4000000954,589352.0999999046,,589351.5999999046,,589163.014,5,600,,
break_continue,html.Screen,10_10_2,2023-11-27T18:50:26.678Z,,,,,,,,,,,NaN,,,,,,,,low,high,,,,,,,false,,,,,false,589353.2999999523,589352.9000000954,,589352.7000000477,,589163.014,5,600,,
sequence,flow.Sequence,10_10,2023-11-27T18:50:26.678Z,,,,,,,,,,,5349.912000095355,completion,,,,,,,low,high,,,,,,,false,,,,,false,589353.5999999046,589352.9000000954,583986.487,584193.7999999523,584002.988,589163.014,5,600,,
trial,html.Screen,10_11_0,2023-11-27T18:50:36.502Z,,,,1,0.0286056110007553,0.036125199756515,,0.04,false,hl,10014.585999904666,response,0.84290786638064,1.1120449865727022,-1.0646456141816891,-0.7332521189371746,1.0906674695513798,-1.0505562030057338,high,low,,ISIC_6535558.JPG,9,ISIC_4708642.JPG,28,25,false,0.3200000000000002,hh,keypress(i),0,false,599177.7999999523,599177.5999999046,589146.577,589353.9000000954,589163.014,598998.827,5,600,12,
break,html.Screen,10_11_1,2023-11-27T18:50:36.503Z,,,,,,,,,,,NaN,,,,,,,,high,low,,,,,,,false,,,,,false,599178.5,599178.2999999523,,599178.0999999046,,598998.827,5,600,,
break_continue,html.Screen,10_11_2,2023-11-27T18:50:36.503Z,,,,,,,,,,,NaN,,,,,,,,high,low,,,,,,,false,,,,,false,599178.9000000954,599178.7000000477,,599178.5999999046,,598998.827,5,600,,
sequence,flow.Sequence,10_11,2023-11-27T18:50:36.503Z,,,,,,,,,,,10015.686000047717,completion,,,,,,,high,low,,,,,,,false,,,,,false,599179.0999999046,599178.7000000477,589146.577,589353.7999999523,589163.014,598998.827,5,600,,
trial,html.Screen,10_12_0,2023-11-27T18:50:44.230Z,,,,1,0.0119001144851157,-0.0063430114540141,,0.04,false,lh,7903.873000047635,response,-0.8307508446051526,1.1120449865727022,-1.0646456141816891,1.1707575338936729,1.0906674695513798,-1.0505562030057338,low,high,,ISIC_0003822.JPG,8,ISIC_0028606.JPG,28,27,false,0.28000000000000014,hl,keypress(j),0,false,606903,606902.7000000477,598965.435,599179.2000000477,598998.827,606713.863,5,600,13,
break,html.Screen,10_12_1,2023-11-27T18:50:44.231Z,,,,,,,,,,,NaN,,,,,,,,low,high,,,,,,,false,,,,,false,606904.2999999523,606903.9000000954,,606903.5,,606713.863,5,600,,
break_continue,html.Screen,10_12_2,2023-11-27T18:50:44.232Z,,,,,,,,,,,NaN,,,,,,,,low,high,,,,,,,false,,,,,false,606905.2000000477,606904.7999999523,,606904.5,,606713.863,5,600,,
sequence,flow.Sequence,10_12,2023-11-27T18:50:44.232Z,,,,,,,,,,,7905.972999952268,completion,,,,,,,low,high,,,,,,,false,,,,,false,606905.5,606904.7999999523,598965.435,599179.0999999046,598998.827,606713.863,5,600,,
trial,html.Screen,10_13_0,2023-11-27T18:50:53.814Z,,,,1,0.0308384937406319,-0.0038396364323947,,0.04,true,lh,9772.837000047672,response,-0.9617893983965208,1.1120449865727022,-1.0646456141816891,0.9453006131304652,1.0906674695513798,-1.0505562030057338,low,high,,ISIC_0029825.JPG,8,ISIC_4229473.JPG,28,27,false,0.28000000000000014,lh,keypress(e),0,false,616487.0999999046,616486.7000000477,606697.2,606905.7999999523,606713.863,616299.249,5,600,14,
break,html.Screen,10_13_1,2023-11-27T18:50:53.815Z,,,,,,,,,,,NaN,,,,,,,,low,high,,,,,,,false,,,,,false,616488.4000000954,616488,,616487.5,,616299.249,5,600,,
break_continue,html.Screen,10_13_2,2023-11-27T18:50:53.816Z,,,,,,,,,,,NaN,,,,,,,,low,high,,,,,,,false,,,,,false,616489.2999999523,616488.7999999523,,616488.5999999046,,616299.249,5,600,,
sequence,flow.Sequence,10_13,2023-11-27T18:50:53.816Z,,,,,,,,,,,9774.936999952304,completion,,,,,,,low,high,,,,,,,false,,,,,false,616489.5,616488.7999999523,606697.2,606905.7000000477,606713.863,616299.249,5,600,,
trial,html.Screen,10_14_0,2023-11-27T18:50:57.838Z,,,,1,-0.001445457736793,-0.0165307427449982,,0.04,true,hh,4211.451000047731,response,1.0943527860463682,1.1120449865727022,-1.0646456141816891,1.124481746658104,1.0906674695513798,-1.0505562030057338,high,high,,ISIC_0027350.JPG,9,ISIC_0438136.JPG,28,28,false,0.12,hh,keypress(i),0,false,620511,620510.7000000477,616282.691,616489.7999999523,616299.249,620323.762,5,600,15,
break,html.Screen,10_14_1,2023-11-27T18:50:57.839Z,,,,,,,,,,,NaN,,,,,,,,high,high,,,,,,,false,,,,,false,620512.2999999523,620512,,620511.5,,620323.762,5,600,,
break_continue,html.Screen,10_14_2,2023-11-27T18:50:57.840Z,,,,,,,,,,,NaN,,,,,,,,high,high,,,,,,,false,,,,,false,620513.0999999046,620512.7000000477,,620512.5,,620323.762,5,600,,
sequence,flow.Sequence,10_14,2023-11-27T18:50:57.840Z,,,,,,,,,,,4213.451000047731,completion,,,,,,,high,high,,,,,,,false,,,,,false,620513.5,620512.7000000477,616282.691,616489.7000000477,616299.249,620323.762,5,600,,
trial,html.Screen,10_15_0,2023-11-27T18:51:00.909Z,,,,1,0.0076984477620101,0.0069458408496562,,0.04,true,hh,3258.238000000012,response,1.0777929856705222,1.1120449865727022,-1.0646456141816891,1.0139833925057518,1.0906674695513798,-1.0505562030057338,high,high,,ISIC_0000434.JPG,9,ISIC_6171084.JPG,28,28,false,0.12,hh,keypress(i),0,false,623582.2999999523,623582,620307.213,620513.7999999523,620323.762,623396.336,5,600,16,
break,html.Screen,10_15_1,2023-11-27T18:51:00.910Z,,,,,,,,,,,NaN,,,,,,,,high,high,,,,,,,false,,,,,false,623583.2999999523,623583.0999999046,,623582.7000000477,,623396.336,5,600,,
break_continue,html.Screen,10_15_2,2023-11-27T18:51:00.911Z,,,,,,,,,,,NaN,,,,,,,,high,high,,,,,,,false,,,,,false,623584.0999999046,623583.7999999523,,623583.5,,623396.336,5,600,,
sequence,flow.Sequence,10_15,2023-11-27T18:51:00.911Z,,,,,,,,,,,3260.0379999523284,completion,,,,,,,high,high,,,,,,,false,,,,,false,623584.2999999523,623583.7999999523,620307.213,620513.7000000477,620323.762,623396.336,5,600,,
trial,html.Screen,10_16_0,2023-11-27T18:51:03.492Z,,,,1,-0.0388334549081915,0.0303399972963369,,0.04,false,hl,2769.3640000476735,response,0.8926515927689261,1.1120449865727022,-1.0646456141816891,-0.7935960767768927,1.0906674695513798,-1.0505562030057338,high,low,,ISIC_4961708.JPG,9,ISIC_8901371.JPG,28,25,false,0.3200000000000002,ll,keypress(f),0,false,626165.9000000954,626165.7000000477,623379.86,623584.5,623396.336,625968.054,5,600,17,
break,html.Screen,10_16_1,2023-11-27T18:51:03.493Z,,,,,,,,,,,NaN,,,,,,,,high,low,,,,,,,false,,,,,false,626166.5,626166.4000000954,,626166.0999999046,,625968.054,5,600,,
break_continue,html.Screen,10_16_2,2023-11-27T18:51:03.494Z,,,,,,,,,,,NaN,,,,,,,,high,low,,,,,,,false,,,,,false,626167,626166.7000000477,,626166.5999999046,,625968.054,5,600,,
sequence,flow.Sequence,10_16,2023-11-27T18:51:03.494Z,,,,,,,,,,,2770.3640000476735,completion,,,,,,,high,low,,,,,,,false,,,,,false,626167.0999999046,626166.7000000477,623379.86,623584.4000000954,623396.336,625968.054,5,600,,
trial,html.Screen,10_17_0,2023-11-27T18:51:06.782Z,,,,1,0.0119001144851157,-0.0063430114540141,,0.04,true,ll,3486.8460000953637,response,-1.071312313440387,1.1120449865727022,-1.0646456141816891,-1.0935391476164529,1.0906674695513798,-1.0505562030057338,low,low,,ISIC_0003822.JPG,10,ISIC_0063680.JPG,28,41,false,0.1,ll,keypress(f),0,false,629455.2000000477,629454.9000000954,625951.44,626167.2999999523,625968.054,629257.715,5,600,18,
break,html.Screen,10_17_1,2023-11-27T18:51:06.783Z,,,,,,,,,,,NaN,,,,,,,,low,low,,,,,,,false,,,,,false,629456.7000000477,629456.2999999523,,629455.7999999523,,629257.715,5,600,,
break_continue,html.Screen,10_17_2,2023-11-27T18:51:06.784Z,,,,,,,,,,,NaN,,,,,,,,low,low,,,,,,,false,,,,,false,629457.5999999046,629457.0999999046,,629456.9000000954,,629257.715,5,600,,
sequence,flow.Sequence,10_17,2023-11-27T18:51:06.785Z,,,,,,,,,,,3489.045999904629,completion,,,,,,,low,low,,,,,,,false,,,,,false,629458,629457.0999999046,625951.44,626167.2000000477,625968.054,629257.715,5,600,,
trial,html.Screen,10_18_0,2023-11-27T18:51:13.390Z,,,,1,0.0118382036798625,0.0300588245877227,,0.04,true,hh,6804.884999904665,response,1.1441960791049337,1.1120449865727022,-1.0646456141816891,1.0156321899655198,1.0906674695513798,-1.0505562030057338,high,high,,ISIC_4748605.JPG,8,ISIC_4023381.JPG,28,28,false,0.12,hh,keypress(i),0,false,636063,636062.5999999046,629241.249,629458.2000000477,629257.715,635870.596,5,600,19,
break,html.Screen,10_18_1,2023-11-27T18:51:13.391Z,,,,,,,,,,,NaN,,,,,,,,high,high,,,,,,,false,,,,,false,636064.0999999046,636063.9000000954,,636063.4000000954,,635870.596,5,600,,
break_continue,html.Screen,10_18_2,2023-11-27T18:51:13.392Z,,,,,,,,,,,NaN,,,,,,,,high,high,,,,,,,false,,,,,false,636065,636064.5999999046,,636064.2999999523,,635870.596,5,600,,
sequence,flow.Sequence,10_18,2023-11-27T18:51:13.392Z,,,,,,,,,,,6806.884999904665,completion,,,,,,,high,high,,,,,,,false,,,,,false,636065.2999999523,636064.5999999046,629241.249,629458.2000000477,629257.715,635870.596,5,600,,
trial,html.Screen,10_19_0,2023-11-27T18:51:16.998Z,,,,1,0.0367744112927588,0.0324865661712824,,0.04,false,ll,3800.2039999522967,response,-1.0437879361189135,1.1120449865727022,-1.0646456141816891,-1.0467954238943018,1.0906674695513798,-1.0505562030057338,low,low,,ISIC_4523565.JPG,9,ISIC_0011626.JPG,28,41,false,0.1,hl,keypress(j),0,false,639671.0999999046,639670.7999999523,635854.049,636065.5999999046,635870.596,639477.636,5,600,20,
break,html.Screen,10_19_1,2023-11-27T18:51:16.999Z,,,,,,,,,,,NaN,,,,,,,,low,low,,,,,,,false,,,,,false,639672.2000000477,639672,,639671.5,,639477.636,5,600,,
break_continue,html.Screen,10_19_2,2023-11-27T18:51:17.000Z,,,,,,,,,,,NaN,,,,,,,,low,low,,,,,,,false,,,,,false,639673,639672.5999999046,,639672.5,,639477.636,5,600,,
sequence,flow.Sequence,10_19,2023-11-27T18:51:17.000Z,,,,,,,,,,,3802.003999904613,completion,,,,,,,low,low,,,,,,,false,,,,,false,639673.4000000954,639672.5999999046,635854.049,636065.5999999046,635870.596,639477.636,5,600,,
trial,html.Screen,10_20_0,2023-11-27T18:51:26.318Z,,,,1,-0.0198696495649504,0.0387952353063878,,0.04,true,lh,9513.16399995226,response,-1.168911077628813,1.1120449865727022,-1.0646456141816891,1.2181838235193114,1.0906674695513798,-1.0505562030057338,low,high,,ISIC_6735970.JPG,8,ISIC_7358691.JPG,28,27,false,0.28000000000000014,lh,keypress(e),0,false,648991.0999999046,648990.7999999523,639461.07,639673.5,639477.636,648795.778,5,600,21,
break,html.Screen,10_20_1,2023-11-27T18:51:26.319Z,,,,,,,,,,,NaN,,,,,,,,low,high,,,,,,,false,,,,,false,648992.2999999523,648992,,648991.5,,648795.778,5,600,,
break_continue,html.Screen,10_20_2,2023-11-27T18:51:26.320Z,,,,,,,,,,,NaN,,,,,,,,low,high,,,,,,,false,,,,,false,648993.2999999523,648992.9000000954,,648992.5999999046,,648795.778,5,600,,
sequence,flow.Sequence,10_20,2023-11-27T18:51:26.320Z,,,,,,,,,,,9515.26400009531,completion,,,,,,,low,high,,,,,,,false,,,,,false,648993.5999999046,648992.9000000954,639461.07,639673.5,639477.636,648795.778,5,600,,
trial,html.Screen,10_21_0,2023-11-27T18:51:33.670Z,,,,1,-0.0088741920055285,-0.0058246074740588,,0.04,true,hh,7547.221999999951,response,1.0659165756604234,1.1120449865727022,-1.0646456141816891,1.0867497316848906,1.0906674695513798,-1.0505562030057338,high,high,,ISIC_4136663.JPG,8,ISIC_5807608.JPG,28,28,false,0.12,hh,keypress(i),0,false,656343.4000000954,656343,648779.275,648993.7999999523,648795.778,656143.465,5,600,22,
break,html.Screen,10_21_1,2023-11-27T18:51:33.671Z,,,,,,,,,,,NaN,,,,,,,,high,high,,,,,,,false,,,,,false,656344.7000000477,656344.4000000954,,656343.7999999523,,656143.465,5,600,,
break_continue,html.Screen,10_21_2,2023-11-27T18:51:33.672Z,,,,,,,,,,,NaN,,,,,,,,high,high,,,,,,,false,,,,,false,656345.5999999046,656345.0999999046,,656344.7999999523,,656143.465,5,600,,
sequence,flow.Sequence,10_21,2023-11-27T18:51:33.672Z,,,,,,,,,,,7549.321999904583,completion,,,,,,,high,high,,,,,,,false,,,,,false,656345.9000000954,656345.0999999046,648779.275,648993.7999999523,648795.778,656143.465,5,600,,
trial,html.Screen,10_22_0,2023-11-27T18:51:43.391Z,,,,1,-0.0388181790775959,0.0049623405709465,,0.04,true,ll,9919.235000047716,response,-1.0865209011322887,1.1120449865727022,-1.0646456141816891,-1.1401461171952545,1.0906674695513798,-1.0505562030057338,low,low,,ISIC_0061880.JPG,10,ISIC_0016145.JPG,28,41,false,0.1,ll,keypress(f),0,false,666063.0999999046,666062.7000000477,656126.644,656346.2000000477,656143.465,665880.256,5,600,23,
break,html.Screen,10_22_1,2023-11-27T18:51:43.393Z,,,,,,,,,,,NaN,,,,,,,,low,low,,,,,,,false,,,,,false,666064.2999999523,666064,,666063.5,,665880.256,5,600,,
break_continue,html.Screen,10_22_2,2023-11-27T18:51:43.393Z,,,,,,,,,,,NaN,,,,,,,,low,low,,,,,,,false,,,,,false,666065.2000000477,666064.7000000477,,666064.5,,665880.256,5,600,,
sequence,flow.Sequence,10_22,2023-11-27T18:51:43.394Z,,,,,,,,,,,9921.235000047716,completion,,,,,,,low,low,,,,,,,false,,,,,false,666065.5,666064.7000000477,656126.644,656346,656143.465,665880.256,5,600,,
trial,html.Screen,10_23_0,2023-11-27T18:51:48.191Z,,,,1,0.0308384937406319,-0.0038396364323947,,0.04,false,lh,4982.644000095315,response,-0.8307508446051526,1.1120449865727022,-1.0646456141816891,1.1707575338936729,1.0906674695513798,-1.0505562030057338,low,high,,ISIC_0029825.JPG,8,ISIC_0028606.JPG,28,27,false,0.28000000000000014,hl,keypress(j),0,false,670863.2000000477,670862.9000000954,665845.875,666065.7999999523,665880.256,670671.691,5,600,24,
break,html.Screen,10_23_1,2023-11-27T18:51:48.193Z,,,,,,,,,,,NaN,,,,,,,,low,high,,,,,,,false,,,,,false,670864.5,670864.2000000477,,670863.7000000477,,670671.691,5,600,,
break_continue,html.Screen,10_23_2,2023-11-27T18:51:48.194Z,,,,,,,,,,,NaN,,,,,,,,low,high,,,,,,,false,,,,,false,670865.5,670865,,670864.7999999523,,670671.691,5,600,,
sequence,flow.Sequence,10_23,2023-11-27T18:51:48.194Z,,,,,,,,,,,4984.743999999948,completion,,,,,,,low,high,,,,,,,false,,,,,false,670865.7999999523,670865,665845.875,666065.7000000477,665880.256,670671.691,5,600,,
trial,html.Screen,10_24_0,2023-11-27T18:51:52.487Z,,,,1,-0.039520186367207,-0.0377961575607372,,0.04,false,lh,4487.108999952325,response,-0.8443403196524287,1.1120449865727022,-1.0646456141816891,0.8858525429102605,1.0906674695513798,-1.0505562030057338,low,high,,ISIC_6356149.JPG,8,ISIC_8777813.JPG,28,27,false,0.28000000000000014,hh,keypress(i),0,false,675159.0999999046,675158.7999999523,670655.101,670866,670671.691,674963.381,5,600,25,
break,html.Screen,10_24_1,2023-11-27T18:51:52.489Z,,,,,,,,,,,NaN,,,,,,,,low,high,,,,,,,false,,,,,false,675160.2999999523,675160.0999999046,,675159.5999999046,,674963.381,5,600,,
break_continue,html.Screen,10_24_2,2023-11-27T18:51:52.490Z,,,,,,,,,,,NaN,,,,,,,,low,high,,,,,,,false,,,,,false,675161.2999999523,675160.7999999523,,675160.5999999046,,674963.381,5,600,,
sequence,flow.Sequence,10_24,2023-11-27T18:51:52.490Z,,,,,,,,,,,4489.108999952325,completion,,,,,,,low,high,,,,,,,false,,,,,false,675161.5999999046,675160.7999999523,670655.101,670865.9000000954,670671.691,674963.381,5,600,,
trial,html.Screen,10_25_0,2023-11-27T18:52:00.991Z,,,,1,-0.0074667911845194,0.018500200317654,,0.04,true,lh,8699.519000095315,response,-0.7872534775441857,1.1120449865727022,-1.0646456141816891,0.8441107693833454,1.0906674695513798,-1.0505562030057338,low,high,,ISIC_0058723.JPG,9,ISIC_0028788.JPG,28,27,false,0.28000000000000014,lh,keypress(e),0,false,683663.2999999523,683662.9000000954,674946.796,675161.7999999523,674963.381,683463.23,5,600,26,
break,html.Screen,10_25_1,2023-11-27T18:52:00.993Z,,,,,,,,,,,NaN,,,,,,,,low,high,,,,,,,false,,,,,false,683664.2000000477,683664.2000000477,,683663.7000000477,,683463.23,5,600,,
break_continue,html.Screen,10_25_2,2023-11-27T18:52:00.993Z,,,,,,,,,,,NaN,,,,,,,,low,high,,,,,,,false,,,,,false,683664.5,683664.4000000954,,683664.2999999523,,683463.23,5,600,,
sequence,flow.Sequence,10_25,2023-11-27T18:52:00.993Z,,,,,,,,,,,8701.019000095315,completion,,,,,,,low,high,,,,,,,false,,,,,false,683664.5,683664.4000000954,674946.796,675161.7000000477,674963.381,683463.23,5,600,,
trial,html.Screen,10_26_0,2023-11-27T18:52:08.006Z,,,,1,0,-0.0102871556606504,,0.04,false,hh,7214.569999952335,response,1.001866590114321,1.1120449865727022,-1.0646456141816891,1.080719641270871,1.0906674695513798,-1.0505562030057338,high,high,,ISIC_1805163.JPG,9,ISIC_0663941.JPG,28,28,false,0.12,lh,keypress(e),0,false,690677.9000000954,690677.7999999523,683446.67,683664.5999999046,683463.23,690493.988,5,600,27,
break,html.Screen,10_26_1,2023-11-27T18:52:08.007Z,,,,,,,,,,,NaN,,,,,,,,high,high,,,,,,,false,,,,,false,690678.4000000954,690678.2999999523,,690678.0999999046,,690493.988,5,600,,
break_continue,html.Screen,10_26_2,2023-11-27T18:52:08.007Z,,,,,,,,,,,NaN,,,,,,,,high,high,,,,,,,false,,,,,false,690678.9000000954,690678.5999999046,,690678.5999999046,,690493.988,5,600,,
sequence,flow.Sequence,10_26,2023-11-27T18:52:08.007Z,,,,,,,,,,,7215.369999904651,completion,,,,,,,high,high,,,,,,,false,,,,,false,690678.9000000954,690678.5999999046,683446.67,683664.5999999046,683463.23,690493.988,5,600,,
trial,html.Screen,10_27_0,2023-11-27T18:52:11.710Z,,,,1,0.0283578106329894,-0.0088840758711548,,0.04,true,ll,3887.511999999988,response,-1.0879680624915455,1.1120449865727022,-1.0646456141816891,-0.9819300422707804,1.0906674695513798,-1.0505562030057338,low,low,,ISIC_0060707.JPG,10,ISIC_0011369.JPG,28,41,false,0.1,ll,keypress(f),0,false,694381.7000000477,694381.5,690460.351,690679.2000000477,690493.988,694200.804,5,600,28,
break,html.Screen,10_27_1,2023-11-27T18:52:11.710Z,,,,,,,,,,,NaN,,,,,,,,low,low,,,,,,,false,,,,,false,694381.9000000954,694381.9000000954,,694381.7000000477,,694200.804,5,600,,
break_continue,html.Screen,10_27_2,2023-11-27T18:52:11.710Z,,,,,,,,,,,NaN,,,,,,,,low,low,,,,,,,false,,,,,false,694382.2000000477,694382.0999999046,,694382.0999999046,,694200.804,5,600,,
sequence,flow.Sequence,10_27,2023-11-27T18:52:11.710Z,,,,,,,,,,,3888.1119999046205,completion,,,,,,,low,low,,,,,,,false,,,,,false,694382.2999999523,694382.0999999046,690460.351,690679.0999999046,690493.988,694200.804,5,600,,
trial,html.Screen,10_28_0,2023-11-27T18:52:15.223Z,,,,1,0.0044063257337227,0.0172548282859886,,0.04,false,hl,3693.89600004768,response,1.075512775389519,1.1120449865727022,-1.0646456141816891,-1.0454702683049502,1.0906674695513798,-1.0505562030057338,high,low,,ISIC_7413786.JPG,10,ISIC_0033603.JPG,28,25,false,0.3200000000000002,ll,keypress(f),0,false,697895,697894.7000000477,694167.643,694382.2999999523,694200.804,697707.651,5,600,29,
break,html.Screen,10_28_1,2023-11-27T18:52:15.224Z,,,,,,,,,,,NaN,,,,,,,,high,low,,,,,,,false,,,,,false,697896.2000000477,697896,,697895.4000000954,,697707.651,5,600,,
break_continue,html.Screen,10_28_2,2023-11-27T18:52:15.225Z,,,,,,,,,,,NaN,,,,,,,,high,low,,,,,,,false,,,,,false,697897.2000000477,697896.7000000477,,697896.5,,697707.651,5,600,,
sequence,flow.Sequence,10_28,2023-11-27T18:52:15.226Z,,,,,,,,,,,3695.89600004768,completion,,,,,,,high,low,,,,,,,false,,,,,false,697897.5,697896.7000000477,694167.643,694382.2999999523,694200.804,697707.651,5,600,,
trial,html.Screen,10_29_0,2023-11-27T18:52:21.454Z,,,,1,-0.0065172941585523,0.0118857043117315,,0.04,false,hl,6417.549000047729,response,0.8513427412482127,1.1120449865727022,-1.0646456141816891,-0.9295303568095064,1.0906674695513798,-1.0505562030057338,high,low,,ISIC_6119202.JPG,10,ISIC_0034164.JPG,28,25,false,0.3200000000000002,hh,keypress(i),0,false,704125.2999999523,704125.2000000477,697690.905,697897.7000000477,697707.651,703936.512,5,600,30,
break,html.Screen,10_29_1,2023-11-27T18:52:21.454Z,,,,,,,,,,,NaN,,,,,,,,high,low,,,,,,,false,,,,,false,704125.5999999046,704125.5,,704125.2999999523,,703936.512,5,600,,
break_continue,html.Screen,10_29_2,2023-11-27T18:52:21.454Z,,,,,,,,,,,NaN,,,,,,,,high,low,,,,,,,false,,,,,false,704125.9000000954,704125.7000000477,,704125.5999999046,,703936.512,5,600,,
sequence,flow.Sequence,10_29,2023-11-27T18:52:21.454Z,,,,,,,,,,,6418.049000047729,completion,,,,,,,high,low,,,,,,,false,,,,,false,704125.9000000954,704125.7000000477,697690.905,697897.5999999046,697707.651,703936.512,5,600,,
trial,html.Screen,10_30_0,2023-11-27T18:52:24.822Z,,,,1,-0.0088741920055285,-0.0058246074740588,,0.04,true,ll,3557.0879999046447,response,-0.9657289110900686,1.1120449865727022,-1.0646456141816891,-0.9643331448263084,1.0906674695513798,-1.0505562030057338,low,low,,ISIC_4136663.JPG,9,ISIC_0063447.JPG,28,41,false,0.1,ll,keypress(f),0,false,707493.7000000477,707493.5999999046,703919.927,704125.9000000954,703936.512,707292.982,5,600,31,
break,html.Screen,10_30_1,2023-11-27T18:52:24.822Z,,,,,,,,,,,NaN,,,,,,,,low,low,,,,,,,false,,,,,false,707494.2000000477,707494.0999999046,,707493.9000000954,,707292.982,5,600,,
break_continue,html.Screen,10_30_2,2023-11-27T18:52:24.823Z,,,,,,,,,,,NaN,,,,,,,,low,low,,,,,,,false,,,,,false,707494.4000000954,707494.2999999523,,707494.2000000477,,707292.982,5,600,,
sequence,flow.Sequence,10_30,2023-11-27T18:52:24.823Z,,,,,,,,,,,3557.7879999523284,completion,,,,,,,low,low,,,,,,,false,,,,,false,707494.5999999046,707494.2999999523,703919.927,704125.9000000954,703936.512,707292.982,5,600,,
trial,html.Screen,10_31_0,2023-11-27T18:52:27.015Z,,,,1,-0.0164027439304477,0.0082910758715273,,0.04,true,ll,2393.8179999523563,response,-0.9985175466432205,1.1120449865727022,-1.0646456141816891,-1.1132725606321277,1.0906674695513798,-1.0505562030057338,low,low,,ISIC_7381224.JPG,9,ISIC_0034002.JPG,28,41,false,0.1,ll,keypress(f),0,false,709687.0999999046,709686.7999999523,707276.447,707494.7000000477,707292.982,709497.271,5,600,32,
break,html.Screen,10_31_1,2023-11-27T18:52:27.017Z,,,,,,,,,,,NaN,,,,,,,,low,low,,,,,,,false,,,,,false,709688.2999999523,709688,,709687.5,,709497.271,5,600,,
break_continue,html.Screen,10_31_2,2023-11-27T18:52:27.017Z,,,,,,,,,,,NaN,,,,,,,,low,low,,,,,,,false,,,,,false,709689.2000000477,709688.7000000477,,709688.5,,709497.271,5,600,,
sequence,flow.Sequence,10_31,2023-11-27T18:52:27.018Z,,,,,,,,,,,2395.7180000477238,completion,,,,,,,low,low,,,,,,,false,,,,,false,709689.5,709688.7000000477,707276.447,707494.5999999046,707292.982,709497.271,5,600,,
trial,html.Screen,10_32_0,2023-11-27T18:52:35.520Z,,,,1,0.0283578106329894,-0.0088840758711548,,0.04,true,hl,8693.828999904683,response,1.2362557973341337,1.1120449865727022,-1.0646456141816891,-1.2548266183352603,1.0906674695513798,-1.0505562030057338,high,low,,ISIC_0060707.JPG,10,ISIC_0033886.JPG,28,25,false,0.3200000000000002,hl,keypress(j),0,false,718191.5,718191.0999999046,709480.81,709689.7000000477,709497.271,718013.835,5,600,33,
break,html.Screen,10_32_1,2023-11-27T18:52:35.521Z,,,,,,,,,,,NaN,,,,,,,,high,low,,,,,,,false,,,,,false,718192.7000000477,718192.4000000954,,718191.9000000954,,718013.835,5,600,,
break_continue,html.Screen,10_32_2,2023-11-27T18:52:35.522Z,,,,,,,,,,,NaN,,,,,,,,high,low,,,,,,,false,,,,,false,718193.5,718193.0999999046,,718192.9000000954,,718013.835,5,600,,
sequence,flow.Sequence,10_32,2023-11-27T18:52:35.522Z,,,,,,,,,,,8695.828999904683,completion,,,,,,,high,low,,,,,,,false,,,,,false,718193.9000000954,718193.0999999046,709480.81,709689.7000000477,709497.271,718013.835,5,600,,
trial,html.Screen,10_33_0,2023-11-27T18:52:39.761Z,,,,1,0.0119001144851157,-0.0063430114540141,,0.04,false,lh,4416.9649999523535,response,-0.9633172970727744,1.1120449865727022,-1.0646456141816891,0.8472659344792351,1.0906674695513798,-1.0505562030057338,low,high,,ISIC_0003822.JPG,10,ISIC_0067172.JPG,28,27,false,0.28000000000000014,hl,keypress(j),0,false,722431.2000000477,722430.7999999523,717980.645,718194.0999999046,718013.835,722238.696,5,600,34,
break,html.Screen,10_33_1,2023-11-27T18:52:39.762Z,,,,,,,,,,,NaN,,,,,,,,low,high,,,,,,,false,,,,,false,722432.4000000954,722432.0999999046,,722431.5,,722238.696,5,600,,
break_continue,html.Screen,10_33_2,2023-11-27T18:52:39.763Z,,,,,,,,,,,NaN,,,,,,,,low,high,,,,,,,false,,,,,false,722433.2999999523,722432.7999999523,,722432.5999999046,,722238.696,5,600,,
sequence,flow.Sequence,10_33,2023-11-27T18:52:39.763Z,,,,,,,,,,,4418.9649999523535,completion,,,,,,,low,high,,,,,,,false,,,,,false,722433.5999999046,722432.7999999523,717980.645,718194.0999999046,718013.835,722238.696,5,600,,
trial,html.Screen,10_34_0,2023-11-27T18:52:55.392Z,,,,1,0.0367744112927588,0.0324865661712824,,0.04,false,ll,15823.004000047687,response,-1.1441767540243375,1.1120449865727022,-1.0646456141816891,-1.0949087392471728,1.0906674695513798,-1.0505562030057338,low,low,,ISIC_4523565.JPG,10,ISIC_0054146.JPG,28,41,false,0.1,hl,keypress(j),0,false,738061.7000000477,738061.7000000477,722222.171,722433.7999999523,722238.696,737869.164,5,600,35,
break,html.Screen,10_34_1,2023-11-27T18:52:55.392Z,,,,,,,,,,,NaN,,,,,,,,low,low,,,,,,,false,,,,,false,738062.0999999046,738062.0999999046,,738061.9000000954,,737869.164,5,600,,
break_continue,html.Screen,10_34_2,2023-11-27T18:52:55.392Z,,,,,,,,,,,NaN,,,,,,,,low,low,,,,,,,false,,,,,false,738062.4000000954,738062.2999999523,,738062.2000000477,,737869.164,5,600,,
sequence,flow.Sequence,10_34,2023-11-27T18:52:55.392Z,,,,,,,,,,,15823.60399995232,completion,,,,,,,low,low,,,,,,,false,,,,,false,738062.5,738062.2999999523,722222.171,722433.7999999523,722238.696,737869.164,5,600,,
trial,html.Screen,10_35_0,2023-11-27T18:52:58.777Z,,,,1,0,-0.0102871556606504,,0.04,false,hl,3577.7360000953777,response,0.9653573371180936,1.1120449865727022,-1.0646456141816891,-0.854766800381037,1.0906674695513798,-1.0505562030057338,high,low,,ISIC_1805163.JPG,9,ISIC_9640145.JPG,28,25,false,0.3200000000000002,ll,keypress(f),0,false,741447.2999999523,741446.9000000954,737852.673,738062.5999999046,737869.164,741259.164,5,600,36,
break,html.Screen,10_35_1,2023-11-27T18:52:58.778Z,,,,,,,,,,,NaN,,,,,,,,high,low,,,,,,,false,,,,,false,741448.5,741448.2000000477,,741447.7000000477,,741259.164,5,600,,
break_continue,html.Screen,10_35_2,2023-11-27T18:52:58.779Z,,,,,,,,,,,NaN,,,,,,,,high,low,,,,,,,false,,,,,false,741449.4000000954,741449,,741448.7999999523,,741259.164,5,600,,
sequence,flow.Sequence,10_35,2023-11-27T18:52:58.780Z,,,,,,,,,,,3579.8360000000102,completion,,,,,,,high,low,,,,,,,false,,,,,false,741449.7999999523,741449,737852.673,738062.5999999046,737869.164,741259.164,5,600,,
trial,html.Screen,10_36_0,2023-11-27T18:53:06.833Z,,,,1,0.0220026381002083,-0.0170756452911772,,0.04,false,hh,8243.935999904643,response,1.0325421457475312,1.1120449865727022,-1.0646456141816891,1.0219157566370058,1.0906674695513798,-1.0505562030057338,high,high,,ISIC_5347806.JPG,10,ISIC_5336548.JPG,28,28,false,0.12,ll,keypress(f),0,false,749503.4000000954,749503.0999999046,741242.336,741450,741259.164,749308.089,5,600,37,
break,html.Screen,10_36_1,2023-11-27T18:53:06.835Z,,,,,,,,,,,NaN,,,,,,,,high,high,,,,,,,false,,,,,false,749504.7000000477,749504.4000000954,,749503.9000000954,,749308.089,5,600,,
break_continue,html.Screen,10_36_2,2023-11-27T18:53:06.835Z,,,,,,,,,,,NaN,,,,,,,,high,high,,,,,,,false,,,,,false,749505.5999999046,749505.2000000477,,749504.7999999523,,749308.089,5,600,,
sequence,flow.Sequence,10_36,2023-11-27T18:53:06.836Z,,,,,,,,,,,8246.036000047694,completion,,,,,,,high,high,,,,,,,false,,,,,false,749505.9000000954,749505.2000000477,741242.336,741450,741259.164,749308.089,5,600,,
trial,html.Screen,10_37_0,2023-11-27T18:53:10.889Z,,,,1,-0.0088741920055285,-0.0058246074740588,,0.04,true,hh,4250.611000047647,response,1.1072126870290426,1.1120449865727022,-1.0646456141816891,0.9917482735105084,1.0906674695513798,-1.0505562030057338,high,high,,ISIC_4136663.JPG,9,ISIC_0071754.JPG,28,28,false,0.12,hh,keypress(i),0,false,753559.0999999046,753558.7000000477,749291.631,749506.2000000477,749308.089,753365.99,5,600,38,
break,html.Screen,10_37_1,2023-11-27T18:53:10.890Z,,,,,,,,,,,NaN,,,,,,,,high,high,,,,,,,false,,,,,false,753560.2000000477,753559.9000000954,,753559.5,,753365.99,5,600,,
break_continue,html.Screen,10_37_2,2023-11-27T18:53:10.891Z,,,,,,,,,,,NaN,,,,,,,,high,high,,,,,,,false,,,,,false,753561.0999999046,753560.7000000477,,753560.5,,753365.99,5,600,,
sequence,flow.Sequence,10_37,2023-11-27T18:53:10.891Z,,,,,,,,,,,4252.611000047647,completion,,,,,,,high,high,,,,,,,false,,,,,false,753561.4000000954,753560.7000000477,749291.631,749506.0999999046,749308.089,753365.99,5,600,,
