sender,sender_type,sender_id,timestamp,meta,,age,blockNo,c1,c2,condition,control_tolerance,correct,correctResponse,duration,ended_on,f1,f1_high,f1_low,f2,f2_high,f2_low,feature_level1,feature_level2,gender,img_left,img_reveal,img_right,n_control_images,n_target_images,practice,range_tolerance,response,response_action,selection_duration,staircase,time_commit,time_end,time_render,time_run,time_show,time_switch,total_blocks,total_trials,trialNo,url
informed_consent,html.Screen,0,2023-11-29T20:39:15.849Z,"{""labjs_version"":""20.2.4"",""labjs_build"":{""flavor"":""development"",""commit"":""f5b4a49f956347addd546a832a3327688c2c0fef""},""location"":""https://labjs.felixhenninger.com/api/labjs_preview/index.html"",""userAgent"":""Mozilla/5.0 (Windows NT 10.0; Win64; x64) AppleWebKit/537.36 (KHTML, like Gecko) Chrome/119.0.0.0 Safari/537.36"",""platform"":""Win32"",""language"":""en-US"",""locale"":""en-US"",""timeZone"":""America/Chicago"",""timezoneOffset"":360,""screen_width"":1920,""screen_height"":1080,""scroll_width"":945,""scroll_height"":918,""window_innerWidth"":945,""window_innerHeight"":966,""devicePixelRatio"":1}",,,,,,,,,,53296.86199980926,response,,,,,,,,,,,,,,,,,consent,click button,,,54075.299999952316,54066.199999809265,752.71,948.1999998092651,769.338,53869.396,,,,{}
Demography form,html.Form,1,2023-11-29T20:39:22.329Z,,,18,,,,,,,,6685.603999999999,form submission,,,,,,,,,female,,,,,,,,,,,,60555.199999809265,60555,53852.736,54075.5,53869.396,60369.515,,,,
Welcome,html.Screen,2,2023-11-29T20:39:47.929Z,,,,,,,"[""asym"",""bor""]",,,,25784.985,response,,,,,,,,,,,,,,,,,continue,click button,,,86155,86154.5,60352.969,60555.299999952316,60369.515,85952.792,,,,
demo_instructions,html.Screen,3,2023-11-29T20:40:30.610Z,,,,,,,,,,,42881.407999809264,response,,,,,,,,,,,,,,,,,continue,click button,,,128834.89999985695,128834.19999980927,85936.377,86155.09999990463,85952.792,128636.164,,,,
trial,html.Screen,4_0_0,2023-11-29T20:40:47.971Z,,,,0,-1.272699544571422,-1.12917997553565,,,true,hh,17559.735999856945,response,1.0858641668099058,1.2,-1.2,1.1638942560200525,1.2,-1.2,high,high,,ISIC_0012057.JPG,,ISIC_5439597.JPG,,26,true,0.15000000000000002,hh,keypress(i),100,false,146196.19999980927,146195.89999985695,128619.623,128835.09999990463,128636.164,146002.898,1,16,1,
sequence,flow.Sequence,4_0,2023-11-29T20:40:47.986Z,,,,,,,,,,,17559.735999856945,completion,,,,,,,high,high,,,,,,,true,,,,,false,146211.89999985695,146195.89999985695,128619.623,128835,128636.164,146002.898,1,16,,
trial,html.Screen,4_1_0,2023-11-29T20:40:54.474Z,,,,0,-1.2750452296609045,-1.1682369131232675,,,true,hh,6696.001999856962,response,1.09666761087476,1.2,-1.2,1.1072126870290426,1.2,-1.2,high,high,,ISIC_0066399.JPG,,ISIC_0071754.JPG,,26,true,0.15000000000000002,hh,keypress(i),100,false,152699.39999985695,152698.89999985695,145986.253,146212.09999990463,146002.898,152519.622,1,16,2,
sequence,flow.Sequence,4_1,2023-11-29T20:40:54.474Z,,,,,,,,,,,6696.001999856962,completion,,,,,,,high,high,,,,,,,true,,,,,false,152699.79999995232,152698.89999985695,145986.253,146212,146002.898,152519.622,1,16,,
trial,html.Screen,4_2_0,2023-11-29T20:40:58.994Z,,,,0,-1.2282561398079586,-1.210457198775374,,,true,hh,4699.877999999997,response,1.2724584600905462,1.2,-1.2,1.1411016103695344,1.2,-1.2,high,high,,ISIC_9141817.JPG,,ISIC_0059625.JPG,,26,true,0.15000000000000002,hh,keypress(i),100,false,157219.69999980927,157219.5,152503.056,152700,152519.622,157036.367,1,16,3,
sequence,flow.Sequence,4_2,2023-11-29T20:40:58.995Z,,,,,,,,,,,4699.877999999997,completion,,,,,,,high,high,,,,,,,true,,,,,false,157219.89999985695,157219.5,152503.056,152699.89999985695,152519.622,157036.367,1,16,,
trial,html.Screen,4_3_0,2023-11-29T20:41:06.135Z,,,,0,-1.2254187569955004,-1.174555235109734,,,true,hh,7324.133000000002,response,1.3189473926989124,1.2,-1.2,1.0770264364718942,1.2,-1.2,high,high,,ISIC_0027187.JPG,,ISIC_6093728.JPG,,26,true,0.15000000000000002,hh,keypress(i),100,false,164360.69999980927,164360.5,157019.81,157220.09999990463,157036.367,164169.813,1,16,4,
sequence,flow.Sequence,4_3,2023-11-29T20:41:06.136Z,,,,,,,,,,,7324.133000000002,completion,,,,,,,high,high,,,,,,,true,,,,,false,164361,164360.5,157019.81,157220,157036.367,164169.813,1,16,,
trial,html.Screen,4_4_0,2023-11-29T20:41:28.462Z,,,,0,1.2706447584800626,1.0903308007916603,,,true,ll,22516.586999856954,response,-1.2952503640839694,1.2,-1.2,-1.107234527385344,1.2,-1.2,low,low,,ISIC_9425937.JPG,,ISIC_0034134.JPG,,30,true,0.1,ll,keypress(f),100,false,186686.69999980927,186686.39999985695,164152.893,164361.09999990463,164169.813,186502.927,1,16,5,
sequence,flow.Sequence,4_4,2023-11-29T20:41:28.462Z,,,,,,,,,,,22516.586999856954,completion,,,,,,,low,low,,,,,,,true,,,,,false,186686.89999985695,186686.39999985695,164152.893,164361.09999990463,164169.813,186502.927,1,16,,
trial,html.Screen,4_5_0,2023-11-29T20:41:34.996Z,,,,0,1.1210325063849345,1.1498648320956202,,,true,ll,6717.573000000004,response,-1.2015106101917423,1.2,-1.2,-1.071085024260525,1.2,-1.2,low,low,,ISIC_0032162.JPG,,ISIC_0072496.JPG,,53,true,0.15000000000000002,ll,keypress(f),100,false,193220.79999995232,193220.5,186486.264,186687.09999990463,186502.927,193036.366,1,16,6,
sequence,flow.Sequence,4_5,2023-11-29T20:41:34.996Z,,,,,,,,,,,6717.573000000004,completion,,,,,,,low,low,,,,,,,true,,,,,false,193221,193220.5,186486.264,186687,186502.927,193036.366,1,16,,
trial,html.Screen,4_6_0,2023-11-29T20:41:38.392Z,,,,0,1.0870240111136478,1.332340670965917,,,true,ll,3580.433999952307,response,-1.156827121261563,1.2,-1.2,-1.2544342720917778,1.2,-1.2,low,low,,ISIC_0000660.JPG,,ISIC_0060397.JPG,,53,true,0.15000000000000002,ll,keypress(f),100,false,196617,196616.79999995232,193019.706,193221,193036.366,196436.496,1,16,7,
sequence,flow.Sequence,4_6,2023-11-29T20:41:38.392Z,,,,,,,,,,,3580.433999952307,completion,,,,,,,low,low,,,,,,,true,,,,,false,196617.19999980927,196616.79999995232,193019.706,193221,193036.366,196436.496,1,16,,
trial,html.Screen,4_7_0,2023-11-29T20:41:43.902Z,,,,0,1.0959058628476686,1.1684835186766898,,,true,ll,5689.803999952303,response,-1.2923059965680113,1.2,-1.2,-1.222688159093534,1.2,-1.2,low,low,,ISIC_5920470.JPG,,ISIC_0072175.JPG,,53,true,0.15000000000000002,ll,keypress(f),100,false,202126.5,202126.29999995232,196419.724,196617.29999995232,196436.496,201936.28,1,16,8,
sequence,flow.Sequence,4_7,2023-11-29T20:41:43.902Z,,,,,,,,,,,5689.803999952303,completion,,,,,,,low,low,,,,,,,true,,,,,false,202126.69999980927,202126.29999995232,196419.724,196617.29999995232,196436.496,201936.28,1,16,,
trial,html.Screen,4_8_0,2023-11-29T20:41:53.028Z,,,,0,0.8534691366511764,-1.03975580494588,,,true,lh,9316.419999809266,response,-0.7809949855371787,1.2,-1.2,0.8493861117004308,1.2,-1.2,low,high,,ISIC_0056788.JPG,,ISIC_7450481.JPG,,27,true,0.42000000000000026,lh,keypress(e),100,false,211253,211252.69999980927,201919.611,202126.89999985695,201936.28,211069.603,1,16,9,
sequence,flow.Sequence,4_8,2023-11-29T20:41:53.029Z,,,,,,,,,,,9316.419999809266,completion,,,,,,,low,high,,,,,,,true,,,,,false,211253.5,211252.69999980927,201919.611,202126.89999985695,201936.28,211069.603,1,16,,
trial,html.Screen,4_9_0,2023-11-29T20:42:00.910Z,,,,0,0.8487429103619056,-0.9778257804233036,,,false,lh,8064.796999856946,response,-0.7911024675435955,1.2,-1.2,0.7975977016137676,1.2,-1.2,low,high,,ISIC_4554863.JPG,,ISIC_5813642.JPG,,27,true,0.42000000000000026,ll,keypress(f),100,false,219134.59999990463,219134.39999985695,211053.011,211253.69999980927,211069.603,218953.095,1,16,10,
sequence,flow.Sequence,4_9,2023-11-29T20:42:00.910Z,,,,,,,,,,,8064.796999856946,completion,,,,,,,low,high,,,,,,,true,,,,,false,219134.79999995232,219134.39999985695,211053.011,211253.69999980927,211069.603,218953.095,1,16,,
trial,html.Screen,4_10_0,2023-11-29T20:42:18.235Z,,,,0,0.9433720631499012,-1.0582071940347648,,,true,lh,17506.804999856948,response,-0.8200962008791046,1.2,-1.2,0.7936051642828523,1.2,-1.2,low,high,,ISIC_4890201.JPG,,ISIC_0027031.JPG,,27,true,0.42000000000000026,lh,keypress(e),100,false,236460.09999990463,236459.89999985695,218936.33,219134.79999995232,218953.095,236269.666,1,16,11,
sequence,flow.Sequence,4_10,2023-11-29T20:42:18.236Z,,,,,,,,,,,17506.804999856948,completion,,,,,,,low,high,,,,,,,true,,,,,false,236460.39999985695,236459.89999985695,218936.33,219134.79999995232,218953.095,236269.666,1,16,,
trial,html.Screen,4_11_0,2023-11-29T20:42:31.073Z,,,,0,0.9579209317488,-1.0147487101263497,,,true,lh,13027.334000000003,response,-1.0164576835546473,1.2,-1.2,0.8120626538423016,1.2,-1.2,low,high,,ISIC_8124482.JPG,,ISIC_6002694.JPG,,27,true,0.42000000000000026,lh,keypress(e),100,false,249297.19999980927,249297,236253.025,236460.5,236269.666,249103.01,1,16,12,
sequence,flow.Sequence,4_11,2023-11-29T20:42:31.073Z,,,,,,,,,,,13027.334000000003,completion,,,,,,,low,high,,,,,,,true,,,,,false,249297.39999985695,249297,236253.025,236460.5,236269.666,249103.01,1,16,,
trial,html.Screen,4_12_0,2023-11-29T20:42:40.306Z,,,,0,-1.0022829373011404,0.8311726972863814,,,true,hl,9427.48999999999,response,1.0751036484083878,1.2,-1.2,-1.143906455483852,1.2,-1.2,high,low,,ISIC_0033287.JPG,,ISIC_0064406.JPG,,26,true,0.3600000000000002,hl,keypress(j),100,false,258530.59999990463,258530.5,249086.502,249297.5,249103.01,258336.354,1,16,13,
sequence,flow.Sequence,4_12,2023-11-29T20:42:40.306Z,,,,,,,,,,,9427.48999999999,completion,,,,,,,high,low,,,,,,,true,,,,,false,258531,258530.5,249086.502,249297.5,249103.01,258336.354,1,16,,
trial,html.Screen,4_13_0,2023-11-29T20:42:46.916Z,,,,0,-0.8092423703106274,1.1870093485714288,,,true,hl,6804.2459999046405,response,0.7877939497981142,1.2,-1.2,-0.8415032780288271,1.2,-1.2,high,low,,ISIC_8592235.JPG,,ISIC_0067308.JPG,,33,true,0.42000000000000026,hl,keypress(j),100,false,265140.7999999523,265140.59999990463,258319.846,258531.09999990463,258336.354,264953.039,1,16,14,
sequence,flow.Sequence,4_13,2023-11-29T20:42:46.917Z,,,,,,,,,,,6804.2459999046405,completion,,,,,,,high,low,,,,,,,true,,,,,false,265141.09999990463,265140.59999990463,258319.846,258531.09999990463,258336.354,264953.039,1,16,,
trial,html.Screen,4_14_0,2023-11-29T20:42:57.551Z,,,,0,-0.9235571765207048,1.0008081653938232,,,true,hl,10822.46100000001,response,1.0751036484083878,1.2,-1.2,-1.143906455483852,1.2,-1.2,high,low,,ISIC_8796632.JPG,,ISIC_0064406.JPG,,33,true,0.42000000000000026,hl,keypress(j),100,false,275775.59999990463,275775.5,264936.414,265141.2999999523,264953.039,275586.361,1,16,15,
sequence,flow.Sequence,4_14,2023-11-29T20:42:57.551Z,,,,,,,,,,,10822.46100000001,completion,,,,,,,high,low,,,,,,,true,,,,,false,275775.7999999523,275775.5,264936.414,265141.2999999523,264953.039,275586.361,1,16,,
trial,html.Screen,4_15_0,2023-11-29T20:43:09.858Z,,,,0,-0.7911024675435955,0.7975977016137676,,,true,hl,12495.83899980929,response,1.0143509683988825,1.2,-1.2,-1.3163955902021656,1.2,-1.2,high,low,,ISIC_5813642.JPG,,ISIC_0062031.JPG,,33,true,0.42000000000000026,hl,keypress(j),100,false,288082.5,288082.19999980927,275569.738,275775.89999985695,275586.361,287903.149,1,16,16,
sequence,flow.Sequence,4_15,2023-11-29T20:43:09.858Z,,,,,,,,,,,12495.83899980929,completion,,,,,,,high,low,,,,,,,true,,,,,false,288083,288082.19999980927,275569.738,275775.7999999523,275586.361,287903.149,1,16,,
demonstration_loop,flow.Loop,4,2023-11-29T20:43:09.859Z,,,,,,,,,,,159446.03599980928,completion,,,,,,,,,,,,,,,true,,,,,false,288083.39999985695,288082.19999980927,128619.623,128835,128636.164,287903.149,1,16,,
practice_instructions,html.Screen,5,2023-11-29T20:43:20.381Z,,,,,,,,,,,10691.65099995234,response,,,,,,,,,,,,,,,,,continue,keypress(Space),,,298605.5,298594.7999999523,287886.416,288083.5,287903.149,298403.076,,,,
trial,html.Screen,6_0_0,2023-11-29T20:43:27.350Z,,,,1,1.2024083555600384,1.149077673153018,,,true,ll,7157.523999904632,response,-1.2952503640839694,1.2,-1.2,-1.107234527385344,1.2,-1.2,low,low,,ISIC_3566243.JPG,,ISIC_0034134.JPG,,30,true,0.1,ll,keypress(f),0,false,305574.59999990463,305560.59999990463,298386.186,298605.59999990463,298403.076,305386.411,1,40,1,
sequence,flow.Sequence,6_0,2023-11-29T20:43:27.350Z,,,,,,,,,,,7157.523999904632,completion,,,,,,,low,low,,,,,,,true,,,,,false,305574.7999999523,305560.59999990463,298386.186,298605.59999990463,298403.076,305386.411,1,40,,
trial,html.Screen,6_1_0,2023-11-29T20:43:32.715Z,,,,1,1.1181734135756094,-0.944560381774994,,,true,lh,5552.588999999978,response,-1.0164576835546473,1.2,-1.2,0.8120626538423016,1.2,-1.2,low,high,,ISIC_9688534.JPG,,ISIC_6002694.JPG,,27,true,0.42000000000000026,lh,keypress(e),0,false,310939.19999980927,310939,305353.054,305574.89999985695,305386.411,310736.381,1,40,2,
sequence,flow.Sequence,6_1,2023-11-29T20:43:32.715Z,,,,,,,,,,,5552.588999999978,completion,,,,,,,low,high,,,,,,,true,,,,,false,310939.2999999523,310939,305353.054,305574.7999999523,305386.411,310736.381,1,40,,
trial,html.Screen,6_2_0,2023-11-29T20:43:38.467Z,,,,1,1.1642596483638106,1.109799097093339,,,true,ll,5954.619000000006,response,-0.926346073371304,1.2,-1.2,-1.3916411022520692,1.2,-1.2,low,low,,ISIC_0765584.JPG,,ISIC_0034094.JPG,,245,true,0.3600000000000002,ll,keypress(f),0,false,316691.09999990463,316691,310719.585,310939.39999985695,310736.381,316486.412,1,40,3,
sequence,flow.Sequence,6_2,2023-11-29T20:43:38.467Z,,,,,,,,,,,5954.619000000006,completion,,,,,,,low,low,,,,,,,true,,,,,false,316691.19999980927,316691,310719.585,310939.39999985695,310736.381,316486.412,1,40,,
trial,html.Screen,6_3_0,2023-11-29T20:43:42.172Z,,,,1,1.3411179702686655,1.255103311449152,,,true,ll,3909.387999952305,response,-1.0698162624196283,1.2,-1.2,-1.219634566983089,1.2,-1.2,low,low,,ISIC_5611010.JPG,,ISIC_0030552.JPG,,53,true,0.15000000000000002,ll,keypress(f),0,false,320396,320395.7999999523,316469.802,316691.2999999523,316486.412,320203.104,1,40,4,
sequence,flow.Sequence,6_3,2023-11-29T20:43:42.172Z,,,,,,,,,,,3909.387999952305,completion,,,,,,,low,low,,,,,,,true,,,,,false,320396.2999999523,320395.7999999523,316469.802,316691.2999999523,316486.412,320203.104,1,40,,
trial,html.Screen,6_4_0,2023-11-29T20:43:50.083Z,,,,1,-0.991146183030456,0.9949639823722534,,,true,hl,8103.695999952324,response,1.2075172235545184,1.2,-1.2,-0.9116724966267612,1.2,-1.2,high,low,,ISIC_6342224.JPG,,ISIC_0024235.JPG,,26,true,0.3600000000000002,hl,keypress(j),0,false,328307,328306.7999999523,320186.473,320396.5,320203.104,328103.175,1,40,5,
sequence,flow.Sequence,6_4,2023-11-29T20:43:50.083Z,,,,,,,,,,,8103.695999952324,completion,,,,,,,high,low,,,,,,,true,,,,,false,328307,328306.7999999523,320186.473,320396.5,320203.104,328103.175,1,40,,
trial,html.Screen,6_5_0,2023-11-29T20:44:02.819Z,,,,1,-1.1383813631375823,-1.1319312220332556,,,true,hh,12939.825000000012,response,0.8166030890360636,1.2,-1.2,0.9078453750437048,1.2,-1.2,high,high,,ISIC_6227397.JPG,,ISIC_0028919.JPG,,253,true,0.42000000000000026,hh,keypress(i),0,false,341043.09999990463,341043,328086.387,328307.09999990463,328103.175,340853.123,1,40,6,
sequence,flow.Sequence,6_5,2023-11-29T20:44:02.819Z,,,,,,,,,,,12939.825000000012,completion,,,,,,,high,high,,,,,,,true,,,,,false,341043.19999980927,341043,328086.387,328307.09999990463,328103.175,340853.123,1,40,,
trial,html.Screen,6_6_0,2023-11-29T20:44:09.132Z,,,,1,1.0751036484083878,-1.143906455483852,,,true,lh,6502.776999856927,response,-1.0164576835546473,1.2,-1.2,0.8120626538423016,1.2,-1.2,low,high,,ISIC_0064406.JPG,,ISIC_6002694.JPG,,27,true,0.42000000000000026,lh,keypress(e),0,false,347356.09999990463,347355.89999985695,340819.398,341043.2999999523,340853.123,347153.205,1,40,7,
sequence,flow.Sequence,6_6,2023-11-29T20:44:09.133Z,,,,,,,,,,,6502.776999856927,completion,,,,,,,low,high,,,,,,,true,,,,,false,347356.59999990463,347355.89999985695,340819.398,341043.2999999523,340853.123,347153.205,1,40,,
trial,html.Screen,6_7_0,2023-11-29T20:44:20.636Z,,,,1,1.4747161152848791,-0.847048591307387,,,true,lh,11706.494999809249,response,-1.0022829373011404,1.2,-1.2,0.8311726972863814,1.2,-1.2,low,high,,ISIC_0016092.JPG,,ISIC_0033287.JPG,,27,true,0.42000000000000026,lh,keypress(e),0,false,358859.7999999523,358859.69999980927,347136.283,347356.7999999523,347153.205,358653.204,1,40,8,
sequence,flow.Sequence,6_7,2023-11-29T20:44:20.636Z,,,,,,,,,,,11706.494999809249,completion,,,,,,,low,high,,,,,,,true,,,,,false,358860.09999990463,358859.69999980927,347136.283,347356.7999999523,347153.205,358653.204,1,40,,
trial,html.Screen,6_8_0,2023-11-29T20:44:26.347Z,,,,1,-1.2254187569955004,-1.174555235109734,,,true,hh,5917.595999952289,response,0.9525123994269484,1.2,-1.2,1.0779941204178511,1.2,-1.2,high,high,,ISIC_0027187.JPG,,ISIC_0009642.JPG,,179,true,0.3600000000000002,hh,keypress(i),0,false,364570.89999985695,364570.7999999523,358636.178,358860.2999999523,358653.204,364369.821,1,40,9,
sequence,flow.Sequence,6_8,2023-11-29T20:44:26.347Z,,,,,,,,,,,5917.595999952289,completion,,,,,,,high,high,,,,,,,true,,,,,false,364571,364570.7999999523,358636.178,358860.19999980927,358653.204,364369.821,1,40,,
trial,html.Screen,6_9_0,2023-11-29T20:44:35.875Z,,,,1,1.2075172235545184,-0.9116724966267612,,,true,lh,9729.078999856953,response,-0.948927472020595,1.2,-1.2,1.0660437155921598,1.2,-1.2,low,high,,ISIC_0024235.JPG,,ISIC_5808758.JPG,,27,true,0.42000000000000026,lh,keypress(e),0,false,374099,374098.89999985695,364352.951,364571.09999990463,364369.821,373903.314,1,40,10,
sequence,flow.Sequence,6_9,2023-11-29T20:44:35.876Z,,,,,,,,,,,9729.078999856953,completion,,,,,,,low,high,,,,,,,true,,,,,false,374099.19999980927,374098.89999985695,364352.951,364571.09999990463,364369.821,373903.314,1,40,,
trial,html.Screen,6_10_0,2023-11-29T20:44:42.611Z,,,,1,-1.1253220985777015,-1.108725659461368,,,true,hh,6931.585999856936,response,0.9786457729523576,1.2,-1.2,1.1189056385517386,1.2,-1.2,high,high,,ISIC_0054954.JPG,,ISIC_3926019.JPG,,179,true,0.3600000000000002,hh,keypress(i),0,false,380835,380834.89999985695,373886.366,374099.2999999523,373903.314,380636.526,1,40,11,
sequence,flow.Sequence,6_10,2023-11-29T20:44:42.612Z,,,,,,,,,,,6931.585999856936,completion,,,,,,,high,high,,,,,,,true,,,,,false,380835.19999980927,380834.89999985695,373886.366,374099.2999999523,373903.314,380636.526,1,40,,
trial,html.Screen,6_11_0,2023-11-29T20:44:51.180Z,,,,1,1.086647361897092,1.1528935990320313,,,true,ll,8767.173999809253,response,-1.2952503640839694,1.2,-1.2,-1.107234527385344,1.2,-1.2,low,low,,ISIC_3505339.JPG,,ISIC_0034134.JPG,,30,true,0.1,ll,keypress(f),0,false,389404,389403.69999980927,380619.711,380835.2999999523,380636.526,389219.868,1,40,12,
sequence,flow.Sequence,6_11,2023-11-29T20:44:51.181Z,,,,,,,,,,,8767.173999809253,completion,,,,,,,low,low,,,,,,,true,,,,,false,389404.2999999523,389403.69999980927,380619.711,380835.19999980927,380636.526,389219.868,1,40,,
trial,html.Screen,6_12_0,2023-11-29T20:44:58.635Z,,,,1,-0.7809949855371787,0.8493861117004308,,,true,hl,7638.9319999522995,response,0.9454713230140772,1.2,-1.2,-0.9245167441969216,1.2,-1.2,high,low,,ISIC_7450481.JPG,,ISIC_9101055.JPG,,26,true,0.3600000000000002,hl,keypress(j),0,false,396858.7999999523,396858.7999999523,389186.176,389404.59999990463,389219.868,396653.201,1,40,13,
sequence,flow.Sequence,6_12,2023-11-29T20:44:58.635Z,,,,,,,,,,,7638.9319999522995,completion,,,,,,,high,low,,,,,,,true,,,,,false,396858.89999985695,396858.7999999523,389186.176,389404.5,389219.868,396653.201,1,40,,
trial,html.Screen,6_13_0,2023-11-29T20:45:12.636Z,,,,1,-0.8200962008791046,0.7936051642828523,,,true,hl,14206.298999999999,response,0.7836356408583546,1.2,-1.2,-1.1197925594706428,1.2,-1.2,high,low,,ISIC_0027031.JPG,,ISIC_0024961.JPG,,33,true,0.42000000000000026,hl,keypress(j),0,false,410859.69999980927,410859.5,396636.276,396859,396653.201,410669.897,1,40,14,
sequence,flow.Sequence,6_13,2023-11-29T20:45:12.636Z,,,,,,,,,,,14206.298999999999,completion,,,,,,,high,low,,,,,,,true,,,,,false,410860,410859.5,396636.276,396859,396653.201,410669.897,1,40,,
trial,html.Screen,6_14_0,2023-11-29T20:45:22.476Z,,,,1,-1.0022829373011404,0.8311726972863814,,,true,hl,10029.702999904635,response,0.7951166058716005,1.2,-1.2,-1.477327500998078,1.2,-1.2,high,low,,ISIC_0033287.JPG,,ISIC_0033925.JPG,,33,true,0.42000000000000026,hl,keypress(j),0,false,420699.7999999523,420699.59999990463,410636.167,410860.09999990463,410669.897,420519.908,1,40,15,
sequence,flow.Sequence,6_14,2023-11-29T20:45:22.477Z,,,,,,,,,,,10029.702999904635,completion,,,,,,,high,low,,,,,,,true,,,,,false,420700.09999990463,420699.59999990463,410636.167,410860.09999990463,410669.897,420519.908,1,40,,
trial,html.Screen,6_15_0,2023-11-29T20:45:31.420Z,,,,1,-0.796241477082623,0.9017449335975743,,,true,hl,9122.991999856953,response,1.2695509547992938,1.2,-1.2,-0.9641099676945492,1.2,-1.2,high,low,,ISIC_8588033.JPG,,ISIC_0025841.JPG,,33,true,0.42000000000000026,hl,keypress(j),0,false,429643.09999990463,429642.89999985695,420486.427,420700.39999985695,420519.908,429436.571,1,40,16,
sequence,flow.Sequence,6_15,2023-11-29T20:45:31.420Z,,,,,,,,,,,9122.991999856953,completion,,,,,,,high,low,,,,,,,true,,,,,false,429643.19999980927,429642.89999985695,420486.427,420700.2999999523,420519.908,429436.571,1,40,,
trial,html.Screen,6_16_0,2023-11-29T20:45:40.412Z,,,,1,0.9433720631499012,-1.0582071940347648,,,true,lh,9198.528999904636,response,-0.7833710010171356,1.2,-1.2,0.9315588090336896,1.2,-1.2,low,high,,ISIC_4890201.JPG,,ISIC_3826102.JPG,,27,true,0.42000000000000026,lh,keypress(e),0,false,438635.2999999523,438635.09999990463,429419.69,429643.19999980927,429436.571,438436.654,1,40,17,
sequence,flow.Sequence,6_16,2023-11-29T20:45:40.412Z,,,,,,,,,,,9198.528999904636,completion,,,,,,,low,high,,,,,,,true,,,,,false,438635.59999990463,438635.09999990463,429419.69,429643.19999980927,429436.571,438436.654,1,40,,
trial,html.Screen,6_17_0,2023-11-29T20:45:48.300Z,,,,1,0.8534691366511764,-1.03975580494588,,,true,lh,8086.445999904652,response,-1.0264463986917702,1.2,-1.2,1.2804054832904397,1.2,-1.2,low,high,,ISIC_0056788.JPG,,ISIC_7889838.JPG,,27,true,0.42000000000000026,lh,keypress(e),0,false,446523.2999999523,446523.09999990463,438419.838,438635.69999980927,438436.654,446319.918,1,40,18,
sequence,flow.Sequence,6_17,2023-11-29T20:45:48.300Z,,,,,,,,,,,8086.445999904652,completion,,,,,,,low,high,,,,,,,true,,,,,false,446523.2999999523,446523.09999990463,438419.838,438635.69999980927,438436.654,446319.918,1,40,,
trial,html.Screen,6_18_0,2023-11-29T20:45:55.228Z,,,,1,1.1137763092539212,1.1599906701455132,,,true,ll,7131.181999904627,response,-0.9046170303418553,1.2,-1.2,-0.8867328775712738,1.2,-1.2,low,low,,ISIC_5413788.JPG,,ISIC_0055759.JPG,,245,true,0.3600000000000002,ll,keypress(f),0,false,453451.19999980927,453451.09999990463,446303.156,446523.5,446319.918,453253.352,1,40,19,
sequence,flow.Sequence,6_18,2023-11-29T20:45:55.228Z,,,,,,,,,,,7131.181999904627,completion,,,,,,,low,low,,,,,,,true,,,,,false,453451.5,453451.09999990463,446303.156,446523.5,446319.918,453253.352,1,40,,
trial,html.Screen,6_19_0,2023-11-29T20:46:01.724Z,,,,1,1.131522954199764,1.1047184491749509,,,true,ll,6693.747999904619,response,-1.135372722680314,1.2,-1.2,-1.0926414044454305,1.2,-1.2,low,low,,ISIC_1868816.JPG,,ISIC_2355513.JPG,,53,true,0.15000000000000002,ll,keypress(f),0,false,459947.19999980927,459947.09999990463,453236.45,453451.5,453253.352,459753.26,1,40,20,
sequence,flow.Sequence,6_19,2023-11-29T20:46:01.724Z,,,,,,,,,,,6693.747999904619,completion,,,,,,,low,low,,,,,,,true,,,,,false,459947.39999985695,459947.09999990463,453236.45,453451.5,453253.352,459753.26,1,40,,
trial,html.Screen,6_20_0,2023-11-29T20:46:10.725Z,,,,1,-0.7809949855371787,0.8493861117004308,,,true,hl,9194.439999809256,response,0.858338058340649,1.2,-1.2,-0.9540612223480284,1.2,-1.2,high,low,,ISIC_7450481.JPG,,ISIC_8922893.JPG,,26,true,0.3600000000000002,hl,keypress(j),0,false,468947.7999999523,468947.69999980927,459736.405,459947.39999985695,459753.26,468753.306,1,40,21,
sequence,flow.Sequence,6_20,2023-11-29T20:46:10.725Z,,,,,,,,,,,9194.439999809256,completion,,,,,,,high,low,,,,,,,true,,,,,false,468948.19999980927,468947.69999980927,459736.405,459947.39999985695,459753.26,468753.306,1,40,,
trial,html.Screen,6_21_0,2023-11-29T20:46:18.029Z,,,,1,1.1137763092539212,1.1599906701455132,,,true,ll,7498.593999856967,response,-1.152619213055059,1.2,-1.2,-1.1117876838408909,1.2,-1.2,low,low,,ISIC_5413788.JPG,,ISIC_0061915.JPG,,339,true,0.42000000000000026,ll,keypress(f),0,false,476252.09999990463,476251.89999985695,468736.339,468948.39999985695,468753.306,476053.328,1,40,22,
sequence,flow.Sequence,6_21,2023-11-29T20:46:18.029Z,,,,,,,,,,,7498.593999856967,completion,,,,,,,low,low,,,,,,,true,,,,,false,476252.39999985695,476251.89999985695,468736.339,468948.39999985695,468753.306,476053.328,1,40,,
trial,html.Screen,6_22_0,2023-11-29T20:46:25.348Z,,,,1,-0.796241477082623,0.9017449335975743,,,true,hl,7517.471999952337,response,1.011737552725394,1.2,-1.2,-0.8500530224490773,1.2,-1.2,high,low,,ISIC_8588033.JPG,,ISIC_2998367.JPG,,26,true,0.3600000000000002,hl,keypress(j),0,false,483571,483570.7999999523,476036.535,476252.59999990463,476053.328,483369.993,1,40,23,
sequence,flow.Sequence,6_22,2023-11-29T20:46:25.348Z,,,,,,,,,,,7517.471999952337,completion,,,,,,,high,low,,,,,,,true,,,,,false,483571.09999990463,483570.7999999523,476036.535,476252.5,476053.328,483369.993,1,40,,
trial,html.Screen,6_23_0,2023-11-29T20:46:36.605Z,,,,1,0.8579451262594331,-0.9633172970727744,,,true,lh,11457.506999999983,response,-1.0264463986917702,1.2,-1.2,1.2804054832904397,1.2,-1.2,low,high,,ISIC_0067172.JPG,,ISIC_7889838.JPG,,27,true,0.42000000000000026,lh,keypress(e),0,false,494827.69999980927,494827.5,483353.285,483571.09999990463,483369.993,494620.028,1,40,24,
sequence,flow.Sequence,6_23,2023-11-29T20:46:36.605Z,,,,,,,,,,,11457.506999999983,completion,,,,,,,low,high,,,,,,,true,,,,,false,494828.09999990463,494827.5,483353.285,483571.09999990463,483369.993,494620.028,1,40,,
trial,html.Screen,6_24_0,2023-11-29T20:46:46.620Z,,,,1,-1.1346217981791904,-1.1555132168806113,,,true,hh,10222.972000000009,response,1.0650525146668357,1.2,-1.2,0.9852293825146712,1.2,-1.2,high,high,,ISIC_0032771.JPG,,ISIC_6642608.JPG,,179,true,0.3600000000000002,hh,keypress(i),0,false,504843.09999990463,504843,494602.997,494828.39999985695,494620.028,504653.335,1,40,25,
sequence,flow.Sequence,6_24,2023-11-29T20:46:46.620Z,,,,,,,,,,,10222.972000000009,completion,,,,,,,high,high,,,,,,,true,,,,,false,504843.19999980927,504843,494602.997,494828.2999999523,494620.028,504653.335,1,40,,
trial,html.Screen,6_25_0,2023-11-29T20:46:55.844Z,,,,1,0.858338058340649,-0.9540612223480284,,,true,lh,9413.664999999979,response,-0.796241477082623,1.2,-1.2,0.9017449335975743,1.2,-1.2,low,high,,ISIC_8922893.JPG,,ISIC_8588033.JPG,,27,true,0.42000000000000026,lh,keypress(e),0,false,514067.09999990463,514067,504619.708,504843.39999985695,504653.335,513870.05,1,40,26,
sequence,flow.Sequence,6_25,2023-11-29T20:46:55.844Z,,,,,,,,,,,9413.664999999979,completion,,,,,,,low,high,,,,,,,true,,,,,false,514067.2999999523,514067,504619.708,504843.2999999523,504653.335,513870.05,1,40,,
trial,html.Screen,6_26_0,2023-11-29T20:47:02.820Z,,,,1,-1.247270138097585,-1.1704704713504994,,,true,hh,7172.950000000012,response,1.0375203228848855,1.2,-1.2,0.9394358755892184,1.2,-1.2,high,high,,ISIC_0065774.JPG,,ISIC_4264600.JPG,,179,true,0.3600000000000002,hh,keypress(i),0,false,521043.09999990463,521043,513853.217,514067.39999985695,513870.05,520836.681,1,40,27,
sequence,flow.Sequence,6_26,2023-11-29T20:47:02.820Z,,,,,,,,,,,7172.950000000012,completion,,,,,,,high,high,,,,,,,true,,,,,false,521043.2999999523,521043,513853.217,514067.39999985695,513870.05,520836.681,1,40,,
trial,html.Screen,6_27_0,2023-11-29T20:47:07.988Z,,,,1,-1.272699544571422,-1.12917997553565,,,true,hh,5373.91899990465,response,1.1137763092539212,1.2,-1.2,1.1599906701455132,1.2,-1.2,high,high,,ISIC_0012057.JPG,,ISIC_5413788.JPG,,26,true,0.15000000000000002,hh,keypress(i),0,false,526210.6999998093,526210.5999999046,520819.806,521043.2999999523,520836.681,526003.375,1,40,28,
sequence,flow.Sequence,6_27,2023-11-29T20:47:07.988Z,,,,,,,,,,,5373.91899990465,completion,,,,,,,high,high,,,,,,,true,,,,,false,526210.899999857,526210.5999999046,520819.806,521043.2999999523,520836.681,526003.375,1,40,,
trial,html.Screen,6_28_0,2023-11-29T20:47:15.108Z,,,,1,1.1137763092539212,1.1599906701455132,,,true,ll,7327.824999809265,response,-1.2915523362516486,1.2,-1.2,-1.1264977790562936,1.2,-1.2,low,low,,ISIC_5413788.JPG,,ISIC_0502582.JPG,,30,true,0.1,ll,keypress(f),0,false,533331.2999999523,533331.1999998093,525986.735,526210.899999857,526003.375,533136.722,1,40,29,
sequence,flow.Sequence,6_28,2023-11-29T20:47:15.108Z,,,,,,,,,,,7327.824999809265,completion,,,,,,,low,low,,,,,,,true,,,,,false,533331.5,533331.1999998093,525986.735,526210.899999857,526003.375,533136.722,1,40,,
trial,html.Screen,6_29_0,2023-11-29T20:47:26.277Z,,,,1,0.8487429103619056,-0.9778257804233036,,,true,lh,11362.877999904682,response,-0.9235571765207048,1.2,-1.2,1.0008081653938232,1.2,-1.2,low,high,,ISIC_4554863.JPG,,ISIC_8796632.JPG,,27,true,0.42000000000000026,lh,keypress(e),0,false,544499.6999998093,544499.5999999046,533119.894,533331.5999999046,533136.722,544303.427,1,40,30,
sequence,flow.Sequence,6_29,2023-11-29T20:47:26.277Z,,,,,,,,,,,11362.877999904682,completion,,,,,,,low,high,,,,,,,true,,,,,false,544500,544499.5999999046,533119.894,533331.5999999046,533136.722,544303.427,1,40,,
trial,html.Screen,6_30_0,2023-11-29T20:47:39.965Z,,,,1,-0.7870237732709365,0.9172955251119376,,,true,hl,13884.472999856924,response,0.9696118525781644,1.2,-1.2,-0.9244148283103414,1.2,-1.2,high,low,,ISIC_0057716.JPG,,ISIC_7927525.JPG,,26,true,0.3600000000000002,hl,keypress(j),0,false,558188.0999999046,558187.899999857,544286.424,544500.1999998093,544303.427,557986.724,1,40,31,
sequence,flow.Sequence,6_30,2023-11-29T20:47:39.966Z,,,,,,,,,,,13884.472999856924,completion,,,,,,,high,low,,,,,,,true,,,,,false,558188.399999857,558187.899999857,544286.424,544500.0999999046,544303.427,557986.724,1,40,,
trial,html.Screen,6_31_0,2023-11-29T20:47:44.045Z,,,,1,1.020990671779317,-1.0116513850520903,,,true,lh,4280.775999999954,response,-1.0213365328004047,1.2,-1.2,1.088524359911891,1.2,-1.2,low,high,,ISIC_0011995.JPG,,ISIC_5434229.JPG,,27,true,0.42000000000000026,lh,keypress(e),0,false,562267.7999999523,562267.5,557969.557,558188.5999999046,557986.724,562070.081,1,40,32,
sequence,flow.Sequence,6_31,2023-11-29T20:47:44.045Z,,,,,,,,,,,4280.775999999954,completion,,,,,,,low,high,,,,,,,true,,,,,false,562268.0999999046,562267.5,557969.557,558188.5,557986.724,562070.081,1,40,,
trial,html.Screen,6_32_0,2023-11-29T20:47:49.037Z,,,,1,-1.2169050727663315,-1.1067845563421794,,,true,hh,5189.418999999994,response,1.54504336581176,1.2,-1.2,1.0979463718010185,1.2,-1.2,high,high,,ISIC_7016261.JPG,,ISIC_3909443.JPG,,179,true,0.3600000000000002,hh,keypress(i),0,false,567259.6999998093,567259.5,562053.426,562268.2999999523,562070.081,567053.461,1,40,33,
sequence,flow.Sequence,6_32,2023-11-29T20:47:49.037Z,,,,,,,,,,,5189.418999999994,completion,,,,,,,high,high,,,,,,,true,,,,,false,567260,567259.5,562053.426,562268.2999999523,562070.081,567053.461,1,40,,
trial,html.Screen,6_33_0,2023-11-29T20:47:54.805Z,,,,1,1.2706447584800626,1.0903308007916603,,,true,ll,5973.938999856939,response,-1.2923059965680113,1.2,-1.2,-1.222688159093534,1.2,-1.2,low,low,,ISIC_9425937.JPG,,ISIC_0072175.JPG,,30,true,0.1,ll,keypress(f),0,false,573027.5999999046,573027.399999857,567036.605,567260.1999998093,567053.461,572836.797,1,40,34,
sequence,flow.Sequence,6_33,2023-11-29T20:47:54.805Z,,,,,,,,,,,5973.938999856939,completion,,,,,,,low,low,,,,,,,true,,,,,false,573027.7999999523,573027.399999857,567036.605,567260.0999999046,567053.461,572836.797,1,40,,
trial,html.Screen,6_34_0,2023-11-29T20:48:04.468Z,,,,1,-0.9873794329144926,0.7991077882008257,,,true,hl,9853.902999809245,response,1.011737552725394,1.2,-1.2,-0.8500530224490773,1.2,-1.2,high,low,,ISIC_0013498.JPG,,ISIC_2998367.JPG,,26,true,0.3600000000000002,hl,keypress(j),0,false,582690.899999857,582690.6999998093,572803.303,573027.899999857,572836.797,582486.747,1,40,35,
sequence,flow.Sequence,6_34,2023-11-29T20:48:04.468Z,,,,,,,,,,,9853.902999809245,completion,,,,,,,high,low,,,,,,,true,,,,,false,582691,582690.6999998093,572803.303,573027.899999857,572836.797,582486.747,1,40,,
trial,html.Screen,6_35_0,2023-11-29T20:48:08.380Z,,,,1,1.3189473926989124,1.0770264364718942,,,true,ll,4116.253000000026,response,-1.2296334397777855,1.2,-1.2,-1.022420086815287,1.2,-1.2,low,low,,ISIC_6093728.JPG,,ISIC_0073173.JPG,,339,true,0.42000000000000026,ll,keypress(f),0,false,586603.0999999046,586603,582469.777,582691,582486.747,586403.461,1,40,36,
sequence,flow.Sequence,6_35,2023-11-29T20:48:08.381Z,,,,,,,,,,,4116.253000000026,completion,,,,,,,low,low,,,,,,,true,,,,,false,586603.2999999523,586603,582469.777,582691,582486.747,586403.461,1,40,,
trial,html.Screen,6_36_0,2023-11-29T20:48:12.261Z,,,,1,-0.8947611078712571,0.8960964505004638,,,false,hl,4079.838999952306,response,0.8534691366511764,1.2,-1.2,-1.03975580494588,1.2,-1.2,high,low,,ISIC_6441128.JPG,,ISIC_0056788.JPG,,26,true,0.3600000000000002,hh,keypress(i),0,false,590483.5,590483.2999999523,586386.653,586603.2999999523,586403.461,590286.928,1,40,37,
sequence,flow.Sequence,6_36,2023-11-29T20:48:12.261Z,,,,,,,,,,,4079.838999952306,completion,,,,,,,high,low,,,,,,,true,,,,,false,590483.5999999046,590483.2999999523,586386.653,586603.2999999523,586403.461,590286.928,1,40,,
trial,html.Screen,6_37_0,2023-11-29T20:48:20.836Z,,,,1,-1.1346217981791904,-1.1555132168806113,,,true,hh,8772.072000000044,response,0.8956547411795645,1.2,-1.2,1.4069949335612606,1.2,-1.2,high,high,,ISIC_0032771.JPG,,ISIC_5457889.JPG,,253,true,0.42000000000000026,hh,keypress(i),0,false,599059.0999999046,599059,590270.137,590483.7999999523,590286.928,598853.457,1,40,38,
sequence,flow.Sequence,6_37,2023-11-29T20:48:20.837Z,,,,,,,,,,,8772.072000000044,completion,,,,,,,high,high,,,,,,,true,,,,,false,599059.1999998093,599059,590270.137,590483.6999998093,590286.928,598853.457,1,40,,
trial,html.Screen,6_38_0,2023-11-29T20:48:23.669Z,,,,1,-1.1474466950560966,-1.268445326285509,,,true,hh,3037.742999809212,response,1.09666761087476,1.2,-1.2,1.1072126870290426,1.2,-1.2,high,high,,ISIC_5216586.JPG,,ISIC_0071754.JPG,,26,true,0.15000000000000002,hh,keypress(i),0,false,601891.399999857,601891.1999998093,598836.667,599059.2999999523,598853.457,601686.811,1,40,39,
sequence,flow.Sequence,6_38,2023-11-29T20:48:23.669Z,,,,,,,,,,,3037.742999809212,completion,,,,,,,high,high,,,,,,,true,,,,,false,601891.5999999046,601891.1999998093,598836.667,599059.2999999523,598853.457,601686.811,1,40,,
trial,html.Screen,6_39_0,2023-11-29T20:48:26.268Z,,,,1,-1.126264390089724,-1.271896565050952,,,true,hh,2804.189000000013,response,1.0789197754694622,1.2,-1.2,1.1654690806750023,1.2,-1.2,high,high,,ISIC_1520897.JPG,,ISIC_1576437.JPG,,26,true,0.15000000000000002,hh,keypress(i),0,false,604491,604491,601670.131,601891.7999999523,601686.811,604286.798,1,40,40,
sequence,flow.Sequence,6_39,2023-11-29T20:48:26.269Z,,,,,,,,,,,2804.189000000013,completion,,,,,,,high,high,,,,,,,true,,,,,false,604491.2999999523,604491,601670.131,601891.7999999523,601686.811,604286.798,1,40,,
practice_loop,flow.Loop,6,2023-11-29T20:48:26.269Z,,,,,,,,,,,306087.924,completion,,,,,,,,,,,,,,,true,,,,,false,604491.399999857,604491,298386.186,298605.59999990463,298403.076,604286.798,1,40,,
stair_instructions,html.Screen,7,2023-11-29T20:48:52.493Z,,,,,,,,,,,26427.70200000005,response,,,,,,,,,,,,,,,,,continue,keypress(Space),,,630714.899999857,630714.5,604270.316,604491.399999857,604286.798,630520.17,,,,
trial,html.Screen,8_0_0,2023-11-29T20:49:04.812Z,,,,2,0.0362376068089956,0.047825070846155,,0.05,true,hh,12514.129999952274,response,1.3189473926989124,1.2,-1.2,1.0770264364718942,1.2,-1.2,high,high,,ISIC_6985114.JPG,,ISIC_6093728.JPG,33,26,false,0.15000000000000002,hh,keypress(i),0,true,643034.5999999046,643034.2999999523,630502.659,630715,630520.17,642836.86,1,40,1,
sequence,flow.Sequence,8_0,2023-11-29T20:49:04.813Z,,,,,,,,,,,12514.129999952274,completion,,,,,,,high,high,,,,,,,false,,,,,true,643034.899999857,643034.2999999523,630502.659,630715,630520.17,642836.86,1,40,,
trial,html.Screen,8_1_0,2023-11-29T20:49:08.574Z,,,,2,0.0409338693593207,-0.0072462710499874,,0.05,true,hh,3959.4399999523303,response,1.086647361897092,1.15,-1.15,1.1528935990320313,1.15,-1.15,high,high,,ISIC_3608788.JPG,,ISIC_3505339.JPG,33,30,false,0.13,hh,keypress(i),0,true,646796.5,646796.2999999523,642819.745,643035,642836.86,646603.614,1,40,2,
sequence,flow.Sequence,8_1,2023-11-29T20:49:08.575Z,,,,,,,,,,,3959.4399999523303,completion,,,,,,,high,high,,,,,,,false,,,,,true,646797,646796.2999999523,642819.745,643034.899999857,642836.86,646603.614,1,40,,
trial,html.Screen,8_2_0,2023-11-29T20:49:13.093Z,,,,2,0,0.0264544974620926,,0.05,true,ll,4711.386000000057,response,-1.2249552940807693,1.0649600177519627,-1.15,-1.1723015116910682,1.0649600177519627,-1.15,low,low,,ISIC_0056991.JPG,,ISIC_0055251.JPG,33,27,false,0.1,ll,keypress(f),0,true,651315.1999998093,651315,646586.834,646797.1999998093,646603.614,651120.216,1,40,3,
sequence,flow.Sequence,8_2,2023-11-29T20:49:13.093Z,,,,,,,,,,,4711.386000000057,completion,,,,,,,low,low,,,,,,,false,,,,,true,651315.2999999523,651315,646586.834,646797.0999999046,646603.614,651120.216,1,40,,
trial,html.Screen,8_3_0,2023-11-29T20:49:22.214Z,,,,2,0.0277178575053843,-0.0395587463147856,,0.05,false,lh,9315.383999904618,response,-0.8947611078712571,1.0649600177519627,-1.15,0.8960964505004638,1.0649600177519627,-1.15,low,high,,ISIC_0010807.JPG,,ISIC_6441128.JPG,33,29,false,0.3600000000000002,ll,keypress(f),0,true,660435.7999999523,660435.5999999046,651103.474,651315.399999857,651120.216,660236.898,1,40,4,
sequence,flow.Sequence,8_3,2023-11-29T20:49:22.214Z,,,,,,,,,,,9315.383999904618,completion,,,,,,,low,high,,,,,,,false,,,,,true,660435.7999999523,660435.5999999046,651103.474,651315.399999857,651120.216,660236.898,1,40,,
trial,html.Screen,8_4_0,2023-11-29T20:49:25.781Z,,,,2,-0.007397293189458,-0.0174716772037504,,0.05,false,lh,3766.4019999522716,response,-0.7998855902596425,1.0649600177519627,-0.9835313097811627,1.1518579145663017,1.1149600177519627,-1.15,low,high,,ISIC_0056226.JPG,,ISIC_0025061.JPG,33,25,false,0.30000000000000016,hh,keypress(i),0,true,664003.5,664003.2999999523,660219.981,660435.899999857,660236.898,663803.577,1,40,5,
sequence,flow.Sequence,8_4,2023-11-29T20:49:25.782Z,,,,,,,,,,,3766.4019999522716,completion,,,,,,,low,high,,,,,,,false,,,,,true,664003.7999999523,664003.2999999523,660219.981,660435.7999999523,660236.898,663803.577,1,40,,
trial,html.Screen,8_5_0,2023-11-29T20:49:29.733Z,,,,2,-0.0116094682222121,0.0258434522530318,,0.05,false,lh,4151.422999999952,response,-0.7870237732709365,1.0649600177519627,-1.0335313097811627,0.9172955251119376,1.1149600177519627,-1.15,low,high,,ISIC_9239632.JPG,,ISIC_0057716.JPG,33,27,false,0.3200000000000002,hh,keypress(i),0,true,667955.0999999046,667955,663786.788,664003.899999857,663803.577,667753.578,1,40,6,
sequence,flow.Sequence,8_5,2023-11-29T20:49:29.733Z,,,,,,,,,,,4151.422999999952,completion,,,,,,,low,high,,,,,,,false,,,,,true,667955.2999999523,667955,663786.788,664003.899999857,663803.577,667753.578,1,40,,
trial,html.Screen,8_6_0,2023-11-29T20:49:40.557Z,,,,2,-0.0389988030702649,-0.0143212271490256,,0.05,true,hl,11025.32199985697,response,1.2075172235545184,1.0649600177519627,-1.0835313097811627,-0.9116724966267612,0.9845767198391195,-1.15,high,low,,ISIC_0064669.JPG,,ISIC_0024235.JPG,33,26,false,0.29000000000000015,hl,keypress(j),0,true,678779,678778.899999857,667736.923,667955.399999857,667753.578,678570.244,1,40,7,
sequence,flow.Sequence,8_6,2023-11-29T20:49:40.557Z,,,,,,,,,,,11025.32199985697,completion,,,,,,,high,low,,,,,,,false,,,,,true,678779.0999999046,678778.899999857,667736.923,667955.2999999523,667753.578,678570.244,1,40,,
trial,html.Screen,8_7_0,2023-11-29T20:49:48.045Z,,,,2,-0.0116094682222121,0.0258434522530318,,0.05,false,lh,7696.756000000052,response,-1.1615388892961138,1.0649600177519627,-1.0835313097811627,0.6952763480624806,0.9845767198391195,-1.0999999999999999,low,high,,ISIC_9239632.JPG,,ISIC_1280780.JPG,33,29,false,0.29000000000000015,hh,keypress(i),0,true,686267.1999998093,686267,678553.176,678779.0999999046,678570.244,686070.246,1,40,8,
sequence,flow.Sequence,8_7,2023-11-29T20:49:48.045Z,,,,,,,,,,,7696.756000000052,completion,,,,,,,low,high,,,,,,,false,,,,,true,686267.399999857,686267,678553.176,678779.0999999046,678570.244,686070.246,1,40,,
trial,html.Screen,8_8_0,2023-11-29T20:49:52.461Z,,,,2,0.0188047466661863,-0.0288346930436979,,0.05,false,lh,4612.753999999957,response,-0.948927472020595,1.0649600177519627,-1.1335313097811628,1.0660437155921598,0.9845767198391195,-1.0999999999999999,low,high,,ISIC_0014157.JPG,,ISIC_5808758.JPG,33,25,false,0.30000000000000016,hh,keypress(i),0,true,690683.1999998093,690683,686053.523,686267.5,686070.246,690486.967,1,40,9,
sequence,flow.Sequence,8_8,2023-11-29T20:49:52.461Z,,,,,,,,,,,4612.753999999957,completion,,,,,,,low,high,,,,,,,false,,,,,true,690683.1999998093,690683,686053.523,686267.5,686070.246,690486.967,1,40,,
trial,html.Screen,8_9_0,2023-11-29T20:50:02.437Z,,,,2,0.0051189696037511,-0.0396625911332438,,0.05,false,ll,10171.73299980932,response,-1.0931477426281198,1.0649600177519627,-1.1835313097811628,-1.0028306951898116,0.8306600318273202,-1.0999999999999999,low,low,,ISIC_9742891.JPG,,ISIC_0026531.JPG,33,33,false,0.1,lh,keypress(e),0,true,700658.899999857,700658.6999998093,690470.118,690683.2999999523,690486.967,700453.596,1,40,10,
sequence,flow.Sequence,8_9,2023-11-29T20:50:02.437Z,,,,,,,,,,,10171.73299980932,completion,,,,,,,low,low,,,,,,,false,,,,,true,700659,700658.6999998093,690470.118,690683.2999999523,690486.967,700453.596,1,40,,
trial,html.Screen,8_10_0,2023-11-29T20:50:17.255Z,,,,2,0.0188047466661863,-0.0288346930436979,,0.05,true,hh,15022.90399999998,response,1.1011373150916248,1.0649600177519627,-1.1835313097811628,0.7816231038128233,0.8306600318273202,-1.15,high,high,,ISIC_0014157.JPG,,ISIC_8477065.JPG,33,31,false,0.1,hh,keypress(i),0,true,715476.7999999523,715476.5,700436.595,700659,700453.596,715270.347,1,40,11,
sequence,flow.Sequence,8_10,2023-11-29T20:50:17.255Z,,,,,,,,,,,15022.90399999998,completion,,,,,,,high,high,,,,,,,false,,,,,true,715477.1999998093,715476.5,700436.595,700659,700453.596,715270.347,1,40,,
trial,html.Screen,8_11_0,2023-11-29T20:50:22.326Z,,,,2,-0.0450282431170921,0,,0.05,true,ll,5276.952999952366,response,-1.1346217981791904,0.8913802094522241,-1.1835313097811628,-1.1555132168806113,0.8306600318273202,-1.15,low,low,,ISIC_1805163.JPG,,ISIC_0032771.JPG,33,28,false,0.1,ll,keypress(f),0,true,720547.5,720547.2999999523,715253.263,715477.2999999523,715270.347,720353.817,1,40,12,
sequence,flow.Sequence,8_11,2023-11-29T20:50:22.326Z,,,,,,,,,,,5276.952999952366,completion,,,,,,,low,low,,,,,,,false,,,,,true,720547.7999999523,720547.2999999523,715253.263,715477.2999999523,715270.347,720353.817,1,40,,
trial,html.Screen,8_12_0,2023-11-29T20:50:38.123Z,,,,2,-0.0324770283903853,-0.0249968632204382,,0.05,,,15783.169999999925,timeout,0.898110633304784,0.8913802094522241,-1.0950675075299008,0.9140284419528476,0.8306600318273202,-1.15,high,high,,ISIC_7266462.JPG,,ISIC_7210119.JPG,33,52,false,0.1,,,0,true,736345.2999999523,736345.1999998093,720336.894,720547.7999999523,720353.817,736136.987,1,40,13,
sequence,flow.Sequence,8_12,2023-11-29T20:50:38.124Z,,,,,,,,,,,15991.382999809226,completion,,,,,,,high,high,,,,,,,false,,,,,true,736345.399999857,736345.1999998093,720336.894,720547.7999999523,720353.817,736136.987,1,40,,
trial,html.Screen,8_13_0,2023-11-29T20:50:45.846Z,,,,2,-0.0050679133050021,0.0009714874637896,,0.05,true,hl,7930.513000000035,response,0.706802912822355,0.8913802094522241,-1.0950675075299008,-1.168911077628813,0.8306600318273202,-1.15,high,low,,ISIC_9848743.JPG,,ISIC_7358691.JPG,33,26,false,0.21000000000000008,hl,keypress(j),0,true,744067.6999998093,744067.5,736120.554,736345.399999857,736136.987,743870.365,1,40,14,
sequence,flow.Sequence,8_13,2023-11-29T20:50:45.846Z,,,,,,,,,,,7930.513000000035,completion,,,,,,,high,low,,,,,,,false,,,,,true,744068,744067.5,736120.554,736345.399999857,736136.987,743870.365,1,40,,
trial,html.Screen,8_14_0,2023-11-29T20:50:52.341Z,,,,2,-0.0050679133050021,0.0009714874637896,,0.05,false,ll,6692.635000000009,response,-1.101346104814838,0.8913802094522241,-1.0950675075299008,-1.1225813067473052,0.8306600318273202,-1.0999999999999999,low,low,,ISIC_9848743.JPG,,ISIC_8175453.JPG,33,32,false,0.1,lh,keypress(e),0,true,750563.0999999046,750563,743853.404,744068.0999999046,743870.365,750371.337,1,40,15,
sequence,flow.Sequence,8_14,2023-11-29T20:50:52.341Z,,,,,,,,,,,6692.635000000009,completion,,,,,,,low,low,,,,,,,false,,,,,true,750563.1999998093,750563,743853.404,744068.0999999046,743870.365,750371.337,1,40,,
trial,html.Screen,8_15_0,2023-11-29T20:50:57.358Z,,,,2,-0.039728379742806,0.0228701131373768,,0.05,true,ll,5207.762999904575,response,-1.0005520482328611,0.8913802094522241,-1.0950675075299008,-1.0694936015783003,0.8306600318273202,-1.15,low,low,,ISIC_0054073.JPG,,ISIC_0059891.JPG,33,29,false,0.11,ll,keypress(f),0,true,755579.1999998093,755579.0999999046,750337.016,750563.399999857,750371.337,755370.348,1,40,16,
sequence,flow.Sequence,8_15,2023-11-29T20:50:57.358Z,,,,,,,,,,,5207.762999904575,completion,,,,,,,low,low,,,,,,,false,,,,,true,755579.2999999523,755579.0999999046,750337.016,750563.2999999523,750371.337,755370.348,1,40,,
trial,html.Screen,8_16_0,2023-11-29T20:51:02.070Z,,,,2,-0.0324770283903853,-0.0249968632204382,,0.05,false,lh,4920.652000000002,response,-0.805240166523161,0.8913802094522241,-0.9850228249055808,0.705072989314616,0.8306600318273202,-1.15,low,high,,ISIC_7266462.JPG,,ISIC_9161341.JPG,33,27,false,0.18000000000000005,ll,keypress(f),0,true,760291.0999999046,760291,755353.592,755579.399999857,755370.348,760087.038,1,40,17,
sequence,flow.Sequence,8_16,2023-11-29T20:51:02.070Z,,,,,,,,,,,4920.652000000002,completion,,,,,,,low,high,,,,,,,false,,,,,true,760291.2999999523,760291,755353.592,755579.399999857,755370.348,760087.038,1,40,,
trial,html.Screen,8_17_0,2023-11-29T20:51:10.623Z,,,,2,-0.0069555338059566,0.0310100918136373,,0.05,false,ll,8757.06199990469,response,-0.9147928199303512,0.8913802094522241,-0.9850228249055808,-1.1862713348854166,0.8806600318273202,-1.15,low,low,,ISIC_0011177.JPG,,ISIC_0015136.JPG,33,29,false,0.1,hh,keypress(i),0,true,768844.2999999523,768844.0999999046,760070.26,760291.399999857,760087.038,768637.04,1,40,18,
sequence,flow.Sequence,8_17,2023-11-29T20:51:10.623Z,,,,,,,,,,,8757.06199990469,completion,,,,,,,low,low,,,,,,,false,,,,,true,768844.5999999046,768844.0999999046,760070.26,760291.2999999523,760087.038,768637.04,1,40,,
trial,html.Screen,8_18_0,2023-11-29T20:51:15.566Z,,,,2,0.0051189696037511,-0.0396625911332438,,0.05,false,hl,5150.659999809228,response,0.7083588209645494,0.8913802094522241,-1.0350228249055808,-1.1496804492673935,0.8806600318273202,-1.15,high,low,,ISIC_9742891.JPG,,ISIC_0047004.JPG,33,26,false,0.21000000000000008,hh,keypress(i),0,true,773788,773787.6999998093,768620.227,768844.7999999523,768637.04,773587.071,1,40,19,
sequence,flow.Sequence,8_18,2023-11-29T20:51:15.567Z,,,,,,,,,,,5150.659999809228,completion,,,,,,,high,low,,,,,,,false,,,,,true,773788.2999999523,773787.6999998093,768620.227,768844.6999998093,768637.04,773587.071,1,40,,
trial,html.Screen,8_19_0,2023-11-29T20:51:21.374Z,,,,2,0,0.0264544974620926,,0.05,false,hh,6008.72899995232,response,0.9125490178245472,0.841380209452224,-1.0350228249055808,0.8381837623442241,0.8806600318273202,-1.15,high,high,,ISIC_0056991.JPG,,ISIC_4699989.JPG,33,43,false,0.1,hl,keypress(j),0,true,779595.899999857,779595.7999999523,773570.392,773788.5,773587.071,779405.103,1,40,20,
sequence,flow.Sequence,8_19,2023-11-29T20:51:21.375Z,,,,,,,,,,,6008.72899995232,completion,,,,,,,high,high,,,,,,,false,,,,,true,779596.0999999046,779595.7999999523,773570.392,773788.399999857,773587.071,779405.103,1,40,,
trial,html.Screen,8_20_0,2023-11-29T20:51:34.582Z,,,,2,-0.0217698886732706,0.0410870915161425,,0.05,false,hh,13398.696999952313,response,0.8849616197102024,0.841380209452224,-1.0350228249055808,0.8708774591990956,0.9306600318273203,-1.15,high,high,,ISIC_0072173.JPG,,ISIC_2872107.JPG,33,40,false,0.1,hl,keypress(j),0,true,792804.0999999046,792803.7999999523,779370.35,779596.1999998093,779405.103,792603.736,1,40,21,
sequence,flow.Sequence,8_20,2023-11-29T20:51:34.583Z,,,,,,,,,,,13398.696999952313,completion,,,,,,,high,high,,,,,,,false,,,,,true,792804.399999857,792803.7999999523,779370.35,779596.1999998093,779405.103,792603.736,1,40,,
trial,html.Screen,8_21_0,2023-11-29T20:51:47.406Z,,,,2,0.0348234368746005,-0.0236866303880924,,0.05,false,lh,13024.063999952283,response,-1.0115965332688306,0.8487553187673748,-1.0350228249055808,0.8282633603842442,0.9806600318273203,-1.15,low,high,,ISIC_0011099.JPG,,ISIC_1069587.JPG,33,26,false,0.2500000000000001,ll,keypress(f),0,true,805628,805627.7999999523,792586.563,792804.5,792603.736,805420.443,1,40,22,
sequence,flow.Sequence,8_21,2023-11-29T20:51:47.407Z,,,,,,,,,,,13024.063999952283,completion,,,,,,,low,high,,,,,,,false,,,,,true,805628.1999998093,805627.7999999523,792586.563,792804.399999857,792603.736,805420.443,1,40,,
trial,html.Screen,8_22_0,2023-11-29T20:51:53.893Z,,,,2,-0.0389988030702649,-0.0143212271490256,,0.05,false,hh,6694.256999809295,response,0.8671772321064484,0.8487553187673748,-1.0350228249055808,1.0212529379514277,1.0306600318273202,-1.15,high,high,,ISIC_0064669.JPG,,ISIC_0004352.JPG,33,33,false,0.1,lh,keypress(e),0,true,812114.7999999523,812114.6999998093,805403.491,805628.399999857,805420.443,811920.435,1,40,23,
sequence,flow.Sequence,8_22,2023-11-29T20:51:53.894Z,,,,,,,,,,,6694.256999809295,completion,,,,,,,high,high,,,,,,,false,,,,,true,812114.899999857,812114.6999998093,805403.491,805628.399999857,805420.443,811920.435,1,40,,
trial,html.Screen,8_23_0,2023-11-29T20:52:00.150Z,,,,2,-0.0057914759495055,-0.0074667911845194,,0.05,true,lh,6450.964999856893,response,-1.0022829373011404,0.8987553187673748,-1.0350228249055808,0.8311726972863814,1.0306600318273202,-1.15,low,high,,ISIC_0058723.JPG,,ISIC_0033287.JPG,33,26,false,0.2600000000000001,lh,keypress(e),0,true,818371.5,818371.399999857,811903.585,812114.899999857,811920.435,818170.44,1,40,24,
sequence,flow.Sequence,8_23,2023-11-29T20:52:00.150Z,,,,,,,,,,,6450.964999856893,completion,,,,,,,low,high,,,,,,,false,,,,,true,818371.7999999523,818371.399999857,811903.585,812114.899999857,811920.435,818170.44,1,40,,
trial,html.Screen,8_24_0,2023-11-29T20:52:04.958Z,,,,2,-0.0069555338059566,0.0310100918136373,,0.05,true,ll,5008.459999857005,response,-0.958609763811768,0.8987553187673748,-0.9850228249055808,-1.0650939066726144,0.8762128176189046,-1.15,low,low,,ISIC_0011177.JPG,,ISIC_0070163.JPG,33,29,false,0.1,ll,keypress(f),0,true,823179.0999999046,823178.899999857,818153.753,818371.899999857,818170.44,822970.433,1,40,25,
sequence,flow.Sequence,8_24,2023-11-29T20:52:04.958Z,,,,,,,,,,,5008.459999857005,completion,,,,,,,low,low,,,,,,,false,,,,,true,823179.1999998093,823178.899999857,818153.753,818371.7999999523,818170.44,822970.433,1,40,,
trial,html.Screen,8_25_0,2023-11-29T20:52:11.734Z,,,,2,0.0134764727102299,0.0033499036460912,,0.05,true,hl,6984.866999952355,response,0.8534691366511764,0.8987553187673748,-0.9850228249055808,-1.03975580494588,0.8762128176189046,-1.15,high,low,,ISIC_0009998.JPG,,ISIC_0056788.JPG,33,25,false,0.21000000000000008,hl,keypress(j),0,true,829955.5999999046,829955.2999999523,822953.862,823179.2999999523,822970.433,829753.767,1,40,26,
sequence,flow.Sequence,8_25,2023-11-29T20:52:11.735Z,,,,,,,,,,,6984.866999952355,completion,,,,,,,high,low,,,,,,,false,,,,,true,829955.899999857,829955.2999999523,822953.862,823179.1999998093,822970.433,829753.767,1,40,,
trial,html.Screen,8_26_0,2023-11-29T20:52:23.807Z,,,,2,0.013431314305098,-0.0140597582944232,,0.05,true,ll,12274.032999952324,response,-1.0088070132449485,0.8987553187673748,-0.9850228249055808,-1.0292526683018866,0.8762128176189046,-1.0999999999999999,low,low,,ISIC_0069617.JPG,,ISIC_0059314.JPG,33,33,false,0.1,ll,keypress(f),0,true,842028,842027.7999999523,829736.959,829956,829753.767,841820.472,1,40,27,
sequence,flow.Sequence,8_26,2023-11-29T20:52:23.807Z,,,,,,,,,,,12274.032999952324,completion,,,,,,,low,low,,,,,,,false,,,,,true,842028.2999999523,842027.7999999523,829736.959,829955.899999857,829753.767,841820.472,1,40,,
trial,html.Screen,8_27_0,2023-11-29T20:52:27.007Z,,,,2,0.0245376145053177,-0.0436993426328401,,0.05,false,hl,3407.927999856998,response,0.7401156491866404,0.8987553187673748,-0.9690298407734175,-0.94165594025755,0.8762128176189046,-1.0999999999999999,high,low,,ISIC_0056444.JPG,,ISIC_0072429.JPG,33,25,false,0.20000000000000007,hh,keypress(i),0,true,845228.5,845228.399999857,841803.553,842028.399999857,841820.472,845037.171,1,40,28,
sequence,flow.Sequence,8_27,2023-11-29T20:52:27.008Z,,,,,,,,,,,3407.927999856998,completion,,,,,,,high,low,,,,,,,false,,,,,true,845228.899999857,845228.399999857,841803.553,842028.399999857,841820.472,845037.171,1,40,,
trial,html.Screen,8_28_0,2023-11-29T20:52:33.159Z,,,,2,0.0134764727102299,0.0033499036460912,,0.05,true,lh,6342.628999952343,response,-0.9388660854518424,0.8487553187673748,-0.9690298407734175,0.79533948698576,0.8762128176189046,-1.15,low,high,,ISIC_0009998.JPG,,ISIC_9291926.JPG,33,31,false,0.19000000000000006,lh,keypress(e),0,true,851380.0999999046,851379.7999999523,845003.729,845229.0999999046,845037.171,851187.154,1,40,29,
sequence,flow.Sequence,8_28,2023-11-29T20:52:33.159Z,,,,,,,,,,,6342.628999952343,completion,,,,,,,low,high,,,,,,,false,,,,,true,851380.399999857,851379.7999999523,845003.729,845229.0999999046,845037.171,851187.154,1,40,,
trial,html.Screen,8_29_0,2023-11-29T20:52:39.119Z,,,,2,-0.007397293189458,-0.0174716772037504,,0.05,false,hl,6152.745999856968,response,0.7016683761932542,0.8487553187673748,-0.9690298407734175,-1.043794098855853,0.8762128176189046,-1.15,high,low,,ISIC_0056226.JPG,,ISIC_0033117.JPG,33,25,false,0.20000000000000007,hh,keypress(i),0,true,857340.0999999046,857339.899999857,851170.271,851380.5999999046,851187.154,857137.137,1,40,30,
sequence,flow.Sequence,8_29,2023-11-29T20:52:39.119Z,,,,,,,,,,,6152.745999856968,completion,,,,,,,high,low,,,,,,,false,,,,,true,857340.5,857339.899999857,851170.271,851380.5,851187.154,857137.137,1,40,,
trial,html.Screen,8_30_0,2023-11-29T20:52:48.918Z,,,,2,-0.0363437082783146,-0.0333332186217051,,0.05,false,ll,10001.962999904645,response,-0.9147928199303512,0.8487553187673748,-0.9690298407734175,-1.1862713348854166,0.8762128176189046,-1.15,low,low,,ISIC_3314555.JPG,,ISIC_0015136.JPG,33,29,false,0.1,hh,keypress(i),0,true,867139.1999998093,867139.0999999046,857120.475,857340.6999998093,857137.137,866937.174,1,40,31,
sequence,flow.Sequence,8_30,2023-11-29T20:52:48.918Z,,,,,,,,,,,10001.962999904645,completion,,,,,,,low,low,,,,,,,false,,,,,true,867139.399999857,867139.0999999046,857120.475,857340.5999999046,857137.137,866937.174,1,40,,
trial,html.Screen,8_31_0,2023-11-29T20:52:51.191Z,,,,2,0.0362376068089956,0.047825070846155,,0.05,false,hl,2474.625999952317,response,0.6762618798182235,0.8487553187673748,-1.0190298407734175,-1.067875773627714,0.8762128176189046,-1.15,high,low,,ISIC_6985114.JPG,,ISIC_0000135.JPG,33,25,false,0.20000000000000007,hh,keypress(i),0,true,869411.899999857,869411.7999999523,866920.154,867139.5999999046,866937.174,869203.874,1,40,32,
sequence,flow.Sequence,8_31,2023-11-29T20:52:51.191Z,,,,,,,,,,,2474.625999952317,completion,,,,,,,high,low,,,,,,,false,,,,,true,869412.2999999523,869411.7999999523,866920.154,867139.5999999046,866937.174,869203.874,1,40,,
trial,html.Screen,8_32_0,2023-11-29T20:52:56.438Z,,,,2,0.0277178575053843,-0.0395587463147856,,0.05,true,hl,5455.425999952364,response,0.7836356408583546,0.6389651280057388,-1.0190298407734175,-1.1197925594706428,0.8762128176189046,-1.15,high,low,,ISIC_0010807.JPG,,ISIC_0024961.JPG,33,25,false,0.18000000000000005,hl,keypress(j),0,true,874659.5,874659.2999999523,869187.285,869412.399999857,869203.874,874453.857,1,40,33,
sequence,flow.Sequence,8_32,2023-11-29T20:52:56.439Z,,,,,,,,,,,5455.425999952364,completion,,,,,,,high,low,,,,,,,false,,,,,true,874659.5999999046,874659.2999999523,869187.285,869412.399999857,869203.874,874453.857,1,40,,
trial,html.Screen,8_33_0,2023-11-29T20:53:00.302Z,,,,2,0.0348234368746005,-0.0236866303880924,,0.05,true,ll,4069.14300000004,response,-0.9787884514439864,0.6389651280057388,-1.0190298407734175,-1.139528725910855,0.8762128176189046,-1.15,low,low,,ISIC_0011099.JPG,,ISIC_0032726.JPG,33,26,false,0.1,ll,keypress(f),0,true,878523.1999998093,878523,874437.239,874659.7999999523,874453.857,878320.477,1,40,34,
sequence,flow.Sequence,8_33,2023-11-29T20:53:00.302Z,,,,,,,,,,,4069.14300000004,completion,,,,,,,low,low,,,,,,,false,,,,,true,878523.399999857,878523,874437.239,874659.7999999523,874453.857,878320.477,1,40,,
trial,html.Screen,8_34_0,2023-11-29T20:53:03.167Z,,,,2,0.0348234368746005,-0.0236866303880924,,0.05,false,hl,3067.22299980931,response,0.6276303452161716,0.6389651280057388,-1.0190298407734175,-0.9740596249572724,0.8762128176189046,-1.0091585886774206,high,low,,ISIC_0011099.JPG,,ISIC_9053910.JPG,33,27,false,0.15000000000000002,ll,keypress(f),0,true,881387.899999857,881387.6999998093,878303.908,878523.399999857,878320.477,881187.183,1,40,35,
sequence,flow.Sequence,8_34,2023-11-29T20:53:03.167Z,,,,,,,,,,,3067.22299980931,completion,,,,,,,high,low,,,,,,,false,,,,,true,881388.1999998093,881387.6999998093,878303.908,878523.399999857,878320.477,881187.183,1,40,,
trial,html.Screen,8_35_0,2023-11-29T20:53:06.943Z,,,,2,0.0362376068089956,0.047825070846155,,0.05,false,hh,3976.4169999046717,response,0.7334084431869967,0.6889651280057388,-1.0190298407734175,0.8171517936559567,0.8762128176189046,-1.0091585886774206,high,high,,ISIC_6985114.JPG,,ISIC_0594695.JPG,33,57,false,0.1,hl,keypress(j),0,true,885163.6999998093,885163.5999999046,881170.66,881388.2999999523,881187.183,884970.781,1,40,36,
sequence,flow.Sequence,8_35,2023-11-29T20:53:06.943Z,,,,,,,,,,,3976.4169999046717,completion,,,,,,,high,high,,,,,,,false,,,,,true,885164,885163.5999999046,881170.66,881388.2999999523,881187.183,884970.781,1,40,,
trial,html.Screen,8_36_0,2023-11-29T20:53:16.398Z,,,,2,0.0277178575053843,-0.0395587463147856,,0.05,true,hh,9648.318999904674,response,0.6110237882172094,0.6889651280057388,-1.0190298407734175,0.8870209076253678,0.9262128176189046,-1.0091585886774206,high,high,,ISIC_0010807.JPG,,ISIC_0420777.JPG,33,48,false,0.1,hh,keypress(i),0,true,894619.2999999523,894619.0999999046,884953.967,885164.0999999046,884970.781,894420.605,1,40,37,
sequence,flow.Sequence,8_36,2023-11-29T20:53:16.398Z,,,,,,,,,,,9648.318999904674,completion,,,,,,,high,high,,,,,,,false,,,,,true,894619.399999857,894619.0999999046,884953.967,885164.0999999046,884970.781,894420.605,1,40,,
trial,html.Screen,8_37_0,2023-11-29T20:53:18.535Z,,,,2,0.0409338693593207,-0.0072462710499874,,0.05,true,hh,2335.2949998569675,response,0.6526385635955523,0.6990223479212885,-1.0190298407734175,0.9057325824285034,0.9262128176189046,-1.0091585886774206,high,high,,ISIC_3608788.JPG,,ISIC_0056689.JPG,33,49,false,0.1,hh,keypress(i),0,true,896756.0999999046,896755.899999857,894403.746,894619.399999857,894420.605,896553.874,1,40,38,
sequence,flow.Sequence,8_37,2023-11-29T20:53:18.535Z,,,,,,,,,,,2335.2949998569675,completion,,,,,,,high,high,,,,,,,false,,,,,true,896756.5,896755.899999857,894403.746,894619.399999857,894420.605,896553.874,1,40,,
trial,html.Screen,8_38_0,2023-11-29T20:53:24.942Z,,,,2,0,0.0264544974620926,,0.05,false,lh,6609.1260000000475,response,-1.0645919307156395,0.6990223479212885,-1.0190298407734175,0.7087706688259032,0.7291855730120278,-1.0091585886774206,low,high,,ISIC_0056991.JPG,,ISIC_0031575.JPG,33,27,false,0.17000000000000004,ll,keypress(f),0,true,903163.0999999046,903163,896537.256,896756.5999999046,896553.874,902971.274,1,40,39,
sequence,flow.Sequence,8_38,2023-11-29T20:53:24.942Z,,,,,,,,,,,6609.1260000000475,completion,,,,,,,low,high,,,,,,,false,,,,,true,903163.1999998093,903163,896537.256,896756.5999999046,896553.874,902971.274,1,40,,
trial,html.Screen,8_39_0,2023-11-29T20:53:28.815Z,,,,2,-0.007397293189458,-0.0174716772037504,,0.05,false,hl,4064.625999856973,response,0.6244038963994437,0.6990223479212885,-0.9690298407734175,-0.8987343013179191,0.7791855730120278,-1.0091585886774206,high,low,,ISIC_0056226.JPG,,ISIC_0472513.JPG,33,26,false,0.15000000000000002,lh,keypress(e),0,true,907036.0999999046,907035.899999857,902936.996,903163.1999998093,902971.274,906837.261,1,40,40,
sequence,flow.Sequence,8_39,2023-11-29T20:53:28.815Z,,,,,,,,,,,4064.625999856973,completion,,,,,,,high,low,,,,,,,false,,,,,true,907036.5,907035.899999857,902936.996,903163.1999998093,902971.274,906837.261,1,40,,
stair_loop,flow.Loop,8,2023-11-29T20:53:28.816Z,,,,,,,,,,,276515.7299998569,completion,,,,,,,,,,,,,,,false,,,,,true,907036.5999999046,907035.899999857,630502.659,630715,630520.17,906837.261,1,40,,
exp_instructions,html.Screen,9,2023-11-29T20:53:40.150Z,,,,,,,,,,,11533.338999904576,response,,,,,,,,,,,,,,,,,continue,keypress(Space),,,918370.899999857,918370.5999999046,906820.486,907036.7999999523,906837.261,918170.581,,,,
trial,html.Screen,10_0_0,2023-11-29T20:53:48.048Z,,,,1,0.0134764727102299,0.0033499036460912,,0.05,false,lh,8097.61899980926,response,-0.8390315482769187,0.7909790699842952,-1.0046273852196745,0.6904094409216154,0.8923995359999003,-1.1027475766032258,low,high,,ISIC_0009998.JPG,9,ISIC_5481211.JPG,33,28,false,0.21000000000000008,hl,keypress(j),0,false,926268.5,926268.1999998093,918153.477,918371,918170.581,926070.646,5,600,1,
break,html.Screen,10_0_1,2023-11-29T20:53:48.049Z,,,,,,,,,,,NaN,,,,,,,,low,high,,,,,,,false,,,,,false,926269.7999999523,926269.5,,926268.7999999523,,926070.646,5,600,,
break_continue,html.Screen,10_0_2,2023-11-29T20:53:48.049Z,,,,,,,,,,,NaN,,,,,,,,low,high,,,,,,,false,,,,,false,926270.1999998093,926270,,926269.899999857,,926070.646,5,600,,
sequence,flow.Sequence,10_0,2023-11-29T20:53:48.049Z,,,,,,,,,,,8099.418999999994,completion,,,,,,,low,high,,,,,,,false,,,,,false,926270.2999999523,926270,918153.477,918371,918170.581,926070.646,5,600,,
trial,html.Screen,10_1_0,2023-11-29T20:53:53.975Z,,,,1,-0.0456515796420274,0.0273567130070961,,0.05,false,hl,6124.85400000005,response,0.7133243033950115,0.7909790699842952,-1.0046273852196745,-0.9575090175925351,0.8923995359999003,-1.1027475766032258,high,low,,ISIC_0068610.JPG,9,ISIC_1369273.JPG,33,25,false,0.17000000000000004,ll,keypress(f),0,false,932195.899999857,932195.5,926053.733,926270.2999999523,926070.646,932004.522,5,600,2,
break,html.Screen,10_1_1,2023-11-29T20:53:53.976Z,,,,,,,,,,,NaN,,,,,,,,high,low,,,,,,,false,,,,,false,932196.7999999523,932196.5999999046,,932196.0999999046,,932004.522,5,600,,
break_continue,html.Screen,10_1_2,2023-11-29T20:53:53.977Z,,,,,,,,,,,NaN,,,,,,,,high,low,,,,,,,false,,,,,false,932197.399999857,932197.1999998093,,932197,,932004.522,5,600,,
sequence,flow.Sequence,10_1,2023-11-29T20:53:53.977Z,,,,,,,,,,,6126.553999809315,completion,,,,,,,high,low,,,,,,,false,,,,,false,932197.5,932197.1999998093,926053.733,926270.2999999523,926070.646,932004.522,5,600,,
trial,html.Screen,10_2_0,2023-11-29T20:53:56.863Z,,,,1,-0.0217698886732706,0.0410870915161425,,0.05,true,hh,3078.478000000003,response,0.7488189907128915,0.7909790699842952,-1.0046273852196745,0.9002829757503055,0.8923995359999003,-1.1027475766032258,high,high,,ISIC_0072173.JPG,10,ISIC_8586909.JPG,33,52,false,0.1,hh,keypress(i),0,false,935083.0999999046,935083,931970.476,932197.6999998093,932004.522,934887.415,5,600,3,
break,html.Screen,10_2_1,2023-11-29T20:53:56.863Z,,,,,,,,,,,NaN,,,,,,,,high,high,,,,,,,false,,,,,false,935083.5,935083.399999857,,935083.1999998093,,934887.415,5,600,,
break_continue,html.Screen,10_2_2,2023-11-29T20:53:56.863Z,,,,,,,,,,,NaN,,,,,,,,high,high,,,,,,,false,,,,,false,935083.5999999046,935083.5999999046,,935083.5,,934887.415,5,600,,
sequence,flow.Sequence,10_2,2023-11-29T20:53:56.863Z,,,,,,,,,,,3079.0779999046354,completion,,,,,,,high,high,,,,,,,false,,,,,false,935083.6999998093,935083.5999999046,931970.476,932197.6999998093,932004.522,934887.415,5,600,,
trial,html.Screen,10_3_0,2023-11-29T20:54:01.543Z,,,,1,0.0134764727102299,0.0033499036460912,,0.05,true,hl,4875.684999904595,response,0.8534691366511764,0.7909790699842952,-1.0046273852196745,-1.03975580494588,0.8923995359999003,-1.1027475766032258,high,low,,ISIC_0009998.JPG,9,ISIC_0056788.JPG,33,25,false,0.17000000000000004,hl,keypress(j),0,false,939763.0999999046,939763.0999999046,934870.7,935083.6999998093,934887.415,939571.919,5,600,4,
break,html.Screen,10_3_1,2023-11-29T20:54:01.543Z,,,,,,,,,,,NaN,,,,,,,,high,low,,,,,,,false,,,,,false,939763.5,939763.399999857,,939763.2999999523,,939571.919,5,600,,
break_continue,html.Screen,10_3_2,2023-11-29T20:54:01.543Z,,,,,,,,,,,NaN,,,,,,,,high,low,,,,,,,false,,,,,false,939763.5999999046,939763.5999999046,,939763.5,,939571.919,5,600,,
sequence,flow.Sequence,10_3,2023-11-29T20:54:01.543Z,,,,,,,,,,,4876.184999904595,completion,,,,,,,high,low,,,,,,,false,,,,,false,939763.6999998093,939763.5999999046,934870.7,935083.6999998093,934887.415,939571.919,5,600,,
trial,html.Screen,10_4_0,2023-11-29T20:54:06.055Z,,,,1,-0.0363437082783146,-0.0333332186217051,,0.05,true,hl,4703.581000000006,response,0.8534691366511764,0.7909790699842952,-1.0046273852196745,-1.03975580494588,0.8923995359999003,-1.1027475766032258,high,low,,ISIC_3314555.JPG,10,ISIC_0056788.JPG,33,25,false,0.17000000000000004,hl,keypress(j),0,false,944275.5999999046,944275.5,939537.109,939763.6999998093,939571.919,944070.603,5,600,5,
break,html.Screen,10_4_1,2023-11-29T20:54:06.056Z,,,,,,,,,,,NaN,,,,,,,,high,low,,,,,,,false,,,,,false,944276.1999998093,944276,,944275.7999999523,,944070.603,5,600,,
break_continue,html.Screen,10_4_2,2023-11-29T20:54:06.056Z,,,,,,,,,,,NaN,,,,,,,,high,low,,,,,,,false,,,,,false,944276.5,944276.399999857,,944276.2999999523,,944070.603,5,600,,
sequence,flow.Sequence,10_4,2023-11-29T20:54:06.056Z,,,,,,,,,,,4704.480999856954,completion,,,,,,,high,low,,,,,,,false,,,,,false,944276.5999999046,944276.399999857,939537.109,939763.6999998093,939571.919,944070.603,5,600,,
trial,html.Screen,10_5_0,2023-11-29T20:54:12.791Z,,,,1,0.0134764727102299,0.0033499036460912,,0.05,false,hh,6940.99699990463,response,0.8814695482989191,0.7909790699842952,-1.0046273852196745,0.8440767077088777,0.8923995359999003,-1.1027475766032258,high,high,,ISIC_0009998.JPG,9,ISIC_6392461.JPG,33,52,false,0.1,ll,keypress(f),0,false,951011.7999999523,951011.5999999046,944053.882,944276.7999999523,944070.603,950803.998,5,600,6,
break,html.Screen,10_5_1,2023-11-29T20:54:12.792Z,,,,,,,,,,,NaN,,,,,,,,high,high,,,,,,,false,,,,,false,951012.6999998093,951012.5,,951012.0999999046,,950803.998,5,600,,
break_continue,html.Screen,10_5_2,2023-11-29T20:54:12.793Z,,,,,,,,,,,NaN,,,,,,,,high,high,,,,,,,false,,,,,false,951013.0999999046,951013,,951012.7999999523,,950803.998,5,600,,
sequence,flow.Sequence,10_5,2023-11-29T20:54:12.793Z,,,,,,,,,,,6942.396999999997,completion,,,,,,,high,high,,,,,,,false,,,,,false,951013.2999999523,951013,944053.882,944276.6999998093,944070.603,950803.998,5,600,,
trial,html.Screen,10_6_0,2023-11-29T20:54:16.303Z,,,,1,0.0134764727102299,0.0033499036460912,,0.05,false,hl,3719.101999904611,response,0.7016683761932542,0.7909790699842952,-1.0046273852196745,-1.043794098855853,0.8923995359999003,-1.1027475766032258,high,low,,ISIC_0009998.JPG,8,ISIC_0033117.JPG,33,25,false,0.17000000000000004,hh,keypress(i),0,false,954523.1999998093,954523.0999999046,950787.436,951013.5,950803.998,954320.681,5,600,7,
break,html.Screen,10_6_1,2023-11-29T20:54:16.303Z,,,,,,,,,,,NaN,,,,,,,,high,low,,,,,,,false,,,,,false,954523.6999998093,954523.5999999046,,954523.399999857,,954320.681,5,600,,
break_continue,html.Screen,10_6_2,2023-11-29T20:54:16.303Z,,,,,,,,,,,NaN,,,,,,,,high,low,,,,,,,false,,,,,false,954523.899999857,954523.7999999523,,954523.7999999523,,954320.681,5,600,,
sequence,flow.Sequence,10_6,2023-11-29T20:54:16.303Z,,,,,,,,,,,3719.801999952295,completion,,,,,,,high,low,,,,,,,false,,,,,false,954524,954523.7999999523,950787.436,951013.399999857,950803.998,954320.681,5,600,,
trial,html.Screen,10_7_0,2023-11-29T20:54:26.528Z,,,,1,-0.0324770283903853,-0.0249968632204382,,0.05,false,hh,10427.41899990465,response,0.7067626314728708,0.7909790699842952,-1.0046273852196745,0.8796516667961567,0.8923995359999003,-1.1027475766032258,high,high,,ISIC_7266462.JPG,9,ISIC_4808298.JPG,33,52,false,0.1,ll,keypress(f),0,false,964748.5,964748.0999999046,954304.075,954524.0999999046,954320.681,964553.983,5,600,8,
break,html.Screen,10_7_1,2023-11-29T20:54:26.529Z,,,,,,,,,,,NaN,,,,,,,,high,high,,,,,,,false,,,,,false,964749.5999999046,964749.2999999523,,964748.7999999523,,964553.983,5,600,,
break_continue,html.Screen,10_7_2,2023-11-29T20:54:26.530Z,,,,,,,,,,,NaN,,,,,,,,high,high,,,,,,,false,,,,,false,964750.399999857,964750.0999999046,,964749.7999999523,,964553.983,5,600,,
sequence,flow.Sequence,10_7,2023-11-29T20:54:26.530Z,,,,,,,,,,,10429.41899990465,completion,,,,,,,high,high,,,,,,,false,,,,,false,964750.6999998093,964750.0999999046,954304.075,954524.0999999046,954320.681,964553.983,5,600,,
trial,html.Screen,10_8_0,2023-11-29T20:54:30.511Z,,,,1,0.0097091270150747,-0.0417921315885292,,0.05,false,hl,4177.816999952309,response,0.6866025217140785,0.7909790699842952,-1.0046273852196745,-0.9978764930756644,0.8923995359999003,-1.1027475766032258,high,low,,ISIC_3967213.JPG,9,ISIC_0009100.JPG,33,25,false,0.17000000000000004,hh,keypress(i),0,false,968732,968731.7999999523,964537.322,964750.899999857,964553.983,968537.297,5,600,9,
break,html.Screen,10_8_1,2023-11-29T20:54:30.512Z,,,,,,,,,,,NaN,,,,,,,,high,low,,,,,,,false,,,,,false,968732.899999857,968732.5999999046,,968732.2999999523,,968537.297,5,600,,
break_continue,html.Screen,10_8_2,2023-11-29T20:54:30.513Z,,,,,,,,,,,NaN,,,,,,,,high,low,,,,,,,false,,,,,false,968733.399999857,968733.1999998093,,968733.0999999046,,968537.297,5,600,,
sequence,flow.Sequence,10_8,2023-11-29T20:54:30.513Z,,,,,,,,,,,4179.216999809258,completion,,,,,,,high,low,,,,,,,false,,,,,false,968733.6999998093,968733.1999998093,964537.322,964750.899999857,964553.983,968537.297,5,600,,
trial,html.Screen,10_9_0,2023-11-29T20:54:33.248Z,,,,1,-0.039728379742806,0.0228701131373768,,0.05,false,hl,2930.502999952296,response,0.7745647318095624,0.7909790699842952,-1.0046273852196745,-1.1610302064435811,0.8923995359999003,-1.1027475766032258,high,low,,ISIC_0054073.JPG,9,ISIC_0033004.JPG,33,25,false,0.17000000000000004,hh,keypress(i),0,false,971468.0999999046,971467.7999999523,968520.53,968733.7999999523,968537.297,971270.857,5,600,10,
break,html.Screen,10_9_1,2023-11-29T20:54:33.249Z,,,,,,,,,,,NaN,,,,,,,,high,low,,,,,,,false,,,,,false,971469.0999999046,971468.899999857,,971468.399999857,,971270.857,5,600,,
break_continue,html.Screen,10_9_2,2023-11-29T20:54:33.249Z,,,,,,,,,,,NaN,,,,,,,,high,low,,,,,,,false,,,,,false,971469.6999998093,971469.5,,971469.2999999523,,971270.857,5,600,,
sequence,flow.Sequence,10_9,2023-11-29T20:54:33.249Z,,,,,,,,,,,2932.2029999999795,completion,,,,,,,high,low,,,,,,,false,,,,,false,971469.899999857,971469.5,968520.53,968733.6999998093,968537.297,971270.857,5,600,,
trial,html.Screen,10_10_0,2023-11-29T20:54:39.728Z,,,,1,-0.0217698886732706,0.0410870915161425,,0.05,false,hh,6676.942999952356,response,0.7483736986316007,0.7909790699842952,-1.0046273852196745,0.9623853708853938,0.8923995359999003,-1.1027475766032258,high,high,,ISIC_0072173.JPG,9,ISIC_2844085.JPG,33,52,false,0.1,hl,keypress(j),0,false,977948,977947.7999999523,971253.872,971470.1999998093,971270.857,977754.032,5,600,11,
break,html.Screen,10_10_1,2023-11-29T20:54:39.728Z,,,,,,,,,,,NaN,,,,,,,,high,high,,,,,,,false,,,,,false,977948.899999857,977948.6999998093,,977948.399999857,,977754.032,5,600,,
break_continue,html.Screen,10_10_2,2023-11-29T20:54:39.729Z,,,,,,,,,,,NaN,,,,,,,,high,high,,,,,,,false,,,,,false,977949.399999857,977949.1999998093,,977949.0999999046,,977754.032,5,600,,
sequence,flow.Sequence,10_10,2023-11-29T20:54:39.729Z,,,,,,,,,,,6678.342999809305,completion,,,,,,,high,high,,,,,,,false,,,,,false,977949.5999999046,977949.1999998093,971253.872,971470,971270.857,977754.032,5,600,,
trial,html.Screen,10_11_0,2023-11-29T20:54:48.119Z,,,,1,0.0245376145053177,-0.0436993426328401,,0.05,true,hh,8585.76799995231,response,0.8859748279606405,0.7909790699842952,-1.0046273852196745,0.8351560316519383,0.8923995359999003,-1.1027475766032258,high,high,,ISIC_0056444.JPG,9,ISIC_5795486.JPG,33,52,false,0.1,hh,keypress(i),0,false,986340.0999999046,986339.7999999523,977737.395,977949.7999999523,977754.032,986137.35,5,600,12,
break,html.Screen,10_11_1,2023-11-29T20:54:48.120Z,,,,,,,,,,,NaN,,,,,,,,high,high,,,,,,,false,,,,,false,986341,986340.7999999523,,986340.2999999523,,986137.35,5,600,,
break_continue,html.Screen,10_11_2,2023-11-29T20:54:48.121Z,,,,,,,,,,,NaN,,,,,,,,high,high,,,,,,,false,,,,,false,986341.5999999046,986341.399999857,,986341.1999998093,,986137.35,5,600,,
sequence,flow.Sequence,10_11,2023-11-29T20:54:48.121Z,,,,,,,,,,,8587.367999856942,completion,,,,,,,high,high,,,,,,,false,,,,,false,986341.7999999523,986341.399999857,977737.395,977949.7999999523,977754.032,986137.35,5,600,,
trial,html.Screen,10_12_0,2023-11-29T20:54:52.080Z,,,,1,0.000047919190197942736,0.0462652940855003,,0.05,false,lh,4163.150000000023,response,-0.887838744955182,0.7909790699842952,-1.0046273852196745,0.7545096650863988,0.8923995359999003,-1.1027475766032258,low,high,,ISIC_0011507.JPG,9,ISIC_1488727.JPG,33,28,false,0.21000000000000008,ll,keypress(f),0,false,990300.7999999523,990300.5,986120.692,986341.899999857,986137.35,990104.021,5,600,13,
break,html.Screen,10_12_1,2023-11-29T20:54:52.081Z,,,,,,,,,,,NaN,,,,,,,,low,high,,,,,,,false,,,,,false,990301.899999857,990301.6999998093,,990301.0999999046,,990104.021,5,600,,
break_continue,html.Screen,10_12_2,2023-11-29T20:54:52.082Z,,,,,,,,,,,NaN,,,,,,,,low,high,,,,,,,false,,,,,false,990302.5,990302.1999998093,,990302.0999999046,,990104.021,5,600,,
sequence,flow.Sequence,10_12,2023-11-29T20:54:52.082Z,,,,,,,,,,,4164.849999809288,completion,,,,,,,low,high,,,,,,,false,,,,,false,990302.6999998093,990302.1999998093,986120.692,986341.899999857,986137.35,990104.021,5,600,,
trial,html.Screen,10_13_0,2023-11-29T20:55:00.015Z,,,,1,-0.0085520978188085,0.0464691161264081,,0.05,true,lh,8131.178999809315,response,-0.805240166523161,0.7909790699842952,-1.0046273852196745,0.705072989314616,0.8923995359999003,-1.1027475766032258,low,high,,ISIC_0758797.JPG,11,ISIC_9161341.JPG,33,28,false,0.21000000000000008,lh,keypress(e),0,false,998235.2999999523,998235.1999998093,990087.216,990302.7999999523,990104.021,998037.34,5,600,14,
break,html.Screen,10_13_1,2023-11-29T20:55:00.016Z,,,,,,,,,,,NaN,,,,,,,,low,high,,,,,,,false,,,,,false,998235.7999999523,998235.7999999523,,998235.5,,998037.34,5,600,,
break_continue,html.Screen,10_13_2,2023-11-29T20:55:00.016Z,,,,,,,,,,,NaN,,,,,,,,low,high,,,,,,,false,,,,,false,998236.1999998093,998236.0999999046,,998236,,998037.34,5,600,,
sequence,flow.Sequence,10_13,2023-11-29T20:55:00.016Z,,,,,,,,,,,8132.078999904683,completion,,,,,,,low,high,,,,,,,false,,,,,false,998236.2999999523,998236.0999999046,990087.216,990302.7999999523,990104.021,998037.34,5,600,,
trial,html.Screen,10_14_0,2023-11-29T20:55:03.231Z,,,,1,0.0245376145053177,-0.0436993426328401,,0.05,false,lh,3413.959999952349,response,-0.887838744955182,0.7909790699842952,-1.0046273852196745,0.7545096650863988,0.8923995359999003,-1.1027475766032258,low,high,,ISIC_0056444.JPG,9,ISIC_1488727.JPG,33,28,false,0.21000000000000008,ll,keypress(f),0,false,1001451.5,1001451.2999999523,998020.681,998236.399999857,998037.34,1001254.183,5,600,15,
break,html.Screen,10_14_1,2023-11-29T20:55:03.232Z,,,,,,,,,,,NaN,,,,,,,,low,high,,,,,,,false,,,,,false,1001451.7999999523,1001451.7999999523,,1001451.5,,1001254.183,5,600,,
break_continue,html.Screen,10_14_2,2023-11-29T20:55:03.232Z,,,,,,,,,,,NaN,,,,,,,,low,high,,,,,,,false,,,,,false,1001452.0999999046,1001452.0999999046,,1001451.899999857,,1001254.183,5,600,,
sequence,flow.Sequence,10_14,2023-11-29T20:55:03.232Z,,,,,,,,,,,3414.759999904665,completion,,,,,,,low,high,,,,,,,false,,,,,false,1001452.1999998093,1001452.0999999046,998020.681,998236.399999857,998037.34,1001254.183,5,600,,
trial,html.Screen,10_15_0,2023-11-29T20:55:10.263Z,,,,1,-0.0085520978188085,0.0464691161264081,,0.05,true,ll,7228.817000000039,response,-1.0774704182387804,0.7909790699842952,-1.0046273852196745,-1.0186619444121927,0.8923995359999003,-1.1027475766032258,low,low,,ISIC_0758797.JPG,9,ISIC_0066564.JPG,33,36,false,0.1,ll,keypress(f),0,false,1008483.0999999046,1008483,1001237.486,1001452.2999999523,1001254.183,1008287.414,5,600,16,
break,html.Screen,10_15_1,2023-11-29T20:55:10.263Z,,,,,,,,,,,NaN,,,,,,,,low,low,,,,,,,false,,,,,false,1008483.5999999046,1008483.5,,1008483.1999998093,,1008287.414,5,600,,
break_continue,html.Screen,10_15_2,2023-11-29T20:55:10.263Z,,,,,,,,,,,NaN,,,,,,,,low,low,,,,,,,false,,,,,false,1008483.6999998093,1008483.6999998093,,1008483.5999999046,,1008287.414,5,600,,
sequence,flow.Sequence,10_15,2023-11-29T20:55:10.264Z,,,,,,,,,,,7229.516999809304,completion,,,,,,,low,low,,,,,,,false,,,,,false,1008483.7999999523,1008483.6999998093,1001237.486,1001452.2999999523,1001254.183,1008287.414,5,600,,
trial,html.Screen,10_16_0,2023-11-29T20:55:13.559Z,,,,1,0.0348234368746005,-0.0236866303880924,,0.05,true,hh,3491.5860000000102,response,0.7041255260117695,0.7909790699842952,-1.0046273852196745,0.7945270488878992,0.8923995359999003,-1.1027475766032258,high,high,,ISIC_0011099.JPG,9,ISIC_5820693.JPG,33,52,false,0.1,hh,keypress(i),0,false,1011779.1999998093,1011779,1008270.905,1008483.899999857,1008287.414,1011570.684,5,600,17,
break,html.Screen,10_16_1,2023-11-29T20:55:13.559Z,,,,,,,,,,,NaN,,,,,,,,high,high,,,,,,,false,,,,,false,1011779.399999857,1011779.2999999523,,1011779.2999999523,,1011570.684,5,600,,
break_continue,html.Screen,10_16_2,2023-11-29T20:55:13.559Z,,,,,,,,,,,NaN,,,,,,,,high,high,,,,,,,false,,,,,false,1011779.5999999046,1011779.5999999046,,1011779.5,,1011570.684,5,600,,
sequence,flow.Sequence,10_16,2023-11-29T20:55:13.559Z,,,,,,,,,,,3492.185999904643,completion,,,,,,,high,high,,,,,,,false,,,,,false,1011779.6999998093,1011779.5999999046,1008270.905,1008483.899999857,1008287.414,1011570.684,5,600,,
trial,html.Screen,10_17_0,2023-11-29T20:55:18.087Z,,,,1,-0.0450282431170921,0,,0.05,false,lh,4736.415999904624,response,-1.0748728054622358,0.7909790699842952,-1.0046273852196745,0.6883893701485907,0.8923995359999003,-1.1027475766032258,low,high,,ISIC_1805163.JPG,9,ISIC_0059219.JPG,33,28,false,0.21000000000000008,hl,keypress(j),0,false,1016307.1999998093,1016307.0999999046,1011554.031,1011779.6999998093,1011570.684,1016104.044,5,600,18,
break,html.Screen,10_17_1,2023-11-29T20:55:18.087Z,,,,,,,,,,,NaN,,,,,,,,low,high,,,,,,,false,,,,,false,1016307.7999999523,1016307.5999999046,,1016307.5,,1016104.044,5,600,,
break_continue,html.Screen,10_17_2,2023-11-29T20:55:18.088Z,,,,,,,,,,,NaN,,,,,,,,low,high,,,,,,,false,,,,,false,1016308.0999999046,1016307.899999857,,1016307.7999999523,,1016104.044,5,600,,
sequence,flow.Sequence,10_17,2023-11-29T20:55:18.088Z,,,,,,,,,,,4737.2159998569405,completion,,,,,,,low,high,,,,,,,false,,,,,false,1016308.0999999046,1016307.899999857,1011554.031,1011779.6999998093,1011570.684,1016104.044,5,600,,
trial,html.Screen,10_18_0,2023-11-29T20:55:20.831Z,,,,1,-0.0389988030702649,-0.0143212271490256,,0.05,false,lh,2946.6559998092707,response,-0.8816288864119318,0.7909790699842952,-1.0046273852196745,0.801867301188093,0.8923995359999003,-1.1027475766032258,low,high,,ISIC_0064669.JPG,9,ISIC_9196783.JPG,33,28,false,0.21000000000000008,ll,keypress(f),0,false,1019051,1019050.6999998093,1016087.378,1016308.1999998093,1016104.044,1018854.188,5,600,19,
break,html.Screen,10_18_1,2023-11-29T20:55:20.831Z,,,,,,,,,,,NaN,,,,,,,,low,high,,,,,,,false,,,,,false,1019051.399999857,1019051.2999999523,,1019051.0999999046,,1018854.188,5,600,,
break_continue,html.Screen,10_18_2,2023-11-29T20:55:20.831Z,,,,,,,,,,,NaN,,,,,,,,low,high,,,,,,,false,,,,,false,1019051.6999998093,1019051.5999999046,,1019051.5,,1018854.188,5,600,,
sequence,flow.Sequence,10_18,2023-11-29T20:55:20.831Z,,,,,,,,,,,2947.555999904638,completion,,,,,,,low,high,,,,,,,false,,,,,false,1019051.7999999523,1019051.5999999046,1016087.378,1016308.1999998093,1016104.044,1018854.188,5,600,,
trial,html.Screen,10_19_0,2023-11-29T20:55:23.096Z,,,,1,-0.0324770283903853,-0.0249968632204382,,0.05,false,hh,2461.5119998092996,response,0.8778348457214913,0.7909790699842952,-1.0046273852196745,0.8379442136072591,0.8923995359999003,-1.1027475766032258,high,high,,ISIC_7266462.JPG,9,ISIC_0013213.JPG,33,52,false,0.1,ll,keypress(f),0,false,1021315.899999857,1021315.6999998093,1018837.5,1019051.7999999523,1018854.188,1021120.74,5,600,20,
break,html.Screen,10_19_1,2023-11-29T20:55:23.096Z,,,,,,,,,,,NaN,,,,,,,,high,high,,,,,,,false,,,,,false,1021316.7999999523,1021316.5999999046,,1021316.1999998093,,1021120.74,5,600,,
break_continue,html.Screen,10_19_2,2023-11-29T20:55:23.097Z,,,,,,,,,,,NaN,,,,,,,,high,high,,,,,,,false,,,,,false,1021317.399999857,1021317.1999998093,,1021317,,1021120.74,5,600,,
sequence,flow.Sequence,10_19,2023-11-29T20:55:23.097Z,,,,,,,,,,,2463.0119998092996,completion,,,,,,,high,high,,,,,,,false,,,,,false,1021317.5,1021317.1999998093,1018837.5,1019051.7999999523,1018854.188,1021120.74,5,600,,
trial,html.Screen,10_20_0,2023-11-29T20:55:26.424Z,,,,1,-0.007397293189458,-0.0174716772037504,,0.05,false,ll,3523.5599999523256,response,-1.0491289899026992,0.7909790699842952,-1.0046273852196745,-1.058683139801412,0.8923995359999003,-1.1027475766032258,low,low,,ISIC_0056226.JPG,9,ISIC_0010866.JPG,33,36,false,0.1,lh,keypress(e),0,false,1024644.5999999046,1024644.2999999523,1021104.151,1021317.6999998093,1021120.74,1024437.396,5,600,21,
break,html.Screen,10_20_1,2023-11-29T20:55:26.425Z,,,,,,,,,,,NaN,,,,,,,,low,low,,,,,,,false,,,,,false,1024645.5999999046,1024645.399999857,,1024645,,1024437.396,5,600,,
break_continue,html.Screen,10_20_2,2023-11-29T20:55:26.426Z,,,,,,,,,,,NaN,,,,,,,,low,low,,,,,,,false,,,,,false,1024646.2999999523,1024646.0999999046,,1024645.899999857,,1024437.396,5,600,,
sequence,flow.Sequence,10_20,2023-11-29T20:55:26.426Z,,,,,,,,,,,3525.359999904642,completion,,,,,,,low,low,,,,,,,false,,,,,false,1024646.399999857,1024646.0999999046,1021104.151,1021317.6999998093,1021120.74,1024437.396,5,600,,
trial,html.Screen,10_21_0,2023-11-29T20:55:31.183Z,,,,1,0.0409338693593207,-0.0072462710499874,,0.05,false,lh,4966.203999904683,response,-0.8390315482769187,0.7909790699842952,-1.0046273852196745,0.6904094409216154,0.8923995359999003,-1.1027475766032258,low,high,,ISIC_3608788.JPG,8,ISIC_5481211.JPG,33,28,false,0.21000000000000008,hh,keypress(i),0,false,1029403.6999998093,1029403.5999999046,1024420.788,1024646.5,1024437.396,1029204.024,5,600,22,
break,html.Screen,10_21_1,2023-11-29T20:55:31.184Z,,,,,,,,,,,NaN,,,,,,,,low,high,,,,,,,false,,,,,false,1029403.899999857,1029403.899999857,,1029403.6999998093,,1029204.024,5,600,,
break_continue,html.Screen,10_21_2,2023-11-29T20:55:31.184Z,,,,,,,,,,,NaN,,,,,,,,low,high,,,,,,,false,,,,,false,1029404.1999998093,1029404.1999998093,,1029404,,1029204.024,5,600,,
sequence,flow.Sequence,10_21,2023-11-29T20:55:31.184Z,,,,,,,,,,,4966.803999809315,completion,,,,,,,low,high,,,,,,,false,,,,,false,1029404.2999999523,1029404.1999998093,1024420.788,1024646.5,1024437.396,1029204.024,5,600,,
trial,html.Screen,10_22_0,2023-11-29T20:55:37.815Z,,,,1,-0.0070725527271049,-0.0049995141077508,,0.05,false,hl,6831.075999904657,response,0.6956738789487171,0.7909790699842952,-1.0046273852196745,-0.9798803024739164,0.8923995359999003,-1.1027475766032258,high,low,,ISIC_6124481.JPG,9,ISIC_0046340.JPG,33,25,false,0.17000000000000004,lh,keypress(e),0,false,1036035.1999998093,1036035.0999999046,1029187.413,1029404.2999999523,1029204.024,1035837.382,5,600,23,
break,html.Screen,10_22_1,2023-11-29T20:55:37.815Z,,,,,,,,,,,NaN,,,,,,,,high,low,,,,,,,false,,,,,false,1036035.5999999046,1036035.5,,1036035.2999999523,,1035837.382,5,600,,
break_continue,html.Screen,10_22_2,2023-11-29T20:55:37.815Z,,,,,,,,,,,NaN,,,,,,,,high,low,,,,,,,false,,,,,false,1036035.7999999523,1036035.6999998093,,1036035.6999998093,,1035837.382,5,600,,
sequence,flow.Sequence,10_22,2023-11-29T20:55:37.816Z,,,,,,,,,,,6831.675999809289,completion,,,,,,,high,low,,,,,,,false,,,,,false,1036035.7999999523,1036035.6999998093,1029187.413,1029404.2999999523,1029204.024,1035837.382,5,600,,
trial,html.Screen,10_23_0,2023-11-29T20:55:45.999Z,,,,1,0.013431314305098,-0.0140597582944232,,0.05,false,lh,8382.118000000017,response,-0.948927472020595,0.7909790699842952,-1.0046273852196745,1.0660437155921598,0.8923995359999003,-1.1027475766032258,low,high,,ISIC_0069617.JPG,9,ISIC_5808758.JPG,33,28,false,0.21000000000000008,hh,keypress(i),0,false,1044219.5999999046,1044219.5,1035820.822,1036035.899999857,1035837.382,1044020.757,5,600,24,
break,html.Screen,10_23_1,2023-11-29T20:55:46.000Z,,,,,,,,,,,NaN,,,,,,,,low,high,,,,,,,false,,,,,false,1044220.1999998093,1044220.0999999046,,1044219.7999999523,,1044020.757,5,600,,
break_continue,html.Screen,10_23_2,2023-11-29T20:55:46.000Z,,,,,,,,,,,NaN,,,,,,,,low,high,,,,,,,false,,,,,false,1044220.5999999046,1044220.399999857,,1044220.1999998093,,1044020.757,5,600,,
sequence,flow.Sequence,10_23,2023-11-29T20:55:46.000Z,,,,,,,,,,,8383.017999856966,completion,,,,,,,low,high,,,,,,,false,,,,,false,1044220.6999998093,1044220.399999857,1035820.822,1036035.899999857,1035837.382,1044020.757,5,600,,
trial,html.Screen,10_24_0,2023-11-29T20:55:57.423Z,,,,1,0.0097091270150747,-0.0417921315885292,,0.05,true,lh,11622.542999952333,response,-0.796241477082623,0.7909790699842952,-1.0046273852196745,0.9017449335975743,0.8923995359999003,-1.1027475766032258,low,high,,ISIC_3967213.JPG,9,ISIC_8588033.JPG,33,28,false,0.21000000000000008,lh,keypress(e),0,false,1055643.5,1055643.2999999523,1044004.004,1044220.6999998093,1044020.757,1055437.432,5,600,25,
break,html.Screen,10_24_1,2023-11-29T20:55:57.424Z,,,,,,,,,,,NaN,,,,,,,,low,high,,,,,,,false,,,,,false,1055644,1055643.7999999523,,1055643.5999999046,,1055437.432,5,600,,
break_continue,html.Screen,10_24_2,2023-11-29T20:55:57.424Z,,,,,,,,,,,NaN,,,,,,,,low,high,,,,,,,false,,,,,false,1055644.2999999523,1055644.1999998093,,1055644.0999999046,,1055437.432,5,600,,
sequence,flow.Sequence,10_24,2023-11-29T20:55:57.424Z,,,,,,,,,,,11623.442999809282,completion,,,,,,,low,high,,,,,,,false,,,,,false,1055644.399999857,1055644.1999998093,1044004.004,1044220.6999998093,1044020.757,1055437.432,5,600,,
trial,html.Screen,10_25_0,2023-11-29T20:56:04.151Z,,,,1,-0.0069555338059566,0.0310100918136373,,0.05,true,hh,6933.8679999522865,response,0.7055427605250187,0.7909790699842952,-1.0046273852196745,0.7933847109872884,0.8923995359999003,-1.1027475766032258,high,high,,ISIC_0011177.JPG,9,ISIC_3552318.JPG,33,52,false,0.1,hh,keypress(i),0,false,1062371.399999857,1062371.2999999523,1055420.796,1055644.5,1055437.432,1062170.897,5,600,26,
break,html.Screen,10_25_1,2023-11-29T20:56:04.152Z,,,,,,,,,,,NaN,,,,,,,,high,high,,,,,,,false,,,,,false,1062371.6999998093,1062371.6999998093,,1062371.5,,1062170.897,5,600,,
break_continue,html.Screen,10_25_2,2023-11-29T20:56:04.152Z,,,,,,,,,,,NaN,,,,,,,,high,high,,,,,,,false,,,,,false,1062371.899999857,1062371.7999999523,,1062371.7999999523,,1062170.897,5,600,,
sequence,flow.Sequence,10_25,2023-11-29T20:56:04.152Z,,,,,,,,,,,6934.3679999522865,completion,,,,,,,high,high,,,,,,,false,,,,,false,1062372,1062371.7999999523,1055420.796,1055644.399999857,1055437.432,1062170.897,5,600,,
trial,html.Screen,10_26_0,2023-11-29T20:56:05.190Z,,,,1,-0.0057914759495055,-0.0074667911845194,,0.05,false,ll,1238.8029998091515,response,-0.9303292478996148,0.7909790699842952,-1.0046273852196745,-1.0396291493634244,0.8923995359999003,-1.1027475766032258,low,low,,ISIC_0058723.JPG,9,ISIC_0068580.JPG,33,36,false,0.1,hh,keypress(i),0,false,1063409.899999857,1063409.6999998093,1062154.007,1062372,1062170.897,1063204.072,5,600,27,
break,html.Screen,10_26_1,2023-11-29T20:56:05.190Z,,,,,,,,,,,NaN,,,,,,,,low,low,,,,,,,false,,,,,false,1063410.2999999523,1063410.2999999523,,1063410.0999999046,,1063204.072,5,600,,
break_continue,html.Screen,10_26_2,2023-11-29T20:56:05.191Z,,,,,,,,,,,NaN,,,,,,,,low,low,,,,,,,false,,,,,false,1063410.6999998093,1063410.5,,1063410.399999857,,1063204.072,5,600,,
sequence,flow.Sequence,10_26,2023-11-29T20:56:05.191Z,,,,,,,,,,,1239.6029999998864,completion,,,,,,,low,low,,,,,,,false,,,,,false,1063410.6999998093,1063410.5,1062154.007,1062372,1062170.897,1063204.072,5,600,,
trial,html.Screen,10_27_0,2023-11-29T20:56:06.217Z,,,,1,-0.0217698886732706,0.0410870915161425,,0.05,false,hl,1232.4280000000726,response,0.6400270401005864,0.7909790699842952,-1.0046273852196745,-0.947929468524881,0.8923995359999003,-1.1027475766032258,high,low,,ISIC_0072173.JPG,10,ISIC_3124612.JPG,33,25,false,0.17000000000000004,hh,keypress(i),0,false,1064436.5999999046,1064436.5,1063187.675,1063410.899999857,1063204.072,1064237.527,5,600,28,
break,html.Screen,10_27_1,2023-11-29T20:56:06.217Z,,,,,,,,,,,NaN,,,,,,,,high,low,,,,,,,false,,,,,false,1064436.899999857,1064436.7999999523,,1064436.6999998093,,1064237.527,5,600,,
break_continue,html.Screen,10_27_2,2023-11-29T20:56:06.217Z,,,,,,,,,,,NaN,,,,,,,,high,low,,,,,,,false,,,,,false,1064437.0999999046,1064437,,1064436.899999857,,1064237.527,5,600,,
sequence,flow.Sequence,10_27,2023-11-29T20:56:06.217Z,,,,,,,,,,,1232.9280000000726,completion,,,,,,,high,low,,,,,,,false,,,,,false,1064437.0999999046,1064437,1063187.675,1063410.899999857,1063204.072,1064237.527,5,600,,
trial,html.Screen,10_28_0,2023-11-29T20:56:07.272Z,,,,1,0.0188047466661863,-0.0288346930436979,,0.05,false,ll,1254.2729999523144,response,-1.0215600067367807,0.7909790699842952,-1.0046273852196745,-1.1866489745604327,0.8923995359999003,-1.1027475766032258,low,low,,ISIC_0014157.JPG,9,ISIC_0000173.JPG,33,36,false,0.1,hh,keypress(i),0,false,1065491.899999857,1065491.7999999523,1064220.731,1064437.1999998093,1064237.527,1065304.132,5,600,29,
break,html.Screen,10_28_1,2023-11-29T20:56:07.272Z,,,,,,,,,,,NaN,,,,,,,,low,low,,,,,,,false,,,,,false,1065492.2999999523,1065492.1999998093,,1065492.0999999046,,1065304.132,5,600,,
break_continue,html.Screen,10_28_2,2023-11-29T20:56:07.272Z,,,,,,,,,,,NaN,,,,,,,,low,low,,,,,,,false,,,,,false,1065492.5,1065492.399999857,,1065492.2999999523,,1065304.132,5,600,,
sequence,flow.Sequence,10_28,2023-11-29T20:56:07.273Z,,,,,,,,,,,1254.872999856947,completion,,,,,,,low,low,,,,,,,false,,,,,false,1065492.5999999046,1065492.399999857,1064220.731,1064437.0999999046,1064237.527,1065304.132,5,600,,
trial,html.Screen,10_29_0,2023-11-29T20:56:08.288Z,,,,1,0.0245376145053177,-0.0436993426328401,,0.05,false,ll,1203.167999952333,response,-1.0762260610050776,0.7909790699842952,-1.0046273852196745,-1.082709423673037,0.8923995359999003,-1.1027475766032258,low,low,,ISIC_0056444.JPG,10,ISIC_0058666.JPG,33,36,false,0.1,hh,keypress(i),0,false,1066507.5999999046,1066507.2999999523,1065287.618,1065492.5999999046,1065304.132,1066320.853,5,600,30,
break,html.Screen,10_29_1,2023-11-29T20:56:08.288Z,,,,,,,,,,,NaN,,,,,,,,low,low,,,,,,,false,,,,,false,1066508.5,1066508.2999999523,,1066507.7999999523,,1066320.853,5,600,,
break_continue,html.Screen,10_29_2,2023-11-29T20:56:08.289Z,,,,,,,,,,,NaN,,,,,,,,low,low,,,,,,,false,,,,,false,1066509,1066508.899999857,,1066508.5999999046,,1066320.853,5,600,,
sequence,flow.Sequence,10_29,2023-11-29T20:56:08.289Z,,,,,,,,,,,1204.7679998569656,completion,,,,,,,low,low,,,,,,,false,,,,,false,1066509.1999998093,1066508.899999857,1065287.618,1065492.5999999046,1065304.132,1066320.853,5,600,,
trial,html.Screen,10_30_0,2023-11-29T20:56:14.712Z,,,,1,0.0051189696037511,-0.0396625911332438,,0.05,false,hh,6610.5469998570625,response,0.8778348457214913,0.7909790699842952,-1.0046273852196745,0.8379442136072591,0.8923995359999003,-1.1027475766032258,high,high,,ISIC_9742891.JPG,9,ISIC_0013213.JPG,33,52,false,0.1,ll,keypress(f),0,false,1072931.5,1072931.399999857,1066304.074,1066509.399999857,1066320.853,1072737.461,5,600,31,
break,html.Screen,10_30_1,2023-11-29T20:56:14.712Z,,,,,,,,,,,NaN,,,,,,,,high,high,,,,,,,false,,,,,false,1072932.0999999046,1072932,,1072931.6999998093,,1072737.461,5,600,,
break_continue,html.Screen,10_30_2,2023-11-29T20:56:14.712Z,,,,,,,,,,,NaN,,,,,,,,high,high,,,,,,,false,,,,,false,1072932.2999999523,1072932.2999999523,,1072932.1999998093,,1072737.461,5,600,,
sequence,flow.Sequence,10_30,2023-11-29T20:56:14.712Z,,,,,,,,,,,6611.44699995243,completion,,,,,,,high,high,,,,,,,false,,,,,false,1072932.399999857,1072932.2999999523,1066304.074,1066509.2999999523,1066320.853,1072737.461,5,600,,
trial,html.Screen,10_31_0,2023-11-29T20:56:20.128Z,,,,1,0.013431314305098,-0.0140597582944232,,0.05,false,lh,5610.238999809371,response,-0.805240166523161,0.7909790699842952,-1.0046273852196745,0.705072989314616,0.8923995359999003,-1.1027475766032258,low,high,,ISIC_0069617.JPG,9,ISIC_9161341.JPG,33,28,false,0.21000000000000008,ll,keypress(f),0,false,1078347.7999999523,1078347.6999998093,1072720.874,1072932.5999999046,1072737.461,1078154.194,5,600,32,
break,html.Screen,10_31_1,2023-11-29T20:56:20.128Z,,,,,,,,,,,NaN,,,,,,,,low,high,,,,,,,false,,,,,false,1078348.399999857,1078348.2999999523,,1078347.899999857,,1078154.194,5,600,,
break_continue,html.Screen,10_31_2,2023-11-29T20:56:20.129Z,,,,,,,,,,,NaN,,,,,,,,low,high,,,,,,,false,,,,,false,1078348.7999999523,1078348.6999998093,,1078348.399999857,,1078154.194,5,600,,
sequence,flow.Sequence,10_31,2023-11-29T20:56:20.129Z,,,,,,,,,,,5611.238999809371,completion,,,,,,,low,high,,,,,,,false,,,,,false,1078348.899999857,1078348.6999998093,1072720.874,1072932.5999999046,1072737.461,1078154.194,5,600,,
trial,html.Screen,10_32_0,2023-11-29T20:56:23.264Z,,,,1,-0.0456515796420274,0.0273567130070961,,0.05,false,lh,3329.3060000000987,response,-1.0122398223568725,0.7909790699842952,-1.0046273852196745,0.7505228537454216,0.8923995359999003,-1.1027475766032258,low,high,,ISIC_0068610.JPG,10,ISIC_0033802.JPG,33,28,false,0.21000000000000008,hl,keypress(j),0,false,1081483.6999998093,1081483.5,1078137.413,1078349,1078154.194,1081287.524,5,600,33,
break,html.Screen,10_32_1,2023-11-29T20:56:23.264Z,,,,,,,,,,,NaN,,,,,,,,low,high,,,,,,,false,,,,,false,1081484.2999999523,1081484.1999998093,,1081483.899999857,,1081287.524,5,600,,
break_continue,html.Screen,10_32_2,2023-11-29T20:56:23.265Z,,,,,,,,,,,NaN,,,,,,,,low,high,,,,,,,false,,,,,false,1081484.7999999523,1081484.5999999046,,1081484.5,,1081287.524,5,600,,
sequence,flow.Sequence,10_32,2023-11-29T20:56:23.265Z,,,,,,,,,,,3330.4059999047313,completion,,,,,,,low,high,,,,,,,false,,,,,false,1081484.899999857,1081484.5999999046,1078137.413,1078349,1078154.194,1081287.524,5,600,,
trial,html.Screen,10_33_0,2023-11-29T20:56:26.927Z,,,,1,0,0.0264544974620926,,0.05,true,lh,3859.7759999523405,response,-0.948927472020595,0.7909790699842952,-1.0046273852196745,1.0660437155921598,0.8923995359999003,-1.1027475766032258,low,high,,ISIC_0056991.JPG,9,ISIC_5808758.JPG,33,28,false,0.21000000000000008,lh,keypress(e),0,false,1085147.399999857,1085147.2999999523,1081270.93,1081485,1081287.524,1084970.845,5,600,34,
break,html.Screen,10_33_1,2023-11-29T20:56:26.928Z,,,,,,,,,,,NaN,,,,,,,,low,high,,,,,,,false,,,,,false,1085147.7999999523,1085147.5999999046,,1085147.5,,1084970.845,5,600,,
break_continue,html.Screen,10_33_2,2023-11-29T20:56:26.928Z,,,,,,,,,,,NaN,,,,,,,,low,high,,,,,,,false,,,,,false,1085148,1085148,,1085147.7999999523,,1084970.845,5,600,,
sequence,flow.Sequence,10_33,2023-11-29T20:56:26.928Z,,,,,,,,,,,3860.476000000024,completion,,,,,,,low,high,,,,,,,false,,,,,false,1085148.0999999046,1085148,1081270.93,1081485,1081287.524,1084970.845,5,600,,
trial,html.Screen,10_34_0,2023-11-29T20:56:34.855Z,,,,1,0.0348234368746005,-0.0236866303880924,,0.05,false,lh,8104.354999809293,response,-1.0022829373011404,0.7909790699842952,-1.0046273852196745,0.8311726972863814,0.8923995359999003,-1.1027475766032258,low,high,,ISIC_0011099.JPG,9,ISIC_0033287.JPG,33,28,false,0.21000000000000008,hl,keypress(j),0,false,1093075.399999857,1093075.1999998093,1084954.141,1085148.0999999046,1084970.845,1092870.804,5,600,35,
break,html.Screen,10_34_1,2023-11-29T20:56:34.856Z,,,,,,,,,,,NaN,,,,,,,,low,high,,,,,,,false,,,,,false,1093075.6999998093,1093075.6999998093,,1093075.399999857,,1092870.804,5,600,,
break_continue,html.Screen,10_34_2,2023-11-29T20:56:34.856Z,,,,,,,,,,,NaN,,,,,,,,low,high,,,,,,,false,,,,,false,1093075.899999857,1093075.899999857,,1093075.7999999523,,1092870.804,5,600,,
sequence,flow.Sequence,10_34,2023-11-29T20:56:34.856Z,,,,,,,,,,,8105.054999856977,completion,,,,,,,low,high,,,,,,,false,,,,,false,1093076,1093075.899999857,1084954.141,1085148.0999999046,1084970.845,1092870.804,5,600,,
trial,html.Screen,10_35_0,2023-11-29T20:56:37.799Z,,,,1,-0.0116094682222121,0.0258434522530318,,0.05,false,hl,3148.1959999999963,response,0.7133243033950115,0.7909790699842952,-1.0046273852196745,-0.9575090175925351,0.8923995359999003,-1.1027475766032258,high,low,,ISIC_9239632.JPG,8,ISIC_1369273.JPG,33,25,false,0.17000000000000004,hh,keypress(i),0,false,1096019.1999998093,1096019,1092854.317,1093076,1092870.804,1095820.879,5,600,36,
break,html.Screen,10_35_1,2023-11-29T20:56:37.799Z,,,,,,,,,,,NaN,,,,,,,,high,low,,,,,,,false,,,,,false,1096019.399999857,1096019.2999999523,,1096019.1999998093,,1095820.879,5,600,,
break_continue,html.Screen,10_35_2,2023-11-29T20:56:37.800Z,,,,,,,,,,,NaN,,,,,,,,high,low,,,,,,,false,,,,,false,1096019.5999999046,1096019.5,,1096019.5,,1095820.879,5,600,,
sequence,flow.Sequence,10_35,2023-11-29T20:56:37.800Z,,,,,,,,,,,3148.6959999999963,completion,,,,,,,high,low,,,,,,,false,,,,,false,1096019.6999998093,1096019.5,1092854.317,1093076,1092870.804,1095820.879,5,600,,
trial,html.Screen,10_36_0,2023-11-29T20:56:46.391Z,,,,1,-0.0329095507339554,0.0382899749693245,,0.05,false,lh,8790.220999904675,response,-0.8200962008791046,0.7909790699842952,-1.0046273852196745,0.7936051642828523,0.8923995359999003,-1.1027475766032258,low,high,,ISIC_8812781.JPG,9,ISIC_0027031.JPG,33,28,false,0.21000000000000008,hh,keypress(i),0,false,1104611.1999998093,1104611.0999999046,1095804.193,1096019.6999998093,1095820.879,1104404.147,5,600,37,
break,html.Screen,10_36_1,2023-11-29T20:56:46.392Z,,,,,,,,,,,NaN,,,,,,,,low,high,,,,,,,false,,,,,false,1104611.5,1104611.399999857,,1104611.399999857,,1104404.147,5,600,,
break_continue,html.Screen,10_36_2,2023-11-29T20:56:46.392Z,,,,,,,,,,,NaN,,,,,,,,low,high,,,,,,,false,,,,,false,1104611.6999998093,1104611.5999999046,,1104611.5999999046,,1104404.147,5,600,,
sequence,flow.Sequence,10_36,2023-11-29T20:56:46.392Z,,,,,,,,,,,8790.720999904675,completion,,,,,,,low,high,,,,,,,false,,,,,false,1104611.7999999523,1104611.5999999046,1095804.193,1096019.6999998093,1095820.879,1104404.147,5,600,,
trial,html.Screen,10_37_0,2023-11-29T20:56:50.848Z,,,,1,0.0102460616775615,-0.0309670599545429,,0.05,false,hh,4663.952999904519,response,0.8859748279606405,0.7909790699842952,-1.0046273852196745,0.8351560316519383,0.8923995359999003,-1.1027475766032258,high,high,,ISIC_0072041.JPG,9,ISIC_5795486.JPG,33,52,false,0.1,hl,keypress(j),0,false,1109068.399999857,1109068.0999999046,1104387.499,1104611.7999999523,1104404.147,1108870.858,5,600,38,
break,html.Screen,10_37_1,2023-11-29T20:56:50.849Z,,,,,,,,,,,NaN,,,,,,,,high,high,,,,,,,false,,,,,false,1109069.2999999523,1109069.0999999046,,1109068.6999998093,,1108870.858,5,600,,
break_continue,html.Screen,10_37_2,2023-11-29T20:56:50.850Z,,,,,,,,,,,NaN,,,,,,,,high,high,,,,,,,false,,,,,false,1109069.899999857,1109069.7999999523,,1109069.5999999046,,1108870.858,5,600,,
