sender,sender_type,sender_id,timestamp,meta,,age,blockNo,c1,c2,condition,control_tolerance,correct,correctResponse,duration,ended_on,f1,f1_high,f1_low,f2,f2_high,f2_low,feature_level1,feature_level2,gender,img_left,img_reveal,img_right,n_control_images,n_target_images,practice,range_tolerance,response,response_action,selection_duration,staircase,time_commit,time_end,time_render,time_run,time_show,time_switch,total_blocks,total_trials,trialNo,url
informed_consent,html.Screen,0,2024-03-19T17:59:33.733Z,"{""labjs_version"":""20.2.4"",""labjs_build"":{""flavor"":""development"",""commit"":""f5b4a49f956347addd546a832a3327688c2c0fef""},""location"":""https://labjs.felixhenninger.com/api/labjs_preview/index.html"",""userAgent"":""Mozilla/5.0 (Windows NT 10.0; Win64; x64) AppleWebKit/537.36 (KHTML, like Gecko) Chrome/122.0.0.0 Safari/537.36"",""platform"":""Win32"",""language"":""en-US"",""locale"":""en-US"",""timeZone"":""America/Chicago"",""timezoneOffset"":300,""screen_width"":2560,""screen_height"":1440,""scroll_width"":1265,""scroll_height"":1278,""window_innerWidth"":1265,""window_innerHeight"":1326,""devicePixelRatio"":1}",,,,,,,,,,1391475.9999999763,response,,,,,,,,,,,,,,,,,consent,click button,,,1393068.5,1393062.8999999762,1585.54,1690.3999999761581,1586.9,1392967.128,,,,{}
Demography form,html.Form,1,2024-03-19T17:59:44.172Z,,,18,,,,,,,,10539.871999999974,form submission,,,,,,,,,female,,,,,,,,,,,,1403507.1999999285,1403507,1392967.128,1393068.7999999523,1392967.128,1403410.562,,,,
Welcome,html.Screen,2,2024-03-19T18:00:16.505Z,,,,,,,"[""asym"",""col""]",,,,32428.938000000082,response,,,,,,,,,,,,,,,,,continue,click button,,,1435840.2999999523,1435839.5,1403410.562,1403507.2999999523,1403410.562,1435736.862,,,,
demo_instructions,html.Screen,3,2024-03-19T18:00:45.401Z,,,,,,,,,,,28998.237999904668,response,,,,,,,,,,,,,,,,,continue,click button,,,1464735.8999999762,1464735.0999999046,1435736.862,1435840.3999999762,1435736.862,1464644.53,,,,
trial,html.Screen,4_0_0,2024-03-19T18:01:21.037Z,,,,0,-1.2435042401134029,-1.2939710463315144,,,false,hh,35727.569999904605,response,1.1604734171556077,1.2,-1.2,1.0789312625280616,1.2,-1.2,high,high,,ISIC_0056119.JPG,,ISIC_3950753.JPG,,25,true,0.15000000000000002,lh,keypress(e),100,false,1500372.5999999046,1500372.0999999046,1464644.53,1464736.0999999046,1464644.53,1500289.2,1,16,1,
sequence,flow.Sequence,4_0,2024-03-19T18:01:21.038Z,,,,,,,,,,,35727.569999904605,completion,,,,,,,high,high,,,,,,,true,,,,,false,1500373.0999999046,1500372.0999999046,1464644.53,1464736,1464644.53,1500289.2,1,16,,
trial,html.Screen,4_1_0,2024-03-19T18:01:31.333Z,,,,0,-1.2872758518949912,-1.313723254903214,,,true,hh,10378.199999976205,response,1.294521945180264,1.2,-1.2,1.3078626540563885,1.2,-1.2,high,high,,ISIC_0064376.JPG,,ISIC_3601224.JPG,,25,true,0.15000000000000002,hh,keypress(i),100,false,1510668,1510667.3999999762,1500272.5,1500373.2999999523,1500289.2,1510582.4,1,16,2,
sequence,flow.Sequence,4_1,2024-03-19T18:01:31.333Z,,,,,,,,,,,10378.199999976205,completion,,,,,,,high,high,,,,,,,true,,,,,false,1510668.5999999046,1510667.3999999762,1500272.5,1500373.1999999285,1500289.2,1510582.4,1,16,,
trial,html.Screen,4_2_0,2024-03-19T18:01:36.321Z,,,,0,-1.2289750544294995,-1.3003764624334877,,,true,hh,5072.699999904726,response,1.212030980680325,1.2,-1.2,1.139863018685685,1.2,-1.2,high,high,,ISIC_0054167.JPG,,ISIC_0008510.JPG,,25,true,0.15000000000000002,hh,keypress(i),100,false,1515655.6999999285,1515655.0999999046,1510565.732,1510669,1510582.4,1515569.9,1,16,3,
sequence,flow.Sequence,4_2,2024-03-19T18:01:36.321Z,,,,,,,,,,,5072.699999904726,completion,,,,,,,high,high,,,,,,,true,,,,,false,1515656.5999999046,1515655.0999999046,1510565.732,1510668.8999999762,1510582.4,1515569.9,1,16,,
trial,html.Screen,4_3_0,2024-03-19T18:01:38.908Z,,,,0,-1.1474466950560966,-1.173734476257662,,,true,hh,2672.7999999285676,response,1.1638334638021437,1.2,-1.2,1.0846635401396965,1.2,-1.2,high,high,,ISIC_5216586.JPG,,ISIC_4718313.JPG,,25,true,0.15000000000000002,hh,keypress(i),100,false,1518243.5,1518242.6999999285,1515553.198,1515656.8999999762,1515569.9,1518155.2,1,16,4,
sequence,flow.Sequence,4_3,2024-03-19T18:01:38.909Z,,,,,,,,,,,2672.7999999285676,completion,,,,,,,high,high,,,,,,,true,,,,,false,1518244.5,1518242.6999999285,1515553.198,1515656.8999999762,1515569.9,1518155.2,1,16,,
trial,html.Screen,4_4_0,2024-03-19T18:01:45.925Z,,,,0,1.1510001454240106,1.132540312667795,,,true,ll,7104.800000000047,response,-1.250220052739973,1.2,-1.2,-1.2967258992731714,1.2,-1.2,low,low,,ISIC_0009959.JPG,,ISIC_0031368.JPG,,27,true,0.12,ll,keypress(f),100,false,1525260.5999999046,1525260,1518138.566,1518244.8999999762,1518155.2,1525177.4,1,16,5,
sequence,flow.Sequence,4_4,2024-03-19T18:01:45.926Z,,,,,,,,,,,7104.800000000047,completion,,,,,,,low,low,,,,,,,true,,,,,false,1525261.3999999762,1525260,1518138.566,1518244.7999999523,1518155.2,1525177.4,1,16,,
trial,html.Screen,4_5_0,2024-03-19T18:01:56.720Z,,,,0,1.053007132776416,1.341217082060068,,,true,ll,10876.89999995241,response,-1.3132505134129506,1.2,-1.2,-1.0949928516457437,1.2,-1.2,low,low,,ISIC_0024208.JPG,,ISIC_0066935.JPG,,41,true,0.15000000000000002,ll,keypress(f),100,false,1536054.7999999523,1536054.2999999523,1525161.166,1525261.7999999523,1525177.4,1535969.4,1,16,6,
sequence,flow.Sequence,4_5,2024-03-19T18:01:56.720Z,,,,,,,,,,,10876.89999995241,completion,,,,,,,low,low,,,,,,,true,,,,,false,1536055.5,1536054.2999999523,1525161.166,1525261.7999999523,1525177.4,1535969.4,1,16,,
trial,html.Screen,4_6_0,2024-03-19T18:02:00.026Z,,,,0,1.1510001454240106,1.132540312667795,,,true,ll,3391.6999999047257,response,-1.3132505134129506,1.2,-1.2,-1.0949928516457437,1.2,-1.2,low,low,,ISIC_0009959.JPG,,ISIC_0066935.JPG,,41,true,0.15000000000000002,ll,keypress(f),100,false,1539361.2999999523,1539361.0999999046,1535953.398,1536055.6999999285,1535969.4,1539272.9,1,16,7,
sequence,flow.Sequence,4_6,2024-03-19T18:02:00.026Z,,,,,,,,,,,3391.6999999047257,completion,,,,,,,low,low,,,,,,,true,,,,,false,1539361.5,1539361.0999999046,1535953.398,1536055.5999999046,1535969.4,1539272.9,1,16,,
trial,html.Screen,4_7_0,2024-03-19T18:02:02.032Z,,,,0,1.2200968917423711,1.3183466064109373,,,true,ll,2093.3999999524094,response,-1.1894733304494307,1.2,-1.2,-1.1169761866204877,1.2,-1.2,low,low,,ISIC_3624318.JPG,,ISIC_0033813.JPG,,41,true,0.15000000000000002,ll,keypress(f),100,false,1541366.6999999285,1541366.2999999523,1539256.098,1539361.5,1539272.9,1541290.9,1,16,8,
sequence,flow.Sequence,4_7,2024-03-19T18:02:02.032Z,,,,,,,,,,,2093.3999999524094,completion,,,,,,,low,low,,,,,,,true,,,,,false,1541367.5999999046,1541366.2999999523,1539256.098,1539361.5,1539272.9,1541290.9,1,16,,
trial,html.Screen,4_8_0,2024-03-19T18:02:03.752Z,,,,0,0.8644465729542988,-0.8679598285079457,,,false,lh,1796.4999999762513,response,-0.9448560599810628,1.2,-1.2,0.9099421612683488,1.2,-1.2,low,high,,ISIC_6718969.JPG,,ISIC_9684318.JPG,,26,true,0.3300000000000002,ll,keypress(f),100,false,1543087.5,1543087.3999999762,1541274.366,1541368.1999999285,1541290.9,1543009.2,1,16,9,
sequence,flow.Sequence,4_8,2024-03-19T18:02:03.752Z,,,,,,,,,,,1796.4999999762513,completion,,,,,,,low,high,,,,,,,true,,,,,false,1543087.6999999285,1543087.3999999762,1541274.366,1541368.0999999046,1541290.9,1543009.2,1,16,,
trial,html.Screen,4_9_0,2024-03-19T18:02:14.978Z,,,,0,1.1890109863264902,-0.8867825318561365,,,true,lh,11305.099999952363,response,-1.0700930503975157,1.2,-1.2,0.923753102263735,1.2,-1.2,low,high,,ISIC_0072576.JPG,,ISIC_0000022.JPG,,33,true,0.3600000000000002,lh,keypress(e),100,false,1554314.3999999762,1554314.2999999523,1542992.1,1543087.6999999285,1543009.2,1554235,1,16,10,
sequence,flow.Sequence,4_9,2024-03-19T18:02:14.979Z,,,,,,,,,,,11305.099999952363,completion,,,,,,,low,high,,,,,,,true,,,,,false,1554314.5999999046,1554314.2999999523,1542992.1,1543087.6999999285,1543009.2,1554235,1,16,,
trial,html.Screen,4_10_0,2024-03-19T18:02:18.942Z,,,,0,1.225025174430573,-0.8422679054456499,,,true,lh,4043.0999999046326,response,-1.0748728054622358,1.2,-1.2,1.2840853987892311,1.2,-1.2,low,high,,ISIC_7503950.JPG,,ISIC_0059219.JPG,,33,true,0.3600000000000002,lh,keypress(e),100,false,1558278.5,1558278.0999999046,1554217.9,1554314.5999999046,1554235,1558205.1,1,16,11,
sequence,flow.Sequence,4_10,2024-03-19T18:02:18.943Z,,,,,,,,,,,4043.0999999046326,completion,,,,,,,low,high,,,,,,,true,,,,,false,1558279.2999999523,1558278.0999999046,1554217.9,1554314.5999999046,1554235,1558205.1,1,16,,
trial,html.Screen,4_11_0,2024-03-19T18:02:20.657Z,,,,0,0.9013888878932071,-0.9328095253308732,,,true,lh,1787.3999999999069,response,-1.0345332538240786,1.2,-1.2,1.4719115945084815,1.2,-1.2,low,high,,ISIC_0068259.JPG,,ISIC_0192490.JPG,,33,true,0.3600000000000002,lh,keypress(e),100,false,1559992.8999999762,1559992.5,1558188.498,1558279.5,1558205.1,1559906.598,1,16,12,
sequence,flow.Sequence,4_11,2024-03-19T18:02:20.657Z,,,,,,,,,,,1787.3999999999069,completion,,,,,,,low,high,,,,,,,true,,,,,false,1559993.5,1559992.5,1558188.498,1558279.3999999762,1558205.1,1559906.598,1,16,,
trial,html.Screen,4_12_0,2024-03-19T18:02:27.957Z,,,,0,-0.9212323139676136,0.9882196642247332,,,true,hl,7386.402000000002,response,1.1890109863264902,1.2,-1.2,-0.8867825318561365,1.2,-1.2,high,low,,ISIC_0014255.JPG,,ISIC_0072576.JPG,,29,true,0.3600000000000002,hl,keypress(j),100,false,1567293.1999999285,1567293,1559906.598,1559993.7999999523,1559906.598,1567211.6,1,16,13,
sequence,flow.Sequence,4_12,2024-03-19T18:02:27.957Z,,,,,,,,,,,7386.402000000002,completion,,,,,,,high,low,,,,,,,true,,,,,false,1567293.2999999523,1567293,1559906.598,1559993.6999999285,1559906.598,1567211.6,1,16,,
trial,html.Screen,4_13_0,2024-03-19T18:02:29.750Z,,,,0,-0.9046170303418553,1.0063426986460375,,,true,hl,1873.9999999045394,response,1.1235224875125256,1.2,-1.2,-0.8641223012137988,1.2,-1.2,high,low,,ISIC_0055759.JPG,,ISIC_0033901.JPG,,29,true,0.3600000000000002,hl,keypress(j),100,false,1569086.0999999046,1569085.5999999046,1567195.3,1567293.2999999523,1567211.6,1568997.162,1,16,14,
sequence,flow.Sequence,4_13,2024-03-19T18:02:29.751Z,,,,,,,,,,,1873.9999999045394,completion,,,,,,,high,low,,,,,,,true,,,,,false,1569087,1569085.5999999046,1567195.3,1567293.2999999523,1567211.6,1568997.162,1,16,,
trial,html.Screen,4_14_0,2024-03-19T18:02:33.006Z,,,,0,-0.887838744955182,1.3716210719758812,,,true,hl,3344.837999999989,response,1.3411487193830047,1.2,-1.2,-1.198640448317381,1.2,-1.2,high,low,,ISIC_1488727.JPG,,ISIC_3093026.JPG,,29,true,0.3600000000000002,hl,keypress(j),100,false,1572342.2999999523,1572342,1568997.162,1569087.5999999046,1568997.162,1572266.8,1,16,15,
sequence,flow.Sequence,4_14,2024-03-19T18:02:33.007Z,,,,,,,,,,,3344.837999999989,completion,,,,,,,high,low,,,,,,,true,,,,,false,1572342.8999999762,1572342,1568997.162,1569087.5,1568997.162,1572266.8,1,16,,
trial,html.Screen,4_15_0,2024-03-19T18:02:34.947Z,,,,0,-0.887838744955182,1.3716210719758812,,,true,hl,2015.6999999999534,response,0.8494721812820843,1.2,-1.2,-1.3435429139974266,1.2,-1.2,high,low,,ISIC_1488727.JPG,,ISIC_0033585.JPG,,29,true,0.3600000000000002,hl,keypress(j),100,false,1574282.8999999762,1574282.5,1572250.032,1572343.1999999285,1572266.8,1574201.1,1,16,16,
sequence,flow.Sequence,4_15,2024-03-19T18:02:34.947Z,,,,,,,,,,,2015.6999999999534,completion,,,,,,,high,low,,,,,,,true,,,,,false,1574283.5,1574282.5,1572250.032,1572343.1999999285,1572266.8,1574201.1,1,16,,
demonstration_loop,flow.Loop,4,2024-03-19T18:02:34.948Z,,,,,,,,,,,109637.96999999997,completion,,,,,,,,,,,,,,,true,,,,,false,1574283.8999999762,1574282.5,1464644.53,1464736,1464644.53,1574201.1,1,16,,
practice_instructions,html.Screen,5,2024-03-19T18:02:50.025Z,,,,,,,,,,,15150.599999928381,response,,,,,,,,,,,,,,,,,continue,click button,,,1589361.5,1589351.6999999285,1574185.026,1574284,1574201.1,1589263.896,,,,
trial,html.Screen,6_0_0,2024-03-19T18:03:06.021Z,,,,1,-1.2872758518949912,-1.313723254903214,,,,,16012.904000000097,timeout,1.301795918505203,1.2,-1.2,1.0518606632781424,1.2,-1.2,high,high,,ISIC_0064376.JPG,,ISIC_0027666.JPG,,25,true,0.15000000000000002,,,0,false,1605357.5,1605357.2999999523,1589263.896,1589361.5999999046,1589263.896,1605276.8,1,40,1,
sequence,flow.Sequence,6_0,2024-03-19T18:03:06.022Z,,,,,,,,,,,16093.403999952367,completion,,,,,,,high,high,,,,,,,true,,,,,false,1605357.5999999046,1605357.2999999523,1589263.896,1589361.5999999046,1589263.896,1605276.8,1,40,,
trial,html.Screen,6_1_0,2024-03-19T18:03:10.177Z,,,,1,-1.189469386514313,-1.3008582067137853,,,true,hh,4236.199999999953,response,1.1638334638021437,1.2,-1.2,1.0846635401396965,1.2,-1.2,high,high,,ISIC_0010644.JPG,,ISIC_4718313.JPG,,25,true,0.15000000000000002,hh,keypress(i),0,false,1609513.0999999046,1609513,1605259.9,1605357.6999999285,1605276.8,1609428.04,1,40,2,
sequence,flow.Sequence,6_1,2024-03-19T18:03:10.177Z,,,,,,,,,,,4236.199999999953,completion,,,,,,,high,high,,,,,,,true,,,,,false,1609513.2999999523,1609513,1605259.9,1605357.6999999285,1605276.8,1609428.04,1,40,,
trial,html.Screen,6_2_0,2024-03-19T18:03:15.739Z,,,,1,-1.0264463986917702,1.171271535505083,,,true,hl,5646.259999952279,response,0.9445114955578736,1.2,-1.2,-1.0054210059625863,1.2,-1.2,high,low,,ISIC_7889838.JPG,,ISIC_0033807.JPG,,29,true,0.3600000000000002,hl,keypress(j),0,false,1615074.7999999523,1615074.2999999523,1609428.04,1609513.2999999523,1609428.04,1614984.9,1,40,3,
sequence,flow.Sequence,6_2,2024-03-19T18:03:15.740Z,,,,,,,,,,,5646.259999952279,completion,,,,,,,high,low,,,,,,,true,,,,,false,1615075.3999999762,1615074.2999999523,1609428.04,1609513.2999999523,1609428.04,1614984.9,1,40,,
trial,html.Screen,6_3_0,2024-03-19T18:03:19.931Z,,,,1,-1.0345332538240786,1.4719115945084815,,,false,hl,4281.699999904726,response,1.064425982109969,1.2,-1.2,-0.958564243697126,1.2,-1.2,high,low,,ISIC_0192490.JPG,,ISIC_3203344.JPG,,29,true,0.3600000000000002,hh,keypress(i),0,false,1619267.0999999046,1619266.5999999046,1614981.218,1615075.7999999523,1614984.9,1619171.7,1,40,4,
sequence,flow.Sequence,6_3,2024-03-19T18:03:19.932Z,,,,,,,,,,,4281.699999904726,completion,,,,,,,high,low,,,,,,,true,,,,,false,1619267.6999999285,1619266.5999999046,1614981.218,1615075.6999999285,1614984.9,1619171.7,1,40,,
trial,html.Screen,6_4_0,2024-03-19T18:03:26.267Z,,,,1,-1.0700930503975157,0.923753102263735,,,false,hl,6430.699999976205,response,1.3411487193830047,1.2,-1.2,-1.198640448317381,1.2,-1.2,high,low,,ISIC_0000022.JPG,,ISIC_3093026.JPG,,29,true,0.3600000000000002,hh,keypress(i),0,false,1625602.8999999762,1625602.3999999762,1619169.096,1619268,1619171.7,1625510.2,1,40,5,
sequence,flow.Sequence,6_4,2024-03-19T18:03:26.268Z,,,,,,,,,,,6430.699999976205,completion,,,,,,,high,low,,,,,,,true,,,,,false,1625603.5,1625602.3999999762,1619169.096,1619267.8999999762,1619171.7,1625510.2,1,40,,
trial,html.Screen,6_5_0,2024-03-19T18:03:31.592Z,,,,1,1.0959058628476686,1.2921331918483707,,,true,ll,5417.800000000047,response,-1.5275825121607796,1.2,-1.2,-0.9397522689480928,1.2,-1.2,low,low,,ISIC_5920470.JPG,,ISIC_1200192.JPG,,211,true,0.3300000000000002,ll,keypress(f),0,false,1630928.0999999046,1630928,1625506.154,1625603.7999999523,1625510.2,1630830.8,1,40,6,
sequence,flow.Sequence,6_5,2024-03-19T18:03:31.592Z,,,,,,,,,,,5417.800000000047,completion,,,,,,,low,low,,,,,,,true,,,,,false,1630928.1999999285,1630928,1625506.154,1625603.6999999285,1625510.2,1630830.8,1,40,,
trial,html.Screen,6_6_0,2024-03-19T18:03:37.531Z,,,,1,-1.194799101954455,-1.2071632388858642,,,true,hh,6035.299999904586,response,1.1217390688497193,1.2,-1.2,1.2276600934505035,1.2,-1.2,high,high,,ISIC_4347535.JPG,,ISIC_0026344.JPG,,25,true,0.15000000000000002,hh,keypress(i),0,false,1636866.6999999285,1636866.0999999046,1630814.7,1630928.2999999523,1630830.8,1636786,1,40,7,
sequence,flow.Sequence,6_6,2024-03-19T18:03:37.531Z,,,,,,,,,,,6035.299999904586,completion,,,,,,,high,high,,,,,,,true,,,,,false,1636867.2999999523,1636866.0999999046,1630814.7,1630928.1999999285,1630830.8,1636786,1,40,,
trial,html.Screen,6_7_0,2024-03-19T18:03:42.411Z,,,,1,-0.9566823908868002,0.9602125665128364,,,true,hl,4960.799999952316,response,1.4748095371445096,1.2,-1.2,-0.9579010801034902,1.2,-1.2,high,low,,ISIC_0056784.JPG,,ISIC_0033216.JPG,,29,true,0.3600000000000002,hl,keypress(j),0,false,1641747.2999999523,1641746.7999999523,1636782.058,1636867.5999999046,1636786,1641656.8,1,40,8,
sequence,flow.Sequence,6_7,2024-03-19T18:03:42.412Z,,,,,,,,,,,4960.799999952316,completion,,,,,,,high,low,,,,,,,true,,,,,false,1641748,1641746.7999999523,1636782.058,1636867.5,1636786,1641656.8,1,40,,
trial,html.Screen,6_8_0,2024-03-19T18:03:47.147Z,,,,1,1.0959058628476686,1.2921331918483707,,,true,ll,4825.299999904586,response,-1.396442510103573,1.2,-1.2,-1.1384820185296218,1.2,-1.2,low,low,,ISIC_5920470.JPG,,ISIC_0001118.JPG,,211,true,0.3300000000000002,ll,keypress(f),0,false,1646482.5,1646482.0999999046,1641640.5,1641748.2999999523,1641656.8,1646394.7,1,40,9,
sequence,flow.Sequence,6_8,2024-03-19T18:03:47.147Z,,,,,,,,,,,4825.299999904586,completion,,,,,,,low,low,,,,,,,true,,,,,false,1646483.2999999523,1646482.0999999046,1641640.5,1641748.1999999285,1641656.8,1646394.7,1,40,,
trial,html.Screen,6_9_0,2024-03-19T18:03:51.163Z,,,,1,1.301795918505203,1.0518606632781424,,,true,ll,4103.399999904679,response,-1.2893246069103816,1.2,-1.2,-1.0655029133871594,1.2,-1.2,low,low,,ISIC_0027666.JPG,,ISIC_0070747.JPG,,41,true,0.15000000000000002,ll,keypress(f),0,false,1650498.5,1650498.0999999046,1646377.7,1646483.5,1646394.7,1650414,1,40,10,
sequence,flow.Sequence,6_9,2024-03-19T18:03:51.163Z,,,,,,,,,,,4103.399999904679,completion,,,,,,,low,low,,,,,,,true,,,,,false,1650499.0999999046,1650498.0999999046,1646377.7,1646483.5,1646394.7,1650414,1,40,,
trial,html.Screen,6_10_0,2024-03-19T18:03:58.808Z,,,,1,0.8494721812820843,-1.3435429139974266,,,false,lh,7730,response,-0.9566823908868002,1.2,-1.2,0.9602125665128364,1.2,-1.2,low,high,,ISIC_0033585.JPG,,ISIC_0056784.JPG,,26,true,0.3300000000000002,ll,keypress(f),0,false,1658144.1999999285,1658144,1650411.812,1650499.2999999523,1650414,1658053.7,1,40,11,
sequence,flow.Sequence,6_10,2024-03-19T18:03:58.808Z,,,,,,,,,,,7730,completion,,,,,,,low,high,,,,,,,true,,,,,false,1658144.2999999523,1658144,1650411.812,1650499.1999999285,1650414,1658053.7,1,40,,
trial,html.Screen,6_11_0,2024-03-19T18:04:01.499Z,,,,1,1.1217390688497193,1.2276600934505035,,,true,ll,2780.499999928521,response,-0.9506699737853276,1.2,-1.2,-0.988934053363149,1.2,-1.2,low,low,,ISIC_0026344.JPG,,ISIC_0014217.JPG,,249,true,0.3600000000000002,ll,keypress(f),0,false,1660834.5999999046,1660834.1999999285,1658037.4,1658144.2999999523,1658053.7,1660739.3,1,40,12,
sequence,flow.Sequence,6_11,2024-03-19T18:04:01.499Z,,,,,,,,,,,2780.499999928521,completion,,,,,,,low,low,,,,,,,true,,,,,false,1660835.1999999285,1660834.1999999285,1658037.4,1658144.2999999523,1658053.7,1660739.3,1,40,,
trial,html.Screen,6_12_0,2024-03-19T18:04:03.656Z,,,,1,1.0581281450494728,1.133169116569424,,,true,ll,2252.5999999761116,response,-1.152619213055059,1.2,-1.2,-1.2957497771092716,1.2,-1.2,low,low,,ISIC_5490352.JPG,,ISIC_0061915.JPG,,41,true,0.15000000000000002,ll,keypress(f),0,false,1662992.0999999046,1662991.8999999762,1660738.232,1660835.5999999046,1660739.3,1662891.1,1,40,13,
sequence,flow.Sequence,6_12,2024-03-19T18:04:03.656Z,,,,,,,,,,,2252.5999999761116,completion,,,,,,,low,low,,,,,,,true,,,,,false,1662992.1999999285,1662991.8999999762,1660738.232,1660835.5,1660739.3,1662891.1,1,40,,
trial,html.Screen,6_13_0,2024-03-19T18:04:07.899Z,,,,1,-1.2232482867978696,-1.2451219760556858,,,true,hh,4343.399999999907,response,1.0581281450494728,1.2,-1.2,1.133169116569424,1.2,-1.2,high,high,,ISIC_0030889.JPG,,ISIC_5490352.JPG,,25,true,0.15000000000000002,hh,keypress(i),0,false,1667235,1667234.5,1662890.454,1662992.1999999285,1662891.1,1667144.6,1,40,14,
sequence,flow.Sequence,6_13,2024-03-19T18:04:07.900Z,,,,,,,,,,,4343.399999999907,completion,,,,,,,high,high,,,,,,,true,,,,,false,1667235.6999999285,1667234.5,1662890.454,1662992.1999999285,1662891.1,1667144.6,1,40,,
trial,html.Screen,6_14_0,2024-03-19T18:04:14.427Z,,,,1,1.1235224875125256,-0.8641223012137988,,,false,lh,6618.399999999907,response,-0.9873794329144926,1.2,-1.2,0.9500689037516484,1.2,-1.2,low,high,,ISIC_0033901.JPG,,ISIC_0013498.JPG,,26,true,0.3300000000000002,ll,keypress(f),0,false,1673763.5,1673763,1667142.37,1667236,1667144.6,1673666.6,1,40,15,
sequence,flow.Sequence,6_14,2024-03-19T18:04:14.428Z,,,,,,,,,,,6618.399999999907,completion,,,,,,,low,high,,,,,,,true,,,,,false,1673764.0999999046,1673763,1667142.37,1667235.8999999762,1667144.6,1673666.6,1,40,,
trial,html.Screen,6_15_0,2024-03-19T18:04:20.923Z,,,,1,1.1727618800748076,1.0636787813411093,,,true,ll,6591.899999999907,response,-1.0570280672376675,1.2,-1.2,-1.0932046580095067,1.2,-1.2,low,low,,ISIC_9690371.JPG,,ISIC_0061320.JPG,,249,true,0.3600000000000002,ll,keypress(f),0,false,1680258.7999999523,1680258.5,1673662.346,1673764.2999999523,1673666.6,1680172.5,1,40,16,
sequence,flow.Sequence,6_15,2024-03-19T18:04:20.923Z,,,,,,,,,,,6591.899999999907,completion,,,,,,,low,low,,,,,,,true,,,,,false,1680259.5,1680258.5,1673662.346,1673764.2999999523,1673666.6,1680172.5,1,40,,
trial,html.Screen,6_16_0,2024-03-19T18:04:32.619Z,,,,1,-1.2974483548597415,-1.2071506593281005,,,true,hh,11782.099999904633,response,1.1305948371148624,1.2,-1.2,1.2802709447034604,1.2,-1.2,high,high,,ISIC_0011007.JPG,,ISIC_5648111.JPG,,25,true,0.15000000000000002,hh,keypress(i),0,false,1691955,1691954.5999999046,1680151.014,1680259.6999999285,1680172.5,1691872.628,1,40,17,
sequence,flow.Sequence,6_16,2024-03-19T18:04:32.619Z,,,,,,,,,,,11782.099999904633,completion,,,,,,,high,high,,,,,,,true,,,,,false,1691955.5999999046,1691954.5999999046,1680151.014,1680259.6999999285,1680172.5,1691872.628,1,40,,
trial,html.Screen,6_17_0,2024-03-19T18:04:38.699Z,,,,1,1.3411487193830047,-1.198640448317381,,,false,lh,6161.771999976132,response,-0.9566823908868002,1.2,-1.2,0.9602125665128364,1.2,-1.2,low,high,,ISIC_3093026.JPG,,ISIC_0056784.JPG,,26,true,0.3300000000000002,ll,keypress(f),0,false,1698034.8999999762,1698034.3999999762,1691872.628,1691955.8999999762,1691872.628,1697949.464,1,40,18,
sequence,flow.Sequence,6_17,2024-03-19T18:04:38.699Z,,,,,,,,,,,6161.771999976132,completion,,,,,,,low,high,,,,,,,true,,,,,false,1698035.5999999046,1698034.3999999762,1691872.628,1691955.7999999523,1691872.628,1697949.464,1,40,,
trial,html.Screen,6_18_0,2024-03-19T18:04:42.603Z,,,,1,-0.9225524349657857,0.929746784178986,,,false,hl,3989.03600000008,response,0.849847885203758,1.2,-1.2,-0.973447384095442,1.2,-1.2,high,low,,ISIC_0011077.JPG,,ISIC_9612228.JPG,,29,true,0.3600000000000002,hh,keypress(i),0,false,1701938.8999999762,1701938.5,1697949.464,1698035.7999999523,1697949.464,1701856.4,1,40,19,
sequence,flow.Sequence,6_18,2024-03-19T18:04:42.603Z,,,,,,,,,,,3989.03600000008,completion,,,,,,,high,low,,,,,,,true,,,,,false,1701939.5999999046,1701938.5,1697949.464,1698035.6999999285,1697949.464,1701856.4,1,40,,
trial,html.Screen,6_19_0,2024-03-19T18:04:47.547Z,,,,1,-1.2704198237183777,1.138121072015301,,,false,hl,5026.399999952409,response,1.225025174430573,1.2,-1.2,-0.8422679054456499,1.2,-1.2,high,low,,ISIC_0501843.JPG,,ISIC_7503950.JPG,,29,true,0.3600000000000002,hh,keypress(i),0,false,1706883.0999999046,1706882.7999999523,1701854.284,1701939.8999999762,1701856.4,1706793.9,1,40,20,
sequence,flow.Sequence,6_19,2024-03-19T18:04:47.548Z,,,,,,,,,,,5026.399999952409,completion,,,,,,,high,low,,,,,,,true,,,,,false,1706883.6999999285,1706882.7999999523,1701854.284,1701939.7999999523,1701856.4,1706793.9,1,40,,
trial,html.Screen,6_20_0,2024-03-19T18:04:54.347Z,,,,1,1.064425982109969,-0.958564243697126,,,true,lh,6888.399999952409,response,-1.2704198237183777,1.2,-1.2,1.138121072015301,1.2,-1.2,low,high,,ISIC_3203344.JPG,,ISIC_0501843.JPG,,26,true,0.3300000000000002,lh,keypress(e),0,false,1713682.6999999285,1713682.2999999523,1706790.866,1706883.8999999762,1706793.9,1713594.858,1,40,21,
sequence,flow.Sequence,6_20,2024-03-19T18:04:54.347Z,,,,,,,,,,,6888.399999952409,completion,,,,,,,low,high,,,,,,,true,,,,,false,1713683.1999999285,1713682.2999999523,1706790.866,1706883.8999999762,1706793.9,1713594.858,1,40,,
trial,html.Screen,6_21_0,2024-03-19T18:05:03.291Z,,,,1,1.4748095371445096,-0.9579010801034902,,,true,lh,9031.841999928467,response,-0.9293545888449,1.2,-1.2,1.551750455622795,1.2,-1.2,low,high,,ISIC_0033216.JPG,,ISIC_7717907.JPG,,33,true,0.3600000000000002,lh,keypress(e),0,false,1722627.1999999285,1722626.6999999285,1713594.858,1713683.6999999285,1713594.858,1722540.8,1,40,22,
sequence,flow.Sequence,6_21,2024-03-19T18:05:03.292Z,,,,,,,,,,,9031.841999928467,completion,,,,,,,low,high,,,,,,,true,,,,,false,1722627.8999999762,1722626.6999999285,1713594.858,1713683.5999999046,1713594.858,1722540.8,1,40,,
trial,html.Screen,6_22_0,2024-03-19T18:05:08.392Z,,,,1,-1.1407514641016443,-1.280017651202714,,,true,hh,5187.199999999953,response,1.2200968917423711,1.2,-1.2,1.3183466064109373,1.2,-1.2,high,high,,ISIC_0072507.JPG,,ISIC_3624318.JPG,,157,true,0.3600000000000002,hh,keypress(i),0,false,1727728.0999999046,1727728,1722517.25,1722628.1999999285,1722540.8,1727627.7,1,40,23,
sequence,flow.Sequence,6_22,2024-03-19T18:05:08.392Z,,,,,,,,,,,5187.199999999953,completion,,,,,,,high,high,,,,,,,true,,,,,false,1727728.2999999523,1727728,1722517.25,1722628.0999999046,1722540.8,1727627.7,1,40,,
trial,html.Screen,6_23_0,2024-03-19T18:05:18.859Z,,,,1,1.301795918505203,1.0518606632781424,,,true,ll,10566.89999990468,response,-1.1474466950560966,1.2,-1.2,-1.173734476257662,1.2,-1.2,low,low,,ISIC_0027666.JPG,,ISIC_5216586.JPG,,27,true,0.12,ll,keypress(f),0,false,1738195.0999999046,1738194.5999999046,1727624.736,1727728.2999999523,1727627.7,1738119.7,1,40,24,
sequence,flow.Sequence,6_23,2024-03-19T18:05:18.859Z,,,,,,,,,,,10566.89999990468,completion,,,,,,,low,low,,,,,,,true,,,,,false,1738195.6999999285,1738194.5999999046,1727624.736,1727728.2999999523,1727627.7,1738119.7,1,40,,
trial,html.Screen,6_24_0,2024-03-19T18:05:29.515Z,,,,1,-1.2704198237183777,1.138121072015301,,,false,hl,10731.199999976205,response,0.8534691366511764,1.2,-1.2,-1.276663727068437,1.2,-1.2,high,low,,ISIC_0501843.JPG,,ISIC_0056788.JPG,,29,true,0.3600000000000002,hh,keypress(i),0,false,1748851.3999999762,1748850.8999999762,1738112.154,1738196,1738119.7,1748761.8,1,40,25,
sequence,flow.Sequence,6_24,2024-03-19T18:05:29.515Z,,,,,,,,,,,10731.199999976205,completion,,,,,,,high,low,,,,,,,true,,,,,false,1748851.7999999523,1748850.8999999762,1738112.154,1738195.8999999762,1738119.7,1748761.8,1,40,,
trial,html.Screen,6_25_0,2024-03-19T18:05:41.371Z,,,,1,-1.1474466950560966,-1.173734476257662,,,true,hh,11944.699999999953,response,1.1305948371148624,1.2,-1.2,1.2802709447034604,1.2,-1.2,high,high,,ISIC_5216586.JPG,,ISIC_5648111.JPG,,127,true,0.3300000000000002,hh,keypress(i),0,false,1760707,1760706.5,1748754.248,1748852.0999999046,1748761.8,1760621.7,1,40,26,
sequence,flow.Sequence,6_25,2024-03-19T18:05:41.371Z,,,,,,,,,,,11944.699999999953,completion,,,,,,,high,high,,,,,,,true,,,,,false,1760707.6999999285,1760706.5,1748754.248,1748852.0999999046,1748761.8,1760621.7,1,40,,
trial,html.Screen,6_26_0,2024-03-19T18:05:51.306Z,,,,1,1.1235224875125256,-0.8641223012137988,,,false,lh,10020.39999990468,response,-1.0961318727760048,1.2,-1.2,1.2134960228256146,1.2,-1.2,low,high,,ISIC_0033901.JPG,,ISIC_9768421.JPG,,26,true,0.3300000000000002,ll,keypress(f),0,false,1770642.3999999762,1770642.0999999046,1760612.366,1760708,1760621.7,1770546.5,1,40,27,
sequence,flow.Sequence,6_26,2024-03-19T18:05:51.307Z,,,,,,,,,,,10020.39999990468,completion,,,,,,,low,high,,,,,,,true,,,,,false,1770643,1770642.0999999046,1760612.366,1760707.8999999762,1760621.7,1770546.5,1,40,,
trial,html.Screen,6_27_0,2024-03-19T18:05:59.834Z,,,,1,1.2615315960773072,-1.194084675079932,,,true,lh,8623.799999952316,response,-1.296989496412063,1.2,-1.2,1.1425074323097002,1.2,-1.2,low,high,,ISIC_0010044.JPG,,ISIC_6356803.JPG,,33,true,0.3600000000000002,lh,keypress(e),0,false,1779170.6999999285,1779170.2999999523,1770538.81,1770643.2999999523,1770546.5,1779080.532,1,40,28,
sequence,flow.Sequence,6_27,2024-03-19T18:05:59.835Z,,,,,,,,,,,8623.799999952316,completion,,,,,,,low,high,,,,,,,true,,,,,false,1779171.2999999523,1779170.2999999523,1770538.81,1770643.1999999285,1770546.5,1779080.532,1,40,,
trial,html.Screen,6_28_0,2024-03-19T18:06:03.962Z,,,,1,-0.9046170303418553,1.0063426986460375,,,false,hl,4217.667999928584,response,0.9039158082670506,1.2,-1.2,-1.0517562064343149,1.2,-1.2,high,low,,ISIC_0055759.JPG,,ISIC_0015411.JPG,,29,true,0.3600000000000002,hh,keypress(i),0,false,1783298.5999999046,1783298.1999999285,1779080.532,1779171.5,1779080.532,1783207.1,1,40,29,
sequence,flow.Sequence,6_28,2024-03-19T18:06:03.963Z,,,,,,,,,,,4217.667999928584,completion,,,,,,,high,low,,,,,,,true,,,,,false,1783299.1999999285,1783298.1999999285,1779080.532,1779171.5,1779080.532,1783207.1,1,40,,
trial,html.Screen,6_29_0,2024-03-19T18:06:07.578Z,,,,1,-1.1126049058422398,-1.2305421124063929,,,true,hh,3707.299999976065,response,1.0066944863194518,1.2,-1.2,1.2755557894401093,1.2,-1.2,high,high,,ISIC_0071536.JPG,,ISIC_3885041.JPG,,127,true,0.3300000000000002,hh,keypress(i),0,false,1786914.7999999523,1786914.3999999762,1783190.3,1783299.3999999762,1783207.1,1786827,1,40,30,
sequence,flow.Sequence,6_29,2024-03-19T18:06:07.579Z,,,,,,,,,,,3707.299999976065,completion,,,,,,,high,high,,,,,,,true,,,,,false,1786915.2999999523,1786914.3999999762,1783190.3,1783299.2999999523,1783207.1,1786827,1,40,,
trial,html.Screen,6_30_0,2024-03-19T18:06:12.570Z,,,,1,1.1638334638021437,1.0846635401396965,,,true,ll,5079.799999952316,response,-1.1407514641016443,1.2,-1.2,-1.280017651202714,1.2,-1.2,low,low,,ISIC_4718313.JPG,,ISIC_0072507.JPG,,27,true,0.12,ll,keypress(f),0,false,1791907.1999999285,1791906.7999999523,1786810.4,1786915.5999999046,1786827,1791814.1,1,40,31,
sequence,flow.Sequence,6_30,2024-03-19T18:06:12.571Z,,,,,,,,,,,5079.799999952316,completion,,,,,,,low,low,,,,,,,true,,,,,false,1791907.6999999285,1791906.7999999523,1786810.4,1786915.5999999046,1786827,1791814.1,1,40,,
trial,html.Screen,6_31_0,2024-03-19T18:06:15.962Z,,,,1,1.301795918505203,1.0518606632781424,,,true,ll,3483.799999976065,response,-1.1392234684115472,1.2,-1.2,-1.3198277407683998,1.2,-1.2,low,low,,ISIC_0027666.JPG,,ISIC_0071875.JPG,,41,true,0.15000000000000002,ll,keypress(f),0,false,1795298.2999999523,1795297.8999999762,1791811.274,1791907.8999999762,1791814.1,1795216.8,1,40,32,
sequence,flow.Sequence,6_31,2024-03-19T18:06:15.962Z,,,,,,,,,,,3483.799999976065,completion,,,,,,,low,low,,,,,,,true,,,,,false,1795298.7999999523,1795297.8999999762,1791811.274,1791907.7999999523,1791814.1,1795216.8,1,40,,
trial,html.Screen,6_32_0,2024-03-19T18:06:24.794Z,,,,1,1.1224745971429997,-0.8423270217438888,,,true,lh,8913.699999999953,response,-1.1592423187534993,1.2,-1.2,1.067128884093211,1.2,-1.2,low,high,,ISIC_0057032.JPG,,ISIC_6854940.JPG,,26,true,0.3300000000000002,lh,keypress(e),0,false,1804130.8999999762,1804130.5,1795215.204,1795299.0999999046,1795216.8,1804040.9,1,40,33,
sequence,flow.Sequence,6_32,2024-03-19T18:06:24.795Z,,,,,,,,,,,8913.699999999953,completion,,,,,,,low,high,,,,,,,true,,,,,false,1804131.3999999762,1804130.5,1795215.204,1795299,1795216.8,1804040.9,1,40,,
trial,html.Screen,6_33_0,2024-03-19T18:06:28.186Z,,,,1,1.2200968917423711,1.3183466064109373,,,true,ll,3481.4999999762513,response,-0.9585938767259125,1.2,-1.2,-0.8493445183566039,1.2,-1.2,low,low,,ISIC_3624318.JPG,,ISIC_0055003.JPG,,249,true,0.3600000000000002,ll,keypress(f),0,false,1807522.7999999523,1807522.3999999762,1804034.454,1804131.6999999285,1804040.9,1807427.1,1,40,34,
sequence,flow.Sequence,6_33,2024-03-19T18:06:28.187Z,,,,,,,,,,,3481.4999999762513,completion,,,,,,,low,low,,,,,,,true,,,,,false,1807523.3999999762,1807522.3999999762,1804034.454,1804131.5999999046,1804040.9,1807427.1,1,40,,
trial,html.Screen,6_34_0,2024-03-19T18:06:32.522Z,,,,1,0.849847885203758,-0.973447384095442,,,true,lh,4431.099999928381,response,-1.1592423187534993,1.2,-1.2,1.067128884093211,1.2,-1.2,low,high,,ISIC_9612228.JPG,,ISIC_6854940.JPG,,26,true,0.3300000000000002,lh,keypress(e),0,false,1811858.5999999046,1811858.1999999285,1807425.538,1807523.5999999046,1807427.1,1811764,1,40,35,
sequence,flow.Sequence,6_34,2024-03-19T18:06:32.522Z,,,,,,,,,,,4431.099999928381,completion,,,,,,,low,high,,,,,,,true,,,,,false,1811859.0999999046,1811858.1999999285,1807425.538,1807523.5,1807427.1,1811764,1,40,,
trial,html.Screen,6_35_0,2024-03-19T18:06:34.634Z,,,,1,-1.1407514641016443,-1.280017651202714,,,true,hh,2206,response,1.003694288339796,1.2,-1.2,0.8462905128253329,1.2,-1.2,high,high,,ISIC_0072507.JPG,,ISIC_2876073.JPG,,157,true,0.3600000000000002,hh,keypress(i),0,false,1813970.3999999762,1813970,1811761.334,1811859.2999999523,1811764,1813882.3,1,40,36,
sequence,flow.Sequence,6_35,2024-03-19T18:06:34.634Z,,,,,,,,,,,2206,completion,,,,,,,high,high,,,,,,,true,,,,,false,1813970.8999999762,1813970,1811761.334,1811859.1999999285,1811764,1813882.3,1,40,,
trial,html.Screen,6_36_0,2024-03-19T18:06:40.234Z,,,,1,-0.9566823908868002,0.9602125665128364,,,true,hl,5688.399999928428,response,0.9013888878932071,1.2,-1.2,-0.9328095253308732,1.2,-1.2,high,low,,ISIC_0056784.JPG,,ISIC_0068259.JPG,,29,true,0.3600000000000002,hl,keypress(j),0,false,1819571.1999999285,1819570.6999999285,1813881.922,1813971.1999999285,1813882.3,1819483.55,1,40,37,
sequence,flow.Sequence,6_36,2024-03-19T18:06:40.235Z,,,,,,,,,,,5688.399999928428,completion,,,,,,,high,low,,,,,,,true,,,,,false,1819571.7999999523,1819570.6999999285,1813881.922,1813971.0999999046,1813882.3,1819483.55,1,40,,
trial,html.Screen,6_37_0,2024-03-19T18:06:45.226Z,,,,1,0.8644465729542988,-0.8679598285079457,,,true,lh,5078.849999976112,response,-1.296989496412063,1.2,-1.2,1.1425074323097002,1.2,-1.2,low,high,,ISIC_6718969.JPG,,ISIC_6356803.JPG,,26,true,0.3300000000000002,lh,keypress(e),0,false,1824562.7999999523,1824562.3999999762,1819483.55,1819572,1819483.55,1824474.7,1,40,38,
sequence,flow.Sequence,6_37,2024-03-19T18:06:45.227Z,,,,,,,,,,,5078.849999976112,completion,,,,,,,low,high,,,,,,,true,,,,,false,1824563.3999999762,1824562.3999999762,1819483.55,1819571.8999999762,1819483.55,1824474.7,1,40,,
trial,html.Screen,6_38_0,2024-03-19T18:06:47.402Z,,,,1,-1.1392234684115472,-1.3198277407683998,,,true,hh,2263.6999999762047,response,1.3471772753257971,1.2,-1.2,1.055978100098093,1.2,-1.2,high,high,,ISIC_0071875.JPG,,ISIC_2077116.JPG,,157,true,0.3600000000000002,hh,keypress(i),0,false,1826738.7999999523,1826738.3999999762,1824458.1,1824563.6999999285,1824474.7,1826659.4,1,40,39,
sequence,flow.Sequence,6_38,2024-03-19T18:06:47.403Z,,,,,,,,,,,2263.6999999762047,completion,,,,,,,high,high,,,,,,,true,,,,,false,1826739.2999999523,1826738.3999999762,1824458.1,1824563.5999999046,1824474.7,1826659.4,1,40,,
trial,html.Screen,6_39_0,2024-03-19T18:06:49.642Z,,,,1,-0.8709576717420565,1.2795156779072283,,,true,hl,2319.100000000093,response,1.2615315960773072,1.2,-1.2,-1.194084675079932,1.2,-1.2,high,low,,ISIC_1925632.JPG,,ISIC_0010044.JPG,,29,true,0.3600000000000002,hl,keypress(j),0,false,1828978.8999999762,1828978.5,1826658.742,1826739.5999999046,1826659.4,1828878.1,1,40,40,
sequence,flow.Sequence,6_39,2024-03-19T18:06:49.643Z,,,,,,,,,,,2319.100000000093,completion,,,,,,,high,low,,,,,,,true,,,,,false,1828979.5,1828978.5,1826658.742,1826739.5,1826659.4,1828878.1,1,40,,
practice_loop,flow.Loop,6,2024-03-19T18:06:49.643Z,,,,,,,,,,,239714.60400000005,completion,,,,,,,,,,,,,,,true,,,,,false,1828979.7999999523,1828978.5,1589263.896,1589361.5,1589263.896,1828878.1,1,40,,
stair_instructions,html.Screen,7,2024-03-19T18:07:11.840Z,,,,,,,,,,,22297.99999990454,response,,,,,,,,,,,,,,,,,continue,click button,,,1851176.7999999523,1851176.0999999046,1828877.218,1828980,1828878.1,1851080.084,,,,
trial,html.Screen,8_0_0,2024-03-19T18:07:27.837Z,,,,2,0.0365981355399771,0.0162670920008846,,0.04,,,16012.815999999875,timeout,0.9013888878932071,1.2,-1.2,-0.9328095253308732,1.2,-1.2,high,low,,ISIC_0982855.JPG,,ISIC_0068259.JPG,28,29,false,0.3600000000000002,,,0,true,1867173.5999999046,1867173.5,1851080.084,1851176.8999999762,1851080.084,1867092.9,1,40,1,
sequence,flow.Sequence,8_0,2024-03-19T18:07:27.837Z,,,,,,,,,,,16093.415999999968,completion,,,,,,,high,low,,,,,,,false,,,,,true,1867173.7999999523,1867173.5,1851080.084,1851176.8999999762,1851080.084,1867092.9,1,40,,
trial,html.Screen,8_1_0,2024-03-19T18:07:36.305Z,,,,2,-0.0158987717472563,-0.0292472192292015,,0.04,false,lh,8549.299999928568,response,-1.2704198237183777,1.2,-1.2,1.138121072015301,1.2,-1.2,low,high,,ISIC_1366765.JPG,,ISIC_0501843.JPG,28,26,false,0.3300000000000002,hh,keypress(i),0,true,1875642.2999999523,1875642.1999999285,1867076.2,1867173.7999999523,1867092.9,1875567,1,40,2,
sequence,flow.Sequence,8_1,2024-03-19T18:07:36.306Z,,,,,,,,,,,8549.299999928568,completion,,,,,,,low,high,,,,,,,false,,,,,true,1875642.3999999762,1875642.1999999285,1867076.2,1867173.7999999523,1867092.9,1875567,1,40,,
trial,html.Screen,8_2_0,2024-03-19T18:07:43.361Z,,,,2,0.010035581303589,-0.0100711721396864,,0.04,true,hh,7131.199999928474,response,1.1569583426015195,1.15,-1.2,1.02258614327008,1.15,-1.15,high,high,,ISIC_0030592.JPG,,ISIC_5705973.JPG,28,26,false,0.14,hh,keypress(i),0,true,1882698.2999999523,1882698.1999999285,1875550.4,1875642.5,1875567,1882605.7,1,40,3,
sequence,flow.Sequence,8_2,2024-03-19T18:07:43.362Z,,,,,,,,,,,7131.199999928474,completion,,,,,,,high,high,,,,,,,false,,,,,true,1882698.5,1882698.1999999285,1875550.4,1875642.5,1875567,1882605.7,1,40,,
trial,html.Screen,8_3_0,2024-03-19T18:07:48.058Z,,,,2,-0.0050679133050021,-0.0174815595031679,,0.04,false,lh,4789.300000000047,response,-1.0961318727760048,1.15,-1.15,1.2134960228256146,1.0397722429357998,-1.15,low,high,,ISIC_9848743.JPG,,ISIC_9768421.JPG,28,26,false,0.2600000000000001,hh,keypress(i),0,true,1887395.3999999762,1887395,1882600.924,1882698.5999999046,1882605.7,1887310.1,1,40,4,
sequence,flow.Sequence,8_3,2024-03-19T18:07:48.059Z,,,,,,,,,,,4789.300000000047,completion,,,,,,,low,high,,,,,,,false,,,,,true,1887396,1887395,1882600.924,1882698.5,1882605.7,1887310.1,1,40,,
trial,html.Screen,8_4_0,2024-03-19T18:07:55.018Z,,,,2,-0.0118555311043871,-0.0087774532070196,,0.04,true,hl,7044.399999999907,response,1.064425982109969,1.15,-1.15,-0.958564243697126,1.0397722429357998,-1.15,high,low,,ISIC_6488658.JPG,,ISIC_3203344.JPG,28,27,false,0.31000000000000016,hl,keypress(j),0,true,1894354.8999999762,1894354.5,1887290.086,1887396.2999999523,1887310.1,1894265.5,1,40,5,
sequence,flow.Sequence,8_4,2024-03-19T18:07:55.019Z,,,,,,,,,,,7044.399999999907,completion,,,,,,,high,low,,,,,,,false,,,,,true,1894355.3999999762,1894354.5,1887290.086,1887396.1999999285,1887310.1,1894265.5,1,40,,
trial,html.Screen,8_5_0,2024-03-19T18:08:03.643Z,,,,2,-0.0060934073440827,-0.0279108145883031,,0.04,true,ll,8714,response,-1.1671212908494544,1.0999999999999999,-1.15,-1.1286681796701683,1.0397722429357998,-1.15,low,low,,ISIC_0032604.JPG,,ISIC_0065022.JPG,28,25,false,0.11,ll,keypress(f),0,true,1902980,1902979.5,1894260.662,1894355.6999999285,1894265.5,1902889.3,1,40,6,
sequence,flow.Sequence,8_5,2024-03-19T18:08:03.644Z,,,,,,,,,,,8714,completion,,,,,,,low,low,,,,,,,false,,,,,true,1902980.5999999046,1902979.5,1894260.662,1894355.5999999046,1894265.5,1902889.3,1,40,,
trial,html.Screen,8_6_0,2024-03-19T18:08:09.337Z,,,,2,-0.0166849894750452,0.0371614812368835,,0.04,true,ll,5784.49999995227,response,-1.094624209823328,1.0999999999999999,-1.15,-1.0544499428769605,1.0397722429357998,-1.0978947352598112,low,low,,ISIC_6231450.JPG,,ISIC_0055526.JPG,28,27,false,0.11,ll,keypress(f),0,true,1908674,1908673.7999999523,1902883.162,1902980.7999999523,1902889.3,1908576.5,1,40,7,
sequence,flow.Sequence,8_6,2024-03-19T18:08:09.337Z,,,,,,,,,,,5784.49999995227,completion,,,,,,,low,low,,,,,,,false,,,,,true,1908674.1999999285,1908673.7999999523,1902883.162,1902980.7999999523,1902889.3,1908576.5,1,40,,
trial,html.Screen,8_7_0,2024-03-19T18:08:19.719Z,,,,2,0.0063515208248796,0.0194177605767913,,0.04,false,ll,10480,response,-1.0053183338862537,1.0999999999999999,-1.0245370763501442,-1.0383223796934642,1.0397722429357998,-1.0978947352598112,low,low,,ISIC_5281908.JPG,,ISIC_0000519.JPG,28,33,false,0.1,lh,keypress(e),0,true,1919056.6999999285,1919056.5,1908573.646,1908674.3999999762,1908576.5,1918969,1,40,8,
sequence,flow.Sequence,8_7,2024-03-19T18:08:19.720Z,,,,,,,,,,,10480,completion,,,,,,,low,low,,,,,,,false,,,,,true,1919056.7999999523,1919056.5,1908573.646,1908674.3999999762,1908576.5,1918969,1,40,,
trial,html.Screen,8_8_0,2024-03-19T18:08:26.906Z,,,,2,0.0199897690678184,0.0312486875504497,,0.04,false,lh,7273.799999952316,response,-0.8087127179888679,1.0999999999999999,-1.0245370763501442,0.8480635840272462,1.0397722429357998,-1.1478947352598112,low,high,,ISIC_5482426.JPG,,ISIC_3941147.JPG,28,27,false,0.2300000000000001,hh,keypress(i),0,true,1926243.1999999285,1926242.7999999523,1918944.892,1919056.7999999523,1918969,1926141.6,1,40,9,
sequence,flow.Sequence,8_8,2024-03-19T18:08:26.906Z,,,,,,,,,,,7273.799999952316,completion,,,,,,,low,high,,,,,,,false,,,,,true,1926243.6999999285,1926242.7999999523,1918944.892,1919056.7999999523,1918969,1926141.6,1,40,,
trial,html.Screen,8_9_0,2024-03-19T18:08:31.114Z,,,,2,0.010035581303589,-0.0100711721396864,,0.04,true,hh,4309.699999952223,response,1.011737552725394,1.0999999999999999,-1.0745370763501443,1.0893360711742854,0.9897722429357998,-1.1478947352598112,high,high,,ISIC_0030592.JPG,,ISIC_2998367.JPG,28,25,false,0.1,hh,keypress(i),0,true,1930451.6999999285,1930451.2999999523,1926136.786,1926244,1926141.6,1930361.7,1,40,10,
sequence,flow.Sequence,8_9,2024-03-19T18:08:31.115Z,,,,,,,,,,,4309.699999952223,completion,,,,,,,high,high,,,,,,,false,,,,,true,1930452.2999999523,1930451.2999999523,1926136.786,1926244,1926141.6,1930361.7,1,40,,
trial,html.Screen,8_10_0,2024-03-19T18:08:34.551Z,,,,2,-0.0057914759495055,0.018500200317654,,0.04,true,hh,3526.8000000000466,response,1.09666761087476,1.0999999999999999,-1.0745370763501443,0.9917482735105084,0.9897722429357998,-1.1478947352598112,high,high,,ISIC_0058723.JPG,,ISIC_0071754.JPG,28,25,false,0.1,hh,keypress(i),0,true,1933888.5999999046,1933888.5,1930345.2,1930452.5,1930361.7,1933797.9,1,40,11,
sequence,flow.Sequence,8_10,2024-03-19T18:08:34.551Z,,,,,,,,,,,3526.8000000000466,completion,,,,,,,high,high,,,,,,,false,,,,,true,1933888.6999999285,1933888.5,1930345.2,1930452.5,1930361.7,1933797.9,1,40,,
trial,html.Screen,8_11_0,2024-03-19T18:08:36.744Z,,,,2,0.010035581303589,-0.0100711721396864,,0.04,true,hh,2283.4999999762513,response,0.9462198986993904,0.9905421723423968,-1.0745370763501443,1.067111862128132,0.9905421723423968,-1.1478947352598112,high,high,,ISIC_0030592.JPG,,ISIC_3564461.JPG,28,27,false,0.1,hh,keypress(i),0,true,1936081.3999999762,1936081.3999999762,1933781.2,1933888.6999999285,1933797.9,1935982.152,1,40,12,
sequence,flow.Sequence,8_11,2024-03-19T18:08:36.744Z,,,,,,,,,,,2283.4999999762513,completion,,,,,,,high,high,,,,,,,false,,,,,true,1936081.5,1936081.3999999762,1933781.2,1933888.6999999285,1933797.9,1935982.152,1,40,,
trial,html.Screen,8_12_0,2024-03-19T18:08:40.298Z,,,,2,0.0189295602385628,0.0128812415435153,,0.04,false,lh,3652.6479999523144,response,-0.9225524349657857,0.9905421723423968,-1.0745370763501443,0.929746784178986,0.9905421723423968,-1.1478947352598112,low,high,,ISIC_0010372.JPG,,ISIC_0011077.JPG,28,29,false,0.22000000000000008,ll,keypress(f),0,true,1939635.1999999285,1939634.7999999523,1935982.152,1936081.5999999046,1935982.152,1939536.1,1,40,13,
sequence,flow.Sequence,8_12,2024-03-19T18:08:40.299Z,,,,,,,,,,,3652.6479999523144,completion,,,,,,,low,high,,,,,,,false,,,,,true,1939635.8999999762,1939634.7999999523,1935982.152,1936081.5999999046,1935982.152,1939536.1,1,40,,
trial,html.Screen,8_13_0,2024-03-19T18:08:46.922Z,,,,2,-0.0158987717472563,-0.0292472192292015,,0.04,false,lh,6722.699999952223,response,-0.8620516892494489,0.9905421723423968,-1.0745370763501443,1.1108509340502866,1.0405421723423969,-1.1478947352598112,low,high,,ISIC_1366765.JPG,,ISIC_5557806.JPG,28,25,false,0.2300000000000001,ll,keypress(f),0,true,1946259.0999999046,1946258.7999999523,1939534.398,1939636.0999999046,1939536.1,1946158.3,1,40,14,
sequence,flow.Sequence,8_13,2024-03-19T18:08:46.922Z,,,,,,,,,,,6722.699999952223,completion,,,,,,,low,high,,,,,,,false,,,,,true,1946259.5999999046,1946258.7999999523,1939534.398,1939636.0999999046,1939536.1,1946158.3,1,40,,
trial,html.Screen,8_14_0,2024-03-19T18:08:53.450Z,,,,2,-0.0077673378094614,-0.0021810768579373,,0.04,true,ll,6628.199999999953,response,-0.892888705264033,0.9905421723423968,-0.8423020621076172,-1.1616901486941038,1.090542172342397,-1.1478947352598112,low,low,,ISIC_0067621.JPG,,ISIC_0066101.JPG,28,25,false,0.1,ll,keypress(f),0,true,1952787,1952786.5,1946153.276,1946259.7999999523,1946158.3,1952696.8,1,40,15,
sequence,flow.Sequence,8_14,2024-03-19T18:08:53.450Z,,,,,,,,,,,6628.199999999953,completion,,,,,,,low,low,,,,,,,false,,,,,true,1952787.5,1952786.5,1946153.276,1946259.7999999523,1946158.3,1952696.8,1,40,,
trial,html.Screen,8_15_0,2024-03-19T18:08:56.714Z,,,,2,0.0051046740562181,-0.0178832721027728,,0.04,false,lh,3354.399999928428,response,-0.781391003063482,0.9905421723423968,-0.8423020621076172,0.9644960393010829,1.090542172342397,-1.1478947352598112,low,high,,ISIC_9545819.JPG,,ISIC_2087913.JPG,28,26,false,0.17000000000000004,ll,keypress(f),0,true,1956051.7999999523,1956051.1999999285,1952680.5,1952787.7999999523,1952696.8,1955966.8,1,40,16,
sequence,flow.Sequence,8_15,2024-03-19T18:08:56.715Z,,,,,,,,,,,3354.399999928428,completion,,,,,,,low,high,,,,,,,false,,,,,true,1956052.3999999762,1956051.1999999285,1952680.5,1952787.6999999285,1952696.8,1955966.8,1,40,,
trial,html.Screen,8_16_0,2024-03-19T18:09:02.105Z,,,,2,-0.0158987717472563,-0.0292472192292015,,0.04,true,ll,5474.799999904586,response,-0.8617273148568415,0.9905421723423968,-0.9215405758787929,-1.1394683921871485,1.140542172342397,-1.1478947352598112,low,low,,ISIC_1366765.JPG,,ISIC_0000287.JPG,28,30,false,0.1,ll,keypress(f),0,true,1961441.7999999523,1961441.5999999046,1955947.71,1956052.6999999285,1955966.8,1961354.6,1,40,17,
sequence,flow.Sequence,8_16,2024-03-19T18:09:02.105Z,,,,,,,,,,,5474.799999904586,completion,,,,,,,low,low,,,,,,,false,,,,,true,1961442,1961441.5999999046,1955947.71,1956052.5999999046,1955966.8,1961354.6,1,40,,
trial,html.Screen,8_17_0,2024-03-19T18:09:08.938Z,,,,2,0.0361875505619981,-0.0291457404567876,,0.04,true,hl,6920.299999976065,response,1.0003671514840182,0.9905421723423968,-0.9215405758787929,-0.8992716557663581,1.140542172342397,-0.950597853521995,high,low,,ISIC_0027480.JPG,,ISIC_0061749.JPG,28,26,false,0.19000000000000006,hl,keypress(j),0,true,1968275.2999999523,1968274.8999999762,1961333.748,1961442.1999999285,1961354.6,1968176.5,1,40,18,
sequence,flow.Sequence,8_17,2024-03-19T18:09:08.939Z,,,,,,,,,,,6920.299999976065,completion,,,,,,,high,low,,,,,,,false,,,,,true,1968275.7999999523,1968274.8999999762,1961333.748,1961442.1999999285,1961354.6,1968176.5,1,40,,
trial,html.Screen,8_18_0,2024-03-19T18:09:12.618Z,,,,2,-0.0399381815506136,-0.0177751789152893,,0.04,false,hl,3779.0999999046326,response,0.8150886811691144,0.9405421723423968,-0.9215405758787929,-0.862416038462147,1.140542172342397,-0.950597853521995,high,low,,ISIC_3981425.JPG,,ISIC_0058079.JPG,28,26,false,0.18000000000000005,hh,keypress(i),0,true,1971955.8999999762,1971955.5999999046,1968171.834,1968276.0999999046,1968176.5,1971862.8,1,40,19,
sequence,flow.Sequence,8_18,2024-03-19T18:09:12.619Z,,,,,,,,,,,3779.0999999046326,completion,,,,,,,high,low,,,,,,,false,,,,,true,1971956.5,1971955.5999999046,1968171.834,1968276,1968176.5,1971862.8,1,40,,
trial,html.Screen,8_19_0,2024-03-19T18:09:18.586Z,,,,2,-0.0057914759495055,0.018500200317654,,0.04,true,hl,6060.199999999953,response,0.8070820195894357,0.9405421723423968,-0.9215405758787929,-0.8958120092147633,1.140542172342397,-1.000597853521995,high,low,,ISIC_0058723.JPG,,ISIC_0060585.JPG,28,26,false,0.19000000000000006,hl,keypress(j),0,true,1977923.3999999762,1977923,1971860.86,1971956.7999999523,1971862.8,1977834.4,1,40,20,
sequence,flow.Sequence,8_19,2024-03-19T18:09:18.586Z,,,,,,,,,,,6060.199999999953,completion,,,,,,,high,low,,,,,,,false,,,,,true,1977923.8999999762,1977923,1971860.86,1971956.6999999285,1971862.8,1977834.4,1,40,,
trial,html.Screen,8_20_0,2024-03-19T18:09:30.138Z,,,,2,-0.0050679133050021,-0.0174815595031679,,0.04,true,lh,11640.699999904726,response,-0.7705174182595537,0.8905421723423967,-0.9215405758787929,1.085710894474977,1.140542172342397,-1.000597853521995,low,high,,ISIC_9848743.JPG,,ISIC_0013644.JPG,28,27,false,0.20000000000000007,lh,keypress(e),0,true,1989475.5,1989475.0999999046,1977830.668,1977924.0999999046,1977834.4,1989377.2,1,40,21,
sequence,flow.Sequence,8_20,2024-03-19T18:09:30.139Z,,,,,,,,,,,11640.699999904726,completion,,,,,,,low,high,,,,,,,false,,,,,true,1989476.0999999046,1989475.0999999046,1977830.668,1977924.0999999046,1977834.4,1989377.2,1,40,,
trial,html.Screen,8_21_0,2024-03-19T18:09:42.906Z,,,,2,-0.0118555311043871,-0.0087774532070196,,0.04,true,hl,12865.999999928521,response,0.7898684912324617,0.8905421723423967,-0.8715405758787929,-0.8342581908806269,1.140542172342397,-1.000597853521995,high,low,,ISIC_6488658.JPG,,ISIC_0046537.JPG,28,31,false,0.18000000000000005,hl,keypress(j),0,true,2002243.5999999046,2002243.1999999285,1989368.512,1989476.2999999523,1989377.2,2002154.6,1,40,22,
sequence,flow.Sequence,8_21,2024-03-19T18:09:42.907Z,,,,,,,,,,,12865.999999928521,completion,,,,,,,high,low,,,,,,,false,,,,,true,2002244.0999999046,2002243.1999999285,1989368.512,1989476.1999999285,1989377.2,2002154.6,1,40,,
trial,html.Screen,8_22_0,2024-03-19T18:09:49.543Z,,,,2,-0.0057914759495055,0.018500200317654,,0.04,false,ll,6725.999999904539,response,-0.8800173162815772,0.8905421723423967,-0.8715405758787929,-0.912069987718464,1.140542172342397,-0.950597853521995,low,low,,ISIC_0058723.JPG,,ISIC_0030852.JPG,28,47,false,0.1,lh,keypress(e),0,true,2008880.6999999285,2008880.5999999046,2002144.696,2002244.3999999762,2002154.6,2008792.9,1,40,23,
sequence,flow.Sequence,8_22,2024-03-19T18:09:49.543Z,,,,,,,,,,,6725.999999904539,completion,,,,,,,low,low,,,,,,,false,,,,,true,2008880.7999999523,2008880.5999999046,2002144.696,2002244.3999999762,2002154.6,2008792.9,1,40,,
trial,html.Screen,8_23_0,2024-03-19T18:09:57.352Z,,,,2,-0.0057914759495055,0.018500200317654,,0.04,true,hl,7896.299999928568,response,0.7203854121635694,0.8905421723423967,-0.8715405758787929,-0.967180948735857,1.140542172342397,-1.000597853521995,high,low,,ISIC_0058723.JPG,,ISIC_0439726.JPG,28,31,false,0.18000000000000005,hl,keypress(j),0,true,2016689.2999999523,2016689.1999999285,2008772.142,2008880.7999999523,2008792.9,2016598.7,1,40,24,
sequence,flow.Sequence,8_23,2024-03-19T18:09:57.352Z,,,,,,,,,,,7896.299999928568,completion,,,,,,,high,low,,,,,,,false,,,,,true,2016689.3999999762,2016689.1999999285,2008772.142,2008880.7999999523,2008792.9,2016598.7,1,40,,
trial,html.Screen,8_24_0,2024-03-19T18:10:02.554Z,,,,2,-0.00126575685933,-0.0325046559638838,,0.04,true,ll,5292.199999976205,response,-0.7889870538343912,0.8405421723423967,-0.8715405758787929,-1.0788072220020657,1.140542172342397,-1.000597853521995,low,low,,ISIC_5682259.JPG,,ISIC_0061751.JPG,28,39,false,0.1,ll,keypress(f),0,true,2021891.2999999523,2021890.8999999762,2016583.3,2016689.3999999762,2016598.7,2021804.5,1,40,25,
sequence,flow.Sequence,8_24,2024-03-19T18:10:02.554Z,,,,,,,,,,,5292.199999976205,completion,,,,,,,low,low,,,,,,,false,,,,,true,2021891.8999999762,2021890.8999999762,2016583.3,2016689.3999999762,2016598.7,2021804.5,1,40,,
trial,html.Screen,8_25_0,2024-03-19T18:10:09.114Z,,,,2,0.0367218428225813,-0.0026956749740767,,0.04,true,hh,6646.399999976158,response,0.7936244847969322,0.8405421723423967,-0.9729940853689614,1.125559396934209,1.140542172342397,-0.9729940853689614,high,high,,ISIC_7212271.JPG,,ISIC_2863397.JPG,28,30,false,0.1,hh,keypress(i),0,true,2028451.2999999523,2028450.8999999762,2021783.632,2021892.0999999046,2021804.5,2028359.4,1,40,26,
sequence,flow.Sequence,8_25,2024-03-19T18:10:09.114Z,,,,,,,,,,,6646.399999976158,completion,,,,,,,high,high,,,,,,,false,,,,,true,2028451.8999999762,2028450.8999999762,2021783.632,2021892.0999999046,2021804.5,2028359.4,1,40,,
trial,html.Screen,8_26_0,2024-03-19T18:10:14.472Z,,,,2,-0.0158987717472563,-0.0292472192292015,,0.04,false,hl,5449.799999928568,response,0.8479396253253069,0.8405421723423967,-0.9729940853689614,-1.011054319516718,0.9095919408655706,-0.9729940853689614,high,low,,ISIC_1366765.JPG,,ISIC_0063521.JPG,28,26,false,0.15000000000000002,ll,keypress(f),0,true,2033809.3999999762,2033809.1999999285,2028355.078,2028452.0999999046,2028359.4,2033714.3,1,40,27,
sequence,flow.Sequence,8_26,2024-03-19T18:10:14.472Z,,,,,,,,,,,5449.799999928568,completion,,,,,,,high,low,,,,,,,false,,,,,true,2033809.5,2033809.1999999285,2028355.078,2028452,2028359.4,2033714.3,1,40,,
trial,html.Screen,8_27_0,2024-03-19T18:10:21.194Z,,,,2,-0.0118555311043871,-0.0087774532070196,,0.04,true,hh,6817.299999904586,response,0.8017757615489182,0.8905421723423967,-0.9729940853689614,0.8187931329618445,0.9095919408655706,-0.9729940853689614,high,high,,ISIC_6488658.JPG,,ISIC_0029024.JPG,28,40,false,0.1,hh,keypress(i),0,true,2040532.0999999046,2040531.5999999046,2033696,2033809.5,2033714.3,2040436.1,1,40,28,
sequence,flow.Sequence,8_27,2024-03-19T18:10:21.195Z,,,,,,,,,,,6817.299999904586,completion,,,,,,,high,high,,,,,,,false,,,,,true,2040532.6999999285,2040531.5999999046,2033696,2033809.5,2033714.3,2040436.1,1,40,,
trial,html.Screen,8_28_0,2024-03-19T18:10:33.145Z,,,,2,0.0189295602385628,0.0128812415435153,,0.04,true,lh,12046.299999976065,response,-0.9235571765207048,0.8905421723423967,-0.9729940853689614,0.7832040253954599,0.9095919408655706,-0.9729940853689614,low,high,,ISIC_0010372.JPG,,ISIC_8796632.JPG,28,25,false,0.18000000000000005,lh,keypress(e),0,true,2052482.5999999046,2052482.3999999762,2040431.638,2040533,2040436.1,2052395.3,1,40,29,
sequence,flow.Sequence,8_28,2024-03-19T18:10:33.145Z,,,,,,,,,,,12046.299999976065,completion,,,,,,,low,high,,,,,,,false,,,,,true,2052482.7999999523,2052482.3999999762,2040431.638,2040532.7999999523,2040436.1,2052395.3,1,40,,
trial,html.Screen,8_29_0,2024-03-19T18:10:40.889Z,,,,2,0.0063515208248796,0.0194177605767913,,0.04,false,lh,7831.399999928428,response,-1.0088376543442317,0.8905421723423967,-0.9729940853689614,0.8023075994977575,0.8595919408655706,-0.9729940853689614,low,high,,ISIC_5281908.JPG,,ISIC_7619234.JPG,28,26,false,0.16000000000000003,hh,keypress(i),0,true,2060227,2060226.6999999285,2052370.196,2052482.8999999762,2052395.3,2060136,1,40,30,
sequence,flow.Sequence,8_29,2024-03-19T18:10:40.890Z,,,,,,,,,,,7831.399999928428,completion,,,,,,,low,high,,,,,,,false,,,,,true,2060227.5999999046,2060226.6999999285,2052370.196,2052482.8999999762,2052395.3,2060136,1,40,,
trial,html.Screen,8_30_0,2024-03-19T18:10:49.082Z,,,,2,-0.0060934073440827,-0.0279108145883031,,0.04,false,ll,8283.399999976158,response,-1.0561331896671369,0.8905421723423967,-1.0229940853689614,-1.026183861508091,0.8595919408655706,-0.9729940853689614,low,low,,ISIC_0032604.JPG,,ISIC_0026595.JPG,28,44,false,0.1,hl,keypress(j),0,true,2068419.7999999523,2068419.3999999762,2060119.2,2060227.7999999523,2060136,2068325.7,1,40,31,
sequence,flow.Sequence,8_30,2024-03-19T18:10:49.083Z,,,,,,,,,,,8283.399999976158,completion,,,,,,,low,low,,,,,,,false,,,,,true,2068420.5,2068419.3999999762,2060119.2,2060227.7999999523,2060136,2068325.7,1,40,,
trial,html.Screen,8_31_0,2024-03-19T18:10:52.714Z,,,,2,-0.0060918352854008,0.029032683404407,,0.04,true,hh,3725.1999999762047,response,0.8299201784919694,0.8905421723423967,-1.0729940853689615,0.9555257680008306,0.8595919408655706,-0.9229940853689613,high,high,,ISIC_8436194.JPG,,ISIC_6937199.JPG,28,50,false,0.1,hh,keypress(i),0,true,2072051.3999999762,2072050.8999999762,2068319.946,2068420.6999999285,2068325.7,2071962.3,1,40,32,
sequence,flow.Sequence,8_31,2024-03-19T18:10:52.714Z,,,,,,,,,,,3725.1999999762047,completion,,,,,,,high,high,,,,,,,false,,,,,true,2072052,2072050.8999999762,2068319.946,2068420.5999999046,2068325.7,2071962.3,1,40,,
trial,html.Screen,8_32_0,2024-03-19T18:10:58.520Z,,,,2,-0.0077673378094614,-0.0021810768579373,,0.04,true,ll,5894.799999904586,response,-1.084683602025889,0.8289166837492941,-1.0729940853689615,-1.0111744161375118,0.8289166837492941,-0.9229940853689613,low,low,,ISIC_0067621.JPG,,ISIC_0069946.JPG,28,45,false,0.1,ll,keypress(f),0,true,2077857.2999999523,2077857.0999999046,2071945.8,2072052.2999999523,2071962.3,2077765.8,1,40,33,
sequence,flow.Sequence,8_32,2024-03-19T18:10:58.520Z,,,,,,,,,,,5894.799999904586,completion,,,,,,,low,low,,,,,,,false,,,,,true,2077857.5,2077857.0999999046,2071945.8,2072052.1999999285,2071962.3,2077765.8,1,40,,
trial,html.Screen,8_33_0,2024-03-19T18:11:03.258Z,,,,2,-0.012020985739544,0.0126097407389903,,0.04,true,hh,4829.599999976112,response,0.7933921755497018,0.8289166837492941,-1.0729940853689615,0.7818604706992622,0.8289166837492941,-0.9229940853689613,high,high,,ISIC_0069379.JPG,,ISIC_7844825.JPG,28,61,false,0.1,hh,keypress(i),0,true,2082595.6999999285,2082595.3999999762,2077750.1,2077857.5999999046,2077765.8,2082504.4,1,40,34,
sequence,flow.Sequence,8_33,2024-03-19T18:11:03.259Z,,,,,,,,,,,4829.599999976112,completion,,,,,,,high,high,,,,,,,false,,,,,true,2082596.2999999523,2082595.3999999762,2077750.1,2077857.5999999046,2077765.8,2082504.4,1,40,,
trial,html.Screen,8_34_0,2024-03-19T18:11:07.786Z,,,,2,0.0199897690678184,0.0312486875504497,,0.04,true,ll,4618.600000000093,response,-1.1049505474730683,0.8289166837492941,-1.0729940853689615,-0.8802860499226653,0.8289166837492941,-0.9229940853689613,low,low,,ISIC_5482426.JPG,,ISIC_0054395.JPG,28,45,false,0.1,ll,keypress(f),0,true,2087123.2999999523,2087123,2082487.7,2082596.5999999046,2082504.4,2087023.6,1,40,35,
sequence,flow.Sequence,8_34,2024-03-19T18:11:07.786Z,,,,,,,,,,,4618.600000000093,completion,,,,,,,low,low,,,,,,,false,,,,,true,2087123.6999999285,2087123,2082487.7,2082596.5,2082504.4,2087023.6,1,40,,
trial,html.Screen,8_35_0,2024-03-19T18:11:12.186Z,,,,2,-0.0060918352854008,0.029032683404407,,0.04,false,hl,4499.499999904539,response,0.717897378657649,0.8289166837492941,-1.0229940853689614,-0.8788356736457825,0.8289166837492941,-0.8729940853689613,high,low,,ISIC_8436194.JPG,,ISIC_3963183.JPG,28,27,false,0.14,ll,keypress(f),0,true,2091523.5,2091523.0999999046,2087021.426,2087123.7999999523,2087023.6,2091428.1,1,40,36,
sequence,flow.Sequence,8_35,2024-03-19T18:11:12.186Z,,,,,,,,,,,4499.499999904539,completion,,,,,,,high,low,,,,,,,false,,,,,true,2091524,2091523.0999999046,2087021.426,2087123.6999999285,2087023.6,2091428.1,1,40,,
trial,html.Screen,8_36_0,2024-03-19T18:11:22.282Z,,,,2,-0.0060918352854008,0.029032683404407,,0.04,true,hh,10191.099999928381,response,0.8106452071627479,0.8789166837492941,-1.0229940853689614,0.8209658560483851,0.8289166837492941,-0.8729940853689613,high,high,,ISIC_8436194.JPG,,ISIC_4151356.JPG,28,51,false,0.1,hh,keypress(i),0,true,2101619.6999999285,2101619.1999999285,2091425.664,2091524.2999999523,2091428.1,2101520.2,1,40,37,
sequence,flow.Sequence,8_36,2024-03-19T18:11:22.283Z,,,,,,,,,,,10191.099999928381,completion,,,,,,,high,high,,,,,,,false,,,,,true,2101620.2999999523,2101619.1999999285,2091425.664,2091524.1999999285,2091428.1,2101520.2,1,40,,
trial,html.Screen,8_37_0,2024-03-19T18:11:28.954Z,,,,2,0.0321039635696159,0.020496766286318,,0.04,false,lh,6770.999999928288,response,-1.073191619565092,0.8789166837492941,-1.0229940853689614,0.6806289469379934,0.7658055316055665,-0.8729940853689613,low,high,,ISIC_0058063.JPG,,ISIC_9386509.JPG,28,27,false,0.15000000000000002,hh,keypress(i),0,true,2108291.5999999046,2108291.1999999285,2101512.47,2101620.6999999285,2101520.2,2108192,1,40,38,
sequence,flow.Sequence,8_37,2024-03-19T18:11:28.955Z,,,,,,,,,,,6770.999999928288,completion,,,,,,,low,high,,,,,,,false,,,,,true,2108292.0999999046,2108291.1999999285,2101512.47,2101620.5999999046,2101520.2,2108192,1,40,,
trial,html.Screen,8_38_0,2024-03-19T18:11:33.946Z,,,,2,-0.0077673378094614,-0.0021810768579373,,0.04,false,hl,5091.299999952316,response,0.7622914383475332,0.8789166837492941,-1.0729940853689615,-0.8883896910883083,0.7658055316055665,-0.8729940853689613,high,low,,ISIC_0067621.JPG,,ISIC_0032005.JPG,28,31,false,0.16000000000000003,hh,keypress(i),0,true,2113283.6999999285,2113283.2999999523,2108186.73,2108292.399999976,2108192,2113196.6,1,40,39,
sequence,flow.Sequence,8_38,2024-03-19T18:11:33.947Z,,,,,,,,,,,5091.299999952316,completion,,,,,,,high,low,,,,,,,false,,,,,true,2113284.2999999523,2113283.2999999523,2108186.73,2108292.2999999523,2108192,2113196.6,1,40,,
trial,html.Screen,8_39_0,2024-03-19T18:11:38.346Z,,,,2,-0.0071892445601978,0.0246015408628738,,0.04,true,hh,4486.299999976065,response,0.581186807106072,0.6714601926427632,-1.0729940853689615,0.700274628615903,0.7658055316055665,-0.9229940853689613,high,high,,ISIC_0014133.JPG,,ISIC_7764987.JPG,28,71,false,0.1,hh,keypress(i),0,true,2117683.2999999523,2117682.899999976,2113179.4,2113284.5999999046,2113196.6,2117583.1,1,40,40,
sequence,flow.Sequence,8_39,2024-03-19T18:11:38.347Z,,,,,,,,,,,4486.299999976065,completion,,,,,,,high,high,,,,,,,false,,,,,true,2117683.899999976,2117682.899999976,2113179.4,2113284.399999976,2113196.6,2117583.1,1,40,,
stair_loop,flow.Loop,8,2024-03-19T18:11:38.347Z,,,,,,,,,,,266602.8159999761,completion,,,,,,,,,,,,,,,false,,,,,true,2117684.1999999285,2117682.899999976,1851080.084,1851176.8999999762,1851080.084,2117583.1,1,40,,
exp_instructions,html.Screen,9,2024-03-19T18:11:53.562Z,,,,,,,,,,,15314.99999990454,response,,,,,,,,,,,,,,,,,continue,keypress(Space),,,2132899.1999999285,2132898.0999999046,2117580.464,2117684.399999976,2117583.1,2132812.7,,,,
trial,html.Screen,10_0_0,2024-03-19T18:12:09.201Z,,,,1,-0.00126575685933,-0.0325046559638838,,0.04,false,lh,15725.699999975972,response,-0.9873794329144926,0.8580191523498291,-0.9901307079964191,0.9500689037516484,0.9296402346405488,-0.94489502740722,low,high,,ISIC_5682259.JPG,9,ISIC_0013498.JPG,28,27,false,0.19000000000000006,hl,keypress(j),0,false,2148538.5,2148538.399999976,2132799.158,2132899.6999999285,2132812.7,2148442.3,5,600,1,
break,html.Screen,10_0_1,2024-03-19T18:12:09.202Z,,,,,,,,,,,NaN,,,,,,,,low,high,,,,,,,false,,,,,false,2148539.0999999046,2148538.899999976,,2148538.5999999046,,2148442.3,5,600,,
break_continue,html.Screen,10_0_2,2024-03-19T18:12:09.202Z,,,,,,,,,,,NaN,,,,,,,,low,high,,,,,,,false,,,,,false,2148539.399999976,2148539.2999999523,,2148539.0999999046,,2148442.3,5,600,,
sequence,flow.Sequence,10_0,2024-03-19T18:12:09.202Z,,,,,,,,,,,15726.59999995213,completion,,,,,,,low,high,,,,,,,false,,,,,false,2148539.5,2148539.2999999523,2132799.158,2132899.6999999285,2132812.7,2148442.3,5,600,,
trial,html.Screen,10_1_0,2024-03-19T18:12:13.434Z,,,,1,0.0361875505619981,-0.0291457404567876,,0.04,true,hh,4328.399999928661,response,0.8285454085852607,0.8580191523498291,-0.9901307079964191,0.8539676082936701,0.9296402346405488,-0.94489502740722,high,high,,ISIC_0027480.JPG,9,ISIC_2131707.JPG,28,39,false,0.1,hh,keypress(i),0,false,2152771.0999999046,2152770.6999999285,2148429.582,2148539.5999999046,2148442.3,2152679.2,5,600,2,
break,html.Screen,10_1_1,2024-03-19T18:12:13.436Z,,,,,,,,,,,NaN,,,,,,,,high,high,,,,,,,false,,,,,false,2152772.5,2152772.1999999285,,2152771.5,,2152679.2,5,600,,
break_continue,html.Screen,10_1_2,2024-03-19T18:12:13.437Z,,,,,,,,,,,NaN,,,,,,,,high,high,,,,,,,false,,,,,false,2152773.5,2152773.0999999046,,2152772.899999976,,2152679.2,5,600,,
sequence,flow.Sequence,10_1,2024-03-19T18:12:13.437Z,,,,,,,,,,,4330.799999904819,completion,,,,,,,high,high,,,,,,,false,,,,,false,2152773.899999976,2152773.0999999046,2148429.582,2148539.5999999046,2148442.3,2152679.2,5,600,,
trial,html.Screen,10_2_0,2024-03-19T18:12:19.066Z,,,,1,0.0365981355399771,0.0162670920008846,,0.04,true,ll,5723.499999928288,response,-1.0053183338862537,0.8580191523498291,-0.9901307079964191,-1.0383223796934642,0.9296402346405488,-0.94489502740722,low,low,,ISIC_0982855.JPG,9,ISIC_0000519.JPG,28,52,false,0.1,ll,keypress(f),0,false,2158403.0999999046,2158402.6999999285,2152662.4,2152774.0999999046,2152679.2,2158316.8,5,600,3,
break,html.Screen,10_2_1,2024-03-19T18:12:19.067Z,,,,,,,,,,,NaN,,,,,,,,low,low,,,,,,,false,,,,,false,2158404.5,2158404.1999999285,,2158403.5999999046,,2158316.8,5,600,,
break_continue,html.Screen,10_2_2,2024-03-19T18:12:19.068Z,,,,,,,,,,,NaN,,,,,,,,low,low,,,,,,,false,,,,,false,2158405.1999999285,2158404.899999976,,2158404.6999999285,,2158316.8,5,600,,
sequence,flow.Sequence,10_2,2024-03-19T18:12:19.069Z,,,,,,,,,,,5725.699999975972,completion,,,,,,,low,low,,,,,,,false,,,,,false,2158405.5999999046,2158404.899999976,2152662.4,2152774,2152679.2,2158316.8,5,600,,
trial,html.Screen,10_3_0,2024-03-19T18:12:25.579Z,,,,1,0.0199897690678184,0.0312486875504497,,0.04,true,ll,6598.799999904819,response,-1.0296906379811772,0.8580191523498291,-0.9901307079964191,-0.9872236201212492,0.9296402346405488,-0.94489502740722,low,low,,ISIC_5482426.JPG,9,ISIC_0015046.JPG,28,52,false,0.1,ll,keypress(f),0,false,2164915.899999976,2164915.5999999046,2158299.9,2158405.899999976,2158316.8,2164822,5,600,4,
break,html.Screen,10_3_1,2024-03-19T18:12:25.580Z,,,,,,,,,,,NaN,,,,,,,,low,low,,,,,,,false,,,,,false,2164917.399999976,2164917,,2164916.399999976,,2164822,5,600,,
break_continue,html.Screen,10_3_2,2024-03-19T18:12:25.581Z,,,,,,,,,,,NaN,,,,,,,,low,low,,,,,,,false,,,,,false,2164918.1999999285,2164918,,2164917.5999999046,,2164822,5,600,,
sequence,flow.Sequence,10_3,2024-03-19T18:12:25.582Z,,,,,,,,,,,6601.200000000186,completion,,,,,,,low,low,,,,,,,false,,,,,false,2164918.5,2164918,2158299.9,2158405.899999976,2158316.8,2164822,5,600,,
trial,html.Screen,10_4_0,2024-03-19T18:12:30.603Z,,,,1,-0.0377791839943904,0.0227626648172468,,0.04,false,lh,5117.199999928474,response,-0.8588347582642082,0.8580191523498291,-0.9901307079964191,0.8899503828496784,0.9296402346405488,-0.94489502740722,low,high,,ISIC_7167479.JPG,8,ISIC_0174983.JPG,28,27,false,0.19000000000000006,hh,keypress(i),0,false,2169939.5999999046,2169939.1999999285,2164805.8,2164918.7999999523,2164822,2169842.9,5,600,5,
break,html.Screen,10_4_1,2024-03-19T18:12:30.604Z,,,,,,,,,,,NaN,,,,,,,,low,high,,,,,,,false,,,,,false,2169941.2999999523,2169940.7999999523,,2169940.0999999046,,2169842.9,5,600,,
break_continue,html.Screen,10_4_2,2024-03-19T18:12:30.605Z,,,,,,,,,,,NaN,,,,,,,,low,high,,,,,,,false,,,,,false,2169942.0999999046,2169941.899999976,,2169941.5999999046,,2169842.9,5,600,,
sequence,flow.Sequence,10_4,2024-03-19T18:12:30.605Z,,,,,,,,,,,5119.899999976158,completion,,,,,,,low,high,,,,,,,false,,,,,false,2169942.399999976,2169941.899999976,2164805.8,2164918.7999999523,2164822,2169842.9,5,600,,
trial,html.Screen,10_5_0,2024-03-19T18:12:42.555Z,,,,1,-0.0050679133050021,-0.0174815595031679,,0.04,true,ll,12048.299999928568,response,-1.033120591224746,0.8580191523498291,-0.9901307079964191,-0.9169816067930722,0.9296402346405488,-0.94489502740722,low,low,,ISIC_9848743.JPG,9,ISIC_0033027.JPG,28,52,false,0.1,ll,keypress(f),0,false,2181891.6999999285,2181891.1999999285,2169826.5,2169942.6999999285,2169842.9,2181803.1,5,600,6,
break,html.Screen,10_5_1,2024-03-19T18:12:42.556Z,,,,,,,,,,,NaN,,,,,,,,low,low,,,,,,,false,,,,,false,2181893.1999999285,2181892.899999976,,2181892.1999999285,,2181803.1,5,600,,
break_continue,html.Screen,10_5_2,2024-03-19T18:12:42.557Z,,,,,,,,,,,NaN,,,,,,,,low,low,,,,,,,false,,,,,false,2181894.1999999285,2181893.899999976,,2181893.5999999046,,2181803.1,5,600,,
sequence,flow.Sequence,10_5,2024-03-19T18:12:42.558Z,,,,,,,,,,,12050.999999976251,completion,,,,,,,low,low,,,,,,,false,,,,,false,2181894.5,2181893.899999976,2169826.5,2169942.5999999046,2169842.9,2181803.1,5,600,,
trial,html.Screen,10_6_0,2024-03-19T18:12:52.843Z,,,,1,-0.0399381815506136,-0.0177751789152893,,0.04,true,hl,10376.599999928381,response,1.0003671514840182,0.8580191523498291,-0.9901307079964191,-0.8992716557663581,0.9296402346405488,-0.94489502740722,high,low,,ISIC_3981425.JPG,8,ISIC_0061749.JPG,28,28,false,0.15000000000000002,hl,keypress(j),0,false,2192180.0999999046,2192179.6999999285,2181786.5,2181894.7999999523,2181803.1,2192079.022,5,600,7,
break,html.Screen,10_6_1,2024-03-19T18:12:52.845Z,,,,,,,,,,,NaN,,,,,,,,high,low,,,,,,,false,,,,,false,2192181.5,2192181.1999999285,,2192180.5,,2192079.022,5,600,,
break_continue,html.Screen,10_6_2,2024-03-19T18:12:52.845Z,,,,,,,,,,,NaN,,,,,,,,high,low,,,,,,,false,,,,,false,2192182.2999999523,2192182.0999999046,,2192181.7999999523,,2192079.022,5,600,,
sequence,flow.Sequence,10_6,2024-03-19T18:12:52.846Z,,,,,,,,,,,10378.99999990454,completion,,,,,,,high,low,,,,,,,false,,,,,false,2192182.6999999285,2192182.0999999046,2181786.5,2181894.7999999523,2181803.1,2192079.022,5,600,,
trial,html.Screen,10_7_0,2024-03-19T18:12:56.584Z,,,,1,-0.0077673378094614,-0.0021810768579373,,0.04,true,ll,3841.7779999524355,response,-0.9588812385345452,0.8580191523498291,-0.9901307079964191,-0.9060043635318688,0.9296402346405488,-0.94489502740722,low,low,,ISIC_0067621.JPG,9,ISIC_0069986.JPG,28,52,false,0.1,ll,keypress(f),0,false,2195920.899999976,2195920.7999999523,2192079.022,2192182.899999976,2192079.022,2195830.4,5,600,8,
break,html.Screen,10_7_1,2024-03-19T18:12:56.584Z,,,,,,,,,,,NaN,,,,,,,,low,low,,,,,,,false,,,,,false,2195921.1999999285,2195921.0999999046,,2195921,,2195830.4,5,600,,
break_continue,html.Screen,10_7_2,2024-03-19T18:12:56.584Z,,,,,,,,,,,NaN,,,,,,,,low,low,,,,,,,false,,,,,false,2195921.1999999285,2195921.1999999285,,2195921.1999999285,,2195830.4,5,600,,
sequence,flow.Sequence,10_7,2024-03-19T18:12:56.584Z,,,,,,,,,,,3842.1779999285936,completion,,,,,,,low,low,,,,,,,false,,,,,false,2195921.2999999523,2195921.1999999285,2192079.022,2192182.7999999523,2192079.022,2195830.4,5,600,,
trial,html.Screen,10_8_0,2024-03-19T18:13:07.897Z,,,,1,-0.0350697500805515,-0.0166617848231997,,0.04,false,hh,11403.299999928568,response,0.8299201784919694,0.8580191523498291,-0.9901307079964191,0.9555257680008306,0.9296402346405488,-0.94489502740722,high,high,,ISIC_0024423.JPG,8,ISIC_6937199.JPG,28,39,false,0.1,hl,keypress(j),0,false,2207233.7999999523,2207233.6999999285,2195814.6,2195921.2999999523,2195830.4,2207140.5,5,600,9,
break,html.Screen,10_8_1,2024-03-19T18:13:07.897Z,,,,,,,,,,,NaN,,,,,,,,high,high,,,,,,,false,,,,,false,2207234.1999999285,2207234.0999999046,,2207233.899999976,,2207140.5,5,600,,
break_continue,html.Screen,10_8_2,2024-03-19T18:13:07.898Z,,,,,,,,,,,NaN,,,,,,,,high,high,,,,,,,false,,,,,false,2207234.5999999046,2207234.5,,2207234.2999999523,,2207140.5,5,600,,
sequence,flow.Sequence,10_8,2024-03-19T18:13:07.898Z,,,,,,,,,,,11404.100000000093,completion,,,,,,,high,high,,,,,,,false,,,,,false,2207234.6999999285,2207234.5,2195814.6,2195921.2999999523,2195830.4,2207140.5,5,600,,
trial,html.Screen,10_9_0,2024-03-19T18:13:11.883Z,,,,1,0.0321039635696159,0.020496766286318,,0.04,false,lh,4078.899999976158,response,-0.9225524349657857,0.8580191523498291,-0.9901307079964191,0.929746784178986,0.9296402346405488,-0.94489502740722,low,high,,ISIC_0058063.JPG,9,ISIC_0011077.JPG,28,27,false,0.19000000000000006,ll,keypress(f),0,false,2211219.7999999523,2211219.399999976,2207124,2207234.7999999523,2207140.5,2211126.9,5,600,10,
break,html.Screen,10_9_1,2024-03-19T18:13:11.885Z,,,,,,,,,,,NaN,,,,,,,,low,high,,,,,,,false,,,,,false,2211221.5,2211220.899999976,,2211220.2999999523,,2211126.9,5,600,,
break_continue,html.Screen,10_9_2,2024-03-19T18:13:11.886Z,,,,,,,,,,,NaN,,,,,,,,low,high,,,,,,,false,,,,,false,2211222.5999999046,2211222.1999999285,,2211221.7999999523,,2211126.9,5,600,,
sequence,flow.Sequence,10_9,2024-03-19T18:13:11.886Z,,,,,,,,,,,4081.6999999284744,completion,,,,,,,low,high,,,,,,,false,,,,,false,2211223,2211222.1999999285,2207124,2207234.6999999285,2207140.5,2211126.9,5,600,,
trial,html.Screen,10_10_0,2024-03-19T18:13:18.425Z,,,,1,-0.0050679133050021,-0.0174815595031679,,0.04,true,ll,6634.399999952409,response,-1.0710981257723884,0.8580191523498291,-0.9901307079964191,-0.9983143500894516,0.9296402346405488,-0.94489502740722,low,low,,ISIC_9848743.JPG,9,ISIC_0026652.JPG,28,52,false,0.1,ll,keypress(f),0,false,2217761.399999976,2217761.2999999523,2211109.5,2211223.2999999523,2211126.9,2217665.6,5,600,11,
break,html.Screen,10_10_1,2024-03-19T18:13:18.425Z,,,,,,,,,,,NaN,,,,,,,,low,low,,,,,,,false,,,,,false,2217761.7999999523,2217761.6999999285,,2217761.5,,2217665.6,5,600,,
break_continue,html.Screen,10_10_2,2024-03-19T18:13:18.425Z,,,,,,,,,,,NaN,,,,,,,,low,low,,,,,,,false,,,,,false,2217762,2217761.899999976,,2217761.7999999523,,2217665.6,5,600,,
sequence,flow.Sequence,10_10,2024-03-19T18:13:18.425Z,,,,,,,,,,,6634.999999976251,completion,,,,,,,low,low,,,,,,,false,,,,,false,2217762.0999999046,2217761.899999976,2211109.5,2211223.2999999523,2211126.9,2217665.6,5,600,,
trial,html.Screen,10_11_0,2024-03-19T18:13:20.840Z,,,,1,-0.0350697500805515,-0.0166617848231997,,0.04,true,ll,2511.299999976065,response,-1.086780249085418,0.8580191523498291,-0.9901307079964191,-0.8982771817382743,0.9296402346405488,-0.94489502740722,low,low,,ISIC_0024423.JPG,9,ISIC_0057821.JPG,28,52,false,0.1,ll,keypress(f),0,false,2220177,2220176.899999976,2217649.4,2217762.0999999046,2217665.6,2220083.4,5,600,12,
break,html.Screen,10_11_1,2024-03-19T18:13:20.841Z,,,,,,,,,,,NaN,,,,,,,,low,low,,,,,,,false,,,,,false,2220177.2999999523,2220177.1999999285,,2220177.0999999046,,2220083.4,5,600,,
break_continue,html.Screen,10_11_2,2024-03-19T18:13:20.841Z,,,,,,,,,,,NaN,,,,,,,,low,low,,,,,,,false,,,,,false,2220177.5,2220177.399999976,,2220177.2999999523,,2220083.4,5,600,,
sequence,flow.Sequence,10_11,2024-03-19T18:13:20.841Z,,,,,,,,,,,2511.799999976065,completion,,,,,,,low,low,,,,,,,false,,,,,false,2220177.5,2220177.399999976,2217649.4,2217762.0999999046,2217665.6,2220083.4,5,600,,
trial,html.Screen,10_12_0,2024-03-19T18:13:28.745Z,,,,1,0.0321039635696159,0.020496766286318,,0.04,false,lh,7997.699999904726,response,-0.8688859182707874,0.8580191523498291,-0.9901307079964191,0.9566733172438716,0.9296402346405488,-0.94489502740722,low,high,,ISIC_0058063.JPG,9,ISIC_0640770.JPG,28,27,false,0.19000000000000006,hh,keypress(i),0,false,2228081.1999999285,2228081.0999999046,2220068,2220177.5,2220083.4,2227991.3,5,600,13,
break,html.Screen,10_12_1,2024-03-19T18:13:28.745Z,,,,,,,,,,,NaN,,,,,,,,low,high,,,,,,,false,,,,,false,2228081.6999999285,2228081.5,,2228081.399999976,,2227991.3,5,600,,
break_continue,html.Screen,10_12_2,2024-03-19T18:13:28.745Z,,,,,,,,,,,NaN,,,,,,,,low,high,,,,,,,false,,,,,false,2228081.7999999523,2228081.7999999523,,2228081.6999999285,,2227991.3,5,600,,
sequence,flow.Sequence,10_12,2024-03-19T18:13:28.745Z,,,,,,,,,,,7998.399999952409,completion,,,,,,,low,high,,,,,,,false,,,,,false,2228081.899999976,2228081.7999999523,2220068,2220177.5,2220083.4,2227991.3,5,600,,
trial,html.Screen,10_13_0,2024-03-19T18:13:35.339Z,,,,1,-0.0158987717472563,-0.0292472192292015,,0.04,true,hl,6684.299999904819,response,0.7246543470035401,0.8580191523498291,-0.9901307079964191,-0.8256787796495674,0.9296402346405488,-0.94489502740722,high,low,,ISIC_1366765.JPG,9,ISIC_0026518.JPG,28,28,false,0.15000000000000002,hl,keypress(j),0,false,2234676.0999999046,2234675.5999999046,2227974.2,2228081.899999976,2227991.3,2234579.6,5,600,14,
break,html.Screen,10_13_1,2024-03-19T18:13:35.341Z,,,,,,,,,,,NaN,,,,,,,,high,low,,,,,,,false,,,,,false,2234677.5999999046,2234677.1999999285,,2234676.5999999046,,2234579.6,5,600,,
break_continue,html.Screen,10_13_2,2024-03-19T18:13:35.342Z,,,,,,,,,,,NaN,,,,,,,,high,low,,,,,,,false,,,,,false,2234678.5999999046,2234678.1999999285,,2234677.899999976,,2234579.6,5,600,,
sequence,flow.Sequence,10_13,2024-03-19T18:13:35.342Z,,,,,,,,,,,6686.899999928661,completion,,,,,,,high,low,,,,,,,false,,,,,false,2234678.899999976,2234678.1999999285,2227974.2,2228081.899999976,2227991.3,2234579.6,5,600,,
trial,html.Screen,10_14_0,2024-03-19T18:13:49.065Z,,,,1,-0.0060918352854008,0.029032683404407,,0.04,true,lh,13821.99999990454,response,-1.0088376543442317,0.8580191523498291,-0.9901307079964191,0.8023075994977575,0.9296402346405488,-0.94489502740722,low,high,,ISIC_8436194.JPG,9,ISIC_7619234.JPG,28,27,false,0.19000000000000006,lh,keypress(e),0,false,2248401.6999999285,2248401.5999999046,2234575.786,2234679.1999999285,2234579.6,2248307.7,5,600,15,
break,html.Screen,10_14_1,2024-03-19T18:13:49.066Z,,,,,,,,,,,NaN,,,,,,,,low,high,,,,,,,false,,,,,false,2248402.1999999285,2248402,,2248401.7999999523,,2248307.7,5,600,,
break_continue,html.Screen,10_14_2,2024-03-19T18:13:49.066Z,,,,,,,,,,,NaN,,,,,,,,low,high,,,,,,,false,,,,,false,2248402.399999976,2248402.2999999523,,2248402.2999999523,,2248307.7,5,600,,
sequence,flow.Sequence,10_14,2024-03-19T18:13:49.066Z,,,,,,,,,,,13822.699999952223,completion,,,,,,,low,high,,,,,,,false,,,,,false,2248402.5,2248402.2999999523,2234575.786,2234679.0999999046,2234579.6,2248307.7,5,600,,
trial,html.Screen,10_15_0,2024-03-19T18:13:59.596Z,,,,1,0.0361875505619981,-0.0291457404567876,,0.04,true,hh,10624.899999904446,response,0.77266095910939,0.8580191523498291,-0.9901307079964191,0.8757752877102069,0.9296402346405488,-0.94489502740722,high,high,,ISIC_0027480.JPG,9,ISIC_0283506.JPG,28,39,false,0.1,hh,keypress(i),0,false,2258933,2258932.5999999046,2248290.8,2248402.6999999285,2248307.7,2258833,5,600,16,
break,html.Screen,10_15_1,2024-03-19T18:13:59.598Z,,,,,,,,,,,NaN,,,,,,,,high,high,,,,,,,false,,,,,false,2258934.7999999523,2258934.2999999523,,2258933.5999999046,,2258833,5,600,,
break_continue,html.Screen,10_15_2,2024-03-19T18:13:59.599Z,,,,,,,,,,,NaN,,,,,,,,high,high,,,,,,,false,,,,,false,2258935.6999999285,2258935.5,,2258935.0999999046,,2258833,5,600,,
sequence,flow.Sequence,10_15,2024-03-19T18:13:59.599Z,,,,,,,,,,,10627.799999999814,completion,,,,,,,high,high,,,,,,,false,,,,,false,2258936.0999999046,2258935.5,2248290.8,2248402.5999999046,2248307.7,2258833,5,600,,
trial,html.Screen,10_16_0,2024-03-19T18:14:15.100Z,,,,1,-0.0399381815506136,-0.0177751789152893,,0.04,true,hh,15602.899999976158,response,0.9371720357162444,0.8580191523498291,-0.9901307079964191,0.9507421943628228,0.9296402346405488,-0.94489502740722,high,high,,ISIC_3981425.JPG,8,ISIC_3730327.JPG,28,39,false,0.1,hh,keypress(i),0,false,2274436.2999999523,2274435.899999976,2258831.312,2258936.2999999523,2258833,2274345.7,5,600,17,
break,html.Screen,10_16_1,2024-03-19T18:14:15.101Z,,,,,,,,,,,NaN,,,,,,,,high,high,,,,,,,false,,,,,false,2274437.7999999523,2274437.399999976,,2274436.5999999046,,2274345.7,5,600,,
break_continue,html.Screen,10_16_2,2024-03-19T18:14:15.102Z,,,,,,,,,,,NaN,,,,,,,,high,high,,,,,,,false,,,,,false,2274438.5,2274438.2999999523,,2274438,,2274345.7,5,600,,
sequence,flow.Sequence,10_16,2024-03-19T18:14:15.102Z,,,,,,,,,,,15605.299999952316,completion,,,,,,,high,high,,,,,,,false,,,,,false,2274438.6999999285,2274438.2999999523,2258831.312,2258936.1999999285,2258833,2274345.7,5,600,,
trial,html.Screen,10_17_0,2024-03-19T18:14:17.211Z,,,,1,0.0199897690678184,0.0312486875504497,,0.04,false,hl,2201.699999975972,response,0.8150886811691144,0.8580191523498291,-0.9901307079964191,-0.862416038462147,0.9296402346405488,-0.94489502740722,high,low,,ISIC_5482426.JPG,8,ISIC_0058079.JPG,28,28,false,0.15000000000000002,hh,keypress(i),0,false,2276547.7999999523,2276547.399999976,2274329.5,2274438.7999999523,2274345.7,2276447.5,5,600,18,
break,html.Screen,10_17_1,2024-03-19T18:14:17.213Z,,,,,,,,,,,NaN,,,,,,,,high,low,,,,,,,false,,,,,false,2276549.1999999285,2276548.7999999523,,2276548.1999999285,,2276447.5,5,600,,
break_continue,html.Screen,10_17_2,2024-03-19T18:14:17.214Z,,,,,,,,,,,NaN,,,,,,,,high,low,,,,,,,false,,,,,false,2276549.899999976,2276549.6999999285,,2276549.399999976,,2276447.5,5,600,,
sequence,flow.Sequence,10_17,2024-03-19T18:14:17.214Z,,,,,,,,,,,2203.999999928288,completion,,,,,,,high,low,,,,,,,false,,,,,false,2276550.2999999523,2276549.6999999285,2274329.5,2274438.6999999285,2274345.7,2276447.5,5,600,,
trial,html.Screen,10_18_0,2024-03-19T18:14:24.283Z,,,,1,0.0327772618698018,-0.0056908372048728,,0.04,true,lh,7172,response,-0.8620516892494489,0.8580191523498291,-0.9901307079964191,1.1108509340502866,0.9296402346405488,-0.94489502740722,low,high,,ISIC_7897925.JPG,9,ISIC_5557806.JPG,28,27,false,0.19000000000000006,lh,keypress(e),0,false,2283619.7999999523,2283619.5,2276446.356,2276550.5,2276447.5,2283520,5,600,19,
break,html.Screen,10_18_1,2024-03-19T18:14:24.285Z,,,,,,,,,,,NaN,,,,,,,,low,high,,,,,,,false,,,,,false,2283621.2999999523,2283620.899999976,,2283620.399999976,,2283520,5,600,,
break_continue,html.Screen,10_18_2,2024-03-19T18:14:24.286Z,,,,,,,,,,,NaN,,,,,,,,low,high,,,,,,,false,,,,,false,2283622.0999999046,2283621.7999999523,,2283621.5,,2283520,5,600,,
sequence,flow.Sequence,10_18,2024-03-19T18:14:24.286Z,,,,,,,,,,,7174.299999952316,completion,,,,,,,low,high,,,,,,,false,,,,,false,2283622.399999976,2283621.7999999523,2276446.356,2276550.5,2276447.5,2283520,5,600,,
trial,html.Screen,10_19_0,2024-03-19T18:14:38.025Z,,,,1,0.010035581303589,-0.0100711721396864,,0.04,true,ll,13841.099999904633,response,-0.905313139676194,0.8580191523498291,-0.9901307079964191,-0.9966583050703528,0.9296402346405488,-0.94489502740722,low,low,,ISIC_0030592.JPG,9,ISIC_0070342.JPG,28,52,false,0.1,ll,keypress(f),0,false,2297361.1999999285,2297361.0999999046,2283515.292,2283622.5999999046,2283520,2297265.1,5,600,20,
break,html.Screen,10_19_1,2024-03-19T18:14:38.025Z,,,,,,,,,,,NaN,,,,,,,,low,low,,,,,,,false,,,,,false,2297361.6999999285,2297361.5999999046,,2297361.399999976,,2297265.1,5,600,,
break_continue,html.Screen,10_19_2,2024-03-19T18:14:38.026Z,,,,,,,,,,,NaN,,,,,,,,low,low,,,,,,,false,,,,,false,2297362,2297361.899999976,,2297361.7999999523,,2297265.1,5,600,,
sequence,flow.Sequence,10_19,2024-03-19T18:14:38.026Z,,,,,,,,,,,13841.899999976158,completion,,,,,,,low,low,,,,,,,false,,,,,false,2297362.0999999046,2297361.899999976,2283515.292,2283622.5999999046,2283520,2297265.1,5,600,,
trial,html.Screen,10_20_0,2024-03-19T18:14:41.179Z,,,,1,0.0063515208248796,0.0194177605767913,,0.04,true,ll,3250.299999976065,response,-1.0353494157291625,0.8580191523498291,-0.9901307079964191,-0.9833297148698538,0.9296402346405488,-0.94489502740722,low,low,,ISIC_5281908.JPG,9,ISIC_5156491.JPG,28,52,false,0.1,ll,keypress(f),0,false,2300515.899999976,2300515.399999976,2297247.9,2297362.1999999285,2297265.1,2300417.3,5,600,21,
break,html.Screen,10_20_1,2024-03-19T18:14:41.181Z,,,,,,,,,,,NaN,,,,,,,,low,low,,,,,,,false,,,,,false,2300517.1999999285,2300516.899999976,,2300516.1999999285,,2300417.3,5,600,,
break_continue,html.Screen,10_20_2,2024-03-19T18:14:41.182Z,,,,,,,,,,,NaN,,,,,,,,low,low,,,,,,,false,,,,,false,2300518.0999999046,2300517.7999999523,,2300517.5,,2300417.3,5,600,,
sequence,flow.Sequence,10_20,2024-03-19T18:14:41.182Z,,,,,,,,,,,3252.699999952223,completion,,,,,,,low,low,,,,,,,false,,,,,false,2300518.399999976,2300517.7999999523,2297247.9,2297362.0999999046,2297265.1,2300417.3,5,600,,
trial,html.Screen,10_21_0,2024-03-19T18:14:43.644Z,,,,1,-0.0060934073440827,-0.0279108145883031,,0.04,true,ll,2562.0999999763444,response,-1.0193735734252425,0.8580191523498291,-0.9901307079964191,-0.9365358249762208,0.9296402346405488,-0.94489502740722,low,low,,ISIC_0032604.JPG,9,ISIC_0071951.JPG,28,52,false,0.1,ll,keypress(f),0,false,2302979.899999976,2302979.399999976,2300415.714,2300518.5999999046,2300417.3,2302886,5,600,22,
break,html.Screen,10_21_1,2024-03-19T18:14:43.645Z,,,,,,,,,,,NaN,,,,,,,,low,low,,,,,,,false,,,,,false,2302981.5,2302981.0999999046,,2302980.399999976,,2302886,5,600,,
break_continue,html.Screen,10_21_2,2024-03-19T18:14:43.646Z,,,,,,,,,,,NaN,,,,,,,,low,low,,,,,,,false,,,,,false,2302982.5999999046,2302982.2999999523,,2302981.7999999523,,2302886,5,600,,
sequence,flow.Sequence,10_21,2024-03-19T18:14:43.647Z,,,,,,,,,,,2564.9999999525025,completion,,,,,,,low,low,,,,,,,false,,,,,false,2302982.899999976,2302982.2999999523,2300415.714,2300518.5999999046,2300417.3,2302886,5,600,,
trial,html.Screen,10_22_0,2024-03-19T18:14:57.917Z,,,,1,0.0063515208248796,0.0194177605767913,,0.04,false,hh,14366.599999904633,response,0.8382616284209584,0.8580191523498291,-0.9901307079964191,0.9132548085712324,0.9296402346405488,-0.94489502740722,high,high,,ISIC_5281908.JPG,9,ISIC_0007740.JPG,28,39,false,0.1,ll,keypress(f),0,false,2317253.0999999046,2317252.5999999046,2302885.208,2302983.2999999523,2302886,2317164.6,5,600,23,
break,html.Screen,10_22_1,2024-03-19T18:14:57.918Z,,,,,,,,,,,NaN,,,,,,,,high,high,,,,,,,false,,,,,false,2317254.899999976,2317254.2999999523,,2317253.5999999046,,2317164.6,5,600,,
break_continue,html.Screen,10_22_2,2024-03-19T18:14:57.919Z,,,,,,,,,,,NaN,,,,,,,,high,high,,,,,,,false,,,,,false,2317255.1999999285,2317255,,2317255,,2317164.6,5,600,,
sequence,flow.Sequence,10_22,2024-03-19T18:14:57.919Z,,,,,,,,,,,14369,completion,,,,,,,high,high,,,,,,,false,,,,,false,2317255.2999999523,2317255,2302885.208,2302983.1999999285,2302886,2317164.6,5,600,,
trial,html.Screen,10_23_0,2024-03-19T18:15:01.068Z,,,,1,-0.012810673904807,0.00400964452501,,0.04,false,lh,3238.899999999907,response,-1.082730232773217,0.8580191523498291,-0.9901307079964191,0.8833175387485132,0.9296402346405488,-0.94489502740722,low,high,,ISIC_0064656.JPG,9,ISIC_0011933.JPG,28,27,false,0.19000000000000006,ll,keypress(f),0,false,2320403.899999976,2320403.5,2317148.1,2317255.2999999523,2317164.6,2320317.6,5,600,24,
break,html.Screen,10_23_1,2024-03-19T18:15:01.069Z,,,,,,,,,,,NaN,,,,,,,,low,high,,,,,,,false,,,,,false,2320405.2999999523,2320404.899999976,,2320404.399999976,,2320317.6,5,600,,
break_continue,html.Screen,10_23_2,2024-03-19T18:15:01.070Z,,,,,,,,,,,NaN,,,,,,,,low,high,,,,,,,false,,,,,false,2320406.0999999046,2320405.7999999523,,2320405.5,,2320317.6,5,600,,
sequence,flow.Sequence,10_23,2024-03-19T18:15:01.070Z,,,,,,,,,,,3241.199999952223,completion,,,,,,,low,high,,,,,,,false,,,,,false,2320406.399999976,2320405.7999999523,2317148.1,2317255.2999999523,2317164.6,2320317.6,5,600,,
trial,html.Screen,10_24_0,2024-03-19T18:15:08.492Z,,,,1,0.0367218428225813,-0.0026956749740767,,0.04,false,hh,7510.099999928381,response,0.8207155237115402,0.8580191523498291,-0.9901307079964191,0.9831752618289616,0.9296402346405488,-0.94489502740722,high,high,,ISIC_7212271.JPG,9,ISIC_0053929.JPG,28,39,false,0.1,hl,keypress(j),0,false,2327828.0999999046,2327827.6999999285,2320298.948,2320406.5999999046,2320317.6,2327757,5,600,25,
break,html.Screen,10_24_1,2024-03-19T18:15:08.493Z,,,,,,,,,,,NaN,,,,,,,,high,high,,,,,,,false,,,,,false,2327829.399999976,2327829.0999999046,,2327828.5,,2327757,5,600,,
break_continue,html.Screen,10_24_2,2024-03-19T18:15:08.494Z,,,,,,,,,,,NaN,,,,,,,,high,high,,,,,,,false,,,,,false,2327830.1999999285,2327830,,2327829.6999999285,,2327757,5,600,,
sequence,flow.Sequence,10_24,2024-03-19T18:15:08.494Z,,,,,,,,,,,7512.399999999907,completion,,,,,,,high,high,,,,,,,false,,,,,false,2327830.5999999046,2327830,2320298.948,2320406.5999999046,2320317.6,2327757,5,600,,
trial,html.Screen,10_25_0,2024-03-19T18:15:10.731Z,,,,1,-0.0060934073440827,-0.0279108145883031,,0.04,false,lh,2310.5,response,-1.082730232773217,0.8580191523498291,-0.9901307079964191,0.8833175387485132,0.9296402346405488,-0.94489502740722,low,high,,ISIC_0032604.JPG,8,ISIC_0011933.JPG,28,27,false,0.19000000000000006,ll,keypress(f),0,false,2330067.7999999523,2330067.5,2327740.4,2327830.7999999523,2327757,2329975.2,5,600,26,
break,html.Screen,10_25_1,2024-03-19T18:15:10.733Z,,,,,,,,,,,NaN,,,,,,,,low,high,,,,,,,false,,,,,false,2330069.2999999523,2330068.899999976,,2330068.2999999523,,2329975.2,5,600,,
break_continue,html.Screen,10_25_2,2024-03-19T18:15:10.734Z,,,,,,,,,,,NaN,,,,,,,,low,high,,,,,,,false,,,,,false,2330070.0999999046,2330069.899999976,,2330069.5,,2329975.2,5,600,,
sequence,flow.Sequence,10_25,2024-03-19T18:15:10.734Z,,,,,,,,,,,2312.899999976158,completion,,,,,,,low,high,,,,,,,false,,,,,false,2330070.399999976,2330069.899999976,2327740.4,2327830.6999999285,2327757,2329975.2,5,600,,
trial,html.Screen,10_26_0,2024-03-19T18:15:18.604Z,,,,1,-0.0377791839943904,0.0227626648172468,,0.04,false,ll,7964.59999995213,response,-1.0244185150873102,0.8580191523498291,-0.9901307079964191,-0.896678664083835,0.9296402346405488,-0.94489502740722,low,low,,ISIC_7167479.JPG,9,ISIC_1530981.JPG,28,52,false,0.1,hh,keypress(i),0,false,2337940.1999999285,2337939.7999999523,2329958.9,2330070.5999999046,2329975.2,2337848.2,5,600,27,
break,html.Screen,10_26_1,2024-03-19T18:15:18.606Z,,,,,,,,,,,NaN,,,,,,,,low,low,,,,,,,false,,,,,false,2337941.7999999523,2337941.399999976,,2337940.6999999285,,2337848.2,5,600,,
break_continue,html.Screen,10_26_2,2024-03-19T18:15:18.607Z,,,,,,,,,,,NaN,,,,,,,,low,low,,,,,,,false,,,,,false,2337942.7999999523,2337942.5,,2337942.0999999046,,2337848.2,5,600,,
sequence,flow.Sequence,10_26,2024-03-19T18:15:18.607Z,,,,,,,,,,,7967.299999999814,completion,,,,,,,low,low,,,,,,,false,,,,,false,2337943.0999999046,2337942.5,2329958.9,2330070.5999999046,2329975.2,2337848.2,5,600,,
trial,html.Screen,10_27_0,2024-03-19T18:15:22.652Z,,,,1,-0.0060934073440827,-0.0279108145883031,,0.04,true,ll,4139.199999975972,response,-1.0667480038665316,0.8580191523498291,-0.9901307079964191,-0.9195011628288464,0.9296402346405488,-0.94489502740722,low,low,,ISIC_0032604.JPG,8,ISIC_0062517.JPG,28,52,false,0.1,ll,keypress(f),0,false,2341987.7999999523,2341987.399999976,2337831.83,2337943.399999976,2337848.2,2341902,5,600,28,
break,html.Screen,10_27_1,2024-03-19T18:15:22.653Z,,,,,,,,,,,NaN,,,,,,,,low,low,,,,,,,false,,,,,false,2341989.1999999285,2341988.899999976,,2341988.1999999285,,2341902,5,600,,
break_continue,html.Screen,10_27_2,2024-03-19T18:15:22.654Z,,,,,,,,,,,NaN,,,,,,,,low,low,,,,,,,false,,,,,false,2341990,2341989.6999999285,,2341989.399999976,,2341902,5,600,,
sequence,flow.Sequence,10_27,2024-03-19T18:15:22.654Z,,,,,,,,,,,4141.499999928288,completion,,,,,,,low,low,,,,,,,false,,,,,false,2341990.1999999285,2341989.6999999285,2337831.83,2337943.2999999523,2337848.2,2341902,5,600,,
trial,html.Screen,10_28_0,2024-03-19T18:15:25.321Z,,,,1,0.0367218428225813,-0.0026956749740767,,0.04,false,lh,2755.0999999046326,response,-0.9225524349657857,0.8580191523498291,-0.9901307079964191,0.929746784178986,0.9296402346405488,-0.94489502740722,low,high,,ISIC_7212271.JPG,9,ISIC_0011077.JPG,28,27,false,0.19000000000000006,ll,keypress(f),0,false,2344657.2999999523,2344657.0999999046,2341883.59,2341990.399999976,2341902,2344570.3,5,600,29,
break,html.Screen,10_28_1,2024-03-19T18:15:25.321Z,,,,,,,,,,,NaN,,,,,,,,low,high,,,,,,,false,,,,,false,2344657.6999999285,2344657.5,,2344657.399999976,,2344570.3,5,600,,
break_continue,html.Screen,10_28_2,2024-03-19T18:15:25.322Z,,,,,,,,,,,NaN,,,,,,,,low,high,,,,,,,false,,,,,false,2344657.899999976,2344657.7999999523,,2344657.7999999523,,2344570.3,5,600,,
sequence,flow.Sequence,10_28,2024-03-19T18:15:25.322Z,,,,,,,,,,,2755.7999999523163,completion,,,,,,,low,high,,,,,,,false,,,,,false,2344658,2344657.7999999523,2341883.59,2341990.2999999523,2341902,2344570.3,5,600,,
trial,html.Screen,10_29_0,2024-03-19T18:15:41.214Z,,,,1,0.0367218428225813,-0.0026956749740767,,0.04,,,15880.02600000007,timeout,0.831295474746028,0.8580191523498291,-0.9901307079964191,0.9721089662087676,0.9296402346405488,-0.94489502740722,high,high,,ISIC_7212271.JPG,9,ISIC_0760740.JPG,28,39,false,0.1,,,0,false,2360549.7999999523,2360549.399999976,2344552.39,2344658,2344570.3,2360450.326,5,600,30,
break,html.Screen,10_29_1,2024-03-19T18:15:41.215Z,,,,,,,,,,,NaN,,,,,,,,high,high,,,,,,,false,,,,,false,2360551.1999999285,2360550.7999999523,,2360550.2999999523,,2360450.326,5,600,,
break_continue,html.Screen,10_29_2,2024-03-19T18:15:41.216Z,,,,,,,,,,,NaN,,,,,,,,high,high,,,,,,,false,,,,,false,2360552,2360551.6999999285,,2360551.5,,2360450.326,5,600,,
sequence,flow.Sequence,10_29,2024-03-19T18:15:41.216Z,,,,,,,,,,,15981.39999992866,completion,,,,,,,high,high,,,,,,,false,,,,,false,2360552.2999999523,2360551.6999999285,2344552.39,2344658,2344570.3,2360450.326,5,600,,
trial,html.Screen,10_30_0,2024-03-19T18:15:48.460Z,,,,1,-0.0350697500805515,-0.0166617848231997,,0.04,false,hl,7345.6740000001155,response,0.8479396253253069,0.8580191523498291,-0.9901307079964191,-1.011054319516718,0.9296402346405488,-0.94489502740722,high,low,,ISIC_0024423.JPG,9,ISIC_0063521.JPG,28,28,false,0.15000000000000002,ll,keypress(f),0,false,2367796.399999976,2367796,2360450.326,2360552.5999999046,2360450.326,2367706.5,5,600,31,
break,html.Screen,10_30_1,2024-03-19T18:15:48.462Z,,,,,,,,,,,NaN,,,,,,,,high,low,,,,,,,false,,,,,false,2367797.899999976,2367797.5999999046,,2367796.899999976,,2367706.5,5,600,,
break_continue,html.Screen,10_30_2,2024-03-19T18:15:48.463Z,,,,,,,,,,,NaN,,,,,,,,high,low,,,,,,,false,,,,,false,2367798.6999999285,2367798.5,,2367798.1999999285,,2367706.5,5,600,,
sequence,flow.Sequence,10_30,2024-03-19T18:15:48.463Z,,,,,,,,,,,7348.1740000001155,completion,,,,,,,high,low,,,,,,,false,,,,,false,2367799,2367798.5,2360450.326,2360552.5,2360450.326,2367706.5,5,600,,
trial,html.Screen,10_31_0,2024-03-19T18:15:51.068Z,,,,1,-0.0350697500805515,-0.0166617848231997,,0.04,true,ll,2697.2999999523163,response,-0.891534074006073,0.8580191523498291,-0.9901307079964191,-0.9584950302233712,0.9296402346405488,-0.94489502740722,low,low,,ISIC_0024423.JPG,8,ISIC_0060559.JPG,28,52,false,0.1,ll,keypress(f),0,false,2370404.1999999285,2370403.7999999523,2367689.3,2367799.2999999523,2367706.5,2370325,5,600,32,
break,html.Screen,10_31_1,2024-03-19T18:15:51.069Z,,,,,,,,,,,NaN,,,,,,,,low,low,,,,,,,false,,,,,false,2370405.5999999046,2370405.2999999523,,2370404.6999999285,,2370325,5,600,,
break_continue,html.Screen,10_31_2,2024-03-19T18:15:51.070Z,,,,,,,,,,,NaN,,,,,,,,low,low,,,,,,,false,,,,,false,2370406.399999976,2370406.0999999046,,2370405.7999999523,,2370325,5,600,,
sequence,flow.Sequence,10_31,2024-03-19T18:15:51.071Z,,,,,,,,,,,2699.5999999046326,completion,,,,,,,low,low,,,,,,,false,,,,,false,2370406.6999999285,2370406.0999999046,2367689.3,2367799.1999999285,2367706.5,2370325,5,600,,
trial,html.Screen,10_32_0,2024-03-19T18:15:58.348Z,,,,1,-0.012810673904807,0.00400964452501,,0.04,false,hl,7358.599999904633,response,0.849847885203758,0.8580191523498291,-0.9901307079964191,-0.973447384095442,0.9296402346405488,-0.94489502740722,high,low,,ISIC_0064656.JPG,9,ISIC_9612228.JPG,28,28,false,0.15000000000000002,ll,keypress(f),0,false,2377684,2377683.5999999046,2370308.2,2370407,2370325,2377597.8,5,600,33,
break,html.Screen,10_32_1,2024-03-19T18:15:58.349Z,,,,,,,,,,,NaN,,,,,,,,high,low,,,,,,,false,,,,,false,2377685.2999999523,2377685,,2377684.5,,2377597.8,5,600,,
break_continue,html.Screen,10_32_2,2024-03-19T18:15:58.350Z,,,,,,,,,,,NaN,,,,,,,,high,low,,,,,,,false,,,,,false,2377686.1999999285,2377685.899999976,,2377685.5999999046,,2377597.8,5,600,,
sequence,flow.Sequence,10_32,2024-03-19T18:15:58.350Z,,,,,,,,,,,7360.899999976158,completion,,,,,,,high,low,,,,,,,false,,,,,false,2377686.5,2377685.899999976,2370308.2,2370407,2370325,2377597.8,5,600,,
trial,html.Screen,10_33_0,2024-03-19T18:16:14.348Z,,,,1,-0.0118555311043871,-0.0087774532070196,,0.04,,,16013,timeout,0.7898684912324617,0.8580191523498291,-0.9901307079964191,-0.8342581908806269,0.9296402346405488,-0.94489502740722,high,low,,ISIC_6488658.JPG,9,ISIC_0046537.JPG,28,28,false,0.15000000000000002,,,0,false,2393684.2999999523,2393683.899999976,2377580.9,2377686.7999999523,2377597.8,2393610.8,5,600,34,
break,html.Screen,10_33_1,2024-03-19T18:16:14.349Z,,,,,,,,,,,NaN,,,,,,,,high,low,,,,,,,false,,,,,false,2393685.6999999285,2393685.399999976,,2393684.7999999523,,2393610.8,5,600,,
break_continue,html.Screen,10_33_2,2024-03-19T18:16:14.350Z,,,,,,,,,,,NaN,,,,,,,,high,low,,,,,,,false,,,,,false,2393686.5999999046,2393686.2999999523,,2393686,,2393610.8,5,600,,
sequence,flow.Sequence,10_33,2024-03-19T18:16:14.350Z,,,,,,,,,,,16088.499999952503,completion,,,,,,,high,low,,,,,,,false,,,,,false,2393687,2393686.2999999523,2377580.9,2377686.6999999285,2377597.8,2393610.8,5,600,,
trial,html.Screen,10_34_0,2024-03-19T18:16:22.476Z,,,,1,-0.0023664502831079,-0.0252784582169994,,0.04,true,ll,8201.499999952503,response,-0.9585938767259125,0.8580191523498291,-0.9901307079964191,-0.8493445183566039,0.9296402346405488,-0.94489502740722,low,low,,ISIC_4156010.JPG,8,ISIC_0055003.JPG,28,52,false,0.1,ll,keypress(f),0,false,2401812.7999999523,2401812.2999999523,2393594.4,2393687.2999999523,2393610.8,2401717.6,5,600,35,
break,html.Screen,10_34_1,2024-03-19T18:16:22.478Z,,,,,,,,,,,NaN,,,,,,,,low,low,,,,,,,false,,,,,false,2401814.6999999285,2401814.1999999285,,2401813.2999999523,,2401717.6,5,600,,
break_continue,html.Screen,10_34_2,2024-03-19T18:16:22.479Z,,,,,,,,,,,NaN,,,,,,,,low,low,,,,,,,false,,,,,false,2401815.7999999523,2401815.5,,2401815,,2401717.6,5,600,,
sequence,flow.Sequence,10_34,2024-03-19T18:16:22.480Z,,,,,,,,,,,8204.700000000186,completion,,,,,,,low,low,,,,,,,false,,,,,false,2401816.1999999285,2401815.5,2393594.4,2393687.0999999046,2393610.8,2401717.6,5,600,,
trial,html.Screen,10_35_0,2024-03-19T18:16:27.884Z,,,,1,-0.00126575685933,-0.0325046559638838,,0.04,false,hl,5502.299999976065,response,0.8923602890201078,0.8580191523498291,-0.9901307079964191,-0.8351700666074688,0.9296402346405488,-0.94489502740722,high,low,,ISIC_5682259.JPG,9,ISIC_0033103.JPG,28,28,false,0.15000000000000002,hh,keypress(i),0,false,2407220.2999999523,2407219.899999976,2401711.848,2401816.5,2401717.6,2407122.1,5,600,36,
break,html.Screen,10_35_1,2024-03-19T18:16:27.885Z,,,,,,,,,,,NaN,,,,,,,,high,low,,,,,,,false,,,,,false,2407221.5999999046,2407221.399999976,,2407220.6999999285,,2407122.1,5,600,,
break_continue,html.Screen,10_35_2,2024-03-19T18:16:27.886Z,,,,,,,,,,,NaN,,,,,,,,high,low,,,,,,,false,,,,,false,2407222.5,2407222.2999999523,,2407221.899999976,,2407122.1,5,600,,
sequence,flow.Sequence,10_35,2024-03-19T18:16:27.886Z,,,,,,,,,,,5504.699999952223,completion,,,,,,,high,low,,,,,,,false,,,,,false,2407222.899999976,2407222.2999999523,2401711.848,2401816.399999976,2401717.6,2407122.1,5,600,,
trial,html.Screen,10_36_0,2024-03-19T18:16:30.796Z,,,,1,-0.012020985739544,0.0126097407389903,,0.04,true,hh,3010.299999976065,response,0.8093178584833343,0.8580191523498291,-0.9901307079964191,1.0139833925057518,0.9296402346405488,-0.94489502740722,high,high,,ISIC_0069379.JPG,9,ISIC_6171084.JPG,28,39,false,0.1,hh,keypress(i),0,false,2410132.899999976,2410132.399999976,2407119.392,2407223.0999999046,2407122.1,2410041.4,5,600,37,
break,html.Screen,10_36_1,2024-03-19T18:16:30.798Z,,,,,,,,,,,NaN,,,,,,,,high,high,,,,,,,false,,,,,false,2410134.2999999523,2410134,,2410133.399999976,,2410041.4,5,600,,
break_continue,html.Screen,10_36_2,2024-03-19T18:16:30.799Z,,,,,,,,,,,NaN,,,,,,,,high,high,,,,,,,false,,,,,false,2410135.0999999046,2410134.899999976,,2410134.5999999046,,2410041.4,5,600,,
sequence,flow.Sequence,10_36,2024-03-19T18:16:30.799Z,,,,,,,,,,,3012.799999976065,completion,,,,,,,high,high,,,,,,,false,,,,,false,2410135.5,2410134.899999976,2407119.392,2407223,2407122.1,2410041.4,5,600,,
trial,html.Screen,10_37_0,2024-03-19T18:16:32.844Z,,,,1,-0.0350697500805515,-0.0166617848231997,,0.04,true,ll,2138.8999999524094,response,-1.086780249085418,0.8580191523498291,-0.9901307079964191,-0.8982771817382743,0.9296402346405488,-0.94489502740722,low,low,,ISIC_0024423.JPG,9,ISIC_0057821.JPG,28,52,false,0.1,ll,keypress(f),0,false,2412180.6999999285,2412180.2999999523,2410024.5,2410135.7999999523,2410041.4,2412109.5,5,600,38,
break,html.Screen,10_37_1,2024-03-19T18:16:32.845Z,,,,,,,,,,,NaN,,,,,,,,low,low,,,,,,,false,,,,,false,2412182.0999999046,2412181.6999999285,,2412181.0999999046,,2412109.5,5,600,,
break_continue,html.Screen,10_37_2,2024-03-19T18:16:32.846Z,,,,,,,,,,,NaN,,,,,,,,low,low,,,,,,,false,,,,,false,2412183,2412182.6999999285,,2412182.399999976,,2412109.5,5,600,,
