sender,sender_type,sender_id,timestamp,meta,,age,blockNo,c1,c2,condition,control_tolerance,correct,correctResponse,duration,ended_on,f1,f1_high,f1_low,f2,f2_high,f2_low,feature_level1,feature_level2,gender,img_left,img_reveal,img_right,n_control_images,n_target_images,practice,range_tolerance,response,response_action,selection_duration,staircase,time_commit,time_end,time_render,time_run,time_show,time_switch,total_blocks,total_trials,trialNo,url
informed_consent,html.Screen,0,2023-11-30T18:22:22.915Z,"{""labjs_version"":""20.2.4"",""labjs_build"":{""flavor"":""development"",""commit"":""f5b4a49f956347addd546a832a3327688c2c0fef""},""location"":""https://labjs.felixhenninger.com/api/labjs_preview/index.html"",""userAgent"":""Mozilla/5.0 (Windows NT 10.0; Win64; x64) AppleWebKit/537.36 (KHTML, like Gecko) Chrome/119.0.0.0 Safari/537.36"",""platform"":""Win32"",""language"":""en-US"",""locale"":""en-US"",""timeZone"":""America/Chicago"",""timezoneOffset"":360,""screen_width"":1920,""screen_height"":1080,""scroll_width"":945,""scroll_height"":918,""window_innerWidth"":945,""window_innerHeight"":966,""devicePixelRatio"":1}",,,,,,,,,,11793.718000047684,response,,,,,,,,,,,,,,,,,consent,click button,,,12388,12381.200000047684,570.706,558.0999999046326,587.482,12404.532,,,,{}
Demography form,html.Form,1,2023-11-30T18:22:31.218Z,,,21,,,,,,,,8286.968,form submission,,,,,,,,,male,,,,,,,,,,,,20691.599999904633,20691.5,12387.386,12388.299999952316,12404.532,20687.365,,,,
Welcome,html.Screen,2,2023-11-30T18:23:25.349Z,,,,,,,"[""bor"",""col""]",,,,54133.83500004768,response,,,,,,,,,,,,,,,,,continue,click button,,,74822,74821.20000004768,20670.702,20691.700000047684,20687.365,74837.486,,,,
demo_instructions,html.Screen,3,2023-11-30T18:24:17.756Z,,,,,,,,,,,52391.41400009536,response,,,,,,,,,,,,,,,,,continue,click button,,,127229.5,127228.90000009537,74820.809,74822.09999990463,74837.486,127254.35,,,,
trial,html.Screen,4_0_0,2023-11-30T18:24:30.077Z,,,,0,-1.1243896694621007,-1.1772340944704969,,,true,hh,12295.649999999994,response,1.274752206258116,1.2,-1.2,1.2988509166163749,1.2,-1.2,high,high,,ISIC_0062765.JPG,,ISIC_6704623.JPG,,25,true,0.14,hh,keypress(i),100,false,139550.20000004768,139550,127237.249,127229.59999990463,127254.35,139570.577,1,16,1,
sequence,flow.Sequence,4_0,2023-11-30T18:24:30.077Z,,,,,,,,,,,12295.649999999994,completion,,,,,,,high,high,,,,,,,true,,,,,false,139550.40000009537,139550,127237.249,127229.59999990463,127254.35,139570.577,1,16,,
trial,html.Screen,4_1_0,2023-11-30T18:24:35.010Z,,,,0,-1.1302628852630028,-1.288906469447243,,,true,hh,4912.022999904642,response,1.1989130276493527,1.2,-1.2,1.2666195460149832,1.2,-1.2,high,high,,ISIC_0071050.JPG,,ISIC_0031705.JPG,,25,true,0.14,hh,keypress(i),100,false,144482.79999995232,144482.59999990463,139553.931,139550.40000009537,139570.577,144503.919,1,16,2,
sequence,flow.Sequence,4_1,2023-11-30T18:24:35.010Z,,,,,,,,,,,4912.022999904642,completion,,,,,,,high,high,,,,,,,true,,,,,false,144483,144482.59999990463,139553.931,139550.40000009537,139570.577,144503.919,1,16,,
trial,html.Screen,4_2_0,2023-11-30T18:24:53.559Z,,,,0,-1.1048559518249943,-1.2252457981338687,,,true,hh,18527.680999904638,response,1.1989130276493527,1.2,-1.2,1.2666195460149832,1.2,-1.2,high,high,,ISIC_0060817.JPG,,ISIC_0031705.JPG,,25,true,0.14,hh,keypress(i),100,false,163031.79999995232,163031.59999990463,144487.307,144483.09999990463,144503.919,163053.884,1,16,3,
sequence,flow.Sequence,4_2,2023-11-30T18:24:53.559Z,,,,,,,,,,,18527.680999904638,completion,,,,,,,high,high,,,,,,,true,,,,,false,163032.09999990463,163031.59999990463,144487.307,144483.09999990463,144503.919,163053.884,1,16,,
trial,html.Screen,4_3_0,2023-11-30T18:25:00.269Z,,,,0,-1.1017564906891342,-1.293633394635193,,,true,hh,6687.616000000009,response,1.274417010249866,1.2,-1.2,1.0725495669014795,1.2,-1.2,high,high,,ISIC_0029026.JPG,,ISIC_8849004.JPG,,25,true,0.14,hh,keypress(i),100,false,169741.90000009537,169741.5,163037.418,163032.20000004768,163053.884,169770.648,1,16,4,
sequence,flow.Sequence,4_3,2023-11-30T18:25:00.269Z,,,,,,,,,,,6687.616000000009,completion,,,,,,,high,high,,,,,,,true,,,,,false,169742,169741.5,163037.418,163032.09999990463,163053.884,169770.648,1,16,,
trial,html.Screen,4_4_0,2023-11-30T18:25:07.825Z,,,,0,1.1843968275545205,1.2828739728067764,,,true,ll,7527.65199995233,response,-1.2691569063625474,1.2,-1.2,-1.1264228993232308,1.2,-1.2,low,low,,ISIC_0002901.JPG,,ISIC_4980656.JPG,,30,true,0.13,ll,keypress(f),100,false,177298.5,177298.29999995232,169754.126,169742.09999990463,169770.648,177320.516,1,16,5,
sequence,flow.Sequence,4_4,2023-11-30T18:25:07.826Z,,,,,,,,,,,7527.65199995233,completion,,,,,,,low,low,,,,,,,true,,,,,false,177298.59999990463,177298.29999995232,169754.126,169742.09999990463,169770.648,177320.516,1,16,,
trial,html.Screen,4_5_0,2023-11-30T18:25:17.815Z,,,,0,1.2600330864275875,1.0958628838888655,,,true,ll,9967.08399990463,response,-1.0769708994456726,1.2,-1.2,-1.2196503533725178,1.2,-1.2,low,low,,ISIC_0026996.JPG,,ISIC_0063824.JPG,,40,true,0.14,ll,keypress(f),100,false,187287.79999995232,187287.59999990463,177304.066,177298.79999995232,177320.516,187304.101,1,16,6,
sequence,flow.Sequence,4_5,2023-11-30T18:25:17.815Z,,,,,,,,,,,9967.08399990463,completion,,,,,,,low,low,,,,,,,true,,,,,false,187288,187287.59999990463,177304.066,177298.79999995232,177320.516,187304.101,1,16,,
trial,html.Screen,4_6_0,2023-11-30T18:25:21.052Z,,,,0,1.1870093485714288,1.3339880978442629,,,true,ll,3220.399000000005,response,-1.0769708994456726,1.2,-1.2,-1.2196503533725178,1.2,-1.2,low,low,,ISIC_8592235.JPG,,ISIC_0063824.JPG,,40,true,0.14,ll,keypress(f),100,false,190524.79999995232,190524.5,187287.312,187288.09999990463,187304.101,190554.047,1,16,7,
sequence,flow.Sequence,4_6,2023-11-30T18:25:21.052Z,,,,,,,,,,,3220.399000000005,completion,,,,,,,low,low,,,,,,,true,,,,,false,190524.79999995232,190524.5,187287.312,187288.09999990463,187304.101,190554.047,1,16,,
trial,html.Screen,4_7_0,2023-11-30T18:25:24.576Z,,,,0,1.1989130276493527,1.2666195460149832,,,true,ll,3494.6530000476923,response,-1.0915173513546716,1.2,-1.2,-1.266840220031473,1.2,-1.2,low,low,,ISIC_0031705.JPG,,ISIC_8241457.JPG,,40,true,0.14,ll,keypress(f),100,false,194048.79999995232,194048.70000004768,190537.176,190524.90000009537,190554.047,194070.685,1,16,8,
sequence,flow.Sequence,4_7,2023-11-30T18:25:24.576Z,,,,,,,,,,,3494.6530000476923,completion,,,,,,,low,low,,,,,,,true,,,,,false,194048.90000009537,194048.70000004768,190537.176,190524.90000009537,190554.047,194070.685,1,16,,
trial,html.Screen,4_8_0,2023-11-30T18:25:42.129Z,,,,0,0.8513427412482127,-0.9295303568095064,,,true,lh,17531.315000000002,response,-0.8307508446051526,1.2,-1.2,1.1707575338936729,1.2,-1.2,low,high,,ISIC_0034164.JPG,,ISIC_0028606.JPG,,27,true,0.40000000000000024,lh,keypress(e),100,false,211602.20000004768,211602,194053.84,194049,194070.685,211620.658,1,16,9,
sequence,flow.Sequence,4_8,2023-11-30T18:25:42.130Z,,,,,,,,,,,17531.315000000002,completion,,,,,,,low,high,,,,,,,true,,,,,false,211602.29999995232,211602,194053.84,194049,194070.685,211620.658,1,16,,
trial,html.Screen,4_9_0,2023-11-30T18:25:50.045Z,,,,0,1.075512775389519,-1.0454702683049502,,,true,lh,7897.242000095372,response,-0.8867328775712738,1.2,-1.2,1.0063426986460375,1.2,-1.2,low,high,,ISIC_0033603.JPG,,ISIC_0055759.JPG,,40,true,0.4500000000000003,lh,keypress(e),100,false,219518,219517.90000009537,211603.814,211602.40000009537,211620.658,219537.154,1,16,10,
sequence,flow.Sequence,4_9,2023-11-30T18:25:50.045Z,,,,,,,,,,,7897.242000095372,completion,,,,,,,low,high,,,,,,,true,,,,,false,219518.20000004768,219517.90000009537,211603.814,211602.40000009537,211620.658,219537.154,1,16,,
trial,html.Screen,4_10_0,2023-11-30T18:26:01.927Z,,,,0,1.0329549150636406,-1.01584100839286,,,true,lh,11862.945999904623,response,-0.7688509750532941,1.2,-1.2,0.7699842387811451,1.2,-1.2,low,high,,ISIC_0054670.JPG,,ISIC_0014527.JPG,,40,true,0.4500000000000003,lh,keypress(e),100,false,231400.29999995232,231400.09999990463,219520.48,219518.20000004768,219537.154,231420.718,1,16,11,
sequence,flow.Sequence,4_10,2023-11-30T18:26:01.928Z,,,,,,,,,,,11862.945999904623,completion,,,,,,,low,high,,,,,,,true,,,,,false,231400.40000009537,231400.09999990463,219520.48,219518.20000004768,219537.154,231420.718,1,16,,
trial,html.Screen,4_11_0,2023-11-30T18:26:10.213Z,,,,0,1.0369885917487718,-0.8486937878412699,,,true,lh,8264.782000000007,response,-1.2594580992890123,1.2,-1.2,0.8833175387485132,1.2,-1.2,low,high,,ISIC_6917681.JPG,,ISIC_0011933.JPG,,40,true,0.4500000000000003,lh,keypress(e),100,false,239685.70000004768,239685.5,231403.795,231400.5,231420.718,239703.991,1,16,12,
sequence,flow.Sequence,4_11,2023-11-30T18:26:10.213Z,,,,,,,,,,,8264.782000000007,completion,,,,,,,low,high,,,,,,,true,,,,,false,239685.79999995232,239685.5,231403.795,231400.5,231420.718,239703.991,1,16,,
trial,html.Screen,4_12_0,2023-11-30T18:26:21.248Z,,,,0,-1.2020012168275056,0.923753102263735,,,true,hl,11016.909000095358,response,1.2578167348825195,1.2,-1.2,-0.8371819698254004,1.2,-1.2,high,low,,ISIC_0000022.JPG,,ISIC_9613570.JPG,,26,true,0.4500000000000003,hl,keypress(j),100,false,250721.09999990463,250720.90000009537,239687.117,239685.90000009537,239703.991,250737.209,1,16,13,
sequence,flow.Sequence,4_12,2023-11-30T18:26:21.248Z,,,,,,,,,,,11016.909000095358,completion,,,,,,,high,low,,,,,,,true,,,,,false,250721.20000004768,250720.90000009537,239687.117,239685.79999995232,239703.991,250737.209,1,16,,
trial,html.Screen,4_13_0,2023-11-30T18:26:33.662Z,,,,0,-0.9138670886161264,0.8414121478342018,,,true,hl,12397.491000047681,response,0.7991459998473059,1.2,-1.2,-1.0280788723474688,1.2,-1.2,high,low,,ISIC_6709052.JPG,,ISIC_7951202.JPG,,26,true,0.4500000000000003,hl,keypress(j),100,false,263134.7999999523,263134.7000000477,250720.444,250721.29999995232,250737.209,263153.761,1,16,14,
sequence,flow.Sequence,4_13,2023-11-30T18:26:33.663Z,,,,,,,,,,,12397.491000047681,completion,,,,,,,high,low,,,,,,,true,,,,,false,263135.09999990463,263134.7000000477,250720.444,250721.29999995232,250737.209,263153.761,1,16,,
trial,html.Screen,4_14_0,2023-11-30T18:26:44.095Z,,,,0,-1.0116417541846066,1.033442916947398,,,true,hl,10413.838999904634,response,1.199471562817528,1.2,-1.2,-0.8631260534979347,1.2,-1.2,high,low,,ISIC_0031389.JPG,,ISIC_0030754.JPG,,26,true,0.4500000000000003,hl,keypress(j),100,false,273567.7000000477,273567.59999990463,263137.082,263135.2000000477,263153.761,273587.289,1,16,15,
sequence,flow.Sequence,4_14,2023-11-30T18:26:44.095Z,,,,,,,,,,,10413.838999904634,completion,,,,,,,high,low,,,,,,,true,,,,,false,273568,273567.59999990463,263137.082,263135.09999990463,263153.761,273587.289,1,16,,
trial,html.Screen,4_15_0,2023-11-30T18:26:53.628Z,,,,0,-1.0788024398087033,0.9911875460374616,,,true,hl,9513.21100000001,response,1.2054195059663604,1.2,-1.2,-0.7760611240296147,1.2,-1.2,high,low,,ISIC_5951430.JPG,,ISIC_8712559.JPG,,26,true,0.4500000000000003,hl,keypress(j),100,false,283100.7000000477,283100.5,273570.425,273568,273587.289,283120.602,1,16,16,
sequence,flow.Sequence,4_15,2023-11-30T18:26:53.628Z,,,,,,,,,,,9513.21100000001,completion,,,,,,,high,low,,,,,,,true,,,,,false,283100.7999999523,283100.5,273570.425,273568,273587.289,283120.602,1,16,,
demonstration_loop,flow.Loop,4,2023-11-30T18:26:53.628Z,,,,,,,,,,,155846.15,completion,,,,,,,,,,,,,,,true,,,,,false,283100.90000009537,283100.5,127237.249,127229.59999990463,127254.35,283120.602,1,16,,
practice_instructions,html.Screen,5,2023-11-30T18:27:13.938Z,,,,,,,,,,,20284.298000095354,response,,,,,,,,,,,,,,,,,continue,click button,,,303410.7999999523,303404.90000009537,283103.733,283100.90000009537,283120.602,303420.379,,,,
trial,html.Screen,6_0_0,2023-11-30T18:27:29.934Z,,,,1,-0.9244148283103414,0.9712966348713286,,,,,16016.782999999996,timeout,1.058275612142778,1.2,-1.2,-0.7824898568540655,1.2,-1.2,high,low,,ISIC_7927525.JPG,,ISIC_4906385.JPG,,26,true,0.4500000000000003,,,0,false,319406.7999999523,319406.7000000477,303403.783,303411,303420.379,319437.162,1,40,1,
sequence,flow.Sequence,6_0,2023-11-30T18:27:29.934Z,,,,,,,,,,,15986.321000047668,completion,,,,,,,high,low,,,,,,,true,,,,,false,319406.90000009537,319406.7000000477,303403.783,303410.90000009537,303420.379,319437.162,1,40,,
trial,html.Screen,6_1_0,2023-11-30T18:27:38.768Z,,,,1,-1.266079261381142,-1.312161506160336,,,true,hh,8803.337999999989,response,1.1843968275545205,1.2,-1.2,1.2828739728067764,1.2,-1.2,high,high,,ISIC_0065449.JPG,,ISIC_0002901.JPG,,203,true,0.40000000000000024,hh,keypress(i),0,false,328240.59999990463,328240.5,319420.524,319407,319437.162,328270.542,1,40,2,
sequence,flow.Sequence,6_1,2023-11-30T18:27:38.768Z,,,,,,,,,,,8803.337999999989,completion,,,,,,,high,high,,,,,,,true,,,,,false,328240.7999999523,328240.5,319420.524,319407,319437.162,328270.542,1,40,,
trial,html.Screen,6_2_0,2023-11-30T18:27:50.878Z,,,,1,1.274417010249866,1.0725495669014795,,,true,ll,12079.7579999523,response,-1.1195710731537871,1.2,-1.2,-1.1961732733209125,1.2,-1.2,low,low,,ISIC_8849004.JPG,,ISIC_0067170.JPG,,30,true,0.13,ll,keypress(f),0,false,340350.5,340350.2999999523,328253.661,328240.7999999523,328270.542,340353.646,1,40,3,
sequence,flow.Sequence,6_2,2023-11-30T18:27:50.878Z,,,,,,,,,,,12079.7579999523,completion,,,,,,,low,low,,,,,,,true,,,,,false,340350.59999990463,340350.2999999523,328253.661,328240.7999999523,328270.542,340353.646,1,40,,
trial,html.Screen,6_3_0,2023-11-30T18:28:01.470Z,,,,1,-1.0788024398087033,0.9911875460374616,,,true,hl,10588.853999999992,response,1.058275612142778,1.2,-1.2,-0.7824898568540655,1.2,-1.2,high,low,,ISIC_5951430.JPG,,ISIC_4906385.JPG,,26,true,0.4500000000000003,hl,keypress(j),0,false,350942.7000000477,350942.5,340336.732,340350.59999990463,340353.646,350953.82,1,40,4,
sequence,flow.Sequence,6_3,2023-11-30T18:28:01.470Z,,,,,,,,,,,10588.853999999992,completion,,,,,,,high,low,,,,,,,true,,,,,false,350942.7000000477,350942.5,340336.732,340350.59999990463,340353.646,350953.82,1,40,,
trial,html.Screen,6_4_0,2023-11-30T18:28:10.990Z,,,,1,1.0943527860463682,1.124481746658104,,,true,ll,9508.58000009536,response,-1.2617456701256584,1.2,-1.2,-1.4400920278154303,1.2,-1.2,low,low,,ISIC_0438136.JPG,,ISIC_0013341.JPG,,288,true,0.40000000000000024,ll,keypress(f),0,false,360462.5,360462.40000009537,350936.608,350942.7999999523,350953.82,360470.276,1,40,5,
sequence,flow.Sequence,6_4,2023-11-30T18:28:10.990Z,,,,,,,,,,,9508.58000009536,completion,,,,,,,low,low,,,,,,,true,,,,,false,360462.59999990463,360462.40000009537,350936.608,350942.7000000477,350953.82,360470.276,1,40,,
trial,html.Screen,6_5_0,2023-11-30T18:28:21.678Z,,,,1,-0.8307508446051526,1.1707575338936729,,,true,hl,10680.023999952304,response,1.2578167348825195,1.2,-1.2,-0.8371819698254004,1.2,-1.2,high,low,,ISIC_0028606.JPG,,ISIC_9613570.JPG,,26,true,0.4500000000000003,hl,keypress(j),0,false,371150.40000009537,371150.2999999523,360453.298,360462.59999990463,360470.276,371153.608,1,40,6,
sequence,flow.Sequence,6_5,2023-11-30T18:28:21.678Z,,,,,,,,,,,10680.023999952304,completion,,,,,,,high,low,,,,,,,true,,,,,false,371150.59999990463,371150.2999999523,360453.298,360462.59999990463,360470.276,371153.608,1,40,,
trial,html.Screen,6_6_0,2023-11-30T18:28:27.294Z,,,,1,1.1684835186766898,1.2921331918483707,,,true,ll,5612.29200009536,response,-1.1078259498922374,1.2,-1.2,-0.9020376444393038,1.2,-1.2,low,low,,ISIC_5920470.JPG,,ISIC_0071069.JPG,,288,true,0.40000000000000024,ll,keypress(f),0,false,376766,376765.90000009537,371136.612,371150.59999990463,371153.608,376770.282,1,40,7,
sequence,flow.Sequence,6_6,2023-11-30T18:28:27.294Z,,,,,,,,,,,5612.29200009536,completion,,,,,,,low,low,,,,,,,true,,,,,false,376766,376765.90000009537,371136.612,371150.59999990463,371153.608,376770.282,1,40,,
trial,html.Screen,6_7_0,2023-11-30T18:28:42.302Z,,,,1,-0.90812608370647,1.2720026872926935,,,true,hl,15003.918000047677,response,0.8828738626295417,1.2,-1.2,-0.8288177599439582,1.2,-1.2,high,low,,ISIC_0450295.JPG,,ISIC_0056041.JPG,,26,true,0.4500000000000003,hl,keypress(j),0,false,391774.2999999523,391774.2000000477,376753.559,376766.09999990463,376770.282,391786.972,1,40,8,
sequence,flow.Sequence,6_7,2023-11-30T18:28:42.302Z,,,,,,,,,,,15003.918000047677,completion,,,,,,,high,low,,,,,,,true,,,,,false,391774.40000009537,391774.2000000477,376753.559,376766.09999990463,376770.282,391786.972,1,40,,
trial,html.Screen,6_8_0,2023-11-30T18:28:51.214Z,,,,1,0.8110121381849364,-0.7563142141851558,,,true,lh,8899.428000095359,response,-0.8307508446051526,1.2,-1.2,1.1707575338936729,1.2,-1.2,low,high,,ISIC_0033605.JPG,,ISIC_0028606.JPG,,27,true,0.40000000000000024,lh,keypress(e),0,false,400686.40000009537,400686.40000009537,391769.995,391774.40000009537,391786.972,400703.579,1,40,9,
sequence,flow.Sequence,6_8,2023-11-30T18:28:51.214Z,,,,,,,,,,,8899.428000095359,completion,,,,,,,low,high,,,,,,,true,,,,,false,400686.59999990463,400686.40000009537,391769.995,391774.40000009537,391786.972,400703.579,1,40,,
trial,html.Screen,6_9_0,2023-11-30T18:29:05.982Z,,,,1,-1.1936751736668425,-1.2584308630745344,,,true,hh,14750.82100009534,response,1.5111131740087482,1.2,-1.2,1.2323628206896138,1.2,-1.2,high,high,,ISIC_0061265.JPG,,ISIC_6588982.JPG,,265,true,0.4500000000000003,hh,keypress(i),0,false,415454.5,415454.40000009537,400686.661,400686.7000000477,400703.579,415470.245,1,40,10,
sequence,flow.Sequence,6_9,2023-11-30T18:29:05.982Z,,,,,,,,,,,14750.82100009534,completion,,,,,,,high,high,,,,,,,true,,,,,false,415454.5,415454.40000009537,400686.661,400686.7000000477,400703.579,415470.245,1,40,,
trial,html.Screen,6_10_0,2023-11-30T18:29:15.566Z,,,,1,-1.2020012168275056,0.923753102263735,,,true,hl,9567.955000047688,response,0.8472024037189965,1.2,-1.2,-0.986370061404882,1.2,-1.2,high,low,,ISIC_0000022.JPG,,ISIC_0054355.JPG,,26,true,0.4500000000000003,hl,keypress(j),0,false,425038.2999999523,425038.2000000477,415453.056,415454.59999990463,415470.245,425053.816,1,40,11,
sequence,flow.Sequence,6_10,2023-11-30T18:29:15.566Z,,,,,,,,,,,9567.955000047688,completion,,,,,,,high,low,,,,,,,true,,,,,false,425038.2999999523,425038.2000000477,415453.056,415454.59999990463,415470.245,425053.816,1,40,,
trial,html.Screen,6_11_0,2023-11-30T18:29:20.126Z,,,,1,-1.1392972253022884,-1.208510423375335,,,true,hh,4544.584000095376,response,0.8526775318290718,1.2,-1.2,0.9398012765219632,1.2,-1.2,high,high,,ISIC_0046526.JPG,,ISIC_2647198.JPG,,203,true,0.40000000000000024,hh,keypress(i),0,false,429598.5,429598.40000009537,425036.708,425038.40000009537,425053.816,429603.543,1,40,12,
sequence,flow.Sequence,6_11,2023-11-30T18:29:20.126Z,,,,,,,,,,,4544.584000095376,completion,,,,,,,high,high,,,,,,,true,,,,,false,429598.59999990463,429598.40000009537,425036.708,425038.40000009537,425053.816,429603.543,1,40,,
trial,html.Screen,6_12_0,2023-11-30T18:29:27.710Z,,,,1,0.8034318937720549,-1.0024917298189338,,,true,lh,7578.756999952311,response,-0.90812608370647,1.2,-1.2,1.2720026872926935,1.2,-1.2,low,high,,ISIC_0032766.JPG,,ISIC_0450295.JPG,,27,true,0.40000000000000024,lh,keypress(e),0,false,437182.40000009537,437182.2999999523,429586.92,429598.59999990463,429603.543,437186.886,1,40,13,
sequence,flow.Sequence,6_12,2023-11-30T18:29:27.710Z,,,,,,,,,,,7578.756999952311,completion,,,,,,,low,high,,,,,,,true,,,,,false,437182.5,437182.2999999523,429586.92,429598.59999990463,429603.543,437186.886,1,40,,
trial,html.Screen,6_13_0,2023-11-30T18:29:31.102Z,,,,1,-1.1017564906891342,-1.293633394635193,,,true,hh,3387.514000095369,response,0.940974390526586,1.2,-1.2,0.8027264864579817,1.2,-1.2,high,high,,ISIC_0029026.JPG,,ISIC_0032341.JPG,,265,true,0.4500000000000003,hh,keypress(i),0,false,440574.5,440574.40000009537,437170.222,437182.5,437186.886,440586.823,1,40,14,
sequence,flow.Sequence,6_13,2023-11-30T18:29:31.102Z,,,,,,,,,,,3387.514000095369,completion,,,,,,,high,high,,,,,,,true,,,,,false,440574.59999990463,440574.40000009537,437170.222,437182.5,437186.886,440586.823,1,40,,
trial,html.Screen,6_14_0,2023-11-30T18:29:34.254Z,,,,1,0.8926515927689261,-0.7935960767768927,,,true,lh,3139.4769999523414,response,-1.168911077628813,1.2,-1.2,1.2181838235193114,1.2,-1.2,low,high,,ISIC_8901371.JPG,,ISIC_7358691.JPG,,27,true,0.40000000000000024,lh,keypress(e),0,false,443726.40000009537,443726.2999999523,440570.301,440574.59999990463,440586.823,443736.874,1,40,15,
sequence,flow.Sequence,6_14,2023-11-30T18:29:34.254Z,,,,,,,,,,,3139.4769999523414,completion,,,,,,,low,high,,,,,,,true,,,,,false,443726.5,443726.2999999523,440570.301,440574.59999990463,440586.823,443736.874,1,40,,
trial,html.Screen,6_15_0,2023-11-30T18:29:37.790Z,,,,1,1.3246728710248594,1.1527736000922424,,,true,ll,3525.326000047673,response,-1.2482106842738283,1.2,-1.2,-1.5908577486721542,1.2,-1.2,low,low,,ISIC_6876281.JPG,,ISIC_0063842.JPG,,359,true,0.4500000000000003,ll,keypress(f),0,false,447262.2000000477,447262.2000000477,443720.545,443726.59999990463,443736.874,447270.366,1,40,16,
sequence,flow.Sequence,6_15,2023-11-30T18:29:37.790Z,,,,,,,,,,,3525.326000047673,completion,,,,,,,low,low,,,,,,,true,,,,,false,447262.40000009537,447262.2000000477,443720.545,443726.59999990463,443736.874,447270.366,1,40,,
trial,html.Screen,6_16_0,2023-11-30T18:29:40.094Z,,,,1,1.3379750533585932,1.1671342614509763,,,true,ll,2295.7339999046526,response,-1.236306205926646,1.2,-1.2,-1.116612676102794,1.2,-1.2,low,low,,ISIC_0063556.JPG,,ISIC_0054341.JPG,,40,true,0.14,ll,keypress(f),0,false,449566.2000000477,449566.09999990463,447253.704,447262.40000009537,447270.366,449570.186,1,40,17,
sequence,flow.Sequence,6_16,2023-11-30T18:29:40.094Z,,,,,,,,,,,2295.7339999046526,completion,,,,,,,low,low,,,,,,,true,,,,,false,449566.2999999523,449566.09999990463,447253.704,447262.40000009537,447270.366,449570.186,1,40,,
trial,html.Screen,6_17_0,2023-11-30T18:29:42.126Z,,,,1,0.8719231363109603,-0.7704280220140033,,,true,lh,2028.2140000953805,response,-0.90812608370647,1.2,-1.2,1.2720026872926935,1.2,-1.2,low,high,,ISIC_0029453.JPG,,ISIC_0450295.JPG,,27,true,0.40000000000000024,lh,keypress(e),0,false,451598.5,451598.40000009537,449553.748,449566.2999999523,449570.186,451603.503,1,40,18,
sequence,flow.Sequence,6_17,2023-11-30T18:29:42.126Z,,,,,,,,,,,2028.2140000953805,completion,,,,,,,low,high,,,,,,,true,,,,,false,451598.7000000477,451598.40000009537,449553.748,449566.2999999523,449570.186,451603.503,1,40,,
trial,html.Screen,6_18_0,2023-11-30T18:29:44.158Z,,,,1,1.3246728710248594,1.1527736000922424,,,true,ll,2026.3970000953414,response,-0.9715963767506804,1.2,-1.2,-0.9202593988538142,1.2,-1.2,low,low,,ISIC_6876281.JPG,,ISIC_0034059.JPG,,359,true,0.4500000000000003,ll,keypress(f),0,false,453630,453629.90000009537,451587.018,451598.7999999523,451603.503,453636.985,1,40,19,
sequence,flow.Sequence,6_18,2023-11-30T18:29:44.158Z,,,,,,,,,,,2026.3970000953414,completion,,,,,,,low,low,,,,,,,true,,,,,false,453630.09999990463,453629.90000009537,451587.018,451598.7000000477,451603.503,453636.985,1,40,,
trial,html.Screen,6_19_0,2023-11-30T18:29:50.318Z,,,,1,-1.266079261381142,-1.312161506160336,,,true,hh,6153.1149999046465,response,1.2253191093367526,1.2,-1.2,1.241905252673026,1.2,-1.2,high,high,,ISIC_0065449.JPG,,ISIC_1195689.JPG,,25,true,0.14,hh,keypress(i),0,false,459790.2000000477,459790.09999990463,453620.271,453630.2000000477,453636.985,459803.526,1,40,20,
sequence,flow.Sequence,6_19,2023-11-30T18:29:50.318Z,,,,,,,,,,,6153.1149999046465,completion,,,,,,,high,high,,,,,,,true,,,,,false,459790.40000009537,459790.09999990463,453620.271,453630.2000000477,453636.985,459803.526,1,40,,
trial,html.Screen,6_20_0,2023-11-30T18:30:01.502Z,,,,1,-0.8047295996345292,1.551750455622795,,,true,hl,11170.07399990462,response,0.9653573371180936,1.2,-1.2,-0.854766800381037,1.2,-1.2,high,low,,ISIC_7717907.JPG,,ISIC_9640145.JPG,,26,true,0.4500000000000003,hl,keypress(j),0,false,470973.7000000477,470973.59999990463,459786.922,459790.40000009537,459803.526,470986.827,1,40,21,
sequence,flow.Sequence,6_20,2023-11-30T18:30:01.502Z,,,,,,,,,,,11170.07399990462,completion,,,,,,,high,low,,,,,,,true,,,,,false,470973.90000009537,470973.59999990463,459786.922,459790.40000009537,459803.526,470986.827,1,40,,
trial,html.Screen,6_21_0,2023-11-30T18:30:10.846Z,,,,1,-0.9089402323867112,0.8034544077281132,,,true,hl,9330.873000047693,response,1.058275612142778,1.2,-1.2,-0.7824898568540655,1.2,-1.2,high,low,,ISIC_3585381.JPG,,ISIC_4906385.JPG,,26,true,0.4500000000000003,hl,keypress(j),0,false,480317.7999999523,480317.7000000477,470970.011,470973.90000009537,470986.827,480320.144,1,40,22,
sequence,flow.Sequence,6_21,2023-11-30T18:30:10.846Z,,,,,,,,,,,9330.873000047693,completion,,,,,,,high,low,,,,,,,true,,,,,false,480317.90000009537,480317.7000000477,470970.011,470973.90000009537,470986.827,480320.144,1,40,,
trial,html.Screen,6_22_0,2023-11-30T18:30:15.486Z,,,,1,-1.0773466327271526,-1.1601445610079184,,,true,hh,4637.856000000029,response,1.077278111180185,1.2,-1.2,1.1530533996184025,1.2,-1.2,high,high,,ISIC_0055169.JPG,,ISIC_9525136.JPG,,203,true,0.40000000000000024,hh,keypress(i),0,false,484958.09999990463,484958,480303.42,480318,480320.144,484970.162,1,40,23,
sequence,flow.Sequence,6_22,2023-11-30T18:30:15.486Z,,,,,,,,,,,4637.856000000029,completion,,,,,,,high,high,,,,,,,true,,,,,false,484958.2999999523,484958,480303.42,480318,480320.144,484970.162,1,40,,
trial,html.Screen,6_23_0,2023-11-30T18:30:27.086Z,,,,1,-1.0153439398566937,0.93001438372942,,,true,hl,11587.937999904621,response,0.8926515927689261,1.2,-1.2,-0.7935960767768927,1.2,-1.2,high,low,,ISIC_8211214.JPG,,ISIC_8901371.JPG,,26,true,0.4500000000000003,hl,keypress(j),0,false,496558.2000000477,496558.09999990463,484953.794,484958.2999999523,484970.162,496570.309,1,40,24,
sequence,flow.Sequence,6_23,2023-11-30T18:30:27.086Z,,,,,,,,,,,11587.937999904621,completion,,,,,,,high,low,,,,,,,true,,,,,false,496558.2999999523,496558.09999990463,484953.794,484958.2999999523,484970.162,496570.309,1,40,,
trial,html.Screen,6_24_0,2023-11-30T18:30:32.302Z,,,,1,1.151139267005652,1.0838749490501327,,,true,ll,5203.190999999992,response,-1.3856931580623804,1.2,-1.2,-0.9631424544822118,1.2,-1.2,low,low,,ISIC_0002566.JPG,,ISIC_0057518.JPG,,288,true,0.40000000000000024,ll,keypress(f),0,false,501773.7000000477,501773.5,496553.107,496558.40000009537,496570.309,501786.815,1,40,25,
sequence,flow.Sequence,6_24,2023-11-30T18:30:32.302Z,,,,,,,,,,,5203.190999999992,completion,,,,,,,low,low,,,,,,,true,,,,,false,501773.7000000477,501773.5,496553.107,496558.40000009537,496570.309,501786.815,1,40,,
trial,html.Screen,6_25_0,2023-11-30T18:30:42.654Z,,,,1,-1.0685314915436992,0.8203833713472237,,,true,hl,10339.385000047681,response,0.9754077946987664,1.2,-1.2,-1.1821868813141057,1.2,-1.2,high,low,,ISIC_0029374.JPG,,ISIC_0024317.JPG,,26,true,0.4500000000000003,hl,keypress(j),0,false,512126.2999999523,512126.2000000477,501770.005,501773.7000000477,501786.815,512136.886,1,40,26,
sequence,flow.Sequence,6_25,2023-11-30T18:30:42.654Z,,,,,,,,,,,10339.385000047681,completion,,,,,,,high,low,,,,,,,true,,,,,false,512126.40000009537,512126.2000000477,501770.005,501773.7000000477,501786.815,512136.886,1,40,,
trial,html.Screen,6_26_0,2023-11-30T18:30:45.934Z,,,,1,-1.1746004947382946,-1.2207657619249948,,,true,hh,3269.213999904634,response,1.3898276901544475,1.2,-1.2,0.8571395219505213,1.2,-1.2,high,high,,ISIC_0012069.JPG,,ISIC_2463014.JPG,,203,true,0.40000000000000024,hh,keypress(i),0,false,515406.2999999523,515406.09999990463,512119.787,512126.40000009537,512136.886,515420.37,1,40,27,
sequence,flow.Sequence,6_26,2023-11-30T18:30:45.934Z,,,,,,,,,,,3269.213999904634,completion,,,,,,,high,high,,,,,,,true,,,,,false,515406.5,515406.09999990463,512119.787,512126.40000009537,512136.886,515420.37,1,40,,
trial,html.Screen,6_27_0,2023-11-30T18:30:53.822Z,,,,1,-1.0773466327271526,-1.1601445610079184,,,true,hh,7873.729999904637,response,1.1684835186766898,1.2,-1.2,1.2921331918483707,1.2,-1.2,high,high,,ISIC_0055169.JPG,,ISIC_5920470.JPG,,25,true,0.14,hh,keypress(i),0,false,523294.2000000477,523294.09999990463,515403.515,515406.5,515420.37,523303.453,1,40,28,
sequence,flow.Sequence,6_27,2023-11-30T18:30:53.822Z,,,,,,,,,,,7873.729999904637,completion,,,,,,,high,high,,,,,,,true,,,,,false,523294.2000000477,523294.09999990463,515403.515,515406.5,515420.37,523303.453,1,40,,
trial,html.Screen,6_28_0,2023-11-30T18:31:08.286Z,,,,1,0.7883321712536753,-1.0011430756825364,,,true,lh,14454.846999952337,response,-0.8047295996345292,1.2,-1.2,1.551750455622795,1.2,-1.2,low,high,,ISIC_9828853.JPG,,ISIC_7717907.JPG,,27,true,0.40000000000000024,lh,keypress(e),0,false,537758.5,537758.2999999523,523286.948,523294.2000000477,523303.453,537770.27,1,40,29,
sequence,flow.Sequence,6_28,2023-11-30T18:31:08.287Z,,,,,,,,,,,14454.846999952337,completion,,,,,,,low,high,,,,,,,true,,,,,false,537758.5999999046,537758.2999999523,523286.948,523294.2000000477,523303.453,537770.27,1,40,,
trial,html.Screen,6_29_0,2023-11-30T18:31:17.022Z,,,,1,-1.136677654701082,-1.2647850993872314,,,true,hh,8723.930000047665,response,0.9249180304825352,1.2,-1.2,0.9557254346276748,1.2,-1.2,high,high,,ISIC_0015436.JPG,,ISIC_6778515.JPG,,265,true,0.4500000000000003,hh,keypress(i),0,false,546494.2999999523,546494.2000000477,537753.085,537758.5999999046,537770.27,546503.489,1,40,30,
sequence,flow.Sequence,6_29,2023-11-30T18:31:17.022Z,,,,,,,,,,,8723.930000047665,completion,,,,,,,high,high,,,,,,,true,,,,,false,546494.5,546494.2000000477,537753.085,537758.5999999046,537770.27,546503.489,1,40,,
trial,html.Screen,6_30_0,2023-11-30T18:31:26.382Z,,,,1,-1.2033647433750492,-1.0718012192341555,,,true,hh,9350.71100004774,response,1.1870093485714288,1.2,-1.2,1.3339880978442629,1.2,-1.2,high,high,,ISIC_0061606.JPG,,ISIC_8592235.JPG,,25,true,0.14,hh,keypress(i),0,false,555854.2999999523,555854.2000000477,546486.578,546494.5999999046,546503.489,555870.063,1,40,31,
sequence,flow.Sequence,6_30,2023-11-30T18:31:26.382Z,,,,,,,,,,,9350.71100004774,completion,,,,,,,high,high,,,,,,,true,,,,,false,555854.4000000954,555854.2000000477,546486.578,546494.5999999046,546503.489,555870.063,1,40,,
trial,html.Screen,6_31_0,2023-11-30T18:31:42.382Z,,,,1,1.199471562817528,-0.8631260534979347,,,,,16016.698000000091,timeout,-1.0788024398087033,1.2,-1.2,0.9911875460374616,1.2,-1.2,low,high,,ISIC_0030754.JPG,,ISIC_5951430.JPG,,27,true,0.40000000000000024,,,0,false,571854.0999999046,571854.0999999046,555853.089,555854.5,555870.063,571886.761,1,40,32,
sequence,flow.Sequence,6_31,2023-11-30T18:31:42.382Z,,,,,,,,,,,15984.036999904667,completion,,,,,,,low,high,,,,,,,true,,,,,false,571854.2000000477,571854.0999999046,555853.089,555854.5,555870.063,571886.761,1,40,,
trial,html.Screen,6_32_0,2023-11-30T18:31:53.070Z,,,,1,1.2362557973341337,-1.2548266183352603,,,true,lh,10655.338999904576,response,-0.8350129142228142,1.2,-1.2,0.8172547818270586,1.2,-1.2,low,high,,ISIC_0033886.JPG,,ISIC_0301568.JPG,,40,true,0.4500000000000003,lh,keypress(e),0,false,582542.2999999523,582542.0999999046,571870.246,571854.2000000477,571886.761,582553.373,1,40,33,
sequence,flow.Sequence,6_32,2023-11-30T18:31:53.070Z,,,,,,,,,,,10655.338999904576,completion,,,,,,,low,high,,,,,,,true,,,,,false,582542.4000000954,582542.0999999046,571870.246,571854.2000000477,571886.761,582553.373,1,40,,
trial,html.Screen,6_33_0,2023-11-30T18:31:55.678Z,,,,1,1.2253191093367526,1.241905252673026,,,true,ll,2596.6269999999786,response,-1.0979080219146429,1.2,-1.2,-1.4093178640529949,1.2,-1.2,low,low,,ISIC_1195689.JPG,,ISIC_0056921.JPG,,359,true,0.4500000000000003,ll,keypress(f),0,false,585150.0999999046,585150,582536.549,582542.4000000954,582553.373,585153.351,1,40,34,
sequence,flow.Sequence,6_33,2023-11-30T18:31:55.678Z,,,,,,,,,,,2596.6269999999786,completion,,,,,,,low,low,,,,,,,true,,,,,false,585150.2000000477,585150,582536.549,582542.4000000954,582553.373,585153.351,1,40,,
trial,html.Screen,6_34_0,2023-11-30T18:31:58.126Z,,,,1,1.160746324899676,1.1927876559115576,,,true,ll,2444.8490000476595,response,-1.236306205926646,1.2,-1.2,-1.116612676102794,1.2,-1.2,low,low,,ISIC_8651053.JPG,,ISIC_0054341.JPG,,40,true,0.14,ll,keypress(f),0,false,587598.2999999523,587598.2000000477,585136.802,585150.2999999523,585153.351,587603.372,1,40,35,
sequence,flow.Sequence,6_34,2023-11-30T18:31:58.126Z,,,,,,,,,,,2444.8490000476595,completion,,,,,,,low,low,,,,,,,true,,,,,false,587598.4000000954,587598.2000000477,585136.802,585150.2000000477,585153.351,587603.372,1,40,,
trial,html.Screen,6_35_0,2023-11-30T18:32:00.830Z,,,,1,1.2600330864275875,1.0958628838888655,,,true,ll,2698.628000000026,response,-1.1746004947382946,1.2,-1.2,-1.2207657619249948,1.2,-1.2,low,low,,ISIC_0026996.JPG,,ISIC_0012069.JPG,,40,true,0.14,ll,keypress(f),0,false,590302,590302,587586.694,587598.4000000954,587603.372,590320.556,1,40,36,
sequence,flow.Sequence,6_35,2023-11-30T18:32:00.830Z,,,,,,,,,,,2698.628000000026,completion,,,,,,,low,low,,,,,,,true,,,,,false,590302.2000000477,590302,587586.694,587598.4000000954,587603.372,590320.556,1,40,,
trial,html.Screen,6_36_0,2023-11-30T18:32:09.950Z,,,,1,-0.8544507134472948,0.9244388608707323,,,true,hl,9101.644000047701,response,0.7991459998473059,1.2,-1.2,-1.0280788723474688,1.2,-1.2,high,low,,ISIC_3565564.JPG,,ISIC_7951202.JPG,,26,true,0.4500000000000003,hl,keypress(j),0,false,599422.4000000954,599422.2000000477,590286.701,590302.2000000477,590320.556,599436.676,1,40,37,
sequence,flow.Sequence,6_36,2023-11-30T18:32:09.951Z,,,,,,,,,,,9101.644000047701,completion,,,,,,,high,low,,,,,,,true,,,,,false,599422.4000000954,599422.2000000477,590286.701,590302.2000000477,590320.556,599436.676,1,40,,
trial,html.Screen,6_37_0,2023-11-30T18:32:20.286Z,,,,1,0.989300717252516,-0.7908280206937478,,,true,lh,10320.824000000022,response,-0.9138670886161264,1.2,-1.2,0.8414121478342018,1.2,-1.2,low,high,,ISIC_6416533.JPG,,ISIC_6709052.JPG,,27,true,0.40000000000000024,lh,keypress(e),0,false,609757.5999999046,609757.5,599420.004,599422.5,599436.676,609770.001,1,40,38,
sequence,flow.Sequence,6_37,2023-11-30T18:32:20.286Z,,,,,,,,,,,10320.824000000022,completion,,,,,,,low,high,,,,,,,true,,,,,false,609757.7000000477,609757.5,599420.004,599422.5,599436.676,609770.001,1,40,,
trial,html.Screen,6_38_0,2023-11-30T18:32:27.886Z,,,,1,1.0453124399868816,-0.8986747280184286,,,true,lh,7587.4989999999525,response,-0.7688509750532941,1.2,-1.2,0.7699842387811451,1.2,-1.2,low,high,,ISIC_0013967.JPG,,ISIC_0014527.JPG,,40,true,0.4500000000000003,lh,keypress(e),0,false,617357.5999999046,617357.5,609753.192,609757.7000000477,609770.001,617370.013,1,40,39,
sequence,flow.Sequence,6_38,2023-11-30T18:32:27.886Z,,,,,,,,,,,7587.4989999999525,completion,,,,,,,low,high,,,,,,,true,,,,,false,617357.7000000477,617357.5,609753.192,609757.7000000477,609770.001,617370.013,1,40,,
trial,html.Screen,6_39_0,2023-11-30T18:32:43.882Z,,,,1,1.0369885917487718,-0.8486937878412699,,,,,16016.774999999907,timeout,-0.8350129142228142,1.2,-1.2,0.8172547818270586,1.2,-1.2,low,high,,ISIC_6917681.JPG,,ISIC_0301568.JPG,,40,true,0.4500000000000003,,,0,false,633354,633353.7999999523,617353.137,617357.7000000477,617370.013,633386.788,1,40,40,
sequence,flow.Sequence,6_39,2023-11-30T18:32:43.882Z,,,,,,,,,,,15983.78699995228,completion,,,,,,,low,high,,,,,,,true,,,,,false,633354.0999999046,633353.7999999523,617353.137,617357.7000000477,617370.013,633386.788,1,40,,
practice_loop,flow.Loop,6,2023-11-30T18:32:43.882Z,,,,,,,,,,,329933.4209999523,completion,,,,,,,,,,,,,,,true,,,,,false,633354.0999999046,633353.7999999523,303403.783,303410.90000009537,303420.379,633386.788,1,40,,
stair_instructions,html.Screen,7,2023-11-30T18:32:58.645Z,,,,,,,,,,,14729.511999952374,response,,,,,,,,,,,,,,,,,continue,click button,,,648117,648116.2999999523,633370.19,633354.0999999046,633386.788,648119.952,,,,
trial,html.Screen,8_0_0,2023-11-30T18:33:06.945Z,,,,2,-0.0388181790775959,0.0049623405709465,,0.04,false,hl,8296.448000095319,response,1.0453124399868816,1.2,-1.2,-0.8986747280184286,1.2,-1.2,high,low,,ISIC_0061880.JPG,,ISIC_0013967.JPG,28,26,false,0.4500000000000003,hh,keypress(i),0,true,656416.5,656416.4000000954,648103.552,648117.2999999523,648119.952,656436.699,1,40,1,
sequence,flow.Sequence,8_0,2023-11-30T18:33:06.945Z,,,,,,,,,,,8296.448000095319,completion,,,,,,,high,low,,,,,,,false,,,,,true,656416.5999999046,656416.4000000954,648103.552,648117.2000000477,648119.952,656436.699,1,40,,
trial,html.Screen,8_1_0,2023-11-30T18:33:18.512Z,,,,2,0.0119001144851157,-0.0063430114540141,,0.04,false,hl,11547.300999999978,response,1.0453124399868816,1.15,-1.15,-0.8986747280184286,1.15,-1.2,high,low,,ISIC_0003822.JPG,,ISIC_0013967.JPG,28,25,false,0.42000000000000026,hh,keypress(i),0,true,667984,667984,656419.919,656416.5999999046,656436.699,667986.61,1,40,2,
sequence,flow.Sequence,8_1,2023-11-30T18:33:18.512Z,,,,,,,,,,,11547.300999999978,completion,,,,,,,high,low,,,,,,,false,,,,,true,667984.0999999046,667984,656419.919,656416.5999999046,656436.699,667986.61,1,40,,
trial,html.Screen,8_2_0,2023-11-30T18:33:22.398Z,,,,2,0.0258224118104549,-0.0029364553353019,,0.04,true,ll,3883.390000000014,response,-1.1048559518249943,0.9953124399868816,-1.15,-1.2252457981338687,1.15,-1.2,low,low,,ISIC_8325226.JPG,,ISIC_0060817.JPG,28,29,false,0.11,ll,keypress(f),0,true,671870.0999999046,671870,667969.555,667984.2000000477,667986.61,671886.774,1,40,3,
sequence,flow.Sequence,8_2,2023-11-30T18:33:22.398Z,,,,,,,,,,,3883.390000000014,completion,,,,,,,low,low,,,,,,,false,,,,,true,671870.2000000477,671870,667969.555,667984.2000000477,667986.61,671886.774,1,40,,
trial,html.Screen,8_3_0,2023-11-30T18:33:35.326Z,,,,2,0.0119001144851157,-0.0063430114540141,,0.04,false,hl,12911.126000095392,response,0.6904571159175875,0.9953124399868816,-1.15,-0.8338159233479188,1.15,-1.15,high,low,,ISIC_0003822.JPG,,ISIC_6381981.JPG,28,25,false,0.3200000000000002,ll,keypress(f),0,true,684798.0999999046,684797.9000000954,671869.891,671870.2000000477,671886.774,684803.237,1,40,4,
sequence,flow.Sequence,8_3,2023-11-30T18:33:35.326Z,,,,,,,,,,,12911.126000095392,completion,,,,,,,high,low,,,,,,,false,,,,,true,684798.2000000477,684797.9000000954,671869.891,671870.2000000477,671886.774,684803.237,1,40,,
trial,html.Screen,8_4_0,2023-11-30T18:33:41.950Z,,,,2,0.0367744112927588,0.0324865661712824,,0.04,true,lh,6618.763000000035,response,-0.8350129142228142,1.0453124399868816,-1.15,0.8172547818270586,1.15,-0.9795308607408937,low,high,,ISIC_4523565.JPG,,ISIC_0301568.JPG,28,26,false,0.3500000000000002,lh,keypress(e),0,true,691422.2000000477,691422,684786.164,684798.2000000477,684803.237,691436.592,1,40,5,
sequence,flow.Sequence,8_4,2023-11-30T18:33:41.951Z,,,,,,,,,,,6618.763000000035,completion,,,,,,,low,high,,,,,,,false,,,,,true,691422.2000000477,691422,684786.164,684798.2000000477,684803.237,691436.592,1,40,,
trial,html.Screen,8_5_0,2023-11-30T18:33:52.958Z,,,,2,0.0367706518941078,-0.0161069838272154,,0.04,false,lh,10993.308000095421,response,-1.045301444872812,1.0453124399868816,-1.0999999999999999,1.0872560254441277,1.15,-0.9795308607408937,low,high,,ISIC_0033419.JPG,,ISIC_4507700.JPG,28,26,false,0.3300000000000002,hh,keypress(i),0,true,702430,702429.9000000954,691419.701,691422.2999999523,691436.592,702436.566,1,40,6,
sequence,flow.Sequence,8_5,2023-11-30T18:33:52.958Z,,,,,,,,,,,10993.308000095421,completion,,,,,,,low,high,,,,,,,false,,,,,true,702430.0999999046,702429.9000000954,691419.701,691422.2000000477,691436.592,702436.566,1,40,,
trial,html.Screen,8_6_0,2023-11-30T18:34:01.438Z,,,,2,-0.0164027439304477,0.0082910758715273,,0.04,false,hl,8473.033999904641,response,0.8472024037189965,1.0453124399868816,-1.15,-0.986370061404882,0.9022554036355931,-0.9795308607408937,high,low,,ISIC_7381224.JPG,,ISIC_0054355.JPG,28,27,false,0.2600000000000001,lh,keypress(e),0,true,710909.7000000477,710909.5999999046,702419.712,702430.0999999046,702436.566,710919.984,1,40,7,
sequence,flow.Sequence,8_6,2023-11-30T18:34:01.438Z,,,,,,,,,,,8473.033999904641,completion,,,,,,,high,low,,,,,,,false,,,,,true,710909.7000000477,710909.5999999046,702419.712,702430.0999999046,702436.566,710919.984,1,40,,
trial,html.Screen,8_7_0,2023-11-30T18:34:06.462Z,,,,2,0.0044063257337227,0.0172548282859886,,0.04,true,ll,5014.015999999945,response,-1.1615479475206127,1.0953124399868817,-1.15,-0.958261725041355,0.9022554036355931,-1.0295308607408937,low,low,,ISIC_7413786.JPG,,ISIC_0064427.JPG,28,25,false,0.1,ll,keypress(f),0,true,715934,715934,710902.88,710909.7999999523,710919.984,715936.532,1,40,8,
sequence,flow.Sequence,8_7,2023-11-30T18:34:06.462Z,,,,,,,,,,,5014.015999999945,completion,,,,,,,low,low,,,,,,,false,,,,,true,715934.0999999046,715934,710902.88,710909.7000000477,710919.984,715936.532,1,40,,
trial,html.Screen,8_8_0,2023-11-30T18:34:10.446Z,,,,2,0.0200295718112167,0.0155559071275806,,0.04,true,ll,3981.067999904626,response,-1.2033647433750492,1.0953124399868817,-1.15,-1.0718012192341555,0.9022554036355931,-1.0295308607408937,low,low,,ISIC_0061343.JPG,,ISIC_0061606.JPG,28,25,false,0.1,ll,keypress(f),0,true,719917.7000000477,719917.5999999046,715919.876,715934.0999999046,715936.532,719919.863,1,40,9,
sequence,flow.Sequence,8_8,2023-11-30T18:34:10.446Z,,,,,,,,,,,3981.067999904626,completion,,,,,,,low,low,,,,,,,false,,,,,true,719917.7999999523,719917.5999999046,715919.876,715934.0999999046,715936.532,719919.863,1,40,,
trial,html.Screen,8_9_0,2023-11-30T18:34:19.150Z,,,,2,0.0200295718112167,0.0155559071275806,,0.04,false,ll,8701.73699990462,response,-0.8721011160837115,1.0953124399868817,-0.9650314721377551,-0.9005344308932209,0.9022554036355931,-0.9650314721377551,low,low,,ISIC_0061343.JPG,,ISIC_0025744.JPG,28,40,false,0.1,lh,keypress(e),0,true,728621.7000000477,728621.5999999046,719903.398,719917.9000000954,719919.863,728636.698,1,40,10,
sequence,flow.Sequence,8_9,2023-11-30T18:34:19.150Z,,,,,,,,,,,8701.73699990462,completion,,,,,,,low,low,,,,,,,false,,,,,true,728621.7999999523,728621.5999999046,719903.398,719917.9000000954,719919.863,728636.698,1,40,,
trial,html.Screen,8_10_0,2023-11-30T18:34:27.103Z,,,,2,0.0257631352671967,0.0202837002774028,,0.04,true,hl,7937.202000095393,response,1.2578167348825195,1.0953124399868817,-0.9650314721377551,-0.8371819698254004,0.9022554036355931,-1.0150314721377551,high,low,,ISIC_0032797.JPG,,ISIC_9613570.JPG,28,27,false,0.30000000000000016,hl,keypress(j),0,true,736574,736573.9000000954,728619.852,728621.9000000954,728636.698,736586.971,1,40,11,
sequence,flow.Sequence,8_10,2023-11-30T18:34:27.103Z,,,,,,,,,,,7937.202000095393,completion,,,,,,,high,low,,,,,,,false,,,,,true,736574.0999999046,736573.9000000954,728619.852,728621.9000000954,728636.698,736586.971,1,40,,
trial,html.Screen,8_11_0,2023-11-30T18:34:31.423Z,,,,2,0.0308384937406319,-0.0038396364323947,,0.04,false,hh,4307.229000047664,response,1.0852045470239868,1.0953124399868817,-0.9650314721377551,0.8198446376049053,0.9022554036355931,-1.0150314721377551,high,high,,ISIC_0029825.JPG,,ISIC_1805921.JPG,28,27,false,0.11,hl,keypress(j),0,true,740894.2000000477,740894.2000000477,736569.858,736574.2000000477,736586.971,740903.172,1,40,12,
sequence,flow.Sequence,8_11,2023-11-30T18:34:31.423Z,,,,,,,,,,,4307.229000047664,completion,,,,,,,high,high,,,,,,,false,,,,,true,740894.2999999523,740894.2000000477,736569.858,736574.2000000477,736586.971,740903.172,1,40,,
trial,html.Screen,8_12_0,2023-11-30T18:34:36.110Z,,,,2,0.0367744112927588,0.0324865661712824,,0.04,true,lh,4678.627999952296,response,-1.0116417541846066,1.0453124399868816,-0.9650314721377551,1.033442916947398,0.9522554036355931,-1.0150314721377551,low,high,,ISIC_4523565.JPG,,ISIC_0031389.JPG,28,28,false,0.20000000000000007,lh,keypress(e),0,true,745582,745581.7999999523,740886.655,740894.2999999523,740903.172,745586.553,1,40,13,
sequence,flow.Sequence,8_12,2023-11-30T18:34:36.111Z,,,,,,,,,,,4678.627999952296,completion,,,,,,,low,high,,,,,,,false,,,,,true,745582.0999999046,745581.7999999523,740886.655,740894.2999999523,740903.172,745586.553,1,40,,
trial,html.Screen,8_13_0,2023-11-30T18:34:44.575Z,,,,2,-0.0241900387072296,0.0339955304424736,,0.04,true,ll,8459.546999904676,response,-0.9688707770680516,1.0453124399868816,-0.915031472137755,-0.9499175879831224,0.9522554036355931,-1.0150314721377551,low,low,,ISIC_0010789.JPG,,ISIC_0024962.JPG,28,35,false,0.1,ll,keypress(f),0,true,754046.2000000477,754046.0999999046,745569.923,745582.0999999046,745586.553,754053.135,1,40,14,
sequence,flow.Sequence,8_13,2023-11-30T18:34:44.575Z,,,,,,,,,,,8459.546999904676,completion,,,,,,,low,low,,,,,,,false,,,,,true,754046.2999999523,754046.0999999046,745569.923,745582.0999999046,745586.553,754053.135,1,40,,
trial,html.Screen,8_14_0,2023-11-30T18:34:49.934Z,,,,2,-0.0388181790775959,0.0049623405709465,,0.04,true,lh,5352.765000095358,response,-0.8867328775712738,1.0453124399868816,-0.915031472137755,1.0063426986460375,0.9522554036355931,-0.9093941825255869,low,high,,ISIC_0061880.JPG,,ISIC_0055759.JPG,28,27,false,0.18000000000000005,lh,keypress(e),0,true,759406,759405.9000000954,754036.244,754046.2999999523,754053.135,759419.927,1,40,15,
sequence,flow.Sequence,8_14,2023-11-30T18:34:49.935Z,,,,,,,,,,,5352.765000095358,completion,,,,,,,low,high,,,,,,,false,,,,,true,759406,759405.9000000954,754036.244,754046.2999999523,754053.135,759419.927,1,40,,
trial,html.Screen,8_15_0,2023-11-30T18:35:03.615Z,,,,2,0.0200295718112167,0.0155559071275806,,0.04,true,lh,13666.072999999975,response,-0.9633172970727744,1.0453124399868816,-0.865031472137755,0.8472659344792351,0.9022554036355931,-0.9093941825255869,low,high,,ISIC_0061343.JPG,,ISIC_0067172.JPG,28,26,false,0.15000000000000002,lh,keypress(e),0,true,773086.0999999046,773086,759403.264,759406.0999999046,759419.927,773103.266,1,40,16,
sequence,flow.Sequence,8_15,2023-11-30T18:35:03.615Z,,,,,,,,,,,13666.072999999975,completion,,,,,,,low,high,,,,,,,false,,,,,true,773086.2000000477,773086,759403.264,759406.0999999046,759419.927,773103.266,1,40,,
trial,html.Screen,8_16_0,2023-11-30T18:35:08.702Z,,,,2,-0.0199950873045219,-0.0172506388509166,,0.04,true,hl,5070.134000095422,response,0.8954803463300026,1.0453124399868816,-0.865031472137755,-0.7071819047913821,0.9022554036355931,-0.9093941825255869,high,low,,ISIC_0029906.JPG,,ISIC_0033071.JPG,28,28,false,0.2400000000000001,hl,keypress(j),0,true,778173.5,778173.4000000954,773086.168,773086.2999999523,773103.266,778186.685,1,40,17,
sequence,flow.Sequence,8_16,2023-11-30T18:35:08.702Z,,,,,,,,,,,5070.134000095422,completion,,,,,,,high,low,,,,,,,false,,,,,true,778173.5999999046,778173.4000000954,773086.168,773086.2999999523,773103.266,778186.685,1,40,,
trial,html.Screen,8_17_0,2023-11-30T18:35:22.382Z,,,,2,-0.0199950873045219,-0.0172506388509166,,0.04,true,hl,13667.215000095312,response,1.203269031614007,1.0453124399868816,-0.865031472137755,-0.6961047103031557,0.9022554036355931,-0.9093941825255869,high,low,,ISIC_0029906.JPG,,ISIC_0002639.JPG,28,28,false,0.2400000000000001,hl,keypress(j),0,true,791854.0999999046,791853.9000000954,778169.87,778173.7000000477,778186.685,791869.958,1,40,18,
sequence,flow.Sequence,8_17,2023-11-30T18:35:22.383Z,,,,,,,,,,,13667.215000095312,completion,,,,,,,high,low,,,,,,,false,,,,,true,791854.2000000477,791853.9000000954,778169.87,778173.5999999046,778186.685,791869.958,1,40,,
trial,html.Screen,8_18_0,2023-11-30T18:35:38.382Z,,,,2,0.0118382036798625,0.0300588245877227,,0.04,,,16016.537000000011,timeout,1.0622023082418524,0.9953124399868816,-0.865031472137755,0.8319500041964579,0.9022554036355931,-0.6516433075472688,high,high,,ISIC_4748605.JPG,,ISIC_0056707.JPG,28,27,false,0.1,,,0,true,807853.7999999523,807853.7000000477,791852.859,791854.2000000477,791869.958,807886.495,1,40,19,
sequence,flow.Sequence,8_18,2023-11-30T18:35:38.383Z,,,,,,,,,,,15983.7420000477,completion,,,,,,,high,high,,,,,,,false,,,,,true,807853.9000000954,807853.7000000477,791852.859,791854.2000000477,791869.958,807886.495,1,40,,
trial,html.Screen,8_19_0,2023-11-30T18:35:44.079Z,,,,2,0.0258224118104549,-0.0029364553353019,,0.04,false,hh,5663.405000095372,response,1.008831959223626,0.9953124399868816,-0.865031472137755,0.9823409524664072,0.9022554036355931,-0.6516433075472688,high,high,,ISIC_8325226.JPG,,ISIC_1579745.JPG,28,27,false,0.1,lh,keypress(e),0,true,813550,813549.9000000954,807869.975,807853.9000000954,807886.495,813553.086,1,40,20,
sequence,flow.Sequence,8_19,2023-11-30T18:35:44.079Z,,,,,,,,,,,5663.405000095372,completion,,,,,,,high,high,,,,,,,false,,,,,true,813550.0999999046,813549.9000000954,807869.975,807853.9000000954,807886.495,813553.086,1,40,,
trial,html.Screen,8_20_0,2023-11-30T18:35:51.710Z,,,,2,0.0286056110007553,0.036125199756515,,0.04,true,lh,7628.6140000476735,response,-0.9244148283103414,1.0453124399868816,-0.865031472137755,0.9712966348713286,0.852255403635593,-0.6516433075472688,low,high,,ISIC_6535558.JPG,,ISIC_7927525.JPG,28,28,false,0.14,lh,keypress(e),0,true,821181.7999999523,821181.7000000477,813536.536,813550.0999999046,813553.086,821186.413,1,40,21,
sequence,flow.Sequence,8_20,2023-11-30T18:35:51.711Z,,,,,,,,,,,7628.6140000476735,completion,,,,,,,low,high,,,,,,,false,,,,,true,821181.9000000954,821181.7000000477,813536.536,813550.0999999046,813553.086,821186.413,1,40,,
trial,html.Screen,8_21_0,2023-11-30T18:36:00.590Z,,,,2,-0.0374659946425444,-0.0086043094957617,,0.04,false,hl,8875.287000047741,response,0.989300717252516,1.0453124399868816,-0.815031472137755,-0.7908280206937478,0.852255403635593,-0.6516433075472688,high,low,,ISIC_0033051.JPG,,ISIC_6416533.JPG,28,27,false,0.16000000000000003,lh,keypress(e),0,true,830061.7999999523,830061.7000000477,821169.499,821181.9000000954,821186.413,830069.871,1,40,22,
sequence,flow.Sequence,8_21,2023-11-30T18:36:00.591Z,,,,,,,,,,,8875.287000047741,completion,,,,,,,high,low,,,,,,,false,,,,,true,830062,830061.7000000477,821169.499,821181.9000000954,821186.413,830069.871,1,40,,
trial,html.Screen,8_22_0,2023-11-30T18:36:05.903Z,,,,2,-0.0199950873045219,-0.0172506388509166,,0.04,false,ll,5304.029000095325,response,-0.8008994515111975,1.0953124399868817,-0.815031472137755,-0.669440991736001,0.852255403635593,-0.7016433075472689,low,low,,ISIC_0029906.JPG,,ISIC_8172822.JPG,28,55,false,0.1,lh,keypress(e),0,true,835374,835373.9000000954,830053.044,830062,830069.871,835386.385,1,40,23,
sequence,flow.Sequence,8_22,2023-11-30T18:36:05.903Z,,,,,,,,,,,5304.029000095325,completion,,,,,,,low,low,,,,,,,false,,,,,true,835374.0999999046,835373.9000000954,830053.044,830062,830069.871,835386.385,1,40,,
trial,html.Screen,8_23_0,2023-11-30T18:36:11.199Z,,,,2,0.0200295718112167,0.0155559071275806,,0.04,false,hl,5283.515000095358,response,1.0369885917487718,1.0953124399868817,-0.815031472137755,-0.8486937878412699,0.852255403635593,-0.7516433075472689,high,low,,ISIC_0061343.JPG,,ISIC_6917681.JPG,28,25,false,0.19000000000000006,lh,keypress(e),0,true,840669.9000000954,840669.9000000954,835369.852,835374.0999999046,835386.385,840686.392,1,40,24,
sequence,flow.Sequence,8_23,2023-11-30T18:36:11.199Z,,,,,,,,,,,5283.515000095358,completion,,,,,,,high,low,,,,,,,false,,,,,true,840670.0999999046,840669.9000000954,835369.852,835374.0999999046,835386.385,840686.392,1,40,,
trial,html.Screen,8_24_0,2023-11-30T18:36:18.703Z,,,,2,0.0119001144851157,-0.0063430114540141,,0.04,true,lh,7487.508000095375,response,-0.7612472458680769,1.1453124399868817,-0.815031472137755,0.729960233427452,0.852255403635593,-0.801643307547269,low,high,,ISIC_0003822.JPG,,ISIC_5307210.JPG,28,26,false,0.13,lh,keypress(e),0,true,848174,848173.9000000954,840669.748,840670.0999999046,840686.392,848186.553,1,40,25,
sequence,flow.Sequence,8_24,2023-11-30T18:36:18.703Z,,,,,,,,,,,7487.508000095375,completion,,,,,,,low,high,,,,,,,false,,,,,true,848174,848173.9000000954,840669.748,840670.0999999046,840686.392,848186.553,1,40,,
trial,html.Screen,8_25_0,2023-11-30T18:36:25.727Z,,,,2,-0.0065172941585523,0.0118857043117315,,0.04,false,hh,7011.447000000044,response,1.0428588955519669,1.1453124399868817,-0.7650314721377549,0.7027377550195569,0.802255403635593,-0.801643307547269,high,high,,ISIC_6119202.JPG,,ISIC_2412888.JPG,28,33,false,0.11,lh,keypress(e),0,true,855198.2000000477,855198,848169.465,848174.0999999046,848186.553,855203.027,1,40,26,
sequence,flow.Sequence,8_25,2023-11-30T18:36:25.727Z,,,,,,,,,,,7011.447000000044,completion,,,,,,,high,high,,,,,,,false,,,,,true,855198.2999999523,855198,848169.465,848174.0999999046,848186.553,855203.027,1,40,,
trial,html.Screen,8_26_0,2023-11-30T18:36:37.599Z,,,,2,-0.001445457736793,-0.0165307427449982,,0.04,true,hh,11866.772999952314,response,1.1529918760717912,1.1953124399868817,-0.7650314721377549,0.7279627999550405,0.802255403635593,-0.801643307547269,high,high,,ISIC_0027350.JPG,,ISIC_1595325.JPG,28,28,false,0.11,hh,keypress(i),0,true,867069.9000000954,867069.7999999523,855186.367,855198.2999999523,855203.027,867086.402,1,40,27,
sequence,flow.Sequence,8_26,2023-11-30T18:36:37.599Z,,,,,,,,,,,11866.772999952314,completion,,,,,,,high,high,,,,,,,false,,,,,true,867070,867069.7999999523,855186.367,855198.2999999523,855203.027,867086.402,1,40,,
trial,html.Screen,8_27_0,2023-11-30T18:36:45.502Z,,,,2,-0.0065172941585523,0.0118857043117315,,0.04,true,hl,7886.397999952314,response,1.0453124399868816,1.1953124399868817,-0.7650314721377549,-0.8986747280184286,0.8904773380134159,-0.801643307547269,high,low,,ISIC_6119202.JPG,,ISIC_0013967.JPG,28,27,false,0.2600000000000001,hl,keypress(j),0,true,874972.9000000954,874972.7999999523,867069.294,867070,867086.402,874986.347,1,40,28,
sequence,flow.Sequence,8_27,2023-11-30T18:36:45.502Z,,,,,,,,,,,7886.397999952314,completion,,,,,,,high,low,,,,,,,false,,,,,true,874973,874972.7999999523,867069.294,867070,867086.402,874986.347,1,40,,
trial,html.Screen,8_28_0,2023-11-30T18:36:53.599Z,,,,2,-0.0109416414475118,-0.005246498750811,,0.04,false,ll,8083.452999952366,response,-0.8548190756840552,1.1453124399868817,-0.7650314721377549,-0.7777530555793848,0.8904773380134159,-0.801643307547269,low,low,,ISIC_0064279.JPG,,ISIC_0411688.JPG,28,67,false,0.1,hh,keypress(i),0,true,883069.9000000954,883069.7999999523,874969.612,874973,874986.347,883086.594,1,40,29,
sequence,flow.Sequence,8_28,2023-11-30T18:36:53.599Z,,,,,,,,,,,8083.452999952366,completion,,,,,,,low,low,,,,,,,false,,,,,true,883070.0999999046,883069.7999999523,874969.612,874973,874986.347,883086.594,1,40,,
trial,html.Screen,8_29_0,2023-11-30T18:37:05.631Z,,,,2,0.0367744112927588,0.0324865661712824,,0.04,true,hh,12015.106000047643,response,1.135180301076722,1.1453124399868817,-0.815031472137755,0.8279199409322678,0.8904773380134159,-0.851643307547269,high,high,,ISIC_4523565.JPG,,ISIC_8637134.JPG,28,26,false,0.12,hh,keypress(i),0,true,895101.9000000954,895101.7000000477,883069.413,883070.0999999046,883086.594,895120.155,1,40,30,
sequence,flow.Sequence,8_29,2023-11-30T18:37:05.631Z,,,,,,,,,,,12015.106000047643,completion,,,,,,,high,high,,,,,,,false,,,,,true,895102,895101.7000000477,883069.413,883070.0999999046,883086.594,895120.155,1,40,,
trial,html.Screen,8_30_0,2023-11-30T18:37:10.479Z,,,,2,-0.0374659946425444,-0.0086043094957617,,0.04,false,hh,4829.644999952288,response,1.1850103722230376,1.1453124399868817,-0.815031472137755,0.8836550297565611,0.8904773380134159,-0.851643307547269,high,high,,ISIC_0033051.JPG,,ISIC_9879347.JPG,28,26,false,0.12,lh,keypress(e),0,true,899949.9000000954,899949.7999999523,895086.156,895102,895120.155,899952.98,1,40,31,
sequence,flow.Sequence,8_30,2023-11-30T18:37:10.479Z,,,,,,,,,,,4829.644999952288,completion,,,,,,,high,high,,,,,,,false,,,,,true,899950,899949.7999999523,895086.156,895102,895120.155,899952.98,1,40,,
trial,html.Screen,8_31_0,2023-11-30T18:37:22.878Z,,,,2,0.0257631352671967,0.0202837002774028,,0.04,true,lh,12396.220000047702,response,-0.7236002097394486,1.1953124399868817,-0.815031472137755,0.7895205994309619,0.8057874853444145,-0.851643307547269,low,high,,ISIC_0032797.JPG,,ISIC_0413563.JPG,28,28,false,0.12,lh,keypress(e),0,true,912349.2999999523,912349.2000000477,899936.214,899950,899952.98,912352.941,1,40,32,
sequence,flow.Sequence,8_31,2023-11-30T18:37:22.878Z,,,,,,,,,,,12396.220000047702,completion,,,,,,,low,high,,,,,,,false,,,,,true,912349.4000000954,912349.2000000477,899936.214,899950,899952.98,912352.941,1,40,,
trial,html.Screen,8_32_0,2023-11-30T18:37:33.886Z,,,,2,0.0220026381002083,-0.0170756452911772,,0.04,false,ll,11004.459000095376,response,-0.7217466853250509,1.1953124399868817,-0.815031472137755,-0.8448637774265015,0.8057874853444145,-0.851643307547269,low,low,,ISIC_5347806.JPG,,ISIC_0030780.JPG,28,62,false,0.1,lh,keypress(e),0,true,923357.5999999046,923357.4000000954,912335.921,912349.4000000954,912352.941,923369.704,1,40,33,
sequence,flow.Sequence,8_32,2023-11-30T18:37:33.887Z,,,,,,,,,,,11004.459000095376,completion,,,,,,,low,low,,,,,,,false,,,,,true,923357.5999999046,923357.4000000954,912335.921,912349.4000000954,912352.941,923369.704,1,40,,
trial,html.Screen,8_33_0,2023-11-30T18:37:40.975Z,,,,2,0.0076984477620101,0.0069458408496562,,0.04,false,ll,7075.996000047657,response,-0.778047987566092,1.1953124399868817,-0.7650314721377549,-0.9219271880931648,0.8057874853444145,-0.9016433075472691,low,low,,ISIC_0000434.JPG,,ISIC_1499915.JPG,28,54,false,0.1,lh,keypress(e),0,true,930445.7999999523,930445.7000000477,923352.8,923357.7999999523,923369.704,930452.933,1,40,34,
sequence,flow.Sequence,8_33,2023-11-30T18:37:40.975Z,,,,,,,,,,,7075.996000047657,completion,,,,,,,low,low,,,,,,,false,,,,,true,930445.9000000954,930445.7000000477,923352.8,923357.7000000477,923369.704,930452.933,1,40,,
trial,html.Screen,8_34_0,2023-11-30T18:37:48.463Z,,,,2,-0.0164027439304477,0.0082910758715273,,0.04,false,hh,7480.767000047723,response,1.0979463718010185,1.1953124399868817,-0.7650314721377549,0.7365909200455387,0.8057874853444145,-0.9516433075472691,high,high,,ISIC_7381224.JPG,,ISIC_3909443.JPG,28,27,false,0.11,hl,keypress(j),0,true,937933.7999999523,937933.7000000477,930436.239,930445.9000000954,930452.933,937936.269,1,40,35,
sequence,flow.Sequence,8_34,2023-11-30T18:37:48.463Z,,,,,,,,,,,7480.767000047723,completion,,,,,,,high,high,,,,,,,false,,,,,true,937933.9000000954,937933.7000000477,930436.239,930445.9000000954,930452.933,937936.269,1,40,,
trial,html.Screen,8_35_0,2023-11-30T18:37:57.743Z,,,,2,0,-0.0102871556606504,,0.04,false,lh,9277.631000095396,response,-0.7872534775441857,1.1953124399868817,-0.7650314721377549,0.8441107693833454,0.8557874853444145,-0.9516433075472691,low,high,,ISIC_1805163.JPG,,ISIC_0028788.JPG,28,26,false,0.12,ll,keypress(f),0,true,947214,947213.9000000954,937919.522,937933.9000000954,937936.269,947219.559,1,40,36,
sequence,flow.Sequence,8_35,2023-11-30T18:37:57.743Z,,,,,,,,,,,9277.631000095396,completion,,,,,,,low,high,,,,,,,false,,,,,true,947214.0999999046,947213.9000000954,937919.522,937933.9000000954,937936.269,947219.559,1,40,,
trial,html.Screen,8_36_0,2023-11-30T18:38:06.206Z,,,,2,0.0220026381002083,-0.0170756452911772,,0.04,true,hh,8457.841000095359,response,1.149077673153018,1.1953124399868817,-0.7150314721377549,0.8142209573918602,0.9057874853444146,-0.9516433075472691,high,high,,ISIC_5347806.JPG,,ISIC_3566243.JPG,28,28,false,0.12,hh,keypress(i),0,true,955677.5,955677.4000000954,947202.835,947214.0999999046,947219.559,955686.372,1,40,37,
sequence,flow.Sequence,8_36,2023-11-30T18:38:06.206Z,,,,,,,,,,,8457.841000095359,completion,,,,,,,high,high,,,,,,,false,,,,,true,955677.5,955677.4000000954,947202.835,947214.0999999046,947219.559,955686.372,1,40,,
trial,html.Screen,8_37_0,2023-11-30T18:38:19.742Z,,,,2,0.0119001144851157,-0.0063430114540141,,0.04,false,hh,13526.927999952342,response,0.8526775318290718,0.931649315272439,-0.7150314721377549,0.9398012765219632,0.9057874853444146,-0.9516433075472691,high,high,,ISIC_0003822.JPG,,ISIC_2647198.JPG,28,38,false,0.1,hl,keypress(j),0,true,969213.4000000954,969213.2999999523,955669.775,955677.5999999046,955686.372,969219.569,1,40,38,
sequence,flow.Sequence,8_37,2023-11-30T18:38:19.742Z,,,,,,,,,,,13526.927999952342,completion,,,,,,,high,high,,,,,,,false,,,,,true,969213.5,969213.2999999523,955669.775,955677.5999999046,955686.372,969219.569,1,40,,
trial,html.Screen,8_38_0,2023-11-30T18:38:24.270Z,,,,2,0.0119001144851157,-0.0063430114540141,,0.04,true,ll,4521.530999904615,response,-0.772342084429769,0.931649315272439,-0.7150314721377549,-0.8755566396204548,0.9557874853444146,-0.9516433075472691,low,low,,ISIC_0003822.JPG,,ISIC_0071430.JPG,28,61,false,0.1,ll,keypress(f),0,true,973741.2000000477,973741.0999999046,969202.582,969213.5999999046,969219.569,973753.375,1,40,39,
sequence,flow.Sequence,8_38,2023-11-30T18:38:24.270Z,,,,,,,,,,,4521.530999904615,completion,,,,,,,low,low,,,,,,,false,,,,,true,973741.4000000954,973741.0999999046,969202.582,969213.5,969219.569,973753.375,1,40,,
trial,html.Screen,8_39_0,2023-11-30T18:38:30.766Z,,,,2,0.0200295718112167,0.0155559071275806,,0.04,true,lh,6483.924999952316,response,-0.7714570894008278,0.931649315272439,-0.7150314721377549,0.9113656554657036,0.9557874853444146,-0.9516433075472691,low,high,,ISIC_0061343.JPG,,ISIC_4529092.JPG,28,28,false,0.14,lh,keypress(e),0,true,980237.5,980237.2999999523,973736.61,973741.4000000954,973753.375,980253.127,1,40,40,
sequence,flow.Sequence,8_39,2023-11-30T18:38:30.767Z,,,,,,,,,,,6483.924999952316,completion,,,,,,,low,high,,,,,,,false,,,,,true,980237.5,980237.2999999523,973736.61,973741.4000000954,973753.375,980253.127,1,40,,
stair_loop,flow.Loop,8,2023-11-30T18:38:30.767Z,,,,,,,,,,,332117.34799995227,completion,,,,,,,,,,,,,,,false,,,,,true,980237.5999999046,980237.2999999523,648103.552,648117.0999999046,648119.952,980253.127,1,40,,
exp_instructions,html.Screen,9,2023-11-30T18:38:44.126Z,,,,,,,,,,,13343.573000047705,response,,,,,,,,,,,,,,,,,continue,keypress(Space),,,993597.2999999523,993596.7000000477,980236.108,980237.5999999046,980253.127,993602.879,,,,
trial,html.Screen,10_0_0,2023-11-30T18:38:51.569Z,,,,1,-0.039520186367207,-0.0377961575607372,,0.04,true,lh,7436.821000047727,response,-0.7688509750532941,1.118262971279715,-0.7800314721377547,0.7699842387811451,0.8614892272801274,-0.8391433075472688,low,high,,ISIC_6356149.JPG,9,ISIC_0014527.JPG,28,28,false,0.13,lh,keypress(e),0,false,1001039.7999999523,1001039.7000000477,993585.701,993597.2999999523,993602.879,1001052.876,5,600,1,
break,html.Screen,10_0_1,2023-11-30T18:38:51.569Z,,,,,,,,,,,NaN,,,,,,,,low,high,,,,,,,false,,,,,false,1001040.2000000477,1001040.0999999046,,1001039.9000000954,,1001052.876,5,600,,
break_continue,html.Screen,10_0_2,2023-11-30T18:38:51.569Z,,,,,,,,,,,NaN,,,,,,,,low,high,,,,,,,false,,,,,false,1001040.5,1001040.2999999523,,1001040.2999999523,,1001052.876,5,600,,
sequence,flow.Sequence,10_0,2023-11-30T18:38:51.570Z,,,,,,,,,,,7437.420999952359,completion,,,,,,,low,high,,,,,,,false,,,,,false,1001040.5,1001040.2999999523,993585.701,993597.2999999523,993602.879,1001052.876,5,600,,
trial,html.Screen,10_1_0,2023-11-30T18:38:59.935Z,,,,1,-0.0198696495649504,0.0387952353063878,,0.04,false,ll,8352.723999904585,response,-0.8069112035903693,1.118262971279715,-0.7800314721377547,-0.7730616186864473,0.8614892272801274,-0.8391433075472688,low,low,,ISIC_6735970.JPG,8,ISIC_7074321.JPG,28,65,false,0.1,hl,keypress(j),0,false,1009405.7999999523,1009405.5999999046,1001036.394,1001040.5999999046,1001052.876,1009419.622,5,600,2,
break,html.Screen,10_1_1,2023-11-30T18:38:59.935Z,,,,,,,,,,,NaN,,,,,,,,low,low,,,,,,,false,,,,,false,1009406.0999999046,1009406,,1009405.7999999523,,1009419.622,5,600,,
break_continue,html.Screen,10_1_2,2023-11-30T18:38:59.935Z,,,,,,,,,,,NaN,,,,,,,,low,low,,,,,,,false,,,,,false,1009406.4000000954,1009406.2000000477,,1009406.2000000477,,1009419.622,5,600,,
sequence,flow.Sequence,10_1,2023-11-30T18:38:59.935Z,,,,,,,,,,,8353.324000047636,completion,,,,,,,low,low,,,,,,,false,,,,,false,1009406.4000000954,1009406.2000000477,1001036.394,1001040.5,1001052.876,1009419.622,5,600,,
trial,html.Screen,10_2_0,2023-11-30T18:39:04.895Z,,,,1,0.0200295718112167,0.0155559071275806,,0.04,true,lh,4945.977999904659,response,-0.7872534775441857,1.118262971279715,-0.7800314721377547,0.8441107693833454,0.8614892272801274,-0.8391433075472688,low,high,,ISIC_0061343.JPG,8,ISIC_0028788.JPG,28,28,false,0.13,lh,keypress(e),0,false,1014365.7999999523,1014365.5999999046,1009402.782,1009406.4000000954,1009419.622,1014369.514,5,600,3,
break,html.Screen,10_2_1,2023-11-30T18:39:04.895Z,,,,,,,,,,,NaN,,,,,,,,low,high,,,,,,,false,,,,,false,1014366,1014365.9000000954,,1014365.7999999523,,1014369.514,5,600,,
break_continue,html.Screen,10_2_2,2023-11-30T18:39:04.895Z,,,,,,,,,,,NaN,,,,,,,,low,high,,,,,,,false,,,,,false,1014366.2999999523,1014366.2000000477,,1014366.0999999046,,1014369.514,5,600,,
sequence,flow.Sequence,10_2,2023-11-30T18:39:04.895Z,,,,,,,,,,,4946.57800004771,completion,,,,,,,low,high,,,,,,,false,,,,,false,1014366.2999999523,1014366.2000000477,1009402.782,1009406.4000000954,1009419.622,1014369.514,5,600,,
trial,html.Screen,10_3_0,2023-11-30T18:39:13.647Z,,,,1,0.0367744112927588,0.0324865661712824,,0.04,false,hh,8748.186000047717,response,1.1290536173202614,1.118262971279715,-0.7800314721377547,0.9768663240505168,0.8614892272801274,-0.8391433075472688,high,high,,ISIC_4523565.JPG,9,ISIC_2196127.JPG,28,38,false,0.12,hl,keypress(j),0,false,1023117.7999999523,1023117.7000000477,1014352.935,1014366.4000000954,1014369.514,1023119.504,5,600,4,
break,html.Screen,10_3_1,2023-11-30T18:39:13.647Z,,,,,,,,,,,NaN,,,,,,,,high,high,,,,,,,false,,,,,false,1023118,1023118,,1023117.9000000954,,1023119.504,5,600,,
break_continue,html.Screen,10_3_2,2023-11-30T18:39:13.647Z,,,,,,,,,,,NaN,,,,,,,,high,high,,,,,,,false,,,,,false,1023118.2999999523,1023118.2000000477,,1023118.0999999046,,1023119.504,5,600,,
sequence,flow.Sequence,10_3,2023-11-30T18:39:13.647Z,,,,,,,,,,,8748.686000047717,completion,,,,,,,high,high,,,,,,,false,,,,,false,1023118.4000000954,1023118.2000000477,1014352.935,1014366.4000000954,1014369.514,1023119.504,5,600,,
trial,html.Screen,10_4_0,2023-11-30T18:39:22.239Z,,,,1,-0.001445457736793,-0.0165307427449982,,0.04,true,hh,8589.996000000043,response,1.0348000491894005,1.118262971279715,-0.7800314721377547,0.7770667763745356,0.8614892272801274,-0.8391433075472688,high,high,,ISIC_0027350.JPG,9,ISIC_2565154.JPG,28,38,false,0.12,hh,keypress(i),0,false,1031709.7000000477,1031709.5,1023102.732,1023118.5,1023119.504,1031719.489,5,600,5,
break,html.Screen,10_4_1,2023-11-30T18:39:22.239Z,,,,,,,,,,,NaN,,,,,,,,high,high,,,,,,,false,,,,,false,1031710.0999999046,1031709.9000000954,,1031709.7999999523,,1031719.489,5,600,,
break_continue,html.Screen,10_4_2,2023-11-30T18:39:22.239Z,,,,,,,,,,,NaN,,,,,,,,high,high,,,,,,,false,,,,,false,1031710.2000000477,1031710.0999999046,,1031710.0999999046,,1031719.489,5,600,,
sequence,flow.Sequence,10_4,2023-11-30T18:39:22.239Z,,,,,,,,,,,8590.595999904675,completion,,,,,,,high,high,,,,,,,false,,,,,false,1031710.4000000954,1031710.0999999046,1023102.732,1023118.5,1023119.504,1031719.489,5,600,,
trial,html.Screen,10_5_0,2023-11-30T18:39:30.575Z,,,,1,0.0118382036798625,0.0300588245877227,,0.04,true,hl,8326.11099990469,response,0.8830264383952469,1.118262971279715,-0.7800314721377547,-0.8635562538060516,0.8614892272801274,-0.8391433075472688,high,low,,ISIC_4748605.JPG,9,ISIC_0032258.JPG,28,27,false,0.2400000000000001,hl,keypress(j),0,false,1040045.7999999523,1040045.5999999046,1031702.556,1031710.4000000954,1031719.489,1040052.827,5,600,6,
break,html.Screen,10_5_1,2023-11-30T18:39:30.575Z,,,,,,,,,,,NaN,,,,,,,,high,low,,,,,,,false,,,,,false,1040046,1040046,,1040045.9000000954,,1040052.827,5,600,,
break_continue,html.Screen,10_5_2,2023-11-30T18:39:30.575Z,,,,,,,,,,,NaN,,,,,,,,high,low,,,,,,,false,,,,,false,1040046.2999999523,1040046.2000000477,,1040046.0999999046,,1040052.827,5,600,,
sequence,flow.Sequence,10_5,2023-11-30T18:39:30.575Z,,,,,,,,,,,8326.71100004774,completion,,,,,,,high,low,,,,,,,false,,,,,false,1040046.2999999523,1040046.2000000477,1031702.556,1031710.4000000954,1031719.489,1040052.827,5,600,,
trial,html.Screen,10_6_0,2023-11-30T18:39:37.823Z,,,,1,-0.0241900387072296,0.0339955304424736,,0.04,false,hh,7240.873000047635,response,1.0040510013663018,1.118262971279715,-0.7800314721377547,0.9707475308236284,0.8614892272801274,-0.8391433075472688,high,high,,ISIC_0010789.JPG,9,ISIC_0026911.JPG,28,38,false,0.12,hl,keypress(j),0,false,1047293.7999999523,1047293.7000000477,1040035.931,1040046.2999999523,1040052.827,1047302.943,5,600,7,
break,html.Screen,10_6_1,2023-11-30T18:39:37.823Z,,,,,,,,,,,NaN,,,,,,,,high,high,,,,,,,false,,,,,false,1047294.2000000477,1047294.0999999046,,1047293.9000000954,,1047302.943,5,600,,
break_continue,html.Screen,10_6_2,2023-11-30T18:39:37.823Z,,,,,,,,,,,NaN,,,,,,,,high,high,,,,,,,false,,,,,false,1047294.4000000954,1047294.2000000477,,1047294.2000000477,,1047302.943,5,600,,
sequence,flow.Sequence,10_6,2023-11-30T18:39:37.823Z,,,,,,,,,,,7241.373000047635,completion,,,,,,,high,high,,,,,,,false,,,,,false,1047294.4000000954,1047294.2000000477,1040035.931,1040046.2999999523,1040052.827,1047302.943,5,600,,
trial,html.Screen,10_7_0,2023-11-30T18:39:44.511Z,,,,1,0.0044063257337227,0.0172548282859886,,0.04,true,lh,6678.55700000003,response,-0.668743426211716,1.118262971279715,-0.7800314721377547,0.8048041299922801,0.8614892272801274,-0.8391433075472688,low,high,,ISIC_7413786.JPG,8,ISIC_9403390.JPG,28,28,false,0.13,lh,keypress(e),0,false,1053981.7000000477,1053981.5,1047286.212,1047294.4000000954,1047302.943,1053986.141,5,600,8,
break,html.Screen,10_7_1,2023-11-30T18:39:44.511Z,,,,,,,,,,,NaN,,,,,,,,low,high,,,,,,,false,,,,,false,1053982,1053981.9000000954,,1053981.7999999523,,1053986.141,5,600,,
break_continue,html.Screen,10_7_2,2023-11-30T18:39:44.511Z,,,,,,,,,,,NaN,,,,,,,,low,high,,,,,,,false,,,,,false,1053982.2999999523,1053982.0999999046,,1053982.0999999046,,1053986.141,5,600,,
sequence,flow.Sequence,10_7,2023-11-30T18:39:44.511Z,,,,,,,,,,,6679.156999904662,completion,,,,,,,low,high,,,,,,,false,,,,,false,1053982.2999999523,1053982.0999999046,1047286.212,1047294.4000000954,1047302.943,1053986.141,5,600,,
trial,html.Screen,10_8_0,2023-11-30T18:39:55.246Z,,,,1,0.0220026381002083,-0.0170756452911772,,0.04,false,hh,10730.958999904571,response,1.004723718805983,1.118262971279715,-0.7800314721377547,0.746205213256203,0.8614892272801274,-0.8391433075472688,high,high,,ISIC_5347806.JPG,9,ISIC_6717322.JPG,28,38,false,0.12,lh,keypress(e),0,false,1064717.2999999523,1064717.0999999046,1053969.562,1053982.4000000954,1053986.141,1064719.45,5,600,9,
break,html.Screen,10_8_1,2023-11-30T18:39:55.247Z,,,,,,,,,,,NaN,,,,,,,,high,high,,,,,,,false,,,,,false,1064717.5999999046,1064717.4000000954,,1064717.2999999523,,1064719.45,5,600,,
break_continue,html.Screen,10_8_2,2023-11-30T18:39:55.247Z,,,,,,,,,,,NaN,,,,,,,,high,high,,,,,,,false,,,,,false,1064717.9000000954,1064717.7000000477,,1064717.5999999046,,1064719.45,5,600,,
sequence,flow.Sequence,10_8,2023-11-30T18:39:55.247Z,,,,,,,,,,,10731.559000047622,completion,,,,,,,high,high,,,,,,,false,,,,,false,1064717.9000000954,1064717.7000000477,1053969.562,1053982.4000000954,1053986.141,1064719.45,5,600,,
trial,html.Screen,10_9_0,2023-11-30T18:40:06.031Z,,,,1,0.0076984477620101,0.0069458408496562,,0.04,false,hh,10782.050000000047,response,1.102485543525293,1.118262971279715,-0.7800314721377547,0.7592116102410887,0.8614892272801274,-0.8391433075472688,high,high,,ISIC_0000434.JPG,8,ISIC_1208705.JPG,28,38,false,0.12,hl,keypress(j),0,false,1075501.5,1075501.5,1064702.797,1064717.9000000954,1064719.45,1075519.972,5,600,10,
break,html.Screen,10_9_1,2023-11-30T18:40:06.031Z,,,,,,,,,,,NaN,,,,,,,,high,high,,,,,,,false,,,,,false,1075501.7999999523,1075501.7999999523,,1075501.7000000477,,1075519.972,5,600,,
break_continue,html.Screen,10_9_2,2023-11-30T18:40:06.031Z,,,,,,,,,,,NaN,,,,,,,,high,high,,,,,,,false,,,,,false,1075502.2000000477,1075502,,1075501.9000000954,,1075519.972,5,600,,
sequence,flow.Sequence,10_9,2023-11-30T18:40:06.031Z,,,,,,,,,,,10782.550000000047,completion,,,,,,,high,high,,,,,,,false,,,,,false,1075502.2000000477,1075502,1064702.797,1064717.9000000954,1064719.45,1075519.972,5,600,,
trial,html.Screen,10_10_0,2023-11-30T18:40:11.983Z,,,,1,0.0367744112927588,0.0324865661712824,,0.04,false,lh,5933.4280000953,response,-0.7271544837339796,1.118262971279715,-0.7800314721377547,0.9127368834814228,0.8614892272801274,-0.8391433075472688,low,high,,ISIC_4523565.JPG,8,ISIC_4129321.JPG,28,28,false,0.13,hl,keypress(j),0,false,1081453.5999999046,1081453.4000000954,1075486.093,1075502.2999999523,1075519.972,1081469.634,5,600,11,
break,html.Screen,10_10_1,2023-11-30T18:40:11.983Z,,,,,,,,,,,NaN,,,,,,,,low,high,,,,,,,false,,,,,false,1081453.9000000954,1081453.9000000954,,1081453.5999999046,,1081469.634,5,600,,
break_continue,html.Screen,10_10_2,2023-11-30T18:40:11.983Z,,,,,,,,,,,NaN,,,,,,,,low,high,,,,,,,false,,,,,false,1081454.0999999046,1081454,,1081453.9000000954,,1081469.634,5,600,,
sequence,flow.Sequence,10_10,2023-11-30T18:40:11.983Z,,,,,,,,,,,5934.027999999933,completion,,,,,,,low,high,,,,,,,false,,,,,false,1081454.0999999046,1081454,1075486.093,1075502.2000000477,1075519.972,1081469.634,5,600,,
trial,html.Screen,10_11_0,2023-11-30T18:40:18.415Z,,,,1,0.0258224118104549,-0.0029364553353019,,0.04,false,ll,6415.766000095289,response,-0.7208227349054466,1.118262971279715,-0.7800314721377547,-0.8473281312318933,0.8614892272801274,-0.8391433075472688,low,low,,ISIC_8325226.JPG,9,ISIC_0032181.JPG,28,65,false,0.1,hl,keypress(j),0,false,1087885.4000000954,1087885.4000000954,1081452.85,1081454.2000000477,1081469.634,1087903.197,5,600,12,
break,html.Screen,10_11_1,2023-11-30T18:40:18.415Z,,,,,,,,,,,NaN,,,,,,,,low,low,,,,,,,false,,,,,false,1087886,1087885.9000000954,,1087885.7000000477,,1087903.197,5,600,,
break_continue,html.Screen,10_11_2,2023-11-30T18:40:18.415Z,,,,,,,,,,,NaN,,,,,,,,low,low,,,,,,,false,,,,,false,1087886.2000000477,1087886.0999999046,,1087886,,1087903.197,5,600,,
sequence,flow.Sequence,10_11,2023-11-30T18:40:18.415Z,,,,,,,,,,,6416.465999904554,completion,,,,,,,low,low,,,,,,,false,,,,,false,1087886.2000000477,1087886.0999999046,1081452.85,1081454.2000000477,1081469.634,1087903.197,5,600,,
trial,html.Screen,10_12_0,2023-11-30T18:40:26.895Z,,,,1,-0.0088741920055285,-0.0058246074740588,,0.04,false,lh,8462.503000047756,response,-0.7723423895392068,1.118262971279715,-0.7800314721377547,0.7630051745722757,0.8614892272801274,-0.8391433075472688,low,high,,ISIC_4136663.JPG,9,ISIC_9694911.JPG,28,28,false,0.13,hl,keypress(j),0,false,1096365.7000000477,1096365.7000000477,1087869.614,1087886.2000000477,1087903.197,1096369.415,5,600,13,
break,html.Screen,10_12_1,2023-11-30T18:40:26.895Z,,,,,,,,,,,NaN,,,,,,,,low,high,,,,,,,false,,,,,false,1096366.0999999046,1096365.9000000954,,1096365.9000000954,,1096369.415,5,600,,
break_continue,html.Screen,10_12_2,2023-11-30T18:40:26.896Z,,,,,,,,,,,NaN,,,,,,,,low,high,,,,,,,false,,,,,false,1096366.2999999523,1096366.2000000477,,1096366.0999999046,,1096369.415,5,600,,
sequence,flow.Sequence,10_12,2023-11-30T18:40:26.896Z,,,,,,,,,,,8463.003000047756,completion,,,,,,,low,high,,,,,,,false,,,,,false,1096366.4000000954,1096366.2000000477,1087869.614,1087886.2000000477,1087903.197,1096369.415,5,600,,
trial,html.Screen,10_13_0,2023-11-30T18:40:32.223Z,,,,1,-0.0065172941585523,0.0118857043117315,,0.04,true,hh,5324.384999952279,response,1.0348000491894005,1.118262971279715,-0.7800314721377547,0.7770667763745356,0.8614892272801274,-0.8391433075472688,high,high,,ISIC_6119202.JPG,9,ISIC_2565154.JPG,28,38,false,0.12,hh,keypress(i),0,false,1101694,1101693.7999999523,1096353.009,1096366.5,1096369.415,1101702.921,5,600,14,
break,html.Screen,10_13_1,2023-11-30T18:40:32.223Z,,,,,,,,,,,NaN,,,,,,,,high,high,,,,,,,false,,,,,false,1101694.2999999523,1101694.0999999046,,1101694,,1101702.921,5,600,,
break_continue,html.Screen,10_13_2,2023-11-30T18:40:32.224Z,,,,,,,,,,,NaN,,,,,,,,high,high,,,,,,,false,,,,,false,1101694.5,1101694.4000000954,,1101694.2999999523,,1101702.921,5,600,,
sequence,flow.Sequence,10_13,2023-11-30T18:40:32.224Z,,,,,,,,,,,5324.98500009533,completion,,,,,,,high,high,,,,,,,false,,,,,false,1101694.5,1101694.4000000954,1096353.009,1096366.5,1096369.415,1101702.921,5,600,,
trial,html.Screen,10_14_0,2023-11-30T18:40:38.303Z,,,,1,0.0286056110007553,0.036125199756515,,0.04,false,ll,6070.678999904543,response,-0.7465062180153651,1.118262971279715,-0.7800314721377547,-0.774182701900248,0.8614892272801274,-0.8391433075472688,low,low,,ISIC_6535558.JPG,8,ISIC_1566428.JPG,28,65,false,0.1,lh,keypress(e),0,false,1107773.5999999046,1107773.5999999046,1101686.142,1101694.5999999046,1101702.921,1107786.181,5,600,15,
break,html.Screen,10_14_1,2023-11-30T18:40:38.303Z,,,,,,,,,,,NaN,,,,,,,,low,low,,,,,,,false,,,,,false,1107773.9000000954,1107773.9000000954,,1107773.7000000477,,1107786.181,5,600,,
break_continue,html.Screen,10_14_2,2023-11-30T18:40:38.303Z,,,,,,,,,,,NaN,,,,,,,,low,low,,,,,,,false,,,,,false,1107774.2000000477,1107774,,1107774,,1107786.181,5,600,,
sequence,flow.Sequence,10_14,2023-11-30T18:40:38.303Z,,,,,,,,,,,6071.078999999911,completion,,,,,,,low,low,,,,,,,false,,,,,false,1107774.2999999523,1107774,1101686.142,1101694.5999999046,1101702.921,1107786.181,5,600,,
trial,html.Screen,10_15_0,2023-11-30T18:40:48.159Z,,,,1,0.0283578106329894,-0.0088840758711548,,0.04,false,hl,9843.418999904534,response,1.1898494014853933,1.118262971279715,-0.7800314721377547,-0.7016654052924971,0.8614892272801274,-0.8391433075472688,high,low,,ISIC_0060707.JPG,9,ISIC_6324832.JPG,28,27,false,0.2400000000000001,hh,keypress(i),0,false,1117629.7000000477,1117629.5999999046,1107769.472,1107774.2999999523,1107786.181,1117636.048,5,600,16,
break,html.Screen,10_15_1,2023-11-30T18:40:48.159Z,,,,,,,,,,,NaN,,,,,,,,high,low,,,,,,,false,,,,,false,1117630.0999999046,1117629.9000000954,,1117629.7999999523,,1117636.048,5,600,,
break_continue,html.Screen,10_15_2,2023-11-30T18:40:48.160Z,,,,,,,,,,,NaN,,,,,,,,high,low,,,,,,,false,,,,,false,1117630.2999999523,1117630.2000000477,,1117630.0999999046,,1117636.048,5,600,,
sequence,flow.Sequence,10_15,2023-11-30T18:40:48.160Z,,,,,,,,,,,9844.019000047585,completion,,,,,,,high,low,,,,,,,false,,,,,false,1117630.4000000954,1117630.2000000477,1107769.472,1107774.2999999523,1107786.181,1117636.048,5,600,,
trial,html.Screen,10_16_0,2023-11-30T18:41:02.255Z,,,,1,-0.0374659946425444,-0.0086043094957617,,0.04,true,ll,14089.751999952365,response,-0.6891289946130099,1.118262971279715,-0.7800314721377547,-0.7852192585315924,0.8614892272801274,-0.8391433075472688,low,low,,ISIC_0033051.JPG,8,ISIC_0062133.JPG,28,65,false,0.1,ll,keypress(f),0,false,1131725.7999999523,1131725.7999999523,1117619.442,1117630.4000000954,1117636.048,1131736.158,5,600,17,
break,html.Screen,10_16_1,2023-11-30T18:41:02.255Z,,,,,,,,,,,NaN,,,,,,,,low,low,,,,,,,false,,,,,false,1131726.2000000477,1131726.0999999046,,1131726,,1131736.158,5,600,,
break_continue,html.Screen,10_16_2,2023-11-30T18:41:02.256Z,,,,,,,,,,,NaN,,,,,,,,low,low,,,,,,,false,,,,,false,1131726.4000000954,1131726.2000000477,,1131726.2000000477,,1131736.158,5,600,,
sequence,flow.Sequence,10_16,2023-11-30T18:41:02.256Z,,,,,,,,,,,14090.152000047732,completion,,,,,,,low,low,,,,,,,false,,,,,false,1131726.4000000954,1131726.2000000477,1117619.442,1117630.4000000954,1117636.048,1131736.158,5,600,,
trial,html.Screen,10_17_0,2023-11-30T18:41:14.255Z,,,,1,-0.0388181790775959,0.0049623405709465,,0.04,false,lh,11989.341999999946,response,-0.7692916291112835,1.118262971279715,-0.7800314721377547,0.7818604706992622,0.8614892272801274,-0.8391433075472688,low,high,,ISIC_0061880.JPG,10,ISIC_7844825.JPG,28,28,false,0.13,hh,keypress(i),0,false,1143725.5999999046,1143725.5,1131719.61,1131726.5,1131736.158,1143736.115,5,600,18,
break,html.Screen,10_17_1,2023-11-30T18:41:14.255Z,,,,,,,,,,,NaN,,,,,,,,low,high,,,,,,,false,,,,,false,1143725.9000000954,1143725.7999999523,,1143725.7000000477,,1143736.115,5,600,,
break_continue,html.Screen,10_17_2,2023-11-30T18:41:14.255Z,,,,,,,,,,,NaN,,,,,,,,low,high,,,,,,,false,,,,,false,1143726.2000000477,1143726.0999999046,,1143726,,1143736.115,5,600,,
sequence,flow.Sequence,10_17,2023-11-30T18:41:14.255Z,,,,,,,,,,,11989.941999904579,completion,,,,,,,low,high,,,,,,,false,,,,,false,1143726.2000000477,1143726.0999999046,1131719.61,1131726.5,1131736.158,1143736.115,5,600,,
trial,html.Screen,10_18_0,2023-11-30T18:41:26.607Z,,,,1,0.0076984477620101,0.0069458408496562,,0.04,false,hh,12341.484999904642,response,1.0235331176078744,1.118262971279715,-0.7800314721377547,0.9330258572707198,0.8614892272801274,-0.8391433075472688,high,high,,ISIC_0000434.JPG,9,ISIC_0026889.JPG,28,38,false,0.12,hl,keypress(j),0,false,1156077.5999999046,1156077.5999999046,1143719.541,1143726.2999999523,1143736.115,1156086.018,5,600,19,
break,html.Screen,10_18_1,2023-11-30T18:41:26.607Z,,,,,,,,,,,NaN,,,,,,,,high,high,,,,,,,false,,,,,false,1156077.9000000954,1156077.9000000954,,1156077.7000000477,,1156086.018,5,600,,
break_continue,html.Screen,10_18_2,2023-11-30T18:41:26.608Z,,,,,,,,,,,NaN,,,,,,,,high,high,,,,,,,false,,,,,false,1156078.2000000477,1156078,,1156078,,1156086.018,5,600,,
sequence,flow.Sequence,10_18,2023-11-30T18:41:26.608Z,,,,,,,,,,,12341.88500000001,completion,,,,,,,high,high,,,,,,,false,,,,,false,1156078.2000000477,1156078,1143719.541,1143726.2999999523,1143736.115,1156086.018,5,600,,
trial,html.Screen,10_19_0,2023-11-30T18:41:35.391Z,,,,1,-0.0088741920055285,-0.0058246074740588,,0.04,false,hl,8775.581999904709,response,1.0329549150636406,1.118262971279715,-0.7800314721377547,-1.01584100839286,0.8614892272801274,-0.8391433075472688,high,low,,ISIC_4136663.JPG,8,ISIC_0054670.JPG,28,27,false,0.2400000000000001,ll,keypress(f),0,false,1164861.7000000477,1164861.5999999046,1156069.241,1156078.2000000477,1156086.018,1164869.339,5,600,20,
break,html.Screen,10_19_1,2023-11-30T18:41:35.391Z,,,,,,,,,,,NaN,,,,,,,,high,low,,,,,,,false,,,,,false,1164862,1164862,,1164861.9000000954,,1164869.339,5,600,,
break_continue,html.Screen,10_19_2,2023-11-30T18:41:35.392Z,,,,,,,,,,,NaN,,,,,,,,high,low,,,,,,,false,,,,,false,1164862.2000000477,1164862.0999999046,,1164862.0999999046,,1164869.339,5,600,,
sequence,flow.Sequence,10_19,2023-11-30T18:41:35.392Z,,,,,,,,,,,8776.081999904709,completion,,,,,,,high,low,,,,,,,false,,,,,false,1164862.2999999523,1164862.0999999046,1156069.241,1156078.2000000477,1156086.018,1164869.339,5,600,,
trial,html.Screen,10_20_0,2023-11-30T18:41:41.198Z,,,,1,-0.001445457736793,-0.0165307427449982,,0.04,true,hl,5799.5610000954475,response,0.8954803463300026,1.118262971279715,-0.7800314721377547,-0.7071819047913821,0.8614892272801274,-0.8391433075472688,high,low,,ISIC_0027350.JPG,9,ISIC_0033071.JPG,28,27,false,0.2400000000000001,hl,keypress(j),0,false,1170669,1170668.9000000954,1164852.607,1164862.2999999523,1164869.339,1170702.898,5,600,21,
break,html.Screen,10_20_1,2023-11-30T18:41:41.199Z,,,,,,,,,,,NaN,,,,,,,,high,low,,,,,,,false,,,,,false,1170669.2999999523,1170669.2999999523,,1170669.0999999046,,1170702.898,5,600,,
break_continue,html.Screen,10_20_2,2023-11-30T18:41:41.199Z,,,,,,,,,,,NaN,,,,,,,,high,low,,,,,,,false,,,,,false,1170669.5999999046,1170669.5,,1170669.5,,1170702.898,5,600,,
sequence,flow.Sequence,10_20,2023-11-30T18:41:41.199Z,,,,,,,,,,,5800.16100000008,completion,,,,,,,high,low,,,,,,,false,,,,,false,1170669.7000000477,1170669.5,1164852.607,1164862.2999999523,1164869.339,1170702.898,5,600,,
trial,html.Screen,10_21_0,2023-11-30T18:41:48.894Z,,,,1,0.0258224118104549,-0.0029364553353019,,0.04,false,ll,7661.601999999955,response,-0.7194072444457746,1.118262971279715,-0.7800314721377547,-0.8090139128440115,0.8614892272801274,-0.8391433075472688,low,low,,ISIC_8325226.JPG,8,ISIC_0057539.JPG,28,65,false,0.1,hl,keypress(j),0,false,1178364.7000000477,1178364.5,1170686.203,1170669.7000000477,1170702.898,1178369.34,5,600,22,
break,html.Screen,10_21_1,2023-11-30T18:41:48.894Z,,,,,,,,,,,NaN,,,,,,,,low,low,,,,,,,false,,,,,false,1178365,1178364.9000000954,,1178364.7000000477,,1178369.34,5,600,,
break_continue,html.Screen,10_21_2,2023-11-30T18:41:48.895Z,,,,,,,,,,,NaN,,,,,,,,low,low,,,,,,,false,,,,,false,1178365.2000000477,1178365.0999999046,,1178365,,1178369.34,5,600,,
sequence,flow.Sequence,10_21,2023-11-30T18:41:48.895Z,,,,,,,,,,,7662.201999904588,completion,,,,,,,low,low,,,,,,,false,,,,,false,1178365.2999999523,1178365.0999999046,1170686.203,1170669.7000000477,1170702.898,1178369.34,5,600,,
trial,html.Screen,10_22_0,2023-11-30T18:41:53.295Z,,,,1,0.0258224118104549,-0.0029364553353019,,0.04,false,hh,4395.9599999522325,response,1.1290536173202614,1.118262971279715,-0.7800314721377547,0.9768663240505168,0.8614892272801274,-0.8391433075472688,high,high,,ISIC_8325226.JPG,9,ISIC_2196127.JPG,28,38,false,0.12,hl,keypress(j),0,false,1182765.4000000954,1182765.2999999523,1178352.791,1178365.2999999523,1178369.34,1182769.314,5,600,23,
break,html.Screen,10_22_1,2023-11-30T18:41:53.295Z,,,,,,,,,,,NaN,,,,,,,,high,high,,,,,,,false,,,,,false,1182765.7999999523,1182765.7000000477,,1182765.5,,1182769.314,5,600,,
break_continue,html.Screen,10_22_2,2023-11-30T18:41:53.295Z,,,,,,,,,,,NaN,,,,,,,,high,high,,,,,,,false,,,,,false,1182766,1182765.7999999523,,1182765.7999999523,,1182769.314,5,600,,
sequence,flow.Sequence,10_22,2023-11-30T18:41:53.295Z,,,,,,,,,,,4396.4599999522325,completion,,,,,,,high,high,,,,,,,false,,,,,false,1182766,1182765.7999999523,1178352.791,1178365.2999999523,1178369.34,1182769.314,5,600,,
trial,html.Screen,10_23_0,2023-11-30T18:42:07.247Z,,,,1,-0.0388181790775959,0.0049623405709465,,0.04,false,hl,13948.28599990462,response,1.075512775389519,1.118262971279715,-0.7800314721377547,-1.0454702683049502,0.8614892272801274,-0.8391433075472688,high,low,,ISIC_0061880.JPG,9,ISIC_0033603.JPG,28,27,false,0.2400000000000001,ll,keypress(f),0,false,1196717.7000000477,1196717.5999999046,1182752.834,1182766.0999999046,1182769.314,1196719.295,5,600,24,
break,html.Screen,10_23_1,2023-11-30T18:42:07.247Z,,,,,,,,,,,NaN,,,,,,,,high,low,,,,,,,false,,,,,false,1196718,1196717.9000000954,,1196717.7000000477,,1196719.295,5,600,,
break_continue,html.Screen,10_23_2,2023-11-30T18:42:07.248Z,,,,,,,,,,,NaN,,,,,,,,high,low,,,,,,,false,,,,,false,1196718.2000000477,1196718.0999999046,,1196718,,1196719.295,5,600,,
sequence,flow.Sequence,10_23,2023-11-30T18:42:07.248Z,,,,,,,,,,,13948.78599990462,completion,,,,,,,high,low,,,,,,,false,,,,,false,1196718.2000000477,1196718.0999999046,1182752.834,1182766.0999999046,1182769.314,1196719.295,5,600,,
trial,html.Screen,10_24_0,2023-11-30T18:42:13.199Z,,,,1,0.0200295718112167,0.0155559071275806,,0.04,false,hh,5950.004999952391,response,1.0622023082418524,1.118262971279715,-0.7800314721377547,0.8319500041964579,0.8614892272801274,-0.8391433075472688,high,high,,ISIC_0061343.JPG,9,ISIC_0056707.JPG,28,38,false,0.12,lh,keypress(e),0,false,1202669.5,1202669.2999999523,1196702.743,1196718.2999999523,1196719.295,1202686.229,5,600,25,
break,html.Screen,10_24_1,2023-11-30T18:42:13.199Z,,,,,,,,,,,NaN,,,,,,,,high,high,,,,,,,false,,,,,false,1202669.7999999523,1202669.7999999523,,1202669.5999999046,,1202686.229,5,600,,
break_continue,html.Screen,10_24_2,2023-11-30T18:42:13.199Z,,,,,,,,,,,NaN,,,,,,,,high,high,,,,,,,false,,,,,false,1202670,1202669.9000000954,,1202669.9000000954,,1202686.229,5,600,,
sequence,flow.Sequence,10_24,2023-11-30T18:42:13.199Z,,,,,,,,,,,5950.605000095442,completion,,,,,,,high,high,,,,,,,false,,,,,false,1202670.0999999046,1202669.9000000954,1196702.743,1196718.2000000477,1196719.295,1202686.229,5,600,,
trial,html.Screen,10_25_0,2023-11-30T18:42:18.271Z,,,,1,-0.0164027439304477,0.0082910758715273,,0.04,true,lh,5055.27099999995,response,-0.668743426211716,1.118262971279715,-0.7800314721377547,0.8048041299922801,0.8614892272801274,-0.8391433075472688,low,high,,ISIC_7381224.JPG,9,ISIC_9403390.JPG,28,28,false,0.13,lh,keypress(e),0,false,1207741.7000000477,1207741.5,1202669.262,1202670.0999999046,1202686.229,1207752.708,5,600,26,
break,html.Screen,10_25_1,2023-11-30T18:42:18.271Z,,,,,,,,,,,NaN,,,,,,,,low,high,,,,,,,false,,,,,false,1207741.9000000954,1207741.9000000954,,1207741.7000000477,,1207752.708,5,600,,
break_continue,html.Screen,10_25_2,2023-11-30T18:42:18.272Z,,,,,,,,,,,NaN,,,,,,,,low,high,,,,,,,false,,,,,false,1207742.0999999046,1207742.0999999046,,1207742,,1207752.708,5,600,,
sequence,flow.Sequence,10_25,2023-11-30T18:42:18.272Z,,,,,,,,,,,5055.870999904582,completion,,,,,,,low,high,,,,,,,false,,,,,false,1207742.2999999523,1207742.0999999046,1202669.262,1202670.0999999046,1202686.229,1207752.708,5,600,,
trial,html.Screen,10_26_0,2023-11-30T18:42:26.895Z,,,,1,-0.0199950873045219,-0.0172506388509166,,0.04,false,hl,8612.591999952216,response,0.8828738626295417,1.118262971279715,-0.7800314721377547,-0.8288177599439582,0.8614892272801274,-0.8391433075472688,high,low,,ISIC_0029906.JPG,9,ISIC_0056041.JPG,28,27,false,0.2400000000000001,lh,keypress(e),0,false,1216365.4000000954,1216365.2999999523,1207735.956,1207742.2999999523,1207752.708,1216369.298,5,600,27,
break,html.Screen,10_26_1,2023-11-30T18:42:26.895Z,,,,,,,,,,,NaN,,,,,,,,high,low,,,,,,,false,,,,,false,1216365.7000000477,1216365.7000000477,,1216365.5,,1216369.298,5,600,,
break_continue,html.Screen,10_26_2,2023-11-30T18:42:26.895Z,,,,,,,,,,,NaN,,,,,,,,high,low,,,,,,,false,,,,,false,1216366,1216365.9000000954,,1216365.7999999523,,1216369.298,5,600,,
sequence,flow.Sequence,10_26,2023-11-30T18:42:26.896Z,,,,,,,,,,,8613.192000095267,completion,,,,,,,high,low,,,,,,,false,,,,,false,1216366,1216365.9000000954,1207735.956,1207742.2999999523,1207752.708,1216369.298,5,600,,
trial,html.Screen,10_27_0,2023-11-30T18:42:35.119Z,,,,1,-0.0109416414475118,-0.005246498750811,,0.04,true,hh,8220.301999904681,response,1.0757050222000146,1.118262971279715,-0.7800314721377547,0.9214423600454036,0.8614892272801274,-0.8391433075472688,high,high,,ISIC_0064279.JPG,9,ISIC_5152859.JPG,28,38,false,0.12,hh,keypress(i),0,false,1224589.7000000477,1224589.5999999046,1216352.737,1216366,1216369.298,1224602.688,5,600,28,
break,html.Screen,10_27_1,2023-11-30T18:42:35.120Z,,,,,,,,,,,NaN,,,,,,,,high,high,,,,,,,false,,,,,false,1224590,1224589.9000000954,,1224589.7000000477,,1224602.688,5,600,,
break_continue,html.Screen,10_27_2,2023-11-30T18:42:35.120Z,,,,,,,,,,,NaN,,,,,,,,high,high,,,,,,,false,,,,,false,1224590.2000000477,1224590.0999999046,,1224590,,1224602.688,5,600,,
sequence,flow.Sequence,10_27,2023-11-30T18:42:35.120Z,,,,,,,,,,,8220.801999904681,completion,,,,,,,high,high,,,,,,,false,,,,,false,1224590.2999999523,1224590.0999999046,1216352.737,1216366,1216369.298,1224602.688,5,600,,
trial,html.Screen,10_28_0,2023-11-30T18:42:47.359Z,,,,1,-0.001445457736793,-0.0165307427449982,,0.04,false,hl,12226.712000095285,response,1.2578167348825195,1.118262971279715,-0.7800314721377547,-0.8371819698254004,0.8614892272801274,-0.8391433075472688,high,low,,ISIC_0027350.JPG,8,ISIC_9613570.JPG,28,27,false,0.2400000000000001,hh,keypress(i),0,false,1236829.5,1236829.4000000954,1224585.845,1224590.2999999523,1224602.688,1236835.915,5,600,29,
break,html.Screen,10_28_1,2023-11-30T18:42:47.359Z,,,,,,,,,,,NaN,,,,,,,,high,low,,,,,,,false,,,,,false,1236829.7999999523,1236829.7000000477,,1236829.5999999046,,1236835.915,5,600,,
break_continue,html.Screen,10_28_2,2023-11-30T18:42:47.360Z,,,,,,,,,,,NaN,,,,,,,,high,low,,,,,,,false,,,,,false,1236830,1236829.9000000954,,1236829.9000000954,,1236835.915,5,600,,
sequence,flow.Sequence,10_28,2023-11-30T18:42:47.360Z,,,,,,,,,,,12227.212000095285,completion,,,,,,,high,low,,,,,,,false,,,,,false,1236830.0999999046,1236829.9000000954,1224585.845,1224590.2999999523,1224602.688,1236835.915,5,600,,
trial,html.Screen,10_29_0,2023-11-30T18:43:00.239Z,,,,1,0,-0.0102871556606504,,0.04,true,hl,12873.48500009533,response,0.8954803463300026,1.118262971279715,-0.7800314721377547,-0.7071819047913821,0.8614892272801274,-0.8391433075472688,high,low,,ISIC_1805163.JPG,9,ISIC_0033071.JPG,28,27,false,0.2400000000000001,hl,keypress(j),0,false,1249709.5999999046,1249709.4000000954,1236819.372,1236830.0999999046,1236835.915,1249719.392,5,600,30,
break,html.Screen,10_29_1,2023-11-30T18:43:00.239Z,,,,,,,,,,,NaN,,,,,,,,high,low,,,,,,,false,,,,,false,1249709.9000000954,1249709.7999999523,,1249709.5999999046,,1249719.392,5,600,,
break_continue,html.Screen,10_29_2,2023-11-30T18:43:00.240Z,,,,,,,,,,,NaN,,,,,,,,high,low,,,,,,,false,,,,,false,1249710.2000000477,1249710,,1249709.9000000954,,1249719.392,5,600,,
sequence,flow.Sequence,10_29,2023-11-30T18:43:00.240Z,,,,,,,,,,,12874.084999999963,completion,,,,,,,high,low,,,,,,,false,,,,,false,1249710.2000000477,1249710,1236819.372,1236830.0999999046,1236835.915,1249719.392,5,600,,
trial,html.Screen,10_30_0,2023-11-30T18:43:03.647Z,,,,1,-0.0164027439304477,0.0082910758715273,,0.04,true,ll,3398.1080000000075,response,-0.8137027730168936,1.118262971279715,-0.7800314721377547,-0.7771609347349258,0.8614892272801274,-0.8391433075472688,low,low,,ISIC_7381224.JPG,9,ISIC_7899041.JPG,28,65,false,0.1,ll,keypress(f),0,false,1253117.5999999046,1253117.5,1249702.695,1249710.2000000477,1249719.392,1253119.228,5,600,31,
break,html.Screen,10_30_1,2023-11-30T18:43:03.647Z,,,,,,,,,,,NaN,,,,,,,,low,low,,,,,,,false,,,,,false,1253117.9000000954,1253117.7999999523,,1253117.7000000477,,1253119.228,5,600,,
break_continue,html.Screen,10_30_2,2023-11-30T18:43:03.648Z,,,,,,,,,,,NaN,,,,,,,,low,low,,,,,,,false,,,,,false,1253118.2000000477,1253118.0999999046,,1253117.9000000954,,1253119.228,5,600,,
sequence,flow.Sequence,10_30,2023-11-30T18:43:03.648Z,,,,,,,,,,,3398.70799990464,completion,,,,,,,low,low,,,,,,,false,,,,,false,1253118.2000000477,1253118.0999999046,1249702.695,1249710.2000000477,1249719.392,1253119.228,5,600,,
trial,html.Screen,10_31_0,2023-11-30T18:43:12.575Z,,,,1,-0.0109416414475118,-0.005246498750811,,0.04,false,hl,8926.371999904746,response,1.058275612142778,1.118262971279715,-0.7800314721377547,-0.7824898568540655,0.8614892272801274,-0.8391433075472688,high,low,,ISIC_0064279.JPG,9,ISIC_4906385.JPG,28,27,false,0.2400000000000001,hh,keypress(i),0,false,1262045.5999999046,1262045.5999999046,1253102.754,1253118.2000000477,1253119.228,1262052.548,5,600,32,
break,html.Screen,10_31_1,2023-11-30T18:43:12.575Z,,,,,,,,,,,NaN,,,,,,,,high,low,,,,,,,false,,,,,false,1262045.9000000954,1262045.9000000954,,1262045.7000000477,,1262052.548,5,600,,
break_continue,html.Screen,10_31_2,2023-11-30T18:43:12.576Z,,,,,,,,,,,NaN,,,,,,,,high,low,,,,,,,false,,,,,false,1262046.0999999046,1262046,,1262046,,1262052.548,5,600,,
sequence,flow.Sequence,10_31,2023-11-30T18:43:12.576Z,,,,,,,,,,,8926.772000000114,completion,,,,,,,high,low,,,,,,,false,,,,,false,1262046.2999999523,1262046,1253102.754,1253118.2000000477,1253119.228,1262052.548,5,600,,
trial,html.Screen,10_32_0,2023-11-30T18:43:21.519Z,,,,1,0.0076984477620101,0.0069458408496562,,0.04,false,lh,8936.551999904681,response,-0.8987343013179191,1.118262971279715,-0.7800314721377547,0.8149073454566363,0.8614892272801274,-0.8391433075472688,low,high,,ISIC_0000434.JPG,9,ISIC_0472513.JPG,28,28,false,0.13,hh,keypress(i),0,false,1270989.2000000477,1270989.0999999046,1262035.858,1262046.2999999523,1262052.548,1271002.985,5,600,33,
break,html.Screen,10_32_1,2023-11-30T18:43:21.519Z,,,,,,,,,,,NaN,,,,,,,,low,high,,,,,,,false,,,,,false,1270989.5,1270989.4000000954,,1270989.2999999523,,1271002.985,5,600,,
break_continue,html.Screen,10_32_2,2023-11-30T18:43:21.519Z,,,,,,,,,,,NaN,,,,,,,,low,high,,,,,,,false,,,,,false,1270989.7999999523,1270989.7000000477,,1270989.5999999046,,1271002.985,5,600,,
sequence,flow.Sequence,10_32,2023-11-30T18:43:21.519Z,,,,,,,,,,,8937.152000047732,completion,,,,,,,low,high,,,,,,,false,,,,,false,1270989.7999999523,1270989.7000000477,1262035.858,1262046.2999999523,1262052.548,1271002.985,5,600,,
trial,html.Screen,10_33_0,2023-11-30T18:43:29.663Z,,,,1,0.0119001144851157,-0.0063430114540141,,0.04,true,hh,8130.415000095265,response,1.1756375305897409,1.118262971279715,-0.7800314721377547,0.910735965353392,0.8614892272801274,-0.8391433075472688,high,high,,ISIC_0003822.JPG,9,ISIC_0005769.JPG,28,38,false,0.12,hh,keypress(i),0,false,1279133.4000000954,1279133.4000000954,1270985.853,1270989.7999999523,1271002.985,1279135.863,5,600,34,
break,html.Screen,10_33_1,2023-11-30T18:43:29.663Z,,,,,,,,,,,NaN,,,,,,,,high,high,,,,,,,false,,,,,false,1279133.7000000477,1279133.5999999046,,1279133.5999999046,,1279135.863,5,600,,
break_continue,html.Screen,10_33_2,2023-11-30T18:43:29.664Z,,,,,,,,,,,NaN,,,,,,,,high,high,,,,,,,false,,,,,false,1279133.9000000954,1279133.9000000954,,1279133.7999999523,,1279135.863,5,600,,
sequence,flow.Sequence,10_33,2023-11-30T18:43:29.664Z,,,,,,,,,,,8130.915000095265,completion,,,,,,,high,high,,,,,,,false,,,,,false,1279134,1279133.9000000954,1270985.853,1270989.7999999523,1271002.985,1279135.863,5,600,,
trial,html.Screen,10_34_0,2023-11-30T18:43:42.815Z,,,,1,-0.0198696495649504,0.0387952353063878,,0.04,true,ll,13149.537000095472,response,-0.8548190756840552,1.118262971279715,-0.7800314721377547,-0.7777530555793848,0.8614892272801274,-0.8391433075472688,low,low,,ISIC_6735970.JPG,9,ISIC_0411688.JPG,28,65,false,0.1,ll,keypress(f),0,false,1292285.4000000954,1292285.4000000954,1279119.085,1279134.0999999046,1279135.863,1292302.978,5,600,35,
break,html.Screen,10_34_1,2023-11-30T18:43:42.815Z,,,,,,,,,,,NaN,,,,,,,,low,low,,,,,,,false,,,,,false,1292285.7000000477,1292285.5999999046,,1292285.5,,1292302.978,5,600,,
break_continue,html.Screen,10_34_2,2023-11-30T18:43:42.816Z,,,,,,,,,,,NaN,,,,,,,,low,low,,,,,,,false,,,,,false,1292285.9000000954,1292285.7999999523,,1292285.7000000477,,1292302.978,5,600,,
sequence,flow.Sequence,10_34,2023-11-30T18:43:42.816Z,,,,,,,,,,,13149.93699995242,completion,,,,,,,low,low,,,,,,,false,,,,,false,1292285.9000000954,1292285.7999999523,1279119.085,1279134.0999999046,1279135.863,1292302.978,5,600,,
trial,html.Screen,10_35_0,2023-11-30T18:43:52.815Z,,,,1,0.0308384937406319,-0.0038396364323947,,0.04,true,hl,9982.422000095481,response,1.2578167348825195,1.118262971279715,-0.7800314721377547,-0.8371819698254004,0.8614892272801274,-0.8391433075472688,high,low,,ISIC_0029825.JPG,9,ISIC_9613570.JPG,28,27,false,0.2400000000000001,hl,keypress(j),0,false,1302285.5,1302285.4000000954,1292269.33,1292286.0999999046,1292302.978,1302302.956,5,600,36,
break,html.Screen,10_35_1,2023-11-30T18:43:52.815Z,,,,,,,,,,,NaN,,,,,,,,high,low,,,,,,,false,,,,,false,1302285.7000000477,1302285.7000000477,,1302285.5999999046,,1302302.956,5,600,,
break_continue,html.Screen,10_35_2,2023-11-30T18:43:52.816Z,,,,,,,,,,,NaN,,,,,,,,high,low,,,,,,,false,,,,,false,1302285.9000000954,1302285.7999999523,,1302285.7000000477,,1302302.956,5,600,,
sequence,flow.Sequence,10_35,2023-11-30T18:43:52.816Z,,,,,,,,,,,9982.82199995243,completion,,,,,,,high,low,,,,,,,false,,,,,false,1302285.9000000954,1302285.7999999523,1292269.33,1292286.0999999046,1292302.978,1302302.956,5,600,,
trial,html.Screen,10_36_0,2023-11-30T18:44:02.575Z,,,,1,-0.039520186367207,-0.0377961575607372,,0.04,false,hh,9741.944000095362,response,1.006091591942289,1.118262971279715,-0.7800314721377547,0.8039345947564286,0.8614892272801274,-0.8391433075472688,high,high,,ISIC_6356149.JPG,9,ISIC_6993129.JPG,28,38,false,0.12,hl,keypress(j),0,false,1312045.0999999046,1312044.9000000954,1302285.85,1302286,1302302.956,1312052.502,5,600,37,
break,html.Screen,10_36_1,2023-11-30T18:44:02.575Z,,,,,,,,,,,NaN,,,,,,,,high,high,,,,,,,false,,,,,false,1312045.2999999523,1312045.2999999523,,1312045.0999999046,,1312052.502,5,600,,
break_continue,html.Screen,10_36_2,2023-11-30T18:44:02.575Z,,,,,,,,,,,NaN,,,,,,,,high,high,,,,,,,false,,,,,false,1312045.5999999046,1312045.5,,1312045.4000000954,,1312052.502,5,600,,
sequence,flow.Sequence,10_36,2023-11-30T18:44:02.575Z,,,,,,,,,,,9742.543999999994,completion,,,,,,,high,high,,,,,,,false,,,,,false,1312045.5999999046,1312045.5,1302285.85,1302286,1302302.956,1312052.502,5,600,,
trial,html.Screen,10_37_0,2023-11-30T18:44:09.967Z,,,,1,-0.0088741920055285,-0.0058246074740588,,0.04,false,hh,7384.297999952221,response,1.2290925886582755,1.118262971279715,-0.7800314721377547,0.8900015904856239,0.8614892272801274,-0.8391433075472688,high,high,,ISIC_4136663.JPG,9,ISIC_5102688.JPG,28,38,false,0.12,hl,keypress(j),0,false,1319436.9000000954,1319436.7999999523,1312035.511,1312045.5999999046,1312052.502,1319452.486,5,600,38,
