sender,sender_type,sender_id,timestamp,meta,,age,blockNo,c1,c2,condition,control_tolerance,correct,correctResponse,duration,ended_on,f1,f1_high,f1_low,f2,f2_high,f2_low,feature_level1,feature_level2,gender,img_left,img_reveal,img_right,n_control_images,n_target_images,practice,range_tolerance,response,response_action,selection_duration,staircase,time_commit,time_end,time_render,time_run,time_show,time_switch,total_blocks,total_trials,trialNo,url
informed_consent,html.Screen,0,2023-11-20T18:05:05.578Z,"{""labjs_version"":""20.2.4"",""labjs_build"":{""flavor"":""development"",""commit"":""f5b4a49f956347addd546a832a3327688c2c0fef""},""location"":""https://labjs.felixhenninger.com/api/labjs_preview/index.html"",""userAgent"":""Mozilla/5.0 (Windows NT 10.0; Win64; x64) AppleWebKit/537.36 (KHTML, like Gecko) Chrome/119.0.0.0 Safari/537.36"",""platform"":""Win32"",""language"":""en-US"",""locale"":""en-US"",""timeZone"":""America/Chicago"",""timezoneOffset"":360,""screen_width"":1920,""screen_height"":1080,""scroll_width"":945,""scroll_height"":918,""window_innerWidth"":945,""window_innerHeight"":966,""devicePixelRatio"":1}",,,,,,,,,,97938.93800002385,response,,,,,,,,,,,,,,,,,consent,click button,,,98643.90000003576,98635.10000002384,679.449,883.8000000119209,696.162,98446.11,,,,{}
Demography form,html.Form,1,2023-11-20T18:05:16.002Z,,,22,,,,,,,,10621.490000023841,form submission,,,,,,,,,female,,,,,,,,,,,,109067.80000001192,109067.60000002384,98429.23,98644.19999998808,98446.11,108879.41,,,,
Welcome,html.Screen,2,2023-11-20T18:05:52.409Z,,,,,,,"[""bor"",""col""]",,,,36595.289999988076,response,,,,,,,,,,,,,,,,,continue,click button,,,145475.30000001192,145474.69999998808,108862.525,109067.90000003576,108879.41,145279.084,,,,
demo_instructions,html.Screen,3,2023-11-20T18:06:31.578Z,,,,,,,,,,,39363.71600001192,response,,,,,,,,,,,,,,,,,continue,click button,,,184643.40000003576,184642.80000001192,145262.502,145475.40000003576,145279.084,184462.26,,,,
trial,html.Screen,4_0_0,2023-11-20T18:06:38.014Z,,,,0,-1.071312313440387,-1.0935391476164529,,,true,hh,6617.43999998807,response,1.2804054832904397,1.2,-1.2,1.171271535505083,1.2,-1.2,high,high,,ISIC_0063680.JPG,,ISIC_7889838.JPG,,25,true,0.14,hh,keypress(i),100,false,191080,191079.69999998808,184445.62,184643.5,184462.26,190895.574,1,16,1,
sequence,flow.Sequence,4_0,2023-11-20T18:06:38.029Z,,,,,,,,,,,6617.43999998807,completion,,,,,,,high,high,,,,,,,true,,,,,false,191094.5,191079.69999998808,184445.62,184643.5,184462.26,190895.574,1,16,,
trial,html.Screen,4_1_0,2023-11-20T18:06:46.005Z,,,,0,-1.082709423673037,-1.1184338818466155,,,true,hh,8175.125999988086,response,1.2541318165695772,1.2,-1.2,1.085289936617366,1.2,-1.2,high,high,,ISIC_0058666.JPG,,ISIC_4277207.JPG,,25,true,0.14,hh,keypress(i),100,false,199070.90000003576,199070.69999998808,190878.993,191094.69999998808,190895.574,198879.203,1,16,2,
sequence,flow.Sequence,4_1,2023-11-20T18:06:46.005Z,,,,,,,,,,,8175.125999988086,completion,,,,,,,high,high,,,,,,,true,,,,,false,199071.10000002384,199070.69999998808,190878.993,191094.69999998808,190895.574,198879.203,1,16,,
trial,html.Screen,4_2_0,2023-11-20T18:06:49.692Z,,,,0,-1.1243896694621007,-1.1772340944704969,,,true,hh,3878.2969999999914,response,1.160746324899676,1.2,-1.2,1.1927876559115576,1.2,-1.2,high,high,,ISIC_0062765.JPG,,ISIC_8651053.JPG,,25,true,0.14,hh,keypress(i),100,false,202758,202757.5,198862.295,199071.19999998808,198879.203,202579.165,1,16,3,
sequence,flow.Sequence,4_2,2023-11-20T18:06:49.693Z,,,,,,,,,,,3878.2969999999914,completion,,,,,,,high,high,,,,,,,true,,,,,false,202758.90000003576,202757.5,198862.295,199071.10000002384,198879.203,202579.165,1,16,,
trial,html.Screen,4_3_0,2023-11-20T18:06:55.790Z,,,,0,-1.2194553326562725,-1.2381726989215684,,,true,hh,6275.935000023834,response,1.160746324899676,1.2,-1.2,1.1927876559115576,1.2,-1.2,high,high,,ISIC_0068975.JPG,,ISIC_8651053.JPG,,25,true,0.14,hh,keypress(i),100,false,208855.69999998808,208855.10000002384,202562.275,202759.19999998808,202579.165,208662.185,1,16,4,
sequence,flow.Sequence,4_3,2023-11-20T18:06:55.791Z,,,,,,,,,,,6275.935000023834,completion,,,,,,,high,high,,,,,,,true,,,,,false,208856.30000001192,208855.10000002384,202562.275,202759.19999998808,202579.165,208662.185,1,16,,
trial,html.Screen,4_4_0,2023-11-20T18:07:01.966Z,,,,0,1.274752206258116,1.2988509166163749,,,true,ll,6368.715000035765,response,-1.268445326285509,1.2,-1.2,-1.173734476257662,1.2,-1.2,low,low,,ISIC_6704623.JPG,,ISIC_5216586.JPG,,30,true,0.13,ll,keypress(f),100,false,215031.5,215030.90000003576,208645.662,208856.60000002384,208662.185,214845.706,1,16,5,
sequence,flow.Sequence,4_4,2023-11-20T18:07:01.966Z,,,,,,,,,,,6368.715000035765,completion,,,,,,,low,low,,,,,,,true,,,,,false,215032.10000002384,215030.90000003576,208645.662,208856.60000002384,208662.185,214845.706,1,16,,
trial,html.Screen,4_5_0,2023-11-20T18:07:04.527Z,,,,0,1.2724293858920366,1.149360738769835,,,true,ll,2746.194000035757,response,-1.060922596470156,1.2,-1.2,-1.152385059054538,1.2,-1.2,low,low,,ISIC_1264725.JPG,,ISIC_0067719.JPG,,40,true,0.14,ll,keypress(f),100,false,217592.40000003576,217591.90000003576,214828.944,215032.40000003576,214845.706,217412.233,1,16,6,
sequence,flow.Sequence,4_5,2023-11-20T18:07:04.527Z,,,,,,,,,,,2746.194000035757,completion,,,,,,,low,low,,,,,,,true,,,,,false,217592.80000001192,217591.90000003576,214828.944,215032.30000001192,214845.706,217412.233,1,16,,
trial,html.Screen,4_6_0,2023-11-20T18:07:06.887Z,,,,0,1.274417010249866,1.0725495669014795,,,true,ll,2540.1670000357553,response,-1.2194553326562725,1.2,-1.2,-1.2381726989215684,1.2,-1.2,low,low,,ISIC_8849004.JPG,,ISIC_0068975.JPG,,40,true,0.14,ll,keypress(f),100,false,219952.69999998808,219952.40000003576,217395.693,217593.10000002384,217412.233,219762.253,1,16,7,
sequence,flow.Sequence,4_6,2023-11-20T18:07:06.888Z,,,,,,,,,,,2540.1670000357553,completion,,,,,,,low,low,,,,,,,true,,,,,false,219953.30000001192,219952.40000003576,217395.693,217593,217412.233,219762.253,1,16,,
trial,html.Screen,4_7_0,2023-11-20T18:07:15.734Z,,,,0,1.1684835186766898,1.2921331918483707,,,true,ll,9037.147000035766,response,-1.1441767540243375,1.2,-1.2,-1.0949087392471728,1.2,-1.2,low,low,,ISIC_5920470.JPG,,ISIC_0054146.JPG,,40,true,0.14,ll,keypress(f),100,false,228799.69999998808,228799.40000003576,219745.625,219953.5,219762.253,228628.843,1,16,8,
sequence,flow.Sequence,4_7,2023-11-20T18:07:15.734Z,,,,,,,,,,,9037.147000035766,completion,,,,,,,low,low,,,,,,,true,,,,,false,228800.19999998808,228799.40000003576,219745.625,219953.40000003576,219762.253,228628.843,1,16,,
trial,html.Screen,4_8_0,2023-11-20T18:07:18.699Z,,,,0,0.7882758084023446,-0.8296405881378283,,,true,lh,3135.8569999880856,response,-0.9138670886161264,1.2,-1.2,0.8414121478342018,1.2,-1.2,low,high,,ISIC_0065882.JPG,,ISIC_6709052.JPG,,27,true,0.40000000000000024,lh,keypress(e),100,false,231765,231764.69999998808,228595.576,228800.40000003576,228628.843,231578.886,1,16,9,
sequence,flow.Sequence,4_8,2023-11-20T18:07:18.700Z,,,,,,,,,,,3135.8569999880856,completion,,,,,,,low,high,,,,,,,true,,,,,false,231765.5,231764.69999998808,228595.576,228800.30000001192,228628.843,231578.886,1,16,,
trial,html.Screen,4_9_0,2023-11-20T18:07:20.875Z,,,,0,0.7883321712536753,-1.0011430756825364,,,true,lh,2361.4140000119223,response,-0.7723423895392068,1.2,-1.2,0.7630051745722757,1.2,-1.2,low,high,,ISIC_9828853.JPG,,ISIC_9694911.JPG,,40,true,0.4500000000000003,lh,keypress(e),100,false,233940.40000003576,233940.30000001192,231562.198,231765.80000001192,231578.886,233762.221,1,16,10,
sequence,flow.Sequence,4_9,2023-11-20T18:07:20.875Z,,,,,,,,,,,2361.4140000119223,completion,,,,,,,low,high,,,,,,,true,,,,,false,233940.69999998808,233940.30000001192,231562.198,231765.69999998808,231578.886,233762.221,1,16,,
trial,html.Screen,4_10_0,2023-11-20T18:07:24.779Z,,,,0,1.075512775389519,-1.0454702683049502,,,true,lh,4081.7790000000095,response,-0.8047295996345292,1.2,-1.2,1.551750455622795,1.2,-1.2,low,high,,ISIC_0033603.JPG,,ISIC_7717907.JPG,,40,true,0.4500000000000003,lh,keypress(e),100,false,237844.30000001192,237844,233745.502,233940.80000001192,233762.221,237662.158,1,16,11,
sequence,flow.Sequence,4_10,2023-11-20T18:07:24.780Z,,,,,,,,,,,4081.7790000000095,completion,,,,,,,low,high,,,,,,,true,,,,,false,237844.90000003576,237844,233745.502,233940.69999998808,233762.221,237662.158,1,16,,
trial,html.Screen,4_11_0,2023-11-20T18:07:27.787Z,,,,0,0.7518277461369444,-1.3860759020802074,,,true,lh,3190.142000011925,response,-0.8350129142228142,1.2,-1.2,0.8172547818270586,1.2,-1.2,low,high,,ISIC_7967397.JPG,,ISIC_0301568.JPG,,40,true,0.4500000000000003,lh,keypress(e),100,false,240852.5,240852.30000001192,237645.582,237845.10000002384,237662.158,240662.134,1,16,12,
sequence,flow.Sequence,4_11,2023-11-20T18:07:27.788Z,,,,,,,,,,,3190.142000011925,completion,,,,,,,low,high,,,,,,,true,,,,,false,240853,240852.30000001192,237645.582,237845.10000002384,237662.158,240662.134,1,16,,
trial,html.Screen,4_12_0,2023-11-20T18:07:32.315Z,,,,0,-0.8544507134472948,0.9244388608707323,,,false,hl,4718.366000000009,response,1.0329549150636406,1.2,-1.2,-1.01584100839286,1.2,-1.2,high,low,,ISIC_3565564.JPG,,ISIC_0054670.JPG,,26,true,0.4500000000000003,lh,keypress(e),100,false,245380.60000002384,245380.5,240645.567,240853.10000002384,240662.134,245195.498,1,16,13,
sequence,flow.Sequence,4_12,2023-11-20T18:07:32.315Z,,,,,,,,,,,4718.366000000009,completion,,,,,,,high,low,,,,,,,true,,,,,false,245380.69999998808,245380.5,240645.567,240853.10000002384,240662.134,245195.498,1,16,,
trial,html.Screen,4_13_0,2023-11-20T18:07:40.476Z,,,,0,-0.9244148283103414,0.9712966348713286,,,true,hl,8345.302000011929,response,1.0329549150636406,1.2,-1.2,-1.01584100839286,1.2,-1.2,high,low,,ISIC_7927525.JPG,,ISIC_0054670.JPG,,26,true,0.4500000000000003,hl,keypress(j),100,false,253541.19999998808,253540.80000001192,245178.803,245380.80000001192,245195.498,253362.108,1,16,14,
sequence,flow.Sequence,4_13,2023-11-20T18:07:40.477Z,,,,,,,,,,,8345.302000011929,completion,,,,,,,high,low,,,,,,,true,,,,,false,253541.80000001192,253540.80000001192,245178.803,245380.80000001192,245195.498,253362.108,1,16,,
trial,html.Screen,4_14_0,2023-11-20T18:07:43.426Z,,,,0,-0.8350129142228142,0.8172547818270586,,,true,hl,3128.6920000119135,response,1.058275612142778,1.2,-1.2,-0.7824898568540655,1.2,-1.2,high,low,,ISIC_0301568.JPG,,ISIC_4906385.JPG,,26,true,0.4500000000000003,hl,keypress(j),100,false,256491,256490.80000001192,253345.52,253542,253362.108,256312.095,1,16,15,
sequence,flow.Sequence,4_14,2023-11-20T18:07:43.426Z,,,,,,,,,,,3128.6920000119135,completion,,,,,,,high,low,,,,,,,true,,,,,false,256491.40000003576,256490.80000001192,253345.52,253542,253362.108,256312.095,1,16,,
trial,html.Screen,4_15_0,2023-11-20T18:07:51.476Z,,,,0,-0.8350129142228142,0.8172547818270586,,,true,hl,8228.604999988078,response,0.8926515927689261,1.2,-1.2,-0.7935960767768927,1.2,-1.2,high,low,,ISIC_0301568.JPG,,ISIC_8901371.JPG,,26,true,0.4500000000000003,hl,keypress(j),100,false,264541,264540.6999999881,256295.486,256491.69999998808,256312.095,264362.079,1,16,16,
sequence,flow.Sequence,4_15,2023-11-20T18:07:51.476Z,,,,,,,,,,,8228.604999988078,completion,,,,,,,high,low,,,,,,,true,,,,,false,264541.60000002384,264540.6999999881,256295.486,256491.60000002384,256312.095,264362.079,1,16,,
demonstration_loop,flow.Loop,4,2023-11-20T18:07:51.477Z,,,,,,,,,,,80078.43999998807,completion,,,,,,,,,,,,,,,true,,,,,false,264541.90000003576,264540.6999999881,184445.62,184643.40000003576,184462.26,264362.079,1,16,,
practice_instructions,html.Screen,5,2023-11-20T18:07:53.938Z,,,,,,,,,,,2640.521000023815,response,,,,,,,,,,,,,,,,,continue,click button,,,267003.10000002384,267002.60000002384,264345.467,264542.10000002384,264362.079,266812.337,,,,
trial,html.Screen,6_0_0,2023-11-20T18:08:04.265Z,,,,1,1.2100527057059796,1.2159112471537263,,,true,ll,10510.86299998808,response,-1.2194553326562725,1.2,-1.2,-1.2381726989215684,1.2,-1.2,low,low,,ISIC_0008055.JPG,,ISIC_0068975.JPG,,30,true,0.13,ll,keypress(f),0,false,277330.40000003576,277323.1999999881,266795.381,267003.1999999881,266812.337,277145.363,1,40,1,
sequence,flow.Sequence,6_0,2023-11-20T18:08:04.265Z,,,,,,,,,,,10510.86299998808,completion,,,,,,,low,low,,,,,,,true,,,,,false,277330.60000002384,277323.1999999881,266795.381,267003.1999999881,266812.337,277145.363,1,40,,
trial,html.Screen,6_1_0,2023-11-20T18:08:11.442Z,,,,1,-0.8544507134472948,0.9244388608707323,,,true,hl,7362.136999999988,response,1.075512775389519,1.2,-1.2,-1.0454702683049502,1.2,-1.2,high,low,,ISIC_3565564.JPG,,ISIC_0033603.JPG,,26,true,0.4500000000000003,hl,keypress(j),0,false,284507.6999999881,284507.5,277112.087,277330.60000002384,277145.363,284311.997,1,40,2,
sequence,flow.Sequence,6_1,2023-11-20T18:08:11.443Z,,,,,,,,,,,7362.136999999988,completion,,,,,,,high,low,,,,,,,true,,,,,false,284507.8000000119,284507.5,277112.087,277330.60000002384,277145.363,284311.997,1,40,,
trial,html.Screen,6_2_0,2023-11-20T18:08:17.108Z,,,,1,1.199471562817528,-0.8631260534979347,,,true,lh,5860.903000035789,response,-1.0788024398087033,1.2,-1.2,0.9911875460374616,1.2,-1.2,low,high,,ISIC_0030754.JPG,,ISIC_5951430.JPG,,27,true,0.40000000000000024,lh,keypress(e),0,false,290173.10000002384,290172.90000003576,284295.306,284507.90000003576,284311.997,289978.669,1,40,3,
sequence,flow.Sequence,6_2,2023-11-20T18:08:17.108Z,,,,,,,,,,,5860.903000035789,completion,,,,,,,low,high,,,,,,,true,,,,,false,290173.40000003576,290172.90000003576,284295.306,284507.8000000119,284311.997,289978.669,1,40,,
trial,html.Screen,6_3_0,2023-11-20T18:08:26.924Z,,,,1,-1.045301444872812,1.0872560254441277,,,true,hl,10009.131000011927,response,0.8110121381849364,1.2,-1.2,-0.7563142141851558,1.2,-1.2,high,low,,ISIC_4507700.JPG,,ISIC_0033605.JPG,,26,true,0.4500000000000003,hl,keypress(j),0,false,299988,299987.8000000119,289961.89,290173.60000002384,289978.669,299795.543,1,40,4,
sequence,flow.Sequence,6_3,2023-11-20T18:08:26.924Z,,,,,,,,,,,10009.131000011927,completion,,,,,,,high,low,,,,,,,true,,,,,false,299988.10000002384,299987.8000000119,289961.89,290173.60000002384,289978.669,299795.543,1,40,,
trial,html.Screen,6_4_0,2023-11-20T18:08:32.724Z,,,,1,1.0659165756604234,1.0867497316848906,,,true,ll,5992.357000035758,response,-0.9740596249572724,1.2,-1.2,-0.915332132320829,1.2,-1.2,low,low,,ISIC_5807608.JPG,,ISIC_9053910.JPG,,288,true,0.40000000000000024,ll,keypress(f),0,false,305788.10000002384,305787.90000003576,299778.555,299988.10000002384,299795.543,305595.291,1,40,5,
sequence,flow.Sequence,6_4,2023-11-20T18:08:32.724Z,,,,,,,,,,,5992.357000035758,completion,,,,,,,low,low,,,,,,,true,,,,,false,305788.1999999881,305787.90000003576,299778.555,299988.10000002384,299795.543,305595.291,1,40,,
trial,html.Screen,6_5_0,2023-11-20T18:08:40.990Z,,,,1,0.989300717252516,-0.7908280206937478,,,true,lh,8458.309000023815,response,-0.8067116931297591,1.2,-1.2,1.215898074058027,1.2,-1.2,low,high,,ISIC_6416533.JPG,,ISIC_1457687.JPG,,27,true,0.40000000000000024,lh,keypress(e),0,false,314054,314053.60000002384,305578.709,305788.3000000119,305595.291,313862.001,1,40,6,
sequence,flow.Sequence,6_5,2023-11-20T18:08:40.991Z,,,,,,,,,,,8458.309000023815,completion,,,,,,,low,high,,,,,,,true,,,,,false,314054.40000003576,314053.60000002384,305578.709,305788.1999999881,305595.291,313862.001,1,40,,
trial,html.Screen,6_6_0,2023-11-20T18:08:49.236Z,,,,1,-0.8350129142228142,0.8172547818270586,,,true,hl,8437.49900000001,response,0.8472024037189965,1.2,-1.2,-0.986370061404882,1.2,-1.2,high,low,,ISIC_0301568.JPG,,ISIC_0054355.JPG,,26,true,0.4500000000000003,hl,keypress(j),0,false,322299.60000002384,322299.5,313844.995,314054.60000002384,313862.001,322095.203,1,40,7,
sequence,flow.Sequence,6_6,2023-11-20T18:08:49.236Z,,,,,,,,,,,8437.49900000001,completion,,,,,,,high,low,,,,,,,true,,,,,false,322299.6999999881,322299.5,313844.995,314054.60000002384,313862.001,322095.203,1,40,,
trial,html.Screen,6_7_0,2023-11-20T18:08:54.894Z,,,,1,-1.1441767540243375,-1.0949087392471728,,,true,hh,5862.2970000000205,response,0.9126122723623854,1.2,-1.2,1.3285927343371364,1.2,-1.2,high,high,,ISIC_0054146.JPG,,ISIC_9738202.JPG,,203,true,0.40000000000000024,hh,keypress(i),0,false,327957.90000003576,327957.5,322078.467,322299.6999999881,322095.203,327762.048,1,40,8,
sequence,flow.Sequence,6_7,2023-11-20T18:08:54.894Z,,,,,,,,,,,5862.2970000000205,completion,,,,,,,high,high,,,,,,,true,,,,,false,327958.3000000119,327957.5,322078.467,322299.6999999881,322095.203,327762.048,1,40,,
trial,html.Screen,6_8_0,2023-11-20T18:09:01.917Z,,,,1,1.3379750533585932,1.1671342614509763,,,true,ll,7218.95199999999,response,-1.071312313440387,1.2,-1.2,-1.0935391476164529,1.2,-1.2,low,low,,ISIC_0063556.JPG,,ISIC_0063680.JPG,,30,true,0.13,ll,keypress(f),0,false,334981.3000000119,334981,327745.32,327958.5,327762.048,334778.552,1,40,9,
sequence,flow.Sequence,6_8,2023-11-20T18:09:01.918Z,,,,,,,,,,,7218.95199999999,completion,,,,,,,low,low,,,,,,,true,,,,,false,334981.6999999881,334981,327745.32,327958.5,327762.048,334778.552,1,40,,
trial,html.Screen,6_9_0,2023-11-20T18:09:10.806Z,,,,1,-1.14454137020797,-1.1082302786512033,,,true,hh,9091.048000023817,response,1.109799097093339,1.2,-1.2,1.091507924157762,1.2,-1.2,high,high,,ISIC_0065128.JPG,,ISIC_0765584.JPG,,25,true,0.14,hh,keypress(i),0,false,343870,343869.60000002384,334761.744,334981.90000003576,334778.552,343678.522,1,40,10,
sequence,flow.Sequence,6_9,2023-11-20T18:09:10.807Z,,,,,,,,,,,9091.048000023817,completion,,,,,,,high,high,,,,,,,true,,,,,false,343870.40000003576,343869.60000002384,334761.744,334981.8000000119,334778.552,343678.522,1,40,,
trial,html.Screen,6_10_0,2023-11-20T18:09:15.389Z,,,,1,0.7883321712536753,-1.0011430756825364,,,true,lh,4773.978000000003,response,-0.9662688541319592,1.2,-1.2,0.929746784178986,1.2,-1.2,low,high,,ISIC_9828853.JPG,,ISIC_0011077.JPG,,27,true,0.40000000000000024,lh,keypress(e),0,false,348452.8000000119,348452.5,343661.793,343870.60000002384,343678.522,348262.64,1,40,11,
sequence,flow.Sequence,6_10,2023-11-20T18:09:15.389Z,,,,,,,,,,,4773.978000000003,completion,,,,,,,low,high,,,,,,,true,,,,,false,348453.10000002384,348452.5,343661.793,343870.5,343678.522,348262.64,1,40,,
trial,html.Screen,6_11_0,2023-11-20T18:09:19.038Z,,,,1,-1.1117876838408909,-1.2957497771092716,,,true,hh,3838.160000011907,response,1.1684835186766898,1.2,-1.2,1.2921331918483707,1.2,-1.2,high,high,,ISIC_0061915.JPG,,ISIC_5920470.JPG,,265,true,0.4500000000000003,hh,keypress(i),0,false,352101,352100.8000000119,348228.562,348453.3000000119,348262.64,351911.832,1,40,12,
sequence,flow.Sequence,6_11,2023-11-20T18:09:19.038Z,,,,,,,,,,,3838.160000011907,completion,,,,,,,high,high,,,,,,,true,,,,,false,352101.40000003576,352100.8000000119,348228.562,348453.1999999881,348262.64,351911.832,1,40,,
trial,html.Screen,6_12_0,2023-11-20T18:09:25.959Z,,,,1,1.0453124399868816,-0.8986747280184286,,,true,lh,7109.867999988084,response,-0.8987343013179191,1.2,-1.2,0.8149073454566363,1.2,-1.2,low,high,,ISIC_0013967.JPG,,ISIC_0472513.JPG,,27,true,0.40000000000000024,lh,keypress(e),0,false,359021.90000003576,359021.6999999881,351878.639,352101.6999999881,351911.832,358828.482,1,40,13,
sequence,flow.Sequence,6_12,2023-11-20T18:09:25.959Z,,,,,,,,,,,7109.867999988084,completion,,,,,,,low,high,,,,,,,true,,,,,false,359022.3000000119,359021.6999999881,351878.639,352101.60000002384,351911.832,358828.482,1,40,,
trial,html.Screen,6_13_0,2023-11-20T18:09:35.804Z,,,,1,-0.8867328775712738,1.0063426986460375,,,true,hl,10038.818000011903,response,0.9653573371180936,1.2,-1.2,-0.854766800381037,1.2,-1.2,high,low,,ISIC_0055759.JPG,,ISIC_9640145.JPG,,26,true,0.4500000000000003,hl,keypress(j),0,false,368867.40000003576,368867.3000000119,358811.604,359022.40000003576,358828.482,368661.791,1,40,14,
sequence,flow.Sequence,6_13,2023-11-20T18:09:35.804Z,,,,,,,,,,,10038.818000011903,completion,,,,,,,high,low,,,,,,,true,,,,,false,368867.60000002384,368867.3000000119,358811.604,359022.40000003576,358828.482,368661.791,1,40,,
trial,html.Screen,6_14_0,2023-11-20T18:09:43.655Z,,,,1,-1.1117876838408909,-1.2957497771092716,,,true,hh,8055.7089999999735,response,1.2093800080874595,1.2,-1.2,0.8810330940141073,1.2,-1.2,high,high,,ISIC_0061915.JPG,,ISIC_7830756.JPG,,203,true,0.40000000000000024,hh,keypress(i),0,false,376717.90000003576,376717.5,368644.785,368867.60000002384,368661.791,376511.849,1,40,15,
sequence,flow.Sequence,6_14,2023-11-20T18:09:43.655Z,,,,,,,,,,,8055.7089999999735,completion,,,,,,,high,high,,,,,,,true,,,,,false,376718.3000000119,376717.5,368644.785,368867.60000002384,368661.791,376511.849,1,40,,
trial,html.Screen,6_15_0,2023-11-20T18:09:55.046Z,,,,1,-1.268445326285509,-1.173734476257662,,,true,hh,11596.951000011934,response,1.151139267005652,1.2,-1.2,1.0838749490501327,1.2,-1.2,high,high,,ISIC_5216586.JPG,,ISIC_0002566.JPG,,25,true,0.14,hh,keypress(i),0,false,388109.10000002384,388108.8000000119,376494.867,376718.5,376511.849,387911.793,1,40,16,
sequence,flow.Sequence,6_15,2023-11-20T18:09:55.046Z,,,,,,,,,,,11596.951000011934,completion,,,,,,,high,high,,,,,,,true,,,,,false,388109.40000003576,388108.8000000119,376494.867,376718.40000003576,376511.849,387911.793,1,40,,
trial,html.Screen,6_16_0,2023-11-20T18:09:59.150Z,,,,1,1.109799097093339,1.091507924157762,,,true,ll,4301.507000011916,response,-1.071312313440387,1.2,-1.2,-1.0935391476164529,1.2,-1.2,low,low,,ISIC_0765584.JPG,,ISIC_0063680.JPG,,30,true,0.13,ll,keypress(f),0,false,392213.5,392213.3000000119,387894.949,388109.60000002384,387911.793,392028.351,1,40,17,
sequence,flow.Sequence,6_16,2023-11-20T18:09:59.151Z,,,,,,,,,,,4301.507000011916,completion,,,,,,,low,low,,,,,,,true,,,,,false,392214,392213.3000000119,387894.949,388109.60000002384,387911.793,392028.351,1,40,,
trial,html.Screen,6_17_0,2023-11-20T18:10:04.741Z,,,,1,0.8719231363109603,-0.7704280220140033,,,true,lh,5776.148999999976,response,-0.8500530224490773,1.2,-1.2,1.0893360711742854,1.2,-1.2,low,high,,ISIC_0029453.JPG,,ISIC_2998367.JPG,,27,true,0.40000000000000024,lh,keypress(e),0,false,397804.8000000119,397804.5,391995.224,392214.1999999881,392028.351,397611.802,1,40,18,
sequence,flow.Sequence,6_17,2023-11-20T18:10:04.742Z,,,,,,,,,,,5776.148999999976,completion,,,,,,,low,high,,,,,,,true,,,,,false,397805.1999999881,397804.5,391995.224,392214.10000002384,392028.351,397611.802,1,40,,
trial,html.Screen,6_18_0,2023-11-20T18:10:10.764Z,,,,1,-1.082709423673037,-1.1184338818466155,,,true,hh,6215.298000023817,response,1.1290536173202614,1.2,-1.2,0.9768663240505168,1.2,-1.2,high,high,,ISIC_0058666.JPG,,ISIC_2196127.JPG,,265,true,0.4500000000000003,hh,keypress(i),0,false,403827.1999999881,403827.10000002384,397595.023,397805.3000000119,397611.802,403644.997,1,40,19,
sequence,flow.Sequence,6_18,2023-11-20T18:10:10.764Z,,,,,,,,,,,6215.298000023817,completion,,,,,,,high,high,,,,,,,true,,,,,false,403827.40000003576,403827.10000002384,397595.023,397805.3000000119,397611.802,403644.997,1,40,,
trial,html.Screen,6_19_0,2023-11-20T18:10:15.805Z,,,,1,-1.045301444872812,1.0872560254441277,,,true,hl,5223.103000023868,response,1.058275612142778,1.2,-1.2,-0.7824898568540655,1.2,-1.2,high,low,,ISIC_4507700.JPG,,ISIC_4906385.JPG,,26,true,0.4500000000000003,hl,keypress(j),0,false,408868.3000000119,408868.10000002384,403611.762,403827.5,403644.997,408661.738,1,40,20,
sequence,flow.Sequence,6_19,2023-11-20T18:10:15.805Z,,,,,,,,,,,5223.103000023868,completion,,,,,,,high,low,,,,,,,true,,,,,false,408868.6999999881,408868.10000002384,403611.762,403827.40000003576,403644.997,408661.738,1,40,,
trial,html.Screen,6_20_0,2023-11-20T18:10:21.308Z,,,,1,-1.1392972253022884,-1.208510423375335,,,true,hh,5709.461999988067,response,0.8991086866898779,1.2,-1.2,0.8657681961662855,1.2,-1.2,high,high,,ISIC_0046526.JPG,,ISIC_0005304.JPG,,203,true,0.40000000000000024,hh,keypress(i),0,false,414371.1999999881,414371.1999999881,408644.938,408868.90000003576,408661.738,414178.517,1,40,21,
sequence,flow.Sequence,6_20,2023-11-20T18:10:21.309Z,,,,,,,,,,,5709.461999988067,completion,,,,,,,high,high,,,,,,,true,,,,,false,414371.40000003576,414371.1999999881,408644.938,408868.8000000119,408661.738,414178.517,1,40,,
trial,html.Screen,6_21_0,2023-11-20T18:10:24.485Z,,,,1,-1.0769708994456726,-1.2196503533725178,,,true,hh,3368.9830000000075,response,1.2541318165695772,1.2,-1.2,1.085289936617366,1.2,-1.2,high,high,,ISIC_0063824.JPG,,ISIC_4277207.JPG,,25,true,0.14,hh,keypress(i),0,false,417547.5,417547.5,414161.775,414371.40000003576,414178.517,417361.65,1,40,22,
sequence,flow.Sequence,6_21,2023-11-20T18:10:24.485Z,,,,,,,,,,,3368.9830000000075,completion,,,,,,,high,high,,,,,,,true,,,,,false,417547.60000002384,417547.5,414161.775,414371.40000003576,414178.517,417361.65,1,40,,
trial,html.Screen,6_22_0,2023-11-20T18:10:26.629Z,,,,1,0.8110121381849364,-0.7563142141851558,,,true,lh,2330.049999988056,response,-0.9244148283103414,1.2,-1.2,0.9712966348713286,1.2,-1.2,low,high,,ISIC_0033605.JPG,,ISIC_7927525.JPG,,27,true,0.40000000000000024,lh,keypress(e),0,false,419691.90000003576,419691.6999999881,417328.244,417547.6999999881,417361.65,419495.003,1,40,23,
sequence,flow.Sequence,6_22,2023-11-20T18:10:26.629Z,,,,,,,,,,,2330.049999988056,completion,,,,,,,low,high,,,,,,,true,,,,,false,419692.1999999881,419691.6999999881,417328.244,417547.6999999881,417361.65,419495.003,1,40,,
trial,html.Screen,6_23_0,2023-11-20T18:10:35.140Z,,,,1,-0.9544693251394116,1.0727539917203766,,,true,hl,8707.797000011895,response,0.8719231363109603,1.2,-1.2,-0.7704280220140033,1.2,-1.2,high,low,,ISIC_0055147.JPG,,ISIC_0029453.JPG,,26,true,0.4500000000000003,hl,keypress(j),0,false,428203,428202.8000000119,419478.279,419692.3000000119,419495.003,428012.822,1,40,24,
sequence,flow.Sequence,6_23,2023-11-20T18:10:35.140Z,,,,,,,,,,,8707.797000011895,completion,,,,,,,high,low,,,,,,,true,,,,,false,428203.10000002384,428202.8000000119,419478.279,419692.3000000119,419495.003,428012.822,1,40,,
trial,html.Screen,6_24_0,2023-11-20T18:10:39.647Z,,,,1,1.109799097093339,1.091507924157762,,,true,ll,4696.678000000014,response,-1.0349570401423522,1.2,-1.2,-1.0363323665817852,1.2,-1.2,low,low,,ISIC_0765584.JPG,,ISIC_0030107.JPG,,288,true,0.40000000000000024,ll,keypress(f),0,false,432709.8000000119,432709.5,427978.132,428203.10000002384,428012.822,432511.609,1,40,25,
sequence,flow.Sequence,6_24,2023-11-20T18:10:39.647Z,,,,,,,,,,,4696.678000000014,completion,,,,,,,low,low,,,,,,,true,,,,,false,432710.1999999881,432709.5,427978.132,428203.10000002384,428012.822,432511.609,1,40,,
trial,html.Screen,6_25_0,2023-11-20T18:10:42.942Z,,,,1,1.2804054832904397,1.171271535505083,,,true,ll,3492.691000011924,response,-1.0642195369108791,1.2,-1.2,-1.0897657776277234,1.2,-1.2,low,low,,ISIC_7889838.JPG,,ISIC_0071988.JPG,,40,true,0.14,ll,keypress(f),0,false,436004.60000002384,436004.3000000119,432495.075,432710.40000003576,432511.609,435811.605,1,40,26,
sequence,flow.Sequence,6_25,2023-11-20T18:10:42.942Z,,,,,,,,,,,3492.691000011924,completion,,,,,,,low,low,,,,,,,true,,,,,false,436005,436004.3000000119,432495.075,432710.3000000119,432511.609,435811.605,1,40,,
trial,html.Screen,6_26_0,2023-11-20T18:10:44.573Z,,,,1,-0.9633172970727744,0.8472659344792351,,,true,hl,1824.3950000000186,response,1.2578167348825195,1.2,-1.2,-0.8371819698254004,1.2,-1.2,high,low,,ISIC_0067172.JPG,,ISIC_9613570.JPG,,26,true,0.4500000000000003,hl,keypress(j),0,false,437636.3000000119,437636,435795.14,436005.1999999881,435811.605,437446.311,1,40,27,
sequence,flow.Sequence,6_26,2023-11-20T18:10:44.574Z,,,,,,,,,,,1824.3950000000186,completion,,,,,,,high,low,,,,,,,true,,,,,false,437636.60000002384,437636,435795.14,436005.10000002384,435811.605,437446.311,1,40,,
trial,html.Screen,6_27_0,2023-11-20T18:10:46.822Z,,,,1,1.151139267005652,1.0838749490501327,,,true,ll,2438.189000000013,response,-1.353333658925377,1.2,-1.2,-1.2011271301542,1.2,-1.2,low,low,,ISIC_0002566.JPG,,ISIC_0065313.JPG,,288,true,0.40000000000000024,ll,keypress(f),0,false,439884.6999999881,439884.5,437411.65,437636.8000000119,437446.311,439694.921,1,40,28,
sequence,flow.Sequence,6_27,2023-11-20T18:10:46.822Z,,,,,,,,,,,2438.189000000013,completion,,,,,,,low,low,,,,,,,true,,,,,false,439885.10000002384,439884.5,437411.65,437636.8000000119,437446.311,439694.921,1,40,,
trial,html.Screen,6_28_0,2023-11-20T18:10:49.334Z,,,,1,0.9754077946987664,-1.1821868813141057,,,false,lh,2701.97900003579,response,-1.168911077628813,1.2,-1.2,1.2181838235193114,1.2,-1.2,low,high,,ISIC_0024317.JPG,,ISIC_7358691.JPG,,27,true,0.40000000000000024,hh,keypress(i),0,false,442397.10000002384,442396.90000003576,439661.761,439885.1999999881,439694.921,442194.907,1,40,29,
sequence,flow.Sequence,6_28,2023-11-20T18:10:49.335Z,,,,,,,,,,,2701.97900003579,completion,,,,,,,low,high,,,,,,,true,,,,,false,442397.5,442396.90000003576,439661.761,439885.1999999881,439694.921,442194.907,1,40,,
trial,html.Screen,6_29_0,2023-11-20T18:10:52.750Z,,,,1,1.1870093485714288,1.3339880978442629,,,true,ll,3617.1930000238353,response,-1.0653732408486678,1.2,-1.2,-1.089675540151582,1.2,-1.2,low,low,,ISIC_8592235.JPG,,ISIC_0058315.JPG,,359,true,0.4500000000000003,ll,keypress(f),0,false,445812.3000000119,445812.10000002384,442178.441,442397.60000002384,442194.907,445611.643,1,40,30,
sequence,flow.Sequence,6_29,2023-11-20T18:10:52.750Z,,,,,,,,,,,3617.1930000238353,completion,,,,,,,low,low,,,,,,,true,,,,,false,445812.60000002384,445812.10000002384,442178.441,442397.60000002384,442194.907,445611.643,1,40,,
trial,html.Screen,6_30_0,2023-11-20T18:10:56.005Z,,,,1,-1.071312313440387,-1.0935391476164529,,,true,hh,3456.0569999880972,response,1.2219550761700546,1.2,-1.2,1.2809901875733454,1.2,-1.2,high,high,,ISIC_0063680.JPG,,ISIC_6463417.JPG,,25,true,0.14,hh,keypress(i),0,false,449067.8000000119,449067.6999999881,445594.929,445812.8000000119,445611.643,448878.199,1,40,31,
sequence,flow.Sequence,6_30,2023-11-20T18:10:56.005Z,,,,,,,,,,,3456.0569999880972,completion,,,,,,,high,high,,,,,,,true,,,,,false,449067.90000003576,449067.6999999881,445594.929,445812.8000000119,445611.643,448878.199,1,40,,
trial,html.Screen,6_31_0,2023-11-20T18:11:11.820Z,,,,1,0.8034318937720549,-1.0024917298189338,,,,,15799.99099999998,timeout,-1.2646773654288392,1.2,-1.2,0.952963803634235,1.2,-1.2,low,high,,ISIC_0032766.JPG,,ISIC_1996356.JPG,,27,true,0.40000000000000024,,,0,false,464883.3000000119,464883.10000002384,448844.873,449068,448878.199,464678.19,1,40,32,
sequence,flow.Sequence,6_31,2023-11-20T18:11:11.821Z,,,,,,,,,,,16004.90100002382,completion,,,,,,,low,high,,,,,,,true,,,,,false,464883.40000003576,464883.10000002384,448844.873,449068,448878.199,464678.19,1,40,,
trial,html.Screen,6_32_0,2023-11-20T18:11:15.078Z,,,,1,-0.9633172970727744,0.8472659344792351,,,true,hl,3462.2100000357605,response,1.075512775389519,1.2,-1.2,-1.0454702683049502,1.2,-1.2,high,low,,ISIC_0067172.JPG,,ISIC_0033603.JPG,,26,true,0.4500000000000003,hl,keypress(j),0,false,468140.60000002384,468140.40000003576,464661.645,464883.40000003576,464678.19,467944.923,1,40,33,
sequence,flow.Sequence,6_32,2023-11-20T18:11:15.078Z,,,,,,,,,,,3462.2100000357605,completion,,,,,,,high,low,,,,,,,true,,,,,false,468141,468140.40000003576,464661.645,464883.40000003576,464678.19,467944.923,1,40,,
trial,html.Screen,6_33_0,2023-11-20T18:11:17.470Z,,,,1,1.077278111180185,1.1530533996184025,,,true,ll,2587.2769999880693,response,-0.8481980365756594,1.2,-1.2,-0.9581202232187236,1.2,-1.2,low,low,,ISIC_9525136.JPG,,ISIC_0031784.JPG,,288,true,0.40000000000000024,ll,keypress(f),0,false,470532.40000003576,470532.1999999881,467928.33,468141.3000000119,467944.923,470328.172,1,40,34,
sequence,flow.Sequence,6_33,2023-11-20T18:11:17.470Z,,,,,,,,,,,2587.2769999880693,completion,,,,,,,low,low,,,,,,,true,,,,,false,470532.6999999881,470532.1999999881,467928.33,468141.1999999881,467944.923,470328.172,1,40,,
trial,html.Screen,6_34_0,2023-11-20T18:11:18.589Z,,,,1,1.2219550761700546,1.2809901875733454,,,true,ll,1323.0279999880586,response,-1.0849202097813322,1.2,-1.2,-1.0851127310415287,1.2,-1.2,low,low,,ISIC_6463417.JPG,,ISIC_0010289.JPG,,40,true,0.14,ll,keypress(f),0,false,471651.3000000119,471651.1999999881,470311.614,470532.90000003576,470328.172,471461.502,1,40,35,
sequence,flow.Sequence,6_34,2023-11-20T18:11:18.589Z,,,,,,,,,,,1323.0279999880586,completion,,,,,,,low,low,,,,,,,true,,,,,false,471651.5,471651.1999999881,470311.614,470532.8000000119,470328.172,471461.502,1,40,,
trial,html.Screen,6_35_0,2023-11-20T18:11:21.788Z,,,,1,0.8926515927689261,-0.7935960767768927,,,true,lh,3388.7980000119423,response,-1.0116417541846066,1.2,-1.2,1.033442916947398,1.2,-1.2,low,high,,ISIC_8901371.JPG,,ISIC_0031389.JPG,,27,true,0.40000000000000024,lh,keypress(e),0,false,474850.40000003576,474850.3000000119,471428.261,471651.5,471461.502,474644.834,1,40,36,
sequence,flow.Sequence,6_35,2023-11-20T18:11:21.788Z,,,,,,,,,,,3388.7980000119423,completion,,,,,,,low,high,,,,,,,true,,,,,false,474850.60000002384,474850.3000000119,471428.261,471651.5,471461.502,474644.834,1,40,,
trial,html.Screen,6_36_0,2023-11-20T18:11:24.798Z,,,,1,1.0329549150636406,-1.01584100839286,,,true,lh,3215.2660000238684,response,-0.9662688541319592,1.2,-1.2,0.929746784178986,1.2,-1.2,low,high,,ISIC_0054670.JPG,,ISIC_0011077.JPG,,40,true,0.4500000000000003,lh,keypress(e),0,false,477860.3000000119,477860.10000002384,474628.305,474850.60000002384,474644.834,477661.474,1,40,37,
sequence,flow.Sequence,6_36,2023-11-20T18:11:24.798Z,,,,,,,,,,,3215.2660000238684,completion,,,,,,,low,high,,,,,,,true,,,,,false,477860.8000000119,477860.10000002384,474628.305,474850.60000002384,474644.834,477661.474,1,40,,
trial,html.Screen,6_37_0,2023-11-20T18:11:26.663Z,,,,1,-1.1117876838408909,-1.2957497771092716,,,true,hh,2063.5260000000126,response,1.006091591942289,1.2,-1.2,0.8039345947564286,1.2,-1.2,high,high,,ISIC_0061915.JPG,,ISIC_6993129.JPG,,265,true,0.4500000000000003,hh,keypress(i),0,false,479725.1999999881,479725,477644.919,477861,477661.474,479528.152,1,40,38,
sequence,flow.Sequence,6_37,2023-11-20T18:11:26.663Z,,,,,,,,,,,2063.5260000000126,completion,,,,,,,high,high,,,,,,,true,,,,,false,479725.6999999881,479725,477644.919,477860.90000003576,477661.474,479528.152,1,40,,
trial,html.Screen,6_38_0,2023-11-20T18:11:31.150Z,,,,1,-0.8350129142228142,0.8172547818270586,,,true,hl,4683.94800002384,response,1.0329549150636406,1.2,-1.2,-1.01584100839286,1.2,-1.2,high,low,,ISIC_0301568.JPG,,ISIC_0054670.JPG,,26,true,0.4500000000000003,hl,keypress(j),0,false,484212.3000000119,484212.10000002384,479511.446,479725.8000000119,479528.152,484011.464,1,40,39,
sequence,flow.Sequence,6_38,2023-11-20T18:11:31.150Z,,,,,,,,,,,4683.94800002384,completion,,,,,,,high,low,,,,,,,true,,,,,false,484212.6999999881,484212.10000002384,479511.446,479725.8000000119,479528.152,484011.464,1,40,,
trial,html.Screen,6_39_0,2023-11-20T18:11:33.902Z,,,,1,-1.2646773654288392,0.952963803634235,,,true,hl,2952.4360000357847,response,0.8034318937720549,1.2,-1.2,-1.0024917298189338,1.2,-1.2,high,low,,ISIC_1996356.JPG,,ISIC_0032766.JPG,,26,true,0.4500000000000003,hl,keypress(j),0,false,486964.1999999881,486963.90000003576,483994.952,484212.90000003576,484011.464,486761.424,1,40,40,
sequence,flow.Sequence,6_39,2023-11-20T18:11:33.902Z,,,,,,,,,,,2952.4360000357847,completion,,,,,,,high,low,,,,,,,true,,,,,false,486964.60000002384,486963.90000003576,483994.952,484212.8000000119,484011.464,486761.424,1,40,,
practice_loop,flow.Loop,6,2023-11-20T18:11:33.902Z,,,,,,,,,,,220151.56300003576,completion,,,,,,,,,,,,,,,true,,,,,false,486964.6999999881,486963.90000003576,266795.381,267003.1999999881,266812.337,486761.424,1,40,,
stair_instructions,html.Screen,7,2023-11-20T18:11:37.356Z,,,,,,,,,,,3656.27599998808,response,,,,,,,,,,,,,,,,,continue,click button,,,490418.3000000119,490417.6999999881,486744.904,486964.90000003576,486761.424,490228.139,,,,
trial,html.Screen,8_0_0,2023-11-20T18:11:43.788Z,,,,2,0.0367706518941078,-0.0161069838272154,,0.04,true,hh,6622.461000023817,response,0.8674472391512381,1.2,-1.2,1.3423814609370837,1.2,-1.2,high,high,,ISIC_0033419.JPG,,ISIC_0014431.JPG,28,203,false,0.40000000000000024,hh,keypress(i),0,true,496850.6999999881,496850.60000002384,490211.451,490418.40000003576,490228.139,496661.689,1,40,1,
sequence,flow.Sequence,8_0,2023-11-20T18:11:43.788Z,,,,,,,,,,,6622.461000023817,completion,,,,,,,high,high,,,,,,,false,,,,,true,496850.8000000119,496850.60000002384,490211.451,490418.3000000119,490228.139,496661.689,1,40,,
trial,html.Screen,8_1_0,2023-11-20T18:11:47.660Z,,,,2,0.0119001144851157,-0.0063430114540141,,0.04,true,hh,4060.611000011908,response,1.1018283884093611,1.15,-1.15,1.053767307212406,1.15,-1.15,high,high,,ISIC_0003822.JPG,,ISIC_6785249.JPG,28,27,false,0.14,hh,keypress(i),0,true,500722.40000003576,500722.3000000119,496644.77,496850.90000003576,496661.689,500528.354,1,40,2,
sequence,flow.Sequence,8_1,2023-11-20T18:11:47.660Z,,,,,,,,,,,4060.611000011908,completion,,,,,,,high,high,,,,,,,false,,,,,true,500722.5,500722.3000000119,496644.77,496850.90000003576,496661.689,500528.354,1,40,,
trial,html.Screen,8_2_0,2023-11-20T18:11:52.591Z,,,,2,-0.0074667911845194,0.018500200317654,,0.04,true,ll,5124.24600002385,response,-1.0849202097813322,1.148074384074745,-1.15,-1.0851127310415287,1.148074384074745,-1.15,low,low,,ISIC_0058723.JPG,,ISIC_0010289.JPG,28,27,false,0.1,ll,keypress(f),0,true,505652.90000003576,505652.60000002384,500511.532,500722.60000002384,500528.354,505461.575,1,40,3,
sequence,flow.Sequence,8_2,2023-11-20T18:11:52.591Z,,,,,,,,,,,5124.24600002385,completion,,,,,,,low,low,,,,,,,false,,,,,true,505653.1999999881,505652.60000002384,500511.532,500722.60000002384,500528.354,505461.575,1,40,,
trial,html.Screen,8_3_0,2023-11-20T18:11:55.574Z,,,,2,-0.0065172941585523,0.0118857043117315,,0.04,true,hh,3174.7250000119093,response,1.274417010249866,1.148074384074745,-1.15,1.0725495669014795,1.148074384074745,-1.15,high,high,,ISIC_6119202.JPG,,ISIC_8849004.JPG,28,27,false,0.14,hh,keypress(i),0,true,508636.5,508636.3000000119,505428.171,505653.40000003576,505461.575,508444.714,1,40,4,
sequence,flow.Sequence,8_3,2023-11-20T18:11:55.575Z,,,,,,,,,,,3174.7250000119093,completion,,,,,,,high,high,,,,,,,false,,,,,true,508636.90000003576,508636.3000000119,505428.171,505653.3000000119,505461.575,508444.714,1,40,,
trial,html.Screen,8_4_0,2023-11-20T18:12:02.757Z,,,,2,0.0220026381002083,-0.0170756452911772,,0.04,false,lh,7374.386000023864,response,-1.0153439398566937,1.148074384074745,-1.15,0.93001438372942,1.148074384074745,-1.15,low,high,,ISIC_5347806.JPG,,ISIC_8211214.JPG,28,26,false,0.3500000000000002,hl,keypress(j),0,true,515819.1999999881,515819.10000002384,508428.252,508637.1999999881,508444.714,515611.366,1,40,5,
sequence,flow.Sequence,8_4,2023-11-20T18:12:02.757Z,,,,,,,,,,,7374.386000023864,completion,,,,,,,low,high,,,,,,,false,,,,,true,515819.40000003576,515819.10000002384,508428.252,508637.10000002384,508444.714,515611.366,1,40,,
trial,html.Screen,8_5_0,2023-11-20T18:12:07.599Z,,,,2,0.0367744112927588,0.0324865661712824,,0.04,false,hl,5049.534000035783,response,0.7882758084023446,1.148074384074745,-1.15,-0.8296405881378283,1.198074384074745,-1.15,high,low,,ISIC_4523565.JPG,,ISIC_0065882.JPG,28,26,false,0.40000000000000024,lh,keypress(e),0,true,520661.10000002384,520660.90000003576,515594.499,515819.40000003576,515611.366,520461.37,1,40,6,
sequence,flow.Sequence,8_5,2023-11-20T18:12:07.599Z,,,,,,,,,,,5049.534000035783,completion,,,,,,,high,low,,,,,,,false,,,,,true,520661.5,520660.90000003576,515594.499,515819.40000003576,515611.366,520461.37,1,40,,
trial,html.Screen,8_6_0,2023-11-20T18:12:12.094Z,,,,2,0.0200295718112167,0.0155559071275806,,0.04,false,lh,4694.7300000238465,response,-0.8067116931297591,1.198074384074745,-1.15,1.215898074058027,1.198074384074745,-1.15,low,high,,ISIC_0061343.JPG,,ISIC_1457687.JPG,28,25,false,0.3700000000000002,hl,keypress(j),0,true,525156.3000000119,525156.1000000238,520444.825,520661.8000000119,520461.37,524961.356,1,40,7,
sequence,flow.Sequence,8_6,2023-11-20T18:12:12.094Z,,,,,,,,,,,4694.7300000238465,completion,,,,,,,low,high,,,,,,,false,,,,,true,525156.8000000119,525156.1000000238,520444.825,520661.60000002384,520461.37,524961.356,1,40,,
trial,html.Screen,8_7_0,2023-11-20T18:12:17.429Z,,,,2,-0.039520186367207,-0.0377961575607372,,0.04,false,hl,5529.744000023813,response,1.0887164761389951,1.198074384074745,-1.15,-1.5357518752548716,1.198074384074745,-1.15,high,low,,ISIC_6356149.JPG,,ISIC_0028127.JPG,28,26,false,0.41000000000000025,ll,keypress(f),0,true,530491.1000000238,530491.1000000238,524944.809,525157,524961.356,530294.682,1,40,8,
sequence,flow.Sequence,8_7,2023-11-20T18:12:17.429Z,,,,,,,,,,,5529.744000023813,completion,,,,,,,high,low,,,,,,,false,,,,,true,530491.3000000119,530491.1000000238,524944.809,525156.8000000119,524961.356,530294.682,1,40,,
trial,html.Screen,8_8_0,2023-11-20T18:12:20.343Z,,,,2,-0.0374659946425444,-0.0086043094957617,,0.04,false,hl,3109.5179999880493,response,0.8472024037189965,1.198074384074745,-1.15,-0.986370061404882,1.198074384074745,-1.15,high,low,,ISIC_0033051.JPG,,ISIC_0054355.JPG,28,26,false,0.41000000000000025,ll,keypress(f),0,true,533404.5,533404.1999999881,530278.029,530491.4000000358,530294.682,533211.616,1,40,9,
sequence,flow.Sequence,8_8,2023-11-20T18:12:20.343Z,,,,,,,,,,,3109.5179999880493,completion,,,,,,,high,low,,,,,,,false,,,,,true,533404.9000000358,533404.1999999881,530278.029,530491.3000000119,530294.682,533211.616,1,40,,
trial,html.Screen,8_9_0,2023-11-20T18:12:22.679Z,,,,2,0.0044063257337227,0.0172548282859886,,0.04,true,ll,2528.883999999962,response,-1.2033647433750492,1.198074384074745,-1.15,-1.0718012192341555,1.198074384074745,-1.1610609683298767,low,low,,ISIC_7413786.JPG,,ISIC_0061606.JPG,28,25,false,0.1,ll,keypress(f),0,true,535740.8000000119,535740.5,533194.832,533405.1000000238,533211.616,535544.722,1,40,10,
sequence,flow.Sequence,8_9,2023-11-20T18:12:22.679Z,,,,,,,,,,,2528.883999999962,completion,,,,,,,low,low,,,,,,,false,,,,,true,535741.1999999881,535740.5,533194.832,533405.1000000238,533211.616,535544.722,1,40,,
trial,html.Screen,8_10_0,2023-11-20T18:12:26.582Z,,,,2,0.0076984477620101,0.0069458408496562,,0.04,false,hh,4099.278000000049,response,1.2804054832904397,1.198074384074745,-1.15,1.171271535505083,1.198074384074745,-1.1610609683298767,high,high,,ISIC_0000434.JPG,,ISIC_7889838.JPG,28,25,false,0.14,hl,keypress(j),0,true,539644.3000000119,539644,535528.148,535741.4000000358,535544.722,539444.694,1,40,11,
sequence,flow.Sequence,8_10,2023-11-20T18:12:26.583Z,,,,,,,,,,,4099.278000000049,completion,,,,,,,high,high,,,,,,,false,,,,,true,539644.6999999881,539644,535528.148,535741.4000000358,535544.722,539444.694,1,40,,
trial,html.Screen,8_11_0,2023-11-20T18:12:35.063Z,,,,2,0.0283578106329894,-0.0088840758711548,,0.04,true,hh,8679.805999999982,response,1.0659165756604234,1.198074384074745,-1.15,1.0867497316848906,1.198074384074745,-1.1610609683298767,high,high,,ISIC_0060707.JPG,,ISIC_5807608.JPG,28,25,false,0.14,hh,keypress(i),0,true,548124.8000000119,548124.5,539428.096,539644.9000000358,539444.694,547928.101,1,40,12,
sequence,flow.Sequence,8_11,2023-11-20T18:12:35.063Z,,,,,,,,,,,8679.805999999982,completion,,,,,,,high,high,,,,,,,false,,,,,true,548125.1000000238,548124.5,539428.096,539644.9000000358,539444.694,547928.101,1,40,,
trial,html.Screen,8_12_0,2023-11-20T18:12:37.909Z,,,,2,0.0367744112927588,0.0324865661712824,,0.04,true,ll,3042.598999988055,response,-1.0605529903237636,1.026333153672657,-1.15,-1.1183115777058938,1.198074384074745,-1.1610609683298767,low,low,,ISIC_4523565.JPG,,ISIC_0011365.JPG,28,25,false,0.1,ll,keypress(f),0,true,550970.8000000119,550970.6999999881,547911.228,548125.3000000119,547928.101,550778.105,1,40,13,
sequence,flow.Sequence,8_12,2023-11-20T18:12:37.909Z,,,,,,,,,,,3042.598999988055,completion,,,,,,,low,low,,,,,,,false,,,,,true,550970.9000000358,550970.6999999881,547911.228,548125.3000000119,547928.101,550778.105,1,40,,
trial,html.Screen,8_13_0,2023-11-20T18:12:43.896Z,,,,2,-0.001445457736793,-0.0165307427449982,,0.04,true,hh,6179.094999988098,response,0.9057325824285034,1.026333153672657,-1.0999999999999999,1.240757191095736,1.198074384074745,-1.1110609683298767,high,high,,ISIC_0027350.JPG,,ISIC_0056689.JPG,28,26,false,0.13,hh,keypress(i),0,true,556957.4000000358,556957.1999999881,550761.29,550970.9000000358,550778.105,556761.224,1,40,14,
sequence,flow.Sequence,8_13,2023-11-20T18:12:43.896Z,,,,,,,,,,,6179.094999988098,completion,,,,,,,high,high,,,,,,,false,,,,,true,556957.8000000119,556957.1999999881,550761.29,550970.9000000358,550778.105,556761.224,1,40,,
trial,html.Screen,8_14_0,2023-11-20T18:12:46.470Z,,,,2,0.0220026381002083,-0.0170756452911772,,0.04,true,ll,2770.376000023796,response,-1.1195710731537871,1.026333153672657,-1.0999999999999999,-1.1961732733209125,1.0232448867621196,-1.1110609683298767,low,low,,ISIC_5347806.JPG,,ISIC_0067170.JPG,28,30,false,0.1,ll,keypress(f),0,true,559531.6999999881,559531.6000000238,556744.689,556958,556761.224,559327.93,1,40,15,
sequence,flow.Sequence,8_14,2023-11-20T18:12:46.470Z,,,,,,,,,,,2770.376000023796,completion,,,,,,,low,low,,,,,,,false,,,,,true,559531.8000000119,559531.6000000238,556744.689,556957.9000000358,556761.224,559327.93,1,40,,
trial,html.Screen,8_15_0,2023-11-20T18:12:49.430Z,,,,2,-0.0241900387072296,0.0339955304424736,,0.04,false,hl,3164.1700000237906,response,1.0329549150636406,1.026333153672657,-1.0999999999999999,-1.01584100839286,1.0232448867621196,-1.1110609683298767,high,low,,ISIC_0010789.JPG,,ISIC_0054670.JPG,28,27,false,0.3300000000000002,ll,keypress(f),0,true,562492.3000000119,562492.1000000238,559311.494,559531.9000000358,559327.93,562294.564,1,40,16,
sequence,flow.Sequence,8_15,2023-11-20T18:12:49.431Z,,,,,,,,,,,3164.1700000237906,completion,,,,,,,high,low,,,,,,,false,,,,,true,562492.6999999881,562492.1000000238,559311.494,559531.8000000119,559327.93,562294.564,1,40,,
trial,html.Screen,8_16_0,2023-11-20T18:12:57.958Z,,,,2,0.0283578106329894,-0.0088840758711548,,0.04,false,hl,8725.435999999987,response,1.0329549150636406,1.076333153672657,-1.0999999999999999,-1.01584100839286,1.0232448867621196,-1.056007140856886,high,low,,ISIC_0060707.JPG,,ISIC_0054670.JPG,28,25,false,0.3200000000000002,ll,keypress(f),0,true,571020.3000000119,571020,562277.847,562492.8000000119,562294.564,570827.904,1,40,17,
sequence,flow.Sequence,8_16,2023-11-20T18:12:57.959Z,,,,,,,,,,,8725.435999999987,completion,,,,,,,high,low,,,,,,,false,,,,,true,571020.6000000238,571020,562277.847,562492.8000000119,562294.564,570827.904,1,40,,
trial,html.Screen,8_17_0,2023-11-20T18:13:01.782Z,,,,2,0.0257631352671967,0.0202837002774028,,0.04,false,lh,4016.1960000238614,response,-0.9662688541319592,1.126333153672657,-1.0999999999999999,0.929746784178986,1.0232448867621196,-1.056007140856886,low,high,,ISIC_0032797.JPG,,ISIC_0011077.JPG,28,25,false,0.2500000000000001,ll,keypress(f),0,true,574844.3000000119,574844.1000000238,570811.239,571020.8000000119,570827.904,574644.562,1,40,18,
sequence,flow.Sequence,8_17,2023-11-20T18:13:01.783Z,,,,,,,,,,,4016.1960000238614,completion,,,,,,,low,high,,,,,,,false,,,,,true,574844.6999999881,574844.1000000238,570811.239,571020.6999999881,570827.904,574644.562,1,40,,
trial,html.Screen,8_18_0,2023-11-20T18:13:03.535Z,,,,2,0.0258224118104549,-0.0029364553353019,,0.04,true,ll,1951.5380000238074,response,-0.944391889009556,1.126333153672657,-0.9410549312624095,-1.0361692964751965,1.0732448867621196,-1.056007140856886,low,low,,ISIC_8325226.JPG,,ISIC_0058676.JPG,28,32,false,0.1,ll,keypress(f),0,true,576596.4000000358,576596.1000000238,574627.82,574844.8000000119,574644.562,576394.542,1,40,19,
sequence,flow.Sequence,8_18,2023-11-20T18:13:03.535Z,,,,,,,,,,,1951.5380000238074,completion,,,,,,,low,low,,,,,,,false,,,,,true,576596.8000000119,576596.1000000238,574627.82,574844.8000000119,574644.562,576394.542,1,40,,
trial,html.Screen,8_19_0,2023-11-20T18:13:06.861Z,,,,2,-0.0109416414475118,-0.005246498750811,,0.04,true,hh,3527.957999999984,response,1.1450360947247324,1.126333153672657,-0.9410549312624095,0.9543756979111568,1.0732448867621196,-0.9402805927423762,high,high,,ISIC_0064279.JPG,,ISIC_1234463.JPG,28,28,false,0.12,hh,keypress(i),0,true,579922.6000000238,579922.5,576378.037,576596.9000000358,576394.542,579727.91,1,40,20,
sequence,flow.Sequence,8_19,2023-11-20T18:13:06.861Z,,,,,,,,,,,3527.957999999984,completion,,,,,,,high,high,,,,,,,false,,,,,true,579922.6999999881,579922.5,576378.037,576596.9000000358,576394.542,579727.91,1,40,,
trial,html.Screen,8_20_0,2023-11-20T18:13:11.623Z,,,,2,0.0367706518941078,-0.0161069838272154,,0.04,true,ll,4956.690000023809,response,-0.9914647862586572,1.126333153672657,-0.9410549312624095,-0.8837963869804757,1.0732448867621196,-0.9402805927423762,low,low,,ISIC_0033419.JPG,,ISIC_0068895.JPG,28,45,false,0.1,ll,keypress(f),0,true,584684.8000000119,584684.6000000238,579711.351,579922.6999999881,579727.91,584477.919,1,40,21,
sequence,flow.Sequence,8_20,2023-11-20T18:13:11.623Z,,,,,,,,,,,4956.690000023809,completion,,,,,,,low,low,,,,,,,false,,,,,true,584685.3000000119,584684.6000000238,579711.351,579922.6999999881,579727.91,584477.919,1,40,,
trial,html.Screen,8_21_0,2023-11-20T18:13:13.750Z,,,,2,-0.0388181790775959,0.0049623405709465,,0.04,true,ll,2333.3810000119265,response,-0.7908195179596742,1.126333153672657,-0.8876305866195664,-0.846286768918253,1.0732448867621196,-0.9402805927423762,low,low,,ISIC_0061880.JPG,,ISIC_0033843.JPG,28,48,false,0.1,ll,keypress(f),0,true,586811.4000000358,586811.3000000119,584461.332,584685.5,584477.919,586611.204,1,40,22,
sequence,flow.Sequence,8_21,2023-11-20T18:13:13.750Z,,,,,,,,,,,2333.3810000119265,completion,,,,,,,low,low,,,,,,,false,,,,,true,586811.6000000238,586811.3000000119,584461.332,584685.5,584477.919,586611.204,1,40,,
trial,html.Screen,8_22_0,2023-11-20T18:13:16.286Z,,,,2,0.0119001144851157,-0.0063430114540141,,0.04,false,hl,2736.596000011894,response,0.9653573371180936,1.126333153672657,-0.8876305866195664,-0.854766800381037,1.0732448867621196,-0.7685531434389636,high,low,,ISIC_0003822.JPG,,ISIC_9640145.JPG,28,25,false,0.21000000000000008,ll,keypress(f),0,true,589348.1000000238,589347.8000000119,586594.718,586811.6000000238,586611.204,589144.513,1,40,23,
sequence,flow.Sequence,8_22,2023-11-20T18:13:16.287Z,,,,,,,,,,,2736.596000011894,completion,,,,,,,high,low,,,,,,,false,,,,,true,589348.4000000358,589347.8000000119,586594.718,586811.6000000238,586611.204,589144.513,1,40,,
trial,html.Screen,8_23_0,2023-11-20T18:13:19.031Z,,,,2,0.0119001144851157,-0.0063430114540141,,0.04,true,lh,2947.8870000357274,response,-0.6709937791656728,1.1763331536726571,-0.8876305866195664,1.0908783428179298,1.0732448867621196,-0.7685531434389636,low,high,,ISIC_0003822.JPG,,ISIC_0028903.JPG,28,27,false,0.22000000000000008,lh,keypress(e),0,true,592092.6999999881,592092.4000000358,589127.788,589348.6999999881,589144.513,591894.609,1,40,24,
sequence,flow.Sequence,8_23,2023-11-20T18:13:19.032Z,,,,,,,,,,,2947.8870000357274,completion,,,,,,,low,high,,,,,,,false,,,,,true,592093.1000000238,592092.4000000358,589127.788,589348.5,589144.513,591894.609,1,40,,
trial,html.Screen,8_24_0,2023-11-20T18:13:21.695Z,,,,2,-0.0074667911845194,0.018500200317654,,0.04,true,ll,2861.590999988024,response,-0.9069076630783806,1.1763331536726571,-0.8376305866195664,-0.849461654555185,1.0232448867621196,-0.7685531434389636,low,low,,ISIC_0058723.JPG,,ISIC_0054527.JPG,28,45,false,0.1,ll,keypress(f),0,true,594756.5,594756.1999999881,591878.026,592093.3000000119,591894.609,594561.424,1,40,25,
sequence,flow.Sequence,8_24,2023-11-20T18:13:21.696Z,,,,,,,,,,,2861.590999988024,completion,,,,,,,low,low,,,,,,,false,,,,,true,594757,594756.1999999881,591878.026,592093.1999999881,591894.609,594561.424,1,40,,
trial,html.Screen,8_25_0,2023-11-20T18:13:27.070Z,,,,2,-0.0109416414475118,-0.005246498750811,,0.04,false,hh,5569.376000011922,response,1.29013738782944,1.1763331536726571,-0.8376305866195664,0.9319185001122136,1.0232448867621196,-0.8281846588167827,high,high,,ISIC_0064279.JPG,,ISIC_8607090.JPG,28,26,false,0.13,hl,keypress(j),0,true,600130.9000000358,600130.8000000119,594544.707,594757.1999999881,594561.424,599927.839,1,40,26,
sequence,flow.Sequence,8_25,2023-11-20T18:13:27.070Z,,,,,,,,,,,5569.376000011922,completion,,,,,,,high,high,,,,,,,false,,,,,true,600131,600130.8000000119,594544.707,594757.1000000238,594561.424,599927.839,1,40,,
trial,html.Screen,8_26_0,2023-11-20T18:13:29.967Z,,,,2,-0.0074667911845194,0.018500200317654,,0.04,true,hl,3100.0610000357265,response,1.3046390428588206,1.1763331536726571,-0.8376305866195664,-0.7942099232219556,1.0732448867621196,-0.8281846588167827,high,low,,ISIC_0058723.JPG,,ISIC_0013096.JPG,28,25,false,0.2600000000000001,hl,keypress(j),0,true,603028.1999999881,603027.9000000358,599911.18,600131.1000000238,599927.839,602827.874,1,40,27,
sequence,flow.Sequence,8_26,2023-11-20T18:13:29.967Z,,,,,,,,,,,3100.0610000357265,completion,,,,,,,high,low,,,,,,,false,,,,,true,603028.6999999881,603027.9000000358,599911.18,600131.1000000238,599927.839,602827.874,1,40,,
trial,html.Screen,8_27_0,2023-11-20T18:13:32.343Z,,,,2,-0.039520186367207,-0.0377961575607372,,0.04,true,hh,2576.1260000000475,response,1.1441960791049337,1.126333153672657,-0.8376305866195664,1.0156321899655198,1.0732448867621196,-0.8281846588167827,high,high,,ISIC_6356149.JPG,,ISIC_4023381.JPG,28,28,false,0.12,hh,keypress(i),0,true,605404.1999999881,605404,602811.309,603028.9000000358,602827.874,605211.18,1,40,28,
sequence,flow.Sequence,8_27,2023-11-20T18:13:32.343Z,,,,,,,,,,,2576.1260000000475,completion,,,,,,,high,high,,,,,,,false,,,,,true,605404.6000000238,605404,602811.309,603028.9000000358,602827.874,605211.18,1,40,,
trial,html.Screen,8_28_0,2023-11-20T18:13:34.222Z,,,,2,-0.0388181790775959,0.0049623405709465,,0.04,false,hl,2071.519999988028,response,1.0794043929240107,1.126333153672657,-0.8376305866195664,-0.6422352972056817,1.0732448867621196,-0.8281846588167827,high,low,,ISIC_0061880.JPG,,ISIC_2106823.JPG,28,25,false,0.2400000000000001,hh,keypress(i),0,true,607282.8000000119,607282.6999999881,605194.649,605404.8000000119,605211.18,607077.8,1,40,29,
sequence,flow.Sequence,8_28,2023-11-20T18:13:34.222Z,,,,,,,,,,,2071.519999988028,completion,,,,,,,high,low,,,,,,,false,,,,,true,607283,607282.6999999881,605194.649,605404.6999999881,605211.18,607077.8,1,40,,
trial,html.Screen,8_29_0,2023-11-20T18:13:36.463Z,,,,2,0,-0.0102871556606504,,0.04,true,hh,2446.5000000118744,response,0.9362962536620838,0.9975182914447653,-0.8376305866195664,1.1317411618506656,1.0732448867621196,-0.8781846588167828,high,high,,ISIC_1805163.JPG,,ISIC_3691320.JPG,28,29,false,0.11,hh,keypress(i),0,true,609524.5,609524.3000000119,607061.381,607283,607077.8,609327.78,1,40,30,
sequence,flow.Sequence,8_29,2023-11-20T18:13:36.464Z,,,,,,,,,,,2446.5000000118744,completion,,,,,,,high,high,,,,,,,false,,,,,true,609524.8000000119,609524.3000000119,607061.381,607283,607077.8,609327.78,1,40,,
trial,html.Screen,8_30_0,2023-11-20T18:13:40.023Z,,,,2,0.0283578106329894,-0.0088840758711548,,0.04,false,lh,3756.820000023814,response,-0.7271544837339796,0.9975182914447653,-0.8376305866195664,0.9127368834814228,0.9840187077563747,-0.8781846588167828,low,high,,ISIC_0060707.JPG,,ISIC_4129321.JPG,28,25,false,0.17000000000000004,hh,keypress(i),0,true,613084.6999999881,613084.6000000238,609311.082,609525,609327.78,612877.754,1,40,31,
sequence,flow.Sequence,8_30,2023-11-20T18:13:40.024Z,,,,,,,,,,,3756.820000023814,completion,,,,,,,low,high,,,,,,,false,,,,,true,613084.6999999881,613084.6000000238,609311.082,609525,609327.78,612877.754,1,40,,
trial,html.Screen,8_31_0,2023-11-20T18:13:42.328Z,,,,2,0.0076984477620101,0.0069458408496562,,0.04,false,lh,2511.0460000119638,response,-0.7856143618373893,0.9975182914447653,-0.8876305866195664,1.0273608829432213,0.9840187077563747,-0.8781846588167828,low,high,,ISIC_0000434.JPG,,ISIC_9303849.JPG,28,26,false,0.19000000000000006,hl,keypress(j),0,true,615389.1000000238,615388.8000000119,612861.249,613084.8000000119,612877.754,615194.688,1,40,32,
sequence,flow.Sequence,8_31,2023-11-20T18:13:42.328Z,,,,,,,,,,,2511.0460000119638,completion,,,,,,,low,high,,,,,,,false,,,,,true,615389.6000000238,615388.8000000119,612861.249,613084.8000000119,612877.754,615194.688,1,40,,
trial,html.Screen,8_32_0,2023-11-20T18:13:44.526Z,,,,2,0.0200295718112167,0.0155559071275806,,0.04,true,hl,2392.6120000119554,response,0.84290786638064,0.9975182914447653,-0.9376305866195664,-0.7332521189371746,1.0340187077563747,-0.8781846588167828,high,low,,ISIC_0061343.JPG,,ISIC_4708642.JPG,28,31,false,0.21000000000000008,hl,keypress(j),0,true,617587.4000000358,617587.3000000119,615177.947,615389.6999999881,615194.688,617394.508,1,40,33,
sequence,flow.Sequence,8_32,2023-11-20T18:13:44.526Z,,,,,,,,,,,2392.6120000119554,completion,,,,,,,high,low,,,,,,,false,,,,,true,617587.5,617587.3000000119,615177.947,615389.6000000238,615194.688,617394.508,1,40,,
trial,html.Screen,8_33_0,2023-11-20T18:13:47.255Z,,,,2,0.0367744112927588,0.0324865661712824,,0.04,false,lh,2921.79200001189,response,-0.8067116931297591,0.9475182914447653,-0.9376305866195664,1.215898074058027,1.0340187077563747,-0.8781846588167828,low,high,,ISIC_4523565.JPG,,ISIC_1457687.JPG,28,25,false,0.22000000000000008,hl,keypress(j),0,true,620316.6000000238,620316.3000000119,617377.881,617587.5,617394.508,620111.153,1,40,34,
sequence,flow.Sequence,8_33,2023-11-20T18:13:47.256Z,,,,,,,,,,,2921.79200001189,completion,,,,,,,low,high,,,,,,,false,,,,,true,620317,620316.3000000119,617377.881,617587.5,617394.508,620111.153,1,40,,
trial,html.Screen,8_34_0,2023-11-20T18:13:50.728Z,,,,2,0.0286056110007553,0.036125199756515,,0.04,true,ll,3677.7470000357134,response,-0.9506660770270554,0.9475182914447653,-0.9876305866195665,-0.8543483016673109,1.0840187077563748,-0.8781846588167828,low,low,,ISIC_6535558.JPG,,ISIC_0053469.JPG,28,38,false,0.1,ll,keypress(f),0,true,623789.1999999881,623788.9000000358,620094.591,620317.1999999881,620111.153,623594.424,1,40,35,
sequence,flow.Sequence,8_34,2023-11-20T18:13:50.728Z,,,,,,,,,,,3677.7470000357134,completion,,,,,,,low,low,,,,,,,false,,,,,true,623789.6000000238,623788.9000000358,620094.591,620317.1000000238,620111.153,623594.424,1,40,,
trial,html.Screen,8_35_0,2023-11-20T18:13:55.663Z,,,,2,-0.0374659946425444,-0.0086043094957617,,0.04,true,hl,5129.77599998808,response,0.8954803463300026,0.9475182914447653,-0.9876305866195665,-0.7071819047913821,1.0840187077563748,-0.8525071893471832,high,low,,ISIC_0033051.JPG,,ISIC_0033071.JPG,28,25,false,0.19000000000000006,hl,keypress(j),0,true,628724.4000000358,628724.1999999881,623577.9,623789.6999999881,623594.424,628527.735,1,40,36,
sequence,flow.Sequence,8_35,2023-11-20T18:13:55.664Z,,,,,,,,,,,5129.77599998808,completion,,,,,,,high,low,,,,,,,false,,,,,true,628724.9000000358,628724.1999999881,623577.9,623789.6000000238,623594.424,628527.735,1,40,,
trial,html.Screen,8_36_0,2023-11-20T18:14:03.039Z,,,,2,0.0009714874637896,-0.0174815595031679,,0.04,false,lh,7571.865000023856,response,-0.7872534775441857,0.9475182914447653,-0.9876305866195665,0.8441107693833454,1.0840187077563748,-0.8525071893471832,low,high,,ISIC_9848743.JPG,,ISIC_0028788.JPG,28,25,false,0.2500000000000001,hl,keypress(j),0,true,636099.9000000358,636099.6000000238,628511.098,628725.1000000238,628527.735,635894.458,1,40,37,
sequence,flow.Sequence,8_36,2023-11-20T18:14:03.039Z,,,,,,,,,,,7571.865000023856,completion,,,,,,,low,high,,,,,,,false,,,,,true,636100.3000000119,636099.6000000238,628511.098,628724.9000000358,628527.735,635894.458,1,40,,
trial,html.Screen,8_37_0,2023-11-20T18:14:05.231Z,,,,2,-0.0164027439304477,0.0082910758715273,,0.04,false,ll,2397.3420000119368,response,-0.9914647862586572,0.9475182914447653,-1.0376305866195665,-0.8837963869804757,1.1340187077563748,-0.8525071893471832,low,low,,ISIC_7381224.JPG,,ISIC_0068895.JPG,28,36,false,0.1,hl,keypress(j),0,true,638292.1000000238,638291.8000000119,635877.594,636100.4000000358,635894.458,638094.384,1,40,38,
sequence,flow.Sequence,8_37,2023-11-20T18:14:05.231Z,,,,,,,,,,,2397.3420000119368,completion,,,,,,,low,low,,,,,,,false,,,,,true,638292.5,638291.8000000119,635877.594,636100.4000000358,635894.458,638094.384,1,40,,
trial,html.Screen,8_38_0,2023-11-20T18:14:09.949Z,,,,2,0.0258224118104549,-0.0029364553353019,,0.04,false,lh,4915.71600002388,response,-1.045301444872812,0.9475182914447653,-1.0876305866195666,1.0872560254441277,1.1340187077563748,-0.7454891458859288,low,high,,ISIC_8325226.JPG,,ISIC_4507700.JPG,28,28,false,0.3200000000000002,ll,keypress(f),0,true,643010.1999999881,643010.1000000238,638077.865,638292.6999999881,638094.384,642811.006,1,40,39,
sequence,flow.Sequence,8_38,2023-11-20T18:14:09.949Z,,,,,,,,,,,4915.71600002388,completion,,,,,,,low,high,,,,,,,false,,,,,true,643010.4000000358,643010.1000000238,638077.865,638292.6999999881,638094.384,642811.006,1,40,,
trial,html.Screen,8_39_0,2023-11-20T18:14:12.975Z,,,,2,0.0076984477620101,0.0069458408496562,,0.04,false,lh,3224.693999988027,response,-0.8544507134472948,0.9475182914447653,-1.0876305866195666,0.9244388608707323,1.1840187077563749,-0.7454891458859288,low,high,,ISIC_0000434.JPG,,ISIC_3565564.JPG,28,25,false,0.3400000000000002,ll,keypress(f),0,true,646036,646035.6999999881,642794.494,643010.5,642811.006,645844.618,1,40,40,
sequence,flow.Sequence,8_39,2023-11-20T18:14:12.975Z,,,,,,,,,,,3224.693999988027,completion,,,,,,,low,high,,,,,,,false,,,,,true,646036.4000000358,646035.6999999881,642794.494,643010.4000000358,642811.006,645844.618,1,40,,
stair_loop,flow.Loop,8,2023-11-20T18:14:12.975Z,,,,,,,,,,,155807.56099998805,completion,,,,,,,,,,,,,,,false,,,,,true,646036.5,646035.6999999881,490211.451,490418.3000000119,490228.139,645844.618,1,40,,
exp_instructions,html.Screen,9,2023-11-20T18:14:26.518Z,,,,,,,,,,,13734.682000011904,response,,,,,,,,,,,,,,,,,continue,keypress(Space),,,659579.5,659579.3000000119,645827.65,646036.6999999881,645844.618,659377.665,,,,
trial,html.Screen,10_0_0,2023-11-20T18:14:31.309Z,,,,1,0.0220026381002083,-0.0170756452911772,,0.04,true,hh,4992.635000011884,response,0.9798314852960236,1.0479849794473166,-0.9203018038517087,1.167024525807191,1.0686317972592474,-0.8408283531891441,high,high,,ISIC_5347806.JPG,9,ISIC_4341261.JPG,28,25,false,0.1,hh,keypress(i),0,false,664370.4000000358,664370.3000000119,659360.736,659579.6000000238,659377.665,664177.913,5,600,1,
break,html.Screen,10_0_1,2023-11-20T18:14:31.309Z,,,,,,,,,,,NaN,,,,,,,,high,high,,,,,,,false,,,,,false,664370.8000000119,664370.6999999881,,664370.5,,664177.913,5,600,,
break_continue,html.Screen,10_0_2,2023-11-20T18:14:31.310Z,,,,,,,,,,,NaN,,,,,,,,high,high,,,,,,,false,,,,,false,664371.1000000238,664371,,664370.8000000119,,664177.913,5,600,,
sequence,flow.Sequence,10_0,2023-11-20T18:14:31.310Z,,,,,,,,,,,4993.334999999963,completion,,,,,,,high,high,,,,,,,false,,,,,false,664371.1000000238,664371,659360.736,659579.6000000238,659377.665,664177.913,5,600,,
trial,html.Screen,10_1_0,2023-11-20T18:14:33.335Z,,,,1,0,-0.0102871556606504,,0.04,true,hh,2218.1870000238996,response,0.9798314852960236,1.0479849794473166,-0.9203018038517087,1.167024525807191,1.0686317972592474,-0.8408283531891441,high,high,,ISIC_1805163.JPG,9,ISIC_4341261.JPG,28,25,false,0.1,hh,keypress(i),0,false,666396.5,666396.1000000238,664161.088,664371.3000000119,664177.913,666194.304,5,600,2,
break,html.Screen,10_1_1,2023-11-20T18:14:33.336Z,,,,,,,,,,,NaN,,,,,,,,high,high,,,,,,,false,,,,,false,666397.6000000238,666397.3000000119,,666396.8000000119,,666194.304,5,600,,
break_continue,html.Screen,10_1_2,2023-11-20T18:14:33.337Z,,,,,,,,,,,NaN,,,,,,,,high,high,,,,,,,false,,,,,false,666398.4000000358,666398.1000000238,,666397.9000000358,,666194.304,5,600,,
sequence,flow.Sequence,10_1,2023-11-20T18:14:33.337Z,,,,,,,,,,,2220.1870000238996,completion,,,,,,,high,high,,,,,,,false,,,,,false,666398.6999999881,666398.1000000238,664161.088,664371.1999999881,664177.913,666194.304,5,600,,
trial,html.Screen,10_2_0,2023-11-20T18:14:36.224Z,,,,1,-0.001445457736793,-0.0165307427449982,,0.04,false,lh,3090.3959999880753,response,-0.7856143618373893,1.0479849794473166,-0.9203018038517087,1.0273608829432213,1.0686317972592474,-0.8408283531891441,low,high,,ISIC_0027350.JPG,8,ISIC_9303849.JPG,28,25,false,0.2300000000000001,hh,keypress(i),0,false,669285,669284.6999999881,666177.888,666398.9000000358,666194.304,669077.697,5,600,3,
break,html.Screen,10_2_1,2023-11-20T18:14:36.225Z,,,,,,,,,,,NaN,,,,,,,,low,high,,,,,,,false,,,,,false,669286.1000000238,669285.6999999881,,669285.3000000119,,669077.697,5,600,,
break_continue,html.Screen,10_2_2,2023-11-20T18:14:36.225Z,,,,,,,,,,,NaN,,,,,,,,low,high,,,,,,,false,,,,,false,669286.6999999881,669286.4000000358,,669286.1999999881,,669077.697,5,600,,
sequence,flow.Sequence,10_2,2023-11-20T18:14:36.226Z,,,,,,,,,,,3092.096000035759,completion,,,,,,,low,high,,,,,,,false,,,,,false,669286.8000000119,669286.4000000358,666177.888,666398.8000000119,666194.304,669077.697,5,600,,
trial,html.Screen,10_3_0,2023-11-20T18:14:39.685Z,,,,1,0.0257631352671967,0.0202837002774028,,0.04,false,ll,3668.903000023798,response,-1.013670467344924,1.0479849794473166,-0.9203018038517087,-0.8383919586371591,1.0686317972592474,-0.8408283531891441,low,low,,ISIC_0032797.JPG,9,ISIC_0014541.JPG,28,41,false,0.1,hl,keypress(j),0,false,672746.6000000238,672746.6000000238,669061.053,669287.1000000238,669077.697,672544.292,5,600,4,
break,html.Screen,10_3_1,2023-11-20T18:14:39.686Z,,,,,,,,,,,NaN,,,,,,,,low,low,,,,,,,false,,,,,false,672746.9000000358,672746.9000000358,,672746.6999999881,,672544.292,5,600,,
break_continue,html.Screen,10_3_2,2023-11-20T18:14:39.686Z,,,,,,,,,,,NaN,,,,,,,,low,low,,,,,,,false,,,,,false,672747.1999999881,672747.1000000238,,672747,,672544.292,5,600,,
sequence,flow.Sequence,10_3,2023-11-20T18:14:39.686Z,,,,,,,,,,,3669.403000023798,completion,,,,,,,low,low,,,,,,,false,,,,,false,672747.1999999881,672747.1000000238,669061.053,669287,669077.697,672544.292,5,600,,
trial,html.Screen,10_4_0,2023-11-20T18:14:42.712Z,,,,1,-0.0388334549081915,0.0303399972963369,,0.04,false,lh,3228.4079999880632,response,-1.045301444872812,1.0479849794473166,-0.9203018038517087,1.0872560254441277,1.0686317972592474,-0.8408283531891441,low,high,,ISIC_4961708.JPG,8,ISIC_4507700.JPG,28,25,false,0.2300000000000001,ll,keypress(f),0,false,675772.9000000358,675772.6999999881,672527.758,672747.3000000119,672544.292,675577.886,5,600,5,
break,html.Screen,10_4_1,2023-11-20T18:14:42.713Z,,,,,,,,,,,NaN,,,,,,,,low,high,,,,,,,false,,,,,false,675773.9000000358,675773.8000000119,,675773.3000000119,,675577.886,5,600,,
break_continue,html.Screen,10_4_2,2023-11-20T18:14:42.713Z,,,,,,,,,,,NaN,,,,,,,,low,high,,,,,,,false,,,,,false,675774.6000000238,675774.3000000119,,675774.1000000238,,675577.886,5,600,,
sequence,flow.Sequence,10_4,2023-11-20T18:14:42.714Z,,,,,,,,,,,3230.008000011905,completion,,,,,,,low,high,,,,,,,false,,,,,false,675774.9000000358,675774.3000000119,672527.758,672747.1999999881,672544.292,675577.886,5,600,,
trial,html.Screen,10_5_0,2023-11-20T18:14:44.871Z,,,,1,0.0044063257337227,0.0172548282859886,,0.04,true,ll,2353.914000011864,response,-0.9141489890697224,1.0479849794473166,-0.9203018038517087,-0.8021439579962121,1.0686317972592474,-0.8408283531891441,low,low,,ISIC_7413786.JPG,9,ISIC_0025491.JPG,28,41,false,0.1,ll,keypress(f),0,false,677932,677931.8000000119,675561.057,675775,675577.886,677727.61,5,600,6,
break,html.Screen,10_5_1,2023-11-20T18:14:44.872Z,,,,,,,,,,,NaN,,,,,,,,low,low,,,,,,,false,,,,,false,677933,677932.6999999881,,677932.4000000358,,677727.61,5,600,,
break_continue,html.Screen,10_5_2,2023-11-20T18:14:44.872Z,,,,,,,,,,,NaN,,,,,,,,low,low,,,,,,,false,,,,,false,677933.8000000119,677933.4000000358,,677933.1999999881,,677727.61,5,600,,
sequence,flow.Sequence,10_5,2023-11-20T18:14:44.873Z,,,,,,,,,,,2355.514000035706,completion,,,,,,,low,low,,,,,,,false,,,,,false,677934,677933.4000000358,675561.057,675775,675577.886,677727.61,5,600,,
trial,html.Screen,10_6_0,2023-11-20T18:14:49.559Z,,,,1,-0.0198696495649504,0.0387952353063878,,0.04,true,hl,4892.790000035777,response,1.0770264364718942,1.0479849794473166,-0.9203018038517087,-0.6713089190292955,1.0686317972592474,-0.8408283531891441,high,low,,ISIC_6735970.JPG,9,ISIC_6093728.JPG,28,26,false,0.20000000000000007,hl,keypress(j),0,false,682620.6000000238,682620.4000000358,677710.89,677934.1999999881,677727.61,682427.664,5,600,7,
break,html.Screen,10_6_1,2023-11-20T18:14:49.560Z,,,,,,,,,,,NaN,,,,,,,,high,low,,,,,,,false,,,,,false,682621.6000000238,682621.3000000119,,682620.9000000358,,682427.664,5,600,,
break_continue,html.Screen,10_6_2,2023-11-20T18:14:49.561Z,,,,,,,,,,,NaN,,,,,,,,high,low,,,,,,,false,,,,,false,682622.1999999881,682621.9000000358,,682621.6999999881,,682427.664,5,600,,
sequence,flow.Sequence,10_6,2023-11-20T18:14:49.561Z,,,,,,,,,,,4894.290000035777,completion,,,,,,,high,low,,,,,,,false,,,,,false,682622.4000000358,682621.9000000358,677710.89,677934.1999999881,677727.61,682427.664,5,600,,
trial,html.Screen,10_7_0,2023-11-20T18:14:53.880Z,,,,1,0.0283578106329894,-0.0088840758711548,,0.04,true,lh,4513.136000011931,response,-0.7714570894008278,1.0479849794473166,-0.9203018038517087,0.9113656554657036,1.0686317972592474,-0.8408283531891441,low,high,,ISIC_0060707.JPG,9,ISIC_4529092.JPG,28,25,false,0.2300000000000001,lh,keypress(e),0,false,686941,686940.8000000119,682410.949,682622.5,682427.664,686744.231,5,600,8,
break,html.Screen,10_7_1,2023-11-20T18:14:53.881Z,,,,,,,,,,,NaN,,,,,,,,low,high,,,,,,,false,,,,,false,686941.9000000358,686941.8000000119,,686941.3000000119,,686744.231,5,600,,
break_continue,html.Screen,10_7_2,2023-11-20T18:14:53.881Z,,,,,,,,,,,NaN,,,,,,,,low,high,,,,,,,false,,,,,false,686942.6000000238,686942.3000000119,,686942.1000000238,,686744.231,5,600,,
sequence,flow.Sequence,10_7,2023-11-20T18:14:53.881Z,,,,,,,,,,,4514.636000011931,completion,,,,,,,low,high,,,,,,,false,,,,,false,686942.8000000119,686942.3000000119,682410.949,682622.5,682427.664,686744.231,5,600,,
trial,html.Screen,10_8_0,2023-11-20T18:14:57.159Z,,,,1,-0.0074667911845194,0.018500200317654,,0.04,true,lh,3475.96899998805,response,-1.0788024398087033,1.0479849794473166,-0.9203018038517087,0.9911875460374616,1.0686317972592474,-0.8408283531891441,low,high,,ISIC_0058723.JPG,9,ISIC_5951430.JPG,28,25,false,0.2300000000000001,lh,keypress(e),0,false,690220.5,690220.1999999881,686727.778,686942.9000000358,686744.231,690027.605,5,600,9,
break,html.Screen,10_8_1,2023-11-20T18:14:57.160Z,,,,,,,,,,,NaN,,,,,,,,low,high,,,,,,,false,,,,,false,690221.4000000358,690221.1000000238,,690220.6999999881,,690027.605,5,600,,
break_continue,html.Screen,10_8_2,2023-11-20T18:14:57.161Z,,,,,,,,,,,NaN,,,,,,,,low,high,,,,,,,false,,,,,false,690222.1000000238,690221.8000000119,,690221.6000000238,,690027.605,5,600,,
sequence,flow.Sequence,10_8,2023-11-20T18:14:57.161Z,,,,,,,,,,,3477.569000011892,completion,,,,,,,low,high,,,,,,,false,,,,,false,690222.3000000119,690221.8000000119,686727.778,686942.9000000358,686744.231,690027.605,5,600,,
trial,html.Screen,10_9_0,2023-11-20T18:14:59.773Z,,,,1,0.0308384937406319,-0.0038396364323947,,0.04,false,hl,2807.0949999880977,response,0.8830264383952469,1.0479849794473166,-0.9203018038517087,-0.8635562538060516,1.0686317972592474,-0.8408283531891441,high,low,,ISIC_0029825.JPG,9,ISIC_0032258.JPG,28,26,false,0.20000000000000007,ll,keypress(f),0,false,692834.8000000119,692834.6999999881,690010.954,690222.5,690027.605,692627.517,5,600,10,
break,html.Screen,10_9_1,2023-11-20T18:14:59.774Z,,,,,,,,,,,NaN,,,,,,,,high,low,,,,,,,false,,,,,false,692835.1000000238,692835,,692834.9000000358,,692627.517,5,600,,
break_continue,html.Screen,10_9_2,2023-11-20T18:14:59.774Z,,,,,,,,,,,NaN,,,,,,,,high,low,,,,,,,false,,,,,false,692835.1999999881,692835.1000000238,,692835.1000000238,,692627.517,5,600,,
sequence,flow.Sequence,10_9,2023-11-20T18:14:59.774Z,,,,,,,,,,,2807.4950000238605,completion,,,,,,,high,low,,,,,,,false,,,,,false,692835.4000000358,692835.1000000238,690010.954,690222.4000000358,690027.605,692627.517,5,600,,
trial,html.Screen,10_10_0,2023-11-20T18:15:03.591Z,,,,1,-0.0109416414475118,-0.005246498750811,,0.04,true,hl,4024.1829999880865,response,0.8493817247965978,1.0479849794473166,-0.9203018038517087,-0.6545324227286122,1.0686317972592474,-0.8408283531891441,high,low,,ISIC_0064279.JPG,10,ISIC_0030219.JPG,28,26,false,0.20000000000000007,hl,keypress(j),0,false,696651.9000000358,696651.6999999881,692610.974,692835.4000000358,692627.517,696461.476,5,600,11,
break,html.Screen,10_10_1,2023-11-20T18:15:03.592Z,,,,,,,,,,,NaN,,,,,,,,high,low,,,,,,,false,,,,,false,696652.9000000358,696652.6999999881,,696652.3000000119,,696461.476,5,600,,
break_continue,html.Screen,10_10_2,2023-11-20T18:15:03.592Z,,,,,,,,,,,NaN,,,,,,,,high,low,,,,,,,false,,,,,false,696653.5,696653.3000000119,,696653,,696461.476,5,600,,
sequence,flow.Sequence,10_10,2023-11-20T18:15:03.592Z,,,,,,,,,,,4025.7830000119284,completion,,,,,,,high,low,,,,,,,false,,,,,false,696653.8000000119,696653.3000000119,692610.974,692835.4000000358,692627.517,696461.476,5,600,,
trial,html.Screen,10_11_0,2023-11-20T18:15:05.863Z,,,,1,0.0257631352671967,0.0202837002774028,,0.04,true,hl,2462.723999988055,response,0.8954803463300026,1.0479849794473166,-0.9203018038517087,-0.7071819047913821,1.0686317972592474,-0.8408283531891441,high,low,,ISIC_0032797.JPG,8,ISIC_0033071.JPG,28,26,false,0.20000000000000007,hl,keypress(j),0,false,698924.5,698924.1999999881,696427.691,696654,696461.476,698727.509,5,600,12,
break,html.Screen,10_11_1,2023-11-20T18:15:05.864Z,,,,,,,,,,,NaN,,,,,,,,high,low,,,,,,,false,,,,,false,698925.5,698925.3000000119,,698924.9000000358,,698727.509,5,600,,
break_continue,html.Screen,10_11_2,2023-11-20T18:15:05.865Z,,,,,,,,,,,NaN,,,,,,,,high,low,,,,,,,false,,,,,false,698926.1999999881,698925.9000000358,,698925.6000000238,,698727.509,5,600,,
sequence,flow.Sequence,10_11,2023-11-20T18:15:05.865Z,,,,,,,,,,,2464.4240000357386,completion,,,,,,,high,low,,,,,,,false,,,,,false,698926.3000000119,698925.9000000358,696427.691,696654,696461.476,698727.509,5,600,,
trial,html.Screen,10_12_0,2023-11-20T18:15:10.237Z,,,,1,-0.0388334549081915,0.0303399972963369,,0.04,false,lh,4570.690999988117,response,-0.8544507134472948,1.0479849794473166,-0.9203018038517087,0.9244388608707323,1.0686317972592474,-0.8408283531891441,low,high,,ISIC_4961708.JPG,9,ISIC_3565564.JPG,28,25,false,0.2300000000000001,ll,keypress(f),0,false,703298.3000000119,703298.1999999881,698711.049,698926.6000000238,698727.509,703094.195,5,600,13,
break,html.Screen,10_12_1,2023-11-20T18:15:10.237Z,,,,,,,,,,,NaN,,,,,,,,low,high,,,,,,,false,,,,,false,703298.6999999881,703298.6000000238,,703298.4000000358,,703094.195,5,600,,
break_continue,html.Screen,10_12_2,2023-11-20T18:15:10.238Z,,,,,,,,,,,NaN,,,,,,,,low,high,,,,,,,false,,,,,false,703298.9000000358,703298.8000000119,,703298.6999999881,,703094.195,5,600,,
sequence,flow.Sequence,10_12,2023-11-20T18:15:10.238Z,,,,,,,,,,,4571.291000011959,completion,,,,,,,low,high,,,,,,,false,,,,,false,703299,703298.8000000119,698711.049,698926.5,698727.509,703094.195,5,600,,
trial,html.Screen,10_13_0,2023-11-20T18:15:14.286Z,,,,1,0.0044063257337227,0.0172548282859886,,0.04,true,hl,4252.805000000051,response,1.0770264364718942,1.0479849794473166,-0.9203018038517087,-0.6713089190292955,1.0686317972592474,-0.8408283531891441,high,low,,ISIC_7413786.JPG,9,ISIC_6093728.JPG,28,26,false,0.20000000000000007,hl,keypress(j),0,false,707347.1000000238,707347,703077.734,703299,703094.195,707144.199,5,600,14,
break,html.Screen,10_13_1,2023-11-20T18:15:14.286Z,,,,,,,,,,,NaN,,,,,,,,high,low,,,,,,,false,,,,,false,707347.3000000119,707347.3000000119,,707347.1999999881,,707144.199,5,600,,
break_continue,html.Screen,10_13_2,2023-11-20T18:15:14.286Z,,,,,,,,,,,NaN,,,,,,,,high,low,,,,,,,false,,,,,false,707347.5,707347.4000000358,,707347.3000000119,,707144.199,5,600,,
sequence,flow.Sequence,10_13,2023-11-20T18:15:14.286Z,,,,,,,,,,,4253.205000035814,completion,,,,,,,high,low,,,,,,,false,,,,,false,707347.5,707347.4000000358,703077.734,703299,703094.195,707144.199,5,600,,
trial,html.Screen,10_14_0,2023-11-20T18:15:16.775Z,,,,1,0.0044063257337227,0.0172548282859886,,0.04,true,ll,2691.8009999999776,response,-0.9573600041396606,1.0479849794473166,-0.9203018038517087,-0.8349586203937607,1.0686317972592474,-0.8408283531891441,low,low,,ISIC_7413786.JPG,8,ISIC_0000401.JPG,28,41,false,0.1,ll,keypress(f),0,false,709836.3000000119,709836,707127.754,707347.6000000238,707144.199,709661.002,5,600,15,
break,html.Screen,10_14_1,2023-11-20T18:15:16.776Z,,,,,,,,,,,NaN,,,,,,,,low,low,,,,,,,false,,,,,false,709837.1999999881,709836.9000000358,,709836.6000000238,,709661.002,5,600,,
break_continue,html.Screen,10_14_2,2023-11-20T18:15:16.777Z,,,,,,,,,,,NaN,,,,,,,,low,low,,,,,,,false,,,,,false,709837.9000000358,709837.6000000238,,709837.3000000119,,709661.002,5,600,,
sequence,flow.Sequence,10_14,2023-11-20T18:15:16.777Z,,,,,,,,,,,2693.4010000238195,completion,,,,,,,low,low,,,,,,,false,,,,,false,709838.1999999881,709837.6000000238,707127.754,707347.6000000238,707144.199,709661.002,5,600,,
trial,html.Screen,10_15_0,2023-11-20T18:15:19.103Z,,,,1,-0.0199950873045219,-0.0172506388509166,,0.04,true,hh,2502.7980000119423,response,1.077278111180185,1.0479849794473166,-0.9203018038517087,1.1530533996184025,1.0686317972592474,-0.8408283531891441,high,high,,ISIC_0029906.JPG,8,ISIC_9525136.JPG,28,25,false,0.1,hh,keypress(i),0,false,712164.1000000238,712163.8000000119,709644.177,709838.4000000358,709661.002,711960.826,5,600,16,
break,html.Screen,10_15_1,2023-11-20T18:15:19.104Z,,,,,,,,,,,NaN,,,,,,,,high,high,,,,,,,false,,,,,false,712165,712164.8000000119,,712164.4000000358,,711960.826,5,600,,
break_continue,html.Screen,10_15_2,2023-11-20T18:15:19.104Z,,,,,,,,,,,NaN,,,,,,,,high,high,,,,,,,false,,,,,false,712165.6999999881,712165.4000000358,,712165.1999999881,,711960.826,5,600,,
sequence,flow.Sequence,10_15,2023-11-20T18:15:19.105Z,,,,,,,,,,,2504.398000035784,completion,,,,,,,high,high,,,,,,,false,,,,,false,712165.9000000358,712165.4000000358,709644.177,709838.4000000358,709661.002,711960.826,5,600,,
trial,html.Screen,10_16_0,2023-11-20T18:15:21.151Z,,,,1,0.0308384937406319,-0.0038396364323947,,0.04,false,hl,2250.97400001192,response,0.9653573371180936,1.0479849794473166,-0.9203018038517087,-0.854766800381037,1.0686317972592474,-0.8408283531891441,high,low,,ISIC_0029825.JPG,9,ISIC_9640145.JPG,28,26,false,0.20000000000000007,hh,keypress(i),0,false,714212,714211.8000000119,711944.397,712166.1000000238,711960.826,714010.904,5,600,17,
break,html.Screen,10_16_1,2023-11-20T18:15:21.152Z,,,,,,,,,,,NaN,,,,,,,,high,low,,,,,,,false,,,,,false,714213,714212.8000000119,,714212.3000000119,,714010.904,5,600,,
break_continue,html.Screen,10_16_2,2023-11-20T18:15:21.152Z,,,,,,,,,,,NaN,,,,,,,,high,low,,,,,,,false,,,,,false,714213.6000000238,714213.4000000358,,714213.1000000238,,714010.904,5,600,,
sequence,flow.Sequence,10_16,2023-11-20T18:15:21.153Z,,,,,,,,,,,2252.574000035762,completion,,,,,,,high,low,,,,,,,false,,,,,false,714213.8000000119,714213.4000000358,711944.397,712166.1000000238,711960.826,714010.904,5,600,,
trial,html.Screen,10_17_0,2023-11-20T18:15:23.855Z,,,,1,-0.0164027439304477,0.0082910758715273,,0.04,false,ll,2905.6960000238614,response,-0.8312425167370745,1.0479849794473166,-0.9203018038517087,-0.9376491160549733,1.0686317972592474,-0.8408283531891441,low,low,,ISIC_7381224.JPG,9,ISIC_4834687.JPG,28,41,false,0.1,hl,keypress(j),0,false,716916.8000000119,716916.6000000238,713994.236,714214.1000000238,714010.904,716710.881,5,600,18,
break,html.Screen,10_17_1,2023-11-20T18:15:23.856Z,,,,,,,,,,,NaN,,,,,,,,low,low,,,,,,,false,,,,,false,716917.8000000119,716917.6000000238,,716917.1000000238,,716710.881,5,600,,
break_continue,html.Screen,10_17_2,2023-11-20T18:15:23.857Z,,,,,,,,,,,NaN,,,,,,,,low,low,,,,,,,false,,,,,false,716918.4000000358,716918.1999999881,,716917.9000000358,,716710.881,5,600,,
sequence,flow.Sequence,10_17,2023-11-20T18:15:23.857Z,,,,,,,,,,,2907.2959999880986,completion,,,,,,,low,low,,,,,,,false,,,,,false,716918.8000000119,716918.1999999881,713994.236,714214,714010.904,716710.881,5,600,,
trial,html.Screen,10_18_0,2023-11-20T18:15:26.609Z,,,,1,-0.0074667911845194,0.018500200317654,,0.04,false,hh,2957.818999988027,response,1.109799097093339,1.0479849794473166,-0.9203018038517087,1.091507924157762,1.0686317972592474,-0.8408283531891441,high,high,,ISIC_0058723.JPG,9,ISIC_0765584.JPG,28,25,false,0.1,hl,keypress(j),0,false,719669,719668.6999999881,716694.243,716918.9000000358,716710.881,719478.065,5,600,19,
break,html.Screen,10_18_1,2023-11-20T18:15:26.610Z,,,,,,,,,,,NaN,,,,,,,,high,high,,,,,,,false,,,,,false,719670.1000000238,719669.8000000119,,719669.4000000358,,719478.065,5,600,,
break_continue,html.Screen,10_18_2,2023-11-20T18:15:26.611Z,,,,,,,,,,,NaN,,,,,,,,high,high,,,,,,,false,,,,,false,719670.9000000358,719670.5,,719670.3000000119,,719478.065,5,600,,
sequence,flow.Sequence,10_18,2023-11-20T18:15:26.611Z,,,,,,,,,,,2959.618999999948,completion,,,,,,,high,high,,,,,,,false,,,,,false,719671.1999999881,719670.5,716694.243,716918.8000000119,716710.881,719478.065,5,600,,
trial,html.Screen,10_19_0,2023-11-20T18:15:30.960Z,,,,1,0.0257631352671967,0.0202837002774028,,0.04,false,hl,4541.735000011977,response,0.8926515927689261,1.0479849794473166,-0.9203018038517087,-0.7935960767768927,1.0686317972592474,-0.8408283531891441,high,low,,ISIC_0032797.JPG,9,ISIC_8901371.JPG,28,26,false,0.20000000000000007,hh,keypress(i),0,false,724020.1000000238,724019.8000000119,719444.206,719671.3000000119,719478.065,723827.78,5,600,20,
break,html.Screen,10_19_1,2023-11-20T18:15:30.961Z,,,,,,,,,,,NaN,,,,,,,,high,low,,,,,,,false,,,,,false,724020.9000000358,724020.6999999881,,724020.3000000119,,723827.78,5,600,,
break_continue,html.Screen,10_19_2,2023-11-20T18:15:30.961Z,,,,,,,,,,,NaN,,,,,,,,high,low,,,,,,,false,,,,,false,724021.5,724021.3000000119,,724021.1000000238,,723827.78,5,600,,
sequence,flow.Sequence,10_19,2023-11-20T18:15:30.962Z,,,,,,,,,,,4543.235000011977,completion,,,,,,,high,low,,,,,,,false,,,,,false,724021.6999999881,724021.3000000119,719444.206,719671.1999999881,719478.065,723827.78,5,600,,
trial,html.Screen,10_20_0,2023-11-20T18:15:33.846Z,,,,1,-0.0164027439304477,0.0082910758715273,,0.04,true,hh,3078.620000035735,response,1.0777929856705222,1.0479849794473166,-0.9203018038517087,1.0139833925057518,1.0686317972592474,-0.8408283531891441,high,high,,ISIC_7381224.JPG,9,ISIC_6171084.JPG,28,25,false,0.1,hh,keypress(i),0,false,726906.5,726906.4000000358,723811.073,724021.9000000358,723827.78,726710.818,5,600,21,
break,html.Screen,10_20_1,2023-11-20T18:15:33.847Z,,,,,,,,,,,NaN,,,,,,,,high,high,,,,,,,false,,,,,false,726906.8000000119,726906.8000000119,,726906.6000000238,,726710.818,5,600,,
break_continue,html.Screen,10_20_2,2023-11-20T18:15:33.847Z,,,,,,,,,,,NaN,,,,,,,,high,high,,,,,,,false,,,,,false,726907.1000000238,726907,,726907,,726710.818,5,600,,
sequence,flow.Sequence,10_20,2023-11-20T18:15:33.847Z,,,,,,,,,,,3079.219999999972,completion,,,,,,,high,high,,,,,,,false,,,,,false,726907.1999999881,726907,723811.073,724021.9000000358,723827.78,726710.818,5,600,,
trial,html.Screen,10_21_0,2023-11-20T18:15:41.616Z,,,,1,0.0119001144851157,-0.0063430114540141,,0.04,true,ll,7964.982000011951,response,-0.9141489890697224,1.0479849794473166,-0.9203018038517087,-0.8021439579962121,1.0686317972592474,-0.8408283531891441,low,low,,ISIC_0003822.JPG,9,ISIC_0025491.JPG,28,41,false,0.1,ll,keypress(f),0,false,734676.1000000238,734675.8000000119,726694.081,726907.1999999881,726710.818,734477.526,5,600,22,
break,html.Screen,10_21_1,2023-11-20T18:15:41.617Z,,,,,,,,,,,NaN,,,,,,,,low,low,,,,,,,false,,,,,false,734677,734676.6999999881,,734676.4000000358,,734477.526,5,600,,
break_continue,html.Screen,10_21_2,2023-11-20T18:15:41.617Z,,,,,,,,,,,NaN,,,,,,,,low,low,,,,,,,false,,,,,false,734677.6000000238,734677.3000000119,,734677.1000000238,,734477.526,5,600,,
sequence,flow.Sequence,10_21,2023-11-20T18:15:41.618Z,,,,,,,,,,,7966.482000011951,completion,,,,,,,low,low,,,,,,,false,,,,,false,734677.8000000119,734677.3000000119,726694.081,726907.1999999881,726710.818,734477.526,5,600,,
trial,html.Screen,10_22_0,2023-11-20T18:15:44.856Z,,,,1,-0.0164027439304477,0.0082910758715273,,0.04,true,ll,3438.0740000238875,response,-0.9602936946729488,1.0479849794473166,-0.9203018038517087,-0.747034716272411,1.0686317972592474,-0.8408283531891441,low,low,,ISIC_7381224.JPG,9,ISIC_0205127.JPG,28,41,false,0.1,ll,keypress(f),0,false,737915.8000000119,737915.6000000238,734460.737,734678,734477.526,737710.772,5,600,23,
break,html.Screen,10_22_1,2023-11-20T18:15:44.857Z,,,,,,,,,,,NaN,,,,,,,,low,low,,,,,,,false,,,,,false,737916.6999999881,737916.5,,737916.1000000238,,737710.772,5,600,,
break_continue,html.Screen,10_22_2,2023-11-20T18:15:44.857Z,,,,,,,,,,,NaN,,,,,,,,low,low,,,,,,,false,,,,,false,737917.3000000119,737917.1000000238,,737916.9000000358,,737710.772,5,600,,
sequence,flow.Sequence,10_22,2023-11-20T18:15:44.857Z,,,,,,,,,,,3439.5740000238875,completion,,,,,,,low,low,,,,,,,false,,,,,false,737917.6999999881,737917.1000000238,734460.737,734677.9000000358,734477.526,737710.772,5,600,,
trial,html.Screen,10_23_0,2023-11-20T18:15:49.473Z,,,,1,-0.0074667911845194,0.018500200317654,,0.04,true,hl,4821.628000035766,response,0.989300717252516,1.0479849794473166,-0.9203018038517087,-0.7908280206937478,1.0686317972592474,-0.8408283531891441,high,low,,ISIC_0058723.JPG,9,ISIC_6416533.JPG,28,26,false,0.20000000000000007,hl,keypress(j),0,false,742532.6999999881,742532.4000000358,737694.314,737917.8000000119,737710.772,742327.432,5,600,24,
break,html.Screen,10_23_1,2023-11-20T18:15:49.474Z,,,,,,,,,,,NaN,,,,,,,,high,low,,,,,,,false,,,,,false,742533.8000000119,742533.5,,742533.1000000238,,742327.432,5,600,,
break_continue,html.Screen,10_23_2,2023-11-20T18:15:49.474Z,,,,,,,,,,,NaN,,,,,,,,high,low,,,,,,,false,,,,,false,742534.5,742534.1000000238,,742534,,742327.432,5,600,,
sequence,flow.Sequence,10_23,2023-11-20T18:15:49.475Z,,,,,,,,,,,4823.328000023845,completion,,,,,,,high,low,,,,,,,false,,,,,false,742534.6999999881,742534.1000000238,737694.314,737917.6999999881,737710.772,742327.432,5,600,,
trial,html.Screen,10_24_0,2023-11-20T18:15:51.631Z,,,,1,-0.0088741920055285,-0.0058246074740588,,0.04,false,lh,2363.468000035733,response,-0.9617893983965208,1.0479849794473166,-0.9203018038517087,0.9453006131304652,1.0686317972592474,-0.8408283531891441,low,high,,ISIC_4136663.JPG,9,ISIC_4229473.JPG,28,25,false,0.2300000000000001,ll,keypress(f),0,false,744691.1000000238,744690.9000000358,742310.844,742534.8000000119,742327.432,744494.178,5,600,25,
break,html.Screen,10_24_1,2023-11-20T18:15:51.631Z,,,,,,,,,,,NaN,,,,,,,,low,high,,,,,,,false,,,,,false,744691.3000000119,744691.3000000119,,744691.1000000238,,744494.178,5,600,,
break_continue,html.Screen,10_24_2,2023-11-20T18:15:51.631Z,,,,,,,,,,,NaN,,,,,,,,low,high,,,,,,,false,,,,,false,744691.5,744691.4000000358,,744691.3000000119,,744494.178,5,600,,
sequence,flow.Sequence,10_24,2023-11-20T18:15:51.631Z,,,,,,,,,,,2363.968000035733,completion,,,,,,,low,high,,,,,,,false,,,,,false,744691.6000000238,744691.4000000358,742310.844,742534.8000000119,742327.432,744494.178,5,600,,
trial,html.Screen,10_25_0,2023-11-20T18:15:55.049Z,,,,1,0.0257631352671967,0.0202837002774028,,0.04,true,hl,3614.2220000358066,response,0.8719231363109603,1.0479849794473166,-0.9203018038517087,-0.7704280220140033,1.0686317972592474,-0.8408283531891441,high,low,,ISIC_0032797.JPG,9,ISIC_0029453.JPG,28,26,false,0.20000000000000007,hl,keypress(j),0,false,748108.6999999881,748108.4000000358,744477.54,744691.6000000238,744494.178,747910.781,5,600,26,
break,html.Screen,10_25_1,2023-11-20T18:15:55.049Z,,,,,,,,,,,NaN,,,,,,,,high,low,,,,,,,false,,,,,false,748109.6000000238,748109.4000000358,,748109,,747910.781,5,600,,
break_continue,html.Screen,10_25_2,2023-11-20T18:15:55.050Z,,,,,,,,,,,NaN,,,,,,,,high,low,,,,,,,false,,,,,false,748110.1999999881,748109.9000000358,,748109.6999999881,,747910.781,5,600,,
sequence,flow.Sequence,10_25,2023-11-20T18:15:55.050Z,,,,,,,,,,,3615.7220000358066,completion,,,,,,,high,low,,,,,,,false,,,,,false,748110.4000000358,748109.9000000358,744477.54,744691.6000000238,744494.178,747910.781,5,600,,
trial,html.Screen,10_26_0,2023-11-20T18:15:58.649Z,,,,1,0.0076984477620101,0.0069458408496562,,0.04,true,ll,3797.91899998812,response,-0.9740596249572724,1.0479849794473166,-0.9203018038517087,-0.915332132320829,1.0686317972592474,-0.8408283531891441,low,low,,ISIC_0000434.JPG,9,ISIC_9053910.JPG,28,41,false,0.1,ll,keypress(f),0,false,751709,751708.6999999881,747894.2,748110.6000000238,747910.781,751510.743,5,600,27,
break,html.Screen,10_26_1,2023-11-20T18:15:58.650Z,,,,,,,,,,,NaN,,,,,,,,low,low,,,,,,,false,,,,,false,751709.9000000358,751709.6999999881,,751709.3000000119,,751510.743,5,600,,
break_continue,html.Screen,10_26_2,2023-11-20T18:15:58.650Z,,,,,,,,,,,NaN,,,,,,,,low,low,,,,,,,false,,,,,false,751710.6000000238,751710.3000000119,,751710.1000000238,,751510.743,5,600,,
sequence,flow.Sequence,10_26,2023-11-20T18:15:58.651Z,,,,,,,,,,,3799.519000011962,completion,,,,,,,low,low,,,,,,,false,,,,,false,751710.9000000358,751710.3000000119,747894.2,748110.5,747910.781,751510.743,5,600,,
trial,html.Screen,10_27_0,2023-11-20T18:16:01.169Z,,,,1,0.0200295718112167,0.0155559071275806,,0.04,false,lh,2717.7569999999832,response,-0.9138670886161264,1.0479849794473166,-0.9203018038517087,0.8414121478342018,1.0686317972592474,-0.8408283531891441,low,high,,ISIC_0061343.JPG,9,ISIC_6709052.JPG,28,25,false,0.2300000000000001,ll,keypress(f),0,false,754228.8000000119,754228.5,751494.17,751711,751510.743,754044.079,5,600,28,
break,html.Screen,10_27_1,2023-11-20T18:16:01.170Z,,,,,,,,,,,NaN,,,,,,,,low,high,,,,,,,false,,,,,false,754229.6999999881,754229.5,,754229.1000000238,,754044.079,5,600,,
break_continue,html.Screen,10_27_2,2023-11-20T18:16:01.170Z,,,,,,,,,,,NaN,,,,,,,,low,high,,,,,,,false,,,,,false,754230.5,754230.1000000238,,754230,,754044.079,5,600,,
sequence,flow.Sequence,10_27,2023-11-20T18:16:01.171Z,,,,,,,,,,,2719.357000023825,completion,,,,,,,low,high,,,,,,,false,,,,,false,754230.8000000119,754230.1000000238,751494.17,751711,751510.743,754044.079,5,600,,
trial,html.Screen,10_28_0,2023-11-20T18:16:05.448Z,,,,1,0.0286056110007553,0.036125199756515,,0.04,false,lh,4464.021000023815,response,-0.7271544837339796,1.0479849794473166,-0.9203018038517087,0.9127368834814228,1.0686317972592474,-0.8408283531891441,low,high,,ISIC_6535558.JPG,10,ISIC_4129321.JPG,28,25,false,0.2300000000000001,hl,keypress(j),0,false,758508.3000000119,758508.1000000238,754010.898,754230.9000000358,754044.079,758310.727,5,600,29,
break,html.Screen,10_28_1,2023-11-20T18:16:05.449Z,,,,,,,,,,,NaN,,,,,,,,low,high,,,,,,,false,,,,,false,758509.3000000119,758509.1000000238,,758508.6999999881,,758310.727,5,600,,
break_continue,html.Screen,10_28_2,2023-11-20T18:16:05.450Z,,,,,,,,,,,NaN,,,,,,,,low,high,,,,,,,false,,,,,false,758510,758509.6000000238,,758509.5,,758310.727,5,600,,
sequence,flow.Sequence,10_28,2023-11-20T18:16:05.450Z,,,,,,,,,,,4465.521000023815,completion,,,,,,,low,high,,,,,,,false,,,,,false,758510.1000000238,758509.6000000238,754010.898,754230.8000000119,754044.079,758310.727,5,600,,
trial,html.Screen,10_29_0,2023-11-20T18:16:14.617Z,,,,1,0.0257631352671967,0.0202837002774028,,0.04,true,hh,9365.773000000045,response,0.9691635021928308,1.0479849794473166,-0.9203018038517087,1.0761216763182415,1.0686317972592474,-0.8408283531891441,high,high,,ISIC_0032797.JPG,9,ISIC_8169564.JPG,28,25,false,0.1,hh,keypress(i),0,false,767676.8000000119,767676.5,758294.297,758510.3000000119,758310.727,767477.428,5,600,30,
break,html.Screen,10_29_1,2023-11-20T18:16:14.617Z,,,,,,,,,,,NaN,,,,,,,,high,high,,,,,,,false,,,,,false,767677.6000000238,767677.4000000358,,767677,,767477.428,5,600,,
break_continue,html.Screen,10_29_2,2023-11-20T18:16:14.618Z,,,,,,,,,,,NaN,,,,,,,,high,high,,,,,,,false,,,,,false,767678.3000000119,767678,,767677.8000000119,,767477.428,5,600,,
sequence,flow.Sequence,10_29,2023-11-20T18:16:14.618Z,,,,,,,,,,,9367.273000000045,completion,,,,,,,high,high,,,,,,,false,,,,,false,767678.5,767678,758294.297,758510.3000000119,758310.727,767477.428,5,600,,
trial,html.Screen,10_30_0,2023-11-20T18:16:16.425Z,,,,1,-0.0199950873045219,-0.0172506388509166,,0.04,true,hh,2007.2719999881228,response,1.0733807306669467,1.0479849794473166,-0.9203018038517087,0.9781766331161578,1.0686317972592474,-0.8408283531891441,high,high,,ISIC_0029906.JPG,9,ISIC_0032383.JPG,28,25,false,0.1,hh,keypress(i),0,false,769484.9000000358,769484.6999999881,767460.765,767678.6999999881,767477.428,769294.575,5,600,31,
break,html.Screen,10_30_1,2023-11-20T18:16:16.426Z,,,,,,,,,,,NaN,,,,,,,,high,high,,,,,,,false,,,,,false,769485.8000000119,769485.6000000238,,769485.1999999881,,769294.575,5,600,,
break_continue,html.Screen,10_30_2,2023-11-20T18:16:16.426Z,,,,,,,,,,,NaN,,,,,,,,high,high,,,,,,,false,,,,,false,769486.5,769486.1999999881,,769486,,769294.575,5,600,,
sequence,flow.Sequence,10_30,2023-11-20T18:16:16.427Z,,,,,,,,,,,2008.7719999881228,completion,,,,,,,high,high,,,,,,,false,,,,,false,769486.8000000119,769486.1999999881,767460.765,767678.6000000238,767477.428,769294.575,5,600,,
trial,html.Screen,10_31_0,2023-11-20T18:16:19.504Z,,,,1,0.0076984477620101,0.0069458408496562,,0.04,true,hl,3269.0250000238884,response,1.203269031614007,1.0479849794473166,-0.9203018038517087,-0.6961047103031557,1.0686317972592474,-0.8408283531891441,high,low,,ISIC_0000434.JPG,8,ISIC_0002639.JPG,28,26,false,0.20000000000000007,hl,keypress(j),0,false,772563.9000000358,772563.6000000238,769260.904,769486.9000000358,769294.575,772360.664,5,600,32,
break,html.Screen,10_31_1,2023-11-20T18:16:19.505Z,,,,,,,,,,,NaN,,,,,,,,high,low,,,,,,,false,,,,,false,772564.8000000119,772564.5,,772564.1000000238,,772360.664,5,600,,
break_continue,html.Screen,10_31_2,2023-11-20T18:16:19.505Z,,,,,,,,,,,NaN,,,,,,,,high,low,,,,,,,false,,,,,false,772565.4000000358,772565.1999999881,,772565,,772360.664,5,600,,
sequence,flow.Sequence,10_31,2023-11-20T18:16:19.506Z,,,,,,,,,,,3270.6249999881256,completion,,,,,,,high,low,,,,,,,false,,,,,false,772565.6999999881,772565.1999999881,769260.904,769486.9000000358,769294.575,772360.664,5,600,,
trial,html.Screen,10_32_0,2023-11-20T18:16:23.345Z,,,,1,-0.0199950873045219,-0.0172506388509166,,0.04,false,lh,4043.8360000000102,response,-0.8544507134472948,1.0479849794473166,-0.9203018038517087,0.9244388608707323,1.0686317972592474,-0.8408283531891441,low,high,,ISIC_0029906.JPG,10,ISIC_3565564.JPG,28,25,false,0.2300000000000001,ll,keypress(f),0,false,776404.8000000119,776404.5,772344.029,772565.9000000358,772360.664,776210.81,5,600,33,
break,html.Screen,10_32_1,2023-11-20T18:16:23.346Z,,,,,,,,,,,NaN,,,,,,,,low,high,,,,,,,false,,,,,false,776405.6999999881,776405.5,,776405.1000000238,,776210.81,5,600,,
break_continue,html.Screen,10_32_2,2023-11-20T18:16:23.346Z,,,,,,,,,,,NaN,,,,,,,,low,high,,,,,,,false,,,,,false,776406.4000000358,776406.1000000238,,776405.8000000119,,776210.81,5,600,,
sequence,flow.Sequence,10_32,2023-11-20T18:16:23.346Z,,,,,,,,,,,4045.436000023852,completion,,,,,,,low,high,,,,,,,false,,,,,false,776406.6000000238,776406.1000000238,772344.029,772565.9000000358,772360.664,776210.81,5,600,,
trial,html.Screen,10_33_0,2023-11-20T18:16:25.664Z,,,,1,0.0283578106329894,-0.0088840758711548,,0.04,true,lh,2512.590000035707,response,-0.7271544837339796,1.0479849794473166,-0.9203018038517087,0.9127368834814228,1.0686317972592474,-0.8408283531891441,low,high,,ISIC_0060707.JPG,8,ISIC_4129321.JPG,28,25,false,0.2300000000000001,lh,keypress(e),0,false,778723.6999999881,778723.4000000358,776194.163,776406.8000000119,776210.81,778527.415,5,600,34,
break,html.Screen,10_33_1,2023-11-20T18:16:25.664Z,,,,,,,,,,,NaN,,,,,,,,low,high,,,,,,,false,,,,,false,778724.6000000238,778724.4000000358,,778724,,778527.415,5,600,,
break_continue,html.Screen,10_33_2,2023-11-20T18:16:25.665Z,,,,,,,,,,,NaN,,,,,,,,low,high,,,,,,,false,,,,,false,778725.3000000119,778724.9000000358,,778724.8000000119,,778527.415,5,600,,
sequence,flow.Sequence,10_33,2023-11-20T18:16:25.665Z,,,,,,,,,,,2514.090000035707,completion,,,,,,,low,high,,,,,,,false,,,,,false,778725.5,778724.9000000358,776194.163,776406.6999999881,776210.81,778527.415,5,600,,
trial,html.Screen,10_34_0,2023-11-20T18:16:28.600Z,,,,1,-0.0088741920055285,-0.0058246074740588,,0.04,true,ll,3132.1850000238046,response,-0.9141489890697224,1.0479849794473166,-0.9203018038517087,-0.8021439579962121,1.0686317972592474,-0.8408283531891441,low,low,,ISIC_4136663.JPG,9,ISIC_0025491.JPG,28,41,false,0.1,ll,keypress(f),0,false,781660,781659.6000000238,778510.797,778725.6999999881,778527.415,781460.714,5,600,35,
break,html.Screen,10_34_1,2023-11-20T18:16:28.601Z,,,,,,,,,,,NaN,,,,,,,,low,low,,,,,,,false,,,,,false,781660.9000000358,781660.6999999881,,781660.1999999881,,781460.714,5,600,,
break_continue,html.Screen,10_34_2,2023-11-20T18:16:28.602Z,,,,,,,,,,,NaN,,,,,,,,low,low,,,,,,,false,,,,,false,781661.5,781661.1999999881,,781661,,781460.714,5,600,,
sequence,flow.Sequence,10_34,2023-11-20T18:16:28.602Z,,,,,,,,,,,3133.784999988042,completion,,,,,,,low,low,,,,,,,false,,,,,false,781661.8000000119,781661.1999999881,778510.797,778725.6000000238,778527.415,781460.714,5,600,,
trial,html.Screen,10_35_0,2023-11-20T18:16:30.936Z,,,,1,0.0119001144851157,-0.0063430114540141,,0.04,false,hh,2534.7859999999637,response,1.0325421457475312,1.0479849794473166,-0.9203018038517087,1.0219157566370058,1.0686317972592474,-0.8408283531891441,high,high,,ISIC_0003822.JPG,9,ISIC_5336548.JPG,28,25,false,0.1,ll,keypress(f),0,false,783995.8000000119,783995.5,781443.977,781661.9000000358,781460.714,783793.981,5,600,36,
break,html.Screen,10_35_1,2023-11-20T18:16:30.937Z,,,,,,,,,,,NaN,,,,,,,,high,high,,,,,,,false,,,,,false,783996.6999999881,783996.5,,783996.1000000238,,783793.981,5,600,,
break_continue,html.Screen,10_35_2,2023-11-20T18:16:30.938Z,,,,,,,,,,,NaN,,,,,,,,high,high,,,,,,,false,,,,,false,783997.4000000358,783997,,783996.8000000119,,783793.981,5,600,,
sequence,flow.Sequence,10_35,2023-11-20T18:16:30.938Z,,,,,,,,,,,2536.2859999999637,completion,,,,,,,high,high,,,,,,,false,,,,,false,783997.6000000238,783997,781443.977,781661.9000000358,781460.714,783793.981,5,600,,
trial,html.Screen,10_36_0,2023-11-20T18:16:33.344Z,,,,1,-0.001445457736793,-0.0165307427449982,,0.04,false,hl,2609.71899998805,response,0.864159288143104,1.0479849794473166,-0.9203018038517087,-0.6456269226301533,1.0686317972592474,-0.8408283531891441,high,low,,ISIC_0027350.JPG,8,ISIC_0238570.JPG,28,26,false,0.20000000000000007,hh,keypress(i),0,false,786403.9000000358,786403.6999999881,783777.398,783997.8000000119,783793.981,786210.902,5,600,37,
break,html.Screen,10_36_1,2023-11-20T18:16:33.345Z,,,,,,,,,,,NaN,,,,,,,,high,low,,,,,,,false,,,,,false,786404.9000000358,786404.6999999881,,786404.3000000119,,786210.902,5,600,,
break_continue,html.Screen,10_36_2,2023-11-20T18:16:33.346Z,,,,,,,,,,,NaN,,,,,,,,high,low,,,,,,,false,,,,,false,786405.6000000238,786405.1999999881,,786405,,786210.902,5,600,,
sequence,flow.Sequence,10_36,2023-11-20T18:16:33.346Z,,,,,,,,,,,2611.21899998805,completion,,,,,,,high,low,,,,,,,false,,,,,false,786405.8000000119,786405.1999999881,783777.398,783997.8000000119,783793.981,786210.902,5,600,,
trial,html.Screen,10_37_0,2023-11-20T18:16:36.929Z,,,,1,0.0308384937406319,-0.0038396364323947,,0.04,true,ll,3777.097999999998,response,-0.871661188387271,1.0479849794473166,-0.9203018038517087,-0.9067170027344016,1.0686317972592474,-0.8408283531891441,low,low,,ISIC_0029825.JPG,10,ISIC_0026586.JPG,28,41,false,0.1,ll,keypress(f),0,false,789988.1999999881,789988,786193.999,786406,786210.902,789794.047,5,600,38,
break,html.Screen,10_37_1,2023-11-20T18:16:36.929Z,,,,,,,,,,,NaN,,,,,,,,low,low,,,,,,,false,,,,,false,789989.1000000238,789988.9000000358,,789988.5,,789794.047,5,600,,
break_continue,html.Screen,10_37_2,2023-11-20T18:16:36.930Z,,,,,,,,,,,NaN,,,,,,,,low,low,,,,,,,false,,,,,false,789989.6999999881,789989.4000000358,,789989.3000000119,,789794.047,5,600,,
