sender,sender_type,sender_id,timestamp,meta,,age,blockNo,c1,c2,condition,control_tolerance,correct,correctResponse,duration,ended_on,f1,f1_high,f1_low,f2,f2_high,f2_low,feature_level1,feature_level2,gender,img_left,img_reveal,img_right,n_control_images,n_target_images,practice,range_tolerance,response,response_action,selection_duration,staircase,time_commit,time_end,time_render,time_run,time_show,time_switch,total_blocks,total_trials,trialNo,url
informed_consent,html.Screen,0,2023-11-29T16:44:25.460Z,"{""labjs_version"":""20.2.4"",""labjs_build"":{""flavor"":""development"",""commit"":""f5b4a49f956347addd546a832a3327688c2c0fef""},""location"":""https://labjs.felixhenninger.com/api/labjs_preview/index.html"",""userAgent"":""Mozilla/5.0 (Windows NT 10.0; Win64; x64) AppleWebKit/537.36 (KHTML, like Gecko) Chrome/119.0.0.0 Safari/537.36"",""platform"":""Win32"",""language"":""en-US"",""locale"":""en-US"",""timeZone"":""America/Chicago"",""timezoneOffset"":360,""screen_width"":1920,""screen_height"":1080,""scroll_width"":945,""scroll_height"":918,""window_innerWidth"":945,""window_innerHeight"":966,""devicePixelRatio"":1}",,,,,,,,,,16144.179000047683,response,,,,,,,,,,,,,,,,,consent,click button,,,16940.10000014305,16930.700000047684,769.821,1018.7000000476837,786.521,16703.211,,,,{}
Demography form,html.Form,1,2023-11-29T16:44:32.131Z,,,18,,,,,,,,6908.389000143052,form submission,,,,,,,,,female,,,,,,,,,,,,23611.800000190735,23611.60000014305,16686.474,16940.300000190735,16703.211,23386.484,,,,
Welcome,html.Screen,2,2023-11-29T16:45:00.699Z,,,,,,,"[""asym"",""bor""]",,,,28792.016,response,,,,,,,,,,,,,,,,,continue,click button,,,52179.200000047684,52178.5,23369.79,23611.900000095367,23386.484,51936.363,,,,
demo_instructions,html.Screen,3,2023-11-29T16:46:54.252Z,,,,,,,,,,,113793.637,response,,,,,,,,,,,,,,,,,continue,click button,,,165730.60000014305,165730,51919.781,52179.200000047684,51936.363,165502.815,,,,
trial,html.Screen,4_0_0,2023-11-29T16:47:01.966Z,,,,0,-1.2249552940807693,-1.1723015116910682,,,true,hh,7940.9850001907325,response,1.3411179702686655,1.2,-1.2,1.255103311449152,1.2,-1.2,high,high,,ISIC_0055251.JPG,,ISIC_5611010.JPG,,26,true,0.15000000000000002,hh,keypress(i),100,false,173444.20000004768,173443.80000019073,165486.068,165730.80000019073,165502.815,173219.387,1,16,1,
sequence,flow.Sequence,4_0,2023-11-29T16:47:01.985Z,,,,,,,,,,,7940.9850001907325,completion,,,,,,,high,high,,,,,,,true,,,,,false,173463.20000004768,173443.80000019073,165486.068,165730.70000004768,165502.815,173219.387,1,16,,
trial,html.Screen,4_1_0,2023-11-29T16:47:10.890Z,,,,0,-1.2322060291690602,-1.2686491386389651,,,true,hh,9148.213000143063,response,1.131522954199764,1.2,-1.2,1.1047184491749509,1.2,-1.2,high,high,,ISIC_0011697.JPG,,ISIC_1868816.JPG,,26,true,0.15000000000000002,hh,keypress(i),100,false,182368.10000014305,182367.60000014305,173202.798,173463.40000009537,173219.387,182136.057,1,16,2,
sequence,flow.Sequence,4_1,2023-11-29T16:47:10.890Z,,,,,,,,,,,9148.213000143063,completion,,,,,,,high,high,,,,,,,true,,,,,false,182368.70000004768,182367.60000014305,173202.798,173463.40000009537,173219.387,182136.057,1,16,,
trial,html.Screen,4_2_0,2023-11-29T16:47:19.803Z,,,,0,-1.2169050727663315,-1.1067845563421794,,,true,hh,9145.743000190734,response,1.0870240111136478,1.2,-1.2,1.332340670965917,1.2,-1.2,high,high,,ISIC_7016261.JPG,,ISIC_0000660.JPG,,26,true,0.15000000000000002,hh,keypress(i),100,false,191282,191281.80000019073,182119.449,182369.10000014305,182136.057,191052.681,1,16,3,
sequence,flow.Sequence,4_2,2023-11-29T16:47:19.804Z,,,,,,,,,,,9145.743000190734,completion,,,,,,,high,high,,,,,,,true,,,,,false,191282.20000004768,191281.80000019073,182119.449,182369,182136.057,191052.681,1,16,,
trial,html.Screen,4_3_0,2023-11-29T16:47:24.915Z,,,,0,-1.1877026569952844,-1.1604367569896263,,,true,hh,5340.219000095356,response,1.201100953917304,1.2,-1.2,1.1751492358160105,1.2,-1.2,high,high,,ISIC_0064589.JPG,,ISIC_0647224.JPG,,26,true,0.15000000000000002,hh,keypress(i),100,false,196393.30000019073,196392.90000009537,191035.988,191282.20000004768,191052.681,196169.332,1,16,4,
sequence,flow.Sequence,4_3,2023-11-29T16:47:24.915Z,,,,,,,,,,,5340.219000095356,completion,,,,,,,high,high,,,,,,,true,,,,,false,196393.90000009537,196392.90000009537,191035.988,191282.20000004768,191052.681,196169.332,1,16,,
trial,html.Screen,4_4_0,2023-11-29T16:47:34.049Z,,,,0,1.2024083555600384,1.149077673153018,,,true,ll,9357.868000047689,response,-1.255256820488545,1.2,-1.2,-1.1206426433062562,1.2,-1.2,low,low,,ISIC_3566243.JPG,,ISIC_0024652.JPG,,30,true,0.1,ll,keypress(f),100,false,205527.70000004768,205527.20000004768,196152.722,196394.10000014305,196169.332,205302.779,1,16,5,
sequence,flow.Sequence,4_4,2023-11-29T16:47:34.050Z,,,,,,,,,,,9357.868000047689,completion,,,,,,,low,low,,,,,,,true,,,,,false,205528.30000019073,205527.20000004768,196152.722,196394.10000014305,196169.332,205302.779,1,16,,
trial,html.Screen,4_5_0,2023-11-29T16:47:37.427Z,,,,0,1.1137763092539212,1.1599906701455132,,,false,ll,3602.121000095358,response,-1.1346217981791904,1.2,-1.2,-1.1555132168806113,1.2,-1.2,low,low,,ISIC_5413788.JPG,,ISIC_0032771.JPG,,53,true,0.15000000000000002,hh,keypress(i),100,false,208905.30000019073,208904.90000009537,205286.022,205528.5,205302.779,208686.183,1,16,6,
sequence,flow.Sequence,4_5,2023-11-29T16:47:37.427Z,,,,,,,,,,,3602.121000095358,completion,,,,,,,low,low,,,,,,,true,,,,,false,208905.90000009537,208904.90000009537,205286.022,205528.5,205302.779,208686.183,1,16,,
trial,html.Screen,4_6_0,2023-11-29T16:47:42.739Z,,,,0,1.3189473926989124,1.0770264364718942,,,true,ll,5530.917000143061,response,-1.2618585285282764,1.2,-1.2,-1.0804044917288194,1.2,-1.2,low,low,,ISIC_6093728.JPG,,ISIC_0011691.JPG,,53,true,0.15000000000000002,ll,keypress(f),100,false,214217.40000009537,214217.10000014305,208669.343,208906.10000014305,208686.183,213985.964,1,16,7,
sequence,flow.Sequence,4_6,2023-11-29T16:47:42.739Z,,,,,,,,,,,5530.917000143061,completion,,,,,,,low,low,,,,,,,true,,,,,false,214218,214217.10000014305,208669.343,208906,208686.183,213985.964,1,16,,
trial,html.Screen,4_7_0,2023-11-29T16:47:45.908Z,,,,0,1.2012395086389958,1.0618985767073823,,,true,ll,3399.3360001907276,response,-1.082730232773217,1.2,-1.2,-1.2594580992890123,1.2,-1.2,low,low,,ISIC_9876004.JPG,,ISIC_0011933.JPG,,53,true,0.15000000000000002,ll,keypress(f),100,false,217385.70000004768,217385.30000019073,213969.359,214218.10000014305,213985.964,217169.263,1,16,8,
sequence,flow.Sequence,4_7,2023-11-29T16:47:45.909Z,,,,,,,,,,,3399.3360001907276,completion,,,,,,,low,low,,,,,,,true,,,,,false,217386.10000014305,217385.30000019073,213969.359,214218,213985.964,217169.263,1,16,,
trial,html.Screen,4_8_0,2023-11-29T16:47:47.648Z,,,,0,0.8579451262594331,-0.9633172970727744,,,true,lh,1955.6370000953611,response,-1.276222161935671,1.2,-1.2,0.9657780821973284,1.2,-1.2,low,high,,ISIC_0067172.JPG,,ISIC_6710411.JPG,,27,true,0.42000000000000026,lh,keypress(e),100,false,219125.20000004768,219124.90000009537,217136.221,217386.30000019073,217169.263,218902.575,1,16,9,
sequence,flow.Sequence,4_8,2023-11-29T16:47:47.649Z,,,,,,,,,,,1955.6370000953611,completion,,,,,,,low,high,,,,,,,true,,,,,false,219125.80000019073,219124.90000009537,217136.221,217386.20000004768,217169.263,218902.575,1,16,,
trial,html.Screen,4_9_0,2023-11-29T16:47:54.588Z,,,,0,0.8534691366511764,-1.03975580494588,,,true,lh,7162.424999999988,response,-0.7998855902596425,1.2,-1.2,1.1518579145663017,1.2,-1.2,low,high,,ISIC_0056788.JPG,,ISIC_0025061.JPG,,27,true,0.42000000000000026,lh,keypress(e),100,false,226065.40000009537,226065,218885.974,219126,218902.575,225835.915,1,16,10,
sequence,flow.Sequence,4_9,2023-11-29T16:47:54.589Z,,,,,,,,,,,7162.424999999988,completion,,,,,,,low,high,,,,,,,true,,,,,false,226065.80000019073,226065,218885.974,219126,218902.575,225835.915,1,16,,
trial,html.Screen,4_10_0,2023-11-29T16:48:02.541Z,,,,0,0.8534691366511764,-1.03975580494588,,,true,lh,8182.084999999992,response,-0.8035152873995188,1.2,-1.2,0.82868450251632,1.2,-1.2,low,high,,ISIC_0056788.JPG,,ISIC_0010671.JPG,,27,true,0.42000000000000026,lh,keypress(e),100,false,234018.5,234018,225819.32,226066.10000014305,225835.915,233785.892,1,16,11,
sequence,flow.Sequence,4_10,2023-11-29T16:48:02.542Z,,,,,,,,,,,8182.084999999992,completion,,,,,,,low,high,,,,,,,true,,,,,false,234019,234018,225819.32,226066,225835.915,233785.892,1,16,,
trial,html.Screen,4_11_0,2023-11-29T16:48:08.686Z,,,,0,1.0751036484083878,-1.143906455483852,,,true,lh,6377.208000143059,response,-1.0213365328004047,1.2,-1.2,1.088524359911891,1.2,-1.2,low,high,,ISIC_0064406.JPG,,ISIC_5434229.JPG,,27,true,0.42000000000000026,lh,keypress(e),100,false,240163.30000019073,240163.10000014305,233769.265,234019.30000019073,233785.892,239935.996,1,16,12,
sequence,flow.Sequence,4_11,2023-11-29T16:48:08.686Z,,,,,,,,,,,6377.208000143059,completion,,,,,,,low,high,,,,,,,true,,,,,false,240163.5,240163.10000014305,233769.265,234019.20000004768,233785.892,239935.996,1,16,,
trial,html.Screen,4_12_0,2023-11-29T16:48:18.495Z,,,,0,-1.276222161935671,0.9657780821973284,,,true,hl,10035.70400004767,response,1.2364994561934892,1.2,-1.2,-0.9174173651516624,1.2,-1.2,high,low,,ISIC_6710411.JPG,,ISIC_3481133.JPG,,26,true,0.3600000000000002,hl,keypress(j),100,false,249972,249971.70000004768,239919.227,240163.60000014305,239935.996,249752.497,1,16,13,
sequence,flow.Sequence,4_12,2023-11-29T16:48:18.495Z,,,,,,,,,,,10035.70400004767,completion,,,,,,,high,low,,,,,,,true,,,,,false,249972.60000014305,249971.70000004768,239919.227,240163.60000014305,239935.996,249752.497,1,16,,
trial,html.Screen,4_13_0,2023-11-29T16:48:31.767Z,,,,0,-1.0213365328004047,1.088524359911891,,,true,hl,13491.002999999997,response,0.991282840649944,1.2,-1.2,-0.9397921099839784,1.2,-1.2,high,low,,ISIC_5434229.JPG,,ISIC_0000463.JPG,,33,true,0.42000000000000026,hl,keypress(j),100,false,263243.90000009537,263243.5,249735.914,249972.80000019073,249752.497,263019.119,1,16,14,
sequence,flow.Sequence,4_13,2023-11-29T16:48:31.767Z,,,,,,,,,,,13491.002999999997,completion,,,,,,,high,low,,,,,,,true,,,,,false,263244.5,263243.5,249735.914,249972.60000014305,249752.497,263019.119,1,16,,
trial,html.Screen,4_14_0,2023-11-29T16:48:49.555Z,,,,0,-1.0115965332688306,0.8282633603842442,,,true,hl,18011.68100019073,response,0.879102500583965,1.2,-1.2,-1.0933081951979773,1.2,-1.2,high,low,,ISIC_1069587.JPG,,ISIC_0046223.JPG,,33,true,0.42000000000000026,hl,keypress(j),100,false,281031.2000000477,281030.80000019073,263002.511,263244.7000000477,263019.119,280819.049,1,16,15,
sequence,flow.Sequence,4_14,2023-11-29T16:48:49.555Z,,,,,,,,,,,18011.68100019073,completion,,,,,,,high,low,,,,,,,true,,,,,false,281031.80000019073,281030.80000019073,263002.511,263244.60000014305,263019.119,280819.049,1,16,,
trial,html.Screen,4_15_0,2023-11-29T16:49:02.233Z,,,,0,-0.8200962008791046,0.7936051642828523,,,true,hl,12889.951000000001,response,1.2331439637486756,1.2,-1.2,-0.9691143900156988,1.2,-1.2,high,low,,ISIC_0027031.JPG,,ISIC_7877488.JPG,,33,true,0.42000000000000026,hl,keypress(j),100,false,293709.40000009537,293709,280785.793,281032,280819.049,293485.719,1,16,16,
sequence,flow.Sequence,4_15,2023-11-29T16:49:02.234Z,,,,,,,,,,,12889.951000000001,completion,,,,,,,high,low,,,,,,,true,,,,,false,293710.2000000477,293709,280785.793,281032,280819.049,293485.719,1,16,,
demonstration_loop,flow.Loop,4,2023-11-29T16:49:02.234Z,,,,,,,,,,,128206.185,completion,,,,,,,,,,,,,,,true,,,,,false,293710.5,293709,165486.068,165730.70000004768,165502.815,293485.719,1,16,,
practice_instructions,html.Screen,5,2023-11-29T16:49:24.590Z,,,,,,,,,,,22572.281000000017,response,,,,,,,,,,,,,,,,,continue,click button,,,316066.7000000477,316058,293469.138,293710.7000000477,293485.719,315835.654,,,,
trial,html.Screen,6_0_0,2023-11-29T16:49:40.409Z,,,,1,0.9433720631499012,-1.0582071940347648,,,,,15816.622000000032,timeout,-0.8092423703106274,1.2,-1.2,1.1870093485714288,1.2,-1.2,low,high,,ISIC_4890201.JPG,,ISIC_8592235.JPG,,27,true,0.42000000000000026,,,0,false,331885,331884.5,315818.989,316066.80000019073,315835.654,331652.276,1,40,1,
sequence,flow.Sequence,6_0,2023-11-29T16:49:40.409Z,,,,,,,,,,,16048.84600000002,completion,,,,,,,low,high,,,,,,,true,,,,,false,331885.40000009537,331884.5,315818.989,316066.80000019073,315835.654,331652.276,1,40,,
trial,html.Screen,6_1_0,2023-11-29T16:49:52.554Z,,,,1,1.2024083555600384,1.149077673153018,,,false,ll,12377.024000190722,response,-0.9991183219041097,1.2,-1.2,-1.0098382533872188,1.2,-1.2,low,low,,ISIC_3566243.JPG,,ISIC_0010415.JPG,,245,true,0.3600000000000002,hh,keypress(i),0,false,344029.60000014305,344029.30000019073,331635.841,331885.60000014305,331652.276,343818.895,1,40,2,
sequence,flow.Sequence,6_1,2023-11-29T16:49:52.554Z,,,,,,,,,,,12377.024000190722,completion,,,,,,,low,low,,,,,,,true,,,,,false,344030,344029.30000019073,331635.841,331885.60000014305,331652.276,343818.895,1,40,,
trial,html.Screen,6_2_0,2023-11-29T16:50:03.706Z,,,,1,-0.796241477082623,0.9017449335975743,,,true,hl,11362.405000190716,response,1.2075172235545184,1.2,-1.2,-0.9116724966267612,1.2,-1.2,high,low,,ISIC_8588033.JPG,,ISIC_0024235.JPG,,26,true,0.3600000000000002,hl,keypress(j),0,false,355181.7000000477,355181.30000019073,343768.772,344030.2000000477,343818.895,354935.601,1,40,3,
sequence,flow.Sequence,6_2,2023-11-29T16:50:03.706Z,,,,,,,,,,,11362.405000190716,completion,,,,,,,high,low,,,,,,,true,,,,,false,355182.2000000477,355181.30000019073,343768.772,344030.2000000477,343818.895,354935.601,1,40,,
trial,html.Screen,6_3_0,2023-11-29T16:50:09.450Z,,,,1,-1.152619213055059,-1.1117876838408909,,,true,hh,5989.398999999976,response,0.7848333827448511,1.2,-1.2,0.9249180304825352,1.2,-1.2,high,high,,ISIC_0061915.JPG,,ISIC_6778515.JPG,,253,true,0.42000000000000026,hh,keypress(i),0,false,360925.30000019073,360925,354918.672,355182.40000009537,354935.601,360685.522,1,40,4,
sequence,flow.Sequence,6_3,2023-11-29T16:50:09.450Z,,,,,,,,,,,5989.398999999976,completion,,,,,,,high,high,,,,,,,true,,,,,false,360925.7000000477,360925,354918.672,355182.30000019073,354935.601,360685.522,1,40,,
trial,html.Screen,6_4_0,2023-11-29T16:50:19.474Z,,,,1,1.1642596483638106,1.109799097093339,,,true,ll,10263.678000047687,response,-1.2169050727663315,1.2,-1.2,-1.1067845563421794,1.2,-1.2,low,low,,ISIC_0765584.JPG,,ISIC_7016261.JPG,,30,true,0.1,ll,keypress(f),0,false,370949.5,370949.2000000477,360668.695,360925.90000009537,360685.522,370719.402,1,40,5,
sequence,flow.Sequence,6_4,2023-11-29T16:50:19.474Z,,,,,,,,,,,10263.678000047687,completion,,,,,,,low,low,,,,,,,true,,,,,false,370949.80000019073,370949.2000000477,360668.695,360925.80000019073,360685.522,370719.402,1,40,,
trial,html.Screen,6_5_0,2023-11-29T16:50:30.897Z,,,,1,1.2012395086389958,1.0618985767073823,,,true,ll,11652.69800014305,response,-1.2322060291690602,1.2,-1.2,-1.2686491386389651,1.2,-1.2,low,low,,ISIC_9876004.JPG,,ISIC_0011697.JPG,,53,true,0.15000000000000002,ll,keypress(f),0,false,382372.40000009537,382372.10000014305,370685.42,370950.10000014305,370719.402,382135.416,1,40,6,
sequence,flow.Sequence,6_5,2023-11-29T16:50:30.897Z,,,,,,,,,,,11652.69800014305,completion,,,,,,,low,low,,,,,,,true,,,,,false,382372.90000009537,382372.10000014305,370685.42,370950,370719.402,382135.416,1,40,,
trial,html.Screen,6_6_0,2023-11-29T16:50:38.353Z,,,,1,-0.8092423703106274,1.1870093485714288,,,true,hl,7693.5839999999735,response,0.9454713230140772,1.2,-1.2,-0.9245167441969216,1.2,-1.2,high,low,,ISIC_8592235.JPG,,ISIC_9101055.JPG,,26,true,0.3600000000000002,hl,keypress(j),0,false,389829.2000000477,389829,382118.52,382373.10000014305,382135.416,389585.424,1,40,7,
sequence,flow.Sequence,6_6,2023-11-29T16:50:38.354Z,,,,,,,,,,,7693.5839999999735,completion,,,,,,,high,low,,,,,,,true,,,,,false,389829.60000014305,389829,382118.52,382373,382135.416,389585.424,1,40,,
trial,html.Screen,6_7_0,2023-11-29T16:50:48.873Z,,,,1,-1.242586748440878,-1.1207933200172129,,,true,hh,10762.676000143052,response,1.0103403743290518,1.2,-1.2,0.8231760770331785,1.2,-1.2,high,high,,ISIC_0013073.JPG,,ISIC_1254469.JPG,,253,true,0.42000000000000026,hh,keypress(i),0,false,400348.30000019073,400348.10000014305,389568.689,389829.80000019073,389585.424,400102.14,1,40,8,
sequence,flow.Sequence,6_7,2023-11-29T16:50:48.874Z,,,,,,,,,,,10762.676000143052,completion,,,,,,,high,high,,,,,,,true,,,,,false,400348.7000000477,400348.10000014305,389568.689,389829.80000019073,389585.424,400102.14,1,40,,
trial,html.Screen,6_8_0,2023-11-29T16:50:57.136Z,,,,1,1.057008495826831,1.1278122585028287,,,true,ll,8509.06000004767,response,-1.255256820488545,1.2,-1.2,-1.1206426433062562,1.2,-1.2,low,low,,ISIC_2819798.JPG,,ISIC_0024652.JPG,,30,true,0.1,ll,keypress(f),0,false,408611.40000009537,408611.2000000477,400085.192,400348.80000019073,400102.14,408368.752,1,40,9,
sequence,flow.Sequence,6_8,2023-11-29T16:50:57.136Z,,,,,,,,,,,8509.06000004767,completion,,,,,,,low,low,,,,,,,true,,,,,false,408611.60000014305,408611.2000000477,400085.192,400348.80000019073,400102.14,408368.752,1,40,,
trial,html.Screen,6_9_0,2023-11-29T16:51:09.256Z,,,,1,-1.2071341803968807,-1.235960269089932,,,true,hh,12362.648000095389,response,1.1653123206802332,1.2,-1.2,1.2976858999596654,1.2,-1.2,high,high,,ISIC_0058174.JPG,,ISIC_0071508.JPG,,26,true,0.15000000000000002,hh,keypress(i),0,false,420731.5,420731.40000009537,408351.811,408611.80000019073,408368.752,420485.334,1,40,10,
sequence,flow.Sequence,6_9,2023-11-29T16:51:09.257Z,,,,,,,,,,,12362.648000095389,completion,,,,,,,high,high,,,,,,,true,,,,,false,420731.7000000477,420731.40000009537,408351.811,408611.7000000477,408368.752,420485.334,1,40,,
trial,html.Screen,6_10_0,2023-11-29T16:51:21.185Z,,,,1,-1.1346217981791904,-1.1555132168806113,,,true,hh,12174.86600004771,response,1.0870240111136478,1.2,-1.2,1.332340670965917,1.2,-1.2,high,high,,ISIC_0032771.JPG,,ISIC_0000660.JPG,,26,true,0.15000000000000002,hh,keypress(i),0,false,432660.5,432660.2000000477,420468.334,420731.7000000477,420485.334,432435.33,1,40,11,
sequence,flow.Sequence,6_10,2023-11-29T16:51:21.186Z,,,,,,,,,,,12174.86600004771,completion,,,,,,,high,high,,,,,,,true,,,,,false,432661,432660.2000000477,420468.334,420731.7000000477,420485.334,432435.33,1,40,,
trial,html.Screen,6_11_0,2023-11-29T16:51:36.973Z,,,,1,1.0143509683988825,-1.3163955902021656,,,,,15766.688999999955,timeout,-1.0264463986917702,1.2,-1.2,1.2804054832904397,1.2,-1.2,low,high,,ISIC_0062031.JPG,,ISIC_7889838.JPG,,27,true,0.42000000000000026,,,0,false,448448.40000009537,448448.10000014305,432401.709,432661.10000014305,432435.33,448202.019,1,40,12,
sequence,flow.Sequence,6_11,2023-11-29T16:51:36.974Z,,,,,,,,,,,16012.770000143035,completion,,,,,,,low,high,,,,,,,true,,,,,false,448448.80000019073,448448.10000014305,432401.709,432661.10000014305,432435.33,448202.019,1,40,,
trial,html.Screen,6_12_0,2023-11-29T16:51:45.737Z,,,,1,0.9433720631499012,-1.0582071940347648,,,true,lh,9009.58100014308,response,-1.0213365328004047,1.2,-1.2,1.088524359911891,1.2,-1.2,low,high,,ISIC_4890201.JPG,,ISIC_5434229.JPG,,27,true,0.42000000000000026,lh,keypress(e),0,false,457211.80000019073,457211.60000014305,448185.54,448449.10000014305,448202.019,456985.293,1,40,13,
sequence,flow.Sequence,6_12,2023-11-29T16:51:45.738Z,,,,,,,,,,,9009.58100014308,completion,,,,,,,low,high,,,,,,,true,,,,,false,457212.2000000477,457211.60000014305,448185.54,448449.10000014305,448202.019,456985.293,1,40,,
trial,html.Screen,6_13_0,2023-11-29T16:51:55.306Z,,,,1,-0.7871162143493278,0.8429329800778957,,,true,hl,9795.00700019073,response,1.011737552725394,1.2,-1.2,-0.8500530224490773,1.2,-1.2,high,low,,ISIC_3439215.JPG,,ISIC_2998367.JPG,,26,true,0.3600000000000002,hl,keypress(j),0,false,466780.60000014305,466780.30000019073,456951.748,457212.40000009537,456985.293,466551.876,1,40,14,
sequence,flow.Sequence,6_13,2023-11-29T16:51:55.307Z,,,,,,,,,,,9795.00700019073,completion,,,,,,,high,low,,,,,,,true,,,,,false,466781,466780.30000019073,456951.748,457212.30000019073,456985.293,466551.876,1,40,,
trial,html.Screen,6_14_0,2023-11-29T16:52:05.441Z,,,,1,-0.809764442462202,1.005337148078696,,,true,hl,10363.12400000001,response,1.2331439637486756,1.2,-1.2,-0.9691143900156988,1.2,-1.2,high,low,,ISIC_2379379.JPG,,ISIC_7877488.JPG,,33,true,0.42000000000000026,hl,keypress(j),0,false,476915.10000014305,476915,466518.543,466781.2000000477,466551.876,476668.539,1,40,15,
sequence,flow.Sequence,6_14,2023-11-29T16:52:05.441Z,,,,,,,,,,,10363.12400000001,completion,,,,,,,high,low,,,,,,,true,,,,,false,476915.2000000477,476915,466518.543,466781.10000014305,466551.876,476668.539,1,40,,
trial,html.Screen,6_15_0,2023-11-29T16:52:16.530Z,,,,1,0.8487429103619056,-0.9778257804233036,,,true,lh,11335.96100000001,response,-0.7870237732709365,1.2,-1.2,0.9172955251119376,1.2,-1.2,low,high,,ISIC_4554863.JPG,,ISIC_0057716.JPG,,27,true,0.42000000000000026,lh,keypress(e),0,false,488004.7000000477,488004.5,476651.766,476915.2000000477,476668.539,487768.511,1,40,16,
sequence,flow.Sequence,6_15,2023-11-29T16:52:16.531Z,,,,,,,,,,,11335.96100000001,completion,,,,,,,low,high,,,,,,,true,,,,,false,488005.10000014305,488004.5,476651.766,476915.2000000477,476668.539,487768.511,1,40,,
trial,html.Screen,6_16_0,2023-11-29T16:52:21.667Z,,,,1,1.0143509683988825,-1.3163955902021656,,,true,lh,5372.289000190736,response,-0.8816288864119318,1.2,-1.2,0.801867301188093,1.2,-1.2,low,high,,ISIC_0062031.JPG,,ISIC_9196783.JPG,,27,true,0.42000000000000026,lh,keypress(e),0,false,493141.10000014305,493140.80000019073,487751.473,488005.30000019073,487768.511,492901.831,1,40,17,
sequence,flow.Sequence,6_16,2023-11-29T16:52:21.667Z,,,,,,,,,,,5372.289000190736,completion,,,,,,,low,high,,,,,,,true,,,,,false,493141.5,493140.80000019073,487751.473,488005.30000019073,487768.511,492901.831,1,40,,
trial,html.Screen,6_17_0,2023-11-29T16:52:33.443Z,,,,1,0.8534691366511764,-1.03975580494588,,,true,lh,12015.168999999994,response,-1.0213365328004047,1.2,-1.2,1.088524359911891,1.2,-1.2,low,high,,ISIC_0056788.JPG,,ISIC_5434229.JPG,,27,true,0.42000000000000026,lh,keypress(e),0,false,504917.2000000477,504917,492885.249,493141.60000014305,492901.831,504685.129,1,40,18,
sequence,flow.Sequence,6_17,2023-11-29T16:52:33.443Z,,,,,,,,,,,12015.168999999994,completion,,,,,,,low,high,,,,,,,true,,,,,false,504917.60000014305,504917,492885.249,493141.5,492901.831,504685.129,1,40,,
trial,html.Screen,6_18_0,2023-11-29T16:52:42.297Z,,,,1,-0.7809949855371787,0.8493861117004308,,,true,hl,9085.771000095352,response,0.9696118525781644,1.2,-1.2,-0.9244148283103414,1.2,-1.2,high,low,,ISIC_7450481.JPG,,ISIC_7927525.JPG,,26,true,0.3600000000000002,hl,keypress(j),0,false,513771,513770.90000009537,504668.031,504917.80000019073,504685.129,513535.379,1,40,19,
sequence,flow.Sequence,6_18,2023-11-29T16:52:42.297Z,,,,,,,,,,,9085.771000095352,completion,,,,,,,high,low,,,,,,,true,,,,,false,513771.10000014305,513770.90000009537,504668.031,504917.80000019073,504685.129,513535.379,1,40,,
trial,html.Screen,6_19_0,2023-11-29T16:52:50.027Z,,,,1,-1.1033977063872138,-1.2513071571733083,,,true,hh,7965.120999999985,response,0.9069195139552818,1.2,-1.2,1.17726864031644,1.2,-1.2,high,high,,ISIC_0025472.JPG,,ISIC_9728003.JPG,,253,true,0.42000000000000026,hh,keypress(i),0,false,521500.80000019073,521500.5,513518.159,513771.10000014305,513535.379,521268.432,1,40,20,
sequence,flow.Sequence,6_19,2023-11-29T16:52:50.027Z,,,,,,,,,,,7965.120999999985,completion,,,,,,,high,high,,,,,,,true,,,,,false,521501.2000000477,521500.5,513518.159,513771.10000014305,513535.379,521268.432,1,40,,
trial,html.Screen,6_20_0,2023-11-29T16:53:00.259Z,,,,1,1.2724584600905462,1.1411016103695344,,,true,ll,10463.66800014308,response,-1.1253220985777015,1.2,-1.2,-1.108725659461368,1.2,-1.2,low,low,,ISIC_0059625.JPG,,ISIC_0054954.JPG,,30,true,0.1,ll,keypress(f),0,false,531732.3000001907,531732.100000143,521251.57,521501.40000009537,521268.432,531503.075,1,40,21,
sequence,flow.Sequence,6_20,2023-11-29T16:53:00.259Z,,,,,,,,,,,10463.66800014308,completion,,,,,,,low,low,,,,,,,true,,,,,false,531732.7000000477,531732.100000143,521251.57,521501.30000019073,521268.432,531503.075,1,40,,
trial,html.Screen,6_21_0,2023-11-29T16:53:10.529Z,,,,1,1.0789197754694622,1.1654690806750023,,,true,ll,10499.425000000047,response,-1.156827121261563,1.2,-1.2,-1.2544342720917778,1.2,-1.2,low,low,,ISIC_1576437.JPG,,ISIC_0060397.JPG,,53,true,0.15000000000000002,ll,keypress(f),0,false,542002.600000143,542002.5,531468.18,531732.9000000954,531503.075,541768.365,1,40,22,
sequence,flow.Sequence,6_21,2023-11-29T16:53:10.529Z,,,,,,,,,,,10499.425000000047,completion,,,,,,,low,low,,,,,,,true,,,,,false,542002.8000001907,542002.5,531468.18,531732.9000000954,531503.075,541768.365,1,40,,
trial,html.Screen,6_22_0,2023-11-29T16:53:21.441Z,,,,1,1.0026266089287914,-1.0913275913920335,,,true,lh,11146.535000095377,response,-1.276222161935671,1.2,-1.2,0.9657780821973284,1.2,-1.2,low,high,,ISIC_0033520.JPG,,ISIC_6710411.JPG,,27,true,0.42000000000000026,lh,keypress(e),0,false,552914.9000000954,552914.9000000954,541751.615,542002.8000001907,541768.365,552668.302,1,40,23,
sequence,flow.Sequence,6_22,2023-11-29T16:53:21.441Z,,,,,,,,,,,11146.535000095377,completion,,,,,,,low,high,,,,,,,true,,,,,false,552915.100000143,552914.9000000954,541751.615,542002.8000001907,541768.365,552668.302,1,40,,
trial,html.Screen,6_23_0,2023-11-29T16:53:31.746Z,,,,1,-0.7833710010171356,0.9315588090336896,,,true,hl,10551.398000047659,response,1.2075172235545184,1.2,-1.2,-0.9116724966267612,1.2,-1.2,high,low,,ISIC_3826102.JPG,,ISIC_0024235.JPG,,26,true,0.3600000000000002,hl,keypress(j),0,false,563220,563219.7000000477,552651.316,552915.2000000477,552668.302,562984.974,1,40,24,
sequence,flow.Sequence,6_23,2023-11-29T16:53:31.747Z,,,,,,,,,,,10551.398000047659,completion,,,,,,,high,low,,,,,,,true,,,,,false,563220.3000001907,563219.7000000477,552651.316,552915.2000000477,552668.302,562984.974,1,40,,
trial,html.Screen,6_24_0,2023-11-29T16:53:40.475Z,,,,1,0.879102500583965,-1.0933081951979773,,,true,lh,8963.525999999954,response,-1.0164576835546473,1.2,-1.2,0.8120626538423016,1.2,-1.2,low,high,,ISIC_0046223.JPG,,ISIC_6002694.JPG,,27,true,0.42000000000000026,lh,keypress(e),0,false,571948.8000001907,571948.5,562968.193,563220.5,562984.974,571718.896,1,40,25,
sequence,flow.Sequence,6_24,2023-11-29T16:53:40.475Z,,,,,,,,,,,8963.525999999954,completion,,,,,,,low,high,,,,,,,true,,,,,false,571949.100000143,571948.5,562968.193,563220.5,562984.974,571718.896,1,40,,
trial,html.Screen,6_25_0,2023-11-29T16:53:53.035Z,,,,1,-1.2169050727663315,-1.1067845563421794,,,true,hh,12788.904000190785,response,1.0885984639975343,1.2,-1.2,1.5443766163408943,1.2,-1.2,high,high,,ISIC_7016261.JPG,,ISIC_0012740.JPG,,179,true,0.3600000000000002,hh,keypress(i),0,false,584507.9000000954,584507.8000001907,571684.754,571949.4000000954,571718.896,584268.222,1,40,26,
sequence,flow.Sequence,6_25,2023-11-29T16:53:53.035Z,,,,,,,,,,,12788.904000190785,completion,,,,,,,high,high,,,,,,,true,,,,,false,584508.3000001907,584507.8000001907,571684.754,571949.3000001907,571718.896,584268.222,1,40,,
trial,html.Screen,6_26_0,2023-11-29T16:54:03.523Z,,,,1,-1.2282561398079586,-1.210457198775374,,,true,hh,10727.3780001431,response,1.2012395086389958,1.2,-1.2,1.0618985767073823,1.2,-1.2,high,high,,ISIC_9141817.JPG,,ISIC_9876004.JPG,,26,true,0.15000000000000002,hh,keypress(i),0,false,594995.8000001907,594995.600000143,584251.203,584508.5,584268.222,594784.881,1,40,27,
sequence,flow.Sequence,6_26,2023-11-29T16:54:03.523Z,,,,,,,,,,,10727.3780001431,completion,,,,,,,high,high,,,,,,,true,,,,,false,594996.2000000477,594995.600000143,584251.203,584508.4000000954,584268.222,594784.881,1,40,,
trial,html.Screen,6_27_0,2023-11-29T16:54:15.354Z,,,,1,1.331700944308701,-0.9395196143259436,,,true,lh,12042.019000095315,response,-1.0164576835546473,1.2,-1.2,0.8120626538423016,1.2,-1.2,low,high,,ISIC_1668831.JPG,,ISIC_6002694.JPG,,27,true,0.42000000000000026,lh,keypress(e),0,false,606827,606826.9000000954,594734.803,594996.5,594784.881,606584.855,1,40,28,
sequence,flow.Sequence,6_27,2023-11-29T16:54:15.354Z,,,,,,,,,,,12042.019000095315,completion,,,,,,,low,high,,,,,,,true,,,,,false,606827.100000143,606826.9000000954,594734.803,594996.4000000954,594784.881,606584.855,1,40,,
trial,html.Screen,6_28_0,2023-11-29T16:54:26.963Z,,,,1,-0.8655167308525522,0.9298580423306444,,,true,hl,11850.945000190753,response,0.8534691366511764,1.2,-1.2,-1.03975580494588,1.2,-1.2,high,low,,ISIC_4603706.JPG,,ISIC_0056788.JPG,,26,true,0.3600000000000002,hl,keypress(j),0,false,618436,618435.8000001907,606567.782,606827.100000143,606584.855,618201.75,1,40,29,
sequence,flow.Sequence,6_28,2023-11-29T16:54:26.963Z,,,,,,,,,,,11850.945000190753,completion,,,,,,,high,low,,,,,,,true,,,,,false,618436.4000000954,618435.8000001907,606567.782,606827.100000143,606584.855,618201.75,1,40,,
trial,html.Screen,6_29_0,2023-11-29T16:54:37.867Z,,,,1,-1.101214461533281,-1.1849883512428183,,,true,hh,11137.850000143051,response,1.0230514974175424,1.2,-1.2,0.9473579617457568,1.2,-1.2,high,high,,ISIC_0064943.JPG,,ISIC_0012037.JPG,,253,true,0.42000000000000026,hh,keypress(i),0,false,629339.9000000954,629339.600000143,618184.67,618436.600000143,618201.75,629118.126,1,40,30,
sequence,flow.Sequence,6_29,2023-11-29T16:54:37.867Z,,,,,,,,,,,11137.850000143051,completion,,,,,,,high,high,,,,,,,true,,,,,false,629340.2000000477,629339.600000143,618184.67,618436.600000143,618201.75,629118.126,1,40,,
trial,html.Screen,6_30_0,2023-11-29T16:54:46.364Z,,,,1,-0.809764442462202,1.005337148078696,,,true,hl,8718.074000047636,response,1.0751036484083878,1.2,-1.2,-1.143906455483852,1.2,-1.2,high,low,,ISIC_2379379.JPG,,ISIC_0064406.JPG,,26,true,0.3600000000000002,hl,keypress(j),0,false,637836.5,637836.2000000477,629084.658,629340.4000000954,629118.126,637601.515,1,40,31,
sequence,flow.Sequence,6_30,2023-11-29T16:54:46.365Z,,,,,,,,,,,8718.074000047636,completion,,,,,,,high,low,,,,,,,true,,,,,false,637836.9000000954,637836.2000000477,629084.658,629340.4000000954,629118.126,637601.515,1,40,,
trial,html.Screen,6_31_0,2023-11-29T16:54:54.284Z,,,,1,-1.1474466950560966,-1.268445326285509,,,true,hh,8154.18500004767,response,1.0955230579285264,1.2,-1.2,0.8842300616754196,1.2,-1.2,high,high,,ISIC_5216586.JPG,,ISIC_4148086.JPG,,253,true,0.42000000000000026,hh,keypress(i),0,false,645755.9000000954,645755.7000000477,637584.503,637837.100000143,637601.515,645518.123,1,40,32,
sequence,flow.Sequence,6_31,2023-11-29T16:54:54.284Z,,,,,,,,,,,8154.18500004767,completion,,,,,,,high,high,,,,,,,true,,,,,false,645756.3000001907,645755.7000000477,637584.503,637837.100000143,637601.515,645518.123,1,40,,
trial,html.Screen,6_32_0,2023-11-29T16:55:06.105Z,,,,1,1.3411179702686655,1.255103311449152,,,true,ll,12059.577000047662,response,-1.2322060291690602,1.2,-1.2,-1.2686491386389651,1.2,-1.2,low,low,,ISIC_5611010.JPG,,ISIC_0011697.JPG,,30,true,0.1,ll,keypress(f),0,false,657577.8000001907,657577.7000000477,645501.356,645756.5,645518.123,657334.692,1,40,33,
sequence,flow.Sequence,6_32,2023-11-29T16:55:06.106Z,,,,,,,,,,,12059.577000047662,completion,,,,,,,low,low,,,,,,,true,,,,,false,657577.9000000954,657577.7000000477,645501.356,645756.4000000954,645518.123,657334.692,1,40,,
trial,html.Screen,6_33_0,2023-11-29T16:55:16.874Z,,,,1,-1.1383813631375823,-1.1319312220332556,,,true,hh,11012.008000047645,response,1.241406480986552,1.2,-1.2,1.081912821786771,1.2,-1.2,high,high,,ISIC_6227397.JPG,,ISIC_4223155.JPG,,26,true,0.15000000000000002,hh,keypress(i),0,false,668346.7000000477,668346.7000000477,657317.769,657577.9000000954,657334.692,668101.347,1,40,34,
sequence,flow.Sequence,6_33,2023-11-29T16:55:16.874Z,,,,,,,,,,,11012.008000047645,completion,,,,,,,high,high,,,,,,,true,,,,,false,668346.8000001907,668346.7000000477,657317.769,657577.9000000954,657334.692,668101.347,1,40,,
trial,html.Screen,6_34_0,2023-11-29T16:55:23.987Z,,,,1,1.2724584600905462,1.1411016103695344,,,true,ll,7358.053000095417,response,-1.185875658992962,1.2,-1.2,-1.2635548590325487,1.2,-1.2,low,low,,ISIC_0059625.JPG,,ISIC_0011703.JPG,,30,true,0.1,ll,keypress(f),0,false,675459.600000143,675459.4000000954,668084.332,668346.8000001907,668101.347,675234.682,1,40,35,
sequence,flow.Sequence,6_34,2023-11-29T16:55:23.988Z,,,,,,,,,,,7358.053000095417,completion,,,,,,,low,low,,,,,,,true,,,,,false,675460,675459.4000000954,668084.332,668346.8000001907,668101.347,675234.682,1,40,,
trial,html.Screen,6_35_0,2023-11-29T16:55:33.268Z,,,,1,0.879102500583965,-1.0933081951979773,,,true,lh,9505.718000095338,response,-0.9388660854518424,1.2,-1.2,0.79533948698576,1.2,-1.2,low,high,,ISIC_0046223.JPG,,ISIC_9291926.JPG,,27,true,0.42000000000000026,lh,keypress(e),0,false,684740.7000000477,684740.4000000954,675201.378,675460.100000143,675234.682,684501.358,1,40,36,
sequence,flow.Sequence,6_35,2023-11-29T16:55:33.269Z,,,,,,,,,,,9505.718000095338,completion,,,,,,,low,high,,,,,,,true,,,,,false,684741.100000143,684740.4000000954,675201.378,675460.100000143,675234.682,684501.358,1,40,,
trial,html.Screen,6_36_0,2023-11-29T16:55:43.379Z,,,,1,1.2318069697449794,1.1703576816778267,,,true,ll,10349.842000047676,response,-0.9063993235413598,1.2,-1.2,-1.2433032962617423,1.2,-1.2,low,low,,ISIC_2732573.JPG,,ISIC_0010050.JPG,,245,true,0.3600000000000002,ll,keypress(f),0,false,694851.5,694851.2000000477,684484.362,684741.3000001907,684501.358,694617.946,1,40,37,
sequence,flow.Sequence,6_36,2023-11-29T16:55:43.380Z,,,,,,,,,,,10349.842000047676,completion,,,,,,,low,low,,,,,,,true,,,,,false,694851.9000000954,694851.2000000477,684484.362,684741.2000000477,684501.358,694617.946,1,40,,
trial,html.Screen,6_37_0,2023-11-29T16:55:50.771Z,,,,1,-0.8623414234919863,0.782830143980698,,,true,hl,7624.154000143055,response,1.2695509547992938,1.2,-1.2,-0.9641099676945492,1.2,-1.2,high,low,,ISIC_2727016.JPG,,ISIC_0025841.JPG,,26,true,0.3600000000000002,hl,keypress(j),0,false,702242.2000000477,702242.100000143,694601.186,694852.100000143,694617.946,702001.253,1,40,38,
sequence,flow.Sequence,6_37,2023-11-29T16:55:50.771Z,,,,,,,,,,,7624.154000143055,completion,,,,,,,high,low,,,,,,,true,,,,,false,702242.4000000954,702242.100000143,694601.186,694852,694617.946,702001.253,1,40,,
trial,html.Screen,6_38_0,2023-11-29T16:56:04.722Z,,,,1,1.1137763092539212,1.1599906701455132,,,true,ll,14192.847000143025,response,-1.2435042401134029,1.2,-1.2,-1.0592032583207498,1.2,-1.2,low,low,,ISIC_5413788.JPG,,ISIC_0056119.JPG,,339,true,0.42000000000000026,ll,keypress(f),0,false,716194.2000000477,716194.100000143,701984.602,702242.4000000954,702001.253,715967.891,1,40,39,
sequence,flow.Sequence,6_38,2023-11-29T16:56:04.723Z,,,,,,,,,,,14192.847000143025,completion,,,,,,,low,low,,,,,,,true,,,,,false,716194.3000001907,716194.100000143,701984.602,702242.4000000954,702001.253,715967.891,1,40,,
trial,html.Screen,6_39_0,2023-11-29T16:56:16.636Z,,,,1,-0.8947611078712571,0.8960964505004638,,,true,hl,12139.609000000055,response,0.869932994914832,1.2,-1.2,-0.8880533324432531,1.2,-1.2,high,low,,ISIC_6441128.JPG,,ISIC_8617084.JPG,,26,true,0.3600000000000002,hl,keypress(j),0,false,728107.8000001907,728107.5,715934.079,716194.4000000954,715967.891,727867.863,1,40,40,
sequence,flow.Sequence,6_39,2023-11-29T16:56:16.636Z,,,,,,,,,,,12139.609000000055,completion,,,,,,,high,low,,,,,,,true,,,,,false,728108.100000143,728107.5,715934.079,716194.4000000954,715967.891,727867.863,1,40,,
practice_loop,flow.Loop,6,2023-11-29T16:56:16.637Z,,,,,,,,,,,412271.846,completion,,,,,,,,,,,,,,,true,,,,,false,728108.4000000954,728107.5,315818.989,316066.80000019073,315835.654,727867.863,1,40,,
stair_instructions,html.Screen,7,2023-11-29T16:56:33.786Z,,,,,,,,,,,17389.037000095355,response,,,,,,,,,,,,,,,,,continue,click button,,,745257.4000000954,745256.9000000954,727851.017,728108.5,727867.863,745034.683,,,,
trial,html.Screen,8_0_0,2023-11-29T16:56:44.166Z,,,,2,-0.0027483411352856,-0.0100996915276271,,0.05,false,ll,10603.017000047723,response,-0.8665886246441876,1.2,-1.2,-0.8507210279123499,1.2,-1.2,low,low,,ISIC_7364041.JPG,,ISIC_1071355.JPG,33,339,false,0.42000000000000026,hl,keypress(j),0,true,755638,755637.7000000477,745017.805,745257.4000000954,745034.683,755401.148,1,40,1,
sequence,flow.Sequence,8_0,2023-11-29T16:56:44.167Z,,,,,,,,,,,10603.017000047723,completion,,,,,,,low,low,,,,,,,false,,,,,true,755638.4000000954,755637.7000000477,745017.805,745257.4000000954,745034.683,755401.148,1,40,,
trial,html.Screen,8_1_0,2023-11-29T16:56:54.909Z,,,,2,0.0409338693593207,-0.0072462710499874,,0.05,true,hh,10978.552000047639,response,1.2318069697449794,1.15,-1.2,1.1703576816778267,1.15,-1.15,high,high,,ISIC_3608788.JPG,,ISIC_2732573.JPG,33,30,false,0.13,hh,keypress(i),0,true,766380,766379.7000000477,755384.507,755638.600000143,755401.148,766151.112,1,40,2,
sequence,flow.Sequence,8_1,2023-11-29T16:56:54.909Z,,,,,,,,,,,10978.552000047639,completion,,,,,,,high,high,,,,,,,false,,,,,true,766380.4000000954,766379.7000000477,755384.507,755638.600000143,755401.148,766151.112,1,40,,
trial,html.Screen,8_2_0,2023-11-29T16:57:07.397Z,,,,2,0.0051189696037511,-0.0396625911332438,,0.05,false,hl,12716.988000143087,response,0.8979276789594874,1.15,-1.15,-0.925374811016654,1.15,-1.15,high,low,,ISIC_9742891.JPG,,ISIC_4208361.JPG,33,25,false,0.31000000000000016,lh,keypress(e),0,true,778868.4000000954,778868.100000143,766117.657,766380.600000143,766151.112,778651.048,1,40,3,
sequence,flow.Sequence,8_2,2023-11-29T16:57:07.398Z,,,,,,,,,,,12716.988000143087,completion,,,,,,,high,low,,,,,,,false,,,,,true,778868.8000001907,778868.100000143,766117.657,766380.600000143,766151.112,778651.048,1,40,,
trial,html.Screen,8_3_0,2023-11-29T16:57:14.586Z,,,,2,-0.0450282431170921,0,,0.05,false,hl,7406.252000190783,response,0.858338058340649,1.15,-1.15,-0.9540612223480284,1.15,-1.15,high,low,,ISIC_1805163.JPG,,ISIC_8922893.JPG,33,25,false,0.31000000000000016,hh,keypress(i),0,true,786057.4000000954,786057.3000001907,778617.536,778868.9000000954,778651.048,785817.679,1,40,4,
sequence,flow.Sequence,8_3,2023-11-29T16:57:14.586Z,,,,,,,,,,,7406.252000190783,completion,,,,,,,high,low,,,,,,,false,,,,,true,786057.5,786057.3000001907,778617.536,778868.9000000954,778651.048,785817.679,1,40,,
trial,html.Screen,8_4_0,2023-11-29T16:57:28.733Z,,,,2,0.0245376145053177,-0.0436993426328401,,0.05,false,lh,14385.921000143047,response,-0.809764442462202,1.15,-1.15,1.005337148078696,1.15,-1.15,low,high,,ISIC_0056444.JPG,,ISIC_2379379.JPG,33,27,false,0.3700000000000002,hl,keypress(j),0,true,800203.8000001907,800203.600000143,785800.945,786057.5,785817.679,799967.639,1,40,5,
sequence,flow.Sequence,8_4,2023-11-29T16:57:28.733Z,,,,,,,,,,,14385.921000143047,completion,,,,,,,low,high,,,,,,,false,,,,,true,800204.3000001907,800203.600000143,785800.945,786057.5,785817.679,799967.639,1,40,,
trial,html.Screen,8_5_0,2023-11-29T16:57:37.548Z,,,,2,0.0112310719058792,-0.0469047359904117,,0.05,false,hl,9051.561000047717,response,1.1181734135756094,1.15,-1.15,-0.944560381774994,1.15,-1.15,high,low,,ISIC_0068184.JPG,,ISIC_9688534.JPG,33,25,false,0.31000000000000016,ll,keypress(f),0,true,809019.600000143,809019.2000000477,799950.735,800204.5,799967.639,808784.301,1,40,6,
sequence,flow.Sequence,8_5,2023-11-29T16:57:37.549Z,,,,,,,,,,,9051.561000047717,completion,,,,,,,high,low,,,,,,,false,,,,,true,809019.9000000954,809019.2000000477,799950.735,800204.4000000954,799967.639,808784.301,1,40,,
trial,html.Screen,8_6_0,2023-11-29T16:57:50.605Z,,,,2,0.0051189696037511,-0.0396625911332438,,0.05,false,lh,13290.799000143073,response,-0.8816288864119318,1.15,-1.15,0.801867301188093,1.15,-1.15,low,high,,ISIC_9742891.JPG,,ISIC_9196783.JPG,33,27,false,0.3700000000000002,ll,keypress(f),0,true,822075.4000000954,822075.100000143,808767.611,809020.100000143,808784.301,821834.222,1,40,7,
sequence,flow.Sequence,8_6,2023-11-29T16:57:50.605Z,,,,,,,,,,,13290.799000143073,completion,,,,,,,low,high,,,,,,,false,,,,,true,822075.8000001907,822075.100000143,808767.611,809020,808784.301,821834.222,1,40,,
trial,html.Screen,8_7_0,2023-11-29T16:58:00.819Z,,,,2,-0.0107854985447517,-0.0478010417136109,,0.05,false,hl,10455.3780001431,response,0.8809306963311293,1.15,-1.15,-0.8614910030038974,1.15,-1.15,high,low,,ISIC_0010500.JPG,,ISIC_0013731.JPG,33,25,false,0.31000000000000016,ll,keypress(f),0,true,832289.8000001907,832289.600000143,821817.285,822076,821834.222,832050.896,1,40,8,
sequence,flow.Sequence,8_7,2023-11-29T16:58:00.819Z,,,,,,,,,,,10455.3780001431,completion,,,,,,,high,low,,,,,,,false,,,,,true,832289.8000001907,832289.600000143,821817.285,822076,821834.222,832050.896,1,40,,
trial,html.Screen,8_8_0,2023-11-29T16:58:09.773Z,,,,2,0,0.0264544974620926,,0.05,true,lh,9192.004000095418,response,-0.7809949855371787,1.15,-1.15,0.8493861117004308,1.15,-0.8215599447079145,low,high,,ISIC_0056991.JPG,,ISIC_7450481.JPG,33,27,false,0.3700000000000002,lh,keypress(e),0,true,841243.100000143,841242.9000000954,832033.939,832289.9000000954,832050.896,841000.878,1,40,9,
sequence,flow.Sequence,8_8,2023-11-29T16:58:09.773Z,,,,,,,,,,,9192.004000095418,completion,,,,,,,low,high,,,,,,,false,,,,,true,841243.5,841242.9000000954,832033.939,832289.9000000954,832050.896,841000.878,1,40,,
trial,html.Screen,8_9_0,2023-11-29T16:58:19.006Z,,,,2,0.0362376068089956,0.047825070846155,,0.05,true,ll,9475.322000047658,response,-1.085089185942698,1.15,-1.0999999999999999,-0.8165346395107898,1.15,-0.8215599447079145,low,low,,ISIC_6985114.JPG,,ISIC_2283628.JPG,33,34,false,0.1,ll,keypress(f),0,true,850476.600000143,850476.2000000477,840984.148,841243.7000000477,841000.878,850234.171,1,40,10,
sequence,flow.Sequence,8_9,2023-11-29T16:58:19.007Z,,,,,,,,,,,9475.322000047658,completion,,,,,,,low,low,,,,,,,false,,,,,true,850477,850476.2000000477,840984.148,841243.7000000477,841000.878,850234.171,1,40,,
trial,html.Screen,8_10_0,2023-11-29T16:58:27.413Z,,,,2,0.0277178575053843,-0.0395587463147856,,0.05,true,hh,8649.02900004771,response,1.09666761087476,1.15,-1.0999999999999999,1.1072126870290426,1.15,-0.8215599447079145,high,high,,ISIC_0010807.JPG,,ISIC_0071754.JPG,33,30,false,0.13,hh,keypress(i),0,true,858883.4000000954,858883.2000000477,850217.255,850477.100000143,850234.171,858650.86,1,40,11,
sequence,flow.Sequence,8_10,2023-11-29T16:58:27.414Z,,,,,,,,,,,8649.02900004771,completion,,,,,,,high,high,,,,,,,false,,,,,true,858883.9000000954,858883.2000000477,850217.255,850477.100000143,850234.171,858650.86,1,40,,
trial,html.Screen,8_11_0,2023-11-29T16:58:36.982Z,,,,2,-0.039728379742806,0.0228701131373768,,0.05,true,ll,9800.940000190749,response,-1.1213656242390098,1.15,-1.0999999999999999,-0.8104939182526311,1.0519401489519014,-0.8215599447079145,low,low,,ISIC_0054073.JPG,,ISIC_1605945.JPG,33,34,false,0.1,ll,keypress(f),0,true,868452.100000143,868451.8000001907,858634.12,858884.100000143,858650.86,868217.468,1,40,12,
sequence,flow.Sequence,8_11,2023-11-29T16:58:36.982Z,,,,,,,,,,,9800.940000190749,completion,,,,,,,low,low,,,,,,,false,,,,,true,868452.5,868451.8000001907,858634.12,858884.100000143,858650.86,868217.468,1,40,,
trial,html.Screen,8_12_0,2023-11-29T16:58:47.638Z,,,,2,0.0159061451859594,0.0296598845560212,,0.05,false,hl,10889.632000143058,response,1.011737552725394,1.15,-1.0499999999999998,-0.8500530224490773,1.0519401489519014,-0.7715599447079144,high,low,,ISIC_0072564.JPG,,ISIC_2998367.JPG,33,27,false,0.19000000000000006,lh,keypress(e),0,true,879107.5,879107.100000143,868200.734,868452.7000000477,868217.468,878867.482,1,40,13,
sequence,flow.Sequence,8_12,2023-11-29T16:58:47.638Z,,,,,,,,,,,10889.632000143058,completion,,,,,,,high,low,,,,,,,false,,,,,true,879107.9000000954,879107.100000143,868200.734,868452.600000143,868217.468,878867.482,1,40,,
trial,html.Screen,8_13_0,2023-11-29T16:58:51.438Z,,,,2,-0.0050679133050021,0.0009714874637896,,0.05,true,hh,4040.4180000954075,response,1.0650525146668357,1.15,-1.0499999999999998,0.9852293825146712,1.0519401489519014,-0.8215599447079145,high,high,,ISIC_9848743.JPG,,ISIC_6642608.JPG,33,26,false,0.11,hh,keypress(i),0,true,882908.100000143,882907.9000000954,878850.53,879108,878867.482,882667.402,1,40,14,
sequence,flow.Sequence,8_13,2023-11-29T16:58:51.439Z,,,,,,,,,,,4040.4180000954075,completion,,,,,,,high,high,,,,,,,false,,,,,true,882908.600000143,882907.9000000954,878850.53,879108,878867.482,882667.402,1,40,,
trial,html.Screen,8_14_0,2023-11-29T16:58:57.925Z,,,,2,-0.0057914759495055,-0.0074667911845194,,0.05,false,ll,6727.398000190733,response,-1.0529768630659295,1.15,-1.0499999999999998,-0.7530547977543617,1.0519401489519014,-0.8215599447079145,low,low,,ISIC_0058723.JPG,,ISIC_0067743.JPG,33,35,false,0.1,lh,keypress(e),0,true,889395.2000000477,889394.8000001907,882650.902,882908.8000001907,882667.402,889150.748,1,40,15,
sequence,flow.Sequence,8_14,2023-11-29T16:58:57.926Z,,,,,,,,,,,6727.398000190733,completion,,,,,,,low,low,,,,,,,false,,,,,true,889395.600000143,889394.8000001907,882650.902,882908.8000001907,882667.402,889150.748,1,40,,
trial,html.Screen,8_15_0,2023-11-29T16:59:07.701Z,,,,2,0.0277178575053843,-0.0395587463147856,,0.05,false,lh,10019.952000047662,response,-0.9873794329144926,1.15,-1.0499999999999998,0.7991077882008257,1.0519401489519014,-0.8715599447079145,low,high,,ISIC_0010807.JPG,,ISIC_0013498.JPG,33,26,false,0.27000000000000013,hl,keypress(j),0,true,899171,899170.7000000477,889133.842,889395.8000001907,889150.748,898934.123,1,40,16,
sequence,flow.Sequence,8_15,2023-11-29T16:59:07.702Z,,,,,,,,,,,10019.952000047662,completion,,,,,,,low,high,,,,,,,false,,,,,true,899171.3000001907,899170.7000000477,889133.842,889395.7000000477,889150.748,898934.123,1,40,,
trial,html.Screen,8_16_0,2023-11-29T16:59:18.310Z,,,,2,-0.0070725527271049,-0.0049995141077508,,0.05,true,ll,10845.077000047662,response,-1.1562451639812497,1.15,-1.0999999999999999,-0.8551038865291761,1.1019401489519014,-0.8715599447079145,low,low,,ISIC_6124481.JPG,,ISIC_0011958.JPG,33,31,false,0.1,ll,keypress(f),0,true,909779.4000000954,909779.2000000477,898917.292,899171.5,898934.123,909550.719,1,40,17,
sequence,flow.Sequence,8_16,2023-11-29T16:59:18.310Z,,,,,,,,,,,10845.077000047662,completion,,,,,,,low,low,,,,,,,false,,,,,true,909779.9000000954,909779.2000000477,898917.292,899171.5,898934.123,909550.719,1,40,,
trial,html.Screen,8_17_0,2023-11-29T16:59:32.340Z,,,,2,-0.039728379742806,0.0228701131373768,,0.05,false,lh,14258.981000047643,response,-1.276222161935671,1.15,-1.0999999999999999,0.9657780821973284,1.1019401489519014,-0.8715599447079145,low,high,,ISIC_0054073.JPG,,ISIC_6710411.JPG,33,27,false,0.3200000000000002,hl,keypress(j),0,true,923809.8000001907,923809.7000000477,909517.095,909780,909550.719,923567.289,1,40,18,
sequence,flow.Sequence,8_17,2023-11-29T16:59:32.340Z,,,,,,,,,,,14258.981000047643,completion,,,,,,,low,high,,,,,,,false,,,,,true,923809.8000001907,923809.7000000477,909517.095,909780,909550.719,923567.289,1,40,,
trial,html.Screen,8_18_0,2023-11-29T16:59:41.396Z,,,,2,0.013431314305098,-0.0140597582944232,,0.05,true,ll,9298.21100000001,response,-1.1233838977156558,1.15,-1.15,-0.8600511147636151,1.1519401489519014,-0.8715599447079145,low,low,,ISIC_0069617.JPG,,ISIC_0031965.JPG,33,28,false,0.1,ll,keypress(f),0,true,932865.600000143,932865.5,923550.592,923810,923567.289,932634.438,1,40,19,
sequence,flow.Sequence,8_18,2023-11-29T16:59:41.396Z,,,,,,,,,,,9298.21100000001,completion,,,,,,,low,low,,,,,,,false,,,,,true,932865.7000000477,932865.5,923550.592,923809.9000000954,923567.289,932634.438,1,40,,
trial,html.Screen,8_19_0,2023-11-29T16:59:48.774Z,,,,2,-0.0450282431170921,0,,0.05,false,hh,7608.462000095402,response,1.2148140264214349,1.15,-1.15,1.0436713726380966,1.1519401489519014,-0.9417175062396355,high,high,,ISIC_1805163.JPG,,ISIC_7277310.JPG,33,28,false,0.13,hl,keypress(j),0,true,940243.2000000477,940242.9000000954,932600.596,932865.8000001907,932634.438,940000.606,1,40,20,
sequence,flow.Sequence,8_19,2023-11-29T16:59:48.775Z,,,,,,,,,,,7608.462000095402,completion,,,,,,,high,high,,,,,,,false,,,,,true,940243.600000143,940242.9000000954,932600.596,932865.8000001907,932634.438,940000.606,1,40,,
trial,html.Screen,8_20_0,2023-11-29T16:59:52.868Z,,,,2,0.0188047466661863,-0.0288346930436979,,0.05,false,lh,4336.194000190706,response,-0.7871162143493278,1.0999999999999999,-1.15,0.8429329800778957,1.1519401489519014,-0.9417175062396355,low,high,,ISIC_0014157.JPG,,ISIC_3439215.JPG,33,27,false,0.3700000000000002,ll,keypress(f),0,true,944336.9000000954,944336.8000001907,939983.903,940243.8000001907,940000.606,944100.549,1,40,21,
sequence,flow.Sequence,8_20,2023-11-29T16:59:52.868Z,,,,,,,,,,,4336.194000190706,completion,,,,,,,low,high,,,,,,,false,,,,,true,944337,944336.8000001907,939983.903,940243.7000000477,940000.606,944100.549,1,40,,
trial,html.Screen,8_21_0,2023-11-29T17:00:04.108Z,,,,2,-0.0116094682222121,0.0258434522530318,,0.05,false,hl,11476.351000095368,response,0.9433720631499012,1.0999999999999999,-0.9052500560324918,-1.0582071940347648,1.1519401489519014,-0.9417175062396355,high,low,,ISIC_9239632.JPG,,ISIC_4890201.JPG,33,26,false,0.2300000000000001,lh,keypress(e),0,true,955577,955576.9000000954,944084.074,944337.2000000477,944100.549,955333.856,1,40,22,
sequence,flow.Sequence,8_21,2023-11-29T17:00:04.108Z,,,,,,,,,,,11476.351000095368,completion,,,,,,,high,low,,,,,,,false,,,,,true,955577.2000000477,955576.9000000954,944084.074,944337.100000143,944100.549,955333.856,1,40,,
trial,html.Screen,8_22_0,2023-11-29T17:00:17.542Z,,,,2,-0.0107854985447517,-0.0478010417136109,,0.05,false,ll,13677.244000143022,response,-0.9054613726799198,1.15,-0.9052500560324918,-1.0522064490699743,1.1519401489519014,-0.9917175062396355,low,low,,ISIC_0010500.JPG,,ISIC_0064860.JPG,33,48,false,0.1,lh,keypress(e),0,true,969011.4000000954,969011.100000143,955317.048,955577.3000001907,955333.856,968767.258,1,40,23,
sequence,flow.Sequence,8_22,2023-11-29T17:00:17.543Z,,,,,,,,,,,13677.244000143022,completion,,,,,,,low,low,,,,,,,false,,,,,true,969011.8000001907,969011.100000143,955317.048,955577.3000001907,955333.856,968767.258,1,40,,
trial,html.Screen,8_23_0,2023-11-29T17:00:26.166Z,,,,2,0.0112310719058792,-0.0469047359904117,,0.05,false,hl,8867.442000047653,response,0.8809306963311293,1.15,-0.9052500560324918,-0.8614910030038974,1.1519401489519014,-1.0417175062396355,high,low,,ISIC_0068184.JPG,,ISIC_0013731.JPG,33,25,false,0.29000000000000015,ll,keypress(f),0,true,977634.9000000954,977634.7000000477,968750.268,969012,968767.258,977400.528,1,40,24,
sequence,flow.Sequence,8_23,2023-11-29T17:00:26.166Z,,,,,,,,,,,8867.442000047653,completion,,,,,,,high,low,,,,,,,false,,,,,true,977635.3000001907,977634.7000000477,968750.268,969011.9000000954,968767.258,977400.528,1,40,,
trial,html.Screen,8_24_0,2023-11-29T17:00:41.310Z,,,,2,-0.0116094682222121,0.0258434522530318,,0.05,true,ll,15378.272000190686,response,-0.8387460443597405,1.15,-0.9052500560324918,-1.12466521758037,1.1519401489519014,-1.0417175062396355,low,low,,ISIC_9239632.JPG,,ISIC_0014189.JPG,33,49,false,0.1,ll,keypress(f),0,true,992779.100000143,992778.8000001907,977383.798,977635.4000000954,977400.528,992533.746,1,40,25,
sequence,flow.Sequence,8_24,2023-11-29T17:00:41.310Z,,,,,,,,,,,15378.272000190686,completion,,,,,,,low,low,,,,,,,false,,,,,true,992779.5,992778.8000001907,977383.798,977635.4000000954,977400.528,992533.746,1,40,,
trial,html.Screen,8_25_0,2023-11-29T17:00:56.375Z,,,,2,-0.0456515796420274,0.0273567130070961,,0.05,true,lh,15308.95400004764,response,-0.658450997652008,1.15,-0.9430781102921336,0.8660404645096786,1.1519401489519014,-0.9430781102921336,low,high,,ISIC_0068610.JPG,,ISIC_6515546.JPG,33,25,false,0.30000000000000016,lh,keypress(e),0,true,1007842.9000000954,1007842.7000000477,992516.744,992779.7000000477,992533.746,1007600.394,1,40,26,
sequence,flow.Sequence,8_25,2023-11-29T17:00:56.375Z,,,,,,,,,,,15308.95400004764,completion,,,,,,,low,high,,,,,,,false,,,,,true,1007843.3000001907,1007842.7000000477,992516.744,992779.7000000477,992533.746,1007600.394,1,40,,
trial,html.Screen,8_26_0,2023-11-29T17:01:01.726Z,,,,2,-0.0389988030702649,-0.0143212271490256,,0.05,false,hl,5594.106000000029,response,1.11969546505004,1.15,-0.9430781102921336,-0.7169584869657797,1.1519401489519014,-0.9430781102921336,high,low,,ISIC_0064669.JPG,,ISIC_0033967.JPG,33,27,false,0.2600000000000001,hh,keypress(i),0,true,1013194.7000000477,1013194.5,1007583.427,1007843.5,1007600.394,1012950.403,1,40,27,
sequence,flow.Sequence,8_26,2023-11-29T17:01:01.727Z,,,,,,,,,,,5594.106000000029,completion,,,,,,,high,low,,,,,,,false,,,,,true,1013195.100000143,1013194.5,1007583.427,1007843.4000000954,1007600.394,1012950.403,1,40,,
trial,html.Screen,8_27_0,2023-11-29T17:01:14.229Z,,,,2,-0.0070725527271049,-0.0049995141077508,,0.05,true,ll,12747.09699999995,response,-0.9249963751334934,1.15,-0.9430781102921336,-0.8954921660911329,1.1519401489519014,-0.9930781102921337,low,low,,ISIC_6124481.JPG,,ISIC_6404049.JPG,33,43,false,0.1,ll,keypress(f),0,true,1025697.600000143,1025697.5,1012933.849,1013195.3000001907,1012950.403,1025450.335,1,40,28,
sequence,flow.Sequence,8_27,2023-11-29T17:01:14.229Z,,,,,,,,,,,12747.09699999995,completion,,,,,,,low,low,,,,,,,false,,,,,true,1025697.7000000477,1025697.5,1012933.849,1013195.2000000477,1012950.403,1025450.335,1,40,,
trial,html.Screen,8_28_0,2023-11-29T17:01:17.382Z,,,,2,-0.007397293189458,-0.0174716772037504,,0.05,true,hh,3400.1650000000373,response,1.201100953917304,1.15,-0.8602442706123131,1.1751492358160105,1.1519401489519014,-0.9930781102921337,high,high,,ISIC_0056226.JPG,,ISIC_0647224.JPG,33,28,false,0.13,hh,keypress(i),0,true,1028850.7000000477,1028850.5,1025433.536,1025697.8000001907,1025450.335,1028617.03,1,40,29,
sequence,flow.Sequence,8_28,2023-11-29T17:01:17.383Z,,,,,,,,,,,3400.1650000000373,completion,,,,,,,high,high,,,,,,,false,,,,,true,1028851.2000000477,1028850.5,1025433.536,1025697.8000001907,1025450.335,1028617.03,1,40,,
trial,html.Screen,8_29_0,2023-11-29T17:01:26.352Z,,,,2,-0.0050679133050021,0.0009714874637896,,0.05,true,hh,9202.570000143023,response,1.1598623261077452,1.0999999999999999,-0.8602442706123131,1.203269031614007,1.1019401489519014,-0.9930781102921337,high,high,,ISIC_9848743.JPG,,ISIC_0002639.JPG,33,30,false,0.11,hh,keypress(i),0,true,1037819.9000000954,1037819.600000143,1028600.274,1028851.3000001907,1028617.03,1037583.672,1,40,30,
sequence,flow.Sequence,8_29,2023-11-29T17:01:26.352Z,,,,,,,,,,,9202.570000143023,completion,,,,,,,high,high,,,,,,,false,,,,,true,1037820.3000001907,1037819.600000143,1028600.274,1028851.3000001907,1028617.03,1037583.672,1,40,,
trial,html.Screen,8_30_0,2023-11-29T17:01:30.998Z,,,,2,-0.0324770283903853,-0.0249968632204382,,0.05,false,lh,4882.728000095347,response,-0.809764442462202,1.0999999999999999,-0.8602442706123131,1.005337148078696,1.1019401489519014,-0.9930781102921337,low,high,,ISIC_7266462.JPG,,ISIC_2379379.JPG,33,25,false,0.22000000000000008,hh,keypress(i),0,true,1042466.7000000477,1042466.4000000954,1037566.714,1037820.5,1037583.672,1042233.867,1,40,31,
sequence,flow.Sequence,8_30,2023-11-29T17:01:30.999Z,,,,,,,,,,,4882.728000095347,completion,,,,,,,low,high,,,,,,,false,,,,,true,1042467.100000143,1042466.4000000954,1037566.714,1037820.5,1037583.672,1042233.867,1,40,,
trial,html.Screen,8_31_0,2023-11-29T17:01:37.806Z,,,,2,0.000047919190197942736,0.0462652940855003,,0.05,false,hh,7040.633000000031,response,1.2024083555600384,1.0999999999999999,-0.9102442706123132,1.149077673153018,1.0543030898463515,-0.9930781102921337,high,high,,ISIC_0011507.JPG,,ISIC_3566243.JPG,33,32,false,0.11,lh,keypress(e),0,true,1049274.8000001907,1049274.5,1042217.06,1042467.3000001907,1042233.867,1049033.628,1,40,32,
sequence,flow.Sequence,8_31,2023-11-29T17:01:37.807Z,,,,,,,,,,,7040.633000000031,completion,,,,,,,high,high,,,,,,,false,,,,,true,1049275.100000143,1049274.5,1042217.06,1042467.2000000477,1042233.867,1049033.628,1,40,,
trial,html.Screen,8_32_0,2023-11-29T17:01:42.815Z,,,,2,0.0409338693593207,-0.0072462710499874,,0.05,true,hh,5249.772000095341,response,1.1513656623516493,1.15,-0.9102442706123132,0.9961674882214306,1.0543030898463515,-0.9930781102921337,high,high,,ISIC_3608788.JPG,,ISIC_0624779.JPG,33,27,false,0.11,hh,keypress(i),0,true,1054283.600000143,1054283.4000000954,1049016.807,1049275.4000000954,1049033.628,1054050.282,1,40,33,
sequence,flow.Sequence,8_32,2023-11-29T17:01:42.816Z,,,,,,,,,,,5249.772000095341,completion,,,,,,,high,high,,,,,,,false,,,,,true,1054284,1054283.4000000954,1049016.807,1049275.2000000477,1049033.628,1054050.282,1,40,,
trial,html.Screen,8_33_0,2023-11-29T17:01:47.575Z,,,,2,0.0245376145053177,-0.0436993426328401,,0.05,false,lh,4992.118000095477,response,-0.7197989269080959,1.15,-0.9102442706123132,0.9410141415297968,1.02376657528654,-0.9930781102921337,low,high,,ISIC_0056444.JPG,,ISIC_2635051.JPG,33,25,false,0.22000000000000008,ll,keypress(f),0,true,1059042.7000000477,1059042.4000000954,1054033.669,1054284.2000000477,1054050.282,1058800.326,1,40,34,
sequence,flow.Sequence,8_33,2023-11-29T17:01:47.576Z,,,,,,,,,,,4992.118000095477,completion,,,,,,,low,high,,,,,,,false,,,,,true,1059043.4000000954,1059042.4000000954,1054033.669,1054284.2000000477,1054050.282,1058800.326,1,40,,
trial,html.Screen,8_34_0,2023-11-29T17:02:03.128Z,,,,2,-0.0363437082783146,-0.0333332186217051,,0.05,false,ll,15795.074000095483,response,-0.8990371936242809,1.15,-0.9102442706123132,-0.9654850730344297,1.07376657528654,-0.9930781102921337,low,low,,ISIC_3314555.JPG,,ISIC_0010308.JPG,33,49,false,0.1,lh,keypress(e),0,true,1074595.600000143,1074595.4000000954,1058783.686,1059043.600000143,1058800.326,1074350.235,1,40,35,
sequence,flow.Sequence,8_34,2023-11-29T17:02:03.128Z,,,,,,,,,,,15795.074000095483,completion,,,,,,,low,low,,,,,,,false,,,,,true,1074596,1074595.4000000954,1058783.686,1059043.600000143,1058800.326,1074350.235,1,40,,
trial,html.Screen,8_35_0,2023-11-29T17:02:13.608Z,,,,2,0.0102460616775615,-0.0309670599545429,,0.05,true,hh,10724.865000142949,response,1.2024083555600384,1.15,-0.7594180602661884,1.149077673153018,1.07376657528654,-1.0430781102921336,high,high,,ISIC_0072041.JPG,,ISIC_3566243.JPG,33,26,false,0.1,hh,keypress(i),0,true,1085075.4000000954,1085075.100000143,1074333.267,1074596.2000000477,1074350.235,1084833.514,1,40,36,
sequence,flow.Sequence,8_35,2023-11-29T17:02:13.608Z,,,,,,,,,,,10724.865000142949,completion,,,,,,,high,high,,,,,,,false,,,,,true,1085075.9000000954,1085075.100000143,1074333.267,1074596.2000000477,1074350.235,1084833.514,1,40,,
trial,html.Screen,8_36_0,2023-11-29T17:02:22.607Z,,,,2,0.0409338693593207,-0.0072462710499874,,0.05,true,hl,9240.686000047717,response,1.0026266089287914,1.1257430143565281,-0.7594180602661884,-1.0913275913920335,1.07376657528654,-1.0430781102921336,high,low,,ISIC_3608788.JPG,,ISIC_0033520.JPG,33,26,false,0.27000000000000013,hl,keypress(j),0,true,1094074.4000000954,1094074.2000000477,1084816.751,1085076,1084833.514,1093833.519,1,40,37,
sequence,flow.Sequence,8_36,2023-11-29T17:02:22.607Z,,,,,,,,,,,9240.686000047717,completion,,,,,,,high,low,,,,,,,false,,,,,true,1094074.7000000477,1094074.2000000477,1084816.751,1085076,1084833.514,1093833.519,1,40,,
trial,html.Screen,8_37_0,2023-11-29T17:02:31.094Z,,,,2,0.0102460616775615,-0.0309670599545429,,0.05,false,hl,8727.781000190647,response,1.2695509547992938,1.1257430143565281,-0.7594180602661884,-0.9641099676945492,1.07376657528654,-1.0430781102921336,high,low,,ISIC_0072041.JPG,,ISIC_0025841.JPG,33,26,false,0.27000000000000013,lh,keypress(e),0,true,1102561.4000000954,1102561.3000001907,1093816.68,1094075,1093833.519,1102316.841,1,40,38,
sequence,flow.Sequence,8_37,2023-11-29T17:02:31.094Z,,,,,,,,,,,8727.781000190647,completion,,,,,,,high,low,,,,,,,false,,,,,true,1102561.5,1102561.3000001907,1093816.68,1094075,1093833.519,1102316.841,1,40,,
trial,html.Screen,8_38_0,2023-11-29T17:02:37.359Z,,,,2,0.0348234368746005,-0.0236866303880924,,0.05,false,lh,6509.359000047669,response,-0.948927472020595,1.1757430143565282,-0.7594180602661884,1.0660437155921598,1.07376657528654,-1.0930781102921336,low,high,,ISIC_0011099.JPG,,ISIC_5808758.JPG,33,28,false,0.19000000000000006,ll,keypress(f),0,true,1108826.4000000954,1108826.2000000477,1102300.038,1102561.600000143,1102316.841,1108583.532,1,40,39,
sequence,flow.Sequence,8_38,2023-11-29T17:02:37.359Z,,,,,,,,,,,6509.359000047669,completion,,,,,,,low,high,,,,,,,false,,,,,true,1108826.8000001907,1108826.2000000477,1102300.038,1102561.600000143,1102316.841,1108583.532,1,40,,
trial,html.Screen,8_39_0,2023-11-29T17:02:47.471Z,,,,2,-0.0107854985447517,-0.0478010417136109,,0.05,false,hh,10354.568000143161,response,1.0909285203537074,1.1757430143565282,-0.7594180602661884,1.013890238726642,1.12376657528654,-1.0930781102921336,high,high,,ISIC_0010500.JPG,,ISIC_0033799.JPG,33,26,false,0.11,lh,keypress(e),0,true,1118938.4000000954,1118938.100000143,1108566.845,1108827,1108583.532,1118700.174,1,40,40,
sequence,flow.Sequence,8_39,2023-11-29T17:02:47.472Z,,,,,,,,,,,10354.568000143161,completion,,,,,,,high,high,,,,,,,false,,,,,true,1118938.7000000477,1118938.100000143,1108566.845,1108826.9000000954,1108583.532,1118700.174,1,40,,
stair_loop,flow.Loop,8,2023-11-29T17:02:47.472Z,,,,,,,,,,,373903.4170001431,completion,,,,,,,,,,,,,,,false,,,,,true,1118938.9000000954,1118938.100000143,745017.805,745257.4000000954,745034.683,1118700.174,1,40,,
exp_instructions,html.Screen,9,2023-11-29T17:03:20.038Z,,,,,,,,,,,32804.72600009525,response,,,,,,,,,,,,,,,,,continue,keypress(Space),,,1151505.3000001907,1151504.9000000954,1118683.265,1118939,1118700.174,1151266.71,,,,
trial,html.Screen,10_0_0,2023-11-29T17:03:26.990Z,,,,1,-0.0057914759495055,-0.0074667911845194,,0.05,false,hh,7189.690000095405,response,1.135787555082309,1.1376486028713053,-0.8809517375311751,1.0095789588135065,1.1098156922584703,-1.0052379592790088,high,high,,ISIC_0058723.JPG,9,ISIC_0032526.JPG,33,29,false,0.11,hl,keypress(j),0,false,1158456.600000143,1158456.4000000954,1151248.964,1151505.3000001907,1151266.71,1158216.716,5,600,1,
break,html.Screen,10_0_1,2023-11-29T17:03:26.990Z,,,,,,,,,,,NaN,,,,,,,,high,high,,,,,,,false,,,,,false,1158456.9000000954,1158456.8000001907,,1158456.7000000477,,1158216.716,5,600,,
break_continue,html.Screen,10_0_2,2023-11-29T17:03:26.990Z,,,,,,,,,,,NaN,,,,,,,,high,high,,,,,,,false,,,,,false,1158457.2000000477,1158457.100000143,,1158457,,1158216.716,5,600,,
sequence,flow.Sequence,10_0,2023-11-29T17:03:26.990Z,,,,,,,,,,,7190.390000143088,completion,,,,,,,high,high,,,,,,,false,,,,,false,1158457.3000001907,1158457.100000143,1151248.964,1151505.3000001907,1151266.71,1158216.716,5,600,,
trial,html.Screen,10_1_0,2023-11-29T17:03:36.752Z,,,,1,0.000047919190197942736,0.0462652940855003,,0.05,false,ll,10001.484000047669,response,-0.8809051780367407,1.1376486028713053,-0.8809517375311751,-1.044525830449456,1.1098156922584703,-1.0052379592790088,low,low,,ISIC_0011507.JPG,8,ISIC_0029212.JPG,33,47,false,0.1,lh,keypress(e),0,false,1168218.600000143,1168218.2000000477,1158199.886,1158457.3000001907,1158216.716,1167983.315,5,600,2,
break,html.Screen,10_1_1,2023-11-29T17:03:36.753Z,,,,,,,,,,,NaN,,,,,,,,low,low,,,,,,,false,,,,,false,1168219.7000000477,1168219.4000000954,,1168219,,1167983.315,5,600,,
break_continue,html.Screen,10_1_2,2023-11-29T17:03:36.753Z,,,,,,,,,,,NaN,,,,,,,,low,low,,,,,,,false,,,,,false,1168220.3000001907,1168220.2000000477,,1168219.9000000954,,1167983.315,5,600,,
sequence,flow.Sequence,10_1,2023-11-29T17:03:36.754Z,,,,,,,,,,,10003.484000047669,completion,,,,,,,low,low,,,,,,,false,,,,,false,1168220.600000143,1168220.2000000477,1158199.886,1158457.3000001907,1158216.716,1167983.315,5,600,,
trial,html.Screen,10_2_0,2023-11-29T17:03:44.880Z,,,,1,0.0097091270150747,-0.0417921315885292,,0.05,false,lh,8363.085000095423,response,-0.7723849213858904,1.1376486028713053,-0.8809517375311751,0.888372424147899,1.1098156922584703,-1.0052379592790088,low,high,,ISIC_3967213.JPG,8,ISIC_3884221.JPG,33,25,false,0.2400000000000001,hl,keypress(j),0,false,1176346.7000000477,1176346.4000000954,1167966.836,1168220.8000001907,1167983.315,1176099.976,5,600,3,
break,html.Screen,10_2_1,2023-11-29T17:03:44.881Z,,,,,,,,,,,NaN,,,,,,,,low,high,,,,,,,false,,,,,false,1176347.600000143,1176347.3000001907,,1176346.9000000954,,1176099.976,5,600,,
break_continue,html.Screen,10_2_2,2023-11-29T17:03:44.881Z,,,,,,,,,,,NaN,,,,,,,,low,high,,,,,,,false,,,,,false,1176348.2000000477,1176348,,1176347.8000001907,,1176099.976,5,600,,
sequence,flow.Sequence,10_2,2023-11-29T17:03:44.881Z,,,,,,,,,,,8364.685000000056,completion,,,,,,,low,high,,,,,,,false,,,,,false,1176348.3000001907,1176348,1167966.836,1168220.8000001907,1167983.315,1176099.976,5,600,,
trial,html.Screen,10_3_0,2023-11-29T17:03:49.705Z,,,,1,0.0113873532168551,0.0054999201556291,,0.05,false,lh,5071.124000143027,response,-0.796241477082623,1.1376486028713053,-0.8809517375311751,0.9017449335975743,1.1098156922584703,-1.0052379592790088,low,high,,ISIC_8812621.JPG,11,ISIC_8588033.JPG,33,25,false,0.2400000000000001,ll,keypress(f),0,false,1181171.4000000954,1181171.100000143,1176083.145,1176348.5,1176099.976,1180933.246,5,600,4,
break,html.Screen,10_3_1,2023-11-29T17:03:49.706Z,,,,,,,,,,,NaN,,,,,,,,low,high,,,,,,,false,,,,,false,1181172.4000000954,1181172.2000000477,,1181171.7000000477,,1180933.246,5,600,,
break_continue,html.Screen,10_3_2,2023-11-29T17:03:49.707Z,,,,,,,,,,,NaN,,,,,,,,low,high,,,,,,,false,,,,,false,1181173,1181172.8000001907,,1181172.600000143,,1180933.246,5,600,,
sequence,flow.Sequence,10_3,2023-11-29T17:03:49.707Z,,,,,,,,,,,5072.824000190711,completion,,,,,,,low,high,,,,,,,false,,,,,false,1181173.3000001907,1181172.8000001907,1176083.145,1176348.5,1176099.976,1180933.246,5,600,,
trial,html.Screen,10_4_0,2023-11-29T17:03:56.113Z,,,,1,-0.0389988030702649,-0.0143212271490256,,0.05,false,hh,6645.753999999957,response,1.0769490291795207,1.1376486028713053,-0.8809517375311751,1.0174515954885954,1.1098156922584703,-1.0052379592790088,high,high,,ISIC_0064669.JPG,9,ISIC_0028135.JPG,33,29,false,0.11,hl,keypress(j),0,false,1187579.3000001907,1187579,1180916.754,1181173.4000000954,1180933.246,1187333.313,5,600,5,
break,html.Screen,10_4_1,2023-11-29T17:03:56.114Z,,,,,,,,,,,NaN,,,,,,,,high,high,,,,,,,false,,,,,false,1187580.3000001907,1187580,,1187579.600000143,,1187333.313,5,600,,
break_continue,html.Screen,10_4_2,2023-11-29T17:03:56.115Z,,,,,,,,,,,NaN,,,,,,,,high,high,,,,,,,false,,,,,false,1187580.9000000954,1187580.7000000477,,1187580.4000000954,,1187333.313,5,600,,
sequence,flow.Sequence,10_4,2023-11-29T17:03:56.115Z,,,,,,,,,,,6647.454000047641,completion,,,,,,,high,high,,,,,,,false,,,,,false,1187581.2000000477,1187580.7000000477,1180916.754,1181173.4000000954,1180933.246,1187333.313,5,600,,
trial,html.Screen,10_5_0,2023-11-29T17:04:01.671Z,,,,1,0.0134764727102299,0.0033499036460912,,0.05,false,hl,5803.487000190653,response,1.0656673213158945,1.1376486028713053,-0.8809517375311751,-0.8082541692781954,1.1098156922584703,-1.0052379592790088,high,low,,ISIC_0009998.JPG,8,ISIC_0033985.JPG,33,26,false,0.27000000000000013,lh,keypress(e),0,false,1193136.9000000954,1193136.8000001907,1187316.708,1187581.3000001907,1187333.313,1192899.922,5,600,6,
break,html.Screen,10_5_1,2023-11-29T17:04:01.671Z,,,,,,,,,,,NaN,,,,,,,,high,low,,,,,,,false,,,,,false,1193137.2000000477,1193137.100000143,,1193137,,1192899.922,5,600,,
break_continue,html.Screen,10_5_2,2023-11-29T17:04:01.671Z,,,,,,,,,,,NaN,,,,,,,,high,low,,,,,,,false,,,,,false,1193137.4000000954,1193137.3000001907,,1193137.2000000477,,1192899.922,5,600,,
sequence,flow.Sequence,10_5,2023-11-29T17:04:01.671Z,,,,,,,,,,,5803.987000190653,completion,,,,,,,high,low,,,,,,,false,,,,,false,1193137.4000000954,1193137.3000001907,1187316.708,1187581.3000001907,1187333.313,1192899.922,5,600,,
trial,html.Screen,10_6_0,2023-11-29T17:04:10.239Z,,,,1,-0.0456515796420274,0.0273567130070961,,0.05,false,hl,8805.17800014303,response,1.0656673213158945,1.1376486028713053,-0.8809517375311751,-0.8082541692781954,1.1098156922584703,-1.0052379592790088,high,low,,ISIC_0068610.JPG,9,ISIC_0033985.JPG,33,26,false,0.27000000000000013,hh,keypress(i),0,false,1201705.2000000477,1201705.100000143,1192883.155,1193137.4000000954,1192899.922,1201466.559,5,600,7,
break,html.Screen,10_6_1,2023-11-29T17:04:10.239Z,,,,,,,,,,,NaN,,,,,,,,high,low,,,,,,,false,,,,,false,1201705.5,1201705.5,,1201705.3000001907,,1201466.559,5,600,,
break_continue,html.Screen,10_6_2,2023-11-29T17:04:10.239Z,,,,,,,,,,,NaN,,,,,,,,high,low,,,,,,,false,,,,,false,1201705.7000000477,1201705.7000000477,,1201705.600000143,,1201466.559,5,600,,
sequence,flow.Sequence,10_6,2023-11-29T17:04:10.239Z,,,,,,,,,,,8805.778000047663,completion,,,,,,,high,low,,,,,,,false,,,,,false,1201705.8000001907,1201705.7000000477,1192883.155,1193137.4000000954,1192899.922,1201466.559,5,600,,
trial,html.Screen,10_7_0,2023-11-29T17:04:15.006Z,,,,1,0.0134764727102299,0.0033499036460912,,0.05,false,ll,5005.8410000954755,response,-0.8809051780367407,1.1376486028713053,-0.8809517375311751,-1.044525830449456,1.1098156922584703,-1.0052379592790088,low,low,,ISIC_0009998.JPG,8,ISIC_0029212.JPG,33,47,false,0.1,hl,keypress(j),0,false,1206472.5,1206472.4000000954,1201449.947,1201705.8000001907,1201466.559,1206233.224,5,600,8,
break,html.Screen,10_7_1,2023-11-29T17:04:15.006Z,,,,,,,,,,,NaN,,,,,,,,low,low,,,,,,,false,,,,,false,1206472.8000001907,1206472.8000001907,,1206472.600000143,,1206233.224,5,600,,
break_continue,html.Screen,10_7_2,2023-11-29T17:04:15.007Z,,,,,,,,,,,NaN,,,,,,,,low,low,,,,,,,false,,,,,false,1206473,1206472.9000000954,,1206472.9000000954,,1206233.224,5,600,,
sequence,flow.Sequence,10_7,2023-11-29T17:04:15.007Z,,,,,,,,,,,5006.3410000954755,completion,,,,,,,low,low,,,,,,,false,,,,,false,1206473,1206472.9000000954,1201449.947,1201705.8000001907,1201466.559,1206233.224,5,600,,
trial,html.Screen,10_8_0,2023-11-29T17:04:21.384Z,,,,1,0.0245376145053177,-0.0436993426328401,,0.05,true,ll,6616.576000190806,response,-0.8597768256741747,1.1376486028713053,-0.8809517375311751,-1.1001121427563445,1.1098156922584703,-1.0052379592790088,low,low,,ISIC_0056444.JPG,9,ISIC_5922588.JPG,33,47,false,0.1,ll,keypress(f),0,false,1212850.100000143,1212849.8000001907,1206216.541,1206473.2000000477,1206233.224,1212616.534,5,600,9,
break,html.Screen,10_8_1,2023-11-29T17:04:21.385Z,,,,,,,,,,,NaN,,,,,,,,low,low,,,,,,,false,,,,,false,1212851.100000143,1212850.8000001907,,1212850.4000000954,,1212616.534,5,600,,
break_continue,html.Screen,10_8_2,2023-11-29T17:04:21.385Z,,,,,,,,,,,NaN,,,,,,,,low,low,,,,,,,false,,,,,false,1212851.8000001907,1212851.600000143,,1212851.4000000954,,1212616.534,5,600,,
sequence,flow.Sequence,10_8,2023-11-29T17:04:21.386Z,,,,,,,,,,,6618.376000143122,completion,,,,,,,low,low,,,,,,,false,,,,,false,1212852.100000143,1212851.600000143,1206216.541,1206473.100000143,1206233.224,1212616.534,5,600,,
trial,html.Screen,10_9_0,2023-11-29T17:04:28.600Z,,,,1,-0.0456515796420274,0.0273567130070961,,0.05,false,hl,7449.566000143066,response,1.2075172235545184,1.1376486028713053,-0.8809517375311751,-0.9116724966267612,1.1098156922584703,-1.0052379592790088,high,low,,ISIC_0068610.JPG,9,ISIC_0024235.JPG,33,26,false,0.27000000000000013,hh,keypress(i),0,false,1220066.3000001907,1220066.100000143,1212599.932,1212852.2000000477,1212616.534,1219833.356,5,600,10,
break,html.Screen,10_9_1,2023-11-29T17:04:28.601Z,,,,,,,,,,,NaN,,,,,,,,high,low,,,,,,,false,,,,,false,1220067.4000000954,1220067.100000143,,1220066.7000000477,,1219833.356,5,600,,
break_continue,html.Screen,10_9_2,2023-11-29T17:04:28.602Z,,,,,,,,,,,NaN,,,,,,,,high,low,,,,,,,false,,,,,false,1220068.100000143,1220067.9000000954,,1220067.600000143,,1219833.356,5,600,,
sequence,flow.Sequence,10_9,2023-11-29T17:04:28.602Z,,,,,,,,,,,7451.366000095382,completion,,,,,,,high,low,,,,,,,false,,,,,false,1220068.3000001907,1220067.9000000954,1212599.932,1212852.2000000477,1212616.534,1219833.356,5,600,,
trial,html.Screen,10_10_0,2023-11-29T17:04:37.576Z,,,,1,-0.0085520978188085,0.0464691161264081,,0.05,false,hh,9208.644000000088,response,1.2148140264214349,1.1376486028713053,-0.8809517375311751,1.0436713726380966,1.1098156922584703,-1.0052379592790088,high,high,,ISIC_0758797.JPG,9,ISIC_7277310.JPG,33,29,false,0.11,ll,keypress(f),0,false,1229042.2000000477,1229042,1219816.343,1220068.5,1219833.356,1228799.817,5,600,11,
break,html.Screen,10_10_1,2023-11-29T17:04:37.577Z,,,,,,,,,,,NaN,,,,,,,,high,high,,,,,,,false,,,,,false,1229043.3000001907,1229042.9000000954,,1229042.5,,1228799.817,5,600,,
break_continue,html.Screen,10_10_2,2023-11-29T17:04:37.578Z,,,,,,,,,,,NaN,,,,,,,,high,high,,,,,,,false,,,,,false,1229043.8000001907,1229043.7000000477,,1229043.5,,1228799.817,5,600,,
sequence,flow.Sequence,10_10,2023-11-29T17:04:37.578Z,,,,,,,,,,,9210.344000047771,completion,,,,,,,high,high,,,,,,,false,,,,,false,1229044.2000000477,1229043.7000000477,1219816.343,1220068.5,1219833.356,1228799.817,5,600,,
trial,html.Screen,10_11_0,2023-11-29T17:04:42.054Z,,,,1,-0.0389988030702649,-0.0143212271490256,,0.05,false,hl,4720.983000190696,response,1.0865333402803938,1.1376486028713053,-0.8809517375311751,-1.0542635307358266,1.1098156922584703,-1.0052379592790088,high,low,,ISIC_0064669.JPG,9,ISIC_0034006.JPG,33,26,false,0.27000000000000013,hh,keypress(i),0,false,1233520.9000000954,1233520.8000001907,1228783.087,1229044.4000000954,1228799.817,1233283.187,5,600,12,
break,html.Screen,10_11_1,2023-11-29T17:04:42.055Z,,,,,,,,,,,NaN,,,,,,,,high,low,,,,,,,false,,,,,false,1233521.2000000477,1233521.100000143,,1233520.9000000954,,1233283.187,5,600,,
break_continue,html.Screen,10_11_2,2023-11-29T17:04:42.055Z,,,,,,,,,,,NaN,,,,,,,,high,low,,,,,,,false,,,,,false,1233521.4000000954,1233521.4000000954,,1233521.3000001907,,1233283.187,5,600,,
sequence,flow.Sequence,10_11,2023-11-29T17:04:42.055Z,,,,,,,,,,,4721.583000095328,completion,,,,,,,high,low,,,,,,,false,,,,,false,1233521.5,1233521.4000000954,1228783.087,1229044.3000001907,1228799.817,1233283.187,5,600,,
trial,html.Screen,10_12_0,2023-11-29T17:04:55.273Z,,,,1,-0.0324770283903853,-0.0249968632204382,,0.05,false,hh,13455.413000143133,response,1.0858641668099058,1.1376486028713053,-0.8809517375311751,1.1638942560200525,1.1098156922584703,-1.0052379592790088,high,high,,ISIC_7266462.JPG,8,ISIC_5439597.JPG,33,29,false,0.11,lh,keypress(e),0,false,1246739,1246738.600000143,1233266.355,1233521.600000143,1233283.187,1246499.747,5,600,13,
break,html.Screen,10_12_1,2023-11-29T17:04:55.274Z,,,,,,,,,,,NaN,,,,,,,,high,high,,,,,,,false,,,,,false,1246739.9000000954,1246739.8000001907,,1246739.3000001907,,1246499.747,5,600,,
break_continue,html.Screen,10_12_2,2023-11-29T17:04:55.275Z,,,,,,,,,,,NaN,,,,,,,,high,high,,,,,,,false,,,,,false,1246740.5,1246740.2000000477,,1246740.100000143,,1246499.747,5,600,,
sequence,flow.Sequence,10_12,2023-11-29T17:04:55.275Z,,,,,,,,,,,13457.013000047766,completion,,,,,,,high,high,,,,,,,false,,,,,false,1246740.7000000477,1246740.2000000477,1233266.355,1233521.5,1233283.187,1246499.747,5,600,,
trial,html.Screen,10_13_0,2023-11-29T17:05:00.920Z,,,,1,-0.0363437082783146,-0.0333332186217051,,0.05,false,hh,5886.1530000953935,response,1.1642596483638106,1.1376486028713053,-0.8809517375311751,1.109799097093339,1.1098156922584703,-1.0052379592790088,high,high,,ISIC_3314555.JPG,9,ISIC_0765584.JPG,33,29,false,0.11,hl,keypress(j),0,false,1252386.2000000477,1252385.9000000954,1246483.11,1246740.9000000954,1246499.747,1252149.81,5,600,14,
break,html.Screen,10_13_1,2023-11-29T17:05:00.921Z,,,,,,,,,,,NaN,,,,,,,,high,high,,,,,,,false,,,,,false,1252387.100000143,1252386.9000000954,,1252386.600000143,,1252149.81,5,600,,
break_continue,html.Screen,10_13_2,2023-11-29T17:05:00.922Z,,,,,,,,,,,NaN,,,,,,,,high,high,,,,,,,false,,,,,false,1252387.7000000477,1252387.5,,1252387.2000000477,,1252149.81,5,600,,
sequence,flow.Sequence,10_13,2023-11-29T17:05:00.922Z,,,,,,,,,,,5887.753000000026,completion,,,,,,,high,high,,,,,,,false,,,,,false,1252387.9000000954,1252387.5,1246483.11,1246740.8000001907,1246499.747,1252149.81,5,600,,
trial,html.Screen,10_14_0,2023-11-29T17:05:04.840Z,,,,1,0.0102460616775615,-0.0309670599545429,,0.05,true,ll,4155.990000190679,response,-0.8990371936242809,1.1376486028713053,-0.8809517375311751,-0.9654850730344297,1.1098156922584703,-1.0052379592790088,low,low,,ISIC_0072041.JPG,9,ISIC_0010308.JPG,33,47,false,0.1,ll,keypress(f),0,false,1256306,1256305.8000001907,1252133.071,1252388.100000143,1252149.81,1256066.407,5,600,15,
break,html.Screen,10_14_1,2023-11-29T17:05:04.841Z,,,,,,,,,,,NaN,,,,,,,,low,low,,,,,,,false,,,,,false,1256307,1256306.8000001907,,1256306.3000001907,,1256066.407,5,600,,
break_continue,html.Screen,10_14_2,2023-11-29T17:05:04.842Z,,,,,,,,,,,NaN,,,,,,,,low,low,,,,,,,false,,,,,false,1256307.600000143,1256307.4000000954,,1256307.2000000477,,1256066.407,5,600,,
sequence,flow.Sequence,10_14,2023-11-29T17:05:04.842Z,,,,,,,,,,,4157.590000095312,completion,,,,,,,low,low,,,,,,,false,,,,,false,1256307.7000000477,1256307.4000000954,1252133.071,1252388.100000143,1252149.81,1256066.407,5,600,,
trial,html.Screen,10_15_0,2023-11-29T17:05:15.841Z,,,,1,0.000047919190197942736,0.0462652940855003,,0.05,true,hh,11239.693000143161,response,1.135787555082309,1.1376486028713053,-0.8809517375311751,1.0095789588135065,1.1098156922584703,-1.0052379592790088,high,high,,ISIC_0011507.JPG,9,ISIC_0032526.JPG,33,29,false,0.11,hh,keypress(i),0,false,1267306.4000000954,1267306.100000143,1256049.82,1256308,1256066.407,1267066.365,5,600,16,
break,html.Screen,10_15_1,2023-11-29T17:05:15.842Z,,,,,,,,,,,NaN,,,,,,,,high,high,,,,,,,false,,,,,false,1267307.4000000954,1267307.2000000477,,1267306.7000000477,,1267066.365,5,600,,
break_continue,html.Screen,10_15_2,2023-11-29T17:05:15.842Z,,,,,,,,,,,NaN,,,,,,,,high,high,,,,,,,false,,,,,false,1267307.9000000954,1267307.8000001907,,1267307.5,,1267066.365,5,600,,
sequence,flow.Sequence,10_15,2023-11-29T17:05:15.842Z,,,,,,,,,,,11241.393000190845,completion,,,,,,,high,high,,,,,,,false,,,,,false,1267308.2000000477,1267307.8000001907,1256049.82,1256307.9000000954,1256066.407,1267066.365,5,600,,
trial,html.Screen,10_16_0,2023-11-29T17:05:26.600Z,,,,1,0.0112310719058792,-0.0469047359904117,,0.05,false,hl,10999.435000190744,response,1.0026266089287914,1.1376486028713053,-0.8809517375311751,-1.0913275913920335,1.1098156922584703,-1.0052379592790088,high,low,,ISIC_0068184.JPG,9,ISIC_0033520.JPG,33,26,false,0.27000000000000013,hh,keypress(i),0,false,1278066.100000143,1278065.8000001907,1267049.799,1267308.4000000954,1267066.365,1277832.991,5,600,17,
break,html.Screen,10_16_1,2023-11-29T17:05:26.601Z,,,,,,,,,,,NaN,,,,,,,,high,low,,,,,,,false,,,,,false,1278067,1278066.7000000477,,1278066.3000001907,,1277832.991,5,600,,
break_continue,html.Screen,10_16_2,2023-11-29T17:05:26.602Z,,,,,,,,,,,NaN,,,,,,,,high,low,,,,,,,false,,,,,false,1278067.600000143,1278067.4000000954,,1278067.2000000477,,1277832.991,5,600,,
sequence,flow.Sequence,10_16,2023-11-29T17:05:26.602Z,,,,,,,,,,,11001.035000095377,completion,,,,,,,high,low,,,,,,,false,,,,,false,1278067.9000000954,1278067.4000000954,1267049.799,1267308.3000001907,1267066.365,1277832.991,5,600,,
trial,html.Screen,10_17_0,2023-11-29T17:05:37.954Z,,,,1,0.0159061451859594,0.0296598845560212,,0.05,true,hl,11586.009000000078,response,0.9644643328174062,1.1376486028713053,-0.8809517375311751,-0.745333984830218,1.1098156922584703,-1.0052379592790088,high,low,,ISIC_0072564.JPG,8,ISIC_0058046.JPG,33,26,false,0.27000000000000013,hl,keypress(j),0,false,1289419.2000000477,1289419,1277816.478,1278068.100000143,1277832.991,1289182.96,5,600,18,
break,html.Screen,10_17_1,2023-11-29T17:05:37.954Z,,,,,,,,,,,NaN,,,,,,,,high,low,,,,,,,false,,,,,false,1289420.2000000477,1289420,,1289419.600000143,,1289182.96,5,600,,
break_continue,html.Screen,10_17_2,2023-11-29T17:05:37.955Z,,,,,,,,,,,NaN,,,,,,,,high,low,,,,,,,false,,,,,false,1289420.8000001907,1289420.600000143,,1289420.4000000954,,1289182.96,5,600,,
sequence,flow.Sequence,10_17,2023-11-29T17:05:37.955Z,,,,,,,,,,,11587.60900014313,completion,,,,,,,high,low,,,,,,,false,,,,,false,1289421.2000000477,1289420.600000143,1277816.478,1278068,1277832.991,1289182.96,5,600,,
trial,html.Screen,10_18_0,2023-11-29T17:05:45.513Z,,,,1,-0.0070725527271049,-0.0049995141077508,,0.05,true,ll,7795.140000143088,response,-0.8426401499140178,1.1376486028713053,-0.8809517375311751,-0.9561650569523902,1.1098156922584703,-1.0052379592790088,low,low,,ISIC_6124481.JPG,9,ISIC_0060380.JPG,33,47,false,0.1,ll,keypress(f),0,false,1296978.4000000954,1296978.100000143,1289166.465,1289421.3000001907,1289182.96,1296732.945,5,600,19,
break,html.Screen,10_18_1,2023-11-29T17:05:45.515Z,,,,,,,,,,,NaN,,,,,,,,low,low,,,,,,,false,,,,,false,1296979.8000001907,1296979.4000000954,,1296978.9000000954,,1296732.945,5,600,,
break_continue,html.Screen,10_18_2,2023-11-29T17:05:45.515Z,,,,,,,,,,,NaN,,,,,,,,low,low,,,,,,,false,,,,,false,1296980.5,1296980.3000001907,,1296980,,1296732.945,5,600,,
sequence,flow.Sequence,10_18,2023-11-29T17:05:45.516Z,,,,,,,,,,,7797.340000190772,completion,,,,,,,low,low,,,,,,,false,,,,,false,1296980.9000000954,1296980.3000001907,1289166.465,1289421.2000000477,1289182.96,1296732.945,5,600,,
trial,html.Screen,10_19_0,2023-11-29T17:05:52.640Z,,,,1,-0.0057914759495055,-0.0074667911845194,,0.05,true,hh,7372.35500019067,response,1.2012395086389958,1.1376486028713053,-0.8809517375311751,1.0618985767073823,1.1098156922584703,-1.0052379592790088,high,high,,ISIC_0058723.JPG,8,ISIC_9876004.JPG,33,29,false,0.11,hh,keypress(i),0,false,1304105.4000000954,1304105.3000001907,1296716.307,1296981,1296732.945,1303866.27,5,600,20,
break,html.Screen,10_19_1,2023-11-29T17:05:52.641Z,,,,,,,,,,,NaN,,,,,,,,high,high,,,,,,,false,,,,,false,1304105.7000000477,1304105.600000143,,1304105.5,,1303866.27,5,600,,
break_continue,html.Screen,10_19_2,2023-11-29T17:05:52.641Z,,,,,,,,,,,NaN,,,,,,,,high,high,,,,,,,false,,,,,false,1304105.9000000954,1304105.8000001907,,1304105.8000001907,,1303866.27,5,600,,
sequence,flow.Sequence,10_19,2023-11-29T17:05:52.641Z,,,,,,,,,,,7372.85500019067,completion,,,,,,,high,high,,,,,,,false,,,,,false,1304105.9000000954,1304105.8000001907,1296716.307,1296981,1296732.945,1303866.27,5,600,,
trial,html.Screen,10_20_0,2023-11-29T17:05:56.266Z,,,,1,0.0188047466661863,-0.0288346930436979,,0.05,false,hl,3864.3300001430325,response,1.2364994561934892,1.1376486028713053,-0.8809517375311751,-0.9174173651516624,1.1098156922584703,-1.0052379592790088,high,low,,ISIC_0014157.JPG,8,ISIC_3481133.JPG,33,26,false,0.27000000000000013,ll,keypress(f),0,false,1307730.8000001907,1307730.600000143,1303849.429,1304105.9000000954,1303866.27,1307516.443,5,600,21,
break,html.Screen,10_20_1,2023-11-29T17:05:56.267Z,,,,,,,,,,,NaN,,,,,,,,high,low,,,,,,,false,,,,,false,1307731.8000001907,1307731.600000143,,1307731.100000143,,1307516.443,5,600,,
break_continue,html.Screen,10_20_2,2023-11-29T17:05:56.267Z,,,,,,,,,,,NaN,,,,,,,,high,low,,,,,,,false,,,,,false,1307732.4000000954,1307732.100000143,,1307732,,1307516.443,5,600,,
sequence,flow.Sequence,10_20,2023-11-29T17:05:56.267Z,,,,,,,,,,,3865.8300001430325,completion,,,,,,,high,low,,,,,,,false,,,,,false,1307732.600000143,1307732.100000143,1303849.429,1304105.9000000954,1303866.27,1307516.443,5,600,,
trial,html.Screen,10_21_0,2023-11-29T17:06:00.866Z,,,,1,0.013431314305098,-0.0140597582944232,,0.05,false,lh,4814.2570000477135,response,-0.809764442462202,1.1376486028713053,-0.8809517375311751,1.005337148078696,1.1098156922584703,-1.0052379592790088,low,high,,ISIC_0069617.JPG,9,ISIC_2379379.JPG,33,25,false,0.2400000000000001,hl,keypress(j),0,false,1312331,1312330.7000000477,1307499.64,1307732.7000000477,1307516.443,1312099.61,5,600,22,
break,html.Screen,10_21_1,2023-11-29T17:06:00.867Z,,,,,,,,,,,NaN,,,,,,,,low,high,,,,,,,false,,,,,false,1312332,1312331.7000000477,,1312331.4000000954,,1312099.61,5,600,,
break_continue,html.Screen,10_21_2,2023-11-29T17:06:00.867Z,,,,,,,,,,,NaN,,,,,,,,low,high,,,,,,,false,,,,,false,1312332.600000143,1312332.4000000954,,1312332.100000143,,1312099.61,5,600,,
sequence,flow.Sequence,10_21,2023-11-29T17:06:00.868Z,,,,,,,,,,,4815.957000095397,completion,,,,,,,low,high,,,,,,,false,,,,,false,1312332.8000001907,1312332.4000000954,1307499.64,1307732.600000143,1307516.443,1312099.61,5,600,,
trial,html.Screen,10_22_0,2023-11-29T17:06:11.945Z,,,,1,-0.0324770283903853,-0.0249968632204382,,0.05,false,lh,11310.290000095265,response,-0.809764442462202,1.1376486028713053,-0.8809517375311751,1.005337148078696,1.1098156922584703,-1.0052379592790088,low,high,,ISIC_7266462.JPG,9,ISIC_2379379.JPG,33,25,false,0.2400000000000001,hl,keypress(j),0,false,1323410.2000000477,1323409.9000000954,1312083.004,1312333,1312099.61,1323166.214,5,600,23,
break,html.Screen,10_22_1,2023-11-29T17:06:11.946Z,,,,,,,,,,,NaN,,,,,,,,low,high,,,,,,,false,,,,,false,1323411,1323410.8000001907,,1323410.5,,1323166.214,5,600,,
break_continue,html.Screen,10_22_2,2023-11-29T17:06:11.946Z,,,,,,,,,,,NaN,,,,,,,,low,high,,,,,,,false,,,,,false,1323411.5,1323411.3000001907,,1323411.2000000477,,1323166.214,5,600,,
sequence,flow.Sequence,10_22,2023-11-29T17:06:11.947Z,,,,,,,,,,,11311.690000190632,completion,,,,,,,low,high,,,,,,,false,,,,,false,1323411.7000000477,1323411.3000001907,1312083.004,1312333,1312099.61,1323166.214,5,600,,
trial,html.Screen,10_23_0,2023-11-29T17:06:18.393Z,,,,1,0.0348234368746005,-0.0236866303880924,,0.05,false,hl,6691.586000190815,response,0.9454713230140772,1.1376486028713053,-0.8809517375311751,-0.9245167441969216,1.1098156922584703,-1.0052379592790088,high,low,,ISIC_0011099.JPG,9,ISIC_9101055.JPG,33,26,false,0.27000000000000013,ll,keypress(f),0,false,1329858,1329857.8000001907,1323149.775,1323411.9000000954,1323166.214,1329616.184,5,600,24,
break,html.Screen,10_23_1,2023-11-29T17:06:18.394Z,,,,,,,,,,,NaN,,,,,,,,high,low,,,,,,,false,,,,,false,1329858.9000000954,1329858.600000143,,1329858.3000001907,,1329616.184,5,600,,
break_continue,html.Screen,10_23_2,2023-11-29T17:06:18.394Z,,,,,,,,,,,NaN,,,,,,,,high,low,,,,,,,false,,,,,false,1329859.600000143,1329859.4000000954,,1329859.100000143,,1329616.184,5,600,,
sequence,flow.Sequence,10_23,2023-11-29T17:06:18.395Z,,,,,,,,,,,6693.1860000954475,completion,,,,,,,high,low,,,,,,,false,,,,,false,1329859.7000000477,1329859.4000000954,1323149.775,1323411.8000001907,1323166.214,1329616.184,5,600,,
trial,html.Screen,10_24_0,2023-11-29T17:06:28.841Z,,,,1,-0.0085520978188085,0.0464691161264081,,0.05,false,ll,10689.816000000108,response,-0.943978570218156,1.1376486028713053,-0.8809517375311751,-0.9420387258741144,1.1098156922584703,-1.0052379592790088,low,low,,ISIC_0758797.JPG,8,ISIC_0011642.JPG,33,47,false,0.1,hl,keypress(j),0,false,1340306.2000000477,1340306,1329599.582,1329859.9000000954,1329616.184,1340066.184,5,600,25,
break,html.Screen,10_24_1,2023-11-29T17:06:28.842Z,,,,,,,,,,,NaN,,,,,,,,low,low,,,,,,,false,,,,,false,1340307.4000000954,1340307,,1340306.600000143,,1340066.184,5,600,,
break_continue,html.Screen,10_24_2,2023-11-29T17:06:28.843Z,,,,,,,,,,,NaN,,,,,,,,low,low,,,,,,,false,,,,,false,1340308,1340307.8000001907,,1340307.600000143,,1340066.184,5,600,,
sequence,flow.Sequence,10_24,2023-11-29T17:06:28.843Z,,,,,,,,,,,10691.616000190843,completion,,,,,,,low,low,,,,,,,false,,,,,false,1340308.2000000477,1340307.8000001907,1329599.582,1329859.9000000954,1329616.184,1340066.184,5,600,,
trial,html.Screen,10_25_0,2023-11-29T17:06:33.690Z,,,,1,0.0277178575053843,-0.0395587463147856,,0.05,false,hh,5088.116000190843,response,1.0565911491759823,1.1376486028713053,-0.8809517375311751,1.0221582682700174,1.1098156922584703,-1.0052379592790088,high,high,,ISIC_0010807.JPG,8,ISIC_6604862.JPG,33,29,false,0.11,ll,keypress(f),0,false,1345154.600000143,1345154.3000001907,1340049.738,1340308.4000000954,1340066.184,1344916.163,5,600,26,
break,html.Screen,10_25_1,2023-11-29T17:06:33.691Z,,,,,,,,,,,NaN,,,,,,,,high,high,,,,,,,false,,,,,false,1345155.7000000477,1345155.4000000954,,1345155,,1344916.163,5,600,,
break_continue,html.Screen,10_25_2,2023-11-29T17:06:33.691Z,,,,,,,,,,,NaN,,,,,,,,high,high,,,,,,,false,,,,,false,1345156.3000001907,1345156.100000143,,1345155.9000000954,,1344916.163,5,600,,
sequence,flow.Sequence,10_25,2023-11-29T17:06:33.691Z,,,,,,,,,,,5089.916000143159,completion,,,,,,,high,high,,,,,,,false,,,,,false,1345156.600000143,1345156.100000143,1340049.738,1340308.4000000954,1340066.184,1344916.163,5,600,,
trial,html.Screen,10_26_0,2023-11-29T17:06:49.475Z,,,,1,0.0409338693593207,-0.0072462710499874,,0.05,,,15783.27500000014,timeout,-0.9172533965459856,1.1376486028713053,-0.8809517375311751,-0.9108989535315742,1.1098156922584703,-1.0052379592790088,low,low,,ISIC_3608788.JPG,9,ISIC_0990298.JPG,33,47,false,0.1,,,0,false,1360939,1360938.7000000477,1344899.592,1345156.8000001907,1344916.163,1360699.438,5,600,27,
break,html.Screen,10_26_1,2023-11-29T17:06:49.476Z,,,,,,,,,,,NaN,,,,,,,,low,low,,,,,,,false,,,,,false,1360940,1360939.7000000477,,1360939.3000001907,,1360699.438,5,600,,
break_continue,html.Screen,10_26_2,2023-11-29T17:06:49.476Z,,,,,,,,,,,NaN,,,,,,,,low,low,,,,,,,false,,,,,false,1360940.5,1360940.4000000954,,1360940.100000143,,1360699.438,5,600,,
sequence,flow.Sequence,10_26,2023-11-29T17:06:49.476Z,,,,,,,,,,,16024.237000095425,completion,,,,,,,low,low,,,,,,,false,,,,,false,1360940.8000001907,1360940.4000000954,1344899.592,1345156.7000000477,1344916.163,1360699.438,5,600,,
trial,html.Screen,10_27_0,2023-11-29T17:06:57.322Z,,,,1,0.0409338693593207,-0.0072462710499874,,0.05,false,hh,8086.662000142969,response,1.201100953917304,1.1376486028713053,-0.8809517375311751,1.1751492358160105,1.1098156922584703,-1.0052379592790088,high,high,,ISIC_3608788.JPG,9,ISIC_0647224.JPG,33,29,false,0.11,hl,keypress(j),0,false,1368786.3000001907,1368786.100000143,1360682.881,1360940.8000001907,1360699.438,1368549.492,5,600,28,
break,html.Screen,10_27_1,2023-11-29T17:06:57.323Z,,,,,,,,,,,NaN,,,,,,,,high,high,,,,,,,false,,,,,false,1368787.3000001907,1368787.100000143,,1368786.600000143,,1368549.492,5,600,,
break_continue,html.Screen,10_27_2,2023-11-29T17:06:57.323Z,,,,,,,,,,,NaN,,,,,,,,high,high,,,,,,,false,,,,,false,1368787.8000001907,1368787.7000000477,,1368787.4000000954,,1368549.492,5,600,,
sequence,flow.Sequence,10_27,2023-11-29T17:06:57.324Z,,,,,,,,,,,8088.262000047602,completion,,,,,,,high,high,,,,,,,false,,,,,false,1368788.100000143,1368787.7000000477,1360682.881,1360940.8000001907,1360699.438,1368549.492,5,600,,
trial,html.Screen,10_28_0,2023-11-29T17:07:05.080Z,,,,1,-0.0456515796420274,0.0273567130070961,,0.05,true,ll,7994.808000190649,response,-0.8597768256741747,1.1376486028713053,-0.8809517375311751,-1.1001121427563445,1.1098156922584703,-1.0052379592790088,low,low,,ISIC_0068610.JPG,9,ISIC_5922588.JPG,33,47,false,0.1,ll,keypress(f),0,false,1376544.5,1376544.3000001907,1368532.62,1368788.3000001907,1368549.492,1376299.386,5,600,29,
break,html.Screen,10_28_1,2023-11-29T17:07:05.080Z,,,,,,,,,,,NaN,,,,,,,,low,low,,,,,,,false,,,,,false,1376544.9000000954,1376544.7000000477,,1376544.600000143,,1376299.386,5,600,,
break_continue,html.Screen,10_28_2,2023-11-29T17:07:05.081Z,,,,,,,,,,,NaN,,,,,,,,low,low,,,,,,,false,,,,,false,1376545,1376545,,1376544.9000000954,,1376299.386,5,600,,
sequence,flow.Sequence,10_28,2023-11-29T17:07:05.081Z,,,,,,,,,,,7995.507999999914,completion,,,,,,,low,low,,,,,,,false,,,,,false,1376545.100000143,1376545,1368532.62,1368788.3000001907,1368549.492,1376299.386,5,600,,
trial,html.Screen,10_29_0,2023-11-29T17:07:12.283Z,,,,1,0.0245376145053177,-0.0436993426328401,,0.05,false,lh,7447.4140001907945,response,-0.661371304428672,1.1376486028713053,-0.8809517375311751,1.0907423478129648,1.1098156922584703,-1.0052379592790088,low,high,,ISIC_0056444.JPG,9,ISIC_6860222.JPG,33,25,false,0.2400000000000001,ll,keypress(f),0,false,1383747,1383746.8000001907,1376282.754,1376545.2000000477,1376299.386,1383516.487,5,600,30,
break,html.Screen,10_29_1,2023-11-29T17:07:12.284Z,,,,,,,,,,,NaN,,,,,,,,low,high,,,,,,,false,,,,,false,1383748,1383747.8000001907,,1383747.4000000954,,1383516.487,5,600,,
break_continue,html.Screen,10_29_2,2023-11-29T17:07:12.284Z,,,,,,,,,,,NaN,,,,,,,,low,high,,,,,,,false,,,,,false,1383748.7000000477,1383748.5,,1383748.3000001907,,1383516.487,5,600,,
sequence,flow.Sequence,10_29,2023-11-29T17:07:12.284Z,,,,,,,,,,,7449.11400000006,completion,,,,,,,low,high,,,,,,,false,,,,,false,1383748.9000000954,1383748.5,1376282.754,1376545.100000143,1376299.386,1383516.487,5,600,,
trial,html.Screen,10_30_0,2023-11-29T17:07:17.227Z,,,,1,-0.0069555338059566,0.0310100918136373,,0.05,false,ll,5174.1130001430865,response,-0.8809051780367407,1.1376486028713053,-0.8809517375311751,-1.044525830449456,1.1098156922584703,-1.0052379592790088,low,low,,ISIC_0011177.JPG,9,ISIC_0029212.JPG,33,47,false,0.1,hh,keypress(i),0,false,1388690.9000000954,1388690.600000143,1383482.677,1383749,1383516.487,1388449.38,5,600,31,
break,html.Screen,10_30_1,2023-11-29T17:07:17.227Z,,,,,,,,,,,NaN,,,,,,,,low,low,,,,,,,false,,,,,false,1388691.8000001907,1388691.600000143,,1388691.2000000477,,1388449.38,5,600,,
break_continue,html.Screen,10_30_2,2023-11-29T17:07:17.228Z,,,,,,,,,,,NaN,,,,,,,,low,low,,,,,,,false,,,,,false,1388692.4000000954,1388692.2000000477,,1388692,,1388449.38,5,600,,
sequence,flow.Sequence,10_30,2023-11-29T17:07:17.228Z,,,,,,,,,,,5175.713000047719,completion,,,,,,,low,low,,,,,,,false,,,,,false,1388692.600000143,1388692.2000000477,1383482.677,1383748.9000000954,1383516.487,1388449.38,5,600,,
trial,html.Screen,10_31_0,2023-11-29T17:07:22.080Z,,,,1,0.0102460616775615,-0.0309670599545429,,0.05,false,hl,5094.920000190847,response,1.0656673213158945,1.1376486028713053,-0.8809517375311751,-0.8082541692781954,1.1098156922584703,-1.0052379592790088,high,low,,ISIC_0072041.JPG,9,ISIC_0033985.JPG,33,26,false,0.27000000000000013,hh,keypress(i),0,false,1393544.4000000954,1393544.3000001907,1388432.888,1388692.8000001907,1388449.38,1393299.335,5,600,32,
break,html.Screen,10_31_1,2023-11-29T17:07:22.081Z,,,,,,,,,,,NaN,,,,,,,,high,low,,,,,,,false,,,,,false,1393544.9000000954,1393544.8000001907,,1393544.600000143,,1393299.335,5,600,,
break_continue,html.Screen,10_31_2,2023-11-29T17:07:22.081Z,,,,,,,,,,,NaN,,,,,,,,high,low,,,,,,,false,,,,,false,1393545.2000000477,1393545.100000143,,1393545,,1393299.335,5,600,,
sequence,flow.Sequence,10_31,2023-11-29T17:07:22.081Z,,,,,,,,,,,5095.720000143163,completion,,,,,,,high,low,,,,,,,false,,,,,false,1393545.2000000477,1393545.100000143,1388432.888,1388692.8000001907,1388449.38,1393299.335,5,600,,
trial,html.Screen,10_32_0,2023-11-29T17:07:30.296Z,,,,1,-0.0107854985447517,-0.0478010417136109,,0.05,false,hl,8460.965000190772,response,1.2075172235545184,1.1376486028713053,-0.8809517375311751,-0.9116724966267612,1.1098156922584703,-1.0052379592790088,high,low,,ISIC_0010500.JPG,9,ISIC_0024235.JPG,33,26,false,0.27000000000000013,lh,keypress(e),0,false,1401760.4000000954,1401760.3000001907,1393282.677,1393545.2000000477,1393299.335,1401515.964,5,600,33,
break,html.Screen,10_32_1,2023-11-29T17:07:30.296Z,,,,,,,,,,,NaN,,,,,,,,high,low,,,,,,,false,,,,,false,1401760.7000000477,1401760.7000000477,,1401760.5,,1401515.964,5,600,,
break_continue,html.Screen,10_32_2,2023-11-29T17:07:30.296Z,,,,,,,,,,,NaN,,,,,,,,high,low,,,,,,,false,,,,,false,1401760.9000000954,1401760.8000001907,,1401760.8000001907,,1401515.964,5,600,,
sequence,flow.Sequence,10_32,2023-11-29T17:07:30.297Z,,,,,,,,,,,8461.465000190772,completion,,,,,,,high,low,,,,,,,false,,,,,false,1401760.9000000954,1401760.8000001907,1393282.677,1393545.2000000477,1393299.335,1401515.964,5,600,,
trial,html.Screen,10_33_0,2023-11-29T17:07:38.497Z,,,,1,0.013431314305098,-0.0140597582944232,,0.05,false,hh,8445.236000047764,response,1.0959058628476686,1.1376486028713053,-0.8809517375311751,1.1684835186766898,1.1098156922584703,-1.0052379592790088,high,high,,ISIC_0069617.JPG,9,ISIC_5920470.JPG,33,29,false,0.11,lh,keypress(e),0,false,1409961.5,1409961.2000000477,1401499.49,1401761,1401515.964,1409716.02,5,600,34,
break,html.Screen,10_33_1,2023-11-29T17:07:38.498Z,,,,,,,,,,,NaN,,,,,,,,high,high,,,,,,,false,,,,,false,1409962.2000000477,1409962.100000143,,1409961.7000000477,,1409716.02,5,600,,
break_continue,html.Screen,10_33_2,2023-11-29T17:07:38.498Z,,,,,,,,,,,NaN,,,,,,,,high,high,,,,,,,false,,,,,false,1409962.8000001907,1409962.7000000477,,1409962.5,,1409716.02,5,600,,
sequence,flow.Sequence,10_33,2023-11-29T17:07:38.499Z,,,,,,,,,,,8446.736000047764,completion,,,,,,,high,high,,,,,,,false,,,,,false,1409963,1409962.7000000477,1401499.49,1401760.9000000954,1401515.964,1409716.02,5,600,,
trial,html.Screen,10_34_0,2023-11-29T17:07:54.266Z,,,,1,0.0134764727102299,0.0033499036460912,,0.05,,,15783.891999999993,timeout,-0.9106525024234248,1.1376486028713053,-0.8809517375311751,-0.944391889009556,1.1098156922584703,-1.0052379592790088,low,low,,ISIC_0009998.JPG,8,ISIC_0058676.JPG,33,47,false,0.1,,,0,false,1425729.8000001907,1425729.3000001907,1409699.031,1409963.100000143,1409716.02,1425499.912,5,600,35,
break,html.Screen,10_34_1,2023-11-29T17:07:54.267Z,,,,,,,,,,,NaN,,,,,,,,low,low,,,,,,,false,,,,,false,1425730.8000001907,1425730.600000143,,1425730.100000143,,1425499.912,5,600,,
break_continue,html.Screen,10_34_2,2023-11-29T17:07:54.268Z,,,,,,,,,,,NaN,,,,,,,,low,low,,,,,,,false,,,,,false,1425731.4000000954,1425731.2000000477,,1425730.9000000954,,1425499.912,5,600,,
sequence,flow.Sequence,10_34,2023-11-29T17:07:54.268Z,,,,,,,,,,,16015.180000047665,completion,,,,,,,low,low,,,,,,,false,,,,,false,1425731.7000000477,1425731.2000000477,1409699.031,1409963.100000143,1409716.02,1425499.912,5,600,,
trial,html.Screen,10_35_0,2023-11-29T17:07:59.808Z,,,,1,0.0102460616775615,-0.0309670599545429,,0.05,true,hl,5771.488000095356,response,0.9433720631499012,1.1376486028713053,-0.8809517375311751,-1.0582071940347648,1.1098156922584703,-1.0052379592790088,high,low,,ISIC_0072041.JPG,9,ISIC_4890201.JPG,33,26,false,0.27000000000000013,hl,keypress(j),0,false,1431271.5,1431271.4000000954,1425466.144,1425731.9000000954,1425499.912,1431032.596,5,600,36,
break,html.Screen,10_35_1,2023-11-29T17:07:59.808Z,,,,,,,,,,,NaN,,,,,,,,high,low,,,,,,,false,,,,,false,1431271.8000001907,1431271.8000001907,,1431271.600000143,,1431032.596,5,600,,
break_continue,html.Screen,10_35_2,2023-11-29T17:07:59.808Z,,,,,,,,,,,NaN,,,,,,,,high,low,,,,,,,false,,,,,false,1431272,1431272,,1431271.9000000954,,1431032.596,5,600,,
sequence,flow.Sequence,10_35,2023-11-29T17:07:59.808Z,,,,,,,,,,,5772.087999999989,completion,,,,,,,high,low,,,,,,,false,,,,,false,1431272.2000000477,1431272,1425466.144,1425731.9000000954,1425499.912,1431032.596,5,600,,
trial,html.Screen,10_36_0,2023-11-29T17:08:07.034Z,,,,1,0.0102460616775615,-0.0309670599545429,,0.05,false,hl,7465.004000143148,response,1.10953285327247,1.1376486028713053,-0.8809517375311751,-0.7377773112414787,1.1098156922584703,-1.0052379592790088,high,low,,ISIC_0072041.JPG,10,ISIC_1720840.JPG,33,26,false,0.27000000000000013,lh,keypress(e),0,false,1438497.8000001907,1438497.600000143,1431015.785,1431272.2000000477,1431032.596,1438266.172,5,600,37,
break,html.Screen,10_36_1,2023-11-29T17:08:07.035Z,,,,,,,,,,,NaN,,,,,,,,high,low,,,,,,,false,,,,,false,1438498.8000001907,1438498.600000143,,1438498.2000000477,,1438266.172,5,600,,
break_continue,html.Screen,10_36_2,2023-11-29T17:08:07.036Z,,,,,,,,,,,NaN,,,,,,,,high,low,,,,,,,false,,,,,false,1438499.3000001907,1438499.2000000477,,1438499.100000143,,1438266.172,5,600,,
sequence,flow.Sequence,10_36,2023-11-29T17:08:07.036Z,,,,,,,,,,,7466.604000047781,completion,,,,,,,high,low,,,,,,,false,,,,,false,1438499.4000000954,1438499.2000000477,1431015.785,1431272.2000000477,1431032.596,1438266.172,5,600,,
trial,html.Screen,10_37_0,2023-11-29T17:08:16.738Z,,,,1,-0.0107854985447517,-0.0478010417136109,,0.05,false,hh,9935.228000095347,response,1.241406480986552,1.1376486028713053,-0.8809517375311751,1.081912821786771,1.1098156922584703,-1.0052379592790088,high,high,,ISIC_0010500.JPG,9,ISIC_4223155.JPG,33,29,false,0.11,lh,keypress(e),0,false,1448201.8000001907,1448201.4000000954,1438249.282,1438499.4000000954,1438266.172,1447965.864,5,600,38,
break,html.Screen,10_37_1,2023-11-29T17:08:16.739Z,,,,,,,,,,,NaN,,,,,,,,high,high,,,,,,,false,,,,,false,1448202.9000000954,1448202.5,,1448202.100000143,,1447965.864,5,600,,
