sender,sender_type,sender_id,timestamp,meta,,age,blockNo,c1,c2,condition,control_tolerance,correct,correctResponse,duration,ended_on,f1,f1_high,f1_low,f2,f2_high,f2_low,feature_level1,feature_level2,gender,img_left,img_reveal,img_right,n_control_images,n_target_images,practice,range_tolerance,response,response_action,selection_duration,staircase,time_commit,time_end,time_render,time_run,time_show,time_switch,total_blocks,total_trials,trialNo,url
informed_consent,html.Screen,0,2024-03-19T17:51:51.438Z,"{""labjs_version"":""20.2.4"",""labjs_build"":{""flavor"":""development"",""commit"":""f5b4a49f956347addd546a832a3327688c2c0fef""},""location"":""https://labjs.felixhenninger.com/api/labjs_preview/index.html"",""userAgent"":""Mozilla/5.0 (Windows NT 10.0; Win64; x64) AppleWebKit/537.36 (KHTML, like Gecko) Chrome/122.0.0.0 Safari/537.36"",""platform"":""Win32"",""language"":""en-US"",""locale"":""en-US"",""timeZone"":""America/Chicago"",""timezoneOffset"":300,""screen_width"":2560,""screen_height"":1440,""scroll_width"":1265,""scroll_height"":1278,""window_innerWidth"":1265,""window_innerHeight"":1326,""devicePixelRatio"":1}",,,,,,,,,,940998.2,response,,,,,,,,,,,,,,,,,consent,click button,,,941308.5,941299,284.1,375.7999999523163,300.8,941224.1,,,,{}
Demography form,html.Form,1,2024-03-19T17:51:59.015Z,,,18,,,,,,,,7660.69999995234,form submission,,,,,,,,,male,,,,,,,,,,,,948885.1000000238,948884.7999999523,941207.9,941308.8999999762,941224.1,948814,,,,
Welcome,html.Screen,2,2024-03-19T17:52:09.982Z,,,,,,,"[""asym"",""col""]",,,,11037.299999952316,response,,,,,,,,,,,,,,,,,continue,click button,,,959852,959851.2999999523,948797.566,948885.2000000477,948814,959772.8,,,,
demo_instructions,html.Screen,3,2024-03-19T17:52:26.853Z,,,,,,,,,,,16950.400000047637,response,,,,,,,,,,,,,,,,,continue,click button,,,976723.8999999762,976723.2000000477,959756.5,959852.2000000477,959772.8,976653.698,,,,
trial,html.Screen,4_0_0,2024-03-19T17:52:31.340Z,,,,0,-1.2055236989581275,-1.1960893075698802,,,false,hh,4556.601999952341,response,1.053007132776416,1.2,-1.2,1.341217082060068,1.2,-1.2,high,high,,ISIC_0072393.JPG,,ISIC_0024208.JPG,,25,true,0.15000000000000002,lh,keypress(e),100,false,981210.7999999523,981210.2999999523,976653.698,976724.1000000238,976653.698,981140.7,1,16,1,
sequence,flow.Sequence,4_0,2024-03-19T17:52:31.350Z,,,,,,,,,,,4556.601999952341,completion,,,,,,,high,high,,,,,,,true,,,,,false,981220.2999999523,981210.2999999523,976653.698,976724.1000000238,976653.698,981140.7,1,16,,
trial,html.Screen,4_1_0,2024-03-19T17:52:33.916Z,,,,0,-1.250220052739973,-1.2967258992731714,,,true,hh,2645.6999999762047,response,1.301795918505203,1.2,-1.2,1.0518606632781424,1.2,-1.2,high,high,,ISIC_0031368.JPG,,ISIC_0027666.JPG,,25,true,0.15000000000000002,hh,keypress(i),100,false,983787,983786.3999999762,981124.032,981220.3999999762,981140.7,983725.9,1,16,2,
sequence,flow.Sequence,4_1,2024-03-19T17:52:33.917Z,,,,,,,,,,,2645.6999999762047,completion,,,,,,,high,high,,,,,,,true,,,,,false,983788,983786.3999999762,981124.032,981220.2999999523,981140.7,983725.9,1,16,,
trial,html.Screen,4_2_0,2024-03-19T17:52:36.358Z,,,,0,-1.1227373144244253,-1.1886610799377713,,,false,hh,2501.999999976135,response,1.2200968917423711,1.2,-1.2,1.3183466064109373,1.2,-1.2,high,high,,ISIC_0059506.JPG,,ISIC_3624318.JPG,,25,true,0.15000000000000002,ll,keypress(f),100,false,986228.3999999762,986227.8999999762,983709.2,983788.5,983725.9,986161.3,1,16,3,
sequence,flow.Sequence,4_2,2024-03-19T17:52:36.358Z,,,,,,,,,,,2501.999999976135,completion,,,,,,,high,high,,,,,,,true,,,,,false,986228.8999999762,986227.8999999762,983709.2,983788.3999999762,983725.9,986161.3,1,16,,
trial,html.Screen,4_3_0,2024-03-19T17:52:40.462Z,,,,0,-1.2315945866020412,-1.13226141421557,,,false,hh,4170.300000023795,response,1.0878102877901663,1.2,-1.2,1.3154097543539391,1.2,-1.2,high,high,,ISIC_0033595.JPG,,ISIC_1413242.JPG,,25,true,0.15000000000000002,hl,keypress(j),100,false,990332.2000000477,990331.6000000238,986144.832,986229.1000000238,986161.3,990264.9,1,16,4,
sequence,flow.Sequence,4_3,2024-03-19T17:52:40.462Z,,,,,,,,,,,4170.300000023795,completion,,,,,,,high,high,,,,,,,true,,,,,false,990332.8999999762,990331.6000000238,986144.832,986229.1000000238,986161.3,990264.9,1,16,,
trial,html.Screen,4_4_0,2024-03-19T17:52:46.423Z,,,,0,1.0878102877901663,1.3154097543539391,,,false,ll,6027.999999976135,response,-1.250220052739973,1.2,-1.2,-1.2967258992731714,1.2,-1.2,low,low,,ISIC_1413242.JPG,,ISIC_0031368.JPG,,27,true,0.12,lh,keypress(e),100,false,996293.3999999762,996292.8999999762,990248.266,990333.1000000238,990264.9,996219.9,1,16,5,
sequence,flow.Sequence,4_4,2024-03-19T17:52:46.424Z,,,,,,,,,,,6027.999999976135,completion,,,,,,,low,low,,,,,,,true,,,,,false,996294.2000000477,996292.8999999762,990248.266,990333,990264.9,996219.9,1,16,,
trial,html.Screen,4_5_0,2024-03-19T17:52:49.153Z,,,,0,1.1217390688497193,1.2276600934505035,,,false,ll,2802.999999976135,response,-1.2015106101917423,1.2,-1.2,-1.3393124611420348,1.2,-1.2,low,low,,ISIC_0026344.JPG,,ISIC_0072496.JPG,,41,true,0.15000000000000002,hh,keypress(i),100,false,999023.2999999523,999022.8999999762,996203.13,996294.3999999762,996219.9,998955.4,1,16,6,
sequence,flow.Sequence,4_5,2024-03-19T17:52:49.153Z,,,,,,,,,,,2802.999999976135,completion,,,,,,,low,low,,,,,,,true,,,,,false,999023.8999999762,999022.8999999762,996203.13,996294.2999999523,996219.9,998955.4,1,16,,
trial,html.Screen,4_6_0,2024-03-19T17:52:51.610Z,,,,0,1.1604734171556077,1.0789312625280616,,,false,ll,2524.399999952293,response,-1.2055236989581275,1.2,-1.2,-1.1960893075698802,1.2,-1.2,low,low,,ISIC_3950753.JPG,,ISIC_0072393.JPG,,41,true,0.15000000000000002,hh,keypress(i),100,false,1001480.1000000238,1001479.7999999523,998938.666,999024.1000000238,998955.4,1001407.4,1,16,7,
sequence,flow.Sequence,4_6,2024-03-19T17:52:51.610Z,,,,,,,,,,,2524.399999952293,completion,,,,,,,low,low,,,,,,,true,,,,,false,1001480.5,1001479.7999999523,998938.666,999024.1000000238,998955.4,1001407.4,1,16,,
trial,html.Screen,4_7_0,2024-03-19T17:52:54.640Z,,,,0,1.1510001454240106,1.132540312667795,,,false,ll,3103.2000000238186,response,-1.1711612520017805,1.2,-1.2,-1.191169949562454,1.2,-1.2,low,low,,ISIC_0009959.JPG,,ISIC_0061936.JPG,,41,true,0.15000000000000002,hh,keypress(i),100,false,1004511,1004510.6000000238,1001390.766,1001480.7000000477,1001407.4,1004442.9,1,16,8,
sequence,flow.Sequence,4_7,2024-03-19T17:52:54.641Z,,,,,,,,,,,3103.2000000238186,completion,,,,,,,low,low,,,,,,,true,,,,,false,1004511.3999999762,1004510.6000000238,1001390.766,1001480.6000000238,1001407.4,1004442.9,1,16,,
trial,html.Screen,4_8_0,2024-03-19T17:52:57.239Z,,,,0,0.9087169856594104,-0.8835647084207277,,,false,lh,2666.0999999999767,response,-0.887838744955182,1.2,-1.2,1.3716210719758812,1.2,-1.2,low,high,,ISIC_0000349.JPG,,ISIC_1488727.JPG,,26,true,0.3300000000000002,ll,keypress(f),100,false,1007109.2999999523,1007109,1004426.532,1004511.6000000238,1004442.9,1007045.4,1,16,9,
sequence,flow.Sequence,4_8,2024-03-19T17:52:57.239Z,,,,,,,,,,,2666.0999999999767,completion,,,,,,,low,high,,,,,,,true,,,,,false,1007109.7000000477,1007109,1004426.532,1004511.6000000238,1004442.9,1007045.4,1,16,,
trial,html.Screen,4_9_0,2024-03-19T17:53:00.615Z,,,,0,1.4727776799485246,-0.8779113138076752,,,false,lh,3439.8000000476604,response,-1.082730232773217,1.2,-1.2,0.8833175387485132,1.2,-1.2,low,high,,ISIC_0033074.JPG,,ISIC_0011933.JPG,,33,true,0.3600000000000002,ll,keypress(f),100,false,1010485.6000000238,1010485.2000000477,1007028.664,1007109.8999999762,1007045.4,1010414.7,1,16,10,
sequence,flow.Sequence,4_9,2024-03-19T17:53:00.616Z,,,,,,,,,,,3439.8000000476604,completion,,,,,,,low,high,,,,,,,true,,,,,false,1010486.2000000477,1010485.2000000477,1007028.664,1007109.7999999523,1007045.4,1010414.7,1,16,,
trial,html.Screen,4_10_0,2024-03-19T17:53:06.519Z,,,,0,1.4748095371445096,-0.9579010801034902,,,true,lh,5974.00000004773,response,-1.055319394932912,1.2,-1.2,1.409116680310466,1.2,-1.2,low,high,,ISIC_0033216.JPG,,ISIC_6398669.JPG,,33,true,0.3600000000000002,lh,keypress(e),100,false,1016389.1000000238,1016388.7000000477,1010398.064,1010486.3999999762,1010414.7,1016319.6,1,16,11,
sequence,flow.Sequence,4_10,2024-03-19T17:53:06.519Z,,,,,,,,,,,5974.00000004773,completion,,,,,,,low,high,,,,,,,true,,,,,false,1016389.7999999523,1016388.7000000477,1010398.064,1010486.2999999523,1010414.7,1016319.6,1,16,,
trial,html.Screen,4_11_0,2024-03-19T17:53:11.192Z,,,,0,1.00615481805876,-0.8428903771195875,,,true,lh,4742.600000047707,response,-0.9566823908868002,1.2,-1.2,0.9602125665128364,1.2,-1.2,low,high,,ISIC_0069970.JPG,,ISIC_0056784.JPG,,33,true,0.3600000000000002,lh,keypress(e),100,false,1021062.7000000477,1021062.2000000477,1016303.066,1016390,1016319.6,1020989.9,1,16,12,
sequence,flow.Sequence,4_11,2024-03-19T17:53:11.193Z,,,,,,,,,,,4742.600000047707,completion,,,,,,,low,high,,,,,,,true,,,,,false,1021063.3999999762,1021062.2000000477,1016303.066,1016390,1016319.6,1020989.9,1,16,,
trial,html.Screen,4_12_0,2024-03-19T17:53:13.034Z,,,,0,-1.1547137855907486,1.0185275168641534,,,true,hl,1914.0999999999767,response,0.8479396253253069,1.2,-1.2,-1.011054319516718,1.2,-1.2,high,low,,ISIC_7604870.JPG,,ISIC_0063521.JPG,,29,true,0.3600000000000002,hl,keypress(j),100,false,1022904.2000000477,1022904,1020973.496,1021063.7000000477,1020989.9,1022841.7,1,16,13,
sequence,flow.Sequence,4_12,2024-03-19T17:53:13.034Z,,,,,,,,,,,1914.0999999999767,completion,,,,,,,high,low,,,,,,,true,,,,,false,1022904.5,1022904,1020973.496,1021063.6000000238,1020989.9,1022841.7,1,16,,
trial,html.Screen,4_13_0,2024-03-19T17:53:20.656Z,,,,0,-0.9448560599810628,0.9099421612683488,,,true,hl,7685.00000004773,response,1.4727776799485246,1.2,-1.2,-0.8779113138076752,1.2,-1.2,high,low,,ISIC_9684318.JPG,,ISIC_0033074.JPG,,29,true,0.3600000000000002,hl,keypress(j),100,false,1030526.7999999523,1030526.7000000477,1022825.032,1022904.7000000477,1022841.7,1030464.3,1,16,14,
sequence,flow.Sequence,4_13,2024-03-19T17:53:20.656Z,,,,,,,,,,,7685.00000004773,completion,,,,,,,high,low,,,,,,,true,,,,,false,1030527,1030526.7000000477,1022825.032,1022904.6000000238,1022841.7,1030464.3,1,16,,
trial,html.Screen,4_14_0,2024-03-19T17:53:23.040Z,,,,0,-1.0822170028935367,1.1654796154432183,,,true,hl,2445.6999999999534,response,1.064425982109969,1.2,-1.2,-0.958564243697126,1.2,-1.2,high,low,,ISIC_7288818.JPG,,ISIC_3203344.JPG,,29,true,0.3600000000000002,hl,keypress(j),100,false,1032910.3999999762,1032910,1030447.7,1030527.1000000238,1030464.3,1032849.7,1,16,15,
sequence,flow.Sequence,4_14,2024-03-19T17:53:23.041Z,,,,,,,,,,,2445.6999999999534,completion,,,,,,,high,low,,,,,,,true,,,,,false,1032911.2000000477,1032910,1030447.7,1030527.1000000238,1030464.3,1032849.7,1,16,,
trial,html.Screen,4_15_0,2024-03-19T17:53:25.378Z,,,,0,-1.296989496412063,1.1425074323097002,,,true,hl,2398.5000000477303,response,1.064425982109969,1.2,-1.2,-0.958564243697126,1.2,-1.2,high,low,,ISIC_6356803.JPG,,ISIC_3203344.JPG,,29,true,0.3600000000000002,hl,keypress(j),100,false,1035248.6000000238,1035248.2000000477,1032833.298,1032911.5,1032849.7,1035185.2,1,16,16,
sequence,flow.Sequence,4_15,2024-03-19T17:53:25.379Z,,,,,,,,,,,2398.5000000477303,completion,,,,,,,high,low,,,,,,,true,,,,,false,1035249,1035248.2000000477,1032833.298,1032911.3999999762,1032849.7,1035185.2,1,16,,
demonstration_loop,flow.Loop,4,2024-03-19T17:53:25.379Z,,,,,,,,,,,58594.50200004771,completion,,,,,,,,,,,,,,,true,,,,,false,1035249.3999999762,1035248.2000000477,976653.698,976724,976653.698,1035185.2,1,16,,
practice_instructions,html.Screen,5,2024-03-19T17:53:28.181Z,,,,,,,,,,,2881.9000000238884,response,,,,,,,,,,,,,,,,,continue,click button,,,1038067.8999999762,1038067.1000000238,1035168.498,1035249.5,1035185.2,1037987.1,,,,
trial,html.Screen,6_0_0,2024-03-19T17:53:33.263Z,,,,1,1.2714351764931109,1.0785174776187512,,,true,ll,5155.69999995234,response,-1.1671212908494544,1.2,-1.2,-1.1286681796701683,1.2,-1.2,low,low,,ISIC_2454898.JPG,,ISIC_0065022.JPG,,27,true,0.12,ll,keypress(f),0,false,1043149.7000000477,1043142.7999999523,1037970.864,1038068,1037987.1,1043091.7,1,40,1,
sequence,flow.Sequence,6_0,2024-03-19T17:53:33.263Z,,,,,,,,,,,5155.69999995234,completion,,,,,,,low,low,,,,,,,true,,,,,false,1043149.8999999762,1043142.7999999523,1037970.864,1038067.8999999762,1037987.1,1043091.7,1,40,,
trial,html.Screen,6_1_0,2024-03-19T17:53:36.214Z,,,,1,1.294521945180264,1.3078626540563885,,,true,ll,3009.5000000477303,response,-1.3271122559811526,1.2,-1.2,-1.292001792497521,1.2,-1.2,low,low,,ISIC_3601224.JPG,,ISIC_0065181.JPG,,41,true,0.15000000000000002,ll,keypress(f),0,false,1046101.7000000477,1046101.2000000477,1043075,1043149.8999999762,1043091.7,1046027.1,1,40,2,
sequence,flow.Sequence,6_1,2024-03-19T17:53:36.215Z,,,,,,,,,,,3009.5000000477303,completion,,,,,,,low,low,,,,,,,true,,,,,false,1046102.2000000477,1046101.2000000477,1043075,1043149.8999999762,1043091.7,1046027.1,1,40,,
trial,html.Screen,6_2_0,2024-03-19T17:53:37.542Z,,,,1,0.8534691366511764,-1.276663727068437,,,true,lh,1402.100000047707,response,-1.2704198237183777,1.2,-1.2,1.138121072015301,1.2,-1.2,low,high,,ISIC_0056788.JPG,,ISIC_0501843.JPG,,26,true,0.3300000000000002,lh,keypress(e),0,false,1047429.6000000238,1047429.2000000477,1046025.688,1046102.5,1046027.1,1047344.988,1,40,3,
sequence,flow.Sequence,6_2,2024-03-19T17:53:37.543Z,,,,,,,,,,,1402.100000047707,completion,,,,,,,low,high,,,,,,,true,,,,,false,1047430.1000000238,1047429.2000000477,1046025.688,1046102.3999999762,1046027.1,1047344.988,1,40,,
trial,html.Screen,6_3_0,2024-03-19T17:53:38.630Z,,,,1,-1.1711612520017805,-1.191169949562454,,,true,hh,1172.2120000476716,response,1.2512482034836876,1.2,-1.2,0.9575957368769288,1.2,-1.2,high,high,,ISIC_0061936.JPG,,ISIC_5736624.JPG,,157,true,0.3600000000000002,hh,keypress(i),0,false,1048517.6000000238,1048517.2000000477,1047344.988,1047430.3999999762,1047344.988,1048447,1,40,4,
sequence,flow.Sequence,6_3,2024-03-19T17:53:38.631Z,,,,,,,,,,,1172.2120000476716,completion,,,,,,,high,high,,,,,,,true,,,,,false,1048518.2999999523,1048517.2000000477,1047344.988,1047430.2999999523,1047344.988,1048447,1,40,,
trial,html.Screen,6_4_0,2024-03-19T17:53:40.078Z,,,,1,1.064425982109969,-0.958564243697126,,,true,lh,1518.1000000238419,response,-1.0822170028935367,1.2,-1.2,1.1654796154432183,1.2,-1.2,low,high,,ISIC_3203344.JPG,,ISIC_7288818.JPG,,26,true,0.3300000000000002,lh,keypress(e),0,false,1049965.5,1049965.1000000238,1048446.096,1048518.6000000238,1048447,1049880.4,1,40,5,
sequence,flow.Sequence,6_4,2024-03-19T17:53:40.079Z,,,,,,,,,,,1518.1000000238419,completion,,,,,,,low,high,,,,,,,true,,,,,false,1049965.8999999762,1049965.1000000238,1048446.096,1048518.5,1048447,1049880.4,1,40,,
trial,html.Screen,6_5_0,2024-03-19T17:53:41.590Z,,,,1,1.064425982109969,-0.958564243697126,,,true,lh,1596.8000000477768,response,-0.9293545888449,1.2,-1.2,1.551750455622795,1.2,-1.2,low,high,,ISIC_3203344.JPG,,ISIC_7717907.JPG,,33,true,0.3600000000000002,lh,keypress(e),0,false,1051477.6000000238,1051477.2000000477,1049880.05,1049966.1000000238,1049880.4,1051398.2,1,40,6,
sequence,flow.Sequence,6_5,2024-03-19T17:53:41.591Z,,,,,,,,,,,1596.8000000477768,completion,,,,,,,low,high,,,,,,,true,,,,,false,1051478,1051477.2000000477,1049880.05,1049966.1000000238,1049880.4,1051398.2,1,40,,
trial,html.Screen,6_6_0,2024-03-19T17:53:43.775Z,,,,1,1.0959058628476686,1.2921331918483707,,,true,ll,2263.599999952363,response,-1.189469386514313,1.2,-1.2,-1.3008582067137853,1.2,-1.2,low,low,,ISIC_5920470.JPG,,ISIC_0010644.JPG,,249,true,0.3600000000000002,ll,keypress(f),0,false,1053662.2000000477,1053661.7999999523,1051381.8,1051478.2999999523,1051398.2,1053583.4,1,40,7,
sequence,flow.Sequence,6_6,2024-03-19T17:53:43.776Z,,,,,,,,,,,2263.599999952363,completion,,,,,,,low,low,,,,,,,true,,,,,false,1053662.7000000477,1053661.7999999523,1051381.8,1051478.2000000477,1051398.2,1053583.4,1,40,,
trial,html.Screen,6_7_0,2024-03-19T17:53:45.030Z,,,,1,-1.1392234684115472,-1.3198277407683998,,,true,hh,1333.6000000000931,response,1.073296525451802,1.2,-1.2,1.3454282740421717,1.2,-1.2,high,high,,ISIC_0071875.JPG,,ISIC_5787312.JPG,,25,true,0.15000000000000002,hh,keypress(i),0,false,1054917.3999999762,1054917,1053566.9,1053663,1053583.4,1054834.4,1,40,8,
sequence,flow.Sequence,6_7,2024-03-19T17:53:45.031Z,,,,,,,,,,,1333.6000000000931,completion,,,,,,,high,high,,,,,,,true,,,,,false,1054917.7999999523,1054917,1053566.9,1053663,1053583.4,1054834.4,1,40,,
trial,html.Screen,6_8_0,2024-03-19T17:53:46.519Z,,,,1,-1.1715181192107684,-1.2251845559044463,,,true,hh,1570.8999999524094,response,1.301795918505203,1.2,-1.2,1.0518606632781424,1.2,-1.2,high,high,,ISIC_0011957.JPG,,ISIC_0027666.JPG,,25,true,0.15000000000000002,hh,keypress(i),0,false,1056405.7000000477,1056405.2999999523,1054834.29,1054918,1054834.4,1056335.6,1,40,9,
sequence,flow.Sequence,6_8,2024-03-19T17:53:46.519Z,,,,,,,,,,,1570.8999999524094,completion,,,,,,,high,high,,,,,,,true,,,,,false,1056406.2999999523,1056405.2999999523,1054834.29,1054918,1054834.4,1056335.6,1,40,,
trial,html.Screen,6_9_0,2024-03-19T17:53:47.814Z,,,,1,-0.9212323139676136,0.9882196642247332,,,true,hl,1365.6000000475906,response,0.9013888878932071,1.2,-1.2,-0.9328095253308732,1.2,-1.2,high,low,,ISIC_0014255.JPG,,ISIC_0068259.JPG,,29,true,0.3600000000000002,hl,keypress(j),0,false,1057701.6000000238,1057701.2000000477,1056335.48,1056406.5,1056335.6,1057620.1,1,40,10,
sequence,flow.Sequence,6_9,2024-03-19T17:53:47.815Z,,,,,,,,,,,1365.6000000475906,completion,,,,,,,high,low,,,,,,,true,,,,,false,1057702,1057701.2000000477,1056335.48,1056406.3999999762,1056335.6,1057620.1,1,40,,
trial,html.Screen,6_10_0,2024-03-19T17:53:48.902Z,,,,1,-1.194799101954455,-1.2071632388858642,,,true,hh,1169.1000000475906,response,1.3366248363522348,1.2,-1.2,0.9006169139141662,1.2,-1.2,high,high,,ISIC_4347535.JPG,,ISIC_0030697.JPG,,127,true,0.3300000000000002,hh,keypress(i),0,false,1058789.7000000477,1058789.2000000477,1057603.7,1057702.2999999523,1057620.1,1058704.33,1,40,11,
sequence,flow.Sequence,6_10,2024-03-19T17:53:48.903Z,,,,,,,,,,,1169.1000000475906,completion,,,,,,,high,high,,,,,,,true,,,,,false,1058790.2999999523,1058789.2000000477,1057603.7,1057702.2000000477,1057620.1,1058704.33,1,40,,
trial,html.Screen,6_11_0,2024-03-19T17:53:50.374Z,,,,1,1.204229955025689,1.0874249761617445,,,true,ll,1556.8700000476092,response,-1.1474466950560966,1.2,-1.2,-1.173734476257662,1.2,-1.2,low,low,,ISIC_0056930.JPG,,ISIC_5216586.JPG,,27,true,0.12,ll,keypress(f),0,false,1060261.7000000477,1060261.2000000477,1058704.33,1058790.6000000238,1058704.33,1060188.7,1,40,12,
sequence,flow.Sequence,6_11,2024-03-19T17:53:50.375Z,,,,,,,,,,,1556.8700000476092,completion,,,,,,,low,low,,,,,,,true,,,,,false,1060262.2000000477,1060261.2000000477,1058704.33,1058790.6000000238,1058704.33,1060188.7,1,40,,
trial,html.Screen,6_12_0,2024-03-19T17:53:51.566Z,,,,1,-0.9225524349657857,0.929746784178986,,,true,hl,1264.3000000000466,response,1.3559315773956395,1.2,-1.2,-0.924768326187701,1.2,-1.2,high,low,,ISIC_0011077.JPG,,ISIC_5101111.JPG,,29,true,0.3600000000000002,hl,keypress(j),0,false,1061453.2999999523,1061453,1060188.614,1060262.7999999523,1060188.7,1061373.26,1,40,13,
sequence,flow.Sequence,6_12,2024-03-19T17:53:51.567Z,,,,,,,,,,,1264.3000000000466,completion,,,,,,,high,low,,,,,,,true,,,,,false,1061453.8999999762,1061453,1060188.614,1060262.7000000477,1060188.7,1061373.26,1,40,,
trial,html.Screen,6_13_0,2024-03-19T17:53:52.780Z,,,,1,-1.2609895831255231,1.0687377724194886,,,true,hl,1293.9400000476744,response,1.1235224875125256,1.2,-1.2,-0.8641223012137988,1.2,-1.2,high,low,,ISIC_1367610.JPG,,ISIC_0033901.JPG,,29,true,0.3600000000000002,hl,keypress(j),0,false,1062667.3999999762,1062667.2000000477,1061373.26,1061454,1061373.26,1062590.9,1,40,14,
sequence,flow.Sequence,6_13,2024-03-19T17:53:52.780Z,,,,,,,,,,,1293.9400000476744,completion,,,,,,,high,low,,,,,,,true,,,,,false,1062667.3999999762,1062667.2000000477,1061373.26,1061454,1061373.26,1062590.9,1,40,,
trial,html.Screen,6_14_0,2024-03-19T17:53:53.917Z,,,,1,-1.189469386514313,-1.3008582067137853,,,true,hh,1212.9999999762513,response,0.9490045439645592,1.2,-1.2,1.21751560785155,1.2,-1.2,high,high,,ISIC_0010644.JPG,,ISIC_3779424.JPG,,127,true,0.3300000000000002,hh,keypress(i),0,false,1063804.1000000238,1063803.8999999762,1062574.4,1062667.5,1062590.9,1063725.3,1,40,15,
sequence,flow.Sequence,6_14,2024-03-19T17:53:53.917Z,,,,,,,,,,,1212.9999999762513,completion,,,,,,,high,high,,,,,,,true,,,,,false,1063804.2000000477,1063803.8999999762,1062574.4,1062667.3999999762,1062590.9,1063725.3,1,40,,
trial,html.Screen,6_15_0,2024-03-19T17:53:55.263Z,,,,1,-1.1392234684115472,-1.3198277407683998,,,true,hh,1423.9999999522697,response,1.3471772753257971,1.2,-1.2,1.055978100098093,1.2,-1.2,high,high,,ISIC_0071875.JPG,,ISIC_2077116.JPG,,25,true,0.15000000000000002,hh,keypress(i),0,false,1065149.7000000477,1065149.2999999523,1063708.8,1063804.2999999523,1063725.3,1065076.2,1,40,16,
sequence,flow.Sequence,6_15,2024-03-19T17:53:55.263Z,,,,,,,,,,,1423.9999999522697,completion,,,,,,,high,high,,,,,,,true,,,,,false,1065150.2999999523,1065149.2999999523,1063708.8,1063804.2999999523,1063725.3,1065076.2,1,40,,
trial,html.Screen,6_16_0,2024-03-19T17:53:56.535Z,,,,1,-1.0822170028935367,1.1654796154432183,,,true,hl,1345.5000000477303,response,0.9039158082670506,1.2,-1.2,-1.0517562064343149,1.2,-1.2,high,low,,ISIC_7288818.JPG,,ISIC_0015411.JPG,,29,true,0.3600000000000002,hl,keypress(j),0,false,1066422.2999999523,1066421.7000000477,1065076.186,1065150.5,1065076.2,1066343.956,1,40,17,
sequence,flow.Sequence,6_16,2024-03-19T17:53:56.536Z,,,,,,,,,,,1345.5000000477303,completion,,,,,,,high,low,,,,,,,true,,,,,false,1066422.7999999523,1066421.7000000477,1065076.186,1065150.5,1065076.2,1066343.956,1,40,,
trial,html.Screen,6_17_0,2024-03-19T17:53:57.782Z,,,,1,1.1890109863264902,-0.8867825318561365,,,true,lh,1325.1440000238363,response,-1.1547137855907486,1.2,-1.2,1.0185275168641534,1.2,-1.2,low,high,,ISIC_0072576.JPG,,ISIC_7604870.JPG,,26,true,0.3300000000000002,lh,keypress(e),0,false,1067669.5,1067669.1000000238,1066343.956,1066423.1000000238,1066343.956,1067595,1,40,18,
sequence,flow.Sequence,6_17,2024-03-19T17:53:57.783Z,,,,,,,,,,,1325.1440000238363,completion,,,,,,,low,high,,,,,,,true,,,,,false,1067670.1000000238,1067669.1000000238,1066343.956,1066423,1066343.956,1067595,1,40,,
trial,html.Screen,6_18_0,2024-03-19T17:53:59.085Z,,,,1,1.00615481805876,-0.8428903771195875,,,true,lh,1377,response,-0.8407642478899736,1.2,-1.2,0.9542322753334054,1.2,-1.2,low,high,,ISIC_0069970.JPG,,ISIC_9090822.JPG,,33,true,0.3600000000000002,lh,keypress(e),0,false,1068972.2000000477,1068972,1067578.2,1067670.2000000477,1067595,1068896.3,1,40,19,
sequence,flow.Sequence,6_18,2024-03-19T17:53:59.085Z,,,,,,,,,,,1377,completion,,,,,,,low,high,,,,,,,true,,,,,false,1068972.3999999762,1068972,1067578.2,1067670.2000000477,1067595,1068896.3,1,40,,
trial,html.Screen,6_19_0,2024-03-19T17:54:00.158Z,,,,1,1.294521945180264,1.3078626540563885,,,true,ll,1148.4999999522697,response,-1.0602111027905514,1.2,-1.2,-1.470529430032402,1.2,-1.2,low,low,,ISIC_3601224.JPG,,ISIC_0033518.JPG,,249,true,0.3600000000000002,ll,keypress(f),0,false,1070045,1070044.7999999523,1068879.4,1068972.6000000238,1068896.3,1069980.2,1,40,20,
sequence,flow.Sequence,6_19,2024-03-19T17:54:00.158Z,,,,,,,,,,,1148.4999999522697,completion,,,,,,,low,low,,,,,,,true,,,,,false,1070045.3999999762,1070044.7999999523,1068879.4,1068972.5,1068896.3,1069980.2,1,40,,
trial,html.Screen,6_20_0,2024-03-19T17:54:01.292Z,,,,1,1.0003671514840182,-0.8992716557663581,,,true,lh,1199.0999999523629,response,-1.2043484010107477,1.2,-1.2,1.2178113180138233,1.2,-1.2,low,high,,ISIC_0061749.JPG,,ISIC_0011917.JPG,,26,true,0.3300000000000002,lh,keypress(e),0,false,1071179.5,1071179.2999999523,1069963.764,1070045.6000000238,1069980.2,1071097.662,1,40,21,
sequence,flow.Sequence,6_20,2024-03-19T17:54:01.293Z,,,,,,,,,,,1199.0999999523629,completion,,,,,,,low,high,,,,,,,true,,,,,false,1071179.7999999523,1071179.2999999523,1069963.764,1070045.6000000238,1069980.2,1071097.662,1,40,,
trial,html.Screen,6_21_0,2024-03-19T17:54:02.678Z,,,,1,0.9039158082670506,-1.0517562064343149,,,true,lh,1467.4380000238307,response,-0.9212323139676136,1.2,-1.2,0.9882196642247332,1.2,-1.2,low,high,,ISIC_0015411.JPG,,ISIC_0014255.JPG,,33,true,0.3600000000000002,lh,keypress(e),0,false,1072565.5,1072565.1000000238,1071097.662,1071179.7999999523,1071097.662,1072482.3,1,40,22,
sequence,flow.Sequence,6_21,2024-03-19T17:54:02.679Z,,,,,,,,,,,1467.4380000238307,completion,,,,,,,low,high,,,,,,,true,,,,,false,1072566,1072565.1000000238,1071097.662,1071179.7999999523,1071097.662,1072482.3,1,40,,
trial,html.Screen,6_22_0,2024-03-19T17:54:03.812Z,,,,1,-1.2974483548597415,-1.2071506593281005,,,true,hh,1216.9000000476371,response,1.0668742262335038,1.2,-1.2,0.9013677148468237,1.2,-1.2,high,high,,ISIC_0011007.JPG,,ISIC_1658623.JPG,,157,true,0.3600000000000002,hh,keypress(i),0,false,1073699.3999999762,1073699.2000000477,1072482.118,1072566.2000000477,1072482.3,1073616.428,1,40,23,
sequence,flow.Sequence,6_22,2024-03-19T17:54:03.812Z,,,,,,,,,,,1216.9000000476371,completion,,,,,,,high,high,,,,,,,true,,,,,false,1073699.6000000238,1073699.2000000477,1072482.118,1072566.1000000238,1072482.3,1073616.428,1,40,,
trial,html.Screen,6_23_0,2024-03-19T17:54:05.958Z,,,,1,-1.0961318727760048,1.2134960228256146,,,true,hl,2228.3719999522436,response,0.849847885203758,1.2,-1.2,-0.973447384095442,1.2,-1.2,high,low,,ISIC_9768421.JPG,,ISIC_9612228.JPG,,29,true,0.3600000000000002,hl,keypress(j),0,false,1075845.1000000238,1075844.7999999523,1073616.428,1073699.7999999523,1073616.428,1075768.6,1,40,24,
sequence,flow.Sequence,6_23,2024-03-19T17:54:05.958Z,,,,,,,,,,,2228.3719999522436,completion,,,,,,,high,low,,,,,,,true,,,,,false,1075845.5,1075844.7999999523,1073616.428,1073699.7000000477,1073616.428,1075768.6,1,40,,
trial,html.Screen,6_24_0,2024-03-19T17:54:08.117Z,,,,1,-1.1711612520017805,-1.191169949562454,,,true,hh,2235.0000000237487,response,1.3471772753257971,1.2,-1.2,1.055978100098093,1.2,-1.2,high,high,,ISIC_0061936.JPG,,ISIC_2077116.JPG,,127,true,0.3300000000000002,hh,keypress(i),0,false,1078003.7999999523,1078003.6000000238,1075751.9,1075845.6000000238,1075768.6,1077920,1,40,25,
sequence,flow.Sequence,6_24,2024-03-19T17:54:08.117Z,,,,,,,,,,,2235.0000000237487,completion,,,,,,,high,high,,,,,,,true,,,,,false,1078003.7999999523,1078003.6000000238,1075751.9,1075845.5,1075768.6,1077920,1,40,,
trial,html.Screen,6_25_0,2024-03-19T17:54:10.295Z,,,,1,-1.296989496412063,1.1425074323097002,,,true,hl,2261.600000023842,response,1.411763789273233,1.2,-1.2,-1.0057734478347988,1.2,-1.2,high,low,,ISIC_6356803.JPG,,ISIC_0027235.JPG,,29,true,0.3600000000000002,hl,keypress(j),0,false,1080182.1000000238,1080181.6000000238,1077919.154,1078003.8999999762,1077920,1080105.3,1,40,26,
sequence,flow.Sequence,6_25,2024-03-19T17:54:10.296Z,,,,,,,,,,,2261.600000023842,completion,,,,,,,high,low,,,,,,,true,,,,,false,1080183,1080181.6000000238,1077919.154,1078003.8999999762,1077920,1080105.3,1,40,,
trial,html.Screen,6_26_0,2024-03-19T17:54:11.390Z,,,,1,1.212030980680325,1.139863018685685,,,true,ll,1171.8000000237953,response,-1.2383563585964383,1.2,-1.2,-1.0364354388740975,1.2,-1.2,low,low,,ISIC_0008510.JPG,,ISIC_0027622.JPG,,211,true,0.3300000000000002,ll,keypress(f),0,false,1081277.3999999762,1081277.1000000238,1080088.6,1080183.3999999762,1080105.3,1081206.296,1,40,27,
sequence,flow.Sequence,6_26,2024-03-19T17:54:11.391Z,,,,,,,,,,,1171.8000000237953,completion,,,,,,,low,low,,,,,,,true,,,,,false,1081277.8999999762,1081277.1000000238,1080088.6,1080183.2999999523,1080105.3,1081206.296,1,40,,
trial,html.Screen,6_27_0,2024-03-19T17:54:12.478Z,,,,1,1.064425982109969,-0.958564243697126,,,true,lh,1158.8040000237525,response,-0.9566823908868002,1.2,-1.2,0.9602125665128364,1.2,-1.2,low,high,,ISIC_3203344.JPG,,ISIC_0056784.JPG,,26,true,0.3300000000000002,lh,keypress(e),0,false,1082365.5,1082365.1000000238,1081206.296,1081278.1000000238,1081206.296,1082290.6,1,40,28,
sequence,flow.Sequence,6_27,2024-03-19T17:54:12.479Z,,,,,,,,,,,1158.8040000237525,completion,,,,,,,low,high,,,,,,,true,,,,,false,1082366,1082365.1000000238,1081206.296,1081278.1000000238,1081206.296,1082290.6,1,40,,
trial,html.Screen,6_28_0,2024-03-19T17:54:15.383Z,,,,1,-1.3034518282811869,-1.0897657776277234,,,true,hh,2979.1000000475906,response,1.1119564877278971,1.2,-1.2,0.9546609075308709,1.2,-1.2,high,high,,ISIC_0071988.JPG,,ISIC_0056110.JPG,,157,true,0.3600000000000002,hh,keypress(i),0,false,1085270,1085269.7000000477,1082273.864,1082366.2000000477,1082290.6,1085192.7,1,40,29,
sequence,flow.Sequence,6_28,2024-03-19T17:54:15.383Z,,,,,,,,,,,2979.1000000475906,completion,,,,,,,high,high,,,,,,,true,,,,,false,1085270.7000000477,1085269.7000000477,1082273.864,1082366.1000000238,1082290.6,1085192.7,1,40,,
trial,html.Screen,6_29_0,2024-03-19T17:54:16.511Z,,,,1,-1.0345332538240786,1.4719115945084815,,,true,hl,1204.6999999762047,response,1.4748095371445096,1.2,-1.2,-0.9579010801034902,1.2,-1.2,high,low,,ISIC_0192490.JPG,,ISIC_0033216.JPG,,29,true,0.3600000000000002,hl,keypress(j),0,false,1086397.7000000477,1086397.3999999762,1085191.18,1085271,1085192.7,1086310.4,1,40,30,
sequence,flow.Sequence,6_29,2024-03-19T17:54:16.511Z,,,,,,,,,,,1204.6999999762047,completion,,,,,,,high,low,,,,,,,true,,,,,false,1086398.2000000477,1086397.3999999762,1085191.18,1085270.7999999523,1085192.7,1086310.4,1,40,,
trial,html.Screen,6_30_0,2024-03-19T17:54:17.590Z,,,,1,1.1168199061753437,1.212287319329914,,,true,ll,1166.6000000000931,response,-1.2839527450318475,1.2,-1.2,-1.342019616565807,1.2,-1.2,low,low,,ISIC_5919355.JPG,,ISIC_0070210.JPG,,211,true,0.3300000000000002,ll,keypress(f),0,false,1087477.2999999523,1087477,1086310.162,1086398.5,1086310.4,1087411.196,1,40,31,
sequence,flow.Sequence,6_30,2024-03-19T17:54:17.591Z,,,,,,,,,,,1166.6000000000931,completion,,,,,,,low,low,,,,,,,true,,,,,false,1087477.7999999523,1087477,1086310.162,1086398.3999999762,1086310.4,1087411.196,1,40,,
trial,html.Screen,6_31_0,2024-03-19T17:54:18.630Z,,,,1,1.4727776799485246,-0.8779113138076752,,,true,lh,1105.3040000000037,response,-1.2043484010107477,1.2,-1.2,1.2178113180138233,1.2,-1.2,low,high,,ISIC_0033074.JPG,,ISIC_0011917.JPG,,26,true,0.3300000000000002,lh,keypress(e),0,false,1088516.7999999523,1088516.5,1087411.196,1087478.1000000238,1087411.196,1088445.4,1,40,32,
sequence,flow.Sequence,6_31,2024-03-19T17:54:18.630Z,,,,,,,,,,,1105.3040000000037,completion,,,,,,,low,high,,,,,,,true,,,,,false,1088517.5,1088516.5,1087411.196,1087478,1087411.196,1088445.4,1,40,,
trial,html.Screen,6_32_0,2024-03-19T17:54:20.180Z,,,,1,1.073296525451802,1.3454282740421717,,,true,ll,1621.8999999524094,response,-0.8628696237203484,1.2,-1.2,-0.9684635118197058,1.2,-1.2,low,low,,ISIC_5787312.JPG,,ISIC_0015132.JPG,,249,true,0.3600000000000002,ll,keypress(f),0,false,1090067.3999999762,1090067.2999999523,1088429.066,1088517.7999999523,1088445.4,1089996.6,1,40,33,
sequence,flow.Sequence,6_32,2024-03-19T17:54:20.180Z,,,,,,,,,,,1621.8999999524094,completion,,,,,,,low,low,,,,,,,true,,,,,false,1090067.6000000238,1090067.2999999523,1088429.066,1088517.7000000477,1088445.4,1089996.6,1,40,,
trial,html.Screen,6_33_0,2024-03-19T17:54:21.502Z,,,,1,-0.887838744955182,1.3716210719758812,,,true,hl,1392.299999976065,response,0.8779374983479176,1.2,-1.2,-0.9745548032823428,1.2,-1.2,high,low,,ISIC_1488727.JPG,,ISIC_2991354.JPG,,29,true,0.3600000000000002,hl,keypress(j),0,false,1091389.2999999523,1091388.8999999762,1089996.544,1090067.7999999523,1089996.6,1091314.4,1,40,34,
sequence,flow.Sequence,6_33,2024-03-19T17:54:21.503Z,,,,,,,,,,,1392.299999976065,completion,,,,,,,high,low,,,,,,,true,,,,,false,1091389.7999999523,1091388.8999999762,1089996.544,1090067.7000000477,1089996.6,1091314.4,1,40,,
trial,html.Screen,6_34_0,2024-03-19T17:54:22.606Z,,,,1,-1.0264463986917702,1.171271535505083,,,true,hl,1178.3999999524094,response,0.8591294258188253,1.2,-1.2,-0.870797302150167,1.2,-1.2,high,low,,ISIC_7889838.JPG,,ISIC_0055841.JPG,,29,true,0.3600000000000002,hl,keypress(j),0,false,1092493.1000000238,1092492.7999999523,1091314.154,1091390,1091314.4,1092415.3,1,40,35,
sequence,flow.Sequence,6_34,2024-03-19T17:54:22.606Z,,,,,,,,,,,1178.3999999524094,completion,,,,,,,high,low,,,,,,,true,,,,,false,1092493.5,1092492.7999999523,1091314.154,1091389.8999999762,1091314.4,1092415.3,1,40,,
trial,html.Screen,6_35_0,2024-03-19T17:54:23.710Z,,,,1,1.11329866545753,-1.2155631217348757,,,true,lh,1181.6999999999534,response,-0.8709576717420565,1.2,-1.2,1.2795156779072283,1.2,-1.2,low,high,,ISIC_0032610.JPG,,ISIC_1925632.JPG,,26,true,0.3300000000000002,lh,keypress(e),0,false,1093597.3999999762,1093597,1092415.186,1092493.7999999523,1092415.3,1093516.296,1,40,36,
sequence,flow.Sequence,6_35,2024-03-19T17:54:23.711Z,,,,,,,,,,,1181.6999999999534,completion,,,,,,,low,high,,,,,,,true,,,,,false,1093597.8999999762,1093597,1092415.186,1092493.7999999523,1092415.3,1093516.296,1,40,,
trial,html.Screen,6_36_0,2024-03-19T17:54:24.838Z,,,,1,1.212030980680325,1.139863018685685,,,true,ll,1208.7039999999106,response,-1.0765208267927882,1.2,-1.2,-0.8606651260669556,1.2,-1.2,low,low,,ISIC_0008510.JPG,,ISIC_5313574.JPG,,249,true,0.3600000000000002,ll,keypress(f),0,false,1094725.3999999762,1094725,1093516.296,1093598,1093516.296,1094650.8,1,40,37,
sequence,flow.Sequence,6_36,2024-03-19T17:54:24.839Z,,,,,,,,,,,1208.7039999999106,completion,,,,,,,low,low,,,,,,,true,,,,,false,1094725.8999999762,1094725,1093516.296,1093598,1093516.296,1094650.8,1,40,,
trial,html.Screen,6_37_0,2024-03-19T17:54:25.958Z,,,,1,1.1727618800748076,1.0636787813411093,,,true,ll,1193.9999999522697,response,-1.2040551955011098,1.2,-1.2,-1.2664651062241792,1.2,-1.2,low,low,,ISIC_9690371.JPG,,ISIC_0068886.JPG,,41,true,0.15000000000000002,ll,keypress(f),0,false,1095845.1000000238,1095844.7999999523,1094634.1,1094726.1000000238,1094650.8,1095768.1,1,40,38,
sequence,flow.Sequence,6_37,2024-03-19T17:54:25.958Z,,,,,,,,,,,1193.9999999522697,completion,,,,,,,low,low,,,,,,,true,,,,,false,1095845.5,1095844.7999999523,1094634.1,1094726,1094650.8,1095768.1,1,40,,
trial,html.Screen,6_38_0,2024-03-19T17:54:26.989Z,,,,1,-1.2435042401134029,-1.2939710463315144,,,true,hh,1108.1000000475906,response,1.2714351764931109,1.2,-1.2,1.0785174776187512,1.2,-1.2,high,high,,ISIC_0056119.JPG,,ISIC_2454898.JPG,,25,true,0.15000000000000002,hh,keypress(i),0,false,1096876.3999999762,1096876.2000000477,1095751.6,1095845.7999999523,1095768.1,1096819.2,1,40,39,
sequence,flow.Sequence,6_38,2024-03-19T17:54:26.990Z,,,,,,,,,,,1108.1000000475906,completion,,,,,,,high,high,,,,,,,true,,,,,false,1096876.8999999762,1096876.2000000477,1095751.6,1095845.7000000477,1095768.1,1096819.2,1,40,,
trial,html.Screen,6_39_0,2024-03-19T17:54:28.716Z,,,,1,-0.9873794329144926,0.9500689037516484,,,true,hl,1810.0999999523629,response,0.9385447468573198,1.2,-1.2,-1.2289860846064424,1.2,-1.2,high,low,,ISIC_0013498.JPG,,ISIC_0032780.JPG,,29,true,0.3600000000000002,hl,keypress(j),0,false,1098629.7000000477,1098629.2999999523,1096802.532,1096876.8999999762,1096819.2,1098553.9,1,40,40,
sequence,flow.Sequence,6_39,2024-03-19T17:54:28.717Z,,,,,,,,,,,1810.0999999523629,completion,,,,,,,high,low,,,,,,,true,,,,,false,1098630.2000000477,1098629.2999999523,1096802.532,1096876.8999999762,1096819.2,1098553.9,1,40,,
practice_loop,flow.Loop,6,2024-03-19T17:54:28.717Z,,,,,,,,,,,60642.19999995234,completion,,,,,,,,,,,,,,,true,,,,,false,1098630.6000000238,1098629.2999999523,1037970.864,1038067.8999999762,1037987.1,1098553.9,1,40,,
stair_instructions,html.Screen,7,2024-03-19T17:54:31.498Z,,,,,,,,,,,2856.700000023935,response,,,,,,,,,,,,,,,,,continue,click button,,,1101411,1101410.6000000238,1098537.2,1098630.7000000477,1098553.9,1101339.6,,,,
trial,html.Screen,8_0_0,2024-03-19T17:54:46.523Z,,,,2,-0.0060934073440827,-0.0279108145883031,,0.04,false,hh,15096.899999999907,response,1.337727324390105,1.2,-1.2,0.991130212635482,1.2,-1.2,high,high,,ISIC_0032604.JPG,,ISIC_9596388.JPG,28,127,false,0.3300000000000002,ll,keypress(f),0,true,1116436.5,1116436.5,1101322.632,1101411.2000000477,1101339.6,1116368.4,1,40,1,
sequence,flow.Sequence,8_0,2024-03-19T17:54:46.523Z,,,,,,,,,,,15096.899999999907,completion,,,,,,,high,high,,,,,,,false,,,,,true,1116436.7000000477,1116436.5,1101322.632,1101411.2000000477,1101339.6,1116368.4,1,40,,
trial,html.Screen,8_1_0,2024-03-19T17:54:50.106Z,,,,2,0.0086413421586899,0.0360184993500958,,0.04,true,ll,3650.3999999524094,response,-1.0762260610050776,1.2,-1.15,-1.1184338818466155,1.2,-1.15,low,low,,ISIC_0010767.JPG,,ISIC_0058666.JPG,28,25,false,0.11,ll,keypress(f),0,true,1120018.8999999762,1120018.7999999523,1116351.9,1116436.7000000477,1116368.4,1119937.9,1,40,2,
sequence,flow.Sequence,8_1,2024-03-19T17:54:50.106Z,,,,,,,,,,,3650.3999999524094,completion,,,,,,,low,low,,,,,,,false,,,,,true,1120019.1000000238,1120018.7999999523,1116351.9,1116436.7000000477,1116368.4,1119937.9,1,40,,
trial,html.Screen,8_2_0,2024-03-19T17:54:51.931Z,,,,2,0.0321039635696159,0.020496766286318,,0.04,false,ll,1906.3999999524094,response,-1.1894733304494307,1.15,-1.15,-1.1169761866204877,1.15,-1.15,low,low,,ISIC_0058063.JPG,,ISIC_0033813.JPG,28,25,false,0.11,lh,keypress(e),0,true,1121844.5,1121844.2999999523,1119921.5,1120019.1000000238,1119937.9,1121756.1,1,40,3,
sequence,flow.Sequence,8_2,2024-03-19T17:54:51.931Z,,,,,,,,,,,1906.3999999524094,completion,,,,,,,low,low,,,,,,,false,,,,,true,1121844.5,1121844.2999999523,1119921.5,1120019.1000000238,1119937.9,1121756.1,1,40,,
trial,html.Screen,8_3_0,2024-03-19T17:54:54.018Z,,,,2,-0.0023664502831079,-0.0252784582169994,,0.04,false,hh,2174.899999999907,response,1.0831477774866454,1.15,-1.103953606148023,1.0347343776726454,1.15,-1.15,high,high,,ISIC_4156010.JPG,,ISIC_9475559.JPG,28,26,false,0.14,lh,keypress(e),0,true,1123931.1000000238,1123931,1121755.534,1121844.6000000238,1121756.1,1123858.2,1,40,4,
sequence,flow.Sequence,8_3,2024-03-19T17:54:54.018Z,,,,,,,,,,,2174.899999999907,completion,,,,,,,high,high,,,,,,,false,,,,,true,1123931.2999999523,1123931,1121755.534,1121844.6000000238,1121756.1,1123858.2,1,40,,
trial,html.Screen,8_4_0,2024-03-19T17:54:55.932Z,,,,2,0.0051046740562181,-0.0178832721027728,,0.04,true,hl,1987.0000000477303,response,0.8479396253253069,1.15,-1.103953606148023,-1.011054319516718,1.15,-1.15,high,low,,ISIC_9545819.JPG,,ISIC_0063521.JPG,28,27,false,0.31000000000000016,hl,keypress(j),0,true,1125845.6000000238,1125845.2000000477,1123840.49,1123931.2999999523,1123858.2,1125759.5,1,40,5,
sequence,flow.Sequence,8_4,2024-03-19T17:54:55.933Z,,,,,,,,,,,1987.0000000477303,completion,,,,,,,high,low,,,,,,,false,,,,,true,1125846,1125845.2000000477,1123840.49,1123931.2999999523,1123858.2,1125759.5,1,40,,
trial,html.Screen,8_5_0,2024-03-19T17:55:07.981Z,,,,2,0.0127320821962457,-0.0315308940184827,,0.04,false,ll,12134.299999952316,response,-1.089914260719518,1.15,-1.103953606148023,-1.1695563571046357,1.15,-1.15,low,low,,ISIC_8156101.JPG,,ISIC_0030695.JPG,28,27,false,0.11,hh,keypress(i),0,true,1137894.2000000477,1137893.7999999523,1125758.964,1125846.2999999523,1125759.5,1137819.3,1,40,6,
sequence,flow.Sequence,8_5,2024-03-19T17:55:07.982Z,,,,,,,,,,,12134.299999952316,completion,,,,,,,low,low,,,,,,,false,,,,,true,1137894.7999999523,1137893.7999999523,1125758.964,1125846.2000000477,1125759.5,1137819.3,1,40,,
trial,html.Screen,8_6_0,2024-03-19T17:55:12.987Z,,,,2,-0.00126575685933,-0.0325046559638838,,0.04,false,hl,5080.49999995227,response,1.1224745971429997,1.15,-1.1539536061480231,-0.8423270217438888,1.15,-1.15,high,low,,ISIC_5682259.JPG,,ISIC_0057032.JPG,28,27,false,0.31000000000000016,lh,keypress(e),0,true,1142899.8999999762,1142899.7999999523,1137810.158,1137895,1137819.3,1142823.5,1,40,7,
sequence,flow.Sequence,8_6,2024-03-19T17:55:12.987Z,,,,,,,,,,,5080.49999995227,completion,,,,,,,high,low,,,,,,,false,,,,,true,1142900.1000000238,1142899.7999999523,1137810.158,1137895,1137819.3,1142823.5,1,40,,
trial,html.Screen,8_7_0,2024-03-19T17:55:15.428Z,,,,2,-0.012020985739544,0.0126097407389903,,0.04,true,lh,2517.5,response,-1.2043484010107477,1.15,-1.1539536061480231,1.2178113180138233,1.15,-1.15,low,high,,ISIC_0069379.JPG,,ISIC_0011917.JPG,28,27,false,0.29000000000000015,lh,keypress(e),0,true,1145341.3999999762,1145341,1142820.24,1142900.2000000477,1142823.5,1145258.8,1,40,8,
sequence,flow.Sequence,8_7,2024-03-19T17:55:15.429Z,,,,,,,,,,,2517.5,completion,,,,,,,low,high,,,,,,,false,,,,,true,1145342,1145341,1142820.24,1142900.2000000477,1142823.5,1145258.8,1,40,,
trial,html.Screen,8_8_0,2024-03-19T17:55:17.812Z,,,,2,0.0321039635696159,0.020496766286318,,0.04,false,hh,2466.4999999522697,response,1.1802887330422154,1.15,-1.1539536061480231,1.0224375154810723,1.0999999999999999,-1.15,high,high,,ISIC_0058063.JPG,,ISIC_9225640.JPG,28,26,false,0.13,ll,keypress(f),0,true,1147725.7999999523,1147725.2999999523,1145257.776,1145342.2000000477,1145258.8,1147644.1,1,40,9,
sequence,flow.Sequence,8_8,2024-03-19T17:55:17.813Z,,,,,,,,,,,2466.4999999522697,completion,,,,,,,high,high,,,,,,,false,,,,,true,1147726.2000000477,1147725.2999999523,1145257.776,1145342.1000000238,1145258.8,1147644.1,1,40,,
trial,html.Screen,8_9_0,2024-03-19T17:55:21.461Z,,,,2,0.0321039635696159,0.020496766286318,,0.04,false,ll,3729.899999999907,response,-1.1320017221158485,1.15,-1.1539536061480231,-1.065213496692536,1.15,-1.15,low,low,,ISIC_0058063.JPG,,ISIC_0030597.JPG,28,30,false,0.12,hl,keypress(j),0,true,1151374.2999999523,1151374,1147643.278,1147726.5,1147644.1,1151297.1,1,40,10,
sequence,flow.Sequence,8_9,2024-03-19T17:55:21.462Z,,,,,,,,,,,3729.899999999907,completion,,,,,,,low,low,,,,,,,false,,,,,true,1151374.8999999762,1151374,1147643.278,1147726.5,1147644.1,1151297.1,1,40,,
trial,html.Screen,8_10_0,2024-03-19T17:55:25.491Z,,,,2,0.0127320821962457,-0.0315308940184827,,0.04,false,lh,4107.199999952223,response,-1.0748728054622358,1.15,-1.1539536061480231,1.2840853987892311,1.15,-1.15,low,high,,ISIC_8156101.JPG,,ISIC_0059219.JPG,28,27,false,0.29000000000000015,hh,keypress(i),0,true,1155404.6000000238,1155404.2999999523,1151295.194,1151375.3999999762,1151297.1,1155317.1,1,40,11,
sequence,flow.Sequence,8_10,2024-03-19T17:55:25.492Z,,,,,,,,,,,4107.199999952223,completion,,,,,,,low,high,,,,,,,false,,,,,true,1155404.7999999523,1155404.2999999523,1151295.194,1151375.3999999762,1151297.1,1155317.1,1,40,,
trial,html.Screen,8_11_0,2024-03-19T17:55:27.620Z,,,,2,0.0189295602385628,0.0128812415435153,,0.04,false,hh,2241.6000000475906,response,1.1168199061753437,1.15,-1.1539536061480231,1.212287319329914,1.15,-1.15,high,high,,ISIC_0010372.JPG,,ISIC_5919355.JPG,28,26,false,0.14,lh,keypress(e),0,true,1157559.2999999523,1157558.7000000477,1155314.646,1155405,1155317.1,1157485.5,1,40,12,
sequence,flow.Sequence,8_11,2024-03-19T17:55:27.621Z,,,,,,,,,,,2241.6000000475906,completion,,,,,,,high,high,,,,,,,false,,,,,true,1157560.2999999523,1157558.7000000477,1155314.646,1155405,1155317.1,1157485.5,1,40,,
trial,html.Screen,8_12_0,2024-03-19T17:55:30.546Z,,,,2,0.0327772618698018,-0.0056908372048728,,0.04,false,hl,2999.7000000476837,response,1.2838089642212804,1.15,-1.1539536061480231,-0.8550527900640753,1.1981863590595725,-1.15,high,low,,ISIC_7897925.JPG,,ISIC_0034187.JPG,28,27,false,0.31000000000000016,hh,keypress(i),0,true,1160485.6000000238,1160485.2000000477,1157484.72,1157560.7000000477,1157485.5,1160404.7,1,40,13,
sequence,flow.Sequence,8_12,2024-03-19T17:55:30.547Z,,,,,,,,,,,2999.7000000476837,completion,,,,,,,high,low,,,,,,,false,,,,,true,1160486.2999999523,1160485.2000000477,1157484.72,1157560.7000000477,1157485.5,1160404.7,1,40,,
trial,html.Screen,8_13_0,2024-03-19T17:55:32.698Z,,,,2,-0.0118555311043871,-0.0087774532070196,,0.04,false,hh,2232.6999999762047,response,1.004164099430695,1.15,-1.1539536061480231,1.0674669038247562,1.1981863590595725,-1.15,high,high,,ISIC_6488658.JPG,,ISIC_0541345.JPG,28,30,false,0.15000000000000002,lh,keypress(e),0,true,1162637.7000000477,1162637.3999999762,1160403.29,1160486.6000000238,1160404.7,1162556.4,1,40,14,
sequence,flow.Sequence,8_13,2024-03-19T17:55:32.699Z,,,,,,,,,,,2232.6999999762047,completion,,,,,,,high,high,,,,,,,false,,,,,true,1162638.2000000477,1162637.3999999762,1160403.29,1160486.5,1160404.7,1162556.4,1,40,,
trial,html.Screen,8_14_0,2024-03-19T17:55:34.834Z,,,,2,0.0086413421586899,0.0360184993500958,,0.04,false,hl,2216.300000047777,response,1.11329866545753,1.15,-1.1539536061480231,-1.2155631217348757,1.1981863590595725,-1.15,high,low,,ISIC_0010767.JPG,,ISIC_0032610.JPG,28,27,false,0.31000000000000016,ll,keypress(f),0,true,1164772.8999999762,1164772.7000000477,1162555.654,1162638.5,1162556.4,1164691.5,1,40,15,
sequence,flow.Sequence,8_14,2024-03-19T17:55:34.834Z,,,,,,,,,,,2216.300000047777,completion,,,,,,,high,low,,,,,,,false,,,,,true,1164773.3999999762,1164772.7000000477,1162555.654,1162638.3999999762,1162556.4,1164691.5,1,40,,
trial,html.Screen,8_15_0,2024-03-19T17:55:37.058Z,,,,2,0.0127320821962457,-0.0315308940184827,,0.04,true,hh,2305.7999999523163,response,1.053007132776416,1.15,-1.1539536061480231,1.341217082060068,1.1981863590595725,-1.15,high,high,,ISIC_8156101.JPG,,ISIC_0024208.JPG,28,30,false,0.15000000000000002,hh,keypress(i),0,true,1166997.7000000477,1166997.2999999523,1164690.278,1164773.5,1164691.5,1166910,1,40,16,
sequence,flow.Sequence,8_15,2024-03-19T17:55:37.059Z,,,,,,,,,,,2305.7999999523163,completion,,,,,,,high,high,,,,,,,false,,,,,true,1166998.1000000238,1166997.2999999523,1164690.278,1164773.3999999762,1164691.5,1166910,1,40,,
trial,html.Screen,8_16_0,2024-03-19T17:55:38.938Z,,,,2,-0.0023664502831079,-0.0252784582169994,,0.04,false,hl,1967.1000000238419,response,1.1224745971429997,1.15,-1.1539536061480231,-0.8423270217438888,1.147112107418242,-1.15,high,low,,ISIC_4156010.JPG,,ISIC_0057032.JPG,28,27,false,0.31000000000000016,hh,keypress(i),0,true,1168877.3999999762,1168877.1000000238,1166909.318,1166998.3999999762,1166910,1168794.9,1,40,17,
sequence,flow.Sequence,8_16,2024-03-19T17:55:38.939Z,,,,,,,,,,,1967.1000000238419,completion,,,,,,,high,low,,,,,,,false,,,,,true,1168877.8999999762,1168877.1000000238,1166909.318,1166998.2999999523,1166910,1168794.9,1,40,,
trial,html.Screen,8_17_0,2024-03-19T17:55:41.274Z,,,,2,-0.0060918352854008,0.029032683404407,,0.04,false,ll,2417.8999999524094,response,-1.0441672988386008,1.037740864959708,-1.1539536061480231,-1.108916716139547,1.147112107418242,-1.15,low,low,,ISIC_8436194.JPG,,ISIC_0063243.JPG,28,30,false,0.12,hh,keypress(i),0,true,1171213.2000000477,1171212.7999999523,1168794.232,1168878.2000000477,1168794.9,1171130.1,1,40,18,
sequence,flow.Sequence,8_17,2024-03-19T17:55:41.274Z,,,,,,,,,,,2417.8999999524094,completion,,,,,,,low,low,,,,,,,false,,,,,true,1171213.7999999523,1171212.7999999523,1168794.232,1168878.1000000238,1168794.9,1171130.1,1,40,,
trial,html.Screen,8_18_0,2024-03-19T17:55:44.050Z,,,,2,-0.0060918352854008,0.029032683404407,,0.04,false,hh,2859.299999976065,response,0.9191486333136276,1.037740864959708,-1.1539536061480231,1.080719641270871,1.147112107418242,-1.15,high,high,,ISIC_8436194.JPG,,ISIC_0663941.JPG,28,30,false,0.13,lh,keypress(e),0,true,1173989.7999999523,1173989.3999999762,1171129.18,1171214,1171130.1,1173915.7,1,40,19,
sequence,flow.Sequence,8_18,2024-03-19T17:55:44.051Z,,,,,,,,,,,2859.299999976065,completion,,,,,,,high,high,,,,,,,false,,,,,true,1173990.2999999523,1173989.3999999762,1171129.18,1171214,1171130.1,1173915.7,1,40,,
trial,html.Screen,8_19_0,2024-03-19T17:55:46.154Z,,,,2,-0.00126575685933,-0.0325046559638838,,0.04,true,lh,2177.3000000000466,response,-0.8787496315223856,1.087740864959708,-1.1539536061480231,1.3680901203013998,1.147112107418242,-1.15,low,high,,ISIC_5682259.JPG,,ISIC_0023811.JPG,28,25,false,0.28000000000000014,lh,keypress(e),0,true,1176093.2999999523,1176093,1173899.3,1173990.5,1173915.7,1176017.5,1,40,20,
sequence,flow.Sequence,8_19,2024-03-19T17:55:46.154Z,,,,,,,,,,,2177.3000000000466,completion,,,,,,,low,high,,,,,,,false,,,,,true,1176093.7999999523,1176093,1173899.3,1173990.5,1173915.7,1176017.5,1,40,,
trial,html.Screen,8_20_0,2024-03-19T17:55:48.506Z,,,,2,-0.0399381815506136,-0.0177751789152893,,0.04,true,ll,2427.7000000476837,response,-1.094624209823328,1.087740864959708,-1.1539536061480231,-1.0544499428769605,1.097112107418242,-1.15,low,low,,ISIC_3981425.JPG,,ISIC_0055526.JPG,28,30,false,0.12,ll,keypress(f),0,true,1178445.7000000477,1178445.2000000477,1176001,1176094.1000000238,1176017.5,1178369.4,1,40,21,
sequence,flow.Sequence,8_20,2024-03-19T17:55:48.507Z,,,,,,,,,,,2427.7000000476837,completion,,,,,,,low,low,,,,,,,false,,,,,true,1178446.2000000477,1178445.2000000477,1176001,1176094,1176017.5,1178369.4,1,40,,
trial,html.Screen,8_21_0,2024-03-19T17:55:50.706Z,,,,2,0.0365981355399771,0.0162670920008846,,0.04,false,lh,2275.4999999762513,response,-1.1547137855907486,1.087740864959708,-1.0245370763501442,1.0185275168641534,1.097112107418242,-1.15,low,high,,ISIC_0982855.JPG,,ISIC_7604870.JPG,28,26,false,0.2300000000000001,ll,keypress(f),0,true,1180645.2999999523,1180644.8999999762,1178368.246,1178446.3999999762,1178369.4,1180571.2,1,40,22,
sequence,flow.Sequence,8_21,2024-03-19T17:55:50.706Z,,,,,,,,,,,2275.4999999762513,completion,,,,,,,low,high,,,,,,,false,,,,,true,1180645.7999999523,1180644.8999999762,1178368.246,1178446.3999999762,1178369.4,1180571.2,1,40,,
trial,html.Screen,8_22_0,2024-03-19T17:55:52.930Z,,,,2,0.0063515208248796,0.0194177605767913,,0.04,false,hl,2297.9000000238884,response,1.1890109863264902,1.087740864959708,-1.0245370763501442,-0.8867825318561365,1.147112107418242,-1.15,high,low,,ISIC_5281908.JPG,,ISIC_0072576.JPG,28,26,false,0.29000000000000015,hh,keypress(i),0,true,1182869.5,1182869.1000000238,1180554.8,1180646,1180571.2,1182789.7,1,40,23,
sequence,flow.Sequence,8_22,2024-03-19T17:55:52.930Z,,,,,,,,,,,2297.9000000238884,completion,,,,,,,high,low,,,,,,,false,,,,,true,1182869.8999999762,1182869.1000000238,1180554.8,1180645.8999999762,1180571.2,1182789.7,1,40,,
trial,html.Screen,8_23_0,2024-03-19T17:55:55.842Z,,,,2,-0.0166849894750452,0.0371614812368835,,0.04,false,lh,2991.599999952363,response,-1.2043484010107477,1.087740864959708,-1.0245370763501442,1.2178113180138233,1.147112107418242,-1.15,low,high,,ISIC_6231450.JPG,,ISIC_0011917.JPG,28,25,false,0.2300000000000001,hl,keypress(j),0,true,1185781.7000000477,1185781.2999999523,1182788.818,1182870.1000000238,1182789.7,1185708.8,1,40,24,
sequence,flow.Sequence,8_23,2024-03-19T17:55:55.843Z,,,,,,,,,,,2991.599999952363,completion,,,,,,,low,high,,,,,,,false,,,,,true,1185782.2999999523,1185781.2999999523,1182788.818,1182870,1182789.7,1185708.8,1,40,,
trial,html.Screen,8_24_0,2024-03-19T17:55:59.538Z,,,,2,0.0367218428225813,-0.0026956749740767,,0.04,false,hl,3768.0999999761116,response,1.0143509683988825,1.087740864959708,-1.0745370763501443,-1.0281980567462463,1.197112107418242,-1.15,high,low,,ISIC_7212271.JPG,,ISIC_0062031.JPG,28,26,false,0.29000000000000015,lh,keypress(e),0,true,1189477.3999999762,1189476.8999999762,1185692.2,1185782.5,1185708.8,1189395.1,1,40,25,
sequence,flow.Sequence,8_24,2024-03-19T17:55:59.539Z,,,,,,,,,,,3768.0999999761116,completion,,,,,,,high,low,,,,,,,false,,,,,true,1189477.8999999762,1189476.8999999762,1185692.2,1185782.5,1185708.8,1189395.1,1,40,,
trial,html.Screen,8_25_0,2024-03-19T17:56:01.978Z,,,,2,0.0361875505619981,-0.0291457404567876,,0.04,true,lh,2522.1000000475906,response,-0.887838744955182,1.137740864959708,-1.0745370763501443,1.3716210719758812,1.197112107418242,-1.15,low,high,,ISIC_0027480.JPG,,ISIC_1488727.JPG,28,28,false,0.27000000000000013,lh,keypress(e),0,true,1191917.6000000238,1191917.2000000477,1189392.826,1189478.2000000477,1189395.1,1191830.6,1,40,26,
sequence,flow.Sequence,8_25,2024-03-19T17:56:01.979Z,,,,,,,,,,,2522.1000000475906,completion,,,,,,,low,high,,,,,,,false,,,,,true,1191918,1191917.2000000477,1189392.826,1189478.1000000238,1189395.1,1191830.6,1,40,,
trial,html.Screen,8_26_0,2024-03-19T17:56:05.498Z,,,,2,0.0321039635696159,0.020496766286318,,0.04,true,hh,3606.5000000237487,response,1.0581281450494728,1.137740864959708,-1.0745370763501443,1.133169116569424,1.197112107418242,-1.15,high,high,,ISIC_0058063.JPG,,ISIC_5490352.JPG,28,25,false,0.14,hh,keypress(i),0,true,1195437.6000000238,1195437.1000000238,1191829.576,1191918.3999999762,1191830.6,1195350.1,1,40,27,
sequence,flow.Sequence,8_26,2024-03-19T17:56:05.499Z,,,,,,,,,,,3606.5000000237487,completion,,,,,,,high,high,,,,,,,false,,,,,true,1195438.2999999523,1195437.1000000238,1191829.576,1191918.2000000477,1191830.6,1195350.1,1,40,,
trial,html.Screen,8_27_0,2024-03-19T17:56:07.695Z,,,,2,0.0063515208248796,0.0194177605767913,,0.04,false,hh,2284.799999976065,response,1.1816316134800355,1.137740864959708,-1.0745370763501443,0.9439295748587228,1.0456486308094484,-1.15,high,high,,ISIC_5281908.JPG,,ISIC_8002729.JPG,28,25,false,0.11,hl,keypress(j),0,true,1197635,1197634.8999999762,1195347.966,1195438.5,1195350.1,1197551.8,1,40,28,
sequence,flow.Sequence,8_27,2024-03-19T17:56:07.696Z,,,,,,,,,,,2284.799999976065,completion,,,,,,,high,high,,,,,,,false,,,,,true,1197635,1197634.8999999762,1195347.966,1195438.5,1195350.1,1197551.8,1,40,,
trial,html.Screen,8_28_0,2024-03-19T17:56:09.546Z,,,,2,-0.0050679133050021,-0.0174815595031679,,0.04,false,lh,1932.9999999522697,response,-0.9046170303418553,1.0698798792647541,-1.0745370763501443,1.0063426986460375,1.0956486308094484,-1.15,low,high,,ISIC_9848743.JPG,,ISIC_0055759.JPG,28,26,false,0.2300000000000001,ll,keypress(f),0,true,1199485.1000000238,1199484.7999999523,1197535.3,1197635,1197551.8,1199403.4,1,40,29,
sequence,flow.Sequence,8_28,2024-03-19T17:56:09.546Z,,,,,,,,,,,1932.9999999522697,completion,,,,,,,low,high,,,,,,,false,,,,,true,1199485.6000000238,1199484.7999999523,1197535.3,1197635,1197551.8,1199403.4,1,40,,
trial,html.Screen,8_29_0,2024-03-19T17:56:11.234Z,,,,2,-0.00126575685933,-0.0325046559638838,,0.04,false,lh,1769.3000000477768,response,-0.887838744955182,1.0698798792647541,-1.0245370763501442,1.3716210719758812,1.1456486308094485,-1.15,low,high,,ISIC_5682259.JPG,,ISIC_1488727.JPG,28,25,false,0.2300000000000001,ll,keypress(f),0,true,1201173.1000000238,1201172.7000000477,1199402.966,1199485.8999999762,1199403.4,1201088.1,1,40,30,
sequence,flow.Sequence,8_29,2024-03-19T17:56:11.234Z,,,,,,,,,,,1769.3000000477768,completion,,,,,,,low,high,,,,,,,false,,,,,true,1201173.6000000238,1201172.7000000477,1199402.966,1199485.8999999762,1199403.4,1201088.1,1,40,,
trial,html.Screen,8_30_0,2024-03-19T17:56:13.650Z,,,,2,-0.0071892445601978,0.0246015408628738,,0.04,false,ll,2500.6000000475906,response,-0.968277930473984,1.0698798792647541,-1.0245370763501442,-1.0901346674420178,1.1956486308094485,-1.15,low,low,,ISIC_0014133.JPG,,ISIC_0519386.JPG,28,31,false,0.1,lh,keypress(e),0,true,1203589.1000000238,1203588.7000000477,1201087.54,1201173.7000000477,1201088.1,1203506.7,1,40,31,
sequence,flow.Sequence,8_30,2024-03-19T17:56:13.650Z,,,,,,,,,,,2500.6000000475906,completion,,,,,,,low,low,,,,,,,false,,,,,true,1203589.6000000238,1203588.7000000477,1201087.54,1201173.7000000477,1201088.1,1203506.7,1,40,,
trial,html.Screen,8_31_0,2024-03-19T17:56:22.418Z,,,,2,0.0365981355399771,0.0162670920008846,,0.04,false,ll,8850.699999976205,response,-0.9019902492274832,1.0698798792647541,-0.878058337714583,-1.1873288031905294,1.1956486308094485,-1.15,low,low,,ISIC_0982855.JPG,,ISIC_0070992.JPG,28,30,false,0.1,lh,keypress(e),0,true,1212357.8999999762,1212357.3999999762,1203490.3,1203589.7999999523,1203506.7,1212280.6,1,40,32,
sequence,flow.Sequence,8_31,2024-03-19T17:56:22.419Z,,,,,,,,,,,8850.699999976205,completion,,,,,,,low,low,,,,,,,false,,,,,true,1212358.2999999523,1212357.3999999762,1203490.3,1203589.7000000477,1203506.7,1212280.6,1,40,,
trial,html.Screen,8_32_0,2024-03-19T17:56:26.794Z,,,,2,-0.0158987717472563,-0.0292472192292015,,0.04,false,ll,4452.299999976065,response,-0.850661315114799,1.0698798792647541,-0.878058337714583,-1.1484096197304636,1.1956486308094485,-1.15,low,low,,ISIC_1366765.JPG,,ISIC_0067808.JPG,28,30,false,0.1,hh,keypress(i),0,true,1216733.3999999762,1216732.8999999762,1212274.256,1212358.6000000238,1212280.6,1216650.9,1,40,33,
sequence,flow.Sequence,8_32,2024-03-19T17:56:26.794Z,,,,,,,,,,,4452.299999976065,completion,,,,,,,low,low,,,,,,,false,,,,,true,1216733.8999999762,1216732.8999999762,1212274.256,1212358.6000000238,1212280.6,1216650.9,1,40,,
trial,html.Screen,8_33_0,2024-03-19T17:56:30.287Z,,,,2,-0.0158987717472563,-0.0292472192292015,,0.04,false,ll,3601.600000000093,response,-0.9866439901618108,1.0698798792647541,-0.928058337714583,-1.1327283202367815,1.1956486308094485,-1.15,low,low,,ISIC_1366765.JPG,,ISIC_0072953.JPG,28,30,false,0.1,lh,keypress(e),0,true,1220253.1000000238,1220252.5,1216648.332,1216734.2000000477,1216650.9,1220170.4,1,40,34,
sequence,flow.Sequence,8_33,2024-03-19T17:56:30.288Z,,,,,,,,,,,3601.600000000093,completion,,,,,,,low,low,,,,,,,false,,,,,true,1220253.5,1220252.5,1216648.332,1216734.1000000238,1216650.9,1220170.4,1,40,,
trial,html.Screen,8_34_0,2024-03-19T17:56:33.168Z,,,,2,-0.0050679133050021,-0.0174815595031679,,0.04,false,hl,2962.800000047777,response,0.8152354890677903,1.0698798792647541,-0.928058337714583,-1.10470584815077,1.1956486308094485,-1.15,high,low,,ISIC_9848743.JPG,,ISIC_0010283.JPG,28,26,false,0.29000000000000015,hh,keypress(i),0,true,1223133.6000000238,1223133.2000000477,1220168.534,1220253.7000000477,1220170.4,1223056.2,1,40,35,
sequence,flow.Sequence,8_34,2024-03-19T17:56:33.169Z,,,,,,,,,,,2962.800000047777,completion,,,,,,,high,low,,,,,,,false,,,,,true,1223134.3999999762,1223133.2000000477,1220168.534,1220253.7000000477,1220170.4,1223056.2,1,40,,
trial,html.Screen,8_35_0,2024-03-19T17:56:35.016Z,,,,2,0.0199897690678184,0.0312486875504497,,0.04,true,hh,1924.6999999762047,response,1.0008138976134489,1.0698798792647541,-0.928058337714583,1.292636741787064,1.1956486308094485,-1.15,high,high,,ISIC_5482426.JPG,,ISIC_6000407.JPG,28,26,false,0.13,hh,keypress(i),0,true,1224981.2999999523,1224980.8999999762,1223039.8,1223134.6000000238,1223056.2,1224907.7,1,40,36,
sequence,flow.Sequence,8_35,2024-03-19T17:56:35.016Z,,,,,,,,,,,1924.6999999762047,completion,,,,,,,high,high,,,,,,,false,,,,,true,1224981.8999999762,1224980.8999999762,1223039.8,1223134.6000000238,1223056.2,1224907.7,1,40,,
trial,html.Screen,8_36_0,2024-03-19T17:56:43.832Z,,,,2,-0.00126575685933,-0.0325046559638838,,0.04,true,lh,8889.599999952363,response,-0.9212323139676136,1.0967253197002564,-0.928058337714583,0.9882196642247332,1.1956486308094485,-1.15,low,high,,ISIC_5682259.JPG,,ISIC_0014255.JPG,28,25,false,0.21000000000000008,lh,keypress(e),0,true,1233797.6000000238,1233797.2999999523,1224907.266,1224982.2000000477,1224907.7,1233715,1,40,37,
sequence,flow.Sequence,8_36,2024-03-19T17:56:43.832Z,,,,,,,,,,,8889.599999952363,completion,,,,,,,low,high,,,,,,,false,,,,,true,1233798.1000000238,1233797.2999999523,1224907.266,1224982.1000000238,1224907.7,1233715,1,40,,
trial,html.Screen,8_37_0,2024-03-19T17:56:46.223Z,,,,2,0.0199897690678184,0.0312486875504497,,0.04,false,hl,2473.7000000476837,response,0.8479396253253069,1.0967253197002564,-0.878058337714583,-1.011054319516718,1.0904282030058985,-1.15,high,low,,ISIC_5482426.JPG,,ISIC_0063521.JPG,28,26,false,0.29000000000000015,lh,keypress(e),0,true,1236189.1000000238,1236188.7000000477,1233708.388,1233798.2999999523,1233715,1236117,1,40,38,
sequence,flow.Sequence,8_37,2024-03-19T17:56:46.224Z,,,,,,,,,,,2473.7000000476837,completion,,,,,,,high,low,,,,,,,false,,,,,true,1236189.5,1236188.7000000477,1233708.388,1233798.2000000477,1233715,1236117,1,40,,
trial,html.Screen,8_38_0,2024-03-19T17:56:48.104Z,,,,2,0.0321039635696159,0.020496766286318,,0.04,false,hl,1952,response,0.9445114955578736,1.1467253197002565,-0.878058337714583,-1.0054210059625863,1.0904282030058985,-1.15,high,low,,ISIC_0058063.JPG,,ISIC_0033807.JPG,28,27,false,0.31000000000000016,lh,keypress(e),0,true,1238069.3999999762,1238069,1236099.168,1236189.7000000477,1236117,1237985.2,1,40,39,
sequence,flow.Sequence,8_38,2024-03-19T17:56:48.104Z,,,,,,,,,,,1952,completion,,,,,,,high,low,,,,,,,false,,,,,true,1238070,1238069,1236099.168,1236189.7000000477,1236117,1237985.2,1,40,,
trial,html.Screen,8_39_0,2024-03-19T17:56:51.319Z,,,,2,0.010035581303589,-0.0100711721396864,,0.04,false,lh,3299.1999999762047,response,-0.7761549898346118,1.1967253197002565,-0.878058337714583,1.0995228188562456,1.0904282030058985,-1.15,low,high,,ISIC_0030592.JPG,,ISIC_1835041.JPG,28,29,false,0.19000000000000006,ll,keypress(f),0,true,1241284.8999999762,1241284.3999999762,1237984.732,1238070.2000000477,1237985.2,1241204.4,1,40,40,
sequence,flow.Sequence,8_39,2024-03-19T17:56:51.320Z,,,,,,,,,,,3299.1999999762047,completion,,,,,,,low,high,,,,,,,false,,,,,true,1241285.3999999762,1241284.3999999762,1237984.732,1238070.1000000238,1237985.2,1241204.4,1,40,,
stair_loop,flow.Loop,8,2024-03-19T17:56:51.320Z,,,,,,,,,,,139944.79999997607,completion,,,,,,,,,,,,,,,false,,,,,true,1241285.7000000477,1241284.3999999762,1101322.632,1101411.1000000238,1101339.6,1241204.4,1,40,,
exp_instructions,html.Screen,9,2024-03-19T17:56:54.103Z,,,,,,,,,,,2863.700000023935,response,,,,,,,,,,,,,,,,,continue,keypress(Space),,,1244069.2000000477,1244068.1000000238,1241202.678,1241285.8999999762,1241204.4,1243990,,,,
trial,html.Screen,10_0_0,2024-03-19T17:56:57.216Z,,,,1,-0.0399381815506136,-0.0177751789152893,,0.04,false,ll,3191.5,response,-1.042500842905652,1.097393361629836,-0.9875924704540358,-1.083053464502593,1.1503777834519935,-1.1499999999999997,low,low,,ISIC_3981425.JPG,9,ISIC_0071135.JPG,28,32,false,0.1,hh,keypress(i),0,false,1247181.8999999762,1247181.5,1243973.5,1244069.6000000238,1243990,1247109.4,5,600,1,
break,html.Screen,10_0_1,2024-03-19T17:56:57.218Z,,,,,,,,,,,NaN,,,,,,,,low,low,,,,,,,false,,,,,false,1247184.1000000238,1247183.6000000238,,1247182.3999999762,,1247109.4,5,600,,
break_continue,html.Screen,10_0_2,2024-03-19T17:56:57.220Z,,,,,,,,,,,NaN,,,,,,,,low,low,,,,,,,false,,,,,false,1247185.6000000238,1247185.1000000238,,1247184.3999999762,,1247109.4,5,600,,
sequence,flow.Sequence,10_0,2024-03-19T17:56:57.220Z,,,,,,,,,,,3195.100000023842,completion,,,,,,,low,low,,,,,,,false,,,,,false,1247186.2000000477,1247185.1000000238,1243973.5,1244069.6000000238,1243990,1247109.4,5,600,,
trial,html.Screen,10_1_0,2024-03-19T17:57:01.912Z,,,,1,-0.0118555311043871,-0.0087774532070196,,0.04,true,lh,4767.499999976251,response,-0.8688859182707874,1.097393361629836,-0.9875924704540358,0.9566733172438716,1.1503777834519935,-1.1499999999999997,low,high,,ISIC_6488658.JPG,9,ISIC_0640770.JPG,28,28,false,0.22000000000000008,lh,keypress(e),0,false,1251877.3999999762,1251876.8999999762,1247091.116,1247186.5,1247109.4,1251796.5,5,600,2,
break,html.Screen,10_1_1,2024-03-19T17:57:01.913Z,,,,,,,,,,,NaN,,,,,,,,low,high,,,,,,,false,,,,,false,1251879,1251878.7000000477,,1251877.8999999762,,1251796.5,5,600,,
break_continue,html.Screen,10_1_2,2024-03-19T17:57:01.914Z,,,,,,,,,,,NaN,,,,,,,,low,high,,,,,,,false,,,,,false,1251880.1000000238,1251879.7999999523,,1251879.2999999523,,1251796.5,5,600,,
sequence,flow.Sequence,10_1,2024-03-19T17:57:01.915Z,,,,,,,,,,,4770.399999952409,completion,,,,,,,low,high,,,,,,,false,,,,,false,1251880.3999999762,1251879.7999999523,1247091.116,1247186.3999999762,1247109.4,1251796.5,5,600,,
trial,html.Screen,10_2_0,2024-03-19T17:57:03.687Z,,,,1,0.0051046740562181,-0.0178832721027728,,0.04,false,hh,1856.2000000476837,response,1.1655508270784471,1.097393361629836,-0.9875924704540358,1.1162776063248168,1.1503777834519935,-1.1499999999999997,high,high,,ISIC_9545819.JPG,9,ISIC_5509946.JPG,28,29,false,0.13,lh,keypress(e),0,false,1253653,1253652.7000000477,1251793.286,1251880.6000000238,1251796.5,1253581.9,5,600,3,
break,html.Screen,10_2_1,2024-03-19T17:57:03.689Z,,,,,,,,,,,NaN,,,,,,,,high,high,,,,,,,false,,,,,false,1253654.6000000238,1253654.1000000238,,1253653.3999999762,,1253581.9,5,600,,
break_continue,html.Screen,10_2_2,2024-03-19T17:57:03.690Z,,,,,,,,,,,NaN,,,,,,,,high,high,,,,,,,false,,,,,false,1253655.3999999762,1253655.1000000238,,1253654.7999999523,,1253581.9,5,600,,
sequence,flow.Sequence,10_2,2024-03-19T17:57:03.690Z,,,,,,,,,,,1858.6000000238419,completion,,,,,,,high,high,,,,,,,false,,,,,false,1253655.6000000238,1253655.1000000238,1251793.286,1251880.6000000238,1251796.5,1253581.9,5,600,,
trial,html.Screen,10_3_0,2024-03-19T17:57:11.776Z,,,,1,-0.0023664502831079,-0.0252784582169994,,0.04,true,hh,8158.999999976251,response,1.0901635293704552,1.097393361629836,-0.9875924704540358,1.0348352814358883,1.1503777834519935,-1.1499999999999997,high,high,,ISIC_4156010.JPG,8,ISIC_7583134.JPG,28,29,false,0.13,hh,keypress(i),0,false,1261741.2999999523,1261740.8999999762,1253564.136,1253655.7999999523,1253581.9,1261671.6,5,600,4,
break,html.Screen,10_3_1,2024-03-19T17:57:11.777Z,,,,,,,,,,,NaN,,,,,,,,high,high,,,,,,,false,,,,,false,1261742.7000000477,1261742.3999999762,,1261741.7999999523,,1261671.6,5,600,,
break_continue,html.Screen,10_3_2,2024-03-19T17:57:11.778Z,,,,,,,,,,,NaN,,,,,,,,high,high,,,,,,,false,,,,,false,1261743.3999999762,1261743.2000000477,,1261742.8999999762,,1261671.6,5,600,,
sequence,flow.Sequence,10_3,2024-03-19T17:57:11.778Z,,,,,,,,,,,8161.300000047777,completion,,,,,,,high,high,,,,,,,false,,,,,false,1261743.7000000477,1261743.2000000477,1253564.136,1253655.7999999523,1253581.9,1261671.6,5,600,,
trial,html.Screen,10_4_0,2024-03-19T17:57:13.920Z,,,,1,0.0321039635696159,0.020496766286318,,0.04,false,hh,2213.799999976065,response,1.1655508270784471,1.097393361629836,-0.9875924704540358,1.1162776063248168,1.1503777834519935,-1.1499999999999997,high,high,,ISIC_0058063.JPG,9,ISIC_5509946.JPG,28,29,false,0.13,lh,keypress(e),0,false,1263885.8999999762,1263885.3999999762,1261654.7,1261743.8999999762,1261671.6,1263806.2,5,600,5,
break,html.Screen,10_4_1,2024-03-19T17:57:13.922Z,,,,,,,,,,,NaN,,,,,,,,high,high,,,,,,,false,,,,,false,1263887.6000000238,1263887.2000000477,,1263886.5,,1263806.2,5,600,,
break_continue,html.Screen,10_4_2,2024-03-19T17:57:13.923Z,,,,,,,,,,,NaN,,,,,,,,high,high,,,,,,,false,,,,,false,1263888.7000000477,1263888.3999999762,,1263888,,1263806.2,5,600,,
sequence,flow.Sequence,10_4,2024-03-19T17:57:13.923Z,,,,,,,,,,,2216.799999976065,completion,,,,,,,high,high,,,,,,,false,,,,,false,1263889.1000000238,1263888.3999999762,1261654.7,1261743.7999999523,1261671.6,1263806.2,5,600,,
trial,html.Screen,10_5_0,2024-03-19T17:57:17.920Z,,,,1,-0.012810673904807,0.00400964452501,,0.04,true,lh,4078.8000000000466,response,-0.9566823908868002,1.097393361629836,-0.9875924704540358,0.9602125665128364,1.1503777834519935,-1.1499999999999997,low,high,,ISIC_0064656.JPG,8,ISIC_0056784.JPG,28,28,false,0.22000000000000008,lh,keypress(e),0,false,1267885.2999999523,1267885,1263806.124,1263889.3999999762,1263806.2,1267809.6,5,600,6,
break,html.Screen,10_5_1,2024-03-19T17:57:17.921Z,,,,,,,,,,,NaN,,,,,,,,low,high,,,,,,,false,,,,,false,1267886.8999999762,1267886.3999999762,,1267885.7999999523,,1267809.6,5,600,,
break_continue,html.Screen,10_5_2,2024-03-19T17:57:17.922Z,,,,,,,,,,,NaN,,,,,,,,low,high,,,,,,,false,,,,,false,1267887.7999999523,1267887.6000000238,,1267887.2000000477,,1267809.6,5,600,,
sequence,flow.Sequence,10_5,2024-03-19T17:57:17.922Z,,,,,,,,,,,4081.4000000238884,completion,,,,,,,low,high,,,,,,,false,,,,,false,1267888.2000000477,1267887.6000000238,1263806.124,1263889.2999999523,1263806.2,1267809.6,5,600,,
trial,html.Screen,10_6_0,2024-03-19T17:57:21.311Z,,,,1,0.0086413421586899,0.0360184993500958,,0.04,false,hl,3467.1000000475906,response,1.1235224875125256,1.097393361629836,-0.9875924704540358,-0.8641223012137988,1.1503777834519935,-1.1499999999999997,high,low,,ISIC_0010767.JPG,9,ISIC_0033901.JPG,28,27,false,0.30000000000000016,ll,keypress(f),0,false,1271277.2000000477,1271276.7000000477,1267807.28,1267888.3999999762,1267809.6,1271195.8,5,600,7,
break,html.Screen,10_6_1,2024-03-19T17:57:21.313Z,,,,,,,,,,,NaN,,,,,,,,high,low,,,,,,,false,,,,,false,1271278.6000000238,1271278.1000000238,,1271277.6000000238,,1271195.8,5,600,,
break_continue,html.Screen,10_6_2,2024-03-19T17:57:21.314Z,,,,,,,,,,,NaN,,,,,,,,high,low,,,,,,,false,,,,,false,1271279.3999999762,1271279.2000000477,,1271278.8999999762,,1271195.8,5,600,,
sequence,flow.Sequence,10_6,2024-03-19T17:57:21.314Z,,,,,,,,,,,3469.6000000475906,completion,,,,,,,high,low,,,,,,,false,,,,,false,1271279.7000000477,1271279.2000000477,1267807.28,1267888.3999999762,1267809.6,1271195.8,5,600,,
trial,html.Screen,10_7_0,2024-03-19T17:57:24.600Z,,,,1,0.0063515208248796,0.0194177605767913,,0.04,false,hh,3369.5999999761116,response,1.1305948371148624,1.097393361629836,-0.9875924704540358,1.2802709447034604,1.1503777834519935,-1.1499999999999997,high,high,,ISIC_5281908.JPG,9,ISIC_5648111.JPG,28,29,false,0.13,hl,keypress(j),0,false,1274565.7999999523,1274565.3999999762,1271193.938,1271280,1271195.8,1274481.9,5,600,8,
break,html.Screen,10_7_1,2024-03-19T17:57:24.602Z,,,,,,,,,,,NaN,,,,,,,,high,high,,,,,,,false,,,,,false,1274567.3999999762,1274567,,1274566.2000000477,,1274481.9,5,600,,
break_continue,html.Screen,10_7_2,2024-03-19T17:57:24.603Z,,,,,,,,,,,NaN,,,,,,,,high,high,,,,,,,false,,,,,false,1274568.3999999762,1274568.1000000238,,1274567.7000000477,,1274481.9,5,600,,
sequence,flow.Sequence,10_7,2024-03-19T17:57:24.603Z,,,,,,,,,,,3372.3000000237953,completion,,,,,,,high,high,,,,,,,false,,,,,false,1274568.7000000477,1274568.1000000238,1271193.938,1271279.8999999762,1271195.8,1274481.9,5,600,,
trial,html.Screen,10_8_0,2024-03-19T17:57:26.976Z,,,,1,0.0365981355399771,0.0162670920008846,,0.04,true,hh,2459.200000023935,response,1.1727618800748076,1.097393361629836,-0.9875924704540358,1.0636787813411093,1.1503777834519935,-1.1499999999999997,high,high,,ISIC_0982855.JPG,8,ISIC_9690371.JPG,28,29,false,0.13,hh,keypress(i),0,false,1276941.5,1276941.1000000238,1274481.472,1274568.8999999762,1274481.9,1276867.3,5,600,9,
break,html.Screen,10_8_1,2024-03-19T17:57:26.977Z,,,,,,,,,,,NaN,,,,,,,,high,high,,,,,,,false,,,,,false,1276943.2000000477,1276942.6000000238,,1276941.8999999762,,1276867.3,5,600,,
break_continue,html.Screen,10_8_2,2024-03-19T17:57:26.978Z,,,,,,,,,,,NaN,,,,,,,,high,high,,,,,,,false,,,,,false,1276943.8999999762,1276943.7999999523,,1276943.3999999762,,1276867.3,5,600,,
sequence,flow.Sequence,10_8,2024-03-19T17:57:26.979Z,,,,,,,,,,,2461.8999999524094,completion,,,,,,,high,high,,,,,,,false,,,,,false,1276944.2000000477,1276943.7999999523,1274481.472,1274568.7999999523,1274481.9,1276867.3,5,600,,
trial,html.Screen,10_9_0,2024-03-19T17:57:29.005Z,,,,1,-0.0166849894750452,0.0371614812368835,,0.04,true,hh,2129.4999999522697,response,1.0581281450494728,1.097393361629836,-0.9875924704540358,1.133169116569424,1.1503777834519935,-1.1499999999999997,high,high,,ISIC_6231450.JPG,14,ISIC_5490352.JPG,28,29,false,0.13,hh,keypress(i),0,false,1278997.1000000238,1278996.7999999523,1276850.6,1276944.5,1276867.3,1278918.8,5,600,10,
break,html.Screen,10_9_1,2024-03-19T17:57:29.006Z,,,,,,,,,,,NaN,,,,,,,,high,high,,,,,,,false,,,,,false,1278998.5,1278998.1000000238,,1278997.5,,1278918.8,5,600,,
break_continue,html.Screen,10_9_2,2024-03-19T17:57:29.007Z,,,,,,,,,,,NaN,,,,,,,,high,high,,,,,,,false,,,,,false,1278999.2000000477,1278999,,1278998.7000000477,,1278918.8,5,600,,
sequence,flow.Sequence,10_9,2024-03-19T17:57:29.007Z,,,,,,,,,,,2131.6999999999534,completion,,,,,,,high,high,,,,,,,false,,,,,false,1278999.5,1278999,1276850.6,1276944.3999999762,1276867.3,1278918.8,5,600,,
trial,html.Screen,10_10_0,2024-03-19T17:57:32.151Z,,,,1,-0.0077673378094614,-0.0021810768579373,,0.04,false,hl,3223.6999999999534,response,0.8534691366511764,1.097393361629836,-0.9875924704540358,-1.276663727068437,1.1503777834519935,-1.1499999999999997,high,low,,ISIC_0067621.JPG,9,ISIC_0056788.JPG,28,27,false,0.30000000000000016,ll,keypress(f),0,false,1282143,1282142.5,1278918.226,1278999.6000000238,1278918.8,1282072.2,5,600,11,
break,html.Screen,10_10_1,2024-03-19T17:57:32.153Z,,,,,,,,,,,NaN,,,,,,,,high,low,,,,,,,false,,,,,false,1282144.8999999762,1282144.2999999523,,1282143.5,,1282072.2,5,600,,
break_continue,html.Screen,10_10_2,2024-03-19T17:57:32.153Z,,,,,,,,,,,NaN,,,,,,,,high,low,,,,,,,false,,,,,false,1282145.5,1282145.3999999762,,1282145.2999999523,,1282072.2,5,600,,
sequence,flow.Sequence,10_10,2024-03-19T17:57:32.153Z,,,,,,,,,,,3226.5999999761116,completion,,,,,,,high,low,,,,,,,false,,,,,false,1282145.6000000238,1282145.3999999762,1278918.226,1278999.6000000238,1278918.8,1282072.2,5,600,,
trial,html.Screen,10_11_0,2024-03-19T17:57:37.391Z,,,,1,-0.0050679133050021,-0.0174815595031679,,0.04,false,lh,5310.800000000047,response,-0.7753299102004093,1.097393361629836,-0.9875924704540358,1.053851019509641,1.1503777834519935,-1.1499999999999997,low,high,,ISIC_9848743.JPG,9,ISIC_9511832.JPG,28,28,false,0.22000000000000008,ll,keypress(f),0,false,1287383.3999999762,1287383,1282054.298,1282145.7000000477,1282072.2,1287309.3,5,600,12,
break,html.Screen,10_11_1,2024-03-19T17:57:37.393Z,,,,,,,,,,,NaN,,,,,,,,low,high,,,,,,,false,,,,,false,1287384.8999999762,1287384.5,,1287383.8999999762,,1287309.3,5,600,,
break_continue,html.Screen,10_11_2,2024-03-19T17:57:37.394Z,,,,,,,,,,,NaN,,,,,,,,low,high,,,,,,,false,,,,,false,1287385.8999999762,1287385.6000000238,,1287385.2000000477,,1287309.3,5,600,,
sequence,flow.Sequence,10_11,2024-03-19T17:57:37.394Z,,,,,,,,,,,5313.400000023888,completion,,,,,,,low,high,,,,,,,false,,,,,false,1287386.2000000477,1287385.6000000238,1282054.298,1282145.7000000477,1282072.2,1287309.3,5,600,,
trial,html.Screen,10_12_0,2024-03-19T17:57:39.365Z,,,,1,-0.0023664502831079,-0.0252784582169994,,0.04,true,ll,2047.5999999761116,response,-1.0098789684902802,1.097393361629836,-0.9875924704540358,-1.152593747486636,1.1503777834519935,-1.1499999999999997,low,low,,ISIC_4156010.JPG,9,ISIC_0061491.JPG,28,32,false,0.1,ll,keypress(f),0,false,1289357.2999999523,1289356.8999999762,1287292.6,1287386.3999999762,1287309.3,1289277.4,5,600,13,
break,html.Screen,10_12_1,2024-03-19T17:57:39.367Z,,,,,,,,,,,NaN,,,,,,,,low,low,,,,,,,false,,,,,false,1289358.7999999523,1289358.3999999762,,1289357.7999999523,,1289277.4,5,600,,
break_continue,html.Screen,10_12_2,2024-03-19T17:57:39.368Z,,,,,,,,,,,NaN,,,,,,,,low,low,,,,,,,false,,,,,false,1289359.7000000477,1289359.3999999762,,1289359,,1289277.4,5,600,,
sequence,flow.Sequence,10_12,2024-03-19T17:57:39.368Z,,,,,,,,,,,2050.0999999761116,completion,,,,,,,low,low,,,,,,,false,,,,,false,1289360,1289359.3999999762,1287292.6,1287386.3999999762,1287309.3,1289277.4,5,600,,
trial,html.Screen,10_13_0,2024-03-19T17:57:41.973Z,,,,1,-0.0050679133050021,-0.0174815595031679,,0.04,false,hh,2687.700000023935,response,1.1168199061753437,1.097393361629836,-0.9875924704540358,1.212287319329914,1.1503777834519935,-1.1499999999999997,high,high,,ISIC_9848743.JPG,9,ISIC_5919355.JPG,28,29,false,0.13,ll,keypress(f),0,false,1291965.5,1291965.1000000238,1289277.052,1289360.2000000477,1289277.4,1291879.564,5,600,14,
break,html.Screen,10_13_1,2024-03-19T17:57:41.975Z,,,,,,,,,,,NaN,,,,,,,,high,high,,,,,,,false,,,,,false,1291967,1291966.6000000238,,1291966,,1291879.564,5,600,,
break_continue,html.Screen,10_13_2,2024-03-19T17:57:41.976Z,,,,,,,,,,,NaN,,,,,,,,high,high,,,,,,,false,,,,,false,1291967.7000000477,1291967.3999999762,,1291967.1000000238,,1291879.564,5,600,,
sequence,flow.Sequence,10_13,2024-03-19T17:57:41.976Z,,,,,,,,,,,2689.9999999762513,completion,,,,,,,high,high,,,,,,,false,,,,,false,1291968.1000000238,1291967.3999999762,1289277.052,1289360.2000000477,1289277.4,1291879.564,5,600,,
trial,html.Screen,10_14_0,2024-03-19T17:57:44.501Z,,,,1,0.0189295602385628,0.0128812415435153,,0.04,false,hh,2613.2359999523032,response,1.0375203228848855,1.097393361629836,-0.9875924704540358,1.0256934713188917,1.1503777834519935,-1.1499999999999997,high,high,,ISIC_0010372.JPG,9,ISIC_4264600.JPG,28,29,false,0.13,lh,keypress(e),0,false,1294493.2999999523,1294492.7999999523,1291879.564,1291968.2000000477,1291879.564,1294414.8,5,600,15,
break,html.Screen,10_14_1,2024-03-19T17:57:44.502Z,,,,,,,,,,,NaN,,,,,,,,high,high,,,,,,,false,,,,,false,1294494.5,1294494.2999999523,,1294493.6000000238,,1294414.8,5,600,,
break_continue,html.Screen,10_14_2,2024-03-19T17:57:44.503Z,,,,,,,,,,,NaN,,,,,,,,high,high,,,,,,,false,,,,,false,1294495.2999999523,1294495.1000000238,,1294494.7000000477,,1294414.8,5,600,,
sequence,flow.Sequence,10_14,2024-03-19T17:57:44.503Z,,,,,,,,,,,2615.536000023829,completion,,,,,,,high,high,,,,,,,false,,,,,false,1294495.5,1294495.1000000238,1291879.564,1291968.2000000477,1291879.564,1294414.8,5,600,,
trial,html.Screen,10_15_0,2024-03-19T17:57:46.597Z,,,,1,-0.0158987717472563,-0.0292472192292015,,0.04,true,lh,2173.900000047637,response,-0.7761549898346118,1.097393361629836,-0.9875924704540358,1.0995228188562456,1.1503777834519935,-1.1499999999999997,low,high,,ISIC_1366765.JPG,9,ISIC_1835041.JPG,28,28,false,0.22000000000000008,lh,keypress(e),0,false,1296589.1000000238,1296588.7000000477,1294413.662,1294495.7000000477,1294414.8,1296516.7,5,600,16,
break,html.Screen,10_15_1,2024-03-19T17:57:46.598Z,,,,,,,,,,,NaN,,,,,,,,low,high,,,,,,,false,,,,,false,1296590.6000000238,1296590.1000000238,,1296589.5,,1296516.7,5,600,,
break_continue,html.Screen,10_15_2,2024-03-19T17:57:46.599Z,,,,,,,,,,,NaN,,,,,,,,low,high,,,,,,,false,,,,,false,1296591.5,1296591.2000000477,,1296590.7999999523,,1296516.7,5,600,,
sequence,flow.Sequence,10_15,2024-03-19T17:57:46.600Z,,,,,,,,,,,2176.400000047637,completion,,,,,,,low,high,,,,,,,false,,,,,false,1296591.8999999762,1296591.2000000477,1294413.662,1294495.7000000477,1294414.8,1296516.7,5,600,,
trial,html.Screen,10_16_0,2024-03-19T17:57:51.869Z,,,,1,-0.0023664502831079,-0.0252784582169994,,0.04,false,ll,5343.900000023888,response,-1.042500842905652,1.097393361629836,-0.9875924704540358,-1.083053464502593,1.1503777834519935,-1.1499999999999997,low,low,,ISIC_4156010.JPG,9,ISIC_0071135.JPG,28,32,false,0.1,lh,keypress(e),0,false,1301860.8999999762,1301860.6000000238,1296499.29,1296592.1000000238,1296516.7,1301787.9,5,600,17,
break,html.Screen,10_16_1,2024-03-19T17:57:51.870Z,,,,,,,,,,,NaN,,,,,,,,low,low,,,,,,,false,,,,,false,1301862,1301861.7999999523,,1301861.2000000477,,1301787.9,5,600,,
break_continue,html.Screen,10_16_2,2024-03-19T17:57:51.871Z,,,,,,,,,,,NaN,,,,,,,,low,low,,,,,,,false,,,,,false,1301862.7000000477,1301862.5,,1301862.2000000477,,1301787.9,5,600,,
sequence,flow.Sequence,10_16,2024-03-19T17:57:51.871Z,,,,,,,,,,,5345.800000000047,completion,,,,,,,low,low,,,,,,,false,,,,,false,1301863,1301862.5,1296499.29,1296592,1296516.7,1301787.9,5,600,,
trial,html.Screen,10_17_0,2024-03-19T17:57:53.995Z,,,,1,-0.0050679133050021,-0.0174815595031679,,0.04,false,ll,2199.300000047777,response,-0.968277930473984,1.097393361629836,-0.9875924704540358,-1.0901346674420178,1.1503777834519935,-1.1499999999999997,low,low,,ISIC_9848743.JPG,9,ISIC_0519386.JPG,28,32,false,0.1,lh,keypress(e),0,false,1303987.6000000238,1303987.2000000477,1301771,1301863.2000000477,1301787.9,1303906,5,600,18,
break,html.Screen,10_17_1,2024-03-19T17:57:53.997Z,,,,,,,,,,,NaN,,,,,,,,low,low,,,,,,,false,,,,,false,1303988.7999999523,1303988.3999999762,,1303987.8999999762,,1303906,5,600,,
break_continue,html.Screen,10_17_2,2024-03-19T17:57:53.997Z,,,,,,,,,,,NaN,,,,,,,,low,low,,,,,,,false,,,,,false,1303989.3999999762,1303989.2000000477,,1303989,,1303906,5,600,,
sequence,flow.Sequence,10_17,2024-03-19T17:57:53.997Z,,,,,,,,,,,2201.300000047777,completion,,,,,,,low,low,,,,,,,false,,,,,false,1303989.5,1303989.2000000477,1301771,1301863.1000000238,1301787.9,1303906,5,600,,
trial,html.Screen,10_18_0,2024-03-19T17:57:56.389Z,,,,1,0.0367218428225813,-0.0026956749740767,,0.04,false,hl,2474.899999976158,response,1.0003671514840182,1.097393361629836,-0.9875924704540358,-0.8992716557663581,1.1503777834519935,-1.1499999999999997,high,low,,ISIC_7212271.JPG,9,ISIC_0061749.JPG,28,27,false,0.30000000000000016,lh,keypress(e),0,false,1306381.2999999523,1306380.8999999762,1303905.178,1303989.7000000477,1303906,1306308.3,5,600,19,
break,html.Screen,10_18_1,2024-03-19T17:57:56.391Z,,,,,,,,,,,NaN,,,,,,,,high,low,,,,,,,false,,,,,false,1306382.7999999523,1306382.5,,1306381.7999999523,,1306308.3,5,600,,
break_continue,html.Screen,10_18_2,2024-03-19T17:57:56.391Z,,,,,,,,,,,NaN,,,,,,,,high,low,,,,,,,false,,,,,false,1306383.6000000238,1306383.2999999523,,1306383.1000000238,,1306308.3,5,600,,
sequence,flow.Sequence,10_18,2024-03-19T17:57:56.392Z,,,,,,,,,,,2477.2999999523163,completion,,,,,,,high,low,,,,,,,false,,,,,false,1306384.1000000238,1306383.2999999523,1303905.178,1303989.6000000238,1303906,1306308.3,5,600,,
trial,html.Screen,10_19_0,2024-03-19T17:57:58.314Z,,,,1,-0.0350697500805515,-0.0166617848231997,,0.04,false,lh,1997.6999999999534,response,-0.7782962657329482,1.097393361629836,-0.9875924704540358,1.2893909821621488,1.1503777834519935,-1.1499999999999997,low,high,,ISIC_0024423.JPG,8,ISIC_0012883.JPG,28,28,false,0.22000000000000008,ll,keypress(f),0,false,1308306.1000000238,1308306,1306291.6,1306384.2999999523,1306308.3,1308226.1,5,600,20,
break,html.Screen,10_19_1,2024-03-19T17:57:58.314Z,,,,,,,,,,,NaN,,,,,,,,low,high,,,,,,,false,,,,,false,1308306.3999999762,1308306.2999999523,,1308306.2999999523,,1308226.1,5,600,,
break_continue,html.Screen,10_19_2,2024-03-19T17:57:58.314Z,,,,,,,,,,,NaN,,,,,,,,low,high,,,,,,,false,,,,,false,1308306.5,1308306.3999999762,,1308306.3999999762,,1308226.1,5,600,,
sequence,flow.Sequence,10_19,2024-03-19T17:57:58.314Z,,,,,,,,,,,1998.0999999761116,completion,,,,,,,low,high,,,,,,,false,,,,,false,1308306.5,1308306.3999999762,1306291.6,1306384.2000000477,1306308.3,1308226.1,5,600,,
trial,html.Screen,10_20_0,2024-03-19T17:58:00.613Z,,,,1,0.0199897690678184,0.0312486875504497,,0.04,true,lh,2378.299999976065,response,-0.8688859182707874,1.097393361629836,-0.9875924704540358,0.9566733172438716,1.1503777834519935,-1.1499999999999997,low,high,,ISIC_5482426.JPG,9,ISIC_0640770.JPG,28,28,false,0.22000000000000008,lh,keypress(e),0,false,1310604.7000000477,1310604.3999999762,1308209.9,1308306.6000000238,1308226.1,1310528.2,5,600,21,
break,html.Screen,10_20_1,2024-03-19T17:58:00.614Z,,,,,,,,,,,NaN,,,,,,,,low,high,,,,,,,false,,,,,false,1310606,1310605.6000000238,,1310605.1000000238,,1310528.2,5,600,,
break_continue,html.Screen,10_20_2,2024-03-19T17:58:00.615Z,,,,,,,,,,,NaN,,,,,,,,low,high,,,,,,,false,,,,,false,1310606.7999999523,1310606.6000000238,,1310606.2000000477,,1310528.2,5,600,,
sequence,flow.Sequence,10_20,2024-03-19T17:58:00.615Z,,,,,,,,,,,2380.5000000237487,completion,,,,,,,low,high,,,,,,,false,,,,,false,1310607.2000000477,1310606.6000000238,1308209.9,1308306.6000000238,1308226.1,1310528.2,5,600,,
trial,html.Screen,10_21_0,2024-03-19T17:58:02.797Z,,,,1,-0.0071892445601978,0.0246015408628738,,0.04,false,ll,2261.0000000477303,response,-1.0048859018073242,1.097393361629836,-0.9875924704540358,-1.0825120442937108,1.1503777834519935,-1.1499999999999997,low,low,,ISIC_0014133.JPG,10,ISIC_0068080.JPG,28,32,false,0.1,lh,keypress(e),0,false,1312789.7000000477,1312789.2000000477,1310511.4,1310607.2999999523,1310528.2,1312713.3,5,600,22,
break,html.Screen,10_21_1,2024-03-19T17:58:02.799Z,,,,,,,,,,,NaN,,,,,,,,low,low,,,,,,,false,,,,,false,1312791.2000000477,1312790.7000000477,,1312790.1000000238,,1312713.3,5,600,,
break_continue,html.Screen,10_21_2,2024-03-19T17:58:02.800Z,,,,,,,,,,,NaN,,,,,,,,low,low,,,,,,,false,,,,,false,1312792.1000000238,1312791.7999999523,,1312791.3999999762,,1312713.3,5,600,,
sequence,flow.Sequence,10_21,2024-03-19T17:58:02.800Z,,,,,,,,,,,2263.599999952363,completion,,,,,,,low,low,,,,,,,false,,,,,false,1312792.3999999762,1312791.7999999523,1310511.4,1310607.2999999523,1310528.2,1312713.3,5,600,,
trial,html.Screen,10_22_0,2024-03-19T17:58:04.939Z,,,,1,0.0365981355399771,0.0162670920008846,,0.04,false,hl,2217.3000000237953,response,1.1890109863264902,1.097393361629836,-0.9875924704540358,-0.8867825318561365,1.1503777834519935,-1.1499999999999997,high,low,,ISIC_0982855.JPG,9,ISIC_0072576.JPG,28,27,false,0.30000000000000016,hh,keypress(i),0,false,1314930.7999999523,1314930.6000000238,1312712.762,1312792.6000000238,1312713.3,1314848.4,5,600,23,
break,html.Screen,10_22_1,2024-03-19T17:58:04.939Z,,,,,,,,,,,NaN,,,,,,,,high,low,,,,,,,false,,,,,false,1314931.1000000238,1314931,,1314930.8999999762,,1314848.4,5,600,,
break_continue,html.Screen,10_22_2,2024-03-19T17:58:04.939Z,,,,,,,,,,,NaN,,,,,,,,high,low,,,,,,,false,,,,,false,1314931.2999999523,1314931.2000000477,,1314931.2000000477,,1314848.4,5,600,,
sequence,flow.Sequence,10_22,2024-03-19T17:58:04.939Z,,,,,,,,,,,2217.900000047637,completion,,,,,,,high,low,,,,,,,false,,,,,false,1314931.3999999762,1314931.2000000477,1312712.762,1312792.5,1312713.3,1314848.4,5,600,,
trial,html.Screen,10_23_0,2024-03-19T17:58:08.093Z,,,,1,-0.0158987717472563,-0.0292472192292015,,0.04,true,hl,3236.700000023935,response,1.0003671514840182,1.097393361629836,-0.9875924704540358,-0.8992716557663581,1.1503777834519935,-1.1499999999999997,high,low,,ISIC_1366765.JPG,9,ISIC_0061749.JPG,28,27,false,0.30000000000000016,hl,keypress(j),0,false,1318085.5,1318085.1000000238,1314847.862,1314931.5,1314848.4,1318017.7,5,600,24,
break,html.Screen,10_23_1,2024-03-19T17:58:08.095Z,,,,,,,,,,,NaN,,,,,,,,high,low,,,,,,,false,,,,,false,1318086.7999999523,1318086.6000000238,,1318086,,1318017.7,5,600,,
break_continue,html.Screen,10_23_2,2024-03-19T17:58:08.095Z,,,,,,,,,,,NaN,,,,,,,,high,low,,,,,,,false,,,,,false,1318087.5,1318087.2999999523,,1318087.1000000238,,1318017.7,5,600,,
sequence,flow.Sequence,10_23,2024-03-19T17:58:08.096Z,,,,,,,,,,,3238.8999999524094,completion,,,,,,,high,low,,,,,,,false,,,,,false,1318088,1318087.2999999523,1314847.862,1314931.3999999762,1314848.4,1318017.7,5,600,,
trial,html.Screen,10_24_0,2024-03-19T17:58:11.045Z,,,,1,-0.0057914759495055,0.018500200317654,,0.04,false,ll,3019.0000000477303,response,-0.9125678790631364,1.097393361629836,-0.9875924704540358,-1.124157865127501,1.1503777834519935,-1.1499999999999997,low,low,,ISIC_0058723.JPG,8,ISIC_0062111.JPG,28,32,false,0.1,hl,keypress(j),0,false,1321037.1000000238,1321036.7000000477,1318001.166,1318088.2000000477,1318017.7,1320953.4,5,600,25,
break,html.Screen,10_24_1,2024-03-19T17:58:11.046Z,,,,,,,,,,,NaN,,,,,,,,low,low,,,,,,,false,,,,,false,1321038.5,1321038,,1321037.5,,1320953.4,5,600,,
break_continue,html.Screen,10_24_2,2024-03-19T17:58:11.047Z,,,,,,,,,,,NaN,,,,,,,,low,low,,,,,,,false,,,,,false,1321039.2999999523,1321039,,1321038.7000000477,,1320953.4,5,600,,
sequence,flow.Sequence,10_24,2024-03-19T17:58:11.047Z,,,,,,,,,,,3021.3000000000466,completion,,,,,,,low,low,,,,,,,false,,,,,false,1321039.5,1321039,1318001.166,1318088.2000000477,1318017.7,1320953.4,5,600,,
trial,html.Screen,10_25_0,2024-03-19T17:58:14.150Z,,,,1,-0.0350697500805515,-0.0166617848231997,,0.04,false,hh,3187.8999999524094,response,1.0064329161780483,1.097393361629836,-0.9875924704540358,1.0631481857644678,1.1503777834519935,-1.1499999999999997,high,high,,ISIC_0024423.JPG,8,ISIC_0033137.JPG,28,29,false,0.13,lh,keypress(e),0,false,1324141.7999999523,1324141.2999999523,1320953.382,1321039.7000000477,1320953.4,1324055.9,5,600,26,
break,html.Screen,10_25_1,2024-03-19T17:58:14.151Z,,,,,,,,,,,NaN,,,,,,,,high,high,,,,,,,false,,,,,false,1324143.5,1324143,,1324142.2000000477,,1324055.9,5,600,,
break_continue,html.Screen,10_25_2,2024-03-19T17:58:14.152Z,,,,,,,,,,,NaN,,,,,,,,high,high,,,,,,,false,,,,,false,1324144.5,1324144.2000000477,,1324143.7000000477,,1324055.9,5,600,,
sequence,flow.Sequence,10_25,2024-03-19T17:58:14.153Z,,,,,,,,,,,3190.800000047777,completion,,,,,,,high,high,,,,,,,false,,,,,false,1324144.7999999523,1324144.2000000477,1320953.382,1321039.7000000477,1320953.4,1324055.9,5,600,,
trial,html.Screen,10_26_0,2024-03-19T17:58:15.877Z,,,,1,0.0367218428225813,-0.0026956749740767,,0.04,false,ll,1812.6000000000931,response,-0.968832577506943,1.097393361629836,-0.9875924704540358,-1.068698723750748,1.1503777834519935,-1.1499999999999997,low,low,,ISIC_7212271.JPG,9,ISIC_0010962.JPG,28,32,false,0.1,lh,keypress(e),0,false,1325868.8999999762,1325868.5,1324055.146,1324145.1000000238,1324055.9,1325790.7,5,600,27,
break,html.Screen,10_26_1,2024-03-19T17:58:15.878Z,,,,,,,,,,,NaN,,,,,,,,low,low,,,,,,,false,,,,,false,1325870.2999999523,1325869.7999999523,,1325869.2999999523,,1325790.7,5,600,,
break_continue,html.Screen,10_26_2,2024-03-19T17:58:15.879Z,,,,,,,,,,,NaN,,,,,,,,low,low,,,,,,,false,,,,,false,1325871.1000000238,1325870.7999999523,,1325870.5,,1325790.7,5,600,,
sequence,flow.Sequence,10_26,2024-03-19T17:58:15.879Z,,,,,,,,,,,1814.8999999524094,completion,,,,,,,low,low,,,,,,,false,,,,,false,1325871.2999999523,1325870.7999999523,1324055.146,1324145,1324055.9,1325790.7,5,600,,
trial,html.Screen,10_27_0,2024-03-19T17:58:18.237Z,,,,1,-0.0077673378094614,-0.0021810768579373,,0.04,false,lh,2438.099999952363,response,-0.7871162143493278,1.097393361629836,-0.9875924704540358,1.2153707004941214,1.1503777834519935,-1.1499999999999997,low,high,,ISIC_0067621.JPG,8,ISIC_3439215.JPG,28,28,false,0.22000000000000008,ll,keypress(f),0,false,1328229.2999999523,1328228.7999999523,1325790.204,1325871.5,1325790.7,1328142.894,5,600,28,
break,html.Screen,10_27_1,2024-03-19T17:58:18.239Z,,,,,,,,,,,NaN,,,,,,,,low,high,,,,,,,false,,,,,false,1328230.7000000477,1328230.2999999523,,1328229.7000000477,,1328142.894,5,600,,
break_continue,html.Screen,10_27_2,2024-03-19T17:58:18.239Z,,,,,,,,,,,NaN,,,,,,,,low,high,,,,,,,false,,,,,false,1328231.3999999762,1328231.2999999523,,1328230.8999999762,,1328142.894,5,600,,
sequence,flow.Sequence,10_27,2024-03-19T17:58:18.240Z,,,,,,,,,,,2440.599999952363,completion,,,,,,,low,high,,,,,,,false,,,,,false,1328231.7000000477,1328231.2999999523,1325790.204,1325871.3999999762,1325790.7,1328142.894,5,600,,
trial,html.Screen,10_28_0,2024-03-19T17:58:23.029Z,,,,1,-0.0050679133050021,-0.0174815595031679,,0.04,true,hl,4877.706000023754,response,1.1890109863264902,1.097393361629836,-0.9875924704540358,-0.8867825318561365,1.1503777834519935,-1.1499999999999997,high,low,,ISIC_9848743.JPG,8,ISIC_0072576.JPG,28,27,false,0.30000000000000016,hl,keypress(j),0,false,1333020.8999999762,1333020.6000000238,1328142.894,1328232,1328142.894,1332946.6,5,600,29,
break,html.Screen,10_28_1,2024-03-19T17:58:23.030Z,,,,,,,,,,,NaN,,,,,,,,high,low,,,,,,,false,,,,,false,1333022.2999999523,1333021.8999999762,,1333021.2999999523,,1332946.6,5,600,,
break_continue,html.Screen,10_28_2,2024-03-19T17:58:23.031Z,,,,,,,,,,,NaN,,,,,,,,high,low,,,,,,,false,,,,,false,1333023.1000000238,1333022.8999999762,,1333022.6000000238,,1332946.6,5,600,,
sequence,flow.Sequence,10_28,2024-03-19T17:58:23.031Z,,,,,,,,,,,4880.005999976071,completion,,,,,,,high,low,,,,,,,false,,,,,false,1333023.2999999523,1333022.8999999762,1328142.894,1328231.8999999762,1328142.894,1332946.6,5,600,,
trial,html.Screen,10_29_0,2024-03-19T17:58:26.869Z,,,,1,-0.0050679133050021,-0.0174815595031679,,0.04,true,ll,3914.1000000475906,response,-0.934130994804294,1.097393361629836,-0.9875924704540358,-1.110086733022912,1.1503777834519935,-1.1499999999999997,low,low,,ISIC_9848743.JPG,10,ISIC_0053916.JPG,28,32,false,0.1,ll,keypress(f),0,false,1336861.1000000238,1336860.7000000477,1332930.2,1333023.5,1332946.6,1336783.1,5,600,30,
break,html.Screen,10_29_1,2024-03-19T17:58:26.870Z,,,,,,,,,,,NaN,,,,,,,,low,low,,,,,,,false,,,,,false,1336862.5,1336862.1000000238,,1336861.5,,1336783.1,5,600,,
break_continue,html.Screen,10_29_2,2024-03-19T17:58:26.871Z,,,,,,,,,,,NaN,,,,,,,,low,low,,,,,,,false,,,,,false,1336863.2999999523,1336863,,1336862.7000000477,,1336783.1,5,600,,
sequence,flow.Sequence,10_29,2024-03-19T17:58:26.871Z,,,,,,,,,,,3916.399999999907,completion,,,,,,,low,low,,,,,,,false,,,,,false,1336863.5,1336863,1332930.2,1333023.5,1332946.6,1336783.1,5,600,,
trial,html.Screen,10_30_0,2024-03-19T17:58:29.130Z,,,,1,-0.0166849894750452,0.0371614812368835,,0.04,true,hh,2348.0000000237487,response,1.011737552725394,1.097393361629836,-0.9875924704540358,1.0893360711742854,1.1503777834519935,-1.1499999999999997,high,high,,ISIC_6231450.JPG,15,ISIC_2998367.JPG,28,29,false,0.13,hh,keypress(i),0,false,1339131.2000000477,1339131.1000000238,1336766.8,1336863.6000000238,1336783.1,1339051.6,5,600,31,
break,html.Screen,10_30_1,2024-03-19T17:58:29.130Z,,,,,,,,,,,NaN,,,,,,,,high,high,,,,,,,false,,,,,false,1339131.6000000238,1339131.5,,1339131.2999999523,,1339051.6,5,600,,
break_continue,html.Screen,10_30_2,2024-03-19T17:58:29.130Z,,,,,,,,,,,NaN,,,,,,,,high,high,,,,,,,false,,,,,false,1339131.8999999762,1339131.7999999523,,1339131.7000000477,,1339051.6,5,600,,
sequence,flow.Sequence,10_30,2024-03-19T17:58:29.131Z,,,,,,,,,,,2348.699999952223,completion,,,,,,,high,high,,,,,,,false,,,,,false,1339132,1339131.7999999523,1336766.8,1336863.6000000238,1336783.1,1339051.6,5,600,,
trial,html.Screen,10_31_0,2024-03-19T17:58:31.122Z,,,,1,-0.00126575685933,-0.0325046559638838,,0.04,false,hl,2072.1000000475906,response,0.8644465729542988,1.097393361629836,-0.9875924704540358,-0.8679598285079457,1.1503777834519935,-1.1499999999999997,high,low,,ISIC_5682259.JPG,8,ISIC_6718969.JPG,28,27,false,0.30000000000000016,ll,keypress(f),0,false,1341123.7000000477,1341123.7000000477,1339035.1,1339132,1339051.6,1341036.6,5,600,32,
break,html.Screen,10_31_1,2024-03-19T17:58:31.123Z,,,,,,,,,,,NaN,,,,,,,,high,low,,,,,,,false,,,,,false,1341124.6000000238,1341124.2000000477,,1341123.8999999762,,1341036.6,5,600,,
break_continue,html.Screen,10_31_2,2024-03-19T17:58:31.124Z,,,,,,,,,,,NaN,,,,,,,,high,low,,,,,,,false,,,,,false,1341125.2999999523,1341125,,1341124.7999999523,,1341036.6,5,600,,
sequence,flow.Sequence,10_31,2024-03-19T17:58:31.124Z,,,,,,,,,,,2073.399999999907,completion,,,,,,,high,low,,,,,,,false,,,,,false,1341125.5,1341125,1339035.1,1339132,1339051.6,1341036.6,5,600,,
trial,html.Screen,10_32_0,2024-03-19T17:58:33.795Z,,,,1,-0.0071892445601978,0.0246015408628738,,0.04,true,ll,2759.299999976065,response,-0.934130994804294,1.097393361629836,-0.9875924704540358,-1.110086733022912,1.1503777834519935,-1.1499999999999997,low,low,,ISIC_0014133.JPG,9,ISIC_0053916.JPG,28,32,false,0.1,ll,keypress(f),0,false,1343796.1000000238,1343795.8999999762,1341035.894,1341125.6000000238,1341036.6,1343722.1,5,600,33,
break,html.Screen,10_32_1,2024-03-19T17:58:33.795Z,,,,,,,,,,,NaN,,,,,,,,low,low,,,,,,,false,,,,,false,1343796.6000000238,1343796.5,,1343796.2999999523,,1343722.1,5,600,,
break_continue,html.Screen,10_32_2,2024-03-19T17:58:33.796Z,,,,,,,,,,,NaN,,,,,,,,low,low,,,,,,,false,,,,,false,1343797,1343796.8999999762,,1343796.7000000477,,1343722.1,5,600,,
sequence,flow.Sequence,10_32,2024-03-19T17:58:33.796Z,,,,,,,,,,,2760.299999976065,completion,,,,,,,low,low,,,,,,,false,,,,,false,1343797.1000000238,1343796.8999999762,1341035.894,1341125.6000000238,1341036.6,1343722.1,5,600,,
trial,html.Screen,10_33_0,2024-03-19T17:58:37.252Z,,,,1,0.0086413421586899,0.0360184993500958,,0.04,true,hh,3530.5000000237487,response,1.2254777618346506,1.097393361629836,-0.9875924704540358,1.0356416330964822,1.1503777834519935,-1.1499999999999997,high,high,,ISIC_0010767.JPG,8,ISIC_1054090.JPG,28,29,false,0.13,hh,keypress(i),0,false,1347253,1347252.6000000238,1343705.7,1343797.1000000238,1343722.1,1347174.9,5,600,34,
break,html.Screen,10_33_1,2024-03-19T17:58:37.253Z,,,,,,,,,,,NaN,,,,,,,,high,high,,,,,,,false,,,,,false,1347254.1000000238,1347253.7999999523,,1347253.2999999523,,1347174.9,5,600,,
break_continue,html.Screen,10_33_2,2024-03-19T17:58:37.253Z,,,,,,,,,,,NaN,,,,,,,,high,high,,,,,,,false,,,,,false,1347254.7999999523,1347254.6000000238,,1347254.2999999523,,1347174.9,5,600,,
sequence,flow.Sequence,10_33,2024-03-19T17:58:37.254Z,,,,,,,,,,,3532.5000000237487,completion,,,,,,,high,high,,,,,,,false,,,,,false,1347255,1347254.6000000238,1343705.7,1343797.1000000238,1343722.1,1347174.9,5,600,,
trial,html.Screen,10_34_0,2024-03-19T17:58:41.100Z,,,,1,0.0051046740562181,-0.0178832721027728,,0.04,false,hh,3925.600000000093,response,1.204229955025689,1.097393361629836,-0.9875924704540358,1.0874249761617445,1.1503777834519935,-1.1499999999999997,high,high,,ISIC_9545819.JPG,8,ISIC_0056930.JPG,28,29,false,0.13,ll,keypress(f),0,false,1351100.8999999762,1351100.5,1347158.6,1347255.1000000238,1347174.9,1351028.5,5,600,35,
break,html.Screen,10_34_1,2024-03-19T17:58:41.101Z,,,,,,,,,,,NaN,,,,,,,,high,high,,,,,,,false,,,,,false,1351102.2999999523,1351101.8999999762,,1351101.3999999762,,1351028.5,5,600,,
break_continue,html.Screen,10_34_2,2024-03-19T17:58:41.102Z,,,,,,,,,,,NaN,,,,,,,,high,high,,,,,,,false,,,,,false,1351103.1000000238,1351102.8999999762,,1351102.5,,1351028.5,5,600,,
sequence,flow.Sequence,10_34,2024-03-19T17:58:41.102Z,,,,,,,,,,,3927.9999999762513,completion,,,,,,,high,high,,,,,,,false,,,,,false,1351103.3999999762,1351102.8999999762,1347158.6,1347255,1347174.9,1351028.5,5,600,,
trial,html.Screen,10_35_0,2024-03-19T17:58:43.748Z,,,,1,-0.012020985739544,0.0126097407389903,,0.04,false,hh,2720.5,response,1.1217390688497193,1.097393361629836,-0.9875924704540358,1.2276600934505035,1.1503777834519935,-1.1499999999999997,high,high,,ISIC_0069379.JPG,9,ISIC_0026344.JPG,28,29,false,0.13,ll,keypress(f),0,false,1353749.3999999762,1353749,1351011.5,1351103.6000000238,1351028.5,1353680.6,5,600,36,
break,html.Screen,10_35_1,2024-03-19T17:58:43.749Z,,,,,,,,,,,NaN,,,,,,,,high,high,,,,,,,false,,,,,false,1353750.7999999523,1353750.3999999762,,1353749.8999999762,,1353680.6,5,600,,
break_continue,html.Screen,10_35_2,2024-03-19T17:58:43.750Z,,,,,,,,,,,NaN,,,,,,,,high,high,,,,,,,false,,,,,false,1353751.6000000238,1353751.2999999523,,1353751,,1353680.6,5,600,,
sequence,flow.Sequence,10_35,2024-03-19T17:58:43.750Z,,,,,,,,,,,2722.7999999523163,completion,,,,,,,high,high,,,,,,,false,,,,,false,1353751.7999999523,1353751.2999999523,1351011.5,1351103.6000000238,1351028.5,1353680.6,5,600,,
trial,html.Screen,10_36_0,2024-03-19T17:58:47.405Z,,,,1,-0.0071892445601978,0.0246015408628738,,0.04,false,ll,3724.899999999907,response,-0.9695913930841004,1.097393361629836,-0.9875924704540358,-1.2261129408494682,1.1503777834519935,-1.1499999999999997,low,low,,ISIC_0014133.JPG,9,ISIC_0028086.JPG,28,32,false,0.1,hl,keypress(j),0,false,1357405.8999999762,1357405.5,1353663.7,1353752.1000000238,1353680.6,1357333.7,5,600,37,
break,html.Screen,10_36_1,2024-03-19T17:58:47.406Z,,,,,,,,,,,NaN,,,,,,,,low,low,,,,,,,false,,,,,false,1357407.3999999762,1357406.8999999762,,1357406.2999999523,,1357333.7,5,600,,
break_continue,html.Screen,10_36_2,2024-03-19T17:58:47.407Z,,,,,,,,,,,NaN,,,,,,,,low,low,,,,,,,false,,,,,false,1357408.3999999762,1357408.1000000238,,1357407.7000000477,,1357333.7,5,600,,
sequence,flow.Sequence,10_36,2024-03-19T17:58:47.407Z,,,,,,,,,,,3727.5000000237487,completion,,,,,,,low,low,,,,,,,false,,,,,false,1357408.8999999762,1357408.1000000238,1353663.7,1353752,1353680.6,1357333.7,5,600,,
trial,html.Screen,10_37_0,2024-03-19T17:58:49.996Z,,,,1,0.0051046740562181,-0.0178832721027728,,0.04,true,hh,2663.4000000238884,response,1.1604734171556077,1.097393361629836,-0.9875924704540358,1.0789312625280616,1.1503777834519935,-1.1499999999999997,high,high,,ISIC_9545819.JPG,9,ISIC_3950753.JPG,28,29,false,0.13,hh,keypress(i),0,false,1359997.6000000238,1359997.1000000238,1357316.86,1357409.1000000238,1357333.7,1359918.8,5,600,38,
break,html.Screen,10_37_1,2024-03-19T17:58:49.998Z,,,,,,,,,,,NaN,,,,,,,,high,high,,,,,,,false,,,,,false,1359999.1000000238,1359998.6000000238,,1359998,,1359918.8,5,600,,
break_continue,html.Screen,10_37_2,2024-03-19T17:58:49.999Z,,,,,,,,,,,NaN,,,,,,,,high,high,,,,,,,false,,,,,false,1359999.8999999762,1359999.7000000477,,1359999.2999999523,,1359918.8,5,600,,
sequence,flow.Sequence,10_37,2024-03-19T17:58:49.999Z,,,,,,,,,,,2666.0000000477303,completion,,,,,,,high,high,,,,,,,false,,,,,false,1360000.2000000477,1359999.7000000477,1357316.86,1357409,1357333.7,1359918.8,5,600,,
