sender,sender_type,sender_id,timestamp,meta,,age,blockNo,c1,c2,condition,control_tolerance,correct,correctResponse,duration,ended_on,f1,f1_high,f1_low,f2,f2_high,f2_low,feature_level1,feature_level2,gender,img_left,img_reveal,img_right,n_control_images,n_target_images,practice,range_tolerance,response,response_action,selection_duration,staircase,time_commit,time_end,time_render,time_run,time_show,time_switch,total_blocks,total_trials,trialNo,url
informed_consent,html.Screen,0,2023-11-29T19:34:46.974Z,"{""labjs_version"":""20.2.4"",""labjs_build"":{""flavor"":""development"",""commit"":""f5b4a49f956347addd546a832a3327688c2c0fef""},""location"":""https://labjs.felixhenninger.com/api/labjs_preview/index.html"",""userAgent"":""Mozilla/5.0 (Windows NT 10.0; Win64; x64) AppleWebKit/537.36 (KHTML, like Gecko) Chrome/119.0.0.0 Safari/537.36"",""platform"":""Win32"",""language"":""en-US"",""locale"":""en-US"",""timeZone"":""America/Chicago"",""timezoneOffset"":360,""screen_width"":1680,""screen_height"":1050,""scroll_width"":825,""scroll_height"":888,""window_innerWidth"":825,""window_innerHeight"":936,""devicePixelRatio"":1}",,,,,,,,,,20400.107,response,,,,,,,,,,,,,,,,,consent,click button,,,21124.299999952316,21115.5,698.675,889.9000000953674,715.393,20938.148,,,,{}
Demography form,html.Form,1,2023-11-29T19:35:14.927Z,,,22,,,,,,,,28138.752000095366,form submission,,,,,,,,,male,,,,,,,,,,,,49077.09999990463,49076.90000009537,20921.523,21124.599999904633,20938.148,48892.583,,,,
Welcome,html.Screen,2,2023-11-29T19:35:18.798Z,,,,,,,"[""bor"",""col""]",,,,4054.9170000000013,response,,,,,,,,,,,,,,,,,continue,click button,,,52948.09999990463,52947.5,48875.844,49077.200000047684,48892.583,52766.862,,,,
demo_instructions,html.Screen,3,2023-11-29T19:35:20.054Z,,,,,,,,,,,1436.7379999046316,response,,,,,,,,,,,,,,,,,continue,click button,,,54204.200000047684,54203.59999990463,52750.238,52948.299999952316,52766.862,54019.164,,,,
trial,html.Screen,4_0_0,2023-11-29T19:35:34.865Z,,,,0,-1.1195710731537871,-1.1961732733209125,,,true,hh,14994.536000047687,response,1.1684835186766898,1.2,-1.2,1.2921331918483707,1.2,-1.2,high,high,,ISIC_0067170.JPG,,ISIC_5920470.JPG,,25,true,0.14,hh,keypress(i),100,false,69014.29999995232,69013.70000004768,54002.598,54204.299999952316,54019.164,68848.07,1,16,1,
sequence,flow.Sequence,4_0,2023-11-29T19:35:34.866Z,,,,,,,,,,,14994.536000047687,completion,,,,,,,high,high,,,,,,,true,,,,,false,69015.20000004768,69013.70000004768,54002.598,54204.299999952316,54019.164,68848.07,1,16,,
trial,html.Screen,4_1_0,2023-11-29T19:35:39.095Z,,,,0,-1.1195710731537871,-1.1961732733209125,,,true,hh,4395.529999904626,response,1.2253191093367526,1.2,-1.2,1.241905252673026,1.2,-1.2,high,high,,ISIC_0067170.JPG,,ISIC_1195689.JPG,,25,true,0.14,hh,keypress(i),100,false,73243.79999995232,73243.59999990463,68831.349,69015.5,68848.07,73073.149,1,16,2,
sequence,flow.Sequence,4_1,2023-11-29T19:35:39.095Z,,,,,,,,,,,4395.529999904626,completion,,,,,,,high,high,,,,,,,true,,,,,false,73244.29999995232,73243.59999990463,68831.349,69015.40000009537,68848.07,73073.149,1,16,,
trial,html.Screen,4_2_0,2023-11-29T19:35:40.487Z,,,,0,-1.0773466327271526,-1.1601445610079184,,,true,hh,1562.0510000476788,response,1.1870093485714288,1.2,-1.2,1.3339880978442629,1.2,-1.2,high,high,,ISIC_0055169.JPG,,ISIC_8592235.JPG,,25,true,0.14,hh,keypress(i),100,false,74635.90000009537,74635.20000004768,73056.271,73244.5,73073.149,74458.998,1,16,3,
sequence,flow.Sequence,4_2,2023-11-29T19:35:40.487Z,,,,,,,,,,,1562.0510000476788,completion,,,,,,,high,high,,,,,,,true,,,,,false,74636.59999990463,74635.20000004768,73056.271,73244.40000009537,73073.149,74458.998,1,16,,
trial,html.Screen,4_3_0,2023-11-29T19:35:42.045Z,,,,0,-1.1195710731537871,-1.1961732733209125,,,true,hh,1734.9020000953606,response,1.2246024683501224,1.2,-1.2,1.2904526351590244,1.2,-1.2,high,high,,ISIC_0067170.JPG,,ISIC_4730066.JPG,,25,true,0.14,hh,keypress(i),100,false,76194.40000009537,76193.90000009537,74442.371,74637.09999990463,74458.998,76028.667,1,16,4,
sequence,flow.Sequence,4_3,2023-11-29T19:35:42.046Z,,,,,,,,,,,1734.9020000953606,completion,,,,,,,high,high,,,,,,,true,,,,,false,76195.09999990463,76193.90000009537,74442.371,74637,74458.998,76028.667,1,16,,
trial,html.Screen,4_4_0,2023-11-29T19:35:43.271Z,,,,0,1.160746324899676,1.1927876559115576,,,false,ll,1391.3329999999987,response,-1.266079261381142,1.2,-1.2,-1.312161506160336,1.2,-1.2,low,low,,ISIC_8651053.JPG,,ISIC_0065449.JPG,,30,true,0.13,hh,keypress(i),100,false,77420.20000004768,77420,76012.125,76195.40000009537,76028.667,77247.816,1,16,5,
sequence,flow.Sequence,4_4,2023-11-29T19:35:43.271Z,,,,,,,,,,,1391.3329999999987,completion,,,,,,,low,low,,,,,,,true,,,,,false,77420.5,77420,76012.125,76195.29999995232,76028.667,77247.816,1,16,,
trial,html.Screen,4_5_0,2023-11-29T19:35:45.041Z,,,,0,1.2253191093367526,1.241905252673026,,,true,ll,1941.5840000953613,response,-1.266079261381142,1.2,-1.2,-1.312161506160336,1.2,-1.2,low,low,,ISIC_1195689.JPG,,ISIC_0065449.JPG,,40,true,0.14,ll,keypress(f),100,false,79190,79189.40000009537,77231.003,77420.59999990463,77247.816,79017.938,1,16,6,
sequence,flow.Sequence,4_5,2023-11-29T19:35:45.041Z,,,,,,,,,,,1941.5840000953613,completion,,,,,,,low,low,,,,,,,true,,,,,false,79190.5,79189.40000009537,77231.003,77420.59999990463,77247.816,79017.938,1,16,,
trial,html.Screen,4_6_0,2023-11-29T19:35:46.722Z,,,,0,1.252716660627398,1.183977080937476,,,true,ll,1853.262000047689,response,-1.236306205926646,1.2,-1.2,-1.116612676102794,1.2,-1.2,low,low,,ISIC_0034194.JPG,,ISIC_0054341.JPG,,40,true,0.14,ll,keypress(f),100,false,80871.20000004768,80871.20000004768,79001.243,79190.70000004768,79017.938,80704.426,1,16,7,
sequence,flow.Sequence,4_6,2023-11-29T19:35:46.722Z,,,,,,,,,,,1853.262000047689,completion,,,,,,,low,low,,,,,,,true,,,,,false,80871.5,80871.20000004768,79001.243,79190.70000004768,79017.938,80704.426,1,16,,
trial,html.Screen,4_7_0,2023-11-29T19:35:47.865Z,,,,0,1.274417010249866,1.0725495669014795,,,true,ll,1309.274000047677,response,-1.1668613502915044,1.2,-1.2,-1.327068780840367,1.2,-1.2,low,low,,ISIC_8849004.JPG,,ISIC_0054459.JPG,,40,true,0.14,ll,keypress(f),100,false,82014,82013.70000004768,80687.97,80871.5,80704.426,81873.365,1,16,8,
sequence,flow.Sequence,4_7,2023-11-29T19:35:47.865Z,,,,,,,,,,,1309.274000047677,completion,,,,,,,low,low,,,,,,,true,,,,,false,82014.5,82013.70000004768,80687.97,80871.5,80704.426,81873.365,1,16,,
trial,html.Screen,4_8_0,2023-11-29T19:35:49.390Z,,,,0,0.8110121381849364,-0.7563142141851558,,,true,lh,1665.5350000953622,response,-0.9138670886161264,1.2,-1.2,0.8414121478342018,1.2,-1.2,low,high,,ISIC_0033605.JPG,,ISIC_6709052.JPG,,27,true,0.40000000000000024,lh,keypress(e),100,false,83539.29999995232,83538.90000009537,81823.387,82014.70000004768,81873.365,83392.97,1,16,9,
sequence,flow.Sequence,4_8,2023-11-29T19:35:49.391Z,,,,,,,,,,,1665.5350000953622,completion,,,,,,,low,high,,,,,,,true,,,,,false,83539.90000009537,83538.90000009537,81823.387,82014.59999990463,81873.365,83392.97,1,16,,
trial,html.Screen,4_9_0,2023-11-29T19:35:51.541Z,,,,0,1.2362557973341337,-1.2548266183352603,,,true,lh,2296.7300000476826,response,-0.8500530224490773,1.2,-1.2,1.0893360711742854,1.2,-1.2,low,high,,ISIC_0033886.JPG,,ISIC_2998367.JPG,,40,true,0.4500000000000003,lh,keypress(e),100,false,85690,85689.70000004768,83359.655,83540.20000004768,83392.97,85530.492,1,16,10,
sequence,flow.Sequence,4_9,2023-11-29T19:35:51.541Z,,,,,,,,,,,2296.7300000476826,completion,,,,,,,low,high,,,,,,,true,,,,,false,85690.59999990463,85689.70000004768,83359.655,83540.20000004768,83392.97,85530.492,1,16,,
trial,html.Screen,4_10_0,2023-11-29T19:35:52.743Z,,,,0,1.058275612142778,-0.7824898568540655,,,true,lh,1361.6079999046342,response,-0.8047295996345292,1.2,-1.2,1.551750455622795,1.2,-1.2,low,high,,ISIC_4906385.JPG,,ISIC_7717907.JPG,,40,true,0.4500000000000003,lh,keypress(e),100,false,86892.29999995232,86892.09999990463,85497.193,85690.70000004768,85530.492,86732.84,1,16,11,
sequence,flow.Sequence,4_10,2023-11-29T19:35:52.743Z,,,,,,,,,,,1361.6079999046342,completion,,,,,,,low,high,,,,,,,true,,,,,false,86892.59999990463,86892.09999990463,85497.193,85690.70000004768,85530.492,86732.84,1,16,,
trial,html.Screen,4_11_0,2023-11-29T19:35:54.392Z,,,,0,1.2054195059663604,-0.7760611240296147,,,true,lh,1808.3600000476872,response,-1.2081146885025262,1.2,-1.2,1.195668832085049,1.2,-1.2,low,high,,ISIC_8712559.JPG,,ISIC_7369690.JPG,,40,true,0.4500000000000003,lh,keypress(e),100,false,88541.5,88541.20000004768,86699.494,86892.79999995232,86732.84,88386.046,1,16,12,
sequence,flow.Sequence,4_11,2023-11-29T19:35:54.393Z,,,,,,,,,,,1808.3600000476872,completion,,,,,,,low,high,,,,,,,true,,,,,false,88542,88541.20000004768,86699.494,86892.70000004768,86732.84,88386.046,1,16,,
trial,html.Screen,4_12_0,2023-11-29T19:35:56.230Z,,,,0,-0.9089402323867112,0.8034544077281132,,,true,hl,1992.5539999046305,response,0.8719231363109603,1.2,-1.2,-0.7704280220140033,1.2,-1.2,high,low,,ISIC_3585381.JPG,,ISIC_0029453.JPG,,26,true,0.4500000000000003,hl,keypress(j),100,false,90379,90378.59999990463,88352.764,88542.29999995232,88386.046,90222.965,1,16,13,
sequence,flow.Sequence,4_12,2023-11-29T19:35:56.230Z,,,,,,,,,,,1992.5539999046305,completion,,,,,,,high,low,,,,,,,true,,,,,false,90379.59999990463,90378.59999990463,88352.764,88542.29999995232,88386.046,90222.965,1,16,,
trial,html.Screen,4_13_0,2023-11-29T19:35:58.001Z,,,,0,-0.8067116931297591,1.215898074058027,,,true,hl,1926.8349999523198,response,0.8110121381849364,1.2,-1.2,-0.7563142141851558,1.2,-1.2,high,low,,ISIC_1457687.JPG,,ISIC_0033605.JPG,,26,true,0.4500000000000003,hl,keypress(j),100,false,92150.20000004768,92149.79999995232,90189.586,90379.79999995232,90222.965,91993.068,1,16,14,
sequence,flow.Sequence,4_13,2023-11-29T19:35:58.001Z,,,,,,,,,,,1926.8349999523198,completion,,,,,,,high,low,,,,,,,true,,,,,false,92150.79999995232,92149.79999995232,90189.586,90379.70000004768,90222.965,91993.068,1,16,,
trial,html.Screen,4_14_0,2023-11-29T19:36:02.228Z,,,,0,-0.8500530224490773,1.0893360711742854,,,true,hl,4384.031999904633,response,0.8513427412482127,1.2,-1.2,-0.9295303568095064,1.2,-1.2,high,low,,ISIC_2998367.JPG,,ISIC_0034164.JPG,,26,true,0.4500000000000003,hl,keypress(j),100,false,96377.5,96377.09999990463,91959.787,92150.90000009537,91993.068,96234.655,1,16,15,
sequence,flow.Sequence,4_14,2023-11-29T19:36:02.229Z,,,,,,,,,,,4384.031999904633,completion,,,,,,,high,low,,,,,,,true,,,,,false,96378,96377.09999990463,91959.787,92150.90000009537,91993.068,96234.655,1,16,,
trial,html.Screen,4_15_0,2023-11-29T19:36:03.959Z,,,,0,-0.8867328775712738,1.0063426986460375,,,true,hl,1873.8450000000012,response,0.8472024037189965,1.2,-1.2,-0.986370061404882,1.2,-1.2,high,low,,ISIC_0055759.JPG,,ISIC_0054355.JPG,,26,true,0.4500000000000003,hl,keypress(j),100,false,98108.70000004768,98108.5,96184.654,96378.29999995232,96234.655,97938.081,1,16,16,
sequence,flow.Sequence,4_15,2023-11-29T19:36:03.960Z,,,,,,,,,,,1873.8450000000012,completion,,,,,,,high,low,,,,,,,true,,,,,false,98109.09999990463,98108.5,96184.654,96378.20000004768,96234.655,97938.081,1,16,,
demonstration_loop,flow.Loop,4,2023-11-29T19:36:03.960Z,,,,,,,,,,,44089.336,completion,,,,,,,,,,,,,,,true,,,,,false,98109.40000009537,98108.5,54002.598,54204.299999952316,54019.164,97938.081,1,16,,
practice_instructions,html.Screen,5,2023-11-29T19:36:08.135Z,,,,,,,,,,,4345.518999904627,response,,,,,,,,,,,,,,,,,continue,click button,,,102284.09999990463,102283.59999990463,97921.375,98109.5,97938.081,102146.167,,,,
trial,html.Screen,6_0_0,2023-11-29T19:36:11.343Z,,,,1,1.2362557973341337,-1.2548266183352603,,,false,lh,3346.3329999999987,response,-0.90812608370647,1.2,-1.2,1.2720026872926935,1.2,-1.2,low,high,,ISIC_0033886.JPG,,ISIC_0450295.JPG,,27,true,0.40000000000000024,hl,keypress(j),0,false,105492.70000004768,105492.5,102096.076,102284.29999995232,102146.167,105318.99,1,40,1,
sequence,flow.Sequence,6_0,2023-11-29T19:36:11.344Z,,,,,,,,,,,3346.3329999999987,completion,,,,,,,low,high,,,,,,,true,,,,,false,105492.90000009537,105492.5,102096.076,102284.29999995232,102146.167,105318.99,1,40,,
trial,html.Screen,6_1_0,2023-11-29T19:36:16.640Z,,,,1,-1.0116417541846066,1.033442916947398,,,false,hl,5470.309999952311,response,0.8828738626295417,1.2,-1.2,-0.8288177599439582,1.2,-1.2,high,low,,ISIC_0031389.JPG,,ISIC_0056041.JPG,,26,true,0.4500000000000003,lh,keypress(e),0,false,110789.70000004768,110789.29999995232,105302.303,105493,105318.99,110612.717,1,40,2,
sequence,flow.Sequence,6_1,2023-11-29T19:36:16.641Z,,,,,,,,,,,5470.309999952311,completion,,,,,,,high,low,,,,,,,true,,,,,false,110790.20000004768,110789.29999995232,105302.303,105493,105318.99,110612.717,1,40,,
trial,html.Screen,6_2_0,2023-11-29T19:36:32.473Z,,,,1,-1.1441767540243375,-1.0949087392471728,,,,,15880.82699999999,timeout,0.8493861117004308,1.2,-1.2,0.8834146203433249,1.2,-1.2,high,high,,ISIC_0054146.JPG,,ISIC_7450481.JPG,,203,true,0.40000000000000024,,,0,false,126620.79999995232,126620.40000009537,110596.152,110790.40000009537,110612.717,126493.544,1,40,3,
sequence,flow.Sequence,6_2,2023-11-29T19:36:32.473Z,,,,,,,,,,,16007.683000095363,completion,,,,,,,high,high,,,,,,,true,,,,,false,126621.40000009537,126620.40000009537,110596.152,110790.29999995232,110612.717,126493.544,1,40,,
trial,html.Screen,6_3_0,2023-11-29T19:36:34.937Z,,,,1,-0.8544507134472948,0.9244388608707323,,,false,hl,2591.555999904638,response,0.9653573371180936,1.2,-1.2,-0.854766800381037,1.2,-1.2,high,low,,ISIC_3565564.JPG,,ISIC_9640145.JPG,,26,true,0.4500000000000003,lh,keypress(e),0,false,129085.5,129085.09999990463,126427.013,126621.59999990463,126493.544,128898.241,1,40,4,
sequence,flow.Sequence,6_3,2023-11-29T19:36:34.938Z,,,,,,,,,,,2591.555999904638,completion,,,,,,,high,low,,,,,,,true,,,,,false,129086.20000004768,129085.09999990463,126427.013,126621.59999990463,126493.544,128898.241,1,40,,
trial,html.Screen,6_4_0,2023-11-29T19:36:36.561Z,,,,1,-1.1017564906891342,-1.293633394635193,,,false,hh,1811.0589999523218,response,1.4175768703171798,1.2,-1.2,0.930639053631659,1.2,-1.2,high,high,,ISIC_0029026.JPG,,ISIC_7658729.JPG,,203,true,0.40000000000000024,hl,keypress(j),0,false,130709.70000004768,130709.29999995232,128881.706,129086.40000009537,128898.241,130535.011,1,40,5,
sequence,flow.Sequence,6_4,2023-11-29T19:36:36.562Z,,,,,,,,,,,1811.0589999523218,completion,,,,,,,high,high,,,,,,,true,,,,,false,130710.20000004768,130709.29999995232,128881.706,129086.29999995232,128898.241,130535.011,1,40,,
trial,html.Screen,6_5_0,2023-11-29T19:36:38.488Z,,,,1,-1.071312313440387,-1.0935391476164529,,,false,hh,2101.088999904634,response,1.274752206258116,1.2,-1.2,1.2988509166163749,1.2,-1.2,high,high,,ISIC_0063680.JPG,,ISIC_6704623.JPG,,25,true,0.14,lh,keypress(e),0,false,132636.29999995232,132636.09999990463,130501.592,130710.40000009537,130535.011,132488.55,1,40,6,
sequence,flow.Sequence,6_5,2023-11-29T19:36:38.488Z,,,,,,,,,,,2101.088999904634,completion,,,,,,,high,high,,,,,,,true,,,,,false,132636.5,132636.09999990463,130501.592,130710.40000009537,130535.011,132488.55,1,40,,
trial,html.Screen,6_6_0,2023-11-29T19:36:41.225Z,,,,1,-0.9633172970727744,0.8472659344792351,,,false,hl,2883.850000095379,response,0.7883321712536753,1.2,-1.2,-1.0011430756825364,1.2,-1.2,high,low,,ISIC_0067172.JPG,,ISIC_9828853.JPG,,26,true,0.4500000000000003,hh,keypress(i),0,false,135372.70000004768,135372.40000009537,132438.63,132636.59999990463,132488.55,135193.823,1,40,7,
sequence,flow.Sequence,6_6,2023-11-29T19:36:41.225Z,,,,,,,,,,,2883.850000095379,completion,,,,,,,high,low,,,,,,,true,,,,,false,135373,135372.40000009537,132438.63,132636.5,132488.55,135193.823,1,40,,
trial,html.Screen,6_7_0,2023-11-29T19:36:43.154Z,,,,1,0.9754077946987664,-1.1821868813141057,,,true,lh,2107.676999999996,response,-1.2081146885025262,1.2,-1.2,1.195668832085049,1.2,-1.2,low,high,,ISIC_0024317.JPG,,ISIC_7369690.JPG,,27,true,0.40000000000000024,lh,keypress(e),0,false,137301.90000009537,137301.5,135177.213,135373.29999995232,135193.823,137130.918,1,40,8,
sequence,flow.Sequence,6_7,2023-11-29T19:36:43.154Z,,,,,,,,,,,2107.676999999996,completion,,,,,,,low,high,,,,,,,true,,,,,false,137302.40000009537,137301.5,135177.213,135373.20000004768,135193.823,137130.918,1,40,,
trial,html.Screen,6_8_0,2023-11-29T19:36:46.273Z,,,,1,-1.0116417541846066,1.033442916947398,,,false,hl,3290.081999999995,response,0.7991459998473059,1.2,-1.2,-1.0280788723474688,1.2,-1.2,high,low,,ISIC_0031389.JPG,,ISIC_7951202.JPG,,26,true,0.4500000000000003,hh,keypress(i),0,false,140421.5,140421,137097.762,137302.70000004768,137130.918,140253.67,1,40,9,
sequence,flow.Sequence,6_8,2023-11-29T19:36:46.274Z,,,,,,,,,,,3290.081999999995,completion,,,,,,,high,low,,,,,,,true,,,,,false,140422,140421,137097.762,137302.5,137130.918,140253.67,1,40,,
trial,html.Screen,6_9_0,2023-11-29T19:36:47.537Z,,,,1,-0.9244148283103414,0.9712966348713286,,,true,hl,1431.6299999523035,response,0.8513427412482127,1.2,-1.2,-0.9295303568095064,1.2,-1.2,high,low,,ISIC_7927525.JPG,,ISIC_0034164.JPG,,26,true,0.4500000000000003,hl,keypress(j),0,false,141685.59999990463,141685.29999995232,140220.518,140422.20000004768,140253.67,141506.188,1,40,10,
sequence,flow.Sequence,6_9,2023-11-29T19:36:47.538Z,,,,,,,,,,,1431.6299999523035,completion,,,,,,,high,low,,,,,,,true,,,,,false,141686.09999990463,141685.29999995232,140220.518,140422.09999990463,140253.67,141506.188,1,40,,
trial,html.Screen,6_10_0,2023-11-29T19:36:54.312Z,,,,1,1.0943527860463682,1.124481746658104,,,false,ll,6953.512000047689,response,-1.0470212693307346,1.2,-1.2,-1.097091139433204,1.2,-1.2,low,low,,ISIC_0438136.JPG,,ISIC_0068234.JPG,,288,true,0.40000000000000024,lh,keypress(e),0,false,148459.90000009537,148459.70000004768,141489.631,141686.29999995232,141506.188,148269.279,1,40,11,
sequence,flow.Sequence,6_10,2023-11-29T19:36:54.312Z,,,,,,,,,,,6953.512000047689,completion,,,,,,,low,low,,,,,,,true,,,,,false,148460,148459.70000004768,141489.631,141686.29999995232,141506.188,148269.279,1,40,,
trial,html.Screen,6_11_0,2023-11-29T19:36:58.640Z,,,,1,-1.0865209011322887,-1.1401461171952545,,,false,hh,4518.820999904623,response,1.2100527057059796,1.2,-1.2,1.2159112471537263,1.2,-1.2,high,high,,ISIC_0016145.JPG,,ISIC_0008055.JPG,,25,true,0.14,ll,keypress(f),0,false,152788.29999995232,152788.09999990463,148252.612,148460.09999990463,148269.279,152611.305,1,40,12,
sequence,flow.Sequence,6_11,2023-11-29T19:36:58.640Z,,,,,,,,,,,4518.820999904623,completion,,,,,,,high,high,,,,,,,true,,,,,false,152788.40000009537,152788.09999990463,148252.612,148460.09999990463,148269.279,152611.305,1,40,,
trial,html.Screen,6_12_0,2023-11-29T19:37:00.784Z,,,,1,1.2100527057059796,1.2159112471537263,,,true,ll,2320.9949999523233,response,-1.2033647433750492,1.2,-1.2,-1.0718012192341555,1.2,-1.2,low,low,,ISIC_0008055.JPG,,ISIC_0061606.JPG,,30,true,0.13,ll,keypress(f),0,false,154932.59999990463,154932.29999995232,152594.642,152788.5,152611.305,154781.945,1,40,13,
sequence,flow.Sequence,6_12,2023-11-29T19:37:00.785Z,,,,,,,,,,,2320.9949999523233,completion,,,,,,,low,low,,,,,,,true,,,,,false,154932.79999995232,154932.29999995232,152594.642,152788.5,152611.305,154781.945,1,40,,
trial,html.Screen,6_13_0,2023-11-29T19:37:03.377Z,,,,1,0.9653573371180936,-0.854766800381037,,,false,lh,2743.3549999523093,response,-1.168911077628813,1.2,-1.2,1.2181838235193114,1.2,-1.2,low,high,,ISIC_9640145.JPG,,ISIC_7358691.JPG,,27,true,0.40000000000000024,hl,keypress(j),0,false,157525.59999990463,157525.29999995232,154732.09,154932.90000009537,154781.945,157336.979,1,40,14,
sequence,flow.Sequence,6_13,2023-11-29T19:37:03.378Z,,,,,,,,,,,2743.3549999523093,completion,,,,,,,low,high,,,,,,,true,,,,,false,157526.09999990463,157525.29999995232,154732.09,154932.90000009537,154781.945,157336.979,1,40,,
trial,html.Screen,6_14_0,2023-11-29T19:37:19.178Z,,,,1,-1.266079261381142,-1.312161506160336,,,,,15864.140000000014,timeout,0.9798314852960236,1.2,-1.2,1.167024525807191,1.2,-1.2,high,high,,ISIC_0065449.JPG,,ISIC_4341261.JPG,,265,true,0.4500000000000003,,,0,false,173326.70000004768,173326.59999990463,157320.428,157526.40000009537,157336.979,173201.119,1,40,15,
sequence,flow.Sequence,6_14,2023-11-29T19:37:19.179Z,,,,,,,,,,,15989.62099990464,completion,,,,,,,high,high,,,,,,,true,,,,,false,173326.79999995232,173326.59999990463,157320.428,157526.29999995232,157336.979,173201.119,1,40,,
trial,html.Screen,6_15_0,2023-11-29T19:37:23.626Z,,,,1,1.2362557973341337,-1.2548266183352603,,,false,lh,4571.9809999046265,response,-0.8307508446051526,1.2,-1.2,1.1707575338936729,1.2,-1.2,low,high,,ISIC_0033886.JPG,,ISIC_0028606.JPG,,27,true,0.40000000000000024,hl,keypress(j),0,false,177773.40000009537,177773.09999990463,173117.666,173326.79999995232,173201.119,177593.08,1,40,16,
sequence,flow.Sequence,6_15,2023-11-29T19:37:23.626Z,,,,,,,,,,,4571.9809999046265,completion,,,,,,,low,high,,,,,,,true,,,,,false,177773.90000009537,177773.09999990463,173117.666,173326.79999995232,173201.119,177593.08,1,40,,
trial,html.Screen,6_16_0,2023-11-29T19:37:25.394Z,,,,1,-1.1117876838408909,-1.2957497771092716,,,true,hh,1947.9200000000128,response,1.1903131706835868,1.2,-1.2,0.8022149865267544,1.2,-1.2,high,high,,ISIC_0061915.JPG,,ISIC_1233104.JPG,,265,true,0.4500000000000003,hh,keypress(i),0,false,179541.29999995232,179541,177576.259,177774.09999990463,177593.08,179396.53,1,40,17,
sequence,flow.Sequence,6_16,2023-11-29T19:37:25.394Z,,,,,,,,,,,1947.9200000000128,completion,,,,,,,high,high,,,,,,,true,,,,,false,179541.79999995232,179541,177576.259,177774.09999990463,177593.08,179396.53,1,40,,
trial,html.Screen,6_17_0,2023-11-29T19:37:26.882Z,,,,1,0.7882758084023446,-0.8296405881378283,,,false,lh,1632.9700000000012,response,-0.8500530224490773,1.2,-1.2,1.0893360711742854,1.2,-1.2,low,high,,ISIC_0065882.JPG,,ISIC_2998367.JPG,,27,true,0.40000000000000024,ll,keypress(f),0,false,181029.79999995232,181029.5,179346.552,179542,179396.53,180849.548,1,40,18,
sequence,flow.Sequence,6_17,2023-11-29T19:37:26.883Z,,,,,,,,,,,1632.9700000000012,completion,,,,,,,low,high,,,,,,,true,,,,,false,181030.40000009537,181029.5,179346.552,179541.90000009537,179396.53,180849.548,1,40,,
trial,html.Screen,6_18_0,2023-11-29T19:37:27.938Z,,,,1,-1.1195710731537871,-1.1961732733209125,,,false,hh,1235.3520000953577,response,0.8692576729104817,1.2,-1.2,0.7554562761747954,1.2,-1.2,high,high,,ISIC_0067170.JPG,,ISIC_6963954.JPG,,265,true,0.4500000000000003,lh,keypress(e),0,false,182085.20000004768,182084.90000009537,180832.907,181030.59999990463,180849.548,181918.136,1,40,19,
sequence,flow.Sequence,6_18,2023-11-29T19:37:27.938Z,,,,,,,,,,,1235.3520000953577,completion,,,,,,,high,high,,,,,,,true,,,,,false,182085.59999990463,182084.90000009537,180832.907,181030.5,180849.548,181918.136,1,40,,
trial,html.Screen,6_19_0,2023-11-29T19:37:29.218Z,,,,1,1.2946277435220357,1.255157480204324,,,true,ll,1446.963999904634,response,-1.0769708994456726,1.2,-1.2,-1.2196503533725178,1.2,-1.2,low,low,,ISIC_1870309.JPG,,ISIC_0063824.JPG,,30,true,0.13,ll,keypress(f),0,false,183365.40000009537,183365.09999990463,181901.489,182085.90000009537,181918.136,183220.635,1,40,20,
sequence,flow.Sequence,6_19,2023-11-29T19:37:29.218Z,,,,,,,,,,,1446.963999904634,completion,,,,,,,low,low,,,,,,,true,,,,,false,183365.79999995232,183365.09999990463,181901.489,182085.79999995232,181918.136,183220.635,1,40,,
trial,html.Screen,6_20_0,2023-11-29T19:37:30.730Z,,,,1,1.0329549150636406,-1.01584100839286,,,true,lh,1656.664999952307,response,-0.9544693251394116,1.2,-1.2,1.0727539917203766,1.2,-1.2,low,high,,ISIC_0054670.JPG,,ISIC_0055147.JPG,,27,true,0.40000000000000024,lh,keypress(e),0,false,184877.70000004768,184877.29999995232,183170.775,183366.09999990463,183220.635,184706.868,1,40,21,
sequence,flow.Sequence,6_20,2023-11-29T19:37:30.731Z,,,,,,,,,,,1656.664999952307,completion,,,,,,,low,high,,,,,,,true,,,,,false,184878.29999995232,184877.29999995232,183170.775,183366,183220.635,184706.868,1,40,,
trial,html.Screen,6_21_0,2023-11-29T19:37:44.658Z,,,,1,0.7882758084023446,-0.8296405881378283,,,false,lh,14098.632000000012,response,-0.9198276163642348,1.2,-1.2,0.7754915110667046,1.2,-1.2,low,high,,ISIC_0065882.JPG,,ISIC_7840728.JPG,,40,true,0.4500000000000003,ll,keypress(f),0,false,198805.79999995232,198805.5,184673.733,184878.59999990463,184706.868,198617.256,1,40,22,
sequence,flow.Sequence,6_21,2023-11-29T19:37:44.659Z,,,,,,,,,,,14098.632000000012,completion,,,,,,,low,high,,,,,,,true,,,,,false,198806.29999995232,198805.5,184673.733,184878.59999990463,184706.868,198617.256,1,40,,
trial,html.Screen,6_22_0,2023-11-29T19:37:47.826Z,,,,1,-1.2194553326562725,-1.2381726989215684,,,true,hh,3355.9440000476898,response,1.135180301076722,1.2,-1.2,0.8279199409322678,1.2,-1.2,high,high,,ISIC_0068975.JPG,,ISIC_8637134.JPG,,265,true,0.4500000000000003,hh,keypress(i),0,false,201973.59999990463,201973.20000004768,198600.441,198806.59999990463,198617.256,201790.093,1,40,23,
sequence,flow.Sequence,6_22,2023-11-29T19:37:47.827Z,,,,,,,,,,,3355.9440000476898,completion,,,,,,,high,high,,,,,,,true,,,,,false,201974.29999995232,201973.20000004768,198600.441,198806.5,198617.256,201790.093,1,40,,
trial,html.Screen,6_23_0,2023-11-29T19:37:49.474Z,,,,1,1.151139267005652,1.0838749490501327,,,false,ll,1831.1070000476902,response,-1.1668613502915044,1.2,-1.2,-1.327068780840367,1.2,-1.2,low,low,,ISIC_0002566.JPG,,ISIC_0054459.JPG,,30,true,0.13,hl,keypress(j),0,false,203621.59999990463,203621.20000004768,201773.582,201974.5,201790.093,203476.723,1,40,24,
sequence,flow.Sequence,6_23,2023-11-29T19:37:49.475Z,,,,,,,,,,,1831.1070000476902,completion,,,,,,,low,low,,,,,,,true,,,,,false,203622.09999990463,203621.20000004768,201773.582,201974.5,201790.093,203476.723,1,40,,
trial,html.Screen,6_24_0,2023-11-29T19:37:54.594Z,,,,1,0.8513427412482127,-0.9295303568095064,,,false,lh,5264.477000047686,response,-0.9617893983965208,1.2,-1.2,0.9453006131304652,1.2,-1.2,low,high,,ISIC_0034164.JPG,,ISIC_4229473.JPG,,27,true,0.40000000000000024,ll,keypress(f),0,false,208741.59999990463,208741.20000004768,203426.861,203622.29999995232,203476.723,208553.291,1,40,25,
sequence,flow.Sequence,6_24,2023-11-29T19:37:54.595Z,,,,,,,,,,,5264.477000047686,completion,,,,,,,low,high,,,,,,,true,,,,,false,208742.09999990463,208741.20000004768,203426.861,203622.29999995232,203476.723,208553.291,1,40,,
trial,html.Screen,6_25_0,2023-11-29T19:37:56.323Z,,,,1,1.2600330864275875,1.0958628838888655,,,false,ll,1916.4090000476863,response,-0.8006183445397783,1.2,-1.2,-1.4326380079528296,1.2,-1.2,low,low,,ISIC_0026996.JPG,,ISIC_0069250.JPG,,359,true,0.4500000000000003,hh,keypress(i),0,false,210470.09999990463,210469.70000004768,208536.663,208742.29999995232,208553.291,210323.386,1,40,26,
sequence,flow.Sequence,6_25,2023-11-29T19:37:56.323Z,,,,,,,,,,,1916.4090000476863,completion,,,,,,,low,low,,,,,,,true,,,,,false,210470.59999990463,210469.70000004768,208536.663,208742.20000004768,208553.291,210323.386,1,40,,
trial,html.Screen,6_26_0,2023-11-29T19:37:57.761Z,,,,1,-0.9617893983965208,0.9453006131304652,,,true,hl,1585.4139999523177,response,0.8472024037189965,1.2,-1.2,-0.986370061404882,1.2,-1.2,high,low,,ISIC_4229473.JPG,,ISIC_0054355.JPG,,26,true,0.4500000000000003,hl,keypress(j),0,false,211908.90000009537,211908.79999995232,210273.505,210470.79999995232,210323.386,211742.792,1,40,27,
sequence,flow.Sequence,6_26,2023-11-29T19:37:57.762Z,,,,,,,,,,,1585.4139999523177,completion,,,,,,,high,low,,,,,,,true,,,,,false,211909,211908.79999995232,210273.505,210470.79999995232,210323.386,211742.792,1,40,,
trial,html.Screen,6_27_0,2023-11-29T19:37:59.474Z,,,,1,1.2362557973341337,-1.2548266183352603,,,false,lh,1878.5079999523296,response,-0.9544693251394116,1.2,-1.2,1.0727539917203766,1.2,-1.2,low,high,,ISIC_0033886.JPG,,ISIC_0055147.JPG,,27,true,0.40000000000000024,ll,keypress(f),0,false,213621.59999990463,213621.29999995232,211709.621,211909.09999990463,211742.792,213446.14,1,40,28,
sequence,flow.Sequence,6_27,2023-11-29T19:37:59.475Z,,,,,,,,,,,1878.5079999523296,completion,,,,,,,low,high,,,,,,,true,,,,,false,213622.20000004768,213621.29999995232,211709.621,211909.09999990463,211742.792,213446.14,1,40,,
trial,html.Screen,6_28_0,2023-11-29T19:38:00.802Z,,,,1,-0.9089402323867112,0.8034544077281132,,,false,hl,1503.0600000476697,response,0.8830264383952469,1.2,-1.2,-0.8635562538060516,1.2,-1.2,high,low,,ISIC_3585381.JPG,,ISIC_0032258.JPG,,26,true,0.4500000000000003,lh,keypress(e),0,false,214949.5,214949.20000004768,213429.589,213622.40000009537,213446.14,214765.451,1,40,29,
sequence,flow.Sequence,6_28,2023-11-29T19:38:00.803Z,,,,,,,,,,,1503.0600000476697,completion,,,,,,,high,low,,,,,,,true,,,,,false,214950,214949.20000004768,213429.589,213622.40000009537,213446.14,214765.451,1,40,,
trial,html.Screen,6_29_0,2023-11-29T19:38:01.970Z,,,,1,1.1843968275545205,1.2828739728067764,,,true,ll,1351.9490000953665,response,-0.8312425167370745,1.2,-1.2,-0.9376491160549733,1.2,-1.2,low,low,,ISIC_0002901.JPG,,ISIC_4834687.JPG,,288,true,0.40000000000000024,ll,keypress(f),0,false,216117.70000004768,216117.40000009537,214748.827,214950.20000004768,214765.451,215967.727,1,40,30,
sequence,flow.Sequence,6_29,2023-11-29T19:38:01.971Z,,,,,,,,,,,1351.9490000953665,completion,,,,,,,low,low,,,,,,,true,,,,,false,216118.09999990463,216117.40000009537,214748.827,214950.20000004768,214765.451,215967.727,1,40,,
trial,html.Screen,6_30_0,2023-11-29T19:38:04.138Z,,,,1,-0.8987343013179191,0.8149073454566363,,,false,hl,2317.372999904619,response,1.075512775389519,1.2,-1.2,-1.0454702683049502,1.2,-1.2,high,low,,ISIC_0472513.JPG,,ISIC_0033603.JPG,,26,true,0.4500000000000003,hh,keypress(i),0,false,218285.5,218285.09999990463,215917.939,216118.40000009537,215967.727,218121.906,1,40,31,
sequence,flow.Sequence,6_30,2023-11-29T19:38:04.139Z,,,,,,,,,,,2317.372999904619,completion,,,,,,,high,low,,,,,,,true,,,,,false,218286,218285.09999990463,215917.939,216118.40000009537,215967.727,218121.906,1,40,,
trial,html.Screen,6_31_0,2023-11-29T19:38:05.522Z,,,,1,-0.9633172970727744,0.8472659344792351,,,true,hl,1547.0940000000119,response,0.8828738626295417,1.2,-1.2,-0.8288177599439582,1.2,-1.2,high,low,,ISIC_0067172.JPG,,ISIC_0056041.JPG,,26,true,0.4500000000000003,hl,keypress(j),0,false,219669.40000009537,219669,218088.619,218286.20000004768,218121.906,219507.952,1,40,32,
sequence,flow.Sequence,6_31,2023-11-29T19:38:05.522Z,,,,,,,,,,,1547.0940000000119,completion,,,,,,,high,low,,,,,,,true,,,,,false,219669.90000009537,219669,218088.619,218286.20000004768,218121.906,219507.952,1,40,,
trial,html.Screen,6_32_0,2023-11-29T19:38:07.258Z,,,,1,-0.8047295996345292,1.551750455622795,,,false,hl,1897.7480000476935,response,0.7518277461369444,1.2,-1.2,-1.3860759020802074,1.2,-1.2,high,low,,ISIC_7717907.JPG,,ISIC_7967397.JPG,,26,true,0.4500000000000003,lh,keypress(e),0,false,221406,221405.70000004768,219474.763,219670.09999990463,219507.952,221228.203,1,40,33,
sequence,flow.Sequence,6_32,2023-11-29T19:38:07.259Z,,,,,,,,,,,1897.7480000476935,completion,,,,,,,high,low,,,,,,,true,,,,,false,221406.5,221405.70000004768,219474.763,219670.09999990463,219507.952,221228.203,1,40,,
trial,html.Screen,6_33_0,2023-11-29T19:38:08.793Z,,,,1,1.252716660627398,1.183977080937476,,,true,ll,1712.0969999523077,response,-1.0321843200509992,1.2,-1.2,-1.3081076451896183,1.2,-1.2,low,low,,ISIC_0034194.JPG,,ISIC_0056406.JPG,,288,true,0.40000000000000024,ll,keypress(f),0,false,222940.5,222940.29999995232,221211.288,221406.70000004768,221228.203,222780.961,1,40,34,
sequence,flow.Sequence,6_33,2023-11-29T19:38:08.793Z,,,,,,,,,,,1712.0969999523077,completion,,,,,,,low,low,,,,,,,true,,,,,false,222940.70000004768,222940.29999995232,221211.288,221406.59999990463,221228.203,222780.961,1,40,,
trial,html.Screen,6_34_0,2023-11-29T19:38:10.034Z,,,,1,0.989300717252516,-0.7908280206937478,,,false,lh,1400.2390000476735,response,-1.0116417541846066,1.2,-1.2,1.033442916947398,1.2,-1.2,low,high,,ISIC_6416533.JPG,,ISIC_0031389.JPG,,27,true,0.40000000000000024,hl,keypress(j),0,false,224181.5,224181.20000004768,222747.728,222940.79999995232,222780.961,224000.08,1,40,35,
sequence,flow.Sequence,6_34,2023-11-29T19:38:10.035Z,,,,,,,,,,,1400.2390000476735,completion,,,,,,,low,high,,,,,,,true,,,,,false,224182.09999990463,224181.20000004768,222747.728,222940.70000004768,222780.961,224000.08,1,40,,
trial,html.Screen,6_35_0,2023-11-29T19:38:11.922Z,,,,1,1.077278111180185,1.1530533996184025,,,false,ll,2069.1200000476965,response,-1.0679712388489528,1.2,-1.2,-1.0509600192807842,1.2,-1.2,low,low,,ISIC_9525136.JPG,,ISIC_0015180.JPG,,359,true,0.4500000000000003,hh,keypress(i),0,false,226069.5,226069.20000004768,223983.436,224182.29999995232,224000.08,225887.107,1,40,36,
sequence,flow.Sequence,6_35,2023-11-29T19:38:11.923Z,,,,,,,,,,,2069.1200000476965,completion,,,,,,,low,low,,,,,,,true,,,,,false,226070.09999990463,226069.20000004768,223983.436,224182.20000004768,224000.08,225887.107,1,40,,
trial,html.Screen,6_36_0,2023-11-29T19:38:13.338Z,,,,1,-1.082709423673037,-1.1184338818466155,,,false,hh,1598.2930000953784,response,1.109799097093339,1.2,-1.2,1.091507924157762,1.2,-1.2,high,high,,ISIC_0058666.JPG,,ISIC_0765584.JPG,,25,true,0.14,hl,keypress(j),0,false,227485.79999995232,227485.40000009537,225870.559,226070.29999995232,225887.107,227306.672,1,40,37,
sequence,flow.Sequence,6_36,2023-11-29T19:38:13.339Z,,,,,,,,,,,1598.2930000953784,completion,,,,,,,high,high,,,,,,,true,,,,,false,227486.29999995232,227485.40000009537,225870.559,226070.20000004768,225887.107,227306.672,1,40,,
trial,html.Screen,6_37_0,2023-11-29T19:38:17.883Z,,,,1,1.274417010249866,1.0725495669014795,,,false,ll,4723.127999952325,response,-1.2118207001489876,1.2,-1.2,-1.3164676315545727,1.2,-1.2,low,low,,ISIC_8849004.JPG,,ISIC_0066476.JPG,,30,true,0.13,lh,keypress(e),0,false,232030.09999990463,232029.79999995232,227289.737,227486.5,227306.672,231848.692,1,40,38,
sequence,flow.Sequence,6_37,2023-11-29T19:38:17.883Z,,,,,,,,,,,4723.127999952325,completion,,,,,,,low,low,,,,,,,true,,,,,false,232030.70000004768,232029.79999995232,227289.737,227486.5,227306.672,231848.692,1,40,,
trial,html.Screen,6_38_0,2023-11-29T19:38:21.283Z,,,,1,1.1409143352872226,1.1323007949069106,,,true,ll,3580.4079999046226,response,-1.0605529903237636,1.2,-1.2,-1.1183115777058938,1.2,-1.2,low,low,,ISIC_0030291.JPG,,ISIC_0011365.JPG,,40,true,0.14,ll,keypress(f),0,false,235430.40000009537,235429.09999990463,231832.018,232030.90000009537,231848.692,235255.504,1,40,39,
sequence,flow.Sequence,6_38,2023-11-29T19:38:21.284Z,,,,,,,,,,,3580.4079999046226,completion,,,,,,,low,low,,,,,,,true,,,,,false,235431,235429.09999990463,231832.018,232030.79999995232,231848.692,235255.504,1,40,,
trial,html.Screen,6_39_0,2023-11-29T19:38:23.611Z,,,,1,-1.266079261381142,-1.312161506160336,,,false,hh,2501.6960000476975,response,1.160746324899676,1.2,-1.2,1.1927876559115576,1.2,-1.2,high,high,,ISIC_0065449.JPG,,ISIC_8651053.JPG,,25,true,0.14,ll,keypress(f),0,false,237757.59999990463,237757.20000004768,235238.765,235431.29999995232,235255.504,237576.48,1,40,40,
sequence,flow.Sequence,6_39,2023-11-29T19:38:23.611Z,,,,,,,,,,,2501.6960000476975,completion,,,,,,,high,high,,,,,,,true,,,,,false,237758.20000004768,237757.20000004768,235238.765,235431.20000004768,235255.504,237576.48,1,40,,
practice_loop,flow.Loop,6,2023-11-29T19:38:23.612Z,,,,,,,,,,,135611.03300004767,completion,,,,,,,,,,,,,,,true,,,,,false,237758.5,237757.20000004768,102096.076,102284.29999995232,102146.167,237576.48,1,40,,
stair_instructions,html.Screen,7,2023-11-29T19:38:26.458Z,,,,,,,,,,,3027.5199999999895,response,,,,,,,,,,,,,,,,,continue,click button,,,240604.40000009537,240604,237559.95,237758.70000004768,237576.48,240432.255,,,,
trial,html.Screen,8_0_0,2023-11-29T19:38:32.217Z,,,,2,-0.0388181790775959,0.0049623405709465,,0.04,false,ll,5931.344999904628,response,-1.0865209011322887,1.2,-1.2,-1.1401461171952545,1.2,-1.2,low,low,,ISIC_0061880.JPG,,ISIC_0016145.JPG,28,30,false,0.13,lh,keypress(e),0,true,246363.70000004768,246363.59999990463,240415.315,240604.5,240432.255,246193.235,1,40,1,
sequence,flow.Sequence,8_0,2023-11-29T19:38:32.217Z,,,,,,,,,,,5931.344999904628,completion,,,,,,,low,low,,,,,,,false,,,,,true,246363.90000009537,246363.59999990463,240415.315,240604.5,240432.255,246193.235,1,40,,
trial,html.Screen,8_1_0,2023-11-29T19:38:37.907Z,,,,2,0.0308384937406319,-0.0038396364323947,,0.04,true,hl,5860.3649999046465,response,0.8513427412482127,1.15,-1.15,-0.9295303568095064,1.15,-1.2,high,low,,ISIC_0029825.JPG,,ISIC_0034164.JPG,28,25,false,0.42000000000000026,hl,keypress(j),0,true,252053.90000009537,252053.59999990463,246176.531,246364,246193.235,251887.632,1,40,2,
sequence,flow.Sequence,8_1,2023-11-29T19:38:37.908Z,,,,,,,,,,,5860.3649999046465,completion,,,,,,,high,low,,,,,,,false,,,,,true,252054.40000009537,252053.59999990463,246176.531,246364,246193.235,251887.632,1,40,,
trial,html.Screen,8_2_0,2023-11-29T19:38:43.042Z,,,,2,-0.001445457736793,-0.0165307427449982,,0.04,false,lh,5300.667999952304,response,-0.8987343013179191,1.15,-1.15,0.8149073454566363,1.15,-1.15,low,high,,ISIC_0027350.JPG,,ISIC_0472513.JPG,28,26,false,0.3500000000000002,hh,keypress(i),0,true,257188.40000009537,257188.29999995232,251854.157,252054.59999990463,251887.632,256997.573,1,40,3,
sequence,flow.Sequence,8_2,2023-11-29T19:38:43.042Z,,,,,,,,,,,5300.667999952304,completion,,,,,,,low,high,,,,,,,false,,,,,true,257188.59999990463,257188.29999995232,251854.157,252054.5,251887.632,256997.573,1,40,,
trial,html.Screen,8_3_0,2023-11-29T19:38:49.131Z,,,,2,0,-0.0102871556606504,,0.04,false,ll,6279.8270000953635,response,-1.1392972253022884,1.15,-1.15,-1.208510423375335,1.15,-1.15,low,low,,ISIC_1805163.JPG,,ISIC_0046526.JPG,28,27,false,0.1,lh,keypress(e),0,true,263277.7999999523,263277.40000009537,256981.097,257188.70000004768,256997.573,263109.479,1,40,4,
sequence,flow.Sequence,8_3,2023-11-29T19:38:49.132Z,,,,,,,,,,,6279.8270000953635,completion,,,,,,,low,low,,,,,,,false,,,,,true,263278.40000009537,263277.40000009537,256981.097,257188.59999990463,256997.573,263109.479,1,40,,
trial,html.Screen,8_4_0,2023-11-29T19:38:52.945Z,,,,2,-0.0388334549081915,0.0303399972963369,,0.04,false,hl,3982.320999952324,response,1.0369885917487718,1.15,-1.15,-0.8486937878412699,1.15,-1.15,high,low,,ISIC_4961708.JPG,,ISIC_6917681.JPG,28,26,false,0.40000000000000024,lh,keypress(e),0,true,267091.90000009537,267091.7999999523,263076.228,263278.59999990463,263109.479,266918.069,1,40,5,
sequence,flow.Sequence,8_4,2023-11-29T19:38:52.945Z,,,,,,,,,,,3982.320999952324,completion,,,,,,,high,low,,,,,,,false,,,,,true,267092,267091.7999999523,263076.228,263278.59999990463,263109.479,266918.069,1,40,,
trial,html.Screen,8_5_0,2023-11-29T19:38:56.923Z,,,,2,-0.0388181790775959,0.0049623405709465,,0.04,false,ll,4151.631000047666,response,-1.2014901828022857,1.15,-1.15,-1.1484096197304636,1.15,-1.15,low,low,,ISIC_0061880.JPG,,ISIC_0067808.JPG,28,27,false,0.1,hh,keypress(i),0,true,271070,271069.7000000477,266883.705,267092.09999990463,266918.069,270891.353,1,40,6,
sequence,flow.Sequence,8_5,2023-11-29T19:38:56.924Z,,,,,,,,,,,4151.631000047666,completion,,,,,,,low,low,,,,,,,false,,,,,true,271070.5,271069.7000000477,266883.705,267092.09999990463,266918.069,270891.353,1,40,,
trial,html.Screen,8_6_0,2023-11-29T19:38:59.763Z,,,,2,0.0367744112927588,0.0324865661712824,,0.04,false,hh,3018.0470000953646,response,1.0107375180488247,1.15,-1.15,1.2079382542709534,1.15,-1.15,high,high,,ISIC_4523565.JPG,,ISIC_0025602.JPG,28,27,false,0.14,hl,keypress(j),0,true,273909.7000000477,273909.40000009537,270874.821,271070.7000000477,270891.353,273730.151,1,40,7,
sequence,flow.Sequence,8_6,2023-11-29T19:38:59.763Z,,,,,,,,,,,3018.0470000953646,completion,,,,,,,high,high,,,,,,,false,,,,,true,273910.2999999523,273909.40000009537,270874.821,271070.7000000477,270891.353,273730.151,1,40,,
trial,html.Screen,8_7_0,2023-11-29T19:39:02.457Z,,,,2,-0.0198696495649504,0.0387952353063878,,0.04,false,hl,2873.749000095355,response,0.8719231363109603,1.15,-1.15,-0.7704280220140033,1.15,-1.15,high,low,,ISIC_6735970.JPG,,ISIC_0029453.JPG,28,26,false,0.40000000000000024,lh,keypress(e),0,true,276603.90000009537,276603.90000009537,273713.675,273910.5,273730.151,276418.704,1,40,8,
sequence,flow.Sequence,8_7,2023-11-29T19:39:02.457Z,,,,,,,,,,,2873.749000095355,completion,,,,,,,high,low,,,,,,,false,,,,,true,276604.09999990463,276603.90000009537,273713.675,273910.40000009537,273730.151,276418.704,1,40,,
trial,html.Screen,8_8_0,2023-11-29T19:39:04.635Z,,,,2,0.0258224118104549,-0.0029364553353019,,0.04,false,ll,2362.795999999973,response,-1.071312313440387,1.15,-1.15,-1.0935391476164529,1.15,-1.15,low,low,,ISIC_8325226.JPG,,ISIC_0063680.JPG,28,27,false,0.1,hh,keypress(i),0,true,278781.90000009537,278781.5,276402.289,276604.09999990463,276418.704,278606.394,1,40,9,
sequence,flow.Sequence,8_8,2023-11-29T19:39:04.636Z,,,,,,,,,,,2362.795999999973,completion,,,,,,,low,low,,,,,,,false,,,,,true,278782.40000009537,278781.5,276402.289,276604.09999990463,276418.704,278606.394,1,40,,
trial,html.Screen,8_9_0,2023-11-29T19:39:06.499Z,,,,2,0.0308384937406319,-0.0038396364323947,,0.04,false,ll,2039.1060000000289,response,-1.063036912656269,1.15,-1.15,-1.1534875859179432,1.15,-1.15,low,low,,ISIC_0029825.JPG,,ISIC_0010772.JPG,28,27,false,0.1,hl,keypress(j),0,true,280645.7999999523,280645.5,278589.835,278782.59999990463,278606.394,280476.615,1,40,10,
sequence,flow.Sequence,8_9,2023-11-29T19:39:06.499Z,,,,,,,,,,,2039.1060000000289,completion,,,,,,,low,low,,,,,,,false,,,,,true,280646.2000000477,280645.5,278589.835,278782.59999990463,278606.394,280476.615,1,40,,
trial,html.Screen,8_10_0,2023-11-29T19:39:08.260Z,,,,2,-0.0374659946425444,-0.0086043094957617,,0.04,false,hl,1929.4849999046419,response,0.8472024037189965,1.15,-1.15,-0.986370061404882,1.15,-1.15,high,low,,ISIC_0033051.JPG,,ISIC_0054355.JPG,28,26,false,0.40000000000000024,lh,keypress(e),0,true,282406.5,282406.09999990463,280443.388,280646.5,280476.615,282230.037,1,40,11,
sequence,flow.Sequence,8_10,2023-11-29T19:39:08.260Z,,,,,,,,,,,1929.4849999046419,completion,,,,,,,high,low,,,,,,,false,,,,,true,282406.90000009537,282406.09999990463,280443.388,280646.40000009537,280476.615,282230.037,1,40,,
trial,html.Screen,8_11_0,2023-11-29T19:39:10.251Z,,,,2,-0.0198696495649504,0.0387952353063878,,0.04,false,lh,2167.462999999989,response,-1.168911077628813,1.15,-1.15,1.2181838235193114,1.15,-1.15,low,high,,ISIC_6735970.JPG,,ISIC_7358691.JPG,28,26,false,0.3500000000000002,hh,keypress(i),0,true,284397.7999999523,284397.5,282213.453,282407.2000000477,282230.037,284217.451,1,40,12,
sequence,flow.Sequence,8_11,2023-11-29T19:39:10.251Z,,,,,,,,,,,2167.462999999989,completion,,,,,,,low,high,,,,,,,false,,,,,true,284398.2999999523,284397.5,282213.453,282407.09999990463,282230.037,284217.451,1,40,,
trial,html.Screen,8_12_0,2023-11-29T19:39:11.987Z,,,,2,-0.0074667911845194,0.018500200317654,,0.04,true,ll,1915.9490000953665,response,-1.2194553326562725,1.15,-1.15,-1.2381726989215684,1.15,-1.15,low,low,,ISIC_0058723.JPG,,ISIC_0068975.JPG,28,27,false,0.1,ll,keypress(f),0,true,286133.7000000477,286133.40000009537,284200.753,284398.5,284217.451,285953.957,1,40,13,
sequence,flow.Sequence,8_12,2023-11-29T19:39:11.987Z,,,,,,,,,,,1915.9490000953665,completion,,,,,,,low,low,,,,,,,false,,,,,true,286134.2000000477,286133.40000009537,284200.753,284398.5,284217.451,285953.957,1,40,,
trial,html.Screen,8_13_0,2023-11-29T19:39:14.137Z,,,,2,0.0308384937406319,-0.0038396364323947,,0.04,true,lh,2329.543000000005,response,-1.2020012168275056,1.15,-1.15,0.923753102263735,1.15,-1.15,low,high,,ISIC_0029825.JPG,,ISIC_0000022.JPG,28,26,false,0.3500000000000002,lh,keypress(e),0,true,288283.5,288283.5,285937.358,286134.40000009537,285953.957,288109.226,1,40,14,
sequence,flow.Sequence,8_13,2023-11-29T19:39:14.137Z,,,,,,,,,,,2329.543000000005,completion,,,,,,,low,high,,,,,,,false,,,,,true,288283.7000000477,288283.5,285937.358,286134.40000009537,285953.957,288109.226,1,40,,
trial,html.Screen,8_14_0,2023-11-29T19:39:15.651Z,,,,2,-0.0164027439304477,0.0082910758715273,,0.04,true,hl,1688.573999952292,response,0.7991459998473059,1.15,-1.0999999999999999,-1.0280788723474688,1.0999999999999999,-1.15,high,low,,ISIC_7381224.JPG,,ISIC_7951202.JPG,28,26,false,0.40000000000000024,hl,keypress(j),0,true,289798.2000000477,289797.7999999523,288074.842,288283.7999999523,288109.226,289611.039,1,40,15,
sequence,flow.Sequence,8_14,2023-11-29T19:39:15.652Z,,,,,,,,,,,1688.573999952292,completion,,,,,,,high,low,,,,,,,false,,,,,true,289798.90000009537,289797.7999999523,288074.842,288283.7999999523,288109.226,289611.039,1,40,,
trial,html.Screen,8_15_0,2023-11-29T19:39:17.049Z,,,,2,-0.0198696495649504,0.0387952353063878,,0.04,false,ll,1584.7609999523265,response,-1.0470212693307346,1.15,-1.0999999999999999,-1.097091139433204,1.0999999999999999,-1.0999999999999999,low,low,,ISIC_6735970.JPG,,ISIC_0068234.JPG,28,29,false,0.1,lh,keypress(e),0,true,291196,291195.7999999523,289594.36,289799.09999990463,289611.039,291013.762,1,40,16,
sequence,flow.Sequence,8_15,2023-11-29T19:39:17.049Z,,,,,,,,,,,1584.7609999523265,completion,,,,,,,low,low,,,,,,,false,,,,,true,291196.09999990463,291195.7999999523,289594.36,289799,289611.039,291013.762,1,40,,
trial,html.Screen,8_16_0,2023-11-29T19:39:19.705Z,,,,2,0.0258224118104549,-0.0029364553353019,,0.04,false,hh,2838.238000000012,response,1.0257168197307909,1.15,-1.0999999999999999,1.0403166496930305,1.0999999999999999,-1.15,high,high,,ISIC_8325226.JPG,,ISIC_1690909.JPG,28,27,false,0.13,hl,keypress(j),0,true,293852.2000000477,293852,290997.072,291196.2000000477,291013.762,293668.968,1,40,17,
sequence,flow.Sequence,8_16,2023-11-29T19:39:19.705Z,,,,,,,,,,,2838.238000000012,completion,,,,,,,high,high,,,,,,,false,,,,,true,293852.2999999523,293852,290997.072,291196.2000000477,291013.762,293668.968,1,40,,
trial,html.Screen,8_17_0,2023-11-29T19:39:21.385Z,,,,2,0.0220026381002083,-0.0170756452911772,,0.04,false,hh,1862.932000095374,response,1.0257168197307909,1.0999999999999999,-1.0999999999999999,1.0403166496930305,1.15,-1.15,high,high,,ISIC_5347806.JPG,,ISIC_1690909.JPG,28,27,false,0.14,lh,keypress(e),0,true,295532.09999990463,295531.90000009537,293652.238,293852.40000009537,293668.968,295355.607,1,40,18,
sequence,flow.Sequence,8_17,2023-11-29T19:39:21.385Z,,,,,,,,,,,1862.932000095374,completion,,,,,,,high,high,,,,,,,false,,,,,true,295532.2000000477,295531.90000009537,293652.238,293852.40000009537,293668.968,295355.607,1,40,,
trial,html.Screen,8_18_0,2023-11-29T19:39:22.843Z,,,,2,0.0367744112927588,0.0324865661712824,,0.04,false,ll,1633.5930000476656,response,-1.0581711446393522,1.15,-1.0999999999999999,-1.1376053597134304,1.15,-1.15,low,low,,ISIC_4523565.JPG,,ISIC_0014987.JPG,28,27,false,0.1,hl,keypress(j),0,true,296989.40000009537,296989.2000000477,295339,295532.2999999523,295355.607,296841.811,1,40,19,
sequence,flow.Sequence,8_18,2023-11-29T19:39:22.844Z,,,,,,,,,,,1633.5930000476656,completion,,,,,,,low,low,,,,,,,false,,,,,true,296989.90000009537,296989.2000000477,295339,295532.2999999523,295355.607,296841.811,1,40,,
trial,html.Screen,8_19_0,2023-11-29T19:39:24.203Z,,,,2,0.0286056110007553,0.036125199756515,,0.04,false,hl,1507.3890000476968,response,1.2578167348825195,1.15,-1.15,-0.8371819698254004,1.15,-1.15,high,low,,ISIC_6535558.JPG,,ISIC_9613570.JPG,28,26,false,0.40000000000000024,lh,keypress(e),0,true,298349.59999990463,298349.2000000477,296791.711,296990.09999990463,296841.811,298177.735,1,40,20,
sequence,flow.Sequence,8_19,2023-11-29T19:39:24.204Z,,,,,,,,,,,1507.3890000476968,completion,,,,,,,high,low,,,,,,,false,,,,,true,298350,298349.2000000477,296791.711,296990,296841.811,298177.735,1,40,,
trial,html.Screen,8_20_0,2023-11-29T19:39:26.163Z,,,,2,-0.0374659946425444,-0.0086043094957617,,0.04,false,lh,2130.765000000014,response,-1.0685314915436992,1.15,-1.15,0.8203833713472237,1.15,-1.15,low,high,,ISIC_0033051.JPG,,ISIC_0029374.JPG,28,26,false,0.3500000000000002,hh,keypress(i),0,true,300308.7000000477,300308.5,298144.421,298350.2000000477,298177.735,300131.528,1,40,21,
sequence,flow.Sequence,8_20,2023-11-29T19:39:26.163Z,,,,,,,,,,,2130.765000000014,completion,,,,,,,low,high,,,,,,,false,,,,,true,300308.90000009537,300308.5,298144.421,298350.09999990463,298177.735,300131.528,1,40,,
trial,html.Screen,8_21_0,2023-11-29T19:39:27.554Z,,,,2,-0.0241900387072296,0.0339955304424736,,0.04,false,hl,1568.5719999046414,response,0.9653573371180936,1.15,-1.15,-0.854766800381037,1.0999999999999999,-1.15,high,low,,ISIC_0010789.JPG,,ISIC_9640145.JPG,28,26,false,0.40000000000000024,ll,keypress(f),0,true,301700.2000000477,301700.09999990463,300114.839,300309,300131.528,301517.545,1,40,22,
sequence,flow.Sequence,8_21,2023-11-29T19:39:27.554Z,,,,,,,,,,,1568.5719999046414,completion,,,,,,,high,low,,,,,,,false,,,,,true,301700.40000009537,301700.09999990463,300114.839,300309,300131.528,301517.545,1,40,,
trial,html.Screen,8_22_0,2023-11-29T19:39:28.922Z,,,,2,-0.0109416414475118,-0.005246498750811,,0.04,false,hh,1550.5549999046489,response,1.2101243893950622,1.15,-1.15,0.9721089662087676,1.0999999999999999,-1.15,high,high,,ISIC_0064279.JPG,,ISIC_0760740.JPG,28,27,false,0.13,hl,keypress(j),0,true,303068.2000000477,303068.09999990463,301501.051,301700.40000009537,301517.545,302886.93,1,40,23,
sequence,flow.Sequence,8_22,2023-11-29T19:39:28.922Z,,,,,,,,,,,1550.5549999046489,completion,,,,,,,high,high,,,,,,,false,,,,,true,303068.2999999523,303068.09999990463,301501.051,301700.40000009537,301517.545,302886.93,1,40,,
trial,html.Screen,8_23_0,2023-11-29T19:39:30.450Z,,,,2,-0.0199950873045219,-0.0172506388509166,,0.04,false,hh,1709.070000000007,response,1.077278111180185,1.15,-1.15,1.1530533996184025,1.15,-1.15,high,high,,ISIC_0029906.JPG,,ISIC_9525136.JPG,28,27,false,0.14,lh,keypress(e),0,true,304596.2000000477,304596,302870.223,303068.2999999523,302886.93,304423.247,1,40,24,
sequence,flow.Sequence,8_23,2023-11-29T19:39:30.450Z,,,,,,,,,,,1709.070000000007,completion,,,,,,,high,high,,,,,,,false,,,,,true,304596.2999999523,304596,302870.223,303068.2999999523,302886.93,304423.247,1,40,,
trial,html.Screen,8_24_0,2023-11-29T19:39:32.466Z,,,,2,0.0258224118104549,-0.0029364553353019,,0.04,false,lh,2188.753000000026,response,-0.9662688541319592,1.15,-1.15,0.929746784178986,1.15,-1.15,low,high,,ISIC_8325226.JPG,,ISIC_0011077.JPG,28,26,false,0.3500000000000002,hl,keypress(j),0,true,306612.09999990463,306612,304390.052,304596.2999999523,304423.247,306443.822,1,40,25,
sequence,flow.Sequence,8_24,2023-11-29T19:39:32.466Z,,,,,,,,,,,2188.753000000026,completion,,,,,,,low,high,,,,,,,false,,,,,true,306612.2000000477,306612,304390.052,304596.2999999523,304423.247,306443.822,1,40,,
trial,html.Screen,8_25_0,2023-11-29T19:39:33.874Z,,,,2,-0.0388334549081915,0.0303399972963369,,0.04,false,hl,1576.0780000953819,response,1.058275612142778,1.15,-1.15,-0.7824898568540655,1.15,-1.15,high,low,,ISIC_4961708.JPG,,ISIC_4906385.JPG,28,26,false,0.40000000000000024,lh,keypress(e),0,true,308020.09999990463,308019.90000009537,306410.497,306612.2999999523,306443.822,307829.829,1,40,26,
sequence,flow.Sequence,8_25,2023-11-29T19:39:33.874Z,,,,,,,,,,,1576.0780000953819,completion,,,,,,,high,low,,,,,,,false,,,,,true,308020.2000000477,308019.90000009537,306410.497,306612.2999999523,306443.822,307829.829,1,40,,
trial,html.Screen,8_26_0,2023-11-29T19:39:35.562Z,,,,2,-0.0388181790775959,0.0049623405709465,,0.04,false,hh,1878.170999999973,response,1.2724293858920366,1.15,-1.15,1.149360738769835,1.15,-1.15,high,high,,ISIC_0061880.JPG,,ISIC_1264725.JPG,28,27,false,0.14,ll,keypress(f),0,true,309708.09999990463,309708,307813.165,308020.2999999523,307829.829,309533.715,1,40,27,
sequence,flow.Sequence,8_26,2023-11-29T19:39:35.562Z,,,,,,,,,,,1878.170999999973,completion,,,,,,,high,high,,,,,,,false,,,,,true,309708.2000000477,309708,307813.165,308020.2999999523,307829.829,309533.715,1,40,,
trial,html.Screen,8_27_0,2023-11-29T19:39:37.051Z,,,,2,-0.0388334549081915,0.0303399972963369,,0.04,false,lh,1663.485000047658,response,-0.9617893983965208,1.15,-1.15,0.9453006131304652,1.15,-1.15,low,high,,ISIC_4961708.JPG,,ISIC_4229473.JPG,28,26,false,0.3500000000000002,hh,keypress(i),0,true,311197.5,311197.2000000477,309499.798,309708.2999999523,309533.715,311019.408,1,40,28,
sequence,flow.Sequence,8_27,2023-11-29T19:39:37.052Z,,,,,,,,,,,1663.485000047658,completion,,,,,,,low,high,,,,,,,false,,,,,true,311197.90000009537,311197.2000000477,309499.798,309708.2999999523,309533.715,311019.408,1,40,,
trial,html.Screen,8_28_0,2023-11-29T19:39:38.627Z,,,,2,0.0044063257337227,0.0172548282859886,,0.04,false,hh,1753.792000047688,response,1.0107375180488247,1.15,-1.15,1.2079382542709534,1.15,-1.15,high,high,,ISIC_7413786.JPG,,ISIC_0025602.JPG,28,27,false,0.14,ll,keypress(f),0,true,312773.5,312773.2000000477,311002.714,311198.09999990463,311019.408,312605.83,1,40,29,
sequence,flow.Sequence,8_28,2023-11-29T19:39:38.628Z,,,,,,,,,,,1753.792000047688,completion,,,,,,,high,high,,,,,,,false,,,,,true,312774,312773.2000000477,311002.714,311198,311019.408,312605.83,1,40,,
trial,html.Screen,8_29_0,2023-11-29T19:39:40.604Z,,,,2,-0.0109416414475118,-0.005246498750811,,0.04,true,lh,2143.7699999046163,response,-0.8067116931297591,1.15,-1.15,1.215898074058027,1.15,-1.15,low,high,,ISIC_0064279.JPG,,ISIC_1457687.JPG,28,26,false,0.3500000000000002,lh,keypress(e),0,true,314749.90000009537,314749.59999990463,312572.675,312774.2000000477,312605.83,314576.325,1,40,30,
sequence,flow.Sequence,8_29,2023-11-29T19:39:40.604Z,,,,,,,,,,,2143.7699999046163,completion,,,,,,,low,high,,,,,,,false,,,,,true,314750.40000009537,314749.59999990463,312572.675,312774.09999990463,312605.83,314576.325,1,40,,
trial,html.Screen,8_30_0,2023-11-29T19:39:42.524Z,,,,2,-0.0109416414475118,-0.005246498750811,,0.04,false,hl,2093.075000095356,response,1.199471562817528,1.15,-1.15,-0.8631260534979347,1.15,-1.15,high,low,,ISIC_0064279.JPG,,ISIC_0030754.JPG,28,26,false,0.40000000000000024,ll,keypress(f),0,true,316669.7000000477,316669.40000009537,314543.028,314750.59999990463,314576.325,316480.104,1,40,31,
sequence,flow.Sequence,8_30,2023-11-29T19:39:42.524Z,,,,,,,,,,,2093.075000095356,completion,,,,,,,high,low,,,,,,,false,,,,,true,316670.2000000477,316669.40000009537,314543.028,314750.59999990463,314576.325,316480.104,1,40,,
trial,html.Screen,8_31_0,2023-11-29T19:39:43.884Z,,,,2,0.0119001144851157,-0.0063430114540141,,0.04,false,hh,1549.1959999523242,response,1.0107375180488247,1.15,-1.15,1.2079382542709534,1.15,-1.15,high,high,,ISIC_0003822.JPG,,ISIC_0025602.JPG,28,27,false,0.14,hl,keypress(j),0,true,318029.7000000477,318029.2999999523,316463.332,316670.5,316480.104,317849.365,1,40,32,
sequence,flow.Sequence,8_31,2023-11-29T19:39:43.884Z,,,,,,,,,,,1549.1959999523242,completion,,,,,,,high,high,,,,,,,false,,,,,true,318030.2000000477,318029.2999999523,316463.332,316670.5,316480.104,317849.365,1,40,,
trial,html.Screen,8_32_0,2023-11-29T19:39:45.522Z,,,,2,-0.0164027439304477,0.0082910758715273,,0.04,false,lh,1819.0350000953767,response,-0.8350129142228142,1.15,-1.15,0.8172547818270586,1.15,-1.15,low,high,,ISIC_7381224.JPG,,ISIC_0301568.JPG,28,26,false,0.3500000000000002,hh,keypress(i),0,true,319668.5,319668.40000009537,317832.925,318030.5,317849.365,319502.578,1,40,33,
sequence,flow.Sequence,8_32,2023-11-29T19:39:45.523Z,,,,,,,,,,,1819.0350000953767,completion,,,,,,,low,high,,,,,,,false,,,,,true,319668.7000000477,319668.40000009537,317832.925,318030.40000009537,317849.365,319502.578,1,40,,
trial,html.Screen,8_33_0,2023-11-29T19:39:46.948Z,,,,2,-0.039520186367207,-0.0377961575607372,,0.04,false,hl,1590.6220000477042,response,0.7883321712536753,1.15,-1.15,-1.0011430756825364,1.15,-1.15,high,low,,ISIC_6356149.JPG,,ISIC_9828853.JPG,28,26,false,0.40000000000000024,lh,keypress(e),0,true,321093.7000000477,321093.2000000477,319469.412,319668.7999999523,319502.578,320905.309,1,40,34,
sequence,flow.Sequence,8_33,2023-11-29T19:39:46.948Z,,,,,,,,,,,1590.6220000477042,completion,,,,,,,high,low,,,,,,,false,,,,,true,321094.2000000477,321093.2000000477,319469.412,319668.7999999523,319502.578,320905.309,1,40,,
trial,html.Screen,8_34_0,2023-11-29T19:39:48.236Z,,,,2,0.0009714874637896,-0.0174815595031679,,0.04,false,ll,1475.990999952308,response,-1.0769708994456726,1.15,-1.15,-1.2196503533725178,1.15,-1.15,low,low,,ISIC_9848743.JPG,,ISIC_0063824.JPG,28,27,false,0.1,hl,keypress(j),0,true,322381.59999990463,322381.2999999523,320888.85,321094.40000009537,320905.309,322207.935,1,40,35,
sequence,flow.Sequence,8_34,2023-11-29T19:39:48.236Z,,,,,,,,,,,1475.990999952308,completion,,,,,,,low,low,,,,,,,false,,,,,true,322382.09999990463,322381.2999999523,320888.85,321094.40000009537,320905.309,322207.935,1,40,,
trial,html.Screen,8_35_0,2023-11-29T19:39:49.420Z,,,,2,0,-0.0102871556606504,,0.04,false,ll,1357.5650000000023,response,-1.1746004947382946,1.15,-1.15,-1.2207657619249948,1.15,-1.15,low,low,,ISIC_1805163.JPG,,ISIC_0012069.JPG,28,27,false,0.1,lh,keypress(e),0,true,323565.7999999523,323565.5,322174.676,322382.2999999523,322207.935,323393.497,1,40,36,
sequence,flow.Sequence,8_35,2023-11-29T19:39:49.420Z,,,,,,,,,,,1357.5650000000023,completion,,,,,,,low,low,,,,,,,false,,,,,true,323566.2999999523,323565.5,322174.676,322382.2999999523,322207.935,323393.497,1,40,,
trial,html.Screen,8_36_0,2023-11-29T19:39:50.995Z,,,,2,-0.0198696495649504,0.0387952353063878,,0.04,false,lh,1747.003000000026,response,-0.8443403196524287,1.15,-1.15,0.8858525429102605,1.15,-1.15,low,high,,ISIC_6735970.JPG,,ISIC_8777813.JPG,28,26,false,0.3500000000000002,ll,keypress(f),0,true,325140.59999990463,325140.5,323360.36,323566.5,323393.497,324963.362,1,40,37,
sequence,flow.Sequence,8_36,2023-11-29T19:39:50.995Z,,,,,,,,,,,1747.003000000026,completion,,,,,,,low,high,,,,,,,false,,,,,true,325140.7999999523,325140.5,323360.36,323566.5,323393.497,324963.362,1,40,,
trial,html.Screen,8_37_0,2023-11-29T19:39:52.516Z,,,,2,0.0367706518941078,-0.0161069838272154,,0.04,false,hh,1698.2379999046098,response,1.151139267005652,1.15,-0.9594704071953617,1.0838749490501327,1.15,-1.15,high,high,,ISIC_0033419.JPG,,ISIC_0002566.JPG,28,27,false,0.14,ll,keypress(f),0,true,326661.90000009537,326661.59999990463,324946.773,325140.90000009537,324963.362,326482.993,1,40,38,
sequence,flow.Sequence,8_37,2023-11-29T19:39:52.516Z,,,,,,,,,,,1698.2379999046098,completion,,,,,,,high,high,,,,,,,false,,,,,true,326662.40000009537,326661.59999990463,324946.773,325140.90000009537,324963.362,326482.993,1,40,,
trial,html.Screen,8_38_0,2023-11-29T19:39:53.540Z,,,,2,-0.0164027439304477,0.0082910758715273,,0.04,false,hh,1202.6069999046158,response,1.0161855018674797,1.15,-0.9594704071953617,1.1331366334676347,1.15,-1.15,high,high,,ISIC_7381224.JPG,,ISIC_3521671.JPG,28,27,false,0.14,ll,keypress(f),0,true,327686,327685.59999990463,326466.283,326662.7000000477,326482.993,327518.249,1,40,39,
sequence,flow.Sequence,8_38,2023-11-29T19:39:53.540Z,,,,,,,,,,,1202.6069999046158,completion,,,,,,,high,high,,,,,,,false,,,,,true,327686.40000009537,327685.59999990463,326466.283,326662.7000000477,326482.993,327518.249,1,40,,
trial,html.Screen,8_39_0,2023-11-29T19:39:54.844Z,,,,2,0.0286056110007553,0.036125199756515,,0.04,false,lh,1471.1510000953567,response,-0.90812608370647,1.15,-0.9594704071953617,1.2720026872926935,1.15,-1.15,low,high,,ISIC_6535558.JPG,,ISIC_0450295.JPG,28,29,false,0.29000000000000015,ll,keypress(f),0,true,328989.7999999523,328989.40000009537,327501.501,327686.7000000477,327518.249,328804.021,1,40,40,
sequence,flow.Sequence,8_39,2023-11-29T19:39:54.844Z,,,,,,,,,,,1471.1510000953567,completion,,,,,,,low,high,,,,,,,false,,,,,true,328990.2000000477,328989.40000009537,327501.501,327686.59999990463,327518.249,328804.021,1,40,,
stair_loop,flow.Loop,8,2023-11-29T19:39:54.844Z,,,,,,,,,,,88557.14500009536,completion,,,,,,,,,,,,,,,false,,,,,true,328990.5,328989.40000009537,240415.315,240604.5,240432.255,328804.021,1,40,,
exp_instructions,html.Screen,9,2023-11-29T19:39:57.178Z,,,,,,,,,,,2519.8790000953595,response,,,,,,,,,,,,,,,,,continue,keypress(Space),,,331324.2000000477,331323.90000009537,328787.562,328990.59999990463,328804.021,331141.89,,,,
trial,html.Screen,10_0_0,2023-11-29T19:40:03.370Z,,,,1,-0.039520186367207,-0.0377961575607372,,0.04,false,ll,6373.909999952302,response,-1.061329542878903,1.1499999999999997,-1.121420561079304,-1.0605755702127622,1.1449999999999998,-1.1499999999999997,low,low,,ISIC_6356149.JPG,8,ISIC_0065622.JPG,28,30,false,0.1,hh,keypress(i),0,false,337515.90000009537,337515.7999999523,331125.484,331324.2999999523,331141.89,337337.36,5,600,1,
break,html.Screen,10_0_1,2023-11-29T19:40:03.370Z,,,,,,,,,,,NaN,,,,,,,,low,low,,,,,,,false,,,,,false,337516.2000000477,337516.09999990463,,337515.90000009537,,337337.36,5,600,,
break_continue,html.Screen,10_0_2,2023-11-29T19:40:03.370Z,,,,,,,,,,,NaN,,,,,,,,low,low,,,,,,,false,,,,,false,337516.5,337516.2999999523,,337516.2999999523,,337337.36,5,600,,
sequence,flow.Sequence,10_0,2023-11-29T19:40:03.371Z,,,,,,,,,,,6374.409999952302,completion,,,,,,,low,low,,,,,,,false,,,,,false,337516.59999990463,337516.2999999523,331125.484,331324.2999999523,331141.89,337337.36,5,600,,
trial,html.Screen,10_1_0,2023-11-29T19:40:04.676Z,,,,1,0.0076984477620101,0.0069458408496562,,0.04,false,hh,1483.9399999523303,response,1.2100527057059796,1.1499999999999997,-1.121420561079304,1.2159112471537263,1.1449999999999998,-1.1499999999999997,high,high,,ISIC_0000434.JPG,9,ISIC_0008055.JPG,28,28,false,0.14,hl,keypress(j),0,false,338821.7000000477,338821.2999999523,337320.789,337516.59999990463,337337.36,338673.227,5,600,2,
break,html.Screen,10_1_1,2023-11-29T19:40:04.677Z,,,,,,,,,,,NaN,,,,,,,,high,high,,,,,,,false,,,,,false,338823.09999990463,338822.7000000477,,338822.09999990463,,338673.227,5,600,,
break_continue,html.Screen,10_1_2,2023-11-29T19:40:04.678Z,,,,,,,,,,,NaN,,,,,,,,high,high,,,,,,,false,,,,,false,338824.09999990463,338823.7000000477,,338823.5,,338673.227,5,600,,
sequence,flow.Sequence,10_1,2023-11-29T19:40:04.678Z,,,,,,,,,,,1486.3400000476977,completion,,,,,,,high,high,,,,,,,false,,,,,false,338824.40000009537,338823.7000000477,337320.789,337516.59999990463,337337.36,338673.227,5,600,,
trial,html.Screen,10_2_0,2023-11-29T19:40:06.036Z,,,,1,0.0119001144851157,-0.0063430114540141,,0.04,false,hl,1508.173000095354,response,0.8828738626295417,1.1499999999999997,-1.121420561079304,-0.8288177599439582,1.1449999999999998,-1.1499999999999997,high,low,,ISIC_0003822.JPG,9,ISIC_0056041.JPG,28,26,false,0.40000000000000024,ll,keypress(f),0,false,340181.7000000477,340181.40000009537,338623.143,338824.7000000477,338673.227,340009.134,5,600,3,
break,html.Screen,10_2_1,2023-11-29T19:40:06.037Z,,,,,,,,,,,NaN,,,,,,,,high,low,,,,,,,false,,,,,false,340183.09999990463,340182.7000000477,,340182.2000000477,,340009.134,5,600,,
break_continue,html.Screen,10_2_2,2023-11-29T19:40:06.038Z,,,,,,,,,,,NaN,,,,,,,,high,low,,,,,,,false,,,,,false,340184,340183.5,,340183.2000000477,,340009.134,5,600,,
sequence,flow.Sequence,10_2,2023-11-29T19:40:06.038Z,,,,,,,,,,,1510.2729999999865,completion,,,,,,,high,low,,,,,,,false,,,,,false,340184.2999999523,340183.5,338623.143,338824.59999990463,338673.227,340009.134,5,600,,
trial,html.Screen,10_3_0,2023-11-29T19:40:07.972Z,,,,1,0.0283578106329894,-0.0088840758711548,,0.04,true,lh,2108.4659999046125,response,-0.9244148283103414,1.1499999999999997,-1.121420561079304,0.9712966348713286,1.1449999999999998,-1.1499999999999997,low,high,,ISIC_0060707.JPG,9,ISIC_7927525.JPG,28,27,false,0.3400000000000002,lh,keypress(e),0,false,342118,342117.59999990463,339976,340184.5,340009.134,341946.262,5,600,4,
break,html.Screen,10_3_1,2023-11-29T19:40:07.973Z,,,,,,,,,,,NaN,,,,,,,,low,high,,,,,,,false,,,,,false,342119.2999999523,342118.90000009537,,342118.40000009537,,341946.262,5,600,,
break_continue,html.Screen,10_3_2,2023-11-29T19:40:07.974Z,,,,,,,,,,,NaN,,,,,,,,low,high,,,,,,,false,,,,,false,342120.09999990463,342119.7000000477,,342119.40000009537,,341946.262,5,600,,
sequence,flow.Sequence,10_3,2023-11-29T19:40:07.974Z,,,,,,,,,,,2110.5660000476637,completion,,,,,,,low,high,,,,,,,false,,,,,false,342120.5,342119.7000000477,339976,340184.5,340009.134,341946.262,5,600,,
trial,html.Screen,10_4_0,2023-11-29T19:40:09.500Z,,,,1,0.0009714874637896,-0.0174815595031679,,0.04,true,lh,1699.238000000012,response,-1.0116417541846066,1.1499999999999997,-1.121420561079304,1.033442916947398,1.1449999999999998,-1.1499999999999997,low,high,,ISIC_9848743.JPG,9,ISIC_0031389.JPG,28,27,false,0.3400000000000002,lh,keypress(e),0,false,343645.7999999523,343645.5,341912.929,342120.59999990463,341946.262,343466.062,5,600,5,
break,html.Screen,10_4_1,2023-11-29T19:40:09.501Z,,,,,,,,,,,NaN,,,,,,,,low,high,,,,,,,false,,,,,false,343646.90000009537,343646.7000000477,,343646.09999990463,,343466.062,5,600,,
break_continue,html.Screen,10_4_2,2023-11-29T19:40:09.502Z,,,,,,,,,,,NaN,,,,,,,,low,high,,,,,,,false,,,,,false,343647.90000009537,343647.40000009537,,343647.2000000477,,343466.062,5,600,,
sequence,flow.Sequence,10_4,2023-11-29T19:40:09.502Z,,,,,,,,,,,1701.1380000953795,completion,,,,,,,low,high,,,,,,,false,,,,,false,343648.2000000477,343647.40000009537,341912.929,342120.59999990463,341946.262,343466.062,5,600,,
trial,html.Screen,10_5_0,2023-11-29T19:40:10.852Z,,,,1,0.0200295718112167,0.0155559071275806,,0.04,false,ll,1531.4380000000237,response,-1.2194553326562725,1.1499999999999997,-1.121420561079304,-1.2381726989215684,1.1449999999999998,-1.1499999999999997,low,low,,ISIC_0061343.JPG,9,ISIC_0068975.JPG,28,30,false,0.1,hh,keypress(i),0,false,344997.7000000477,344997.5,343449.37,343648.40000009537,343466.062,344818.499,5,600,6,
break,html.Screen,10_5_1,2023-11-29T19:40:10.853Z,,,,,,,,,,,NaN,,,,,,,,low,low,,,,,,,false,,,,,false,344999,344998.59999990463,,344998.09999990463,,344818.499,5,600,,
break_continue,html.Screen,10_5_2,2023-11-29T19:40:10.854Z,,,,,,,,,,,NaN,,,,,,,,low,low,,,,,,,false,,,,,false,344999.7999999523,344999.5,,344999.09999990463,,344818.499,5,600,,
sequence,flow.Sequence,10_5,2023-11-29T19:40:10.854Z,,,,,,,,,,,1533.4380000000237,completion,,,,,,,low,low,,,,,,,false,,,,,false,345000.2000000477,344999.5,343449.37,343648.2999999523,343466.062,344818.499,5,600,,
trial,html.Screen,10_6_0,2023-11-29T19:40:12.524Z,,,,1,-0.0109416414475118,-0.005246498750811,,0.04,false,hh,1851.201000047673,response,1.1055382068806878,1.1499999999999997,-1.121420561079304,1.0166010471189206,1.1449999999999998,-1.1499999999999997,high,high,,ISIC_0064279.JPG,9,ISIC_5420979.JPG,28,28,false,0.14,hl,keypress(j),0,false,346670,346669.7000000477,344801.998,345000.40000009537,344818.499,346488.455,5,600,7,
break,html.Screen,10_6_1,2023-11-29T19:40:12.525Z,,,,,,,,,,,NaN,,,,,,,,high,high,,,,,,,false,,,,,false,346671.2999999523,346670.90000009537,,346670.5,,346488.455,5,600,,
break_continue,html.Screen,10_6_2,2023-11-29T19:40:12.526Z,,,,,,,,,,,NaN,,,,,,,,high,high,,,,,,,false,,,,,false,346672.2000000477,346671.7999999523,,346671.5,,346488.455,5,600,,
sequence,flow.Sequence,10_6,2023-11-29T19:40:12.526Z,,,,,,,,,,,1853.3009999523056,completion,,,,,,,high,high,,,,,,,false,,,,,false,346672.5,346671.7999999523,344801.998,345000.2999999523,344818.499,346488.455,5,600,,
trial,html.Screen,10_7_0,2023-11-29T19:40:13.956Z,,,,1,0.0308384937406319,-0.0038396364323947,,0.04,true,ll,1613.8449999523,response,-1.2033647433750492,1.1499999999999997,-1.121420561079304,-1.0718012192341555,1.1449999999999998,-1.1499999999999997,low,low,,ISIC_0029825.JPG,9,ISIC_0061606.JPG,28,30,false,0.1,ll,keypress(f),0,false,348102.59999990463,348102.2999999523,346471.925,346672.7000000477,346488.455,347924.741,5,600,8,
break,html.Screen,10_7_1,2023-11-29T19:40:13.958Z,,,,,,,,,,,NaN,,,,,,,,low,low,,,,,,,false,,,,,false,348103.7999999523,348103.5,,348103,,347924.741,5,600,,
break_continue,html.Screen,10_7_2,2023-11-29T19:40:13.959Z,,,,,,,,,,,NaN,,,,,,,,low,low,,,,,,,false,,,,,false,348104.7999999523,348104.2999999523,,348104,,347924.741,5,600,,
sequence,flow.Sequence,10_7,2023-11-29T19:40:13.959Z,,,,,,,,,,,1615.8449999523,completion,,,,,,,low,low,,,,,,,false,,,,,false,348105.09999990463,348104.2999999523,346471.925,346672.7000000477,346488.455,347924.741,5,600,,
trial,html.Screen,10_8_0,2023-11-29T19:40:15.332Z,,,,1,0,-0.0102871556606504,,0.04,false,ll,1552.9590000477037,response,-1.1048559518249943,1.1499999999999997,-1.121420561079304,-1.2252457981338687,1.1449999999999998,-1.1499999999999997,low,low,,ISIC_1805163.JPG,8,ISIC_0060817.JPG,28,30,false,0.1,hh,keypress(i),0,false,349478,349477.7000000477,347908.077,348105.2999999523,347924.741,349310.595,5,600,9,
break,html.Screen,10_8_1,2023-11-29T19:40:15.333Z,,,,,,,,,,,NaN,,,,,,,,low,low,,,,,,,false,,,,,false,349479.40000009537,349478.90000009537,,349478.5,,349310.595,5,600,,
break_continue,html.Screen,10_8_2,2023-11-29T19:40:15.334Z,,,,,,,,,,,NaN,,,,,,,,low,low,,,,,,,false,,,,,false,349480.40000009537,349480,,349479.7000000477,,349310.595,5,600,,
sequence,flow.Sequence,10_8,2023-11-29T19:40:15.335Z,,,,,,,,,,,1555.25900000002,completion,,,,,,,low,low,,,,,,,false,,,,,false,349480.7999999523,349480,347908.077,348105.2999999523,347924.741,349310.595,5,600,,
trial,html.Screen,10_9_0,2023-11-29T19:40:17.124Z,,,,1,-0.0199950873045219,-0.0172506388509166,,0.04,false,lh,1958.8050000953954,response,-0.8500530224490773,1.1499999999999997,-1.121420561079304,1.0893360711742854,1.1449999999999998,-1.1499999999999997,low,high,,ISIC_0029906.JPG,8,ISIC_2998367.JPG,28,27,false,0.3400000000000002,hh,keypress(i),0,false,351269.90000009537,351269.40000009537,349277.428,349481,349310.595,351080.802,5,600,10,
break,html.Screen,10_9_1,2023-11-29T19:40:17.125Z,,,,,,,,,,,NaN,,,,,,,,low,high,,,,,,,false,,,,,false,351271.09999990463,351270.7000000477,,351270.2000000477,,351080.802,5,600,,
break_continue,html.Screen,10_9_2,2023-11-29T19:40:17.126Z,,,,,,,,,,,NaN,,,,,,,,low,high,,,,,,,false,,,,,false,351272.09999990463,351271.7000000477,,351271.2999999523,,351080.802,5,600,,
sequence,flow.Sequence,10_9,2023-11-29T19:40:17.126Z,,,,,,,,,,,1961.1050000477117,completion,,,,,,,low,high,,,,,,,false,,,,,false,351272.40000009537,351271.7000000477,349277.428,349480.90000009537,349310.595,351080.802,5,600,,
trial,html.Screen,10_10_0,2023-11-29T19:40:19.196Z,,,,1,0.0367744112927588,0.0324865661712824,,0.04,false,hh,2260.7979999046074,response,1.0107375180488247,1.1499999999999997,-1.121420561079304,1.2079382542709534,1.1449999999999998,-1.1499999999999997,high,high,,ISIC_4523565.JPG,10,ISIC_0025602.JPG,28,28,false,0.14,lh,keypress(e),0,false,353341.90000009537,353341.59999990463,351064.21,351272.59999990463,351080.802,353151.451,5,600,11,
break,html.Screen,10_10_1,2023-11-29T19:40:19.197Z,,,,,,,,,,,NaN,,,,,,,,high,high,,,,,,,false,,,,,false,353343.09999990463,353342.7999999523,,353342.2999999523,,353151.451,5,600,,
break_continue,html.Screen,10_10_2,2023-11-29T19:40:19.198Z,,,,,,,,,,,NaN,,,,,,,,high,high,,,,,,,false,,,,,false,353344.09999990463,353343.7000000477,,353343.2999999523,,353151.451,5,600,,
sequence,flow.Sequence,10_10,2023-11-29T19:40:19.198Z,,,,,,,,,,,2262.8980000476586,completion,,,,,,,high,high,,,,,,,false,,,,,false,353344.40000009537,353343.7000000477,351064.21,351272.59999990463,351080.802,353151.451,5,600,,
trial,html.Screen,10_11_0,2023-11-29T19:40:20.722Z,,,,1,-0.0065172941585523,0.0118857043117315,,0.04,false,hh,1717.048999999999,response,1.109799097093339,1.1499999999999997,-1.121420561079304,1.091507924157762,1.1449999999999998,-1.1499999999999997,high,high,,ISIC_6119202.JPG,9,ISIC_0765584.JPG,28,28,false,0.14,hl,keypress(j),0,false,354868.59999990463,354868.5,353134.988,353344.59999990463,353151.451,354687.712,5,600,12,
break,html.Screen,10_11_1,2023-11-29T19:40:20.723Z,,,,,,,,,,,NaN,,,,,,,,high,high,,,,,,,false,,,,,false,354869,354868.90000009537,,354868.7000000477,,354687.712,5,600,,
break_continue,html.Screen,10_11_2,2023-11-29T19:40:20.723Z,,,,,,,,,,,NaN,,,,,,,,high,high,,,,,,,false,,,,,false,354869.2999999523,354869.2000000477,,354869.09999990463,,354687.712,5,600,,
sequence,flow.Sequence,10_11,2023-11-29T19:40:20.723Z,,,,,,,,,,,1717.7490000476828,completion,,,,,,,high,high,,,,,,,false,,,,,false,354869.40000009537,354869.2000000477,353134.988,353344.59999990463,353151.451,354687.712,5,600,,
trial,html.Screen,10_12_0,2023-11-29T19:40:22.141Z,,,,1,0.0367706518941078,-0.0161069838272154,,0.04,false,lh,1597.9880000476842,response,-0.8350129142228142,1.1499999999999997,-1.121420561079304,0.8172547818270586,1.1449999999999998,-1.1499999999999997,low,high,,ISIC_0033419.JPG,11,ISIC_0301568.JPG,28,27,false,0.3400000000000002,hh,keypress(i),0,false,356286,356285.7000000477,354671.12,354869.5,354687.712,356107.169,5,600,13,
break,html.Screen,10_12_1,2023-11-29T19:40:22.142Z,,,,,,,,,,,NaN,,,,,,,,low,high,,,,,,,false,,,,,false,356287.40000009537,356287.09999990463,,356286.5,,356107.169,5,600,,
break_continue,html.Screen,10_12_2,2023-11-29T19:40:22.143Z,,,,,,,,,,,NaN,,,,,,,,low,high,,,,,,,false,,,,,false,356288.40000009537,356287.90000009537,,356287.59999990463,,356107.169,5,600,,
sequence,flow.Sequence,10_12,2023-11-29T19:40:22.143Z,,,,,,,,,,,1600.188000095368,completion,,,,,,,low,high,,,,,,,false,,,,,false,356288.7000000477,356287.90000009537,354671.12,354869.40000009537,354687.712,356107.169,5,600,,
trial,html.Screen,10_13_0,2023-11-29T19:40:23.852Z,,,,1,-0.0065172941585523,0.0118857043117315,,0.04,false,lh,1890.4309999046382,response,-1.2020012168275056,1.1499999999999997,-1.121420561079304,0.923753102263735,1.1449999999999998,-1.1499999999999997,low,high,,ISIC_6119202.JPG,9,ISIC_0000022.JPG,28,27,false,0.3400000000000002,hh,keypress(i),0,false,357997.90000009537,357997.59999990463,356090.564,356288.90000009537,356107.169,357827.149,5,600,14,
break,html.Screen,10_13_1,2023-11-29T19:40:23.854Z,,,,,,,,,,,NaN,,,,,,,,low,high,,,,,,,false,,,,,false,357999.09999990463,357998.7999999523,,357998.2999999523,,357827.149,5,600,,
break_continue,html.Screen,10_13_2,2023-11-29T19:40:23.855Z,,,,,,,,,,,NaN,,,,,,,,low,high,,,,,,,false,,,,,false,358000,357999.59999990463,,357999.40000009537,,357827.149,5,600,,
sequence,flow.Sequence,10_13,2023-11-29T19:40:23.855Z,,,,,,,,,,,1892.4309999046382,completion,,,,,,,low,high,,,,,,,false,,,,,false,358000.2999999523,357999.59999990463,356090.564,356288.7999999523,356107.169,357827.149,5,600,,
trial,html.Screen,10_14_0,2023-11-29T19:40:27.324Z,,,,1,0.0286056110007553,0.036125199756515,,0.04,false,hl,3642.351000000024,response,0.989300717252516,1.1499999999999997,-1.121420561079304,-0.7908280206937478,1.1449999999999998,-1.1499999999999997,high,low,,ISIC_6535558.JPG,10,ISIC_6416533.JPG,28,26,false,0.40000000000000024,ll,keypress(f),0,false,361469.7999999523,361469.5,357793.827,358000.59999990463,357827.149,361300.6,5,600,15,
break,html.Screen,10_14_1,2023-11-29T19:40:27.325Z,,,,,,,,,,,NaN,,,,,,,,high,low,,,,,,,false,,,,,false,361471,361470.7999999523,,361470.2999999523,,361300.6,5,600,,
break_continue,html.Screen,10_14_2,2023-11-29T19:40:27.326Z,,,,,,,,,,,NaN,,,,,,,,high,low,,,,,,,false,,,,,false,361471.90000009537,361471.40000009537,,361471.09999990463,,361300.6,5,600,,
sequence,flow.Sequence,10_14,2023-11-29T19:40:27.327Z,,,,,,,,,,,3644.2510000953916,completion,,,,,,,high,low,,,,,,,false,,,,,false,361472.09999990463,361471.40000009537,357793.827,358000.5,357827.149,361300.6,5,600,,
trial,html.Screen,10_15_0,2023-11-29T19:40:29.036Z,,,,1,0.0367706518941078,-0.0161069838272154,,0.04,false,hl,1880.8000000953907,response,1.075512775389519,1.1499999999999997,-1.121420561079304,-1.0454702683049502,1.1449999999999998,-1.1499999999999997,high,low,,ISIC_0033419.JPG,9,ISIC_0033603.JPG,28,26,false,0.40000000000000024,lh,keypress(e),0,false,363181.7000000477,363181.40000009537,361267.373,361472.2999999523,361300.6,363004.104,5,600,16,
break,html.Screen,10_15_1,2023-11-29T19:40:29.037Z,,,,,,,,,,,NaN,,,,,,,,high,low,,,,,,,false,,,,,false,363182.90000009537,363182.59999990463,,363182.09999990463,,363004.104,5,600,,
break_continue,html.Screen,10_15_2,2023-11-29T19:40:29.038Z,,,,,,,,,,,NaN,,,,,,,,high,low,,,,,,,false,,,,,false,363183.7999999523,363183.40000009537,,363183.09999990463,,363004.104,5,600,,
sequence,flow.Sequence,10_15,2023-11-29T19:40:29.039Z,,,,,,,,,,,1882.8000000953907,completion,,,,,,,high,low,,,,,,,false,,,,,false,363184.09999990463,363183.40000009537,361267.373,361472.2999999523,361300.6,363004.104,5,600,,
trial,html.Screen,10_16_0,2023-11-29T19:40:31.636Z,,,,1,0,-0.0102871556606504,,0.04,true,hh,2777.4959999046405,response,1.0107375180488247,1.1499999999999997,-1.121420561079304,1.2079382542709534,1.1449999999999998,-1.1499999999999997,high,high,,ISIC_1805163.JPG,9,ISIC_0025602.JPG,28,28,false,0.14,hh,keypress(i),0,false,365781.90000009537,365781.59999990463,362987.385,363184.40000009537,363004.104,365592.378,5,600,17,
break,html.Screen,10_16_1,2023-11-29T19:40:31.638Z,,,,,,,,,,,NaN,,,,,,,,high,high,,,,,,,false,,,,,false,365783.09999990463,365782.7999999523,,365782.2999999523,,365592.378,5,600,,
break_continue,html.Screen,10_16_2,2023-11-29T19:40:31.639Z,,,,,,,,,,,NaN,,,,,,,,high,high,,,,,,,false,,,,,false,365784.09999990463,365783.7000000477,,365783.40000009537,,365592.378,5,600,,
sequence,flow.Sequence,10_16,2023-11-29T19:40:31.639Z,,,,,,,,,,,2779.5960000476916,completion,,,,,,,high,high,,,,,,,false,,,,,false,365784.40000009537,365783.7000000477,362987.385,363184.2999999523,363004.104,365592.378,5,600,,
trial,html.Screen,10_17_0,2023-11-29T19:40:34.691Z,,,,1,0.0118382036798625,0.0300588245877227,,0.04,false,hh,3244.0220000953414,response,1.033832433609739,1.1499999999999997,-1.121420561079304,1.139863018685685,1.1449999999999998,-1.1499999999999997,high,high,,ISIC_4748605.JPG,8,ISIC_0008510.JPG,28,28,false,0.14,lh,keypress(e),0,false,368836.5,368836.40000009537,365575.87,365784.59999990463,365592.378,368664.938,5,600,18,
break,html.Screen,10_17_1,2023-11-29T19:40:34.691Z,,,,,,,,,,,NaN,,,,,,,,high,high,,,,,,,false,,,,,false,368836.7999999523,368836.7000000477,,368836.5,,368664.938,5,600,,
break_continue,html.Screen,10_17_2,2023-11-29T19:40:34.691Z,,,,,,,,,,,NaN,,,,,,,,high,high,,,,,,,false,,,,,false,368837,368836.90000009537,,368836.90000009537,,368664.938,5,600,,
sequence,flow.Sequence,10_17,2023-11-29T19:40:34.692Z,,,,,,,,,,,3244.5220000953414,completion,,,,,,,high,high,,,,,,,false,,,,,false,368837.09999990463,368836.90000009537,365575.87,365784.59999990463,365592.378,368664.938,5,600,,
trial,html.Screen,10_18_0,2023-11-29T19:40:38.109Z,,,,1,0.0367744112927588,0.0324865661712824,,0.04,true,hl,3588.76200004766,response,0.9653573371180936,1.1499999999999997,-1.121420561079304,-0.854766800381037,1.1449999999999998,-1.1499999999999997,high,low,,ISIC_4523565.JPG,10,ISIC_9640145.JPG,28,26,false,0.40000000000000024,hl,keypress(j),0,false,372254,372253.7000000477,368631.806,368837.09999990463,368664.938,372071.564,5,600,19,
break,html.Screen,10_18_1,2023-11-29T19:40:38.110Z,,,,,,,,,,,NaN,,,,,,,,high,low,,,,,,,false,,,,,false,372255.2999999523,372255.09999990463,,372254.5,,372071.564,5,600,,
break_continue,html.Screen,10_18_2,2023-11-29T19:40:38.111Z,,,,,,,,,,,NaN,,,,,,,,high,low,,,,,,,false,,,,,false,372256.2999999523,372255.7999999523,,372255.5,,372071.564,5,600,,
sequence,flow.Sequence,10_18,2023-11-29T19:40:38.111Z,,,,,,,,,,,3590.8619999522925,completion,,,,,,,high,low,,,,,,,false,,,,,false,372256.59999990463,372255.7999999523,368631.806,368837.09999990463,368664.938,372071.564,5,600,,
trial,html.Screen,10_19_0,2023-11-29T19:40:40.668Z,,,,1,-0.0164027439304477,0.0082910758715273,,0.04,false,hh,2741.935999999987,response,1.2541318165695772,1.1499999999999997,-1.121420561079304,1.085289936617366,1.1449999999999998,-1.1499999999999997,high,high,,ISIC_7381224.JPG,9,ISIC_4277207.JPG,28,28,false,0.14,lh,keypress(e),0,false,374813.90000009537,374813.5,372055.126,372256.90000009537,372071.564,374626.547,5,600,20,
break,html.Screen,10_19_1,2023-11-29T19:40:40.670Z,,,,,,,,,,,NaN,,,,,,,,high,high,,,,,,,false,,,,,false,374815.2000000477,374814.90000009537,,374814.2999999523,,374626.547,5,600,,
break_continue,html.Screen,10_19_2,2023-11-29T19:40:40.671Z,,,,,,,,,,,NaN,,,,,,,,high,high,,,,,,,false,,,,,false,374816.09999990463,374815.7000000477,,374815.40000009537,,374626.547,5,600,,
sequence,flow.Sequence,10_19,2023-11-29T19:40:40.671Z,,,,,,,,,,,2744.1360000476707,completion,,,,,,,high,high,,,,,,,false,,,,,false,374816.40000009537,374815.7000000477,372055.126,372256.7999999523,372071.564,374626.547,5,600,,
trial,html.Screen,10_20_0,2023-11-29T19:40:42.396Z,,,,1,0.0200295718112167,0.0155559071275806,,0.04,true,hh,1915.052999904612,response,1.109799097093339,1.1499999999999997,-1.121420561079304,1.091507924157762,1.1449999999999998,-1.1499999999999997,high,high,,ISIC_0061343.JPG,9,ISIC_0765584.JPG,28,28,false,0.14,hh,keypress(i),0,false,376542,376541.59999990463,374610.075,374816.7000000477,374626.547,376363.519,5,600,21,
break,html.Screen,10_20_1,2023-11-29T19:40:42.398Z,,,,,,,,,,,NaN,,,,,,,,high,high,,,,,,,false,,,,,false,376543.2000000477,376542.90000009537,,376542.40000009537,,376363.519,5,600,,
break_continue,html.Screen,10_20_2,2023-11-29T19:40:42.399Z,,,,,,,,,,,NaN,,,,,,,,high,high,,,,,,,false,,,,,false,376544.09999990463,376543.7000000477,,376543.40000009537,,376363.519,5,600,,
sequence,flow.Sequence,10_20,2023-11-29T19:40:42.399Z,,,,,,,,,,,1917.1530000476632,completion,,,,,,,high,high,,,,,,,false,,,,,false,376544.40000009537,376543.7000000477,374610.075,374816.59999990463,374626.547,376363.519,5,600,,
trial,html.Screen,10_21_0,2023-11-29T19:40:43.820Z,,,,1,-0.039520186367207,-0.0377961575607372,,0.04,true,ll,1601.8810000953963,response,-1.1195710731537871,1.1499999999999997,-1.121420561079304,-1.1961732733209125,1.1449999999999998,-1.1499999999999997,low,low,,ISIC_6356149.JPG,9,ISIC_0067170.JPG,28,30,false,0.1,ll,keypress(f),0,false,377965.7000000477,377965.40000009537,376346.845,376544.7000000477,376363.519,377799.389,5,600,22,
break,html.Screen,10_21_1,2023-11-29T19:40:43.821Z,,,,,,,,,,,NaN,,,,,,,,low,low,,,,,,,false,,,,,false,377966.90000009537,377966.59999990463,,377966.2000000477,,377799.389,5,600,,
break_continue,html.Screen,10_21_2,2023-11-29T19:40:43.822Z,,,,,,,,,,,NaN,,,,,,,,low,low,,,,,,,false,,,,,false,377967.7999999523,377967.40000009537,,377967.2000000477,,377799.389,5,600,,
sequence,flow.Sequence,10_21,2023-11-29T19:40:43.823Z,,,,,,,,,,,1603.8810000953963,completion,,,,,,,low,low,,,,,,,false,,,,,false,377968.2000000477,377967.40000009537,376346.845,376544.59999990463,376363.519,377799.389,5,600,,
trial,html.Screen,10_22_0,2023-11-29T19:40:45.492Z,,,,1,0.0258224118104549,-0.0029364553353019,,0.04,true,hl,1838.1109999999753,response,1.2578167348825195,1.1499999999999997,-1.121420561079304,-0.8371819698254004,1.1449999999999998,-1.1499999999999997,high,low,,ISIC_8325226.JPG,9,ISIC_9613570.JPG,28,26,false,0.40000000000000024,hl,keypress(j),0,false,379637.7999999523,379637.5,377766.085,377968.40000009537,377799.389,379469.275,5,600,23,
break,html.Screen,10_22_1,2023-11-29T19:40:45.494Z,,,,,,,,,,,NaN,,,,,,,,high,low,,,,,,,false,,,,,false,379639.09999990463,379638.7000000477,,379638.2000000477,,379469.275,5,600,,
break_continue,html.Screen,10_22_2,2023-11-29T19:40:45.494Z,,,,,,,,,,,NaN,,,,,,,,high,low,,,,,,,false,,,,,false,379639.90000009537,379639.59999990463,,379639.2999999523,,379469.275,5,600,,
sequence,flow.Sequence,10_22,2023-11-29T19:40:45.495Z,,,,,,,,,,,1840.210999904608,completion,,,,,,,high,low,,,,,,,false,,,,,false,379640.2999999523,379639.59999990463,377766.085,377968.40000009537,377799.389,379469.275,5,600,,
trial,html.Screen,10_23_0,2023-11-29T19:40:46.820Z,,,,1,0.0220026381002083,-0.0170756452911772,,0.04,false,hl,1496.3249999046093,response,0.9653573371180936,1.1499999999999997,-1.121420561079304,-0.854766800381037,1.1449999999999998,-1.1499999999999997,high,low,,ISIC_5347806.JPG,9,ISIC_9640145.JPG,28,26,false,0.40000000000000024,lh,keypress(e),0,false,380965.90000009537,380965.59999990463,379436.136,379640.5,379469.275,380788.661,5,600,24,
break,html.Screen,10_23_1,2023-11-29T19:40:46.822Z,,,,,,,,,,,NaN,,,,,,,,high,low,,,,,,,false,,,,,false,380967.2999999523,380967,,380966.40000009537,,380788.661,5,600,,
break_continue,html.Screen,10_23_2,2023-11-29T19:40:46.823Z,,,,,,,,,,,NaN,,,,,,,,high,low,,,,,,,false,,,,,false,380968.2000000477,380967.7999999523,,380967.59999990463,,380788.661,5,600,,
sequence,flow.Sequence,10_23,2023-11-29T19:40:46.823Z,,,,,,,,,,,1498.524999952293,completion,,,,,,,high,low,,,,,,,false,,,,,false,380968.59999990463,380967.7999999523,379436.136,379640.40000009537,379469.275,380788.661,5,600,,
trial,html.Screen,10_24_0,2023-11-29T19:40:48.133Z,,,,1,0.0200295718112167,0.0155559071275806,,0.04,false,ll,1489.2390000953455,response,-1.082709423673037,1.1499999999999997,-1.121420561079304,-1.1184338818466155,1.1449999999999998,-1.1499999999999997,low,low,,ISIC_0061343.JPG,9,ISIC_0058666.JPG,28,30,false,0.1,lh,keypress(e),0,false,382278.2000000477,382277.90000009537,380772.092,380968.7999999523,380788.661,382107.769,5,600,25,
break,html.Screen,10_24_1,2023-11-29T19:40:48.134Z,,,,,,,,,,,NaN,,,,,,,,low,low,,,,,,,false,,,,,false,382279.5,382279.2000000477,,382278.59999990463,,382107.769,5,600,,
break_continue,html.Screen,10_24_2,2023-11-29T19:40:48.135Z,,,,,,,,,,,NaN,,,,,,,,low,low,,,,,,,false,,,,,false,382280.40000009537,382280,,382279.7000000477,,382107.769,5,600,,
sequence,flow.Sequence,10_24,2023-11-29T19:40:48.135Z,,,,,,,,,,,1491.3389999999781,completion,,,,,,,low,low,,,,,,,false,,,,,false,382280.7000000477,382280,380772.092,380968.7999999523,380788.661,382107.769,5,600,,
trial,html.Screen,10_25_0,2023-11-29T19:40:49.436Z,,,,1,0.0308384937406319,-0.0038396364323947,,0.04,false,hl,1473.9310000477126,response,1.3046390428588206,1.1499999999999997,-1.121420561079304,-0.7942099232219556,1.1449999999999998,-1.1499999999999997,high,low,,ISIC_0029825.JPG,9,ISIC_0013096.JPG,28,26,false,0.40000000000000024,hh,keypress(i),0,false,383582,383581.7000000477,382074.59,382281,382107.769,383393.619,5,600,26,
break,html.Screen,10_25_1,2023-11-29T19:40:49.438Z,,,,,,,,,,,NaN,,,,,,,,high,low,,,,,,,false,,,,,false,383583.2999999523,383583,,383582.5,,383393.619,5,600,,
break_continue,html.Screen,10_25_2,2023-11-29T19:40:49.439Z,,,,,,,,,,,NaN,,,,,,,,high,low,,,,,,,false,,,,,false,383584.2000000477,383583.7999999523,,383583.59999990463,,383393.619,5,600,,
sequence,flow.Sequence,10_25,2023-11-29T19:40:49.439Z,,,,,,,,,,,1476.0309999523452,completion,,,,,,,high,low,,,,,,,false,,,,,false,383584.5,383583.7999999523,382074.59,382280.90000009537,382107.769,383393.619,5,600,,
trial,html.Screen,10_26_0,2023-11-29T19:40:50.660Z,,,,1,-0.039520186367207,-0.0377961575607372,,0.04,false,ll,1411.9809999046265,response,-1.0865209011322887,1.1499999999999997,-1.121420561079304,-1.1401461171952545,1.1449999999999998,-1.1499999999999997,low,low,,ISIC_6356149.JPG,8,ISIC_0016145.JPG,28,30,false,0.1,hl,keypress(j),0,false,384805.90000009537,384805.59999990463,383377.138,383584.7999999523,383393.619,384629.351,5,600,27,
break,html.Screen,10_26_1,2023-11-29T19:40:50.662Z,,,,,,,,,,,NaN,,,,,,,,low,low,,,,,,,false,,,,,false,384807.09999990463,384806.7999999523,,384806.2999999523,,384629.351,5,600,,
break_continue,html.Screen,10_26_2,2023-11-29T19:40:50.663Z,,,,,,,,,,,NaN,,,,,,,,low,low,,,,,,,false,,,,,false,384808.09999990463,384807.59999990463,,384807.40000009537,,384629.351,5,600,,
sequence,flow.Sequence,10_26,2023-11-29T19:40:50.663Z,,,,,,,,,,,1413.9809999046265,completion,,,,,,,low,low,,,,,,,false,,,,,false,384808.40000009537,384807.59999990463,383377.138,383584.7000000477,383393.619,384629.351,5,600,,
trial,html.Screen,10_27_0,2023-11-29T19:40:51.716Z,,,,1,0.0118382036798625,0.0300588245877227,,0.04,true,lh,1232.0490000953432,response,-1.2646773654288392,1.1499999999999997,-1.121420561079304,0.952963803634235,1.1449999999999998,-1.1499999999999997,low,high,,ISIC_4748605.JPG,9,ISIC_1996356.JPG,28,27,false,0.3400000000000002,lh,keypress(e),0,false,385861.7999999523,385861.40000009537,384612.905,384808.59999990463,384629.351,385698.233,5,600,28,
break,html.Screen,10_27_1,2023-11-29T19:40:51.718Z,,,,,,,,,,,NaN,,,,,,,,low,high,,,,,,,false,,,,,false,385863,385862.7999999523,,385862.2000000477,,385698.233,5,600,,
break_continue,html.Screen,10_27_2,2023-11-29T19:40:51.718Z,,,,,,,,,,,NaN,,,,,,,,low,high,,,,,,,false,,,,,false,385863.7999999523,385863.59999990463,,385863.2000000477,,385698.233,5,600,,
sequence,flow.Sequence,10_27,2023-11-29T19:40:51.718Z,,,,,,,,,,,1234.2489999046084,completion,,,,,,,low,high,,,,,,,false,,,,,false,385863.90000009537,385863.59999990463,384612.905,384808.5,384629.351,385698.233,5,600,,
trial,html.Screen,10_28_0,2023-11-29T19:40:54.997Z,,,,1,0.0044063257337227,0.0172548282859886,,0.04,true,ll,3443.566999952309,response,-1.2194553326562725,1.1499999999999997,-1.121420561079304,-1.2381726989215684,1.1449999999999998,-1.1499999999999997,low,low,,ISIC_7413786.JPG,9,ISIC_0068975.JPG,28,30,false,0.1,ll,keypress(f),0,false,389142.09999990463,389141.7999999523,385681.648,385863.90000009537,385698.233,388971.146,5,600,29,
break,html.Screen,10_28_1,2023-11-29T19:40:54.998Z,,,,,,,,,,,NaN,,,,,,,,low,low,,,,,,,false,,,,,false,389143.40000009537,389143,,389142.59999990463,,388971.146,5,600,,
break_continue,html.Screen,10_28_2,2023-11-29T19:40:54.999Z,,,,,,,,,,,NaN,,,,,,,,low,low,,,,,,,false,,,,,false,389144.2000000477,389143.90000009537,,389143.59999990463,,388971.146,5,600,,
sequence,flow.Sequence,10_28,2023-11-29T19:40:54.999Z,,,,,,,,,,,3445.66700009536,completion,,,,,,,low,low,,,,,,,false,,,,,false,389144.59999990463,389143.90000009537,385681.648,385863.90000009537,385698.233,388971.146,5,600,,
trial,html.Screen,10_29_0,2023-11-29T19:40:59.309Z,,,,1,0.0220026381002083,-0.0170756452911772,,0.04,false,hl,4482.653999952308,response,0.8110121381849364,1.1499999999999997,-1.121420561079304,-0.7563142141851558,1.1449999999999998,-1.1499999999999997,high,low,,ISIC_5347806.JPG,9,ISIC_0033605.JPG,28,26,false,0.40000000000000024,hh,keypress(i),0,false,393454.2000000477,393453.7999999523,388937.902,389144.7999999523,388971.146,393279.672,5,600,30,
break,html.Screen,10_29_1,2023-11-29T19:40:59.310Z,,,,,,,,,,,NaN,,,,,,,,high,low,,,,,,,false,,,,,false,393455.5,393455.09999990463,,393454.59999990463,,393279.672,5,600,,
break_continue,html.Screen,10_29_2,2023-11-29T19:40:59.311Z,,,,,,,,,,,NaN,,,,,,,,high,low,,,,,,,false,,,,,false,393456.2999999523,393455.90000009537,,393455.59999990463,,393279.672,5,600,,
sequence,flow.Sequence,10_29,2023-11-29T19:40:59.311Z,,,,,,,,,,,4484.7540000953595,completion,,,,,,,high,low,,,,,,,false,,,,,false,393456.59999990463,393455.90000009537,388937.902,389144.7999999523,388971.146,393279.672,5,600,,
trial,html.Screen,10_30_0,2023-11-29T19:41:01.428Z,,,,1,0.0257631352671967,0.0202837002774028,,0.04,false,hh,2293.627999952296,response,1.1409143352872226,1.1499999999999997,-1.121420561079304,1.1323007949069106,1.1449999999999998,-1.1499999999999997,high,high,,ISIC_0032797.JPG,8,ISIC_0030291.JPG,28,28,false,0.14,lh,keypress(e),0,false,395573.59999990463,395573.2999999523,393246.372,393456.90000009537,393279.672,395383.714,5,600,31,
break,html.Screen,10_30_1,2023-11-29T19:41:01.429Z,,,,,,,,,,,NaN,,,,,,,,high,high,,,,,,,false,,,,,false,395574.7999999523,395574.40000009537,,395573.90000009537,,395383.714,5,600,,
break_continue,html.Screen,10_30_2,2023-11-29T19:41:01.430Z,,,,,,,,,,,NaN,,,,,,,,high,high,,,,,,,false,,,,,false,395575.59999990463,395575.2000000477,,395574.90000009537,,395383.714,5,600,,
sequence,flow.Sequence,10_30,2023-11-29T19:41:01.430Z,,,,,,,,,,,2295.528000047663,completion,,,,,,,high,high,,,,,,,false,,,,,false,395575.90000009537,395575.2000000477,393246.372,393456.7999999523,393279.672,395383.714,5,600,,
trial,html.Screen,10_31_0,2023-11-29T19:41:04.188Z,,,,1,-0.0074667911845194,0.018500200317654,,0.04,false,hh,2949.786000000022,response,1.0122348575830964,1.1499999999999997,-1.121420561079304,1.007833368115011,1.1449999999999998,-1.1499999999999997,high,high,,ISIC_0058723.JPG,9,ISIC_8145260.JPG,28,28,false,0.14,hl,keypress(j),0,false,398333.7000000477,398333.5,395367.134,395576,395383.714,398155.767,5,600,32,
break,html.Screen,10_31_1,2023-11-29T19:41:04.189Z,,,,,,,,,,,NaN,,,,,,,,high,high,,,,,,,false,,,,,false,398335,398334.7000000477,,398334.2000000477,,398155.767,5,600,,
break_continue,html.Screen,10_31_2,2023-11-29T19:41:04.190Z,,,,,,,,,,,NaN,,,,,,,,high,high,,,,,,,false,,,,,false,398335.90000009537,398335.40000009537,,398335.2000000477,,398155.767,5,600,,
sequence,flow.Sequence,10_31,2023-11-29T19:41:04.191Z,,,,,,,,,,,2951.6860000953893,completion,,,,,,,high,high,,,,,,,false,,,,,false,398336.2000000477,398335.40000009537,395367.134,395576,395383.714,398155.767,5,600,,
trial,html.Screen,10_32_0,2023-11-29T19:41:09.085Z,,,,1,0.0257631352671967,0.0202837002774028,,0.04,false,ll,5073.933000047691,response,-1.082709423673037,1.1499999999999997,-1.121420561079304,-1.1184338818466155,1.1449999999999998,-1.1499999999999997,low,low,,ISIC_0032797.JPG,10,ISIC_0058666.JPG,28,30,false,0.1,hh,keypress(i),0,false,403230,403229.7000000477,398139.217,398336.5,398155.767,403048.525,5,600,33,
break,html.Screen,10_32_1,2023-11-29T19:41:09.086Z,,,,,,,,,,,NaN,,,,,,,,low,low,,,,,,,false,,,,,false,403231.2999999523,403231,,403230.5,,403048.525,5,600,,
break_continue,html.Screen,10_32_2,2023-11-29T19:41:09.087Z,,,,,,,,,,,NaN,,,,,,,,low,low,,,,,,,false,,,,,false,403232.2000000477,403231.7999999523,,403231.5,,403048.525,5,600,,
sequence,flow.Sequence,10_32,2023-11-29T19:41:09.087Z,,,,,,,,,,,5076.032999952324,completion,,,,,,,low,low,,,,,,,false,,,,,false,403232.5,403231.7999999523,398139.217,398336.40000009537,398155.767,403048.525,5,600,,
trial,html.Screen,10_33_0,2023-11-29T19:41:13.083Z,,,,1,-0.0074667911845194,0.018500200317654,,0.04,false,ll,4179.574999904609,response,-1.1243896694621007,1.1499999999999997,-1.121420561079304,-1.1772340944704969,1.1449999999999998,-1.1499999999999997,low,low,,ISIC_0058723.JPG,8,ISIC_0062765.JPG,28,30,false,0.1,hl,keypress(j),0,false,407228.09999990463,407228.09999990463,403032.088,403232.7999999523,403048.525,407039.622,5,600,34,
break,html.Screen,10_33_1,2023-11-29T19:41:13.083Z,,,,,,,,,,,NaN,,,,,,,,low,low,,,,,,,false,,,,,false,407228.5,407228.2999999523,,407228.2000000477,,407039.622,5,600,,
break_continue,html.Screen,10_33_2,2023-11-29T19:41:13.083Z,,,,,,,,,,,NaN,,,,,,,,low,low,,,,,,,false,,,,,false,407228.59999990463,407228.59999990463,,407228.5,,407039.622,5,600,,
sequence,flow.Sequence,10_33,2023-11-29T19:41:13.083Z,,,,,,,,,,,4180.074999904609,completion,,,,,,,low,low,,,,,,,false,,,,,false,407228.7999999523,407228.59999990463,403032.088,403232.7000000477,403048.525,407039.622,5,600,,
trial,html.Screen,10_34_0,2023-11-29T19:41:17.555Z,,,,1,0.0367744112927588,0.0324865661712824,,0.04,false,ll,4660.57800004771,response,-1.0865209011322887,1.1499999999999997,-1.121420561079304,-1.1401461171952545,1.1449999999999998,-1.1499999999999997,low,low,,ISIC_4523565.JPG,2,ISIC_0016145.JPG,28,30,false,0.1,lh,keypress(e),0,false,411700.40000009537,411700.2000000477,407023.161,407228.7999999523,407039.622,411514.981,5,600,35,
break,html.Screen,10_34_1,2023-11-29T19:41:17.555Z,,,,,,,,,,,NaN,,,,,,,,low,low,,,,,,,false,,,,,false,411701,411700.7999999523,,411700.5,,411514.981,5,600,,
break_continue,html.Screen,10_34_2,2023-11-29T19:41:17.556Z,,,,,,,,,,,NaN,,,,,,,,low,low,,,,,,,false,,,,,false,411701.2999999523,411701.09999990463,,411701,,411514.981,5,600,,
sequence,flow.Sequence,10_34,2023-11-29T19:41:17.556Z,,,,,,,,,,,4661.477999904659,completion,,,,,,,low,low,,,,,,,false,,,,,false,411701.2999999523,411701.09999990463,407023.161,407228.7999999523,407039.622,411514.981,5,600,,
trial,html.Screen,10_35_0,2023-11-29T19:41:19.453Z,,,,1,0.0286056110007553,0.036125199756515,,0.04,false,hh,2082.8189999522874,response,1.0257168197307909,1.1499999999999997,-1.121420561079304,1.0403166496930305,1.1449999999999998,-1.1499999999999997,high,high,,ISIC_6535558.JPG,10,ISIC_1690909.JPG,28,28,false,0.14,hl,keypress(j),0,false,413598.2000000477,413597.7999999523,411498.51,411701.40000009537,411514.981,413418.73,5,600,36,
break,html.Screen,10_35_1,2023-11-29T19:41:19.454Z,,,,,,,,,,,NaN,,,,,,,,high,high,,,,,,,false,,,,,false,413599.59999990463,413599.2000000477,,413598.59999990463,,413418.73,5,600,,
break_continue,html.Screen,10_35_2,2023-11-29T19:41:19.455Z,,,,,,,,,,,NaN,,,,,,,,high,high,,,,,,,false,,,,,false,413600.59999990463,413600.09999990463,,413599.7999999523,,413418.73,5,600,,
sequence,flow.Sequence,10_35,2023-11-29T19:41:19.455Z,,,,,,,,,,,2085.1189999046037,completion,,,,,,,high,high,,,,,,,false,,,,,false,413600.90000009537,413600.09999990463,411498.51,411701.2999999523,411514.981,413418.73,5,600,,
trial,html.Screen,10_36_0,2023-11-29T19:41:21.413Z,,,,1,-0.0198696495649504,0.0387952353063878,,0.04,false,hh,2139.170000095386,response,1.077278111180185,1.1499999999999997,-1.121420561079304,1.1530533996184025,1.1449999999999998,-1.1499999999999997,high,high,,ISIC_6735970.JPG,9,ISIC_9525136.JPG,28,28,false,0.14,lh,keypress(e),0,false,415558.2000000477,415557.90000009537,413402.297,413601.2000000477,413418.73,415372.524,5,600,37,
break,html.Screen,10_36_1,2023-11-29T19:41:21.414Z,,,,,,,,,,,NaN,,,,,,,,high,high,,,,,,,false,,,,,false,415559.40000009537,415559.09999990463,,415558.59999990463,,415372.524,5,600,,
break_continue,html.Screen,10_36_2,2023-11-29T19:41:21.415Z,,,,,,,,,,,NaN,,,,,,,,high,high,,,,,,,false,,,,,false,415560.2000000477,415559.7999999523,,415559.59999990463,,415372.524,5,600,,
sequence,flow.Sequence,10_36,2023-11-29T19:41:21.415Z,,,,,,,,,,,2141.069999952335,completion,,,,,,,high,high,,,,,,,false,,,,,false,415560.59999990463,415559.7999999523,413402.297,413601.09999990463,413418.73,415372.524,5,600,,
trial,html.Screen,10_37_0,2023-11-29T19:41:24.284Z,,,,1,0.0258224118104549,-0.0029364553353019,,0.04,false,hh,3056.176000047708,response,1.1843968275545205,1.1499999999999997,-1.121420561079304,1.2828739728067764,1.1449999999999998,-1.1499999999999997,high,high,,ISIC_8325226.JPG,9,ISIC_0002901.JPG,28,28,false,0.14,hl,keypress(j),0,false,418428.90000009537,418428.7000000477,415356.052,415560.7999999523,415372.524,418261.488,5,600,38,
break,html.Screen,10_37_1,2023-11-29T19:41:24.285Z,,,,,,,,,,,NaN,,,,,,,,high,high,,,,,,,false,,,,,false,418429.5,418429.2999999523,,418429.09999990463,,418261.488,5,600,,
break_continue,html.Screen,10_37_2,2023-11-29T19:41:24.285Z,,,,,,,,,,,NaN,,,,,,,,high,high,,,,,,,false,,,,,false,418429.7999999523,418429.59999990463,,418429.5,,418261.488,5,600,,
sequence,flow.Sequence,10_37,2023-11-29T19:41:24.285Z,,,,,,,,,,,3057.075999904657,completion,,,,,,,high,high,,,,,,,false,,,,,false,418430,418429.59999990463,415356.052,415560.7999999523,415372.524,418261.488,5,600,,
trial,html.Screen,10_38_0,2023-11-29T19:41:26.253Z,,,,1,0.0367744112927588,0.0324865661712824,,0.04,false,lh,2136.311999952304,response,-0.8867328775712738,1.1499999999999997,-1.121420561079304,1.0063426986460375,1.1449999999999998,-1.1499999999999997,low,high,,ISIC_4523565.JPG,10,ISIC_0055759.JPG,28,27,false,0.3400000000000002,hh,keypress(i),0,false,420398.2000000477,420397.7999999523,418228.168,418430,418261.488,420215.271,5,600,39,
break,html.Screen,10_38_1,2023-11-29T19:41:26.254Z,,,,,,,,,,,NaN,,,,,,,,low,high,,,,,,,false,,,,,false,420399.2000000477,420398.90000009537,,420398.5,,420215.271,5,600,,
break_continue,html.Screen,10_38_2,2023-11-29T19:41:26.255Z,,,,,,,,,,,NaN,,,,,,,,low,high,,,,,,,false,,,,,false,420400.09999990463,420399.7000000477,,420399.5,,420215.271,5,600,,
sequence,flow.Sequence,10_38,2023-11-29T19:41:26.256Z,,,,,,,,,,,2138.2120000476716,completion,,,,,,,low,high,,,,,,,false,,,,,false,420400.40000009537,420399.7000000477,418228.168,418430,418261.488,420215.271,5,600,,
trial,html.Screen,10_39_0,2023-11-29T19:41:31.717Z,,,,1,-0.0374659946425444,-0.0086043094957617,,0.04,false,hh,5646.528999952308,response,1.2219550761700546,1.1499999999999997,-1.121420561079304,1.2809901875733454,1.1449999999999998,-1.1499999999999997,high,high,,ISIC_0033051.JPG,9,ISIC_6463417.JPG,28,28,false,0.14,hl,keypress(j),0,false,425862.2000000477,425861.7999999523,420198.801,420400.7000000477,420215.271,425675.918,5,600,40,
