sender,sender_type,sender_id,timestamp,meta,,age,blockNo,c1,c2,condition,control_tolerance,correct,correctResponse,duration,ended_on,f1,f1_high,f1_low,f2,f2_high,f2_low,feature_level1,feature_level2,gender,img_left,img_reveal,img_right,n_control_images,n_target_images,practice,range_tolerance,response,response_action,selection_duration,staircase,time_commit,time_end,time_render,time_run,time_show,time_switch,total_blocks,total_trials,trialNo,url
informed_consent,html.Screen,0,2024-03-04T21:27:44.709Z,"{""labjs_version"":""20.2.4"",""labjs_build"":{""flavor"":""development"",""commit"":""f5b4a49f956347addd546a832a3327688c2c0fef""},""location"":""https://labjs.felixhenninger.com/api/labjs_preview/index.html"",""userAgent"":""Mozilla/5.0 (Windows NT 10.0; Win64; x64) AppleWebKit/537.36 (KHTML, like Gecko) Chrome/122.0.0.0 Safari/537.36"",""platform"":""Win32"",""language"":""en-US"",""locale"":""en-US"",""timeZone"":""America/Chicago"",""timezoneOffset"":360,""screen_width"":2560,""screen_height"":1440,""scroll_width"":1265,""scroll_height"":1278,""window_innerWidth"":1265,""window_innerHeight"":1326,""devicePixelRatio"":1}",,,,,,,,,,25436.2,response,,,,,,,,,,,,,,,,,consent,click button,,,25867.199999809265,25858,405.2,417.30000019073486,421.8,25876.4,,,,{}
Demography form,html.Form,1,2024-03-04T21:27:56.137Z,,,18,,,,,,,,11418.400000190733,form submission,,,,,,,,,female,,,,,,,,,,,,37295,37294.800000190735,25859.966,25867.5,25876.4,37319,,,,
Welcome,html.Screen,2,2024-03-04T21:28:06.572Z,,,,,,,"[""asym"",""col""]",,,,10410.699999809265,response,,,,,,,,,,,,,,,,,continue,click button,,,47730.300000190735,47729.699999809265,37302.464,37295.10000038147,37319,47744.4,,,,
demo_instructions,html.Screen,3,2024-03-04T21:28:16.556Z,,,,,,,,,,,9969.299999809264,response,,,,,,,,,,,,,,,,,continue,click button,,,57714.10000038147,57713.699999809265,47728.064,47730.5,47744.4,57735.9,,,,
trial,html.Screen,4_0_0,2024-03-04T21:28:36.538Z,,,,0,-1.1715181192107684,-1.2251845559044463,,,true,hh,19958.49999961853,response,1.053007132776416,1.2,-1.2,1.341217082060068,1.2,-1.2,high,high,,ISIC_0011957.JPG,,ISIC_0024208.JPG,,25,true,0.15000000000000002,hh,keypress(i),100,false,77695.60000038147,77694.39999961853,57719.3,57714.199999809265,57735.9,77719.5,1,16,1,
sequence,flow.Sequence,4_0,2024-03-04T21:28:36.539Z,,,,,,,,,,,19958.49999961853,completion,,,,,,,high,high,,,,,,,true,,,,,false,77696.80000019073,77694.39999961853,57719.3,57714.199999809265,57735.9,77719.5,1,16,,
trial,html.Screen,4_1_0,2024-03-04T21:28:42.740Z,,,,0,-1.1671212908494544,-1.1286681796701683,,,true,hh,6177.89999961853,response,1.2714351764931109,1.2,-1.2,1.0785174776187512,1.2,-1.2,high,high,,ISIC_0065022.JPG,,ISIC_2454898.JPG,,25,true,0.15000000000000002,hh,keypress(i),100,false,83897.80000019073,83897.39999961853,77702.866,77697.19999980927,77719.5,83924.4,1,16,2,
sequence,flow.Sequence,4_1,2024-03-04T21:28:42.741Z,,,,,,,,,,,6177.89999961853,completion,,,,,,,high,high,,,,,,,true,,,,,false,83898.39999961853,83897.39999961853,77702.866,77697.10000038147,77719.5,83924.4,1,16,,
trial,html.Screen,4_2_0,2024-03-04T21:28:50.013Z,,,,0,-1.238264833797662,-1.176099940770289,,,true,hh,7245.700000381476,response,1.0581281450494728,1.2,-1.2,1.133169116569424,1.2,-1.2,high,high,,ISIC_0032861.JPG,,ISIC_5490352.JPG,,25,true,0.15000000000000002,hh,keypress(i),100,false,91170.5,91170.10000038147,83908,83898.5,83924.4,91197,1,16,3,
sequence,flow.Sequence,4_2,2024-03-04T21:28:50.013Z,,,,,,,,,,,7245.700000381476,completion,,,,,,,high,high,,,,,,,true,,,,,false,91171,91170.10000038147,83908,83898.5,83924.4,91197,1,16,,
trial,html.Screen,4_3_0,2024-03-04T21:28:55.749Z,,,,0,-1.2232482867978696,-1.2451219760556858,,,true,hh,5709.10000038147,response,1.1990772227054871,1.2,-1.2,1.1224329926844498,1.2,-1.2,high,high,,ISIC_0030889.JPG,,ISIC_3425388.JPG,,25,true,0.15000000000000002,hh,keypress(i),100,false,96906.69999980927,96906.10000038147,91180.666,91171.30000019073,91197,96935.1,1,16,4,
sequence,flow.Sequence,4_3,2024-03-04T21:28:55.750Z,,,,,,,,,,,5709.10000038147,completion,,,,,,,high,high,,,,,,,true,,,,,false,96907.39999961853,96906.10000038147,91180.666,91171.19999980927,91197,96935.1,1,16,,
trial,html.Screen,4_4_0,2024-03-04T21:29:07.631Z,,,,0,1.2200968917423711,1.3183466064109373,,,true,ll,11852.700000190729,response,-1.250220052739973,1.2,-1.2,-1.2967258992731714,1.2,-1.2,low,low,,ISIC_3624318.JPG,,ISIC_0031368.JPG,,27,true,0.12,ll,keypress(f),100,false,108788.19999980927,108787.80000019073,96918.7,96907.69999980927,96935.1,108811.9,1,16,5,
sequence,flow.Sequence,4_4,2024-03-04T21:29:07.631Z,,,,,,,,,,,11852.700000190729,completion,,,,,,,low,low,,,,,,,true,,,,,false,108789.10000038147,108787.80000019073,96918.7,96907.60000038147,96935.1,108811.9,1,16,,
trial,html.Screen,4_5_0,2024-03-04T21:29:11.000Z,,,,0,1.0885984639975343,1.2042618719491294,,,true,ll,3345.4000001907407,response,-1.1894733304494307,1.2,-1.2,-1.1169761866204877,1.2,-1.2,low,low,,ISIC_0012740.JPG,,ISIC_0033813.JPG,,41,true,0.15000000000000002,ll,keypress(f),100,false,112157.69999980927,112157.30000019073,108795.232,108789.39999961853,108811.9,112181.2,1,16,6,
sequence,flow.Sequence,4_5,2024-03-04T21:29:11.000Z,,,,,,,,,,,3345.4000001907407,completion,,,,,,,low,low,,,,,,,true,,,,,false,112158.10000038147,112157.30000019073,108795.232,108789.30000019073,108811.9,112181.2,1,16,,
trial,html.Screen,4_6_0,2024-03-04T21:29:23.775Z,,,,0,1.294521945180264,1.3078626540563885,,,true,ll,12751.300000000003,response,-1.2040551955011098,1.2,-1.2,-1.2664651062241792,1.2,-1.2,low,low,,ISIC_3601224.JPG,,ISIC_0068886.JPG,,41,true,0.15000000000000002,ll,keypress(f),100,false,124932.69999980927,124932.5,112164.566,112158.19999980927,112181.2,124958.3,1,16,7,
sequence,flow.Sequence,4_6,2024-03-04T21:29:23.775Z,,,,,,,,,,,12751.300000000003,completion,,,,,,,low,low,,,,,,,true,,,,,false,124932.89999961853,124932.5,112164.566,112158.19999980927,112181.2,124958.3,1,16,,
trial,html.Screen,4_7_0,2024-03-04T21:29:29.397Z,,,,0,1.3471772753257971,1.055978100098093,,,true,ll,5595.899999809262,response,-1.1711612520017805,1.2,-1.2,-1.191169949562454,1.2,-1.2,low,low,,ISIC_2077116.JPG,,ISIC_0061936.JPG,,41,true,0.15000000000000002,ll,keypress(f),100,false,130554.60000038147,130554.19999980927,124941.6,124933,124958.3,130579.6,1,16,8,
sequence,flow.Sequence,4_7,2024-03-04T21:29:29.397Z,,,,,,,,,,,5595.899999809262,completion,,,,,,,low,low,,,,,,,true,,,,,false,130555.10000038147,130554.19999980927,124941.6,124933,124958.3,130579.6,1,16,,
trial,html.Screen,4_8_0,2024-03-04T21:29:48.747Z,,,,0,0.8591294258188253,-0.870797302150167,,,true,lh,19324.399999999994,response,-0.9448560599810628,1.2,-1.2,0.9099421612683488,1.2,-1.2,low,high,,ISIC_0055841.JPG,,ISIC_9684318.JPG,,26,true,0.3300000000000002,lh,keypress(e),100,false,149904.39999961853,149904,130563.164,130555.30000019073,130579.6,149928.9,1,16,9,
sequence,flow.Sequence,4_8,2024-03-04T21:29:48.747Z,,,,,,,,,,,19324.399999999994,completion,,,,,,,low,high,,,,,,,true,,,,,false,149905,149904,130563.164,130555.30000019073,130579.6,149928.9,1,16,,
trial,html.Screen,4_9_0,2024-03-04T21:30:02.330Z,,,,0,0.9445114955578736,-1.0054210059625863,,,true,lh,13557.90000019074,response,-1.1547137855907486,1.2,-1.2,1.0185275168641534,1.2,-1.2,low,high,,ISIC_0033807.JPG,,ISIC_7604870.JPG,,33,true,0.3600000000000002,lh,keypress(e),100,false,163487.30000019073,163486.80000019073,149912.532,149905.30000019073,149928.9,163506.8,1,16,10,
sequence,flow.Sequence,4_9,2024-03-04T21:30:02.330Z,,,,,,,,,,,13557.90000019074,completion,,,,,,,low,high,,,,,,,true,,,,,false,163487.89999961853,163486.80000019073,149912.532,149905.19999980927,149928.9,163506.8,1,16,,
trial,html.Screen,4_10_0,2024-03-04T21:30:07.117Z,,,,0,0.8591294258188253,-0.870797302150167,,,true,lh,4767.5000001907465,response,-0.9448560599810628,1.2,-1.2,0.9099421612683488,1.2,-1.2,low,high,,ISIC_0055841.JPG,,ISIC_9684318.JPG,,33,true,0.3600000000000002,lh,keypress(e),100,false,168274.69999980927,168274.30000019073,163490.36,163488.19999980927,163506.8,168294.2,1,16,11,
sequence,flow.Sequence,4_10,2024-03-04T21:30:07.118Z,,,,,,,,,,,4767.5000001907465,completion,,,,,,,low,high,,,,,,,true,,,,,false,168275.60000038147,168274.30000019073,163490.36,163488.10000038147,163506.8,168294.2,1,16,,
trial,html.Screen,4_11_0,2024-03-04T21:30:11.664Z,,,,0,1.11329866545753,-1.2155631217348757,,,true,lh,4526.900000381458,response,-0.8407642478899736,1.2,-1.2,0.9542322753334054,1.2,-1.2,low,high,,ISIC_0032610.JPG,,ISIC_9090822.JPG,,33,true,0.3600000000000002,lh,keypress(e),100,false,172821.39999961853,172821.10000038147,168277.628,168275.89999961853,168294.2,172847.8,1,16,12,
sequence,flow.Sequence,4_11,2024-03-04T21:30:11.664Z,,,,,,,,,,,4526.900000381458,completion,,,,,,,low,high,,,,,,,true,,,,,false,172821.80000019073,172821.10000038147,168277.628,168275.80000019073,168294.2,172847.8,1,16,,
trial,html.Screen,4_12_0,2024-03-04T21:30:18.001Z,,,,0,-0.887838744955182,1.3716210719758812,,,true,hl,6311.700000000012,response,1.1890109863264902,1.2,-1.2,-0.8867825318561365,1.2,-1.2,high,low,,ISIC_1488727.JPG,,ISIC_0072576.JPG,,29,true,0.3600000000000002,hl,keypress(j),100,false,179159.89999961853,179159.5,172831.464,172822,172847.8,179186.3,1,16,13,
sequence,flow.Sequence,4_12,2024-03-04T21:30:18.002Z,,,,,,,,,,,6311.700000000012,completion,,,,,,,high,low,,,,,,,true,,,,,false,179160.60000038147,179159.5,172831.464,172821.89999961853,172847.8,179186.3,1,16,,
trial,html.Screen,4_13_0,2024-03-04T21:30:26.520Z,,,,0,-0.9046170303418553,1.0063426986460375,,,true,hl,8491.500000190747,response,1.064425982109969,1.2,-1.2,-0.958564243697126,1.2,-1.2,high,low,,ISIC_0055759.JPG,,ISIC_3203344.JPG,,29,true,0.3600000000000002,hl,keypress(j),100,false,187678.10000038147,187677.80000019073,179169.998,179160.89999961853,179186.3,187693.732,1,16,14,
sequence,flow.Sequence,4_13,2024-03-04T21:30:26.520Z,,,,,,,,,,,8491.500000190747,completion,,,,,,,high,low,,,,,,,true,,,,,false,187678.69999980927,187677.80000019073,179169.998,179160.89999961853,179186.3,187693.732,1,16,,
trial,html.Screen,4_14_0,2024-03-04T21:30:33.708Z,,,,0,-0.9225524349657857,0.929746784178986,,,true,hl,7172.868000381481,response,1.2615315960773072,1.2,-1.2,-1.194084675079932,1.2,-1.2,high,low,,ISIC_0011077.JPG,,ISIC_0010044.JPG,,29,true,0.3600000000000002,hl,keypress(j),100,false,194867,194866.60000038147,187693.732,187679,187693.732,194882.898,1,16,15,
sequence,flow.Sequence,4_14,2024-03-04T21:30:33.709Z,,,,,,,,,,,7172.868000381481,completion,,,,,,,high,low,,,,,,,true,,,,,false,194867.60000038147,194866.60000038147,187693.732,187678.89999961853,187693.732,194882.898,1,16,,
trial,html.Screen,4_15_0,2024-03-04T21:30:36.543Z,,,,0,-1.155796217969438,1.1646564121743912,,,true,hl,2818.4020001907484,response,1.2615315960773072,1.2,-1.2,-1.194084675079932,1.2,-1.2,high,low,,ISIC_2685523.JPG,,ISIC_0010044.JPG,,29,true,0.3600000000000002,hl,keypress(j),100,false,197701.69999980927,197701.30000019073,194882.898,194867.89999961853,194882.898,197718.2,1,16,16,
sequence,flow.Sequence,4_15,2024-03-04T21:30:36.544Z,,,,,,,,,,,2818.4020001907484,completion,,,,,,,high,low,,,,,,,true,,,,,false,197702.19999980927,197701.30000019073,194882.898,194867.89999961853,194882.898,197718.2,1,16,,
demonstration_loop,flow.Loop,4,2024-03-04T21:30:36.544Z,,,,,,,,,,,139965.40000019074,completion,,,,,,,,,,,,,,,true,,,,,false,197702.69999980927,197701.30000019073,57719.3,57714.199999809265,57735.9,197718.2,1,16,,
practice_instructions,html.Screen,5,2024-03-04T21:30:41.485Z,,,,,,,,,,,4915.900000381458,response,,,,,,,,,,,,,,,,,continue,click button,,,202643.5,202634.10000038147,197701.964,197702.89999961853,197718.2,202655.9,,,,
trial,html.Screen,6_0_0,2024-03-04T21:30:52.903Z,,,,1,1.1217390688497193,1.2276600934505035,,,true,ll,11398.40000019074,response,-1.2289750544294995,1.2,-1.2,-1.3003764624334877,1.2,-1.2,low,low,,ISIC_0026344.JPG,,ISIC_0054167.JPG,,27,true,0.12,ll,keypress(f),0,false,214061.39999961853,214054.30000019073,202639.466,202643.69999980927,202655.9,214081.8,1,40,1,
sequence,flow.Sequence,6_0,2024-03-04T21:30:52.903Z,,,,,,,,,,,11398.40000019074,completion,,,,,,,low,low,,,,,,,true,,,,,false,214061.60000038147,214054.30000019073,202639.466,202643.69999980927,202655.9,214081.8,1,40,,
trial,html.Screen,6_1_0,2024-03-04T21:31:08.904Z,,,,1,1.1235224875125256,-0.8641223012137988,,,,,16013.200000000012,timeout,-1.0264463986917702,1.2,-1.2,1.171271535505083,1.2,-1.2,low,high,,ISIC_0033901.JPG,,ISIC_7889838.JPG,,26,true,0.3300000000000002,,,0,false,230062.19999980927,230062.10000038147,214072.954,214061.60000038147,214081.8,230095,1,40,2,
sequence,flow.Sequence,6_1,2024-03-04T21:31:08.904Z,,,,,,,,,,,15980.300000381481,completion,,,,,,,low,high,,,,,,,true,,,,,false,230062.30000019073,230062.10000038147,214072.954,214061.60000038147,214081.8,230095,1,40,,
trial,html.Screen,6_2_0,2024-03-04T21:31:17.911Z,,,,1,1.3559315773956395,-0.924768326187701,,,false,lh,8973.89999961853,response,-1.0264463986917702,1.2,-1.2,1.171271535505083,1.2,-1.2,low,high,,ISIC_5101111.JPG,,ISIC_7889838.JPG,,33,true,0.3600000000000002,hh,keypress(i),0,false,239069.30000019073,239068.89999961853,230078.4,230062.5,230095,239086.2,1,40,3,
sequence,flow.Sequence,6_2,2024-03-04T21:31:17.912Z,,,,,,,,,,,8973.89999961853,completion,,,,,,,low,high,,,,,,,true,,,,,false,239069.89999961853,239068.89999961853,230078.4,230062.39999961853,230095,239086.2,1,40,,
trial,html.Screen,6_3_0,2024-03-04T21:31:22.536Z,,,,1,-1.1474466950560966,-1.173734476257662,,,true,hh,4606.900000381458,response,0.9416900312335138,1.2,-1.2,0.9485840589720004,1.2,-1.2,high,high,,ISIC_5216586.JPG,,ISIC_2784686.JPG,,157,true,0.3600000000000002,hh,keypress(i),0,false,243693.39999961853,243693.10000038147,239069.2,239070.10000038147,239086.2,243706.3,1,40,4,
sequence,flow.Sequence,6_3,2024-03-04T21:31:22.536Z,,,,,,,,,,,4606.900000381458,completion,,,,,,,high,high,,,,,,,true,,,,,false,243694,243693.10000038147,239069.2,239070,239086.2,243706.3,1,40,,
trial,html.Screen,6_4_0,2024-03-04T21:31:26.381Z,,,,1,-1.0822170028935367,1.1654796154432183,,,true,hl,3832.099999618542,response,1.3559315773956395,1.2,-1.2,-0.924768326187701,1.2,-1.2,high,low,,ISIC_7288818.JPG,,ISIC_5101111.JPG,,29,true,0.3600000000000002,hl,keypress(j),0,false,247538.5,247538.39999961853,243702.978,243694.19999980927,243706.3,247542.8,1,40,5,
sequence,flow.Sequence,6_4,2024-03-04T21:31:26.381Z,,,,,,,,,,,3832.099999618542,completion,,,,,,,high,low,,,,,,,true,,,,,false,247538.60000038147,247538.39999961853,243702.978,243694.10000038147,243706.3,247542.8,1,40,,
trial,html.Screen,6_5_0,2024-03-04T21:31:32.312Z,,,,1,-0.8787496315223856,1.3680901203013998,,,true,hl,5926.399999809277,response,1.3411487193830047,1.2,-1.2,-1.198640448317381,1.2,-1.2,high,low,,ISIC_0023811.JPG,,ISIC_3093026.JPG,,29,true,0.3600000000000002,hl,keypress(j),0,false,253469.60000038147,253469.19999980927,247540.554,247538.60000038147,247542.8,253481.1,1,40,6,
sequence,flow.Sequence,6_5,2024-03-04T21:31:32.312Z,,,,,,,,,,,5926.399999809277,completion,,,,,,,high,low,,,,,,,true,,,,,false,253470.10000038147,253469.19999980927,247540.554,247538.60000038147,247542.8,253481.1,1,40,,
trial,html.Screen,6_6_0,2024-03-04T21:31:38.623Z,,,,1,-1.3132505134129506,-1.0949928516457437,,,true,hh,6299.700000190729,response,1.299827929103008,1.2,-1.2,0.912855253526266,1.2,-1.2,high,high,,ISIC_0066935.JPG,,ISIC_9760652.JPG,,127,true,0.3300000000000002,hh,keypress(i),0,false,259781.19999980927,259780.80000019073,253477.036,253470.30000019073,253481.1,259803,1,40,7,
sequence,flow.Sequence,6_6,2024-03-04T21:31:38.624Z,,,,,,,,,,,6299.700000190729,completion,,,,,,,high,high,,,,,,,true,,,,,false,259781.69999980927,259780.80000019073,253477.036,253470.19999980927,253481.1,259803,1,40,,
trial,html.Screen,6_7_0,2024-03-04T21:31:43.775Z,,,,1,1.11329866545753,-1.2155631217348757,,,true,lh,5129.60000038147,response,-0.9448560599810628,1.2,-1.2,0.9099421612683488,1.2,-1.2,low,high,,ISIC_0032610.JPG,,ISIC_9684318.JPG,,26,true,0.3300000000000002,lh,keypress(e),0,false,264933.10000038147,264932.60000038147,259798.454,259781.89999961853,259803,264940.6,1,40,8,
sequence,flow.Sequence,6_7,2024-03-04T21:31:43.776Z,,,,,,,,,,,5129.60000038147,completion,,,,,,,low,high,,,,,,,true,,,,,false,264933.5,264932.60000038147,259798.454,259781.80000019073,259803,264940.6,1,40,,
trial,html.Screen,6_8_0,2024-03-04T21:31:49.728Z,,,,1,1.1642596483638106,1.091507924157762,,,true,ll,5944.400000000023,response,-1.0193735734252425,1.2,-1.2,-0.9365358249762208,1.2,-1.2,low,low,,ISIC_0765584.JPG,,ISIC_0071951.JPG,,249,true,0.3600000000000002,ll,keypress(f),0,false,270885.5,270885,264937.268,264933.69999980927,264940.6,270895.4,1,40,9,
sequence,flow.Sequence,6_8,2024-03-04T21:31:49.728Z,,,,,,,,,,,5944.400000000023,completion,,,,,,,low,low,,,,,,,true,,,,,false,270886.19999980927,270885,264937.268,264933.69999980927,264940.6,270895.4,1,40,,
trial,html.Screen,6_9_0,2024-03-04T21:31:58.032Z,,,,1,1.204229955025689,1.0874249761617445,,,false,ll,8293.799999809242,response,-1.189469386514313,1.2,-1.2,-1.3008582067137853,1.2,-1.2,low,low,,ISIC_0056930.JPG,,ISIC_0010644.JPG,,41,true,0.15000000000000002,lh,keypress(e),0,false,279189.60000038147,279189.19999980927,270878.9,270886.39999961853,270895.4,279202.4,1,40,10,
sequence,flow.Sequence,6_9,2024-03-04T21:31:58.032Z,,,,,,,,,,,8293.799999809242,completion,,,,,,,low,low,,,,,,,true,,,,,false,279190.30000019073,279189.19999980927,270878.9,270886.30000019073,270895.4,279202.4,1,40,,
trial,html.Screen,6_10_0,2024-03-04T21:32:04.599Z,,,,1,-0.9670240379618178,1.1806404773220665,,,false,hl,6554.099999999977,response,0.8479396253253069,1.2,-1.2,-1.011054319516718,1.2,-1.2,high,low,,ISIC_0002288.JPG,,ISIC_0063521.JPG,,29,true,0.3600000000000002,hh,keypress(i),0,false,285756.89999961853,285756.5,279196.938,279190.39999961853,279202.4,285774.5,1,40,11,
sequence,flow.Sequence,6_10,2024-03-04T21:32:04.600Z,,,,,,,,,,,6554.099999999977,completion,,,,,,,high,low,,,,,,,true,,,,,false,285757.5,285756.5,279196.938,279190.39999961853,279202.4,285774.5,1,40,,
trial,html.Screen,6_11_0,2024-03-04T21:32:10.208Z,,,,1,1.11329866545753,-1.2155631217348757,,,false,lh,5590.699999809265,response,-1.2704198237183777,1.2,-1.2,1.138121072015301,1.2,-1.2,low,high,,ISIC_0032610.JPG,,ISIC_0501843.JPG,,26,true,0.3300000000000002,hh,keypress(i),0,false,291365.60000038147,291365.19999980927,285769.778,285757.69999980927,285774.5,291379.4,1,40,12,
sequence,flow.Sequence,6_11,2024-03-04T21:32:10.208Z,,,,,,,,,,,5590.699999809265,completion,,,,,,,low,high,,,,,,,true,,,,,false,291366.30000019073,291365.19999980927,285769.778,285757.69999980927,285774.5,291379.4,1,40,,
trial,html.Screen,6_12_0,2024-03-04T21:32:16.470Z,,,,1,-1.1392234684115472,-1.3198277407683998,,,false,hh,6248.400000190712,response,1.3045229691102764,1.2,-1.2,1.1781544075681951,1.2,-1.2,high,high,,ISIC_0071875.JPG,,ISIC_6148533.JPG,,157,true,0.3600000000000002,hl,keypress(j),0,false,297628.10000038147,297627.80000019073,291362.6,291366.5,291379.4,297634.1,1,40,13,
sequence,flow.Sequence,6_12,2024-03-04T21:32:16.471Z,,,,,,,,,,,6248.400000190712,completion,,,,,,,high,high,,,,,,,true,,,,,false,297628.5,297627.80000019073,291362.6,291366.5,291379.4,297634.1,1,40,,
trial,html.Screen,6_13_0,2024-03-04T21:32:22.472Z,,,,1,1.1990772227054871,1.1224329926844498,,,true,ll,5994.900000000023,response,-1.1711612520017805,1.2,-1.2,-1.191169949562454,1.2,-1.2,low,low,,ISIC_3425388.JPG,,ISIC_0061936.JPG,,27,true,0.12,ll,keypress(f),0,false,303629.39999961853,303629,297629.99,297628.69999980927,297634.1,303639.2,1,40,14,
sequence,flow.Sequence,6_13,2024-03-04T21:32:22.472Z,,,,,,,,,,,5994.900000000023,completion,,,,,,,low,low,,,,,,,true,,,,,false,303629.89999961853,303629,297629.99,297628.60000038147,297634.1,303639.2,1,40,,
trial,html.Screen,6_14_0,2024-03-04T21:32:31.525Z,,,,1,1.0959058628476686,1.2921331918483707,,,false,ll,9043.299999999988,response,-1.1894733304494307,1.2,-1.2,-1.1169761866204877,1.2,-1.2,low,low,,ISIC_5920470.JPG,,ISIC_0033813.JPG,,41,true,0.15000000000000002,lh,keypress(e),0,false,312682.60000038147,312682.5,303635.2,303630.19999980927,303639.2,312696.7,1,40,15,
sequence,flow.Sequence,6_14,2024-03-04T21:32:31.525Z,,,,,,,,,,,9043.299999999988,completion,,,,,,,low,low,,,,,,,true,,,,,false,312682.80000019073,312682.5,303635.2,303630.10000038147,303639.2,312696.7,1,40,,
trial,html.Screen,6_15_0,2024-03-04T21:32:36.756Z,,,,1,0.8779374983479176,-0.9745548032823428,,,true,lh,5217.4999998092535,response,-0.9046170303418553,1.2,-1.2,1.0063426986460375,1.2,-1.2,low,high,,ISIC_2991354.JPG,,ISIC_0055759.JPG,,26,true,0.3300000000000002,lh,keypress(e),0,false,317914.39999961853,317914.19999980927,312690.078,312682.89999961853,312696.7,317917.5,1,40,16,
sequence,flow.Sequence,6_15,2024-03-04T21:32:36.757Z,,,,,,,,,,,5217.4999998092535,completion,,,,,,,low,high,,,,,,,true,,,,,false,317914.39999961853,317914.19999980927,312690.078,312682.89999961853,312696.7,317917.5,1,40,,
trial,html.Screen,6_16_0,2024-03-04T21:32:44.400Z,,,,1,1.064425982109969,-0.958564243697126,,,true,lh,7639.60000038147,response,-1.0700930503975157,1.2,-1.2,0.923753102263735,1.2,-1.2,low,high,,ISIC_3203344.JPG,,ISIC_0000022.JPG,,33,true,0.3600000000000002,lh,keypress(e),0,false,325557.39999961853,325557.10000038147,317914.198,317914.5,317917.5,325574.2,1,40,17,
sequence,flow.Sequence,6_16,2024-03-04T21:32:44.400Z,,,,,,,,,,,7639.60000038147,completion,,,,,,,low,high,,,,,,,true,,,,,false,325557.89999961853,325557.10000038147,317914.198,317914.39999961853,317917.5,325574.2,1,40,,
trial,html.Screen,6_17_0,2024-03-04T21:32:59.824Z,,,,1,1.1305948371148624,1.2802709447034604,,,false,ll,15407.100000190723,response,-1.2137759249471731,1.2,-1.2,-1.4679384342787103,1.2,-1.2,low,low,,ISIC_5648111.JPG,,ISIC_0023162.JPG,,249,true,0.3600000000000002,hl,keypress(j),0,false,340981.60000038147,340981.30000019073,325557.4,325558.19999980927,325574.2,340986.8,1,40,18,
sequence,flow.Sequence,6_17,2024-03-04T21:32:59.824Z,,,,,,,,,,,15407.100000190723,completion,,,,,,,low,low,,,,,,,true,,,,,false,340982.19999980927,340981.30000019073,325557.4,325558,325574.2,340986.8,1,40,,
trial,html.Screen,6_18_0,2024-03-04T21:33:05.903Z,,,,1,-1.250220052739973,-1.2967258992731714,,,true,hh,6073.700000000012,response,1.1305948371148624,1.2,-1.2,1.2802709447034604,1.2,-1.2,high,high,,ISIC_0031368.JPG,,ISIC_5648111.JPG,,25,true,0.15000000000000002,hh,keypress(i),0,false,347060.89999961853,347060.5,340974.524,340982.39999961853,340986.8,347075.1,1,40,19,
sequence,flow.Sequence,6_18,2024-03-04T21:33:05.904Z,,,,,,,,,,,6073.700000000012,completion,,,,,,,high,high,,,,,,,true,,,,,false,347061.5,347060.5,340974.524,340982.39999961853,340986.8,347075.1,1,40,,
trial,html.Screen,6_19_0,2024-03-04T21:33:10.095Z,,,,1,-0.887838744955182,1.3716210719758812,,,true,hl,4177.500000381493,response,1.3559315773956395,1.2,-1.2,-0.924768326187701,1.2,-1.2,high,low,,ISIC_1488727.JPG,,ISIC_5101111.JPG,,29,true,0.3600000000000002,hl,keypress(j),0,false,351252.89999961853,351252.60000038147,347071.03,347061.80000019073,347075.1,351262,1,40,20,
sequence,flow.Sequence,6_19,2024-03-04T21:33:10.095Z,,,,,,,,,,,4177.500000381493,completion,,,,,,,high,low,,,,,,,true,,,,,false,351253.19999980927,351252.60000038147,347071.03,347061.60000038147,347075.1,351262,1,40,,
trial,html.Screen,6_20_0,2024-03-04T21:33:15.479Z,,,,1,1.294521945180264,1.3078626540563885,,,false,ll,5374.60000038147,response,-1.1618928077758934,1.2,-1.2,-0.9630799724002608,1.2,-1.2,low,low,,ISIC_3601224.JPG,,ISIC_0034076.JPG,,211,true,0.3300000000000002,lh,keypress(e),0,false,356636.89999961853,356636.60000038147,351259.196,351253.30000019073,351262,356649.7,1,40,21,
sequence,flow.Sequence,6_20,2024-03-04T21:33:15.480Z,,,,,,,,,,,5374.60000038147,completion,,,,,,,low,low,,,,,,,true,,,,,false,356637.39999961853,356636.60000038147,351259.196,351253.30000019073,351262,356649.7,1,40,,
trial,html.Screen,6_21_0,2024-03-04T21:33:25.078Z,,,,1,-1.1715181192107684,-1.2251845559044463,,,false,hh,9586.100000190723,response,1.204229955025689,1.2,-1.2,1.0874249761617445,1.2,-1.2,high,high,,ISIC_0011957.JPG,,ISIC_0056930.JPG,,25,true,0.15000000000000002,hl,keypress(j),0,false,366235.89999961853,366235.80000019073,356633.1,356637.60000038147,356649.7,366250.456,1,40,22,
sequence,flow.Sequence,6_21,2024-03-04T21:33:25.078Z,,,,,,,,,,,9586.100000190723,completion,,,,,,,high,high,,,,,,,true,,,,,false,366236,366235.80000019073,356633.1,356637.5,356649.7,366250.456,1,40,,
trial,html.Screen,6_22_0,2024-03-04T21:33:33.535Z,,,,1,-1.2704198237183777,1.138121072015301,,,false,hl,8442.34400019073,response,1.1224745971429997,1.2,-1.2,-0.8423270217438888,1.2,-1.2,high,low,,ISIC_0501843.JPG,,ISIC_0057032.JPG,,29,true,0.3600000000000002,ll,keypress(f),0,false,374693.10000038147,374692.80000019073,366250.456,366236,366250.456,374708.302,1,40,23,
sequence,flow.Sequence,6_22,2024-03-04T21:33:33.536Z,,,,,,,,,,,8442.34400019073,completion,,,,,,,high,low,,,,,,,true,,,,,false,374693.69999980927,374692.80000019073,366250.456,366236,366250.456,374708.302,1,40,,
trial,html.Screen,6_23_0,2024-03-04T21:33:39.903Z,,,,1,-1.0748728054622358,1.2840853987892311,,,false,hl,6352.49800019071,response,0.8479396253253069,1.2,-1.2,-1.011054319516718,1.2,-1.2,high,low,,ISIC_0059219.JPG,,ISIC_0063521.JPG,,29,true,0.3600000000000002,hh,keypress(i),0,false,381061.19999980927,381060.80000019073,374708.302,374694,374708.302,381069.9,1,40,24,
sequence,flow.Sequence,6_23,2024-03-04T21:33:39.904Z,,,,,,,,,,,6352.49800019071,completion,,,,,,,high,low,,,,,,,true,,,,,false,381061.69999980927,381060.80000019073,374708.302,374693.89999961853,374708.302,381069.9,1,40,,
trial,html.Screen,6_24_0,2024-03-04T21:33:43.895Z,,,,1,-0.9873794329144926,0.9500689037516484,,,true,hl,3982.999999618507,response,1.2615315960773072,1.2,-1.2,-1.194084675079932,1.2,-1.2,high,low,,ISIC_0013498.JPG,,ISIC_0010044.JPG,,29,true,0.3600000000000002,hl,keypress(j),0,false,385053.19999980927,385052.89999961853,381065.386,381061.89999961853,381069.9,385056.6,1,40,25,
sequence,flow.Sequence,6_24,2024-03-04T21:33:43.896Z,,,,,,,,,,,3982.999999618507,completion,,,,,,,high,low,,,,,,,true,,,,,false,385053.60000038147,385052.89999961853,381065.386,381061.89999961853,381069.9,385056.6,1,40,,
trial,html.Screen,6_25_0,2024-03-04T21:33:53.080Z,,,,1,0.9445114955578736,-1.0054210059625863,,,true,lh,9180.599999809288,response,-1.052305774554686,1.2,-1.2,1.3940181224717798,1.2,-1.2,low,high,,ISIC_0033807.JPG,,ISIC_4175400.JPG,,26,true,0.3300000000000002,lh,keypress(e),0,false,394237.60000038147,394237.19999980927,385053.904,385053.89999961853,385056.6,394247.5,1,40,26,
sequence,flow.Sequence,6_25,2024-03-04T21:33:53.080Z,,,,,,,,,,,9180.599999809288,completion,,,,,,,low,high,,,,,,,true,,,,,false,394238.19999980927,394237.19999980927,385053.904,385053.80000019073,385056.6,394247.5,1,40,,
trial,html.Screen,6_26_0,2024-03-04T21:34:03.463Z,,,,1,0.9445114955578736,-1.0054210059625863,,,true,lh,10373.199999809265,response,-0.9225524349657857,1.2,-1.2,0.929746784178986,1.2,-1.2,low,high,,ISIC_0033807.JPG,,ISIC_0011077.JPG,,33,true,0.3600000000000002,lh,keypress(e),0,false,404621,404620.69999980927,394240.64,394238.39999961853,394247.5,404639.4,1,40,27,
sequence,flow.Sequence,6_26,2024-03-04T21:34:03.464Z,,,,,,,,,,,10373.199999809265,completion,,,,,,,low,high,,,,,,,true,,,,,false,404621.5,404620.69999980927,394240.64,394238.39999961853,394247.5,404639.4,1,40,,
trial,html.Screen,6_27_0,2024-03-04T21:34:17.368Z,,,,1,-1.2704198237183777,1.138121072015301,,,true,hl,13885.700000381446,response,0.9445114955578736,1.2,-1.2,-1.0054210059625863,1.2,-1.2,high,low,,ISIC_0501843.JPG,,ISIC_0033807.JPG,,29,true,0.3600000000000002,hl,keypress(j),0,false,418525.5,418525.10000038147,404631.358,404621.69999980927,404639.4,418534.2,1,40,28,
sequence,flow.Sequence,6_27,2024-03-04T21:34:17.368Z,,,,,,,,,,,13885.700000381446,completion,,,,,,,high,low,,,,,,,true,,,,,false,418526,418525.10000038147,404631.358,404621.60000038147,404639.4,418534.2,1,40,,
trial,html.Screen,6_28_0,2024-03-04T21:34:23.144Z,,,,1,1.1638334638021437,1.0846635401396965,,,true,ll,5766.900000381458,response,-1.1227373144244253,1.2,-1.2,-1.1886610799377713,1.2,-1.2,low,low,,ISIC_4718313.JPG,,ISIC_0059506.JPG,,211,true,0.3300000000000002,ll,keypress(f),0,false,424301.5,424301.10000038147,418523.118,418526.19999980927,418534.2,424322.2,1,40,29,
sequence,flow.Sequence,6_28,2024-03-04T21:34:23.144Z,,,,,,,,,,,5766.900000381458,completion,,,,,,,low,low,,,,,,,true,,,,,false,424302.10000038147,424301.10000038147,418523.118,418526.19999980927,418534.2,424322.2,1,40,,
trial,html.Screen,6_29_0,2024-03-04T21:34:28.183Z,,,,1,-1.0700930503975157,0.923753102263735,,,true,hl,5018.699999618519,response,0.9039158082670506,1.2,-1.2,-1.0517562064343149,1.2,-1.2,high,low,,ISIC_0000022.JPG,,ISIC_0015411.JPG,,29,true,0.3600000000000002,hl,keypress(j),0,false,429341.19999980927,429340.89999961853,424318.242,424302.19999980927,424322.2,429360.1,1,40,30,
sequence,flow.Sequence,6_29,2024-03-04T21:34:28.184Z,,,,,,,,,,,5018.699999618519,completion,,,,,,,high,low,,,,,,,true,,,,,false,429341.69999980927,429340.89999961853,424318.242,424302.19999980927,424322.2,429360.1,1,40,,
trial,html.Screen,6_30_0,2024-03-04T21:34:36.397Z,,,,1,-1.2872758518949912,-1.313723254903214,,,true,hh,8194.400000000023,response,1.0901635293704552,1.2,-1.2,1.0348352814358883,1.2,-1.2,high,high,,ISIC_0064376.JPG,,ISIC_7583134.JPG,,127,true,0.3300000000000002,hh,keypress(i),0,false,437554.69999980927,437554.5,429339.696,429342,429360.1,437566.6,1,40,31,
sequence,flow.Sequence,6_30,2024-03-04T21:34:36.397Z,,,,,,,,,,,8194.400000000023,completion,,,,,,,high,high,,,,,,,true,,,,,false,437554.80000019073,437554.5,429339.696,429341.89999961853,429360.1,437566.6,1,40,,
trial,html.Screen,6_31_0,2024-03-04T21:34:45.855Z,,,,1,-1.1474466950560966,-1.173734476257662,,,false,hh,9446.200000190758,response,1.1727618800748076,1.2,-1.2,1.0636787813411093,1.2,-1.2,high,high,,ISIC_5216586.JPG,,ISIC_9690371.JPG,,25,true,0.15000000000000002,hl,keypress(j),0,false,447013.10000038147,447012.80000019073,437549.9,437554.89999961853,437566.6,447033.728,1,40,32,
sequence,flow.Sequence,6_31,2024-03-04T21:34:45.856Z,,,,,,,,,,,9446.200000190758,completion,,,,,,,high,high,,,,,,,true,,,,,false,447013.60000038147,447012.80000019073,437549.9,437554.89999961853,437566.6,447033.728,1,40,,
trial,html.Screen,6_32_0,2024-03-04T21:34:53.927Z,,,,1,0.8644465729542988,-0.8679598285079457,,,true,lh,8050.771999999997,response,-0.9225524349657857,1.2,-1.2,0.929746784178986,1.2,-1.2,low,high,,ISIC_6718969.JPG,,ISIC_0011077.JPG,,26,true,0.3300000000000002,lh,keypress(e),0,false,455084.80000019073,455084.5,447033.728,447013.80000019073,447033.728,455097.7,1,40,33,
sequence,flow.Sequence,6_32,2024-03-04T21:34:53.928Z,,,,,,,,,,,8050.771999999997,completion,,,,,,,low,high,,,,,,,true,,,,,false,455085.39999961853,455084.5,447033.728,447013.80000019073,447033.728,455097.7,1,40,,
trial,html.Screen,6_33_0,2024-03-04T21:34:58.320Z,,,,1,-1.1894733304494307,-1.1169761866204877,,,true,hh,4379.400000381458,response,1.212030980680325,1.2,-1.2,1.139863018685685,1.2,-1.2,high,high,,ISIC_0033813.JPG,,ISIC_0008510.JPG,,157,true,0.3600000000000002,hh,keypress(i),0,false,459477.39999961853,459477.10000038147,455091.718,455085.60000038147,455097.7,459501.3,1,40,34,
sequence,flow.Sequence,6_33,2024-03-04T21:34:58.320Z,,,,,,,,,,,4379.400000381458,completion,,,,,,,high,high,,,,,,,true,,,,,false,459478,459477.10000038147,455091.718,455085.60000038147,455097.7,459501.3,1,40,,
trial,html.Screen,6_34_0,2024-03-04T21:35:05.926Z,,,,1,1.2838089642212804,-0.8550527900640753,,,true,lh,7582.399999809277,response,-0.9448560599810628,1.2,-1.2,0.9099421612683488,1.2,-1.2,low,high,,ISIC_0034187.JPG,,ISIC_9684318.JPG,,26,true,0.3300000000000002,lh,keypress(e),0,false,467083.89999961853,467083.69999980927,459498.664,459478.30000019073,459501.3,467091,1,40,35,
sequence,flow.Sequence,6_34,2024-03-04T21:35:05.926Z,,,,,,,,,,,7582.399999809277,completion,,,,,,,low,high,,,,,,,true,,,,,false,467084.30000019073,467083.69999980927,459498.664,459478.19999980927,459501.3,467091,1,40,,
trial,html.Screen,6_35_0,2024-03-04T21:35:12.256Z,,,,1,1.204229955025689,1.0874249761617445,,,false,ll,6322.39999961853,response,-1.5349963130074844,1.2,-1.2,-1.1519980408729138,1.2,-1.2,low,low,,ISIC_0056930.JPG,,ISIC_0054043.JPG,,249,true,0.3600000000000002,lh,keypress(e),0,false,473413.80000019073,473413.39999961853,467085.57,467084.30000019073,467091,473429.7,1,40,36,
sequence,flow.Sequence,6_35,2024-03-04T21:35:12.257Z,,,,,,,,,,,6322.39999961853,completion,,,,,,,low,low,,,,,,,true,,,,,false,473414.30000019073,473413.39999961853,467085.57,467084.30000019073,467091,473429.7,1,40,,
trial,html.Screen,6_36_0,2024-03-04T21:35:17.584Z,,,,1,1.073296525451802,1.3454282740421717,,,true,ll,5311.4999998092535,response,-1.3132505134129506,1.2,-1.2,-1.0949928516457437,1.2,-1.2,low,low,,ISIC_5787312.JPG,,ISIC_0066935.JPG,,41,true,0.15000000000000002,ll,keypress(f),0,false,478741.60000038147,478741.19999980927,473413,473414.5,473429.7,478767.2,1,40,37,
sequence,flow.Sequence,6_36,2024-03-04T21:35:17.584Z,,,,,,,,,,,5311.4999998092535,completion,,,,,,,low,low,,,,,,,true,,,,,false,478742.10000038147,478741.19999980927,473413,473414.5,473429.7,478767.2,1,40,,
trial,html.Screen,6_37_0,2024-03-04T21:35:26.911Z,,,,1,-0.9448560599810628,0.9099421612683488,,,true,hl,9301.499999809253,response,1.3515962101204746,1.2,-1.2,-0.8414583575292955,1.2,-1.2,high,low,,ISIC_9684318.JPG,,ISIC_0274382.JPG,,29,true,0.3600000000000002,hl,keypress(j),0,false,488069,488068.69999980927,478763.56,478742.39999961853,478767.2,488075,1,40,38,
sequence,flow.Sequence,6_37,2024-03-04T21:35:26.912Z,,,,,,,,,,,9301.499999809253,completion,,,,,,,high,low,,,,,,,true,,,,,false,488069.5,488068.69999980927,478763.56,478742.30000019073,478767.2,488075,1,40,,
trial,html.Screen,6_38_0,2024-03-04T21:35:31.863Z,,,,1,-1.1227373144244253,-1.1886610799377713,,,true,hh,4945.10000038147,response,1.299827929103008,1.2,-1.2,0.912855253526266,1.2,-1.2,high,high,,ISIC_0059506.JPG,,ISIC_9760652.JPG,,127,true,0.3300000000000002,hh,keypress(i),0,false,493020.39999961853,493020.10000038147,488067.968,488069.69999980927,488075,493029.1,1,40,39,
sequence,flow.Sequence,6_38,2024-03-04T21:35:31.863Z,,,,,,,,,,,4945.10000038147,completion,,,,,,,high,high,,,,,,,true,,,,,false,493020.80000019073,493020.10000038147,488067.968,488069.60000038147,488075,493029.1,1,40,,
trial,html.Screen,6_39_0,2024-03-04T21:35:34.839Z,,,,1,-1.1407514641016443,-1.280017651202714,,,true,hh,2967.7999996185536,response,1.1168199061753437,1.2,-1.2,1.212287319329914,1.2,-1.2,high,high,,ISIC_0072507.JPG,,ISIC_5919355.JPG,,25,true,0.15000000000000002,hh,keypress(i),0,false,495997.19999980927,495996.89999961853,493025.632,493021.10000038147,493029.1,496014.9,1,40,40,
sequence,flow.Sequence,6_39,2024-03-04T21:35:34.840Z,,,,,,,,,,,2967.7999996185536,completion,,,,,,,high,high,,,,,,,true,,,,,false,495997.69999980927,495996.89999961853,493025.632,493021,493029.1,496014.9,1,40,,
practice_loop,flow.Loop,6,2024-03-04T21:35:34.840Z,,,,,,,,,,,293340.9999996185,completion,,,,,,,,,,,,,,,true,,,,,false,495998.10000038147,495996.89999961853,202639.466,202643.60000038147,202655.9,496014.9,1,40,,
stair_instructions,html.Screen,7,2024-03-04T21:35:46.061Z,,,,,,,,,,,11203.499999618507,response,,,,,,,,,,,,,,,,,continue,click button,,,507219,507218.39999961853,495998.5,495998.19999980927,496014.9,507224.13,,,,
trial,html.Screen,8_0_0,2024-03-04T21:36:02.055Z,,,,2,-0.0350697500805515,-0.0166617848231997,,0.04,,,16013.469999999972,timeout,-1.1126049058422398,1.2,-1.2,-1.2305421124063929,1.2,-1.2,low,low,,ISIC_0024423.JPG,,ISIC_0071536.JPG,28,27,false,0.12,,,0,true,523212.80000019073,523212.60000038147,507224.13,507219.19999980927,507224.13,523237.6,1,40,1,
sequence,flow.Sequence,8_0,2024-03-04T21:36:02.055Z,,,,,,,,,,,15988.470000381465,completion,,,,,,,low,low,,,,,,,false,,,,,true,523212.89999961853,523212.60000038147,507224.13,507219.19999980927,507224.13,523237.6,1,40,,
trial,html.Screen,8_1_0,2024-03-04T21:36:09.382Z,,,,2,0.0086413421586899,0.0360184993500958,,0.04,false,hl,7302.700000190758,response,1.00615481805876,1.2,-1.2,-0.8428903771195875,1.2,-1.2,high,low,,ISIC_0010767.JPG,,ISIC_0069970.JPG,28,29,false,0.3600000000000002,ll,keypress(f),0,true,530540.3000001907,530540.3000001907,523220.7,523213,523237.6,530543.3,1,40,2,
sequence,flow.Sequence,8_1,2024-03-04T21:36:09.383Z,,,,,,,,,,,7302.700000190758,completion,,,,,,,high,low,,,,,,,false,,,,,true,530540.3999996185,530540.3000001907,523220.7,523213,523237.6,530543.3,1,40,,
trial,html.Screen,8_2_0,2024-03-04T21:36:14.840Z,,,,2,0.0063515208248796,0.0194177605767913,,0.04,true,hh,5454.300000381423,response,1.1604734171556077,1.2,-1.15,1.0789312625280616,1.15,-1.15,high,high,,ISIC_5281908.JPG,,ISIC_3950753.JPG,28,25,false,0.14,hh,keypress(i),0,true,535998,535997.6000003815,530538.214,530540.5,530543.3,536014.6,1,40,3,
sequence,flow.Sequence,8_2,2024-03-04T21:36:14.841Z,,,,,,,,,,,5454.300000381423,completion,,,,,,,high,high,,,,,,,false,,,,,true,535998.5,535997.6000003815,530538.214,530540.5,530543.3,536014.6,1,40,,
trial,html.Screen,8_3_0,2024-03-04T21:36:24.950Z,,,,2,0.0127320821962457,-0.0315308940184827,,0.04,true,hl,10093.200000190758,response,1.1890109863264902,1.15,-1.15,-0.8867825318561365,1.15,-1.15,high,low,,ISIC_8156101.JPG,,ISIC_0072576.JPG,28,27,false,0.31000000000000016,hl,keypress(j),0,true,546107.8999996185,546107.8000001907,536010.688,535998.6999998093,536014.6,546123.1,1,40,4,
sequence,flow.Sequence,8_3,2024-03-04T21:36:24.950Z,,,,,,,,,,,10093.200000190758,completion,,,,,,,high,low,,,,,,,false,,,,,true,546108,546107.8000001907,536010.688,535998.6000003815,536014.6,546123.1,1,40,,
trial,html.Screen,8_4_0,2024-03-04T21:36:30.590Z,,,,2,-0.0118555311043871,-0.0087774532070196,,0.04,true,ll,5624.299999618554,response,-1.0657476601009717,1.0999999999999999,-1.15,-1.166572336354465,1.15,-1.0999999999999999,low,low,,ISIC_6488658.JPG,,ISIC_0010778.JPG,28,27,false,0.11,ll,keypress(f),0,true,551747.5,551747.3999996185,546106.2,546108.1000003815,546123.1,551761.3,1,40,5,
sequence,flow.Sequence,8_4,2024-03-04T21:36:30.590Z,,,,,,,,,,,5624.299999618554,completion,,,,,,,low,low,,,,,,,false,,,,,true,551747.8000001907,551747.3999996185,546106.2,546108.1000003815,546123.1,551761.3,1,40,,
trial,html.Screen,8_5_0,2024-03-04T21:36:36.863Z,,,,2,0.0365981355399771,0.0162670920008846,,0.04,true,ll,6259.599999618484,response,-1.238264833797662,1.0999999999999999,-1.15,-1.176099940770289,1.15,-1.0999999999999999,low,low,,ISIC_0982855.JPG,,ISIC_0032861.JPG,28,27,false,0.11,ll,keypress(f),0,true,558021.3000001907,558020.8999996185,551744.3,551747.8000001907,551761.3,558032.8,1,40,6,
sequence,flow.Sequence,8_5,2024-03-04T21:36:36.864Z,,,,,,,,,,,6259.599999618484,completion,,,,,,,low,low,,,,,,,false,,,,,true,558021.6999998093,558020.8999996185,551744.3,551747.8000001907,551761.3,558032.8,1,40,,
trial,html.Screen,8_6_0,2024-03-04T21:36:41.976Z,,,,2,-0.0077673378094614,-0.0021810768579373,,0.04,true,hh,5100.199999999953,response,1.1217390688497193,1.0999999999999999,-1.1213361385623768,1.2276600934505035,1.15,-1.1213361385623768,high,high,,ISIC_0067621.JPG,,ISIC_0026344.JPG,28,28,false,0.13,hh,keypress(i),0,true,563133.3999996185,563133,558028.322,558022,558032.8,563153.6,1,40,7,
sequence,flow.Sequence,8_6,2024-03-04T21:36:41.976Z,,,,,,,,,,,5100.199999999953,completion,,,,,,,high,high,,,,,,,false,,,,,true,563133.8999996185,563133,558028.322,558021.8999996185,558032.8,563153.6,1,40,,
trial,html.Screen,8_7_0,2024-03-04T21:36:48.368Z,,,,2,-0.012810673904807,0.00400964452501,,0.04,true,hl,6372.099999809288,response,1.225025174430573,1.0999999999999999,-1.1213361385623768,-0.8422679054456499,1.1246995811501115,-1.1213361385623768,high,low,,ISIC_0064656.JPG,,ISIC_7503950.JPG,28,26,false,0.28000000000000014,hl,keypress(j),0,true,569526,569525.6999998093,563150.102,563134.1000003815,563153.6,569542.5,1,40,8,
sequence,flow.Sequence,8_7,2024-03-04T21:36:48.369Z,,,,,,,,,,,6372.099999809288,completion,,,,,,,high,low,,,,,,,false,,,,,true,569526.6000003815,569525.6999998093,563150.102,563134.1000003815,563153.6,569542.5,1,40,,
trial,html.Screen,8_8_0,2024-03-04T21:36:54.415Z,,,,2,0.0199897690678184,0.0312486875504497,,0.04,false,hh,6030.39999961853,response,1.0581281450494728,1.0499999999999998,-1.1213361385623768,1.133169116569424,1.1246995811501115,-1.1213361385623768,high,high,,ISIC_5482426.JPG,,ISIC_5490352.JPG,28,27,false,0.12,hl,keypress(j),0,true,575573.3000001907,575572.8999996185,569525.7,569526.8000001907,569542.5,575580.7,1,40,9,
sequence,flow.Sequence,8_8,2024-03-04T21:36:54.416Z,,,,,,,,,,,6030.39999961853,completion,,,,,,,high,high,,,,,,,false,,,,,true,575573.8000001907,575572.8999996185,569525.7,569526.6999998093,569542.5,575580.7,1,40,,
trial,html.Screen,8_9_0,2024-03-04T21:36:57.103Z,,,,2,-0.00126575685933,-0.0325046559638838,,0.04,true,hh,2679.9999998093117,response,1.1168199061753437,1.0499999999999998,-1.1213361385623768,1.212287319329914,1.1746995811501115,-1.1213361385623768,high,high,,ISIC_5682259.JPG,,ISIC_5919355.JPG,28,30,false,0.13,hh,keypress(i),0,true,578261.1000003815,578260.6999998093,575576.332,575574,575580.7,578266.2,1,40,10,
sequence,flow.Sequence,8_9,2024-03-04T21:36:57.104Z,,,,,,,,,,,2679.9999998093117,completion,,,,,,,high,high,,,,,,,false,,,,,true,578261.8000001907,578260.6999998093,575576.332,575574,575580.7,578266.2,1,40,,
trial,html.Screen,8_10_0,2024-03-04T21:37:05.264Z,,,,2,-0.0158987717472563,-0.0292472192292015,,0.04,false,hl,8155.199999618577,response,1.0003671514840182,1.1145536127526288,-1.1213361385623768,-0.8992716557663581,1.1746995811501115,-1.1213361385623768,high,low,,ISIC_1366765.JPG,,ISIC_0061749.JPG,28,26,false,0.28000000000000014,hh,keypress(i),0,true,586421.8000001907,586421.3999996185,578264.966,578262.1000003815,578266.2,586439.6,1,40,11,
sequence,flow.Sequence,8_10,2024-03-04T21:37:05.264Z,,,,,,,,,,,8155.199999618577,completion,,,,,,,high,low,,,,,,,false,,,,,true,586422.3000001907,586421.3999996185,578264.966,578262,578266.2,586439.6,1,40,,
trial,html.Screen,8_11_0,2024-03-04T21:37:10.327Z,,,,2,0.0199897690678184,0.0312486875504497,,0.04,false,lh,5045.099999809288,response,-1.0822170028935367,1.1145536127526288,-1.1213361385623768,1.1654796154432183,1.1746995811501115,-1.1713361385623768,low,high,,ISIC_5482426.JPG,,ISIC_7288818.JPG,28,25,false,0.2600000000000001,ll,keypress(f),0,true,591485,591484.6999998093,586433.714,586422.6000003815,586439.6,591493.7,1,40,12,
sequence,flow.Sequence,8_11,2024-03-04T21:37:10.328Z,,,,,,,,,,,5045.099999809288,completion,,,,,,,low,high,,,,,,,false,,,,,true,591485.5,591484.6999998093,586433.714,586422.3999996185,586439.6,591493.7,1,40,,
trial,html.Screen,8_12_0,2024-03-04T21:37:14.320Z,,,,2,0.0127320821962457,-0.0315308940184827,,0.04,false,lh,3983.4000003815163,response,-1.055319394932912,1.1145536127526288,-1.1213361385623768,1.409116680310466,1.1746995811501115,-1.1713361385623768,low,high,,ISIC_8156101.JPG,,ISIC_6398669.JPG,28,25,false,0.2600000000000001,ll,keypress(f),0,true,595477.5,595477.1000003815,591490.338,591485.6000003815,591493.7,595497.1,1,40,13,
sequence,flow.Sequence,8_12,2024-03-04T21:37:14.320Z,,,,,,,,,,,3983.4000003815163,completion,,,,,,,low,high,,,,,,,false,,,,,true,595478,595477.1000003815,591490.338,591485.6000003815,591493.7,595497.1,1,40,,
trial,html.Screen,8_13_0,2024-03-04T21:37:23.872Z,,,,2,-0.0118555311043871,-0.0087774532070196,,0.04,true,hl,9532.000000381493,response,1.064425982109969,1.1145536127526288,-1.0187681989132245,-0.958564243697126,1.1746995811501115,-1.1713361385623768,high,low,,ISIC_6488658.JPG,,ISIC_3203344.JPG,28,27,false,0.31000000000000016,hl,keypress(j),0,true,605029.5,605029.1000003815,595494.68,595478.1999998093,595497.1,605038.3,1,40,14,
sequence,flow.Sequence,8_13,2024-03-04T21:37:23.872Z,,,,,,,,,,,9532.000000381493,completion,,,,,,,high,low,,,,,,,false,,,,,true,605030,605029.1000003815,595494.68,595478.1999998093,595497.1,605038.3,1,40,,
trial,html.Screen,8_14_0,2024-03-04T21:37:28.432Z,,,,2,0.0127320821962457,-0.0315308940184827,,0.04,false,ll,4550.800000381423,response,-0.968277930473984,1.0645536127526287,-1.0187681989132245,-1.0901346674420178,1.1746995811501115,-1.1713361385623768,low,low,,ISIC_8156101.JPG,,ISIC_0519386.JPG,28,28,false,0.1,hl,keypress(j),0,true,609589.5,609589.1000003815,605030.992,605030.3000001907,605038.3,609592.1,1,40,15,
sequence,flow.Sequence,8_14,2024-03-04T21:37:28.432Z,,,,,,,,,,,4550.800000381423,completion,,,,,,,low,low,,,,,,,false,,,,,true,609590,609589.1000003815,605030.992,605030.1000003815,605038.3,609592.1,1,40,,
trial,html.Screen,8_15_0,2024-03-04T21:37:31.879Z,,,,2,-0.0166849894750452,0.0371614812368835,,0.04,true,hh,3444.2999996185536,response,1.1305948371148624,1.0645536127526287,-1.0687681989132245,1.2802709447034604,1.1746995811501115,-0.9743494555695718,high,high,,ISIC_6231450.JPG,,ISIC_5648111.JPG,28,28,false,0.13,hh,keypress(i),0,true,613036.6999998093,613036.3999996185,609589.048,609590.1999998093,609592.1,613045,1,40,16,
sequence,flow.Sequence,8_15,2024-03-04T21:37:31.879Z,,,,,,,,,,,3444.2999996185536,completion,,,,,,,high,high,,,,,,,false,,,,,true,613037.1000003815,613036.3999996185,609589.048,609590.1000003815,609592.1,613045,1,40,,
trial,html.Screen,8_16_0,2024-03-04T21:37:40.640Z,,,,2,0.0327772618698018,-0.0056908372048728,,0.04,false,hh,8752.300000190735,response,1.0066944863194518,1.0645536127526287,-1.0687681989132245,1.2755557894401093,1.1746995811501115,-0.9743494555695718,high,high,,ISIC_7897925.JPG,,ISIC_3885041.JPG,28,28,false,0.13,hl,keypress(j),0,true,621797.6999998093,621797.3000001907,613042.692,613037.1999998093,613045,621812.256,1,40,17,
sequence,flow.Sequence,8_16,2024-03-04T21:37:40.640Z,,,,,,,,,,,8752.300000190735,completion,,,,,,,high,high,,,,,,,false,,,,,true,621798.1000003815,621797.3000001907,613042.692,613037.1999998093,613045,621812.256,1,40,,
trial,html.Screen,8_17_0,2024-03-04T21:37:44.600Z,,,,2,-0.012810673904807,0.00400964452501,,0.04,true,hl,3944.8440003814176,response,1.2615315960773072,1.093482715511456,-1.0687681989132245,-1.194084675079932,1.1746995811501115,-0.9743494555695718,high,low,,ISIC_0064656.JPG,,ISIC_0010044.JPG,28,25,false,0.2400000000000001,hl,keypress(j),0,true,625757.6000003815,625757.1000003815,621812.256,621798.3999996185,621812.256,625772.1,1,40,18,
sequence,flow.Sequence,8_17,2024-03-04T21:37:44.600Z,,,,,,,,,,,3944.8440003814176,completion,,,,,,,high,low,,,,,,,false,,,,,true,625758.1999998093,625757.1000003815,621812.256,621798.3999996185,621812.256,625772.1,1,40,,
trial,html.Screen,8_18_0,2024-03-04T21:37:52.208Z,,,,2,-0.012020985739544,0.0126097407389903,,0.04,false,lh,7593.200000190758,response,-0.8561946552009824,1.093482715511456,-1.0687681989132245,0.9282171889213044,1.1746995811501115,-0.9743494555695718,low,high,,ISIC_0069379.JPG,,ISIC_3065032.JPG,28,26,false,0.2500000000000001,hh,keypress(i),0,true,633365.6999998093,633365.3000001907,625769.482,625758.3999996185,625772.1,633378.3,1,40,19,
sequence,flow.Sequence,8_18,2024-03-04T21:37:52.208Z,,,,,,,,,,,7593.200000190758,completion,,,,,,,low,high,,,,,,,false,,,,,true,633366.3000001907,633365.3000001907,625769.482,625758.3999996185,625772.1,633378.3,1,40,,
trial,html.Screen,8_19_0,2024-03-04T21:37:56.927Z,,,,2,0.0127320821962457,-0.0315308940184827,,0.04,false,hh,4706.099999618484,response,0.9949679201447648,1.093482715511456,-1.1187681989132245,1.0468574143792184,1.1746995811501115,-0.9743494555695718,high,high,,ISIC_8156101.JPG,,ISIC_6640753.JPG,28,26,false,0.13,hl,keypress(j),0,true,638084.8999996185,638084.3999996185,633361.8,633366.6000003815,633378.3,638099,1,40,20,
sequence,flow.Sequence,8_19,2024-03-04T21:37:56.927Z,,,,,,,,,,,4706.099999618484,completion,,,,,,,high,high,,,,,,,false,,,,,true,638085.3000001907,638084.3999996185,633361.8,633366.3999996185,633378.3,638099,1,40,,
trial,html.Screen,8_20_0,2024-03-04T21:38:06.192Z,,,,2,-0.0060918352854008,0.029032683404407,,0.04,true,hh,9250.300000190735,response,0.8063516437671352,0.9115925545330346,-1.1187681989132245,1.2735677300000927,1.1746995811501115,-0.9743494555695718,high,high,,ISIC_8436194.JPG,,ISIC_0418738.JPG,28,30,false,0.11,hh,keypress(i),0,true,647349.6999998093,647349.3000001907,638082.2,638085.6000003815,638099,647356.6,1,40,21,
sequence,flow.Sequence,8_20,2024-03-04T21:38:06.192Z,,,,,,,,,,,9250.300000190735,completion,,,,,,,high,high,,,,,,,false,,,,,true,647350.1999998093,647349.3000001907,638082.2,638085.5,638099,647356.6,1,40,,
trial,html.Screen,8_21_0,2024-03-04T21:38:11.909Z,,,,2,0.0086413421586899,0.0360184993500958,,0.04,true,ll,5710.500000381493,response,-1.1320017221158485,0.9115925545330346,-1.1187681989132245,-1.065213496692536,1.1746995811501115,-0.9743494555695718,low,low,,ISIC_0010767.JPG,,ISIC_0030597.JPG,28,34,false,0.1,ll,keypress(f),0,true,653067.3000001907,653067.1000003815,647349.67,647350.5,647356.6,653078,1,40,22,
sequence,flow.Sequence,8_21,2024-03-04T21:38:11.910Z,,,,,,,,,,,5710.500000381493,completion,,,,,,,low,low,,,,,,,false,,,,,true,653067.5,653067.1000003815,647349.67,647350.3000001907,647356.6,653078,1,40,,
trial,html.Screen,8_22_0,2024-03-04T21:38:16.605Z,,,,2,-0.0060934073440827,-0.0279108145883031,,0.04,false,ll,4684.800000190735,response,-1.084683602025889,0.9115925545330346,-1.1187681989132245,-1.0111744161375118,1.1746995811501115,-1.0486076094041923,low,low,,ISIC_0032604.JPG,,ISIC_0069946.JPG,28,29,false,0.11,lh,keypress(e),0,true,657762.8999996185,657762.8000001907,653061.3,653067.6000003815,653078,657765.1,1,40,23,
sequence,flow.Sequence,8_22,2024-03-04T21:38:16.605Z,,,,,,,,,,,4684.800000190735,completion,,,,,,,low,low,,,,,,,false,,,,,true,657763,657762.8000001907,653061.3,653067.6000003815,653078,657765.1,1,40,,
trial,html.Screen,8_23_0,2024-03-04T21:38:20.599Z,,,,2,0.0321039635696159,0.020496766286318,,0.04,false,ll,3991.7999996185536,response,-1.0762260610050776,0.9115925545330346,-1.0583426620708687,-1.1184338818466155,1.1746995811501115,-1.0986076094041923,low,low,,ISIC_0058063.JPG,,ISIC_0058666.JPG,28,30,false,0.1,lh,keypress(e),0,true,661757.3000001907,661756.8999996185,657762.186,657763.1999998093,657765.1,661768.5,1,40,24,
sequence,flow.Sequence,8_23,2024-03-04T21:38:20.600Z,,,,,,,,,,,3991.7999996185536,completion,,,,,,,low,low,,,,,,,false,,,,,true,661757.6999998093,661756.8999996185,657762.186,657763.1999998093,657765.1,661768.5,1,40,,
trial,html.Screen,8_24_0,2024-03-04T21:38:25.317Z,,,,2,0.0321039635696159,0.020496766286318,,0.04,true,lh,4705.89999961853,response,-0.9046170303418553,0.9115925545330346,-1.0583426620708687,1.0063426986460375,1.1746995811501115,-1.1486076094041924,low,high,,ISIC_0058063.JPG,,ISIC_0055759.JPG,28,28,false,0.2500000000000001,lh,keypress(e),0,true,666474.6000003815,666474.3999996185,661766.18,661757.8999996185,661768.5,666488.9,1,40,25,
sequence,flow.Sequence,8_24,2024-03-04T21:38:25.317Z,,,,,,,,,,,4705.89999961853,completion,,,,,,,low,high,,,,,,,false,,,,,true,666474.6999998093,666474.3999996185,661766.18,661757.8999996185,661768.5,666488.9,1,40,,
trial,html.Screen,8_25_0,2024-03-04T21:38:30.000Z,,,,2,0.0327772618698018,-0.0056908372048728,,0.04,true,hl,4668.400000190712,response,0.9445114955578736,0.9115925545330346,-1.0083426620708686,-1.0054210059625863,1.1246995811501115,-1.1486076094041924,high,low,,ISIC_7897925.JPG,,ISIC_0033807.JPG,28,25,false,0.2400000000000001,hl,keypress(j),0,true,671157.6999998093,671157.3000001907,666472.5,666474.6999998093,666488.9,671176.7,1,40,26,
sequence,flow.Sequence,8_25,2024-03-04T21:38:30.000Z,,,,,,,,,,,4668.400000190712,completion,,,,,,,high,low,,,,,,,false,,,,,true,671158.1999998093,671157.3000001907,666472.5,666474.6999998093,666488.9,671176.7,1,40,,
trial,html.Screen,8_26_0,2024-03-04T21:38:35.543Z,,,,2,0.0365981355399771,0.0162670920008846,,0.04,false,lh,5524.100000190781,response,-0.9046170303418553,0.8615925545330345,-1.0083426620708686,1.0063426986460375,1.1246995811501115,-1.1486076094041924,low,high,,ISIC_0982855.JPG,,ISIC_0055759.JPG,28,27,false,0.2300000000000001,ll,keypress(f),0,true,676701.3000001907,676700.8000001907,671172.852,671158.5,671176.7,676714.3,1,40,27,
sequence,flow.Sequence,8_26,2024-03-04T21:38:35.544Z,,,,,,,,,,,5524.100000190781,completion,,,,,,,low,high,,,,,,,false,,,,,true,676701.8000001907,676700.8000001907,671172.852,671158.3999996185,671176.7,676714.3,1,40,,
trial,html.Screen,8_27_0,2024-03-04T21:38:42.751Z,,,,2,-0.012810673904807,0.00400964452501,,0.04,true,ll,7194.099999618484,response,-0.9695913930841004,0.8615925545330345,-1.0083426620708686,-1.2261129408494682,1.1746995811501115,-1.1486076094041924,low,low,,ISIC_0064656.JPG,,ISIC_0028086.JPG,28,30,false,0.1,ll,keypress(f),0,true,683908.6000003815,683908.3999996185,676697.7,676702,676714.3,683920.1,1,40,28,
sequence,flow.Sequence,8_27,2024-03-04T21:38:42.751Z,,,,,,,,,,,7194.099999618484,completion,,,,,,,low,low,,,,,,,false,,,,,true,683908.8000001907,683908.3999996185,676697.7,676701.8999996185,676714.3,683920.1,1,40,,
trial,html.Screen,8_28_0,2024-03-04T21:38:48.096Z,,,,2,0.0365981355399771,0.0162670920008846,,0.04,false,hl,5333.000000381493,response,0.8779374983479176,0.8615925545330345,-1.0153649855956617,-0.9745548032823428,1.1746995811501115,-1.0153649855956617,high,low,,ISIC_0982855.JPG,,ISIC_2991354.JPG,28,25,false,0.17000000000000004,ll,keypress(f),0,true,689253.5,689253.1000003815,683915.052,683909.1000003815,683920.1,689270.726,1,40,29,
sequence,flow.Sequence,8_28,2024-03-04T21:38:48.096Z,,,,,,,,,,,5333.000000381493,completion,,,,,,,high,low,,,,,,,false,,,,,true,689254,689253.1000003815,683915.052,683909,683920.1,689270.726,1,40,,
trial,html.Screen,8_29_0,2024-03-04T21:38:54.360Z,,,,2,-0.00126575685933,-0.0325046559638838,,0.04,false,lh,6246.8740003814455,response,-0.8015753713975186,0.9115925545330346,-1.0153649855956617,1.0067065355978264,1.1746995811501115,-1.0153649855956617,low,high,,ISIC_5682259.JPG,,ISIC_0002119.JPG,28,25,false,0.2300000000000001,hl,keypress(j),0,true,695517.8999996185,695517.6000003815,689270.726,689254.1999998093,689270.726,695529.7,1,40,30,
sequence,flow.Sequence,8_29,2024-03-04T21:38:54.361Z,,,,,,,,,,,6246.8740003814455,completion,,,,,,,low,high,,,,,,,false,,,,,true,695518.3999996185,695517.6000003815,689270.726,689254.1999998093,689270.726,695529.7,1,40,,
trial,html.Screen,8_30_0,2024-03-04T21:39:10.353Z,,,,2,-0.012810673904807,0.00400964452501,,0.04,,,16013.600000000093,timeout,0.7222350000626421,0.9115925545330346,-1.0653649855956617,-1.1440026895944202,1.1746995811501115,-1.0153649855956617,high,low,,ISIC_0064656.JPG,,ISIC_0031214.JPG,28,27,false,0.19000000000000006,,,0,true,711511,711510.6999998093,695525.29,695518.6000003815,695529.7,711543.3,1,40,31,
sequence,flow.Sequence,8_30,2024-03-04T21:39:10.354Z,,,,,,,,,,,15980.999999809312,completion,,,,,,,high,low,,,,,,,false,,,,,true,711511.5,711510.6999998093,695525.29,695518.5,695529.7,711543.3,1,40,,
trial,html.Screen,8_31_0,2024-03-04T21:39:18.304Z,,,,2,-0.0166849894750452,0.0371614812368835,,0.04,true,lh,7918.199999999953,response,-1.2704198237183777,0.9115925545330346,-1.0653649855956617,1.138121072015301,1.1746995811501115,-1.0153649855956617,low,high,,ISIC_6231450.JPG,,ISIC_0501843.JPG,28,26,false,0.2500000000000001,lh,keypress(e),0,true,719462,719461.5,711526.2,711511.6999998093,711543.3,719466.3,1,40,32,
sequence,flow.Sequence,8_31,2024-03-04T21:39:18.305Z,,,,,,,,,,,7918.199999999953,completion,,,,,,,low,high,,,,,,,false,,,,,true,719462.6000003815,719461.5,711526.2,711511.6000003815,711543.3,719466.3,1,40,,
trial,html.Screen,8_32_0,2024-03-04T21:39:24.566Z,,,,2,-0.0350697500805515,-0.0166617848231997,,0.04,true,hl,6257.500000190688,response,0.9445114955578736,0.9115925545330346,-1.0653649855956617,-1.0054210059625863,1.1746995811501115,-1.0153649855956617,high,low,,ISIC_0024423.JPG,,ISIC_0033807.JPG,28,27,false,0.19000000000000006,hl,keypress(j),0,true,725723.8000001907,725723.8000001907,719460.456,719463,719466.3,725738.1,1,40,33,
sequence,flow.Sequence,8_32,2024-03-04T21:39:24.566Z,,,,,,,,,,,6257.500000190688,completion,,,,,,,high,low,,,,,,,false,,,,,true,725723.8999996185,725723.8000001907,719460.456,719462.8999996185,719466.3,725738.1,1,40,,
trial,html.Screen,8_33_0,2024-03-04T21:39:29.591Z,,,,2,-0.012020985739544,0.0126097407389903,,0.04,false,hh,5010.599999809288,response,0.9133847107512522,0.9115925545330346,-1.0653649855956617,1.1467555629414397,1.1746995811501115,-0.9653649855956616,high,high,,ISIC_0069379.JPG,,ISIC_0032171.JPG,28,30,false,0.11,hl,keypress(j),0,true,730749.1000003815,730748.6999998093,725721.2,725723.8999996185,725738.1,730758.9,1,40,34,
sequence,flow.Sequence,8_33,2024-03-04T21:39:29.592Z,,,,,,,,,,,5010.599999809288,completion,,,,,,,high,high,,,,,,,false,,,,,true,730749.5,730748.6999998093,725721.2,725723.8999996185,725738.1,730758.9,1,40,,
trial,html.Screen,8_34_0,2024-03-04T21:39:36.088Z,,,,2,-0.0023664502831079,-0.0252784582169994,,0.04,true,lh,6486.700000381446,response,-1.296989496412063,0.8789481031545628,-1.0653649855956617,1.1425074323097002,1.1746995811501115,-0.9653649855956616,low,high,,ISIC_4156010.JPG,,ISIC_6356803.JPG,28,26,false,0.2500000000000001,lh,keypress(e),0,true,737246,737245.6000003815,730755.372,730749.8000001907,730758.9,737264.5,1,40,35,
sequence,flow.Sequence,8_34,2024-03-04T21:39:36.089Z,,,,,,,,,,,6486.700000381446,completion,,,,,,,low,high,,,,,,,false,,,,,true,737246.6000003815,737245.6000003815,730755.372,730749.8000001907,730758.9,737264.5,1,40,,
trial,html.Screen,8_35_0,2024-03-04T21:39:39.919Z,,,,2,0.0321039635696159,0.020496766286318,,0.04,false,hh,3812.3999996185303,response,0.9191486333136276,0.8789481031545628,-1.0153649855956617,1.080719641270871,1.1746995811501115,-0.9653649855956616,high,high,,ISIC_0058063.JPG,,ISIC_0663941.JPG,28,25,false,0.1,lh,keypress(e),0,true,741077.1999998093,741076.8999996185,737242.804,737246.8000001907,737264.5,741084,1,40,36,
sequence,flow.Sequence,8_35,2024-03-04T21:39:39.920Z,,,,,,,,,,,3812.3999996185303,completion,,,,,,,high,high,,,,,,,false,,,,,true,741077.6999998093,741076.8999996185,737242.804,737246.6999998093,737264.5,741084,1,40,,
trial,html.Screen,8_36_0,2024-03-04T21:39:46.869Z,,,,2,-0.0166849894750452,0.0371614812368835,,0.04,true,ll,6942.39999961853,response,-0.9588812385345452,0.9289481031545629,-1.0153649855956617,-0.9060043635318688,1.0616135367902857,-0.9653649855956616,low,low,,ISIC_6231450.JPG,,ISIC_0069986.JPG,28,46,false,0.1,ll,keypress(f),0,true,748026.5,748026.3999996185,741081.61,741077.8999996185,741084,748039.7,1,40,37,
sequence,flow.Sequence,8_36,2024-03-04T21:39:46.869Z,,,,,,,,,,,6942.39999961853,completion,,,,,,,low,low,,,,,,,false,,,,,true,748026.5,748026.3999996185,741081.61,741077.8000001907,741084,748039.7,1,40,,
trial,html.Screen,8_37_0,2024-03-04T21:39:54.712Z,,,,2,-0.0077673378094614,-0.0021810768579373,,0.04,false,lh,7829.600000190781,response,-0.8561946552009824,0.9289481031545629,-1.0153649855956617,0.9282171889213044,1.0616135367902857,-0.9653649855956616,low,high,,ISIC_0067621.JPG,,ISIC_3065032.JPG,28,25,false,0.22000000000000008,hh,keypress(i),0,true,755869.6000003815,755869.3000001907,748023.2,748026.5,748039.7,755879.6,1,40,38,
sequence,flow.Sequence,8_37,2024-03-04T21:39:54.712Z,,,,,,,,,,,7829.600000190781,completion,,,,,,,low,high,,,,,,,false,,,,,true,755870.1999998093,755869.3000001907,748023.2,748026.5,748039.7,755879.6,1,40,,
trial,html.Screen,8_38_0,2024-03-04T21:40:01.120Z,,,,2,0.0367218428225813,-0.0026956749740767,,0.04,false,lh,6397.599999809288,response,-0.9566823908868002,0.9289481031545629,-1.0653649855956617,0.9602125665128364,1.0616135367902857,-0.9653649855956616,low,high,,ISIC_7212271.JPG,,ISIC_0056784.JPG,28,26,false,0.2300000000000001,ll,keypress(f),0,true,762277.6000003815,762277.1999998093,755873.826,755870.3999996185,755879.6,762284.9,1,40,39,
sequence,flow.Sequence,8_38,2024-03-04T21:40:01.120Z,,,,,,,,,,,6397.599999809288,completion,,,,,,,low,high,,,,,,,false,,,,,true,762278.1000003815,762277.1999998093,755873.826,755870.3000001907,755879.6,762284.9,1,40,,
trial,html.Screen,8_39_0,2024-03-04T21:40:05.672Z,,,,2,-0.0060934073440827,-0.0279108145883031,,0.04,false,ll,4544.099999999977,response,-1.109729032348591,0.9289481031545629,-1.0653649855956617,-0.9587230726994566,1.1116135367902857,-0.9653649855956616,low,low,,ISIC_0032604.JPG,,ISIC_0055289.JPG,28,44,false,0.1,lh,keypress(e),0,true,766829.3000001907,766829,762280.584,762278.3999996185,762284.9,766838.6,1,40,40,
sequence,flow.Sequence,8_39,2024-03-04T21:40:05.672Z,,,,,,,,,,,4544.099999999977,completion,,,,,,,low,low,,,,,,,false,,,,,true,766829.8999996185,766829,762280.584,762278.1999998093,762284.9,766838.6,1,40,,
stair_loop,flow.Loop,8,2024-03-04T21:40:05.672Z,,,,,,,,,,,259604.87,completion,,,,,,,,,,,,,,,false,,,,,true,766830.1999998093,766829,507224.13,507219.10000038147,507224.13,766838.6,1,40,,
exp_instructions,html.Screen,9,2024-03-04T21:40:28.855Z,,,,,,,,,,,23173.59999980929,response,,,,,,,,,,,,,,,,,continue,keypress(Space),,,790013.3000001907,790012.1999998093,766835.858,766830.3999996185,766838.6,790024.4,,,,
trial,html.Screen,10_0_0,2024-03-04T21:40:35.381Z,,,,1,-0.012020985739544,0.0126097407389903,,0.04,false,lh,6515.099999999977,response,-0.9448560599810628,0.9042992191194934,-1.0516198867120974,0.9099421612683488,1.1495823722781464,-1.0262362197356123,low,high,,ISIC_0069379.JPG,9,ISIC_9684318.JPG,28,25,false,0.2400000000000001,hh,keypress(i),0,false,796539.6000003815,796539.5,790021.006,790013.6999998093,790024.4,796546.5,5,600,1,
break,html.Screen,10_0_1,2024-03-04T21:40:35.382Z,,,,,,,,,,,NaN,,,,,,,,low,high,,,,,,,false,,,,,false,796540.1000003815,796540,,796539.6999998093,,796546.5,5,600,,
break_continue,html.Screen,10_0_2,2024-03-04T21:40:35.382Z,,,,,,,,,,,NaN,,,,,,,,low,high,,,,,,,false,,,,,false,796540.3999996185,796540.3000001907,,796540.1999998093,,796546.5,5,600,,
sequence,flow.Sequence,10_0,2024-03-04T21:40:35.382Z,,,,,,,,,,,6515.900000190712,completion,,,,,,,low,high,,,,,,,false,,,,,false,796540.5,796540.3000001907,790021.006,790013.6000003815,790024.4,796546.5,5,600,,
trial,html.Screen,10_1_0,2024-03-04T21:40:41.567Z,,,,1,-0.0158987717472563,-0.0292472192292015,,0.04,true,hl,6178.699999809265,response,0.9039158082670506,0.9042992191194934,-1.0516198867120974,-1.0517562064343149,1.1495823722781464,-1.0262362197356123,high,low,,ISIC_1366765.JPG,8,ISIC_0015411.JPG,28,25,false,0.19000000000000006,hl,keypress(j),0,false,802725.6000003815,802725.1999998093,796541.736,796540.6000003815,796546.5,802735,5,600,2,
break,html.Screen,10_1_1,2024-03-04T21:40:41.569Z,,,,,,,,,,,NaN,,,,,,,,high,low,,,,,,,false,,,,,false,802727.1999998093,802726.6000003815,,802726,,802735,5,600,,
break_continue,html.Screen,10_1_2,2024-03-04T21:40:41.570Z,,,,,,,,,,,NaN,,,,,,,,high,low,,,,,,,false,,,,,false,802728.1999998093,802727.8000001907,,802727.5,,802735,5,600,,
sequence,flow.Sequence,10_1,2024-03-04T21:40:41.570Z,,,,,,,,,,,6181.300000190735,completion,,,,,,,high,low,,,,,,,false,,,,,false,802728.5,802727.8000001907,796541.736,796540.6000003815,796546.5,802735,5,600,,
trial,html.Screen,10_2_0,2024-03-04T21:40:46.519Z,,,,1,0.0051046740562181,-0.0178832721027728,,0.04,true,hh,4941.89999961853,response,0.8789245418555859,0.9042992191194934,-1.0516198867120974,1.207575413157872,1.1495823722781464,-1.0262362197356123,high,high,,ISIC_9545819.JPG,9,ISIC_0001602.JPG,28,27,false,0.1,hh,keypress(i),0,false,807677.3000001907,807676.8999996185,802730.726,802728.8000001907,802735,807689,5,600,3,
break,html.Screen,10_2_1,2024-03-04T21:40:46.520Z,,,,,,,,,,,NaN,,,,,,,,high,high,,,,,,,false,,,,,false,807678.8000001907,807678.3999996185,,807677.6999998093,,807689,5,600,,
break_continue,html.Screen,10_2_2,2024-03-04T21:40:46.521Z,,,,,,,,,,,NaN,,,,,,,,high,high,,,,,,,false,,,,,false,807679.6999998093,807679.3999996185,,807679.1000003815,,807689,5,600,,
sequence,flow.Sequence,10_2,2024-03-04T21:40:46.522Z,,,,,,,,,,,4944.39999961853,completion,,,,,,,high,high,,,,,,,false,,,,,false,807680.1000003815,807679.3999996185,802730.726,802728.6000003815,802735,807689,5,600,,
trial,html.Screen,10_3_0,2024-03-04T21:40:50.471Z,,,,1,-0.0071892445601978,0.0246015408628738,,0.04,false,lh,3939.6000003814697,response,-0.9566823908868002,0.9042992191194934,-1.0516198867120974,0.9602125665128364,1.1495823722781464,-1.0262362197356123,low,high,,ISIC_0014133.JPG,9,ISIC_0056784.JPG,28,25,false,0.2400000000000001,ll,keypress(f),0,false,811629,811628.6000003815,807688.32,807680.3000001907,807689,811642.3,5,600,4,
break,html.Screen,10_3_1,2024-03-04T21:40:50.472Z,,,,,,,,,,,NaN,,,,,,,,low,high,,,,,,,false,,,,,false,811630.5,811630.1000003815,,811629.5,,811642.3,5,600,,
break_continue,html.Screen,10_3_2,2024-03-04T21:40:50.473Z,,,,,,,,,,,NaN,,,,,,,,low,high,,,,,,,false,,,,,false,811631.3999996185,811631.1000003815,,811630.6999998093,,811642.3,5,600,,
sequence,flow.Sequence,10_3,2024-03-04T21:40:50.473Z,,,,,,,,,,,3942.1000003814697,completion,,,,,,,low,high,,,,,,,false,,,,,false,811631.8000001907,811631.1000003815,807688.32,807680.1999998093,807689,811642.3,5,600,,
trial,html.Screen,10_4_0,2024-03-04T21:40:56.024Z,,,,1,0.010035581303589,-0.0100711721396864,,0.04,false,ll,5540.000000190688,response,-0.968277930473984,0.9042992191194934,-1.0516198867120974,-1.0901346674420178,1.1495823722781464,-1.0262362197356123,low,low,,ISIC_0030592.JPG,9,ISIC_0519386.JPG,28,33,false,0.1,lh,keypress(e),0,false,817182.8000001907,817182.3000001907,811625.6,811631.8999996185,811642.3,817197.2,5,600,5,
break,html.Screen,10_4_1,2024-03-04T21:40:56.025Z,,,,,,,,,,,NaN,,,,,,,,low,low,,,,,,,false,,,,,false,817183.6999998093,817183.5,,817183.3000001907,,817197.2,5,600,,
break_continue,html.Screen,10_4_2,2024-03-04T21:40:56.025Z,,,,,,,,,,,NaN,,,,,,,,low,low,,,,,,,false,,,,,false,817183.8000001907,817183.8000001907,,817183.6999998093,,817197.2,5,600,,
sequence,flow.Sequence,10_4,2024-03-04T21:40:56.026Z,,,,,,,,,,,5541.500000190688,completion,,,,,,,low,low,,,,,,,false,,,,,false,817183.8999996185,817183.8000001907,811625.6,811631.8000001907,811642.3,817197.2,5,600,,
trial,html.Screen,10_5_0,2024-03-04T21:41:02.415Z,,,,1,-0.0060934073440827,-0.0279108145883031,,0.04,false,hl,6375.699999618577,response,0.8129823105338526,0.9042992191194934,-1.0516198867120974,-0.9655386457143784,1.1495823722781464,-1.0262362197356123,high,low,,ISIC_0032604.JPG,9,ISIC_8268025.JPG,28,25,false,0.19000000000000006,hh,keypress(i),0,false,823573.3000001907,823572.8999996185,817180.3,817184,817197.2,823585.7,5,600,6,
break,html.Screen,10_5_1,2024-03-04T21:41:02.417Z,,,,,,,,,,,NaN,,,,,,,,high,low,,,,,,,false,,,,,false,823575.1000003815,823574.3999996185,,823573.8000001907,,823585.7,5,600,,
break_continue,html.Screen,10_5_2,2024-03-04T21:41:02.418Z,,,,,,,,,,,NaN,,,,,,,,high,low,,,,,,,false,,,,,false,823576,823575.6999998093,,823575.3999996185,,823585.7,5,600,,
sequence,flow.Sequence,10_5,2024-03-04T21:41:02.418Z,,,,,,,,,,,6378.499999809312,completion,,,,,,,high,low,,,,,,,false,,,,,false,823576.3000001907,823575.6999998093,817180.3,817183.8999996185,817197.2,823585.7,5,600,,
trial,html.Screen,10_6_0,2024-03-04T21:41:11.311Z,,,,1,0.0051046740562181,-0.0178832721027728,,0.04,false,hh,8883.199999618577,response,0.9584046290108544,0.9042992191194934,-1.0516198867120974,1.2089382903602173,1.1495823722781464,-1.0262362197356123,high,high,,ISIC_9545819.JPG,10,ISIC_4874581.JPG,28,27,false,0.1,hl,keypress(j),0,false,832469.3000001907,832468.8999996185,823569.1,823576.6000003815,823585.7,832488.288,5,600,7,
break,html.Screen,10_6_1,2024-03-04T21:41:11.312Z,,,,,,,,,,,NaN,,,,,,,,high,high,,,,,,,false,,,,,false,832470.8000001907,832470.3000001907,,832469.6999998093,,832488.288,5,600,,
break_continue,html.Screen,10_6_2,2024-03-04T21:41:11.313Z,,,,,,,,,,,NaN,,,,,,,,high,high,,,,,,,false,,,,,false,832471.6000003815,832471.3000001907,,832471,,832488.288,5,600,,
sequence,flow.Sequence,10_6,2024-03-04T21:41:11.314Z,,,,,,,,,,,8885.600000190781,completion,,,,,,,high,high,,,,,,,false,,,,,false,832472,832471.3000001907,823569.1,823576.5,823585.7,832488.288,5,600,,
trial,html.Screen,10_7_0,2024-03-04T21:41:16.670Z,,,,1,-0.012020985739544,0.0126097407389903,,0.04,true,lh,5340.3120003815275,response,-1.0961318727760048,0.9042992191194934,-1.0516198867120974,1.2134960228256146,1.1495823722781464,-1.0262362197356123,low,high,,ISIC_0069379.JPG,9,ISIC_9768421.JPG,28,25,false,0.2400000000000001,lh,keypress(e),0,false,837828.8999996185,837828.6000003815,832488.288,832472.1999998093,832488.288,837848.5,5,600,8,
break,html.Screen,10_7_1,2024-03-04T21:41:16.672Z,,,,,,,,,,,NaN,,,,,,,,low,high,,,,,,,false,,,,,false,837830.1999998093,837829.8999996185,,837829.3000001907,,837848.5,5,600,,
break_continue,html.Screen,10_7_2,2024-03-04T21:41:16.673Z,,,,,,,,,,,NaN,,,,,,,,low,high,,,,,,,false,,,,,false,837831.1000003815,837830.8000001907,,837830.5,,837848.5,5,600,,
sequence,flow.Sequence,10_7,2024-03-04T21:41:16.673Z,,,,,,,,,,,5342.512000190793,completion,,,,,,,low,high,,,,,,,false,,,,,false,837831.3000001907,837830.8000001907,832488.288,832472.1000003815,832488.288,837848.5,5,600,,
trial,html.Screen,10_8_0,2024-03-04T21:41:23.863Z,,,,1,0.0321039635696159,0.020496766286318,,0.04,false,hl,7172.699999809265,response,1.0143509683988825,0.9042992191194934,-1.0516198867120974,-1.0281980567462463,1.1495823722781464,-1.0262362197356123,high,low,,ISIC_0058063.JPG,9,ISIC_0062031.JPG,28,25,false,0.19000000000000006,lh,keypress(e),0,false,845021.6999998093,845021.1999998093,837843.862,837831.5,837848.5,845036.6,5,600,9,
break,html.Screen,10_8_1,2024-03-04T21:41:23.865Z,,,,,,,,,,,NaN,,,,,,,,high,low,,,,,,,false,,,,,false,845023.3000001907,845022.6999998093,,845022,,845036.6,5,600,,
break_continue,html.Screen,10_8_2,2024-03-04T21:41:23.866Z,,,,,,,,,,,NaN,,,,,,,,high,low,,,,,,,false,,,,,false,845024.3000001907,845023.8999996185,,845023.5,,845036.6,5,600,,
sequence,flow.Sequence,10_8,2024-03-04T21:41:23.866Z,,,,,,,,,,,7175.39999961853,completion,,,,,,,high,low,,,,,,,false,,,,,false,845024.5,845023.8999996185,837843.862,837831.3999996185,837848.5,845036.6,5,600,,
trial,html.Screen,10_9_0,2024-03-04T21:41:30.078Z,,,,1,0.010035581303589,-0.0100711721396864,,0.04,true,lh,6199.500000381493,response,-0.9046170303418553,0.9042992191194934,-1.0516198867120974,1.0063426986460375,1.1495823722781464,-1.0262362197356123,low,high,,ISIC_0030592.JPG,8,ISIC_0055759.JPG,28,25,false,0.2400000000000001,lh,keypress(e),0,false,851236.3999996185,851236.1000003815,845034.664,845024.8999996185,845036.6,851241.6,5,600,10,
break,html.Screen,10_9_1,2024-03-04T21:41:30.079Z,,,,,,,,,,,NaN,,,,,,,,low,high,,,,,,,false,,,,,false,851237.3000001907,851237,,851236.6999998093,,851241.6,5,600,,
break_continue,html.Screen,10_9_2,2024-03-04T21:41:30.080Z,,,,,,,,,,,NaN,,,,,,,,low,high,,,,,,,false,,,,,false,851237.8000001907,851237.6000003815,,851237.5,,851241.6,5,600,,
sequence,flow.Sequence,10_9,2024-03-04T21:41:30.080Z,,,,,,,,,,,6201.000000381493,completion,,,,,,,low,high,,,,,,,false,,,,,false,851238,851237.6000003815,845034.664,845024.8000001907,845036.6,851241.6,5,600,,
trial,html.Screen,10_10_0,2024-03-04T21:41:35.896Z,,,,1,-0.0077673378094614,-0.0021810768579373,,0.04,true,hl,5811.599999809288,response,0.8150886811691144,0.9042992191194934,-1.0516198867120974,-0.862416038462147,1.1495823722781464,-1.0262362197356123,high,low,,ISIC_0067621.JPG,10,ISIC_0058079.JPG,28,25,false,0.19000000000000006,hl,keypress(j),0,false,857053.5,857053.1999998093,851238.864,851238.1000003815,851241.6,857063.2,5,600,11,
break,html.Screen,10_10_1,2024-03-04T21:41:35.897Z,,,,,,,,,,,NaN,,,,,,,,high,low,,,,,,,false,,,,,false,857055,857054.6000003815,,857054,,857063.2,5,600,,
break_continue,html.Screen,10_10_2,2024-03-04T21:41:35.898Z,,,,,,,,,,,NaN,,,,,,,,high,low,,,,,,,false,,,,,false,857055.8000001907,857055.5,,857055.1999998093,,857063.2,5,600,,
sequence,flow.Sequence,10_10,2024-03-04T21:41:35.898Z,,,,,,,,,,,5813.900000000023,completion,,,,,,,high,low,,,,,,,false,,,,,false,857056,857055.5,851238.864,851238,851241.6,857063.2,5,600,,
trial,html.Screen,10_11_0,2024-03-04T21:41:44.696Z,,,,1,-0.0050679133050021,-0.0174815595031679,,0.04,false,hh,8789.999999809312,response,0.9520649807922285,0.9042992191194934,-1.0516198867120974,1.2060773672502134,1.1495823722781464,-1.0262362197356123,high,high,,ISIC_9848743.JPG,9,ISIC_9439742.JPG,28,27,false,0.1,lh,keypress(e),0,false,865853.6000003815,865853.1999998093,857061.518,857056.3000001907,857063.2,865870.5,5,600,12,
break,html.Screen,10_11_1,2024-03-04T21:41:44.697Z,,,,,,,,,,,NaN,,,,,,,,high,high,,,,,,,false,,,,,false,865855.1000003815,865854.6000003815,,865854.1000003815,,865870.5,5,600,,
break_continue,html.Screen,10_11_2,2024-03-04T21:41:44.698Z,,,,,,,,,,,NaN,,,,,,,,high,high,,,,,,,false,,,,,false,865856,865855.6999998093,,865855.3000001907,,865870.5,5,600,,
sequence,flow.Sequence,10_11,2024-03-04T21:41:44.698Z,,,,,,,,,,,8792.499999809312,completion,,,,,,,high,high,,,,,,,false,,,,,false,865856.3000001907,865855.6999998093,857061.518,857056.1999998093,857063.2,865870.5,5,600,,
trial,html.Screen,10_12_0,2024-03-04T21:41:53.472Z,,,,1,0.010035581303589,-0.0100711721396864,,0.04,false,ll,8759.5,response,-1.0282189783634048,0.9042992191194934,-1.0516198867120974,-0.9341202222313458,1.1495823722781464,-1.0262362197356123,low,low,,ISIC_0030592.JPG,9,ISIC_0027238.JPG,28,33,false,0.1,hl,keypress(j),0,false,874630.3999996185,874630,865853.9,865856.3999996185,865870.5,874644.5,5,600,13,
break,html.Screen,10_12_1,2024-03-04T21:41:53.474Z,,,,,,,,,,,NaN,,,,,,,,low,low,,,,,,,false,,,,,false,874631.8999996185,874631.5,,874630.8999996185,,874644.5,5,600,,
break_continue,html.Screen,10_12_2,2024-03-04T21:41:53.475Z,,,,,,,,,,,NaN,,,,,,,,low,low,,,,,,,false,,,,,false,874632.6999998093,874632.3999996185,,874632.1000003815,,874644.5,5,600,,
sequence,flow.Sequence,10_12,2024-03-04T21:41:53.475Z,,,,,,,,,,,8761.89999961853,completion,,,,,,,low,low,,,,,,,false,,,,,false,874633,874632.3999996185,865853.9,865856.3999996185,865870.5,874644.5,5,600,,
trial,html.Screen,10_13_0,2024-03-04T21:42:00.528Z,,,,1,-0.0158987717472563,-0.0292472192292015,,0.04,true,hh,7040.800000190735,response,0.8200367443437355,0.9042992191194934,-1.0516198867120974,1.1363137800725187,1.1495823722781464,-1.0262362197356123,high,high,,ISIC_1366765.JPG,9,ISIC_0553565.JPG,28,27,false,0.1,hh,keypress(i),0,false,881685.6000003815,881685.3000001907,874638.096,874633.3000001907,874644.5,881700.2,5,600,14,
break,html.Screen,10_13_1,2024-03-04T21:42:00.529Z,,,,,,,,,,,NaN,,,,,,,,high,high,,,,,,,false,,,,,false,881687.1000003815,881686.6000003815,,881686.1000003815,,881700.2,5,600,,
break_continue,html.Screen,10_13_2,2024-03-04T21:42:00.530Z,,,,,,,,,,,NaN,,,,,,,,high,high,,,,,,,false,,,,,false,881688,881687.6999998093,,881687.3000001907,,881700.2,5,600,,
sequence,flow.Sequence,10_13,2024-03-04T21:42:00.530Z,,,,,,,,,,,7043.199999809265,completion,,,,,,,high,high,,,,,,,false,,,,,false,881688.1999998093,881687.6999998093,874638.096,874633.1999998093,874644.5,881700.2,5,600,,
trial,html.Screen,10_14_0,2024-03-04T21:42:04.624Z,,,,1,0.0321039635696159,0.020496766286318,,0.04,true,hl,4081.4999998093117,response,0.8779374983479176,0.9042992191194934,-1.0516198867120974,-0.9745548032823428,1.1495823722781464,-1.0262362197356123,high,low,,ISIC_0058063.JPG,9,ISIC_2991354.JPG,28,25,false,0.19000000000000006,hl,keypress(j),0,false,885782.1000003815,885781.6999998093,881695.366,881688.3999996185,881700.2,885787,5,600,15,
break,html.Screen,10_14_1,2024-03-04T21:42:04.626Z,,,,,,,,,,,NaN,,,,,,,,high,low,,,,,,,false,,,,,false,885783.5,885783.1000003815,,885782.3999996185,,885787,5,600,,
break_continue,html.Screen,10_14_2,2024-03-04T21:42:04.626Z,,,,,,,,,,,NaN,,,,,,,,high,low,,,,,,,false,,,,,false,885784.3999996185,885784.1000003815,,885783.6999998093,,885787,5,600,,
sequence,flow.Sequence,10_14,2024-03-04T21:42:04.627Z,,,,,,,,,,,4083.9000003815163,completion,,,,,,,high,low,,,,,,,false,,,,,false,885784.6000003815,885784.1000003815,881695.366,881688.3999996185,881700.2,885787,5,600,,
trial,html.Screen,10_15_0,2024-03-04T21:42:11.416Z,,,,1,0.0051046740562181,-0.0178832721027728,,0.04,true,hh,6786.300000190735,response,0.8719826114571525,0.9042992191194934,-1.0516198867120974,1.2016542336356246,1.1495823722781464,-1.0262362197356123,high,high,,ISIC_9545819.JPG,9,ISIC_0002622.JPG,28,27,false,0.1,hh,keypress(i),0,false,892573.8000001907,892573.3000001907,885786.22,885784.8000001907,885787,892593.5,5,600,16,
break,html.Screen,10_15_1,2024-03-04T21:42:11.417Z,,,,,,,,,,,NaN,,,,,,,,high,high,,,,,,,false,,,,,false,892575.1999998093,892574.8000001907,,892574.1999998093,,892593.5,5,600,,
break_continue,html.Screen,10_15_2,2024-03-04T21:42:11.418Z,,,,,,,,,,,NaN,,,,,,,,high,high,,,,,,,false,,,,,false,892575.8000001907,892575.6000003815,,892575.3999996185,,892593.5,5,600,,
sequence,flow.Sequence,10_15,2024-03-04T21:42:11.418Z,,,,,,,,,,,6788.60000038147,completion,,,,,,,high,high,,,,,,,false,,,,,false,892576,892575.6000003815,885786.22,885784.8000001907,885787,892593.5,5,600,,
trial,html.Screen,10_16_0,2024-03-04T21:42:14.088Z,,,,1,-0.0057914759495055,0.018500200317654,,0.04,false,hh,2651.800000190735,response,0.9133847107512522,0.9042992191194934,-1.0516198867120974,1.1467555629414397,1.1495823722781464,-1.0262362197356123,high,high,,ISIC_0058723.JPG,9,ISIC_0032171.JPG,28,27,false,0.1,hl,keypress(j),0,false,895245.6999998093,895245.3000001907,892574.998,892576.1999998093,892593.5,895261.6,5,600,17,
break,html.Screen,10_16_1,2024-03-04T21:42:14.089Z,,,,,,,,,,,NaN,,,,,,,,high,high,,,,,,,false,,,,,false,895247.1000003815,895246.6999998093,,895246.1000003815,,895261.6,5,600,,
break_continue,html.Screen,10_16_2,2024-03-04T21:42:14.090Z,,,,,,,,,,,NaN,,,,,,,,high,high,,,,,,,false,,,,,false,895248,895247.6999998093,,895247.3999996185,,895261.6,5,600,,
sequence,flow.Sequence,10_16,2024-03-04T21:42:14.090Z,,,,,,,,,,,2654.199999809265,completion,,,,,,,high,high,,,,,,,false,,,,,false,895248.3000001907,895247.6999998093,892574.998,892576.1000003815,892593.5,895261.6,5,600,,
trial,html.Screen,10_17_0,2024-03-04T21:42:28.168Z,,,,1,0.0321039635696159,0.020496766286318,,0.04,false,hl,14063.500000381493,response,0.8779374983479176,0.9042992191194934,-1.0516198867120974,-0.9745548032823428,1.1495823722781464,-1.0262362197356123,high,low,,ISIC_0058063.JPG,9,ISIC_2991354.JPG,28,25,false,0.19000000000000006,ll,keypress(f),0,false,909325.5,909325.1000003815,895244.7,895248.5,895261.6,909339.6,5,600,18,
break,html.Screen,10_17_1,2024-03-04T21:42:28.169Z,,,,,,,,,,,NaN,,,,,,,,high,low,,,,,,,false,,,,,false,909326.8999996185,909326.6000003815,,909325.8999996185,,909339.6,5,600,,
break_continue,html.Screen,10_17_2,2024-03-04T21:42:28.170Z,,,,,,,,,,,NaN,,,,,,,,high,low,,,,,,,false,,,,,false,909327.6999998093,909327.5,,909327.1000003815,,909339.6,5,600,,
sequence,flow.Sequence,10_17,2024-03-04T21:42:28.170Z,,,,,,,,,,,14065.900000000023,completion,,,,,,,high,low,,,,,,,false,,,,,false,909328.1000003815,909327.5,895244.7,895248.5,895261.6,909339.6,5,600,,
trial,html.Screen,10_18_0,2024-03-04T21:42:35.864Z,,,,1,-0.0077673378094614,-0.0021810768579373,,0.04,false,ll,7681.700000190758,response,-1.0007734170042946,0.9042992191194934,-1.0516198867120974,-0.9394007494897862,1.1495823722781464,-1.0262362197356123,low,low,,ISIC_0067621.JPG,9,ISIC_0053791.JPG,28,33,false,0.1,lh,keypress(e),0,false,917021.6999998093,917021.3000001907,909323.2,909328.3000001907,909339.6,917029.3,5,600,19,
break,html.Screen,10_18_1,2024-03-04T21:42:35.867Z,,,,,,,,,,,NaN,,,,,,,,low,low,,,,,,,false,,,,,false,917024.5,917024,,917023,,917029.3,5,600,,
break_continue,html.Screen,10_18_2,2024-03-04T21:42:35.867Z,,,,,,,,,,,NaN,,,,,,,,low,low,,,,,,,false,,,,,false,917025.1999998093,917025.1999998093,,917024.8999996185,,917029.3,5,600,,
sequence,flow.Sequence,10_18,2024-03-04T21:42:35.867Z,,,,,,,,,,,7685.599999809288,completion,,,,,,,low,low,,,,,,,false,,,,,false,917025.3000001907,917025.1999998093,909323.2,909328.1999998093,909339.6,917029.3,5,600,,
trial,html.Screen,10_19_0,2024-03-04T21:42:47.688Z,,,,1,-0.012810673904807,0.00400964452501,,0.04,false,hh,11816.399999809219,response,0.9133847107512522,0.9042992191194934,-1.0516198867120974,1.1467555629414397,1.1495823722781464,-1.0262362197356123,high,high,,ISIC_0064656.JPG,9,ISIC_0032171.JPG,28,27,false,0.1,hl,keypress(j),0,false,928846.1000003815,928845.6999998093,917023.666,917025.3000001907,917029.3,928855.8,5,600,20,
break,html.Screen,10_19_1,2024-03-04T21:42:47.689Z,,,,,,,,,,,NaN,,,,,,,,high,high,,,,,,,false,,,,,false,928847.5,928847.1000003815,,928846.5,,928855.8,5,600,,
break_continue,html.Screen,10_19_2,2024-03-04T21:42:47.690Z,,,,,,,,,,,NaN,,,,,,,,high,high,,,,,,,false,,,,,false,928848.3999996185,928848.1000003815,,928847.6999998093,,928855.8,5,600,,
sequence,flow.Sequence,10_19,2024-03-04T21:42:47.691Z,,,,,,,,,,,11818.800000381423,completion,,,,,,,high,high,,,,,,,false,,,,,false,928848.6999998093,928848.1000003815,917023.666,917025.3000001907,917029.3,928855.8,5,600,,
trial,html.Screen,10_20_0,2024-03-04T21:42:53.840Z,,,,1,-0.0057914759495055,0.018500200317654,,0.04,true,lh,6141.399999809219,response,-1.0822170028935367,0.9042992191194934,-1.0516198867120974,1.1654796154432183,1.1495823722781464,-1.0262362197356123,low,high,,ISIC_0058723.JPG,8,ISIC_7288818.JPG,28,25,false,0.2400000000000001,lh,keypress(e),0,false,934997.6000003815,934997.1999998093,928854.526,928848.8999996185,928855.8,935010.9,5,600,21,
break,html.Screen,10_20_1,2024-03-04T21:42:53.841Z,,,,,,,,,,,NaN,,,,,,,,low,high,,,,,,,false,,,,,false,934998.8000001907,934998.5,,934997.8999996185,,935010.9,5,600,,
break_continue,html.Screen,10_20_2,2024-03-04T21:42:53.842Z,,,,,,,,,,,NaN,,,,,,,,low,high,,,,,,,false,,,,,false,934999.6000003815,934999.3999996185,,934999,,935010.9,5,600,,
sequence,flow.Sequence,10_20,2024-03-04T21:42:53.842Z,,,,,,,,,,,6143.599999618484,completion,,,,,,,low,high,,,,,,,false,,,,,false,934999.8000001907,934999.3999996185,928854.526,928848.8000001907,928855.8,935010.9,5,600,,
trial,html.Screen,10_21_0,2024-03-04T21:42:59.416Z,,,,1,-0.0118555311043871,-0.0087774532070196,,0.04,true,hh,5562.700000381446,response,0.828718986734101,0.9042992191194934,-1.0516198867120974,1.0632477436092242,1.1495823722781464,-1.0262362197356123,high,high,,ISIC_6488658.JPG,9,ISIC_0005028.JPG,28,27,false,0.1,hh,keypress(i),0,false,940574,940573.6000003815,934994,935000.1000003815,935010.9,940582.3,5,600,22,
break,html.Screen,10_21_1,2024-03-04T21:42:59.417Z,,,,,,,,,,,NaN,,,,,,,,high,high,,,,,,,false,,,,,false,940575.5,940575.1000003815,,940574.3999996185,,940582.3,5,600,,
break_continue,html.Screen,10_21_2,2024-03-04T21:42:59.418Z,,,,,,,,,,,NaN,,,,,,,,high,high,,,,,,,false,,,,,false,940576.3999996185,940576.1000003815,,940575.6999998093,,940582.3,5,600,,
sequence,flow.Sequence,10_21,2024-03-04T21:42:59.419Z,,,,,,,,,,,5565.200000381446,completion,,,,,,,high,high,,,,,,,false,,,,,false,940576.6000003815,940576.1000003815,934994,935000,935010.9,940582.3,5,600,,
trial,html.Screen,10_22_0,2024-03-04T21:43:03.224Z,,,,1,0.0321039635696159,0.020496766286318,,0.04,true,hh,3799.0000001906883,response,0.8966918590347848,0.9042992191194934,-1.0516198867120974,1.078424090533439,1.1495823722781464,-1.0262362197356123,high,high,,ISIC_0058063.JPG,9,ISIC_0034193.JPG,28,27,false,0.1,hh,keypress(i),0,false,944381.6999998093,944381.3000001907,940580.83,940576.8999996185,940582.3,944385.4,5,600,23,
break,html.Screen,10_22_1,2024-03-04T21:43:03.225Z,,,,,,,,,,,NaN,,,,,,,,high,high,,,,,,,false,,,,,false,944383.1000003815,944382.6999998093,,944382.1000003815,,944385.4,5,600,,
break_continue,html.Screen,10_22_2,2024-03-04T21:43:03.226Z,,,,,,,,,,,NaN,,,,,,,,high,high,,,,,,,false,,,,,false,944383.8999996185,944383.6999998093,,944383.3000001907,,944385.4,5,600,,
sequence,flow.Sequence,10_22,2024-03-04T21:43:03.226Z,,,,,,,,,,,3801.3999998092186,completion,,,,,,,high,high,,,,,,,false,,,,,false,944384.3000001907,944383.6999998093,940580.83,940576.8000001907,940582.3,944385.4,5,600,,
trial,html.Screen,10_23_0,2024-03-04T21:43:09.527Z,,,,1,-0.0399381815506136,-0.0177751789152893,,0.04,true,ll,6299.700000381446,response,-1.0103956367534752,0.9042992191194934,-1.0516198867120974,-0.9950817758087226,1.1495823722781464,-1.0262362197356123,low,low,,ISIC_3981425.JPG,9,ISIC_0025267.JPG,28,33,false,0.1,ll,keypress(f),0,false,950685.3999996185,950685.1000003815,944383.188,944384.6000003815,944385.4,950690.5,5,600,24,
break,html.Screen,10_23_1,2024-03-04T21:43:09.529Z,,,,,,,,,,,NaN,,,,,,,,low,low,,,,,,,false,,,,,false,950686.6000003815,950686.3000001907,,950685.6999998093,,950690.5,5,600,,
break_continue,html.Screen,10_23_2,2024-03-04T21:43:09.529Z,,,,,,,,,,,NaN,,,,,,,,low,low,,,,,,,false,,,,,false,950687.3000001907,950687.1999998093,,950686.8000001907,,950690.5,5,600,,
sequence,flow.Sequence,10_23,2024-03-04T21:43:09.530Z,,,,,,,,,,,6301.799999809242,completion,,,,,,,low,low,,,,,,,false,,,,,false,950687.6000003815,950687.1999998093,944383.188,944384.5,944385.4,950690.5,5,600,,
trial,html.Screen,10_24_0,2024-03-04T21:43:12.159Z,,,,1,-0.0377791839943904,0.0227626648172468,,0.04,true,ll,2626.3999996185303,response,-1.0710981257723884,0.9042992191194934,-1.0516198867120974,-0.9983143500894516,1.1495823722781464,-1.0262362197356123,low,low,,ISIC_7167479.JPG,9,ISIC_0026652.JPG,28,33,false,0.1,ll,keypress(f),0,false,953317.1999998093,953316.8999996185,950674.1,950687.8999996185,950690.5,953326,5,600,25,
break,html.Screen,10_24_1,2024-03-04T21:43:12.161Z,,,,,,,,,,,NaN,,,,,,,,low,low,,,,,,,false,,,,,false,953318.6000003815,953318.3000001907,,953317.6999998093,,953326,5,600,,
break_continue,html.Screen,10_24_2,2024-03-04T21:43:12.162Z,,,,,,,,,,,NaN,,,,,,,,low,low,,,,,,,false,,,,,false,953319.5,953319.1999998093,,953318.8999996185,,953326,5,600,,
sequence,flow.Sequence,10_24,2024-03-04T21:43:12.162Z,,,,,,,,,,,2628.699999809265,completion,,,,,,,low,low,,,,,,,false,,,,,false,953319.8000001907,953319.1999998093,950674.1,950687.8000001907,950690.5,953326,5,600,,
trial,html.Screen,10_25_0,2024-03-04T21:43:15.208Z,,,,1,-0.0077673378094614,-0.0021810768579373,,0.04,true,hh,3039.199999809265,response,0.9462198986993904,0.9042992191194934,-1.0516198867120974,1.067111862128132,1.1495823722781464,-1.0262362197356123,high,high,,ISIC_0067621.JPG,9,ISIC_3564461.JPG,28,27,false,0.1,hh,keypress(i),0,false,956365.6000003815,956365.1999998093,953324.668,953320,953326,956378.6,5,600,26,
break,html.Screen,10_25_1,2024-03-04T21:43:15.209Z,,,,,,,,,,,NaN,,,,,,,,high,high,,,,,,,false,,,,,false,956366.8999996185,956366.5,,956365.8999996185,,956378.6,5,600,,
break_continue,html.Screen,10_25_2,2024-03-04T21:43:15.210Z,,,,,,,,,,,NaN,,,,,,,,high,high,,,,,,,false,,,,,false,956367.6999998093,956367.5,,956367.1999998093,,956378.6,5,600,,
sequence,flow.Sequence,10_25,2024-03-04T21:43:15.210Z,,,,,,,,,,,3041.5,completion,,,,,,,high,high,,,,,,,false,,,,,false,956368,956367.5,953324.668,953320,953326,956378.6,5,600,,
trial,html.Screen,10_26_0,2024-03-04T21:43:21.736Z,,,,1,-0.00126575685933,-0.0325046559638838,,0.04,false,lh,6515.099999809288,response,-1.0961318727760048,0.9042992191194934,-1.0516198867120974,1.2134960228256146,1.1495823722781464,-1.0262362197356123,low,high,,ISIC_5682259.JPG,8,ISIC_9768421.JPG,28,25,false,0.2400000000000001,ll,keypress(f),0,false,962894,962893.6999998093,956377.086,956368.1999998093,956378.6,962900.6,5,600,27,
break,html.Screen,10_26_1,2024-03-04T21:43:21.738Z,,,,,,,,,,,NaN,,,,,,,,low,high,,,,,,,false,,,,,false,962895.5,962895.1000003815,,962894.5,,962900.6,5,600,,
break_continue,html.Screen,10_26_2,2024-03-04T21:43:21.738Z,,,,,,,,,,,NaN,,,,,,,,low,high,,,,,,,false,,,,,false,962896.3999996185,962896.1000003815,,962895.8000001907,,962900.6,5,600,,
sequence,flow.Sequence,10_26,2024-03-04T21:43:21.739Z,,,,,,,,,,,6517.500000381493,completion,,,,,,,low,high,,,,,,,false,,,,,false,962896.6999998093,962896.1000003815,956377.086,956368.1000003815,956378.6,962900.6,5,600,,
trial,html.Screen,10_27_0,2024-03-04T21:43:30.396Z,,,,1,-0.0050679133050021,-0.0174815595031679,,0.04,true,hh,8653.700000190758,response,0.8329154010765664,0.9042992191194934,-1.0516198867120974,1.086658647698992,1.1495823722781464,-1.0262362197356123,high,high,,ISIC_9848743.JPG,9,ISIC_7407847.JPG,28,27,false,0.1,hh,keypress(i),0,false,971554.3999996185,971554.3000001907,962898.978,962896.8999996185,962900.6,971557.6,5,600,28,
break,html.Screen,10_27_1,2024-03-04T21:43:30.397Z,,,,,,,,,,,NaN,,,,,,,,high,high,,,,,,,false,,,,,false,971554.6000003815,971554.5,,971554.5,,971557.6,5,600,,
break_continue,html.Screen,10_27_2,2024-03-04T21:43:30.397Z,,,,,,,,,,,NaN,,,,,,,,high,high,,,,,,,false,,,,,false,971554.6999998093,971554.6000003815,,971554.6000003815,,971557.6,5,600,,
sequence,flow.Sequence,10_27,2024-03-04T21:43:30.397Z,,,,,,,,,,,8654.000000381493,completion,,,,,,,high,high,,,,,,,false,,,,,false,971554.8000001907,971554.6000003815,962898.978,962896.8000001907,962900.6,971557.6,5,600,,
trial,html.Screen,10_28_0,2024-03-04T21:43:35.000Z,,,,1,-0.0060934073440827,-0.0279108145883031,,0.04,false,hl,4599.900000000023,response,0.9445114955578736,0.9042992191194934,-1.0516198867120974,-1.0054210059625863,1.1495823722781464,-1.0262362197356123,high,low,,ISIC_0032604.JPG,8,ISIC_0033807.JPG,28,25,false,0.19000000000000006,hh,keypress(i),0,false,976157.8999996185,976157.5,971553.526,971554.8000001907,971557.6,976161.6,5,600,29,
break,html.Screen,10_28_1,2024-03-04T21:43:35.001Z,,,,,,,,,,,NaN,,,,,,,,high,low,,,,,,,false,,,,,false,976159.1999998093,976158.8999996185,,976158.3000001907,,976161.6,5,600,,
break_continue,html.Screen,10_28_2,2024-03-04T21:43:35.002Z,,,,,,,,,,,NaN,,,,,,,,high,low,,,,,,,false,,,,,false,976160,976159.8000001907,,976159.3999996185,,976161.6,5,600,,
sequence,flow.Sequence,10_28,2024-03-04T21:43:35.002Z,,,,,,,,,,,4602.200000190758,completion,,,,,,,high,low,,,,,,,false,,,,,false,976160.3000001907,976159.8000001907,971553.526,971554.8000001907,971557.6,976161.6,5,600,,
trial,html.Screen,10_29_0,2024-03-04T21:43:39.191Z,,,,1,0.0063515208248796,0.0194177605767913,,0.04,false,hl,4186.900000000023,response,0.717897378657649,0.9042992191194934,-1.0516198867120974,-0.8788356736457825,1.1495823722781464,-1.0262362197356123,high,low,,ISIC_5281908.JPG,9,ISIC_3963183.JPG,28,25,false,0.19000000000000006,hh,keypress(i),0,false,980348.8000001907,980348.5,976159.002,976160.6000003815,976161.6,980365.3,5,600,30,
break,html.Screen,10_29_1,2024-03-04T21:43:39.192Z,,,,,,,,,,,NaN,,,,,,,,high,low,,,,,,,false,,,,,false,980349.6000003815,980349.3999996185,,980349,,980365.3,5,600,,
break_continue,html.Screen,10_29_2,2024-03-04T21:43:39.192Z,,,,,,,,,,,NaN,,,,,,,,high,low,,,,,,,false,,,,,false,980350.1999998093,980350,,980349.8000001907,,980365.3,5,600,,
sequence,flow.Sequence,10_29,2024-03-04T21:43:39.192Z,,,,,,,,,,,4188.400000000023,completion,,,,,,,high,low,,,,,,,false,,,,,false,980350.3000001907,980350,976159.002,976160.5,976161.6,980365.3,5,600,,
trial,html.Screen,10_30_0,2024-03-04T21:43:43.296Z,,,,1,0.0063515208248796,0.0194177605767913,,0.04,false,hh,4087.800000381423,response,0.8161200572102323,0.9042992191194934,-1.0516198867120974,1.0608841647192944,1.1495823722781464,-1.0262362197356123,high,high,,ISIC_5281908.JPG,8,ISIC_0033021.JPG,28,27,false,0.1,hl,keypress(j),0,false,984453.5,984453.1000003815,980348.4,980350.5,980365.3,984468.5,5,600,31,
break,html.Screen,10_30_1,2024-03-04T21:43:43.297Z,,,,,,,,,,,NaN,,,,,,,,high,high,,,,,,,false,,,,,false,984454.8000001907,984454.3999996185,,984453.8000001907,,984468.5,5,600,,
break_continue,html.Screen,10_30_2,2024-03-04T21:43:43.298Z,,,,,,,,,,,NaN,,,,,,,,high,high,,,,,,,false,,,,,false,984455.6999998093,984455.3999996185,,984455.1000003815,,984468.5,5,600,,
sequence,flow.Sequence,10_30,2024-03-04T21:43:43.298Z,,,,,,,,,,,4090.0999996184837,completion,,,,,,,high,high,,,,,,,false,,,,,false,984456,984455.3999996185,980348.4,980350.5,980365.3,984468.5,5,600,,
trial,html.Screen,10_31_0,2024-03-04T21:43:47.896Z,,,,1,0.0321039635696159,0.020496766286318,,0.04,false,ll,4585.300000190735,response,-0.968832577506943,0.9042992191194934,-1.0516198867120974,-1.068698723750748,1.1495823722781464,-1.0262362197356123,low,low,,ISIC_0058063.JPG,9,ISIC_0010962.JPG,28,33,false,0.1,hh,keypress(i),0,false,989054.3000001907,989053.8000001907,984451.9,984456.1999998093,984468.5,989072.5,5,600,32,
break,html.Screen,10_31_1,2024-03-04T21:43:47.898Z,,,,,,,,,,,NaN,,,,,,,,low,low,,,,,,,false,,,,,false,989055.8000001907,989055.3000001907,,989054.6999998093,,989072.5,5,600,,
break_continue,html.Screen,10_31_2,2024-03-04T21:43:47.899Z,,,,,,,,,,,NaN,,,,,,,,low,low,,,,,,,false,,,,,false,989056.6000003815,989056.3999996185,,989056,,989072.5,5,600,,
sequence,flow.Sequence,10_31,2024-03-04T21:43:47.899Z,,,,,,,,,,,4587.89999961853,completion,,,,,,,low,low,,,,,,,false,,,,,false,989057,989056.3999996185,984451.9,984456.1000003815,984468.5,989072.5,5,600,,
trial,html.Screen,10_32_0,2024-03-04T21:43:53.448Z,,,,1,0.0327772618698018,-0.0056908372048728,,0.04,true,hh,5533.10000038147,response,0.9133847107512522,0.9042992191194934,-1.0516198867120974,1.1467555629414397,1.1495823722781464,-1.0262362197356123,high,high,,ISIC_7897925.JPG,10,ISIC_0032171.JPG,28,27,false,0.1,hh,keypress(i),0,false,994606,994605.6000003815,989053.35,989057.1999998093,989072.5,994626.8,5,600,33,
break,html.Screen,10_32_1,2024-03-04T21:43:53.449Z,,,,,,,,,,,NaN,,,,,,,,high,high,,,,,,,false,,,,,false,994607.3000001907,994606.8999996185,,994606.3000001907,,994626.8,5,600,,
break_continue,html.Screen,10_32_2,2024-03-04T21:43:53.450Z,,,,,,,,,,,NaN,,,,,,,,high,high,,,,,,,false,,,,,false,994608.1999998093,994608,,994607.6999998093,,994626.8,5,600,,
sequence,flow.Sequence,10_32,2024-03-04T21:43:53.451Z,,,,,,,,,,,5535.5,completion,,,,,,,high,high,,,,,,,false,,,,,false,994608.5,994608,989053.35,989057.1999998093,989072.5,994626.8,5,600,,
trial,html.Screen,10_33_0,2024-03-04T21:43:57.510Z,,,,1,0.0086413421586899,0.0360184993500958,,0.04,true,lh,4040.800000381423,response,-0.9212323139676136,0.9042992191194934,-1.0516198867120974,0.9882196642247332,1.1495823722781464,-1.0262362197356123,low,high,,ISIC_0010767.JPG,8,ISIC_0014255.JPG,28,25,false,0.2400000000000001,lh,keypress(e),0,false,998667.6999998093,998667.6000003815,994610.294,994608.8000001907,994626.8,998680.2,5,600,34,
break,html.Screen,10_33_1,2024-03-04T21:43:57.510Z,,,,,,,,,,,NaN,,,,,,,,low,high,,,,,,,false,,,,,false,998668.3999996185,998668.1999998093,,998668,,998680.2,5,600,,
break_continue,html.Screen,10_33_2,2024-03-04T21:43:57.511Z,,,,,,,,,,,NaN,,,,,,,,low,high,,,,,,,false,,,,,false,998668.6999998093,998668.6000003815,,998668.5,,998680.2,5,600,,
sequence,flow.Sequence,10_33,2024-03-04T21:43:57.511Z,,,,,,,,,,,4041.800000381423,completion,,,,,,,low,high,,,,,,,false,,,,,false,998668.8000001907,998668.6000003815,994610.294,994608.6999998093,994626.8,998680.2,5,600,,
trial,html.Screen,10_34_0,2024-03-04T21:44:06.744Z,,,,1,0.0086413421586899,0.0360184993500958,,0.04,true,lh,9221.800000000047,response,-0.9566823908868002,0.9042992191194934,-1.0516198867120974,0.9602125665128364,1.1495823722781464,-1.0262362197356123,low,high,,ISIC_0010767.JPG,9,ISIC_0056784.JPG,28,25,false,0.2400000000000001,lh,keypress(e),0,false,1007902.3000001907,1007902,998663.5,998668.8000001907,998680.2,1007921.8,5,600,35,
break,html.Screen,10_34_1,2024-03-04T21:44:06.746Z,,,,,,,,,,,NaN,,,,,,,,low,high,,,,,,,false,,,,,false,1007903.8000001907,1007903.3999996185,,1007902.8000001907,,1007921.8,5,600,,
break_continue,html.Screen,10_34_2,2024-03-04T21:44:06.747Z,,,,,,,,,,,NaN,,,,,,,,low,high,,,,,,,false,,,,,false,1007904.6000003815,1007904.3999996185,,1007904,,1007921.8,5,600,,
sequence,flow.Sequence,10_34,2024-03-04T21:44:06.747Z,,,,,,,,,,,9224.199999618577,completion,,,,,,,low,high,,,,,,,false,,,,,false,1007904.8999996185,1007904.3999996185,998663.5,998668.8000001907,998680.2,1007921.8,5,600,,
trial,html.Screen,10_35_0,2024-03-04T21:44:14.128Z,,,,1,0.010035581303589,-0.0100711721396864,,0.04,false,hl,7363.800000381423,response,0.8069562753553525,0.9042992191194934,-1.0516198867120974,-0.9101764190105358,1.1495823722781464,-1.0262362197356123,high,low,,ISIC_0030592.JPG,9,ISIC_0046596.JPG,28,25,false,0.19000000000000006,lh,keypress(e),0,false,1015286,1015285.6000003815,1007901.968,1007905.1000003815,1007921.8,1015293.9,5,600,36,
break,html.Screen,10_35_1,2024-03-04T21:44:14.129Z,,,,,,,,,,,NaN,,,,,,,,high,low,,,,,,,false,,,,,false,1015287.5,1015287,,1015286.3999996185,,1015293.9,5,600,,
break_continue,html.Screen,10_35_2,2024-03-04T21:44:14.130Z,,,,,,,,,,,NaN,,,,,,,,high,low,,,,,,,false,,,,,false,1015288.3000001907,1015288,,1015287.6999998093,,1015293.9,5,600,,
sequence,flow.Sequence,10_35,2024-03-04T21:44:14.131Z,,,,,,,,,,,7366.199999999953,completion,,,,,,,high,low,,,,,,,false,,,,,false,1015288.6000003815,1015288,1007901.968,1007905.1000003815,1007921.8,1015293.9,5,600,,
trial,html.Screen,10_36_0,2024-03-04T21:44:17.455Z,,,,1,-0.0350697500805515,-0.0166617848231997,,0.04,true,hh,3319.299999809242,response,0.8682521581029131,0.9042992191194934,-1.0516198867120974,1.187434999088787,1.1495823722781464,-1.0262362197356123,high,high,,ISIC_0024423.JPG,9,ISIC_5772144.JPG,28,27,false,0.1,hh,keypress(i),0,false,1018613.3999996185,1018613.1999998093,1015288.678,1015288.8000001907,1015293.9,1018629.9,5,600,37,
break,html.Screen,10_36_1,2024-03-04T21:44:17.456Z,,,,,,,,,,,NaN,,,,,,,,high,high,,,,,,,false,,,,,false,1018614.3999996185,1018614.1000003815,,1018613.6999998093,,1018629.9,5,600,,
break_continue,html.Screen,10_36_2,2024-03-04T21:44:17.457Z,,,,,,,,,,,NaN,,,,,,,,high,high,,,,,,,false,,,,,false,1018615,1018614.8000001907,,1018614.6000003815,,1018629.9,5,600,,
sequence,flow.Sequence,10_36,2024-03-04T21:44:17.457Z,,,,,,,,,,,3320.9000001907116,completion,,,,,,,high,high,,,,,,,false,,,,,false,1018615.1000003815,1018614.8000001907,1015288.678,1015288.6999998093,1015293.9,1018629.9,5,600,,
trial,html.Screen,10_37_0,2024-03-04T21:44:22.936Z,,,,1,0.0189295602385628,0.0128812415435153,,0.04,false,lh,5463.700000381446,response,-0.8620516892494489,0.9042992191194934,-1.0516198867120974,1.1108509340502866,1.1495823722781464,-1.0262362197356123,low,high,,ISIC_0010372.JPG,10,ISIC_5557806.JPG,28,25,false,0.2400000000000001,hl,keypress(j),0,false,1024093.8999996185,1024093.6000003815,1018613.2,1018615.3000001907,1018629.9,1024117.8,5,600,38,
break,html.Screen,10_37_1,2024-03-04T21:44:22.937Z,,,,,,,,,,,NaN,,,,,,,,low,high,,,,,,,false,,,,,false,1024095.3999996185,1024094.8999996185,,1024094.3000001907,,1024117.8,5,600,,
break_continue,html.Screen,10_37_2,2024-03-04T21:44:22.938Z,,,,,,,,,,,NaN,,,,,,,,low,high,,,,,,,false,,,,,false,1024096.3000001907,1024096.1000003815,,1024095.6999998093,,1024117.8,5,600,,
sequence,flow.Sequence,10_37,2024-03-04T21:44:22.939Z,,,,,,,,,,,5466.200000381446,completion,,,,,,,low,high,,,,,,,false,,,,,false,1024096.6000003815,1024096.1000003815,1018613.2,1018615.1999998093,1018629.9,1024117.8,5,600,,
trial,html.Screen,10_38_0,2024-03-04T21:44:28.904Z,,,,1,-0.0399381815506136,-0.0177751789152893,,0.04,true,lh,5943.699999999953,response,-0.9046170303418553,0.9042992191194934,-1.0516198867120974,1.0063426986460375,1.1495823722781464,-1.0262362197356123,low,high,,ISIC_3981425.JPG,9,ISIC_0055759.JPG,28,25,false,0.2400000000000001,lh,keypress(e),0,false,1030061.8000001907,1030061.5,1024114.054,1024096.8999996185,1024117.8,1030072.8,5,600,39,
break,html.Screen,10_38_1,2024-03-04T21:44:28.905Z,,,,,,,,,,,NaN,,,,,,,,low,high,,,,,,,false,,,,,false,1030063,1030062.6999998093,,1030062.1000003815,,1030072.8,5,600,,
break_continue,html.Screen,10_38_2,2024-03-04T21:44:28.906Z,,,,,,,,,,,NaN,,,,,,,,low,high,,,,,,,false,,,,,false,1030063.8000001907,1030063.6000003815,,1030063.3000001907,,1030072.8,5,600,,
sequence,flow.Sequence,10_38,2024-03-04T21:44:28.906Z,,,,,,,,,,,5945.800000381423,completion,,,,,,,low,high,,,,,,,false,,,,,false,1030064.1000003815,1030063.6000003815,1024114.054,1024096.8000001907,1024117.8,1030072.8,5,600,,
