sender,sender_type,sender_id,timestamp,meta,,age,blockNo,c1,c2,condition,control_tolerance,correct,correctResponse,duration,ended_on,f1,f1_high,f1_low,f2,f2_high,f2_low,feature_level1,feature_level2,gender,img_left,img_reveal,img_right,n_control_images,n_target_images,practice,range_tolerance,response,response_action,selection_duration,staircase,time_commit,time_end,time_render,time_run,time_show,time_switch,total_blocks,total_trials,trialNo,url
informed_consent,html.Screen,0,2023-11-20T20:41:03.386Z,"{""labjs_version"":""20.2.4"",""labjs_build"":{""flavor"":""development"",""commit"":""f5b4a49f956347addd546a832a3327688c2c0fef""},""location"":""https://labjs.felixhenninger.com/api/labjs_preview/index.html"",""userAgent"":""Mozilla/5.0 (Windows NT 10.0; Win64; x64) AppleWebKit/537.36 (KHTML, like Gecko) Chrome/119.0.0.0 Safari/537.36"",""platform"":""Win32"",""language"":""en-US"",""locale"":""en-US"",""timeZone"":""America/Chicago"",""timezoneOffset"":360,""screen_width"":1920,""screen_height"":1080,""scroll_width"":945,""scroll_height"":918,""window_innerWidth"":945,""window_innerHeight"":966,""devicePixelRatio"":1}",,,,,,,,,,19041.840000023843,response,,,,,,,,,,,,,,,,,consent,click button,,,19789.300000071526,19780.600000023842,721.962,932.8000000715256,738.76,19571.932,,,,{}
Demography form,html.Form,1,2023-11-20T20:41:11.690Z,,,19,,,,,,,,8520.768000047683,form submission,,,,,,,,,female,,,,,,,,,,,,28092.899999976158,28092.700000047684,19555.419,19789.600000023842,19571.932,27888.586,,,,
Welcome,html.Screen,2,2023-11-20T20:42:05.884Z,,,,,,,"[""asym"",""bor""]",,,,54396.014000023846,response,,,,,,,,,,,,,,,,,continue,click button,,,82285.20000004768,82284.60000002384,27871.937,28092.899999976158,27888.586,82088.584,,,,
demo_instructions,html.Screen,3,2023-11-20T20:43:49.653Z,,,,,,,,,,,103963.51600002384,response,,,,,,,,,,,,,,,,,continue,click button,,,186052.70000004768,186052.10000002384,82071.771,82285.39999997616,82088.584,185871.704,,,,
trial,html.Screen,4_0_0,2023-11-20T20:44:10.042Z,,,,0,-1.242586748440878,-1.1207933200172129,,,true,hh,20569.496000047686,response,1.0717785279820962,1.2,-1.2,1.1267239445830604,1.2,-1.2,high,high,,ISIC_0013073.JPG,,ISIC_9948815.JPG,,26,true,0.15000000000000002,hh,keypress(i),100,false,206441.5,206441.20000004768,185854.83,186052.80000007153,185871.704,206254.988,1,16,1,
sequence,flow.Sequence,4_0,2023-11-20T20:44:10.042Z,,,,,,,,,,,20569.496000047686,completion,,,,,,,high,high,,,,,,,true,,,,,false,206442.39999997616,206441.20000004768,185854.83,186052.80000007153,185871.704,206254.988,1,16,,
trial,html.Screen,4_1_0,2023-11-20T20:44:16.475Z,,,,0,-1.2282561398079586,-1.210457198775374,,,true,hh,6619.911999976146,response,1.2503149164557643,1.2,-1.2,1.0796591227570405,1.2,-1.2,high,high,,ISIC_9141817.JPG,,ISIC_2466892.JPG,,26,true,0.15000000000000002,hh,keypress(i),100,false,212875,212874.89999997616,206238.169,206442.60000002384,206254.988,212688.087,1,16,2,
sequence,flow.Sequence,4_1,2023-11-20T20:44:16.475Z,,,,,,,,,,,6619.911999976146,completion,,,,,,,high,high,,,,,,,true,,,,,false,212875.20000004768,212874.89999997616,206238.169,206442.5,206254.988,212688.087,1,16,,
trial,html.Screen,4_2_0,2023-11-20T20:44:18.994Z,,,,0,-1.2282561398079586,-1.210457198775374,,,true,hh,2705.9130000000005,response,1.1388430156686884,1.2,-1.2,1.2700552354887775,1.2,-1.2,high,high,,ISIC_9141817.JPG,,ISIC_9939653.JPG,,26,true,0.15000000000000002,hh,keypress(i),100,false,215394.5,215394,212671.431,212875.30000007153,212688.087,215204.94,1,16,3,
sequence,flow.Sequence,4_2,2023-11-20T20:44:18.995Z,,,,,,,,,,,2705.9130000000005,completion,,,,,,,high,high,,,,,,,true,,,,,false,215395.20000004768,215394,212671.431,212875.20000004768,212688.087,215204.94,1,16,,
trial,html.Screen,4_3_0,2023-11-20T20:44:21.266Z,,,,0,-1.2169050727663315,-1.1067845563421794,,,true,hh,2461.2600000476814,response,1.2024083555600384,1.2,-1.2,1.149077673153018,1.2,-1.2,high,high,,ISIC_7016261.JPG,,ISIC_3566243.JPG,,26,true,0.15000000000000002,hh,keypress(i),100,false,217666.5,217666.20000004768,215188.163,215395.60000002384,215204.94,217471.411,1,16,4,
sequence,flow.Sequence,4_3,2023-11-20T20:44:21.267Z,,,,,,,,,,,2461.2600000476814,completion,,,,,,,high,high,,,,,,,true,,,,,false,217666.89999997616,217666.20000004768,215188.163,215395.39999997616,215204.94,217471.411,1,16,,
trial,html.Screen,4_4_0,2023-11-20T20:44:27.903Z,,,,0,1.2318069697449794,1.1703576816778267,,,true,ll,6829.889000071533,response,-1.1253220985777015,1.2,-1.2,-1.108725659461368,1.2,-1.2,low,low,,ISIC_2732573.JPG,,ISIC_0054954.JPG,,30,true,0.1,ll,keypress(f),100,false,224301.70000004768,224301.30000007153,217454.771,217667,217471.411,224104.761,1,16,5,
sequence,flow.Sequence,4_4,2023-11-20T20:44:27.903Z,,,,,,,,,,,6829.889000071533,completion,,,,,,,low,low,,,,,,,true,,,,,false,224302.30000007153,224301.30000007153,217454.771,217666.89999997616,217471.411,224104.761,1,16,,
trial,html.Screen,4_5_0,2023-11-20T20:44:30.000Z,,,,0,1.3189473926989124,1.0770264364718942,,,true,ll,2293.8390000238433,response,-1.1877026569952844,1.2,-1.2,-1.1604367569896263,1.2,-1.2,low,low,,ISIC_6093728.JPG,,ISIC_0064589.JPG,,53,true,0.15000000000000002,ll,keypress(f),100,false,226398.70000004768,226398.60000002384,224088.071,224302.5,224104.761,226204.684,1,16,6,
sequence,flow.Sequence,4_5,2023-11-20T20:44:30.000Z,,,,,,,,,,,2293.8390000238433,completion,,,,,,,low,low,,,,,,,true,,,,,false,226398.89999997616,226398.60000002384,224088.071,224302.39999997616,224104.761,226204.684,1,16,,
trial,html.Screen,4_6_0,2023-11-20T20:44:32.679Z,,,,0,1.0959058628476686,1.1684835186766898,,,true,ll,2872.8159999999916,response,-1.1512633312172555,1.2,-1.2,-1.337709216648353,1.2,-1.2,low,low,,ISIC_5920470.JPG,,ISIC_6512653.JPG,,53,true,0.15000000000000002,ll,keypress(f),100,false,229077.89999997616,229077.5,226188.029,226399,226204.684,228888.222,1,16,7,
sequence,flow.Sequence,4_6,2023-11-20T20:44:32.680Z,,,,,,,,,,,2872.8159999999916,completion,,,,,,,low,low,,,,,,,true,,,,,false,229078.5,229077.5,226188.029,226399,226204.684,228888.222,1,16,,
trial,html.Screen,4_7_0,2023-11-20T20:44:35.607Z,,,,0,1.241406480986552,1.081912821786771,,,true,ll,3117.478000047675,response,-1.188743606919222,1.2,-1.2,-1.0980226451001782,1.2,-1.2,low,low,,ISIC_4223155.JPG,,ISIC_0060481.JPG,,53,true,0.15000000000000002,ll,keypress(f),100,false,232005.80000007153,232005.70000004768,228871.4,229078.70000004768,228888.222,231821.551,1,16,8,
sequence,flow.Sequence,4_7,2023-11-20T20:44:35.607Z,,,,,,,,,,,3117.478000047675,completion,,,,,,,low,low,,,,,,,true,,,,,false,232006,232005.70000004768,228871.4,229078.60000002384,228888.222,231821.551,1,16,,
trial,html.Screen,4_8_0,2023-11-20T20:44:47.375Z,,,,0,0.8487429103619056,-0.9778257804233036,,,true,lh,11951.649000047677,response,-0.9873794329144926,1.2,-1.2,0.7991077882008257,1.2,-1.2,low,high,,ISIC_4554863.JPG,,ISIC_0013498.JPG,,27,true,0.42000000000000026,lh,keypress(e),100,false,243773.60000002384,243773.20000004768,231804.708,232006.10000002384,231821.551,243587.983,1,16,9,
sequence,flow.Sequence,4_8,2023-11-20T20:44:47.375Z,,,,,,,,,,,11951.649000047677,completion,,,,,,,low,high,,,,,,,true,,,,,false,243774.20000004768,243773.20000004768,231804.708,232006.10000002384,231821.551,243587.983,1,16,,
trial,html.Screen,4_9_0,2023-11-20T20:44:52.864Z,,,,0,1.0026266089287914,-1.0913275913920335,,,true,lh,5674.317000071518,response,-1.0264463986917702,1.2,-1.2,1.2804054832904397,1.2,-1.2,low,high,,ISIC_0033520.JPG,,ISIC_7889838.JPG,,27,true,0.42000000000000026,lh,keypress(e),100,false,249262.70000004768,249262.30000007153,243571.355,243774.39999997616,243587.983,249071.318,1,16,10,
sequence,flow.Sequence,4_9,2023-11-20T20:44:52.864Z,,,,,,,,,,,5674.317000071518,completion,,,,,,,low,high,,,,,,,true,,,,,false,249263.20000004768,249262.30000007153,243571.355,243774.39999997616,243587.983,249071.318,1,16,,
trial,html.Screen,4_10_0,2023-11-20T20:44:55.294Z,,,,0,0.9579209317488,-1.0147487101263497,,,true,lh,2621.1820000000007,response,-0.8623414234919863,1.2,-1.2,0.782830143980698,1.2,-1.2,low,high,,ISIC_8124482.JPG,,ISIC_2727016.JPG,,27,true,0.42000000000000026,lh,keypress(e),100,false,251692.70000004768,251692.5,249054.695,249263.39999997616,249071.318,251504.745,1,16,11,
sequence,flow.Sequence,4_10,2023-11-20T20:44:55.294Z,,,,,,,,,,,2621.1820000000007,completion,,,,,,,low,high,,,,,,,true,,,,,false,251693,251692.5,249054.695,249263.30000007153,249071.318,251504.745,1,16,,
trial,html.Screen,4_11_0,2023-11-20T20:45:01.470Z,,,,0,0.8979276789594874,-0.925374811016654,,,true,lh,6363.55500007153,response,-0.991146183030456,1.2,-1.2,0.9949639823722534,1.2,-1.2,low,high,,ISIC_4208361.JPG,,ISIC_6342224.JPG,,27,true,0.42000000000000026,lh,keypress(e),100,false,257868.5,257868.30000007153,251487.95,251693.10000002384,251504.745,257687.924,1,16,12,
sequence,flow.Sequence,4_11,2023-11-20T20:45:01.470Z,,,,,,,,,,,6363.55500007153,completion,,,,,,,low,high,,,,,,,true,,,,,false,257869,257868.30000007153,251487.95,251693,251504.745,257687.924,1,16,,
trial,html.Screen,4_12_0,2023-11-20T20:45:08.676Z,,,,0,-0.9873794329144926,0.7991077882008257,,,true,hl,7386.176000023843,response,0.858338058340649,1.2,-1.2,-0.9540612223480284,1.2,-1.2,high,low,,ISIC_0013498.JPG,,ISIC_8922893.JPG,,26,true,0.3600000000000002,hl,keypress(j),100,false,265074.5,265074.10000002384,257654.813,257869.20000004768,257687.924,264887.902,1,16,13,
sequence,flow.Sequence,4_12,2023-11-20T20:45:08.676Z,,,,,,,,,,,7386.176000023843,completion,,,,,,,high,low,,,,,,,true,,,,,false,265074.89999997616,265074.10000002384,257654.813,257869.10000002384,257687.924,264887.902,1,16,,
trial,html.Screen,4_13_0,2023-11-20T20:45:14.233Z,,,,0,-0.796241477082623,0.9017449335975743,,,true,hl,5743.898000071524,response,0.7836356408583546,1.2,-1.2,-1.1197925594706428,1.2,-1.2,high,low,,ISIC_8588033.JPG,,ISIC_0024961.JPG,,33,true,0.42000000000000026,hl,keypress(j),100,false,270632,270631.8000000715,264871.342,265075.2000000477,264887.902,270437.919,1,16,14,
sequence,flow.Sequence,4_13,2023-11-20T20:45:14.233Z,,,,,,,,,,,5743.898000071524,completion,,,,,,,high,low,,,,,,,true,,,,,false,270632.3000000715,270631.8000000715,264871.342,265075.10000002384,264887.902,270437.919,1,16,,
trial,html.Screen,4_14_0,2023-11-20T20:45:19.171Z,,,,0,-1.0164576835546473,0.8120626538423016,,,true,hl,5132.081000000006,response,0.9696118525781644,1.2,-1.2,-0.9244148283103414,1.2,-1.2,high,low,,ISIC_6002694.JPG,,ISIC_7927525.JPG,,33,true,0.42000000000000026,hl,keypress(j),100,false,275570.3000000715,275570,270421.247,270632.3000000715,270437.919,275387.895,1,16,15,
sequence,flow.Sequence,4_14,2023-11-20T20:45:19.172Z,,,,,,,,,,,5132.081000000006,completion,,,,,,,high,low,,,,,,,true,,,,,false,275570.7000000477,275570,270421.247,270632.3000000715,270437.919,275387.895,1,16,,
trial,html.Screen,4_15_0,2023-11-20T20:45:22.934Z,,,,0,-0.9873794329144926,0.7991077882008257,,,true,hl,3943.305000047665,response,1.2331439637486756,1.2,-1.2,-0.9691143900156988,1.2,-1.2,high,low,,ISIC_0013498.JPG,,ISIC_7877488.JPG,,33,true,0.42000000000000026,hl,keypress(j),100,false,279331.5,279331.2000000477,275371.261,275570.89999997616,275387.895,279137.901,1,16,16,
sequence,flow.Sequence,4_15,2023-11-20T20:45:22.934Z,,,,,,,,,,,3943.305000047665,completion,,,,,,,high,low,,,,,,,true,,,,,false,279332,279331.2000000477,275371.261,275570.8000000715,275387.895,279137.901,1,16,,
demonstration_loop,flow.Loop,4,2023-11-20T20:45:22.935Z,,,,,,,,,,,93459.49600004769,completion,,,,,,,,,,,,,,,true,,,,,false,279332.3000000715,279331.2000000477,185854.83,186052.80000007153,185871.704,279137.901,1,16,,
practice_instructions,html.Screen,5,2023-11-20T20:45:25.791Z,,,,,,,,,,,3050.1990000238293,response,,,,,,,,,,,,,,,,,continue,click button,,,282188.7000000477,282188.10000002384,279121.307,279332.39999997616,279137.901,281987.878,,,,
trial,html.Screen,6_0_0,2023-11-20T20:45:32.377Z,,,,1,-0.8200962008791046,0.7936051642828523,,,true,hl,6780.021999976132,response,0.9579209317488,1.2,-1.2,-1.0147487101263497,1.2,-1.2,high,low,,ISIC_0027031.JPG,,ISIC_8124482.JPG,,26,true,0.3600000000000002,hl,keypress(j),0,false,288774.60000002384,288767.89999997616,281971.451,282188.8000000715,281987.878,288571.23,1,40,1,
sequence,flow.Sequence,6_0,2023-11-20T20:45:32.377Z,,,,,,,,,,,6780.021999976132,completion,,,,,,,high,low,,,,,,,true,,,,,false,288774.8000000715,288767.89999997616,281971.451,282188.7000000477,281987.878,288571.23,1,40,,
trial,html.Screen,6_1_0,2023-11-20T20:45:42.066Z,,,,1,1.0717785279820962,1.1267239445830604,,,true,ll,9891.87000002386,response,-1.272699544571422,1.2,-1.2,-1.12917997553565,1.2,-1.2,low,low,,ISIC_9948815.JPG,,ISIC_0012057.JPG,,339,true,0.42000000000000026,ll,keypress(f),0,false,298463.39999997616,298463.10000002384,288554.489,288774.8000000715,288571.23,298254.5,1,40,2,
sequence,flow.Sequence,6_1,2023-11-20T20:45:42.066Z,,,,,,,,,,,9891.87000002386,completion,,,,,,,low,low,,,,,,,true,,,,,false,298463.89999997616,298463.10000002384,288554.489,288774.8000000715,288571.23,298254.5,1,40,,
trial,html.Screen,6_2_0,2023-11-20T20:45:45.281Z,,,,1,1.2706447584800626,1.0903308007916603,,,true,ll,3423.899999976158,response,-1.2633172011126104,1.2,-1.2,-1.0924307772114292,1.2,-1.2,low,low,,ISIC_9425937.JPG,,ISIC_0024929.JPG,,53,true,0.15000000000000002,ll,keypress(f),0,false,301678.8000000715,301678.39999997616,298237.498,298464.10000002384,298254.5,301504.453,1,40,3,
sequence,flow.Sequence,6_2,2023-11-20T20:45:45.281Z,,,,,,,,,,,3423.899999976158,completion,,,,,,,low,low,,,,,,,true,,,,,false,301679.2000000477,301678.39999997616,298237.498,298464,298254.5,301504.453,1,40,,
trial,html.Screen,6_3_0,2023-11-20T20:45:54.546Z,,,,1,1.2075172235545184,-0.9116724966267612,,,true,lh,9438.946999976179,response,-0.948927472020595,1.2,-1.2,1.0660437155921598,1.2,-1.2,low,high,,ISIC_0024235.JPG,,ISIC_5808758.JPG,,27,true,0.42000000000000026,lh,keypress(e),0,false,310943.7000000477,310943.39999997616,301454.449,301679.39999997616,301504.453,310737.807,1,40,4,
sequence,flow.Sequence,6_3,2023-11-20T20:45:54.546Z,,,,,,,,,,,9438.946999976179,completion,,,,,,,low,high,,,,,,,true,,,,,false,310944,310943.39999997616,301454.449,301679.3000000715,301504.453,310737.807,1,40,,
trial,html.Screen,6_4_0,2023-11-20T20:45:59.609Z,,,,1,1.2503149164557643,1.0796591227570405,,,true,ll,5268.193000000028,response,-1.3847253236539578,1.2,-1.2,-1.1048559518249943,1.2,-1.2,low,low,,ISIC_2466892.JPG,,ISIC_0060817.JPG,,245,true,0.3600000000000002,ll,keypress(f),0,false,316006.3000000715,316006,310721.011,310944.2000000477,310737.807,315804.431,1,40,5,
sequence,flow.Sequence,6_4,2023-11-20T20:45:59.609Z,,,,,,,,,,,5268.193000000028,completion,,,,,,,low,low,,,,,,,true,,,,,false,316006.8000000715,316006,310721.011,310944.2000000477,310737.807,315804.431,1,40,,
trial,html.Screen,6_5_0,2023-11-20T20:46:08.705Z,,,,1,1.0026266089287914,-1.0913275913920335,,,true,lh,9297.869000071543,response,-0.8655167308525522,1.2,-1.2,0.9298580423306444,1.2,-1.2,low,high,,ISIC_0033520.JPG,,ISIC_4603706.JPG,,27,true,0.42000000000000026,lh,keypress(e),0,false,325102.60000002384,325102.3000000715,315787.768,316006.89999997616,315804.431,324904.657,1,40,6,
sequence,flow.Sequence,6_5,2023-11-20T20:46:08.705Z,,,,,,,,,,,9297.869000071543,completion,,,,,,,low,high,,,,,,,true,,,,,false,325103,325102.3000000715,315787.768,316006.89999997616,315804.431,324904.657,1,40,,
trial,html.Screen,6_6_0,2023-11-20T20:46:14.000Z,,,,1,-1.1877026569952844,-1.1604367569896263,,,true,hh,5493.242999976152,response,1.0270718265914571,1.2,-1.2,0.9536353804316964,1.2,-1.2,high,high,,ISIC_0064589.JPG,,ISIC_3431915.JPG,,179,true,0.3600000000000002,hh,keypress(i),0,false,330397.89999997616,330397.89999997616,324887.687,325103.2000000477,324904.657,330187.735,1,40,7,
sequence,flow.Sequence,6_6,2023-11-20T20:46:14.000Z,,,,,,,,,,,5493.242999976152,completion,,,,,,,high,high,,,,,,,true,,,,,false,330398,330397.89999997616,324887.687,325103.10000002384,324904.657,330187.735,1,40,,
trial,html.Screen,6_7_0,2023-11-20T20:46:20.480Z,,,,1,-1.1164729501046406,-1.2978935747992253,,,true,hh,6689.965000047698,response,1.0870240111136478,1.2,-1.2,1.332340670965917,1.2,-1.2,high,high,,ISIC_0034166.JPG,,ISIC_0000660.JPG,,26,true,0.15000000000000002,hh,keypress(i),0,false,336877.8000000715,336877.7000000477,330171.137,330398.2000000477,330187.735,336671.04,1,40,8,
sequence,flow.Sequence,6_7,2023-11-20T20:46:20.480Z,,,,,,,,,,,6689.965000047698,completion,,,,,,,high,high,,,,,,,true,,,,,false,336877.89999997616,336877.7000000477,330171.137,330398.10000002384,330187.735,336671.04,1,40,,
trial,html.Screen,6_8_0,2023-11-20T20:46:23.722Z,,,,1,1.057008495826831,1.1278122585028287,,,true,ll,3447.6600000477047,response,-1.101214461533281,1.2,-1.2,-1.1849883512428183,1.2,-1.2,low,low,,ISIC_2819798.JPG,,ISIC_0064943.JPG,,30,true,0.1,ll,keypress(f),0,false,340119,340118.7000000477,336654.194,336878,336671.04,339921.046,1,40,9,
sequence,flow.Sequence,6_8,2023-11-20T20:46:23.723Z,,,,,,,,,,,3447.6600000477047,completion,,,,,,,low,low,,,,,,,true,,,,,false,340119.39999997616,340118.7000000477,336654.194,336878,336671.04,339921.046,1,40,,
trial,html.Screen,6_9_0,2023-11-20T20:46:27.738Z,,,,1,0.9696118525781644,-0.9244148283103414,,,true,lh,4213.654000047711,response,-1.0164576835546473,1.2,-1.2,0.8120626538423016,1.2,-1.2,low,high,,ISIC_7927525.JPG,,ISIC_6002694.JPG,,27,true,0.42000000000000026,lh,keypress(e),0,false,344135,344134.7000000477,339904.422,340119.60000002384,339921.046,343954.391,1,40,10,
sequence,flow.Sequence,6_9,2023-11-20T20:46:27.739Z,,,,,,,,,,,4213.654000047711,completion,,,,,,,low,high,,,,,,,true,,,,,false,344135.3000000715,344134.7000000477,339904.422,340119.60000002384,339921.046,343954.391,1,40,,
trial,html.Screen,6_10_0,2023-11-20T20:46:36.570Z,,,,1,-1.4092385398614515,1.3046237992197836,,,true,hl,9011.80900004768,response,1.2075172235545184,1.2,-1.2,-0.9116724966267612,1.2,-1.2,high,low,,ISIC_7254359.JPG,,ISIC_0024235.JPG,,26,true,0.3600000000000002,hl,keypress(j),0,false,352966.5,352966.2000000477,343920.962,344135.5,343954.391,352771.013,1,40,11,
sequence,flow.Sequence,6_10,2023-11-20T20:46:36.570Z,,,,,,,,,,,9011.80900004768,completion,,,,,,,high,low,,,,,,,true,,,,,false,352966.8000000715,352966.2000000477,343920.962,344135.39999997616,343954.391,352771.013,1,40,,
trial,html.Screen,6_11_0,2023-11-20T20:46:41.730Z,,,,1,1.2364994561934892,-0.9174173651516624,,,true,lh,5355.787000071548,response,-1.276222161935671,1.2,-1.2,0.9657780821973284,1.2,-1.2,low,high,,ISIC_3481133.JPG,,ISIC_6710411.JPG,,27,true,0.42000000000000026,lh,keypress(e),0,false,358127,358126.8000000715,352754.291,352967.10000002384,352771.013,357920.997,1,40,12,
sequence,flow.Sequence,6_11,2023-11-20T20:46:41.731Z,,,,,,,,,,,5355.787000071548,completion,,,,,,,low,high,,,,,,,true,,,,,false,358127.3000000715,358126.8000000715,352754.291,352967.10000002384,352771.013,357920.997,1,40,,
trial,html.Screen,6_12_0,2023-11-20T20:46:45.128Z,,,,1,1.241406480986552,1.081912821786771,,,true,ll,3603.8030000715517,response,-0.8597768256741747,1.2,-1.2,-1.1001121427563445,1.2,-1.2,low,low,,ISIC_4223155.JPG,,ISIC_5922588.JPG,,245,true,0.3600000000000002,ll,keypress(f),0,false,361525,361524.8000000715,357904.307,358127.60000002384,357920.997,361320.978,1,40,13,
sequence,flow.Sequence,6_12,2023-11-20T20:46:45.128Z,,,,,,,,,,,3603.8030000715517,completion,,,,,,,low,low,,,,,,,true,,,,,false,361525.10000002384,361524.8000000715,357904.307,358127.60000002384,357920.997,361320.978,1,40,,
trial,html.Screen,6_13_0,2023-11-20T20:46:51.314Z,,,,1,-1.0213365328004047,1.088524359911891,,,true,hl,6389.622000023839,response,1.020990671779317,1.2,-1.2,-1.0116513850520903,1.2,-1.2,high,low,,ISIC_5434229.JPG,,ISIC_0011995.JPG,,26,true,0.3600000000000002,hl,keypress(j),0,false,367710.89999997616,367710.60000002384,361304.428,361525.10000002384,361320.978,367504.312,1,40,14,
sequence,flow.Sequence,6_13,2023-11-20T20:46:51.314Z,,,,,,,,,,,6389.622000023839,completion,,,,,,,high,low,,,,,,,true,,,,,false,367711.2000000477,367710.60000002384,361304.428,361525.10000002384,361320.978,367504.312,1,40,,
trial,html.Screen,6_14_0,2023-11-20T20:46:55.882Z,,,,1,-1.101214461533281,-1.1849883512428183,,,true,hh,4773.8880000477075,response,1.048330701104555,1.2,-1.2,0.8086625502956353,1.2,-1.2,high,high,,ISIC_0064943.JPG,,ISIC_0030508.JPG,,253,true,0.42000000000000026,hh,keypress(i),0,false,372278.5,372278.2000000477,367487.605,367711.39999997616,367504.312,372104.293,1,40,15,
sequence,flow.Sequence,6_14,2023-11-20T20:46:55.882Z,,,,,,,,,,,4773.8880000477075,completion,,,,,,,high,high,,,,,,,true,,,,,false,372278.8000000715,372278.2000000477,367487.605,367711.3000000715,367504.312,372104.293,1,40,,
trial,html.Screen,6_15_0,2023-11-20T20:47:03.770Z,,,,1,-0.9388660854518424,0.79533948698576,,,true,hl,8061.907000047679,response,0.879102500583965,1.2,-1.2,-1.0933081951979773,1.2,-1.2,high,low,,ISIC_9291926.JPG,,ISIC_0046223.JPG,,26,true,0.3600000000000002,hl,keypress(j),0,false,380166.5,380166.2000000477,372054.125,372278.89999997616,372104.293,379970.937,1,40,16,
sequence,flow.Sequence,6_15,2023-11-20T20:47:03.770Z,,,,,,,,,,,8061.907000047679,completion,,,,,,,high,low,,,,,,,true,,,,,false,380166.8000000715,380166.2000000477,372054.125,372278.8000000715,372104.293,379970.937,1,40,,
trial,html.Screen,6_16_0,2023-11-20T20:47:11.314Z,,,,1,-0.8816288864119318,0.801867301188093,,,true,hl,7739.863000071549,response,0.869932994914832,1.2,-1.2,-0.8880533324432531,1.2,-1.2,high,low,,ISIC_9196783.JPG,,ISIC_8617084.JPG,,33,true,0.42000000000000026,hl,keypress(j),0,false,387711.10000002384,387710.8000000715,379954.237,380167.10000002384,379970.937,387504.248,1,40,17,
sequence,flow.Sequence,6_16,2023-11-20T20:47:11.315Z,,,,,,,,,,,7739.863000071549,completion,,,,,,,high,low,,,,,,,true,,,,,false,387711.5,387710.8000000715,379954.237,380166.89999997616,379970.937,387504.248,1,40,,
trial,html.Screen,6_17_0,2023-11-20T20:47:14.738Z,,,,1,1.1210325063849345,1.1498648320956202,,,true,ll,3630.6519999761367,response,-0.8426401499140178,1.2,-1.2,-0.9561650569523902,1.2,-1.2,low,low,,ISIC_0032162.JPG,,ISIC_0060380.JPG,,339,true,0.42000000000000026,ll,keypress(f),0,false,391135.2000000477,391134.89999997616,387487.51,387711.60000002384,387504.248,390937.55,1,40,18,
sequence,flow.Sequence,6_17,2023-11-20T20:47:14.739Z,,,,,,,,,,,3630.6519999761367,completion,,,,,,,low,low,,,,,,,true,,,,,false,391135.60000002384,391134.89999997616,387487.51,387711.60000002384,387504.248,390937.55,1,40,,
trial,html.Screen,6_18_0,2023-11-20T20:47:18.930Z,,,,1,-1.0022829373011404,0.8311726972863814,,,true,hl,4388.450000000012,response,0.8579451262594331,1.2,-1.2,-0.9633172970727744,1.2,-1.2,high,low,,ISIC_0033287.JPG,,ISIC_0067172.JPG,,26,true,0.3600000000000002,hl,keypress(j),0,false,395326.2000000477,395326,390920.893,391135.8000000715,390937.55,395120.908,1,40,19,
sequence,flow.Sequence,6_18,2023-11-20T20:47:18.930Z,,,,,,,,,,,4388.450000000012,completion,,,,,,,high,low,,,,,,,true,,,,,false,395326.7000000477,395326,390920.893,391135.7000000477,390937.55,395120.908,1,40,,
trial,html.Screen,6_19_0,2023-11-20T20:47:23.267Z,,,,1,1.0143509683988825,-1.3163955902021656,,,true,lh,4541.092000000004,response,-0.8623414234919863,1.2,-1.2,0.782830143980698,1.2,-1.2,low,high,,ISIC_0062031.JPG,,ISIC_2727016.JPG,,27,true,0.42000000000000026,lh,keypress(e),0,false,399662.2000000477,399662,395104.374,395326.89999997616,395120.908,399454.194,1,40,20,
sequence,flow.Sequence,6_19,2023-11-20T20:47:23.267Z,,,,,,,,,,,4541.092000000004,completion,,,,,,,low,high,,,,,,,true,,,,,false,399662.60000002384,399662,395104.374,395326.8000000715,395120.908,399454.194,1,40,,
trial,html.Screen,6_20_0,2023-11-20T20:47:27.764Z,,,,1,-1.1033977063872138,-1.2513071571733083,,,true,hh,4704.606000071508,response,1.037577073517966,1.2,-1.2,1.027048110709042,1.2,-1.2,high,high,,ISIC_0025472.JPG,,ISIC_0004932.JPG,,179,true,0.3600000000000002,hh,keypress(i),0,false,404159.10000002384,404158.8000000715,399437.403,399662.8000000715,399454.194,403954.217,1,40,21,
sequence,flow.Sequence,6_20,2023-11-20T20:47:27.764Z,,,,,,,,,,,4704.606000071508,completion,,,,,,,high,high,,,,,,,true,,,,,false,404159.39999997616,404158.8000000715,399437.403,399662.8000000715,399454.194,403954.217,1,40,,
trial,html.Screen,6_21_0,2023-11-20T20:47:31.003Z,,,,1,-1.1877026569952844,-1.1604367569896263,,,true,hh,3443.682999976154,response,1.2318069697449794,1.2,-1.2,1.1703576816778267,1.2,-1.2,high,high,,ISIC_0064589.JPG,,ISIC_2732573.JPG,,26,true,0.15000000000000002,hh,keypress(i),0,false,407398.2000000477,407397.89999997616,403937.637,404159.60000002384,403954.217,407204.807,1,40,22,
sequence,flow.Sequence,6_21,2023-11-20T20:47:31.003Z,,,,,,,,,,,3443.682999976154,completion,,,,,,,high,high,,,,,,,true,,,,,false,407398.7000000477,407397.89999997616,403937.637,404159.5,403954.217,407204.807,1,40,,
trial,html.Screen,6_22_0,2023-11-20T20:47:34.548Z,,,,1,-1.2322060291690602,-1.2686491386389651,,,true,hh,3738.0929999761865,response,1.2012395086389958,1.2,-1.2,1.0618985767073823,1.2,-1.2,high,high,,ISIC_0011697.JPG,,ISIC_9876004.JPG,,26,true,0.15000000000000002,hh,keypress(i),0,false,410943.10000002384,410942.89999997616,407170.993,407398.89999997616,407204.807,410754.18,1,40,23,
sequence,flow.Sequence,6_22,2023-11-20T20:47:34.548Z,,,,,,,,,,,3738.0929999761865,completion,,,,,,,high,high,,,,,,,true,,,,,false,410943.60000002384,410942.89999997616,407170.993,407398.89999997616,407204.807,410754.18,1,40,,
trial,html.Screen,6_23_0,2023-11-20T20:47:37.987Z,,,,1,-0.7998855902596425,1.1518579145663017,,,true,hl,3628.0200000476907,response,0.879102500583965,1.2,-1.2,-1.0933081951979773,1.2,-1.2,high,low,,ISIC_0025061.JPG,,ISIC_0046223.JPG,,26,true,0.3600000000000002,hl,keypress(j),0,false,414382.39999997616,414382.2000000477,410720.994,410943.8000000715,410754.18,414187.477,1,40,24,
sequence,flow.Sequence,6_23,2023-11-20T20:47:37.987Z,,,,,,,,,,,3628.0200000476907,completion,,,,,,,high,low,,,,,,,true,,,,,false,414383,414382.2000000477,410720.994,410943.7000000477,410754.18,414187.477,1,40,,
trial,html.Screen,6_24_0,2023-11-20T20:47:46.786Z,,,,1,0.858338058340649,-0.9540612223480284,,,true,lh,8994.22300004767,response,-0.7911024675435955,1.2,-1.2,0.7975977016137676,1.2,-1.2,low,high,,ISIC_8922893.JPG,,ISIC_5813642.JPG,,27,true,0.42000000000000026,lh,keypress(e),0,false,423181.89999997616,423181.7000000477,414154.358,414383.2000000477,414187.477,422988.079,1,40,25,
sequence,flow.Sequence,6_24,2023-11-20T20:47:46.787Z,,,,,,,,,,,8994.22300004767,completion,,,,,,,low,high,,,,,,,true,,,,,false,423182.39999997616,423181.7000000477,414154.358,414383.10000002384,414187.477,422988.079,1,40,,
trial,html.Screen,6_25_0,2023-11-20T20:47:49.707Z,,,,1,1.201100953917304,1.1751492358160105,,,true,ll,3114.1210000476567,response,-1.0215600067367807,1.2,-1.2,-1.1866489745604327,1.2,-1.2,low,low,,ISIC_0647224.JPG,,ISIC_0000173.JPG,,245,true,0.3600000000000002,ll,keypress(f),0,false,426102.60000002384,426102.2000000477,422954.102,423182.7000000477,422988.079,425904.125,1,40,26,
sequence,flow.Sequence,6_25,2023-11-20T20:47:49.707Z,,,,,,,,,,,3114.1210000476567,completion,,,,,,,low,low,,,,,,,true,,,,,false,426102.89999997616,426102.2000000477,422954.102,423182.60000002384,422988.079,425904.125,1,40,,
trial,html.Screen,6_26_0,2023-11-20T20:47:53.427Z,,,,1,0.991282840649944,-0.9397921099839784,,,true,lh,3918.375,response,-0.8947611078712571,1.2,-1.2,0.8960964505004638,1.2,-1.2,low,high,,ISIC_0000463.JPG,,ISIC_6441128.JPG,,27,true,0.42000000000000026,lh,keypress(e),0,false,429822.8000000715,429822.5,425887.596,426103.10000002384,425904.125,429620.787,1,40,27,
sequence,flow.Sequence,6_26,2023-11-20T20:47:53.428Z,,,,,,,,,,,3918.375,completion,,,,,,,low,high,,,,,,,true,,,,,false,429823.2000000477,429822.5,425887.596,426103.10000002384,425904.125,429620.787,1,40,,
trial,html.Screen,6_27_0,2023-11-20T20:47:56.692Z,,,,1,1.0858641668099058,1.1638942560200525,,,true,ll,3466.0130000715144,response,-1.2224926568544014,1.2,-1.2,-0.8545830630627537,1.2,-1.2,low,low,,ISIC_5439597.JPG,,ISIC_4118762.JPG,,245,true,0.3600000000000002,ll,keypress(f),0,false,433087.10000002384,433086.8000000715,429604.05,429823.39999997616,429620.787,432887.493,1,40,28,
sequence,flow.Sequence,6_27,2023-11-20T20:47:56.692Z,,,,,,,,,,,3466.0130000715144,completion,,,,,,,low,low,,,,,,,true,,,,,false,433087.39999997616,433086.8000000715,429604.05,429823.39999997616,429620.787,432887.493,1,40,,
trial,html.Screen,6_28_0,2023-11-20T20:47:59.731Z,,,,1,-1.2254187569955004,-1.174555235109734,,,true,hh,3238.307000071509,response,1.1653123206802332,1.2,-1.2,1.2976858999596654,1.2,-1.2,high,high,,ISIC_0027187.JPG,,ISIC_0071508.JPG,,26,true,0.15000000000000002,hh,keypress(i),0,false,436126.10000002384,436125.8000000715,432870.958,433087.7000000477,432887.493,435937.443,1,40,29,
sequence,flow.Sequence,6_28,2023-11-20T20:47:59.731Z,,,,,,,,,,,3238.307000071509,completion,,,,,,,high,high,,,,,,,true,,,,,false,436126.5,436125.8000000715,432870.958,433087.60000002384,432887.493,435937.443,1,40,,
trial,html.Screen,6_29_0,2023-11-20T20:48:03.827Z,,,,1,0.8979276789594874,-0.925374811016654,,,true,lh,4284.657000023813,response,-0.9873794329144926,1.2,-1.2,0.7991077882008257,1.2,-1.2,low,high,,ISIC_4208361.JPG,,ISIC_0013498.JPG,,27,true,0.42000000000000026,lh,keypress(e),0,false,440222.3000000715,440222.10000002384,435904.151,436126.7000000477,435937.443,440020.768,1,40,30,
sequence,flow.Sequence,6_29,2023-11-20T20:48:03.827Z,,,,,,,,,,,4284.657000023813,completion,,,,,,,low,high,,,,,,,true,,,,,false,440222.7000000477,440222.10000002384,435904.151,436126.7000000477,435937.443,440020.768,1,40,,
trial,html.Screen,6_30_0,2023-11-20T20:48:08.163Z,,,,1,1.0865333402803938,-1.0542635307358266,,,true,lh,4537.131999976176,response,-0.9235571765207048,1.2,-1.2,1.0008081653938232,1.2,-1.2,low,high,,ISIC_0034006.JPG,,ISIC_8796632.JPG,,27,true,0.42000000000000026,lh,keypress(e),0,false,444558.10000002384,444557.89999997616,440004.227,440222.89999997616,440020.768,444354.103,1,40,31,
sequence,flow.Sequence,6_30,2023-11-20T20:48:08.163Z,,,,,,,,,,,4537.131999976176,completion,,,,,,,low,high,,,,,,,true,,,,,false,444558.5,444557.89999997616,440004.227,440222.8000000715,440020.768,444354.103,1,40,,
trial,html.Screen,6_31_0,2023-11-20T20:48:12.555Z,,,,1,-0.8092423703106274,1.1870093485714288,,,true,hl,4595.896999999997,response,1.2075172235545184,1.2,-1.2,-0.9116724966267612,1.2,-1.2,high,low,,ISIC_8592235.JPG,,ISIC_0024235.JPG,,26,true,0.3600000000000002,hl,keypress(j),0,false,448950.3000000715,448950,444337.447,444558.7000000477,444354.103,448754.138,1,40,32,
sequence,flow.Sequence,6_31,2023-11-20T20:48:12.555Z,,,,,,,,,,,4595.896999999997,completion,,,,,,,high,low,,,,,,,true,,,,,false,448950.7000000477,448950,444337.447,444558.60000002384,444354.103,448754.138,1,40,,
trial,html.Screen,6_32_0,2023-11-20T20:48:17.722Z,,,,1,0.9454713230140772,-0.9245167441969216,,,true,lh,5363.362000000023,response,-0.7871162143493278,1.2,-1.2,0.8429329800778957,1.2,-1.2,low,high,,ISIC_9101055.JPG,,ISIC_3439215.JPG,,27,true,0.42000000000000026,lh,keypress(e),0,false,454117.8000000715,454117.5,448737.461,448951,448754.138,453920.939,1,40,33,
sequence,flow.Sequence,6_32,2023-11-20T20:48:17.723Z,,,,,,,,,,,5363.362000000023,completion,,,,,,,low,high,,,,,,,true,,,,,false,454118.3000000715,454117.5,448737.461,448950.89999997616,448754.138,453920.939,1,40,,
trial,html.Screen,6_33_0,2023-11-20T20:48:21.553Z,,,,1,-1.2952503640839694,-1.107234527385344,,,true,hh,4027.560999999987,response,1.3657389333232104,1.2,-1.2,1.1256788483773883,1.2,-1.2,high,high,,ISIC_0034134.JPG,,ISIC_0839675.JPG,,179,true,0.3600000000000002,hh,keypress(i),0,false,457948.60000002384,457948.5,453903.993,454118.5,453920.939,457737.356,1,40,34,
sequence,flow.Sequence,6_33,2023-11-20T20:48:21.553Z,,,,,,,,,,,4027.560999999987,completion,,,,,,,high,high,,,,,,,true,,,,,false,457948.8000000715,457948.5,453903.993,454118.39999997616,453920.939,457737.356,1,40,,
trial,html.Screen,6_34_0,2023-11-20T20:48:24.684Z,,,,1,1.1598623261077452,1.203269031614007,,,true,ll,3340.4440000714967,response,-1.2322060291690602,1.2,-1.2,-1.2686491386389651,1.2,-1.2,low,low,,ISIC_0002639.JPG,,ISIC_0011697.JPG,,30,true,0.1,ll,keypress(f),0,false,461078.10000002384,461077.8000000715,457720.679,457948.8000000715,457737.356,460870.712,1,40,35,
sequence,flow.Sequence,6_34,2023-11-20T20:48:24.684Z,,,,,,,,,,,3340.4440000714967,completion,,,,,,,low,low,,,,,,,true,,,,,false,461078.5,461077.8000000715,457720.679,457948.8000000715,457737.356,460870.712,1,40,,
trial,html.Screen,6_35_0,2023-11-20T20:48:27.378Z,,,,1,-1.1346217981791904,-1.1555132168806113,,,true,hh,2901.988000047684,response,1.2724584600905462,1.2,-1.2,1.1411016103695344,1.2,-1.2,high,high,,ISIC_0032771.JPG,,ISIC_0059625.JPG,,26,true,0.15000000000000002,hh,keypress(i),0,false,463772.8000000715,463772.7000000477,460854.076,461078.7000000477,460870.712,463570.729,1,40,36,
sequence,flow.Sequence,6_35,2023-11-20T20:48:27.378Z,,,,,,,,,,,2901.988000047684,completion,,,,,,,high,high,,,,,,,true,,,,,false,463772.89999997616,463772.7000000477,460854.076,461078.7000000477,460870.712,463570.729,1,40,,
trial,html.Screen,6_36_0,2023-11-20T20:48:29.909Z,,,,1,-1.1033977063872138,-1.2513071571733083,,,true,hh,2732.0710000715335,response,1.2706447584800626,1.2,-1.2,1.0903308007916603,1.2,-1.2,high,high,,ISIC_0025472.JPG,,ISIC_9425937.JPG,,26,true,0.15000000000000002,hh,keypress(i),0,false,466303.10000002384,466302.8000000715,463554.166,463772.89999997616,463570.729,466104.293,1,40,37,
sequence,flow.Sequence,6_36,2023-11-20T20:48:29.909Z,,,,,,,,,,,2732.0710000715335,completion,,,,,,,high,high,,,,,,,true,,,,,false,466303.5,466302.8000000715,463554.166,463772.89999997616,463570.729,466104.293,1,40,,
trial,html.Screen,6_37_0,2023-11-20T20:48:32.764Z,,,,1,1.241406480986552,1.081912821786771,,,true,ll,3053.5070000715205,response,-1.242586748440878,1.2,-1.2,-1.1207933200172129,1.2,-1.2,low,low,,ISIC_4223155.JPG,,ISIC_0013073.JPG,,30,true,0.1,ll,keypress(f),0,false,469158.10000002384,469157.8000000715,466087.318,466303.7000000477,466104.293,468970.685,1,40,38,
sequence,flow.Sequence,6_37,2023-11-20T20:48:32.764Z,,,,,,,,,,,3053.5070000715205,completion,,,,,,,low,low,,,,,,,true,,,,,false,469158.8000000715,469157.8000000715,466087.318,466303.7000000477,466104.293,468970.685,1,40,,
trial,html.Screen,6_38_0,2023-11-20T20:48:37.500Z,,,,1,-0.9873794329144926,0.7991077882008257,,,true,hl,4923.315000000002,response,0.858338058340649,1.2,-1.2,-0.9540612223480284,1.2,-1.2,high,low,,ISIC_0013498.JPG,,ISIC_8922893.JPG,,26,true,0.3600000000000002,hl,keypress(j),0,false,473894.3000000715,473894,468937.302,469159.10000002384,468970.685,473687.323,1,40,39,
sequence,flow.Sequence,6_38,2023-11-20T20:48:37.500Z,,,,,,,,,,,4923.315000000002,completion,,,,,,,high,low,,,,,,,true,,,,,false,473894.7000000477,473894,468937.302,469159,468970.685,473687.323,1,40,,
trial,html.Screen,6_39_0,2023-11-20T20:48:41.282Z,,,,1,-0.809764442462202,1.005337148078696,,,true,hl,3989.4770000715507,response,0.9696118525781644,1.2,-1.2,-0.9244148283103414,1.2,-1.2,high,low,,ISIC_2379379.JPG,,ISIC_7927525.JPG,,33,true,0.42000000000000026,hl,keypress(j),0,false,477676.89999997616,477676.8000000715,473670.673,473894.8000000715,473687.323,477470.741,1,40,40,
sequence,flow.Sequence,6_39,2023-11-20T20:48:41.283Z,,,,,,,,,,,3989.4770000715507,completion,,,,,,,high,low,,,,,,,true,,,,,false,477677,477676.8000000715,473670.673,473894.8000000715,473687.323,477470.741,1,40,,
practice_loop,flow.Loop,6,2023-11-20T20:48:41.283Z,,,,,,,,,,,195688.9220000715,completion,,,,,,,,,,,,,,,true,,,,,false,477677,477676.8000000715,281971.451,282188.7000000477,281987.878,477470.741,1,40,,
stair_instructions,html.Screen,7,2023-11-20T20:48:43.889Z,,,,,,,,,,,2812.75900000002,response,,,,,,,,,,,,,,,,,continue,click button,,,480283.89999997616,480283.5,477454.148,477677.10000002384,477470.741,480087.591,,,,
trial,html.Screen,8_0_0,2023-11-20T20:48:51.857Z,,,,2,0.0113873532168551,0.0054999201556291,,0.05,false,hl,8164.109000047669,response,0.8579451262594331,1.2,-1.2,-0.9633172970727744,1.2,-1.2,high,low,,ISIC_8812621.JPG,,ISIC_0067172.JPG,33,33,false,0.42000000000000026,hh,keypress(i),0,true,488251.8000000715,488251.7000000477,480070.855,480284,480087.591,488053.973,1,40,1,
sequence,flow.Sequence,8_0,2023-11-20T20:48:51.858Z,,,,,,,,,,,8164.109000047669,completion,,,,,,,high,low,,,,,,,false,,,,,true,488251.89999997616,488251.7000000477,480070.855,480284,480087.591,488053.973,1,40,,
trial,html.Screen,8_1_0,2023-11-20T20:48:55.620Z,,,,2,0.0134764727102299,0.0033499036460912,,0.05,true,lh,3959.8270000715274,response,-0.7998855902596425,1.15,-1.15,1.1518579145663017,1.15,-1.2,low,high,,ISIC_0009998.JPG,,ISIC_0025061.JPG,33,27,false,0.3700000000000002,lh,keypress(e),0,true,492014.10000002384,492013.8000000715,488037.302,488252,488053.973,491804.026,1,40,2,
sequence,flow.Sequence,8_1,2023-11-20T20:48:55.620Z,,,,,,,,,,,3959.8270000715274,completion,,,,,,,low,high,,,,,,,false,,,,,true,492014.5,492013.8000000715,488037.302,488251.89999997616,488053.973,491804.026,1,40,,
trial,html.Screen,8_2_0,2023-11-20T20:48:59.009Z,,,,2,-0.0324770283903853,-0.0249968632204382,,0.05,false,hh,3599.3739999761456,response,1.0789197754694622,1.15,-1.15,1.1654690806750023,1.15,-1.15,high,high,,ISIC_7266462.JPG,,ISIC_1576437.JPG,33,30,false,0.13,lh,keypress(e),0,true,495403.60000002384,495403.39999997616,491787.204,492014.7000000477,491804.026,495204.027,1,40,3,
sequence,flow.Sequence,8_2,2023-11-20T20:48:59.009Z,,,,,,,,,,,3599.3739999761456,completion,,,,,,,high,high,,,,,,,false,,,,,true,495403.7000000477,495403.39999997616,491787.204,492014.60000002384,491804.026,495204.027,1,40,,
trial,html.Screen,8_3_0,2023-11-20T20:49:03.980Z,,,,2,-0.007397293189458,-0.0174716772037504,,0.05,true,hh,5169.872999976156,response,1.09666761087476,1.15,-1.15,1.1072126870290426,1.108663497620652,-1.15,high,high,,ISIC_0056226.JPG,,ISIC_0071754.JPG,33,25,false,0.1,hh,keypress(i),0,true,500374.2000000477,500373.89999997616,495187.469,495403.7000000477,495204.027,500170.606,1,40,4,
sequence,flow.Sequence,8_3,2023-11-20T20:49:03.980Z,,,,,,,,,,,5169.872999976156,completion,,,,,,,high,high,,,,,,,false,,,,,true,500374.5,500373.89999997616,495187.469,495403.7000000477,495204.027,500170.606,1,40,,
trial,html.Screen,8_4_0,2023-11-20T20:49:09.060Z,,,,2,-0.0389988030702649,-0.0143212271490256,,0.05,true,hl,5283.293999976129,response,0.991282840649944,1.15,-1.15,-0.9397921099839784,1.108663497620652,-1.15,high,low,,ISIC_0064669.JPG,,ISIC_0000463.JPG,33,25,false,0.31000000000000016,hl,keypress(j),0,true,505454.10000002384,505453.89999997616,500153.89,500374.8000000715,500170.606,505253.925,1,40,5,
sequence,flow.Sequence,8_4,2023-11-20T20:49:09.060Z,,,,,,,,,,,5283.293999976129,completion,,,,,,,high,low,,,,,,,false,,,,,true,505454.60000002384,505453.89999997616,500153.89,500374.7000000477,500170.606,505253.925,1,40,,
trial,html.Screen,8_5_0,2023-11-20T20:49:11.820Z,,,,2,0.0245376145053177,-0.0436993426328401,,0.05,true,lh,2959.97499997617,response,-1.0264463986917702,1.0999999999999999,-1.15,1.2804054832904397,1.108663497620652,-1.15,low,high,,ISIC_0056444.JPG,,ISIC_7889838.JPG,33,25,false,0.3600000000000002,lh,keypress(e),0,true,508214.10000002384,508213.89999997616,505237.168,505454.7000000477,505253.925,508003.991,1,40,6,
sequence,flow.Sequence,8_5,2023-11-20T20:49:11.820Z,,,,,,,,,,,2959.97499997617,completion,,,,,,,low,high,,,,,,,false,,,,,true,508214.60000002384,508213.89999997616,505237.168,505454.7000000477,505253.925,508003.991,1,40,,
trial,html.Screen,8_6_0,2023-11-20T20:49:16.203Z,,,,2,0.000047919190197942736,0.0462652940855003,,0.05,true,ll,4593.609000023862,response,-1.1346217981791904,1.0999999999999999,-1.0999999999999999,-1.1555132168806113,1.058663497620652,-1.15,low,low,,ISIC_0011507.JPG,,ISIC_0032771.JPG,33,30,false,0.11,ll,keypress(f),0,true,512597.89999997616,512597.60000002384,507987.403,508214.60000002384,508003.991,512387.294,1,40,7,
sequence,flow.Sequence,8_6,2023-11-20T20:49:16.204Z,,,,,,,,,,,4593.609000023862,completion,,,,,,,low,low,,,,,,,false,,,,,true,512598.2000000477,512597.60000002384,507987.403,508214.60000002384,508003.991,512387.294,1,40,,
trial,html.Screen,8_7_0,2023-11-20T20:49:20.650Z,,,,2,0.013431314305098,-0.0140597582944232,,0.05,false,ll,4656.906000047689,response,-1.101346104814838,1.0999999999999999,-1.0999999999999999,-1.1225813067473052,1.058663497620652,-1.0950675075299008,low,low,,ISIC_0069617.JPG,,ISIC_8175453.JPG,33,31,false,0.1,hl,keypress(j),0,true,517044.39999997616,517044.2000000477,512370.582,512598.39999997616,512387.294,516837.243,1,40,8,
sequence,flow.Sequence,8_7,2023-11-20T20:49:20.650Z,,,,,,,,,,,4656.906000047689,completion,,,,,,,low,low,,,,,,,false,,,,,true,517044.39999997616,517044.2000000477,512370.582,512598.39999997616,512387.294,516837.243,1,40,,
trial,html.Screen,8_8_0,2023-11-20T20:49:23.235Z,,,,2,0.0051189696037511,-0.0396625911332438,,0.05,true,ll,2791.1569999761414,response,-1.2296334397777855,1.0999999999999999,-1.15,-1.022420086815287,1.058663497620652,-1.0950675075299008,low,low,,ISIC_9742891.JPG,,ISIC_0073173.JPG,33,32,false,0.1,ll,keypress(f),0,true,519628.5,519628.39999997616,516820.689,517044.60000002384,516837.243,519420.568,1,40,9,
sequence,flow.Sequence,8_8,2023-11-20T20:49:23.235Z,,,,,,,,,,,2791.1569999761414,completion,,,,,,,low,low,,,,,,,false,,,,,true,519628.60000002384,519628.39999997616,516820.689,517044.5,516837.243,519420.568,1,40,,
trial,html.Screen,8_9_0,2023-11-20T20:49:30.836Z,,,,2,-0.0363437082783146,-0.0333332186217051,,0.05,false,hh,7808.33199997613,response,1.037577073517966,1.0999999999999999,-1.15,1.027048110709042,1.058663497620652,-1.0760267632965361,high,high,,ISIC_3314555.JPG,,ISIC_0004932.JPG,33,32,false,0.11,lh,keypress(e),0,true,527229,527228.8999999762,519404.066,519628.7000000477,519420.568,527020.53,1,40,10,
sequence,flow.Sequence,8_9,2023-11-20T20:49:30.836Z,,,,,,,,,,,7808.33199997613,completion,,,,,,,high,high,,,,,,,false,,,,,true,527229.1000000238,527228.8999999762,519404.066,519628.60000002384,519420.568,527020.53,1,40,,
trial,html.Screen,8_10_0,2023-11-20T20:49:33.971Z,,,,2,0.013431314305098,-0.0140597582944232,,0.05,false,hh,3343.7700000714976,response,1.057008495826831,1.15,-1.15,1.1278122585028287,1.058663497620652,-1.0760267632965361,high,high,,ISIC_0069617.JPG,,ISIC_2819798.JPG,33,28,false,0.11,ll,keypress(f),0,true,530364.3999999762,530364.3000000715,527003.879,527229.2000000477,527020.53,530153.811,1,40,11,
sequence,flow.Sequence,8_10,2023-11-20T20:49:33.971Z,,,,,,,,,,,3343.7700000714976,completion,,,,,,,high,high,,,,,,,false,,,,,true,530364.5,530364.3000000715,527003.879,527229.2000000477,527020.53,530153.811,1,40,,
trial,html.Screen,8_11_0,2023-11-20T20:49:36.187Z,,,,2,0.0245376145053177,-0.0436993426328401,,0.05,false,hl,2426.588999976171,response,1.2075172235545184,1.15,-1.15,-0.9116724966267612,1.108663497620652,-1.0760267632965361,high,low,,ISIC_0056444.JPG,,ISIC_0024235.JPG,33,27,false,0.30000000000000016,ll,keypress(f),0,true,532580.5,532580.3999999762,530137.342,530364.5,530153.811,532370.507,1,40,12,
sequence,flow.Sequence,8_11,2023-11-20T20:49:36.187Z,,,,,,,,,,,2426.588999976171,completion,,,,,,,high,low,,,,,,,false,,,,,true,532580.6000000238,532580.3999999762,530137.342,530364.5,530153.811,532370.507,1,40,,
trial,html.Screen,8_12_0,2023-11-20T20:49:40.661Z,,,,2,0.0188047466661863,-0.0288346930436979,,0.05,true,lh,4683.293000071542,response,-1.0115965332688306,1.15,-1.15,0.8282633603842442,1.108663497620652,-1.0760267632965361,low,high,,ISIC_0014157.JPG,,ISIC_1069587.JPG,33,25,false,0.3600000000000002,lh,keypress(e),0,true,537054,537053.8000000715,532353.813,532580.7000000477,532370.507,536853.812,1,40,13,
sequence,flow.Sequence,8_12,2023-11-20T20:49:40.661Z,,,,,,,,,,,4683.293000071542,completion,,,,,,,low,high,,,,,,,false,,,,,true,537054.3000000715,537053.8000000715,532353.813,532580.6000000238,532370.507,536853.812,1,40,,
trial,html.Screen,8_13_0,2023-11-20T20:49:47.012Z,,,,2,0.0102460616775615,-0.0309670599545429,,0.05,false,lh,6550.988000071491,response,-0.8947611078712571,1.15,-1.0999999999999999,0.8960964505004638,1.108663497620652,-1.0760267632965361,low,high,,ISIC_0072041.JPG,,ISIC_6441128.JPG,33,26,false,0.3200000000000002,hh,keypress(i),0,true,543404.8999999762,543404.8000000715,536837.049,537054.3999999762,536853.812,543203.896,1,40,14,
sequence,flow.Sequence,8_13,2023-11-20T20:49:47.012Z,,,,,,,,,,,6550.988000071491,completion,,,,,,,low,high,,,,,,,false,,,,,true,543405,543404.8000000715,536837.049,537054.3999999762,536853.812,543203.896,1,40,,
trial,html.Screen,8_14_0,2023-11-20T20:49:52.870Z,,,,2,-0.0070725527271049,-0.0049995141077508,,0.05,true,hh,6058.804000047734,response,1.2073182124516106,1.15,-1.15,0.802303915567935,0.812179905442354,-1.0760267632965361,high,high,,ISIC_6124481.JPG,,ISIC_2214766.JPG,33,36,false,0.1,hh,keypress(i),0,true,549263,549262.7000000477,543187.143,543405,543203.896,549053.864,1,40,15,
sequence,flow.Sequence,8_14,2023-11-20T20:49:52.870Z,,,,,,,,,,,6058.804000047734,completion,,,,,,,high,high,,,,,,,false,,,,,true,549263.3999999762,549262.7000000477,543187.143,543405,543203.896,549053.864,1,40,,
trial,html.Screen,8_15_0,2023-11-20T20:49:55.116Z,,,,2,0.0102460616775615,-0.0309670599545429,,0.05,true,ll,2455.035999976215,response,-1.247270138097585,1.15,-1.15,-1.1704704713504994,0.812179905442354,-1.0760267632965361,low,low,,ISIC_0072041.JPG,,ISIC_0065774.JPG,33,32,false,0.1,ll,keypress(f),0,true,551509,551508.8999999762,549037.159,549263.6000000238,549053.864,551303.884,1,40,16,
sequence,flow.Sequence,8_15,2023-11-20T20:49:55.116Z,,,,,,,,,,,2455.035999976215,completion,,,,,,,low,low,,,,,,,false,,,,,true,551509.1000000238,551508.8999999762,549037.159,549263.6000000238,549053.864,551303.884,1,40,,
trial,html.Screen,8_16_0,2023-11-20T20:49:57.205Z,,,,2,-0.0085520978188085,0.0464691161264081,,0.05,true,ll,2293.816000047722,response,-1.0762260610050776,1.15,-1.15,-1.082709423673037,0.812179905442354,-1.158870304724042,low,low,,ISIC_0758797.JPG,,ISIC_0058666.JPG,33,29,false,0.1,ll,keypress(f),0,true,553598,553597.7000000477,551287.165,551509.1000000238,551303.884,553404.383,1,40,17,
sequence,flow.Sequence,8_16,2023-11-20T20:49:57.205Z,,,,,,,,,,,2293.816000047722,completion,,,,,,,low,low,,,,,,,false,,,,,true,553598.3999999762,553597.7000000477,551287.165,551509.1000000238,551303.884,553404.383,1,40,,
trial,html.Screen,8_17_0,2023-11-20T20:50:00.155Z,,,,2,0.013431314305098,-0.0140597582944232,,0.05,true,hh,3144.417000071495,response,1.1864860711009846,1.15,-1.0294677423390572,0.8363634080775226,0.812179905442354,-1.158870304724042,high,high,,ISIC_0069617.JPG,,ISIC_0007257.JPG,33,36,false,0.1,hh,keypress(i),0,true,556548.8000000715,556548.8000000715,553370.549,553598.6000000238,553404.383,556354.184,1,40,18,
sequence,flow.Sequence,8_17,2023-11-20T20:50:00.156Z,,,,,,,,,,,3144.417000071495,completion,,,,,,,high,high,,,,,,,false,,,,,true,556548.8999999762,556548.8000000715,553370.549,553598.5,553404.383,556354.184,1,40,,
trial,html.Screen,8_18_0,2023-11-20T20:50:03.732Z,,,,2,-0.0329095507339554,0.0382899749693245,,0.05,false,lh,3771.3159999999916,response,-1.0022829373011404,1.0999999999999999,-1.0294677423390572,0.8311726972863814,0.7621799054423539,-1.158870304724042,low,high,,ISIC_8812781.JPG,,ISIC_0033287.JPG,33,26,false,0.17000000000000004,hl,keypress(j),0,true,560125.8000000715,560125.5,556320.668,556549,556354.184,559920.426,1,40,19,
sequence,flow.Sequence,8_18,2023-11-20T20:50:03.733Z,,,,,,,,,,,3771.3159999999916,completion,,,,,,,low,high,,,,,,,false,,,,,true,560126.1000000238,560125.5,556320.668,556549,556354.184,559920.426,1,40,,
trial,html.Screen,8_19_0,2023-11-20T20:50:06.069Z,,,,2,-0.0217698886732706,0.0410870915161425,,0.05,true,ll,2541.274000047706,response,-1.152619213055059,1.0999999999999999,-1.0794677423390573,-1.1117876838408909,0.812179905442354,-1.158870304724042,low,low,,ISIC_0072173.JPG,,ISIC_0061915.JPG,33,32,false,0.11,ll,keypress(f),0,true,562462,562461.7000000477,559903.916,560126.3000000715,559920.426,562253.769,1,40,20,
sequence,flow.Sequence,8_19,2023-11-20T20:50:06.069Z,,,,,,,,,,,2541.274000047706,completion,,,,,,,low,low,,,,,,,false,,,,,true,562462.3999999762,562461.7000000477,559903.916,560126.2000000477,559920.426,562253.769,1,40,,
trial,html.Screen,8_20_0,2023-11-20T20:50:09.260Z,,,,2,0.0277178575053843,-0.0395587463147856,,0.05,true,hh,3399.130999976187,response,1.1430608590552875,1.0999999999999999,-1.0794677423390573,0.7294331040268569,0.812179905442354,-1.0822034484479748,high,high,,ISIC_0010807.JPG,,ISIC_4692454.JPG,33,39,false,0.1,hh,keypress(i),0,true,565653,565652.8999999762,562237.084,562462.6000000238,562253.769,565453.853,1,40,21,
sequence,flow.Sequence,8_20,2023-11-20T20:50:09.260Z,,,,,,,,,,,3399.130999976187,completion,,,,,,,high,high,,,,,,,false,,,,,true,565653.2000000477,565652.8999999762,562237.084,562462.6000000238,562253.769,565453.853,1,40,,
trial,html.Screen,8_21_0,2023-11-20T20:50:11.725Z,,,,2,-0.0070725527271049,-0.0049995141077508,,0.05,false,ll,2663.947000071523,response,-1.0005520482328611,1.0999999999999999,-1.0794677423390573,-1.0694936015783003,0.812179905442354,-1.0822034484479748,low,low,,ISIC_6124481.JPG,,ISIC_0059891.JPG,33,27,false,0.1,lh,keypress(e),0,true,568118.1000000238,568117.8000000715,565437.131,565653.2000000477,565453.853,567920.44,1,40,22,
sequence,flow.Sequence,8_21,2023-11-20T20:50:11.725Z,,,,,,,,,,,2663.947000071523,completion,,,,,,,low,low,,,,,,,false,,,,,true,568118.5,568117.8000000715,565437.131,565653.2000000477,565453.853,567920.44,1,40,,
trial,html.Screen,8_22_0,2023-11-20T20:50:14.485Z,,,,2,-0.0107854985447517,-0.0478010417136109,,0.05,true,hl,2957.8600000715815,response,0.8487429103619056,1.0999999999999999,-1.0294677423390572,-0.9778257804233036,0.812179905442354,-1.1322034484479748,high,low,,ISIC_0010500.JPG,,ISIC_4554863.JPG,33,26,false,0.29000000000000015,hl,keypress(j),0,true,570878.6000000238,570878.3000000715,567903.96,568118.8000000715,567920.44,570687.087,1,40,23,
sequence,flow.Sequence,8_22,2023-11-20T20:50:14.486Z,,,,,,,,,,,2957.8600000715815,completion,,,,,,,high,low,,,,,,,false,,,,,true,570879,570878.3000000715,567903.96,568118.7000000477,567920.44,570687.087,1,40,,
trial,html.Screen,8_23_0,2023-11-20T20:50:19.772Z,,,,2,-0.0450282431170921,0,,0.05,false,hl,5478.213000071468,response,0.9433720631499012,1.0499999999999998,-1.0294677423390572,-1.0582071940347648,0.812179905442354,-1.1322034484479748,high,low,,ISIC_1805163.JPG,,ISIC_4890201.JPG,33,27,false,0.28000000000000014,lh,keypress(e),0,true,576165.7000000477,576165.3000000715,570653.947,570879.2000000477,570687.087,575970.376,1,40,24,
sequence,flow.Sequence,8_23,2023-11-20T20:50:19.773Z,,,,,,,,,,,5478.213000071468,completion,,,,,,,high,low,,,,,,,false,,,,,true,576166,576165.3000000715,570653.947,570879.1000000238,570687.087,575970.376,1,40,,
trial,html.Screen,8_24_0,2023-11-20T20:50:21.798Z,,,,2,0,0.0264544974620926,,0.05,true,hl,2219.2240000237944,response,1.2075172235545184,1.0999999999999999,-1.0294677423390572,-0.9116724966267612,0.812179905442354,-1.1822034484479749,high,low,,ISIC_0056991.JPG,,ISIC_0024235.JPG,33,25,false,0.3200000000000002,hl,keypress(j),0,true,578189.8000000715,578189.6000000238,575953.766,576166.2000000477,575970.376,577987.071,1,40,25,
sequence,flow.Sequence,8_24,2023-11-20T20:50:21.798Z,,,,,,,,,,,2219.2240000237944,completion,,,,,,,high,low,,,,,,,false,,,,,true,578190.2000000477,578189.6000000238,575953.766,576166.1000000238,575970.376,577987.071,1,40,,
trial,html.Screen,8_25_0,2023-11-20T20:50:23.988Z,,,,2,-0.0050679133050021,0.0009714874637896,,0.05,false,hl,2393.2290000715293,response,1.2695509547992938,1.0999999999999999,-1.0294677423390572,-0.9641099676945492,0.812179905442354,-1.1822034484479749,high,low,,ISIC_9848743.JPG,,ISIC_0025841.JPG,33,25,false,0.3200000000000002,ll,keypress(f),0,true,580380.3999999762,580380.3000000715,577970.63,578190.3999999762,577987.071,580170.355,1,40,26,
sequence,flow.Sequence,8_25,2023-11-20T20:50:23.988Z,,,,,,,,,,,2393.2290000715293,completion,,,,,,,high,low,,,,,,,false,,,,,true,580380.6000000238,580380.3000000715,577970.63,578190.3999999762,577987.071,580170.355,1,40,,
trial,html.Screen,8_26_0,2023-11-20T20:50:26.598Z,,,,2,0.0409338693593207,-0.0072462710499874,,0.05,false,lh,2819.3450000477023,response,-0.9238778505223862,1.15,-1.0294677423390572,0.6879166947304511,0.812179905442354,-0.8878912321606551,low,high,,ISIC_3608788.JPG,,ISIC_0028291.JPG,33,29,false,0.20000000000000007,ll,keypress(f),0,true,582989.8999999762,582989.7000000477,580153.948,580380.6000000238,580170.355,582787.044,1,40,27,
sequence,flow.Sequence,8_26,2023-11-20T20:50:26.598Z,,,,,,,,,,,2819.3450000477023,completion,,,,,,,low,high,,,,,,,false,,,,,true,582990.3000000715,582989.7000000477,580153.948,580380.6000000238,580170.355,582787.044,1,40,,
trial,html.Screen,8_27_0,2023-11-20T20:50:31.182Z,,,,2,-0.0050679133050021,0.0009714874637896,,0.05,true,lh,4787.355999976164,response,-0.8947611078712571,1.15,-1.0294677423390572,0.8960964505004638,0.862179905442354,-0.8878912321606551,low,high,,ISIC_9848743.JPG,,ISIC_6441128.JPG,33,27,false,0.22000000000000008,lh,keypress(e),0,true,587574.6000000238,587574.3999999762,582770.4,582990.6000000238,582787.044,587370.345,1,40,28,
sequence,flow.Sequence,8_27,2023-11-20T20:50:31.183Z,,,,,,,,,,,4787.355999976164,completion,,,,,,,low,high,,,,,,,false,,,,,true,587575,587574.3999999762,582770.4,582990.5,582787.044,587370.345,1,40,,
trial,html.Screen,8_28_0,2023-11-20T20:50:39.997Z,,,,2,-0.0070725527271049,-0.0049995141077508,,0.05,false,hl,9019.25500002387,response,1.27543269240326,1.15,-0.9794677423390572,-0.80839597388021,0.862179905442354,-0.8878912321606551,high,low,,ISIC_6124481.JPG,,ISIC_3296136.JPG,33,26,false,0.21000000000000008,hh,keypress(i),0,true,596389.8000000715,596389.6000000238,587353.637,587575.3000000715,587370.345,596186.963,1,40,29,
sequence,flow.Sequence,8_28,2023-11-20T20:50:39.998Z,,,,,,,,,,,9019.25500002387,completion,,,,,,,high,low,,,,,,,false,,,,,true,596390.1000000238,596389.6000000238,587353.637,587575.2000000477,587370.345,596186.963,1,40,,
trial,html.Screen,8_29_0,2023-11-20T20:50:44.013Z,,,,2,-0.0217698886732706,0.0410870915161425,,0.05,false,hh,4218.537000000011,response,1.13791006772072,1.15,-0.9794677423390572,0.8618956235878876,0.862179905442354,-0.9378912321606552,high,high,,ISIC_0072173.JPG,,ISIC_6635699.JPG,33,30,false,0.1,lh,keypress(e),0,true,600405.7000000477,600405.5,596170.088,596390.3999999762,596186.963,600220.335,1,40,30,
sequence,flow.Sequence,8_29,2023-11-20T20:50:44.014Z,,,,,,,,,,,4218.537000000011,completion,,,,,,,high,high,,,,,,,false,,,,,true,600406.1000000238,600405.5,596170.088,596390.3000000715,596186.963,600220.335,1,40,,
trial,html.Screen,8_30_0,2023-11-20T20:50:48.845Z,,,,2,0.0188047466661863,-0.0288346930436979,,0.05,false,lh,5017.165000000037,response,-0.7468996036626098,1.15,-0.9794677423390572,0.8073835700282378,1.0186641579955737,-0.9378912321606552,low,high,,ISIC_0014157.JPG,,ISIC_5335139.JPG,33,26,false,0.2400000000000001,ll,keypress(f),0,true,605237.7000000477,605237.5,600186.89,600406.3000000715,600220.335,605036.953,1,40,31,
sequence,flow.Sequence,8_30,2023-11-20T20:50:48.846Z,,,,,,,,,,,5017.165000000037,completion,,,,,,,low,high,,,,,,,false,,,,,true,605238.1000000238,605237.5,600186.89,600406.3000000715,600220.335,605036.953,1,40,,
trial,html.Screen,8_31_0,2023-11-20T20:50:50.957Z,,,,2,-0.0050679133050021,0.0009714874637896,,0.05,false,lh,2311.847000071546,response,-0.8816288864119318,1.15,-0.9794677423390572,0.801867301188093,1.0686641579955738,-0.9378912321606552,low,high,,ISIC_9848743.JPG,,ISIC_9196783.JPG,33,25,false,0.27000000000000013,ll,keypress(f),0,true,607348.8999999762,607348.8000000715,605020.347,605238.2000000477,605036.953,607154.182,1,40,32,
sequence,flow.Sequence,8_31,2023-11-20T20:50:50.957Z,,,,,,,,,,,2311.847000071546,completion,,,,,,,low,high,,,,,,,false,,,,,true,607349.2000000477,607348.8000000715,605020.347,605238.2000000477,605036.953,607154.182,1,40,,
trial,html.Screen,8_32_0,2023-11-20T20:50:53.372Z,,,,2,-0.0027483411352856,-0.0100996915276271,,0.05,false,hl,2610.018000047654,response,1.11969546505004,1.15,-0.7642642450372708,-0.7169584869657797,1.1186641579955738,-0.9378912321606552,high,low,,ISIC_7364041.JPG,,ISIC_0033967.JPG,33,25,false,0.2500000000000001,ll,keypress(f),0,true,609764.3000000715,609764.2000000477,607120.439,607349.3000000715,607154.182,609553.611,1,40,33,
sequence,flow.Sequence,8_32,2023-11-20T20:50:53.372Z,,,,,,,,,,,2610.018000047654,completion,,,,,,,high,low,,,,,,,false,,,,,true,609764.3999999762,609764.2000000477,607120.439,607349.3000000715,607154.182,609553.611,1,40,,
trial,html.Screen,8_33_0,2023-11-20T20:50:59.286Z,,,,2,0.0051189696037511,-0.0396625911332438,,0.05,false,ll,6124.189000071492,response,-0.7315234283270932,1.15,-0.7642642450372708,-0.8515003193470463,1.1186641579955738,-0.9378912321606552,low,low,,ISIC_9742891.JPG,,ISIC_0010416.JPG,33,49,false,0.1,hl,keypress(j),0,true,615678.1000000238,615677.8000000715,609536.97,609764.5,609553.611,615470.289,1,40,34,
sequence,flow.Sequence,8_33,2023-11-20T20:50:59.286Z,,,,,,,,,,,6124.189000071492,completion,,,,,,,low,low,,,,,,,false,,,,,true,615678.3999999762,615677.8000000715,609536.97,609764.5,609553.611,615470.289,1,40,,
trial,html.Screen,8_34_0,2023-11-20T20:51:01.526Z,,,,2,-0.0107854985447517,-0.0478010417136109,,0.05,true,ll,2447.311000023852,response,-0.7441896189732631,1.15,-0.8142642450372708,-0.6800800496599435,1.1186641579955738,-0.7342294031564129,low,low,,ISIC_0010500.JPG,,ISIC_0064633.JPG,33,68,false,0.1,ll,keypress(f),0,true,617917.8999999762,617917.6000000238,615453.68,615678.6000000238,615470.289,617720.359,1,40,35,
sequence,flow.Sequence,8_34,2023-11-20T20:51:01.526Z,,,,,,,,,,,2447.311000023852,completion,,,,,,,low,low,,,,,,,false,,,,,true,617918.3000000715,617917.6000000238,615453.68,615678.6000000238,615470.289,617720.359,1,40,,
trial,html.Screen,8_35_0,2023-11-20T20:51:04.692Z,,,,2,-0.0217698886732706,0.0410870915161425,,0.05,true,hl,3363.640999999945,response,1.2364994561934892,1.15,-0.8142642450372708,-0.9174173651516624,1.1186641579955738,-0.7342294031564129,high,low,,ISIC_0072173.JPG,,ISIC_3481133.JPG,33,26,false,0.19000000000000006,hl,keypress(j),0,true,621084.1000000238,621084,617703.718,617918.5,617720.359,620886.934,1,40,36,
sequence,flow.Sequence,8_35,2023-11-20T20:51:04.692Z,,,,,,,,,,,3363.640999999945,completion,,,,,,,high,low,,,,,,,false,,,,,true,621084.1000000238,621084,617703.718,617918.5,617720.359,620886.934,1,40,,
trial,html.Screen,8_36_0,2023-11-20T20:51:08.413Z,,,,2,0.000047919190197942736,0.0462652940855003,,0.05,false,lh,3918.4659999761498,response,-0.7870237732709365,1.15,-0.8142642450372708,0.9172955251119376,1.1186641579955738,-0.6842294031564129,low,high,,ISIC_0011507.JPG,,ISIC_0057716.JPG,33,27,false,0.21000000000000008,hl,keypress(j),0,true,624805.7000000477,624805.3999999762,620870.469,621084.2000000477,620886.934,624603.581,1,40,37,
sequence,flow.Sequence,8_36,2023-11-20T20:51:08.414Z,,,,,,,,,,,3918.4659999761498,completion,,,,,,,low,high,,,,,,,false,,,,,true,624806.1000000238,624805.3999999762,620870.469,621084.1000000238,620886.934,624603.581,1,40,,
trial,html.Screen,8_37_0,2023-11-20T20:51:12.678Z,,,,2,-0.0107854985447517,-0.0478010417136109,,0.05,false,hh,4466.119000047678,response,1.2024083555600384,1.15,-0.8642642450372708,1.149077673153018,1.1686641579955739,-0.6842294031564129,high,high,,ISIC_0010500.JPG,,ISIC_3566243.JPG,33,26,false,0.13,lh,keypress(e),0,true,629069.8999999762,629069.7000000477,624586.968,624806.3000000715,624603.581,628870.407,1,40,38,
sequence,flow.Sequence,8_37,2023-11-20T20:51:12.678Z,,,,,,,,,,,4466.119000047678,completion,,,,,,,high,high,,,,,,,false,,,,,true,629070.3000000715,629069.7000000477,624586.968,624806.3000000715,624603.581,628870.407,1,40,,
trial,html.Screen,8_38_0,2023-11-20T20:51:16.390Z,,,,2,-0.0217698886732706,0.0410870915161425,,0.05,true,hh,3911.893000071519,response,1.2318069697449794,1.15,-0.8642642450372708,1.1703576816778267,1.1686641579955739,-0.6842294031564129,high,high,,ISIC_0072173.JPG,,ISIC_2732573.JPG,33,26,false,0.13,hh,keypress(i),0,true,632782.5,632782.3000000715,628853.731,629070.5,628870.407,632586.92,1,40,39,
sequence,flow.Sequence,8_38,2023-11-20T20:51:16.391Z,,,,,,,,,,,3911.893000071519,completion,,,,,,,high,high,,,,,,,false,,,,,true,632782.8999999762,632782.3000000715,628853.731,629070.3999999762,628870.407,632586.92,1,40,,
trial,html.Screen,8_39_0,2023-11-20T20:51:20.541Z,,,,2,-0.0069555338059566,0.0310100918136373,,0.05,false,ll,4346.479999976116,response,-0.7829614815657523,1.15,-0.8642642450372708,-0.6216155651466599,1.1510823257114031,-0.6842294031564129,low,low,,ISIC_0011177.JPG,,ISIC_5297660.JPG,33,65,false,0.1,lh,keypress(e),0,true,636933.7000000477,636933.3999999762,632570.38,632783.2000000477,632586.92,636737.159,1,40,40,
sequence,flow.Sequence,8_39,2023-11-20T20:51:20.542Z,,,,,,,,,,,4346.479999976116,completion,,,,,,,low,low,,,,,,,false,,,,,true,636934.1000000238,636933.3999999762,632570.38,632783.1000000238,632586.92,636737.159,1,40,,
stair_loop,flow.Loop,8,2023-11-20T20:51:20.542Z,,,,,,,,,,,156845.80899997614,completion,,,,,,,,,,,,,,,false,,,,,true,636934.3999999762,636933.3999999762,480070.855,480284,480087.591,636737.159,1,40,,
exp_instructions,html.Screen,9,2023-11-20T20:51:36.214Z,,,,,,,,,,,15868.041000047699,response,,,,,,,,,,,,,,,,,continue,keypress(Space),,,652606,652605.2000000477,636720.236,636934.3999999762,636737.159,652403.507,,,,
trial,html.Screen,10_0_0,2023-11-20T20:51:43.532Z,,,,1,0.0112310719058792,-0.0469047359904117,,0.05,false,lh,7520.1930000477005,response,-1.0022829373011404,1.1324999999999998,-0.9408863434183423,0.8311726972863814,0.9720429401047557,-0.9175863483455782,low,high,,ISIC_0068184.JPG,10,ISIC_0033287.JPG,33,26,false,0.20000000000000007,hl,keypress(j),0,false,659923.8000000715,659923.7000000477,652386.43,652606.3000000715,652403.507,659720.231,5,600,1,
break,html.Screen,10_0_1,2023-11-20T20:51:43.533Z,,,,,,,,,,,NaN,,,,,,,,low,high,,,,,,,false,,,,,false,659924.2000000477,659924.1000000238,,659923.8999999762,,659720.231,5,600,,
break_continue,html.Screen,10_0_2,2023-11-20T20:51:43.533Z,,,,,,,,,,,NaN,,,,,,,,low,high,,,,,,,false,,,,,false,659924.3999999762,659924.3000000715,,659924.2000000477,,659720.231,5,600,,
sequence,flow.Sequence,10_0,2023-11-20T20:51:43.533Z,,,,,,,,,,,7520.793000071542,completion,,,,,,,low,high,,,,,,,false,,,,,false,659924.6000000238,659924.3000000715,652386.43,652606.3000000715,652403.507,659720.231,5,600,,
trial,html.Screen,10_1_0,2023-11-20T20:51:47.037Z,,,,1,0.0102460616775615,-0.0309670599545429,,0.05,true,ll,3707.768999999971,response,-0.9125678790631364,1.1324999999999998,-0.9408863434183423,-0.9430679164922772,0.9720429401047557,-0.9175863483455782,low,low,,ISIC_0072041.JPG,8,ISIC_0062111.JPG,33,37,false,0.1,ll,keypress(f),0,false,663428.2000000477,663428,659703.463,659924.6000000238,659720.231,663220.141,5,600,2,
break,html.Screen,10_1_1,2023-11-20T20:51:47.037Z,,,,,,,,,,,NaN,,,,,,,,low,low,,,,,,,false,,,,,false,663428.3999999762,663428.3000000715,,663428.3000000715,,663220.141,5,600,,
break_continue,html.Screen,10_1_2,2023-11-20T20:51:47.037Z,,,,,,,,,,,NaN,,,,,,,,low,low,,,,,,,false,,,,,false,663428.7000000477,663428.6000000238,,663428.5,,663220.141,5,600,,
sequence,flow.Sequence,10_1,2023-11-20T20:51:47.037Z,,,,,,,,,,,3708.369000023813,completion,,,,,,,low,low,,,,,,,false,,,,,false,663428.7000000477,663428.6000000238,659703.463,659924.6000000238,659720.231,663220.141,5,600,,
trial,html.Screen,10_2_0,2023-11-20T20:51:51.022Z,,,,1,0.0112310719058792,-0.0469047359904117,,0.05,false,lh,4193.1590000715805,response,-0.9873794329144926,1.1324999999999998,-0.9408863434183423,0.7991077882008257,0.9720429401047557,-0.9175863483455782,low,high,,ISIC_0068184.JPG,9,ISIC_0013498.JPG,33,26,false,0.20000000000000007,hl,keypress(j),0,false,667413.6000000238,667413.3000000715,663203.634,663428.7000000477,663220.141,667203.553,5,600,3,
break,html.Screen,10_2_1,2023-11-20T20:51:51.023Z,,,,,,,,,,,NaN,,,,,,,,low,high,,,,,,,false,,,,,false,667414.5,667414.3000000715,,667413.8999999762,,667203.553,5,600,,
break_continue,html.Screen,10_2_2,2023-11-20T20:51:51.024Z,,,,,,,,,,,NaN,,,,,,,,low,high,,,,,,,false,,,,,false,667415.1000000238,667414.8999999762,,667414.7000000477,,667203.553,5,600,,
sequence,flow.Sequence,10_2,2023-11-20T20:51:51.024Z,,,,,,,,,,,4194.758999976213,completion,,,,,,,low,high,,,,,,,false,,,,,false,667415.3999999762,667414.8999999762,663203.634,663428.7000000477,663220.141,667203.553,5,600,,
trial,html.Screen,10_3_0,2023-11-20T20:51:53.573Z,,,,1,0.0409338693593207,-0.0072462710499874,,0.05,true,hl,2760.5470000238856,response,1.2364994561934892,1.1324999999999998,-0.9408863434183423,-0.9174173651516624,0.9720429401047557,-0.9175863483455782,high,low,,ISIC_3608788.JPG,9,ISIC_3481133.JPG,33,25,false,0.2300000000000001,hl,keypress(j),0,false,669964.2000000477,669964.1000000238,667186.811,667415.6000000238,667203.553,669753.476,5,600,4,
break,html.Screen,10_3_1,2023-11-20T20:51:53.573Z,,,,,,,,,,,NaN,,,,,,,,high,low,,,,,,,false,,,,,false,669964.5,669964.5,,669964.3000000715,,669753.476,5,600,,
break_continue,html.Screen,10_3_2,2023-11-20T20:51:53.573Z,,,,,,,,,,,NaN,,,,,,,,high,low,,,,,,,false,,,,,false,669964.6000000238,669964.6000000238,,669964.6000000238,,669753.476,5,600,,
sequence,flow.Sequence,10_3,2023-11-20T20:51:53.573Z,,,,,,,,,,,2761.0470000238856,completion,,,,,,,high,low,,,,,,,false,,,,,false,669964.7000000477,669964.6000000238,667186.811,667415.5,667203.553,669753.476,5,600,,
trial,html.Screen,10_4_0,2023-11-20T20:51:55.927Z,,,,1,0,0.0264544974620926,,0.05,true,ll,2564.6240000238176,response,-0.9249963751334934,1.1324999999999998,-0.9408863434183423,-0.8954921660911329,0.9720429401047557,-0.9175863483455782,low,low,,ISIC_0056991.JPG,8,ISIC_6404049.JPG,33,37,false,0.1,ll,keypress(f),0,false,672318.3999999762,672318.1000000238,669736.809,669964.7000000477,669753.476,672120.312,5,600,5,
break,html.Screen,10_4_1,2023-11-20T20:51:55.928Z,,,,,,,,,,,NaN,,,,,,,,low,low,,,,,,,false,,,,,false,672319.2000000477,672319.1000000238,,672318.7000000477,,672120.312,5,600,,
break_continue,html.Screen,10_4_2,2023-11-20T20:51:55.928Z,,,,,,,,,,,NaN,,,,,,,,low,low,,,,,,,false,,,,,false,672319.8000000715,672319.6000000238,,672319.3999999762,,672120.312,5,600,,
sequence,flow.Sequence,10_4,2023-11-20T20:51:55.929Z,,,,,,,,,,,2566.1240000238176,completion,,,,,,,low,low,,,,,,,false,,,,,false,672320,672319.6000000238,669736.809,669964.7000000477,669753.476,672120.312,5,600,,
trial,html.Screen,10_5_0,2023-11-20T20:51:58.006Z,,,,1,0.0134764727102299,0.0033499036460912,,0.05,false,hh,2276.988000071491,response,1.0859458972647518,1.1324999999999998,-0.9408863434183423,0.9241823104580792,0.9720429401047557,-0.9175863483455782,high,high,,ISIC_0009998.JPG,9,ISIC_0011721.JPG,33,31,false,0.1,ll,keypress(f),0,false,674397.5,674397.3000000715,672103.737,672320.2000000477,672120.312,674186.854,5,600,6,
break,html.Screen,10_5_1,2023-11-20T20:51:58.007Z,,,,,,,,,,,NaN,,,,,,,,high,high,,,,,,,false,,,,,false,674398.5,674398.3000000715,,674397.8000000715,,674186.854,5,600,,
break_continue,html.Screen,10_5_2,2023-11-20T20:51:58.008Z,,,,,,,,,,,NaN,,,,,,,,high,high,,,,,,,false,,,,,false,674399.1000000238,674398.8999999762,,674398.7000000477,,674186.854,5,600,,
sequence,flow.Sequence,10_5,2023-11-20T20:51:58.008Z,,,,,,,,,,,2278.5879999761237,completion,,,,,,,high,high,,,,,,,false,,,,,false,674399.3999999762,674398.8999999762,672103.737,672320.1000000238,672120.312,674186.854,5,600,,
trial,html.Screen,10_6_0,2023-11-20T20:51:59.886Z,,,,1,0.0188047466661863,-0.0288346930436979,,0.05,true,hh,2090.4460000714753,response,1.167096465294285,1.1324999999999998,-0.9408863434183423,0.9006099890327319,0.9720429401047557,-0.9175863483455782,high,high,,ISIC_0014157.JPG,10,ISIC_7511557.JPG,33,31,false,0.1,hh,keypress(i),0,false,676277.5,676277.3000000715,674170.275,674399.5,674186.854,676070.123,5,600,7,
break,html.Screen,10_6_1,2023-11-20T20:51:59.887Z,,,,,,,,,,,NaN,,,,,,,,high,high,,,,,,,false,,,,,false,676278.5,676278.3000000715,,676277.8999999762,,676070.123,5,600,,
break_continue,html.Screen,10_6_2,2023-11-20T20:51:59.888Z,,,,,,,,,,,NaN,,,,,,,,high,high,,,,,,,false,,,,,false,676279.1000000238,676278.8999999762,,676278.7000000477,,676070.123,5,600,,
sequence,flow.Sequence,10_6,2023-11-20T20:51:59.888Z,,,,,,,,,,,2092.045999976108,completion,,,,,,,high,high,,,,,,,false,,,,,false,676279.3999999762,676278.8999999762,674170.275,674399.3999999762,674186.854,676070.123,5,600,,
trial,html.Screen,10_7_0,2023-11-20T20:52:02.159Z,,,,1,0.0348234368746005,-0.0236866303880924,,0.05,false,hl,2479.7769999761367,response,0.9454713230140772,1.1324999999999998,-0.9408863434183423,-0.9245167441969216,0.9720429401047557,-0.9175863483455782,high,low,,ISIC_0011099.JPG,8,ISIC_9101055.JPG,33,25,false,0.2300000000000001,ll,keypress(f),0,false,678550.2000000477,678549.8999999762,676053.656,676279.6000000238,676070.123,678353.607,5,600,8,
break,html.Screen,10_7_1,2023-11-20T20:52:02.160Z,,,,,,,,,,,NaN,,,,,,,,high,low,,,,,,,false,,,,,false,678551.2000000477,678550.8999999762,,678550.5,,678353.607,5,600,,
break_continue,html.Screen,10_7_2,2023-11-20T20:52:02.160Z,,,,,,,,,,,NaN,,,,,,,,high,low,,,,,,,false,,,,,false,678551.7000000477,678551.6000000238,,678551.3000000715,,678353.607,5,600,,
sequence,flow.Sequence,10_7,2023-11-20T20:52:02.160Z,,,,,,,,,,,2481.4770000238204,completion,,,,,,,high,low,,,,,,,false,,,,,false,678552,678551.6000000238,676053.656,676279.5,676070.123,678353.607,5,600,,
trial,html.Screen,10_8_0,2023-11-20T20:52:04.230Z,,,,1,0.0112310719058792,-0.0469047359904117,,0.05,true,ll,2267.89300000004,response,-0.9249963751334934,1.1324999999999998,-0.9408863434183423,-0.8954921660911329,0.9720429401047557,-0.9175863483455782,low,low,,ISIC_0068184.JPG,8,ISIC_6404049.JPG,33,37,false,0.1,ll,keypress(f),0,false,680621.8999999762,680621.5,678336.868,678552.2000000477,678353.607,680420.187,5,600,9,
break,html.Screen,10_8_1,2023-11-20T20:52:04.231Z,,,,,,,,,,,NaN,,,,,,,,low,low,,,,,,,false,,,,,false,680622.8999999762,680622.6000000238,,680622.2000000477,,680420.187,5,600,,
break_continue,html.Screen,10_8_2,2023-11-20T20:52:04.232Z,,,,,,,,,,,NaN,,,,,,,,low,low,,,,,,,false,,,,,false,680623.6000000238,680623.3999999762,,680623.1000000238,,680420.187,5,600,,
sequence,flow.Sequence,10_8,2023-11-20T20:52:04.232Z,,,,,,,,,,,2269.792999976198,completion,,,,,,,low,low,,,,,,,false,,,,,false,680623.8000000715,680623.3999999762,678336.868,678552.1000000238,678353.607,680420.187,5,600,,
trial,html.Screen,10_9_0,2023-11-20T20:52:06.198Z,,,,1,-0.0069555338059566,0.0310100918136373,,0.05,true,ll,2169.113000071491,response,-0.9307420457704906,1.1324999999999998,-0.9408863434183423,-1.0040662939937806,0.9720429401047557,-0.9175863483455782,low,low,,ISIC_0011177.JPG,8,ISIC_4508878.JPG,33,37,false,0.1,ll,keypress(f),0,false,682589.5,682589.3000000715,680403.567,680624.1000000238,680420.187,682386.829,5,600,10,
break,html.Screen,10_9_1,2023-11-20T20:52:06.199Z,,,,,,,,,,,NaN,,,,,,,,low,low,,,,,,,false,,,,,false,682590.5,682590.3000000715,,682589.8000000715,,682386.829,5,600,,
break_continue,html.Screen,10_9_2,2023-11-20T20:52:06.200Z,,,,,,,,,,,NaN,,,,,,,,low,low,,,,,,,false,,,,,false,682591.1000000238,682590.8999999762,,682590.7000000477,,682386.829,5,600,,
sequence,flow.Sequence,10_9,2023-11-20T20:52:06.200Z,,,,,,,,,,,2170.7129999761237,completion,,,,,,,low,low,,,,,,,false,,,,,false,682591.3000000715,682590.8999999762,680403.567,680624,680420.187,682386.829,5,600,,
trial,html.Screen,10_10_0,2023-11-20T20:52:08.118Z,,,,1,0.0134764727102299,0.0033499036460912,,0.05,true,ll,2122.570999976131,response,-0.8990371936242809,1.1324999999999998,-0.9408863434183423,-0.9654850730344297,0.9720429401047557,-0.9175863483455782,low,low,,ISIC_0009998.JPG,10,ISIC_0010308.JPG,33,37,false,0.1,ll,keypress(f),0,false,684509.6000000238,684509.3999999762,682370.194,682591.5,682386.829,684303.436,5,600,11,
break,html.Screen,10_10_1,2023-11-20T20:52:08.119Z,,,,,,,,,,,NaN,,,,,,,,low,low,,,,,,,false,,,,,false,684510.6000000238,684510.3999999762,,684510,,684303.436,5,600,,
break_continue,html.Screen,10_10_2,2023-11-20T20:52:08.120Z,,,,,,,,,,,NaN,,,,,,,,low,low,,,,,,,false,,,,,false,684511.1000000238,684511,,684510.7000000477,,684303.436,5,600,,
sequence,flow.Sequence,10_10,2023-11-20T20:52:08.120Z,,,,,,,,,,,2124.170999999973,completion,,,,,,,low,low,,,,,,,false,,,,,false,684511.3999999762,684511,682370.194,682591.5,682386.829,684303.436,5,600,,
trial,html.Screen,10_11_0,2023-11-20T20:52:10.678Z,,,,1,-0.0324770283903853,-0.0249968632204382,,0.05,true,hh,2766.164000023855,response,1.1401739481722466,1.1324999999999998,-0.9408863434183423,0.9054500502539348,0.9720429401047557,-0.9175863483455782,high,high,,ISIC_7266462.JPG,8,ISIC_6260086.JPG,33,31,false,0.1,hh,keypress(i),0,false,687069.8000000715,687069.6000000238,684287.019,684511.6000000238,684303.436,686870.266,5,600,12,
break,html.Screen,10_11_1,2023-11-20T20:52:10.679Z,,,,,,,,,,,NaN,,,,,,,,high,high,,,,,,,false,,,,,false,687070.7000000477,687070.5,,687070.2000000477,,686870.266,5,600,,
break_continue,html.Screen,10_11_2,2023-11-20T20:52:10.680Z,,,,,,,,,,,NaN,,,,,,,,high,high,,,,,,,false,,,,,false,687071.2000000477,687071.1000000238,,687070.8999999762,,686870.266,5,600,,
sequence,flow.Sequence,10_11,2023-11-20T20:52:10.680Z,,,,,,,,,,,2767.664000023855,completion,,,,,,,high,high,,,,,,,false,,,,,false,687071.5,687071.1000000238,684287.019,684511.5,684303.436,686870.266,5,600,,
trial,html.Screen,10_12_0,2023-11-20T20:52:12.750Z,,,,1,-0.0057914759495055,-0.0074667911845194,,0.05,true,ll,2271.334000023897,response,-0.9172533965459856,1.1324999999999998,-0.9408863434183423,-0.9108989535315742,0.9720429401047557,-0.9175863483455782,low,low,,ISIC_0058723.JPG,9,ISIC_0990298.JPG,33,37,false,0.1,ll,keypress(f),0,false,689141.8000000715,689141.6000000238,686853.531,687071.6000000238,686870.266,688936.735,5,600,13,
break,html.Screen,10_12_1,2023-11-20T20:52:12.751Z,,,,,,,,,,,NaN,,,,,,,,low,low,,,,,,,false,,,,,false,689142.8000000715,689142.5,,689142.2000000477,,688936.735,5,600,,
break_continue,html.Screen,10_12_2,2023-11-20T20:52:12.752Z,,,,,,,,,,,NaN,,,,,,,,low,low,,,,,,,false,,,,,false,689143.3000000715,689143.1000000238,,689142.8999999762,,688936.735,5,600,,
sequence,flow.Sequence,10_12,2023-11-20T20:52:12.752Z,,,,,,,,,,,2272.834000023897,completion,,,,,,,low,low,,,,,,,false,,,,,false,689143.5,689143.1000000238,686853.531,687071.5,686870.266,688936.735,5,600,,
trial,html.Screen,10_13_0,2023-11-20T20:52:14.646Z,,,,1,-0.0389988030702649,-0.0143212271490256,,0.05,false,hl,2100.4650000476977,response,0.9454713230140772,1.1324999999999998,-0.9408863434183423,-0.9245167441969216,0.9720429401047557,-0.9175863483455782,high,low,,ISIC_0064669.JPG,9,ISIC_9101055.JPG,33,25,false,0.2300000000000001,ll,keypress(f),0,false,691037.3999999762,691037.2000000477,688920.293,689143.7000000477,688936.735,690836.819,5,600,14,
break,html.Screen,10_13_1,2023-11-20T20:52:14.647Z,,,,,,,,,,,NaN,,,,,,,,high,low,,,,,,,false,,,,,false,691038.3999999762,691038.2000000477,,691037.8000000715,,690836.819,5,600,,
break_continue,html.Screen,10_13_2,2023-11-20T20:52:14.647Z,,,,,,,,,,,NaN,,,,,,,,high,low,,,,,,,false,,,,,false,691038.8999999762,691038.7000000477,,691038.5,,690836.819,5,600,,
sequence,flow.Sequence,10_13,2023-11-20T20:52:14.648Z,,,,,,,,,,,2101.9650000476977,completion,,,,,,,high,low,,,,,,,false,,,,,false,691039,691038.7000000477,688920.293,689143.6000000238,688936.735,690836.819,5,600,,
trial,html.Screen,10_14_0,2023-11-20T20:52:17.910Z,,,,1,-0.0450282431170921,0,,0.05,false,hl,3464.481000071508,response,1.0865333402803938,1.1324999999999998,-0.9408863434183423,-1.0542635307358266,0.9720429401047557,-0.9175863483455782,high,low,,ISIC_1805163.JPG,9,ISIC_0034006.JPG,33,25,false,0.2300000000000001,ll,keypress(f),0,false,694301.7000000477,694301.3000000715,690820.127,691039.3000000715,690836.819,694103.477,5,600,15,
break,html.Screen,10_14_1,2023-11-20T20:52:17.911Z,,,,,,,,,,,NaN,,,,,,,,high,low,,,,,,,false,,,,,false,694302.5,694302.3999999762,,694301.8999999762,,694103.477,5,600,,
break_continue,html.Screen,10_14_2,2023-11-20T20:52:17.912Z,,,,,,,,,,,NaN,,,,,,,,high,low,,,,,,,false,,,,,false,694303.1000000238,694302.8999999762,,694302.8000000715,,694103.477,5,600,,
sequence,flow.Sequence,10_14,2023-11-20T20:52:17.912Z,,,,,,,,,,,3466.0809999761404,completion,,,,,,,high,low,,,,,,,false,,,,,false,694303.3999999762,694302.8999999762,690820.127,691039.3000000715,690836.819,694103.477,5,600,,
trial,html.Screen,10_15_0,2023-11-20T20:52:19.934Z,,,,1,-0.007397293189458,-0.0174716772037504,,0.05,true,lh,2222.0230000000447,response,-1.0213365328004047,1.1324999999999998,-0.9408863434183423,1.088524359911891,0.9720429401047557,-0.9175863483455782,low,high,,ISIC_0056226.JPG,9,ISIC_5434229.JPG,33,26,false,0.20000000000000007,lh,keypress(e),0,false,696325.8000000715,696325.5,694086.833,694303.6000000238,694103.477,696120.07,5,600,16,
break,html.Screen,10_15_1,2023-11-20T20:52:19.935Z,,,,,,,,,,,NaN,,,,,,,,low,high,,,,,,,false,,,,,false,696326.7000000477,696326.5,,696326,,696120.07,5,600,,
break_continue,html.Screen,10_15_2,2023-11-20T20:52:19.936Z,,,,,,,,,,,NaN,,,,,,,,low,high,,,,,,,false,,,,,false,696327.3999999762,696327.2000000477,,696326.8999999762,,696120.07,5,600,,
sequence,flow.Sequence,10_15,2023-11-20T20:52:19.936Z,,,,,,,,,,,2223.7230000477284,completion,,,,,,,low,high,,,,,,,false,,,,,false,696327.6000000238,696327.2000000477,694086.833,694303.5,694103.477,696120.07,5,600,,
trial,html.Screen,10_16_0,2023-11-20T20:52:22.687Z,,,,1,-0.0450282431170921,0,,0.05,false,lh,2958.030000023893,response,-0.7871162143493278,1.1324999999999998,-0.9408863434183423,0.8429329800778957,0.9720429401047557,-0.9175863483455782,low,high,,ISIC_1805163.JPG,8,ISIC_3439215.JPG,33,26,false,0.20000000000000007,hh,keypress(i),0,false,699078.3000000715,699078.1000000238,696103.365,696327.8000000715,696120.07,698886.769,5,600,17,
break,html.Screen,10_16_1,2023-11-20T20:52:22.688Z,,,,,,,,,,,NaN,,,,,,,,low,high,,,,,,,false,,,,,false,699079.1000000238,699079,,699078.6000000238,,698886.769,5,600,,
break_continue,html.Screen,10_16_2,2023-11-20T20:52:22.688Z,,,,,,,,,,,NaN,,,,,,,,low,high,,,,,,,false,,,,,false,699079.7000000477,699079.5,,699079.3000000715,,698886.769,5,600,,
sequence,flow.Sequence,10_16,2023-11-20T20:52:22.688Z,,,,,,,,,,,2959.430000000051,completion,,,,,,,low,high,,,,,,,false,,,,,false,699079.8999999762,699079.5,696103.365,696327.7000000477,696120.07,698886.769,5,600,,
trial,html.Screen,10_17_0,2023-11-20T20:52:24.976Z,,,,1,-0.0363437082783146,-0.0333332186217051,,0.05,false,hl,2479.3310000238707,response,1.0751036484083878,1.1324999999999998,-0.9408863434183423,-1.143906455483852,0.9720429401047557,-0.9175863483455782,high,low,,ISIC_3314555.JPG,11,ISIC_0064406.JPG,33,25,false,0.2300000000000001,ll,keypress(f),0,false,701366.3000000715,701366.1000000238,698853.473,699080.1000000238,698886.769,701170.249,5,600,18,
break,html.Screen,10_17_1,2023-11-20T20:52:24.977Z,,,,,,,,,,,NaN,,,,,,,,high,low,,,,,,,false,,,,,false,701367.2000000477,701367.1000000238,,701366.6000000238,,701170.249,5,600,,
break_continue,html.Screen,10_17_2,2023-11-20T20:52:24.978Z,,,,,,,,,,,NaN,,,,,,,,high,low,,,,,,,false,,,,,false,701367.8999999762,701367.7000000477,,701367.5,,701170.249,5,600,,
sequence,flow.Sequence,10_17,2023-11-20T20:52:24.978Z,,,,,,,,,,,2480.9310000477126,completion,,,,,,,high,low,,,,,,,false,,,,,false,701368,701367.7000000477,698853.473,699080,698886.769,701170.249,5,600,,
trial,html.Screen,10_18_0,2023-11-20T20:52:31.488Z,,,,1,0.0051189696037511,-0.0396625911332438,,0.05,false,lh,6707.2510000000475,response,-0.7871162143493278,1.1324999999999998,-0.9408863434183423,0.8429329800778957,0.9720429401047557,-0.9175863483455782,low,high,,ISIC_9742891.JPG,9,ISIC_3439215.JPG,33,26,false,0.20000000000000007,hh,keypress(i),0,false,707877.7000000477,707877.5,701153.533,701368.2000000477,701170.249,707670.04,5,600,19,
break,html.Screen,10_18_1,2023-11-20T20:52:31.488Z,,,,,,,,,,,NaN,,,,,,,,low,high,,,,,,,false,,,,,false,707878.6000000238,707878.5,,707878,,707670.04,5,600,,
break_continue,html.Screen,10_18_2,2023-11-20T20:52:31.489Z,,,,,,,,,,,NaN,,,,,,,,low,high,,,,,,,false,,,,,false,707879.1000000238,707878.8999999762,,707878.7000000477,,707670.04,5,600,,
sequence,flow.Sequence,10_18,2023-11-20T20:52:31.489Z,,,,,,,,,,,6708.650999976206,completion,,,,,,,low,high,,,,,,,false,,,,,false,707879.3000000715,707878.8999999762,701153.533,701368.1000000238,701170.249,707670.04,5,600,,
trial,html.Screen,10_19_0,2023-11-20T20:52:34.031Z,,,,1,0.0277178575053843,-0.0395587463147856,,0.05,false,lh,2751.2600000714883,response,-0.8816288864119318,1.1324999999999998,-0.9408863434183423,0.801867301188093,0.9720429401047557,-0.9175863483455782,low,high,,ISIC_0010807.JPG,9,ISIC_9196783.JPG,33,26,false,0.20000000000000007,ll,keypress(f),0,false,710421.6000000238,710421.3000000715,707653.346,707879.5,707670.04,710220.098,5,600,20,
break,html.Screen,10_19_1,2023-11-20T20:52:34.032Z,,,,,,,,,,,NaN,,,,,,,,low,high,,,,,,,false,,,,,false,710422.6000000238,710422.3999999762,,710422,,710220.098,5,600,,
break_continue,html.Screen,10_19_2,2023-11-20T20:52:34.033Z,,,,,,,,,,,NaN,,,,,,,,low,high,,,,,,,false,,,,,false,710423.2000000477,710423,,710422.7000000477,,710220.098,5,600,,
sequence,flow.Sequence,10_19,2023-11-20T20:52:34.033Z,,,,,,,,,,,2752.9599999999627,completion,,,,,,,low,high,,,,,,,false,,,,,false,710423.3999999762,710423,707653.346,707879.5,707670.04,710220.098,5,600,,
trial,html.Screen,10_20_0,2023-11-20T20:52:36.568Z,,,,1,0.0051189696037511,-0.0396625911332438,,0.05,true,hh,2738.1020000476856,response,1.1603296322624046,1.1324999999999998,-0.9408863434183423,0.9011336474282458,0.9720429401047557,-0.9175863483455782,high,high,,ISIC_9742891.JPG,9,ISIC_0010592.JPG,33,31,false,0.1,hh,keypress(i),0,false,712958.5,712958.2000000477,710203.565,710423.6000000238,710220.098,712753.361,5,600,21,
break,html.Screen,10_20_1,2023-11-20T20:52:36.569Z,,,,,,,,,,,NaN,,,,,,,,high,high,,,,,,,false,,,,,false,712959.3999999762,712959.2000000477,,712958.8000000715,,712753.361,5,600,,
break_continue,html.Screen,10_20_2,2023-11-20T20:52:36.570Z,,,,,,,,,,,NaN,,,,,,,,high,high,,,,,,,false,,,,,false,712960,712959.8000000715,,712959.5,,712753.361,5,600,,
sequence,flow.Sequence,10_20,2023-11-20T20:52:36.570Z,,,,,,,,,,,2739.7020000715274,completion,,,,,,,high,high,,,,,,,false,,,,,false,712960.2000000477,712959.8000000715,710203.565,710423.5,710220.098,712753.361,5,600,,
trial,html.Screen,10_21_0,2023-11-20T20:52:49.829Z,,,,1,-0.0069555338059566,0.0310100918136373,,0.05,true,hh,13466.138999999966,response,1.101961018205887,1.1324999999999998,-0.9408863434183423,0.891963134716088,0.9720429401047557,-0.9175863483455782,high,high,,ISIC_0011177.JPG,9,ISIC_5625747.JPG,33,31,false,0.1,hh,keypress(i),0,false,726219.6000000238,726219.5,712736.889,712960.3999999762,712753.361,726019.944,5,600,22,
break,html.Screen,10_21_1,2023-11-20T20:52:49.830Z,,,,,,,,,,,NaN,,,,,,,,high,high,,,,,,,false,,,,,false,726219.8999999762,726219.8999999762,,726219.7000000477,,726019.944,5,600,,
break_continue,html.Screen,10_21_2,2023-11-20T20:52:49.830Z,,,,,,,,,,,NaN,,,,,,,,high,high,,,,,,,false,,,,,false,726220.1000000238,726220,,726220,,726019.944,5,600,,
sequence,flow.Sequence,10_21,2023-11-20T20:52:49.830Z,,,,,,,,,,,13466.638999999966,completion,,,,,,,high,high,,,,,,,false,,,,,false,726220.1000000238,726220,712736.889,712960.3000000715,712753.361,726019.944,5,600,,
trial,html.Screen,10_22_0,2023-11-20T20:52:52.320Z,,,,1,0.000047919190197942736,0.0462652940855003,,0.05,true,lh,2689.9559999761404,response,-0.7871162143493278,1.1324999999999998,-0.9408863434183423,0.8429329800778957,0.9720429401047557,-0.9175863483455782,low,high,,ISIC_0011507.JPG,9,ISIC_3439215.JPG,33,26,false,0.20000000000000007,lh,keypress(e),0,false,728710.1000000238,728709.8999999762,726003.33,726220.2000000477,726019.944,728520.006,5,600,23,
break,html.Screen,10_22_1,2023-11-20T20:52:52.321Z,,,,,,,,,,,NaN,,,,,,,,low,high,,,,,,,false,,,,,false,728711,728710.7000000477,,728710.3999999762,,728520.006,5,600,,
break_continue,html.Screen,10_22_2,2023-11-20T20:52:52.321Z,,,,,,,,,,,NaN,,,,,,,,low,high,,,,,,,false,,,,,false,728711.5,728711.3000000715,,728711.2000000477,,728520.006,5,600,,
sequence,flow.Sequence,10_22,2023-11-20T20:52:52.321Z,,,,,,,,,,,2691.356000071508,completion,,,,,,,low,high,,,,,,,false,,,,,false,728711.6000000238,728711.3000000715,726003.33,726220.1000000238,726019.944,728520.006,5,600,,
trial,html.Screen,10_23_0,2023-11-20T20:52:54.293Z,,,,1,0.0188047466661863,-0.0288346930436979,,0.05,true,lh,2163.2940000714734,response,-0.991146183030456,1.1324999999999998,-0.9408863434183423,0.9949639823722534,0.9720429401047557,-0.9175863483455782,low,high,,ISIC_0014157.JPG,10,ISIC_6342224.JPG,33,26,false,0.20000000000000007,lh,keypress(e),0,false,730683.3999999762,730683.3000000715,728486.833,728711.8000000715,728520.006,730486.669,5,600,24,
break,html.Screen,10_23_1,2023-11-20T20:52:54.294Z,,,,,,,,,,,NaN,,,,,,,,low,high,,,,,,,false,,,,,false,730683.8000000715,730683.7000000477,,730683.5,,730486.669,5,600,,
break_continue,html.Screen,10_23_2,2023-11-20T20:52:54.294Z,,,,,,,,,,,NaN,,,,,,,,low,high,,,,,,,false,,,,,false,730684,730683.8999999762,,730683.8000000715,,730486.669,5,600,,
sequence,flow.Sequence,10_23,2023-11-20T20:52:54.294Z,,,,,,,,,,,2163.893999976106,completion,,,,,,,low,high,,,,,,,false,,,,,false,730684,730683.8999999762,728486.833,728711.8000000715,728520.006,730486.669,5,600,,
trial,html.Screen,10_24_0,2023-11-20T20:52:57.367Z,,,,1,0.013431314305098,-0.0140597582944232,,0.05,true,hh,3270.4310000238474,response,1.056824784611021,1.1324999999999998,-0.9408863434183423,0.8736902702135552,0.9720429401047557,-0.9175863483455782,high,high,,ISIC_0069617.JPG,9,ISIC_0014026.JPG,33,31,false,0.1,hh,keypress(i),0,false,733757.5,733757.1000000238,730469.952,730684.1000000238,730486.669,733553.303,5,600,25,
break,html.Screen,10_24_1,2023-11-20T20:52:57.368Z,,,,,,,,,,,NaN,,,,,,,,high,high,,,,,,,false,,,,,false,733758.3999999762,733758.1000000238,,733757.8000000715,,733553.303,5,600,,
break_continue,html.Screen,10_24_2,2023-11-20T20:52:57.369Z,,,,,,,,,,,NaN,,,,,,,,high,high,,,,,,,false,,,,,false,733759,733758.8000000715,,733758.5,,733553.303,5,600,,
sequence,flow.Sequence,10_24,2023-11-20T20:52:57.369Z,,,,,,,,,,,3272.131000071531,completion,,,,,,,high,high,,,,,,,false,,,,,false,733759.1000000238,733758.8000000715,730469.952,730684,730486.669,733553.303,5,600,,
trial,html.Screen,10_25_0,2023-11-20T20:52:59.662Z,,,,1,0.0348234368746005,-0.0236866303880924,,0.05,false,lh,2498.8970000477275,response,-0.8200962008791046,1.1324999999999998,-0.9408863434183423,0.7936051642828523,0.9720429401047557,-0.9175863483455782,low,high,,ISIC_0011099.JPG,9,ISIC_0027031.JPG,33,26,false,0.20000000000000007,hh,keypress(i),0,false,736052.3000000715,736052.2000000477,733536.584,733759.3999999762,733553.303,735853.444,5,600,26,
break,html.Screen,10_25_1,2023-11-20T20:52:59.662Z,,,,,,,,,,,NaN,,,,,,,,low,high,,,,,,,false,,,,,false,736052.7000000477,736052.5,,736052.3999999762,,735853.444,5,600,,
break_continue,html.Screen,10_25_2,2023-11-20T20:52:59.663Z,,,,,,,,,,,NaN,,,,,,,,low,high,,,,,,,false,,,,,false,736052.8000000715,736052.8000000715,,736052.7000000477,,735853.444,5,600,,
sequence,flow.Sequence,10_25,2023-11-20T20:52:59.663Z,,,,,,,,,,,2499.4970000715693,completion,,,,,,,low,high,,,,,,,false,,,,,false,736052.8000000715,736052.8000000715,733536.584,733759.3000000715,733553.303,735853.444,5,600,,
trial,html.Screen,10_26_0,2023-11-20T20:53:02.215Z,,,,1,-0.0085520978188085,0.0464691161264081,,0.05,true,lh,2751.9559999761404,response,-1.0022829373011404,1.1324999999999998,-0.9408863434183423,0.8311726972863814,0.9720429401047557,-0.9175863483455782,low,high,,ISIC_0758797.JPG,9,ISIC_0033287.JPG,33,26,false,0.20000000000000007,lh,keypress(e),0,false,738605.6000000238,738605.3999999762,735836.86,736052.8999999762,735853.444,738403.296,5,600,27,
break,html.Screen,10_26_1,2023-11-20T20:53:02.216Z,,,,,,,,,,,NaN,,,,,,,,low,high,,,,,,,false,,,,,false,738606.5,738606.3000000715,,738605.8999999762,,738403.296,5,600,,
break_continue,html.Screen,10_26_2,2023-11-20T20:53:02.217Z,,,,,,,,,,,NaN,,,,,,,,low,high,,,,,,,false,,,,,false,738607.1000000238,738606.8999999762,,738606.7000000477,,738403.296,5,600,,
sequence,flow.Sequence,10_26,2023-11-20T20:53:02.217Z,,,,,,,,,,,2753.4559999761404,completion,,,,,,,low,high,,,,,,,false,,,,,false,738607.3999999762,738606.8999999762,735836.86,736052.8999999762,735853.444,738403.296,5,600,,
trial,html.Screen,10_27_0,2023-11-20T20:53:04.223Z,,,,1,-0.0456515796420274,0.0273567130070961,,0.05,false,lh,2209.9040000477107,response,-0.8816288864119318,1.1324999999999998,-0.9408863434183423,0.801867301188093,0.9720429401047557,-0.9175863483455782,low,high,,ISIC_0068610.JPG,8,ISIC_9196783.JPG,33,26,false,0.20000000000000007,ll,keypress(f),0,false,740613.5,740613.2000000477,738386.619,738607.5,738403.296,740403.338,5,600,28,
break,html.Screen,10_27_1,2023-11-20T20:53:04.224Z,,,,,,,,,,,NaN,,,,,,,,low,high,,,,,,,false,,,,,false,740614.3999999762,740614.3000000715,,740613.8000000715,,740403.338,5,600,,
break_continue,html.Screen,10_27_2,2023-11-20T20:53:04.225Z,,,,,,,,,,,NaN,,,,,,,,low,high,,,,,,,false,,,,,false,740615,740614.8000000715,,740614.6000000238,,740403.338,5,600,,
sequence,flow.Sequence,10_27,2023-11-20T20:53:04.225Z,,,,,,,,,,,2211.5040000715526,completion,,,,,,,low,high,,,,,,,false,,,,,false,740615.1000000238,740614.8000000715,738386.619,738607.3999999762,738403.296,740403.338,5,600,,
trial,html.Screen,10_28_0,2023-11-20T20:53:06.623Z,,,,1,-0.0069555338059566,0.0310100918136373,,0.05,false,lh,2609.262000023853,response,-0.7870237732709365,1.1324999999999998,-0.9408863434183423,0.9172955251119376,0.9720429401047557,-0.9175863483455782,low,high,,ISIC_0011177.JPG,9,ISIC_0057716.JPG,33,26,false,0.20000000000000007,hh,keypress(i),0,false,743012.7000000477,743012.6000000238,740386.611,740615.3999999762,740403.338,742819.971,5,600,29,
break,html.Screen,10_28_1,2023-11-20T20:53:06.623Z,,,,,,,,,,,NaN,,,,,,,,low,high,,,,,,,false,,,,,false,743013.3999999762,743013.2000000477,,743012.8999999762,,742819.971,5,600,,
break_continue,html.Screen,10_28_2,2023-11-20T20:53:06.624Z,,,,,,,,,,,NaN,,,,,,,,low,high,,,,,,,false,,,,,false,743013.7000000477,743013.7000000477,,743013.5,,742819.971,5,600,,
sequence,flow.Sequence,10_28,2023-11-20T20:53:06.624Z,,,,,,,,,,,2610.362000047695,completion,,,,,,,low,high,,,,,,,false,,,,,false,743013.8999999762,743013.7000000477,740386.611,740615.3000000715,740403.338,742819.971,5,600,,
trial,html.Screen,10_29_0,2023-11-20T20:53:09.094Z,,,,1,-0.0050679133050021,0.0009714874637896,,0.05,true,lh,2664.0289999999804,response,-0.796241477082623,1.1324999999999998,-0.9408863434183423,0.9017449335975743,0.9720429401047557,-0.9175863483455782,low,high,,ISIC_9848743.JPG,9,ISIC_8588033.JPG,33,26,false,0.20000000000000007,lh,keypress(e),0,false,745484.1000000238,745484,742786.703,743014,742819.971,745286.871,5,600,30,
break,html.Screen,10_29_1,2023-11-20T20:53:09.094Z,,,,,,,,,,,NaN,,,,,,,,low,high,,,,,,,false,,,,,false,745484.3999999762,745484.3000000715,,745484.2000000477,,745286.871,5,600,,
break_continue,html.Screen,10_29_2,2023-11-20T20:53:09.094Z,,,,,,,,,,,NaN,,,,,,,,low,high,,,,,,,false,,,,,false,745484.6000000238,745484.5,,745484.3999999762,,745286.871,5,600,,
sequence,flow.Sequence,10_29,2023-11-20T20:53:09.094Z,,,,,,,,,,,2664.5289999999804,completion,,,,,,,low,high,,,,,,,false,,,,,false,745484.6000000238,745484.5,742786.703,743014,742819.971,745286.871,5,600,,
trial,html.Screen,10_30_0,2023-11-20T20:53:13.384Z,,,,1,0.000047919190197942736,0.0462652940855003,,0.05,false,hh,4486.528999976115,response,1.037577073517966,1.1324999999999998,-0.9408863434183423,1.027048110709042,0.9720429401047557,-0.9175863483455782,high,high,,ISIC_0011507.JPG,9,ISIC_0004932.JPG,33,31,false,0.1,lh,keypress(e),0,false,749773.7000000477,749773.3999999762,745270.132,745484.6000000238,745286.871,749569.923,5,600,31,
break,html.Screen,10_30_1,2023-11-20T20:53:13.384Z,,,,,,,,,,,NaN,,,,,,,,high,high,,,,,,,false,,,,,false,749774.7000000477,749774.3999999762,,749774,,749569.923,5,600,,
break_continue,html.Screen,10_30_2,2023-11-20T20:53:13.385Z,,,,,,,,,,,NaN,,,,,,,,high,high,,,,,,,false,,,,,false,749775.3000000715,749775.1000000238,,749774.8999999762,,749569.923,5,600,,
sequence,flow.Sequence,10_30,2023-11-20T20:53:13.385Z,,,,,,,,,,,4488.229000023799,completion,,,,,,,high,high,,,,,,,false,,,,,false,749775.5,749775.1000000238,745270.132,745484.6000000238,745286.871,749569.923,5,600,,
trial,html.Screen,10_31_0,2023-11-20T20:53:16.760Z,,,,1,-0.0027483411352856,-0.0100996915276271,,0.05,false,lh,3580.0770000000484,response,-1.0164576835546473,1.1324999999999998,-0.9408863434183423,0.8120626538423016,0.9720429401047557,-0.9175863483455782,low,high,,ISIC_7364041.JPG,8,ISIC_6002694.JPG,33,26,false,0.20000000000000007,hh,keypress(i),0,false,753150.3000000715,753150,749553.464,749775.7000000477,749569.923,752953.328,5,600,32,
break,html.Screen,10_31_1,2023-11-20T20:53:16.761Z,,,,,,,,,,,NaN,,,,,,,,low,high,,,,,,,false,,,,,false,753151.2000000477,753151,,753150.6000000238,,752953.328,5,600,,
break_continue,html.Screen,10_31_2,2023-11-20T20:53:16.762Z,,,,,,,,,,,NaN,,,,,,,,low,high,,,,,,,false,,,,,false,753151.8000000715,753151.7000000477,,753151.3999999762,,752953.328,5,600,,
sequence,flow.Sequence,10_31,2023-11-20T20:53:16.762Z,,,,,,,,,,,3581.777000047732,completion,,,,,,,low,high,,,,,,,false,,,,,false,753152.1000000238,753151.7000000477,749553.464,749775.6000000238,749569.923,752953.328,5,600,,
trial,html.Screen,10_32_0,2023-11-20T20:53:19.663Z,,,,1,0.0188047466661863,-0.0288346930436979,,0.05,false,lh,3100.0719999761786,response,-0.9388660854518424,1.1324999999999998,-0.9408863434183423,0.79533948698576,0.9720429401047557,-0.9175863483455782,low,high,,ISIC_0014157.JPG,10,ISIC_9291926.JPG,33,26,false,0.20000000000000007,ll,keypress(f),0,false,756053.6000000238,756053.3999999762,752936.788,753152.3000000715,752953.328,755853.24,5,600,33,
break,html.Screen,10_32_1,2023-11-20T20:53:19.664Z,,,,,,,,,,,NaN,,,,,,,,low,high,,,,,,,false,,,,,false,756054.6000000238,756054.3999999762,,756053.8999999762,,755853.24,5,600,,
break_continue,html.Screen,10_32_2,2023-11-20T20:53:19.665Z,,,,,,,,,,,NaN,,,,,,,,low,high,,,,,,,false,,,,,false,756055.2000000477,756055,,756054.7000000477,,755853.24,5,600,,
sequence,flow.Sequence,10_32,2023-11-20T20:53:19.665Z,,,,,,,,,,,3101.6720000000205,completion,,,,,,,low,high,,,,,,,false,,,,,false,756055.3999999762,756055,752936.788,753152.2000000477,752953.328,755853.24,5,600,,
trial,html.Screen,10_33_0,2023-11-20T20:53:22.480Z,,,,1,-0.0027483411352856,-0.0100996915276271,,0.05,false,hl,3016.860000023851,response,1.020990671779317,1.1324999999999998,-0.9408863434183423,-1.0116513850520903,0.9720429401047557,-0.9175863483455782,high,low,,ISIC_7364041.JPG,9,ISIC_0011995.JPG,33,25,false,0.2300000000000001,hh,keypress(i),0,false,758870.2000000477,758870.1000000238,755836.819,756055.5,755853.24,758669.967,5,600,34,
break,html.Screen,10_33_1,2023-11-20T20:53:22.481Z,,,,,,,,,,,NaN,,,,,,,,high,low,,,,,,,false,,,,,false,758871.2000000477,758870.8999999762,,758870.6000000238,,758669.967,5,600,,
break_continue,html.Screen,10_33_2,2023-11-20T20:53:22.482Z,,,,,,,,,,,NaN,,,,,,,,high,low,,,,,,,false,,,,,false,758871.7000000477,758871.5,,758871.3000000715,,758669.967,5,600,,
sequence,flow.Sequence,10_33,2023-11-20T20:53:22.482Z,,,,,,,,,,,3018.2600000000093,completion,,,,,,,high,low,,,,,,,false,,,,,false,758871.8999999762,758871.5,755836.819,756055.5,755853.24,758669.967,5,600,,
trial,html.Screen,10_34_0,2023-11-20T20:53:24.553Z,,,,1,-0.007397293189458,-0.0174716772037504,,0.05,true,lh,2271.633000023896,response,-1.0213365328004047,1.1324999999999998,-0.9408863434183423,1.088524359911891,0.9720429401047557,-0.9175863483455782,low,high,,ISIC_0056226.JPG,10,ISIC_5434229.JPG,33,26,false,0.20000000000000007,lh,keypress(e),0,false,760941.8000000715,760941.6000000238,758653.408,758872,758669.967,760736.576,5,600,35,
break,html.Screen,10_34_1,2023-11-20T20:53:24.554Z,,,,,,,,,,,NaN,,,,,,,,low,high,,,,,,,false,,,,,false,760942.8000000715,760942.6000000238,,760942.1000000238,,760736.576,5,600,,
break_continue,html.Screen,10_34_2,2023-11-20T20:53:24.554Z,,,,,,,,,,,NaN,,,,,,,,low,high,,,,,,,false,,,,,false,760943.3000000715,760943.2000000477,,760943,,760736.576,5,600,,
sequence,flow.Sequence,10_34,2023-11-20T20:53:24.555Z,,,,,,,,,,,2273.2330000477377,completion,,,,,,,low,high,,,,,,,false,,,,,false,760943.6000000238,760943.2000000477,758653.408,758872,758669.967,760736.576,5,600,,
trial,html.Screen,10_35_0,2023-11-20T20:53:29.807Z,,,,1,0.0188047466661863,-0.0288346930436979,,0.05,false,ll,5459.524000023841,response,-0.9172533965459856,1.1324999999999998,-0.9408863434183423,-0.9108989535315742,0.9720429401047557,-0.9175863483455782,low,low,,ISIC_0014157.JPG,9,ISIC_0990298.JPG,33,37,false,0.1,hl,keypress(j),0,false,766196.2000000477,766196.1000000238,760720.09,760943.8000000715,760736.576,765986.517,5,600,36,
break,html.Screen,10_35_1,2023-11-20T20:53:29.807Z,,,,,,,,,,,NaN,,,,,,,,low,low,,,,,,,false,,,,,false,766196.6000000238,766196.5,,766196.3000000715,,765986.517,5,600,,
break_continue,html.Screen,10_35_2,2023-11-20T20:53:29.808Z,,,,,,,,,,,NaN,,,,,,,,low,low,,,,,,,false,,,,,false,766196.7000000477,766196.7000000477,,766196.6000000238,,765986.517,5,600,,
sequence,flow.Sequence,10_35,2023-11-20T20:53:29.808Z,,,,,,,,,,,5460.124000047683,completion,,,,,,,low,low,,,,,,,false,,,,,false,766196.7000000477,766196.7000000477,760720.09,760943.7000000477,760736.576,765986.517,5,600,,
trial,html.Screen,10_36_0,2023-11-20T20:53:32.001Z,,,,1,0.0051189696037511,-0.0396625911332438,,0.05,true,hh,2403.683000047691,response,1.1920465299859582,1.1324999999999998,-0.9408863434183423,0.9548921292696696,0.9720429401047557,-0.9175863483455782,high,high,,ISIC_9742891.JPG,9,ISIC_5566396.JPG,33,31,false,0.1,hh,keypress(i),0,false,768390.5,768390.2000000477,765970.008,766196.8000000715,765986.517,768186.551,5,600,37,
break,html.Screen,10_36_1,2023-11-20T20:53:32.002Z,,,,,,,,,,,NaN,,,,,,,,high,high,,,,,,,false,,,,,false,768391.3999999762,768391.2000000477,,768390.8000000715,,768186.551,5,600,,
break_continue,html.Screen,10_36_2,2023-11-20T20:53:32.003Z,,,,,,,,,,,NaN,,,,,,,,high,high,,,,,,,false,,,,,false,768392.1000000238,768391.8999999762,,768391.7000000477,,768186.551,5,600,,
sequence,flow.Sequence,10_36,2023-11-20T20:53:32.003Z,,,,,,,,,,,2405.3829999761656,completion,,,,,,,high,high,,,,,,,false,,,,,false,768392.3000000715,768391.8999999762,765970.008,766196.7000000477,765986.517,768186.551,5,600,,
trial,html.Screen,10_37_0,2023-11-20T20:53:36.938Z,,,,1,0.0245376145053177,-0.0436993426328401,,0.05,false,ll,5139.8489999761805,response,-0.9249963751334934,1.1324999999999998,-0.9408863434183423,-0.8954921660911329,0.9720429401047557,-0.9175863483455782,low,low,,ISIC_0056444.JPG,9,ISIC_6404049.JPG,33,37,false,0.1,hl,keypress(j),0,false,773326.6000000238,773326.3999999762,768170.111,768392.5,768186.551,773119.84,5,600,38,
break,html.Screen,10_37_1,2023-11-20T20:53:36.939Z,,,,,,,,,,,NaN,,,,,,,,low,low,,,,,,,false,,,,,false,773327.6000000238,773327.3999999762,,773326.8999999762,,773119.84,5,600,,
break_continue,html.Screen,10_37_2,2023-11-20T20:53:36.939Z,,,,,,,,,,,NaN,,,,,,,,low,low,,,,,,,false,,,,,false,773328.2000000477,773328,,773327.8999999762,,773119.84,5,600,,
sequence,flow.Sequence,10_37,2023-11-20T20:53:36.939Z,,,,,,,,,,,5141.449000000022,completion,,,,,,,low,low,,,,,,,false,,,,,false,773328.3999999762,773328,768170.111,768392.5,768186.551,773119.84,5,600,,
