sender,sender_type,sender_id,timestamp,meta,,age,blockNo,c1,c2,condition,control_tolerance,correct,correctResponse,duration,ended_on,f1,f1_high,f1_low,f2,f2_high,f2_low,feature_level1,feature_level2,gender,img_left,img_reveal,img_right,n_control_images,n_target_images,practice,range_tolerance,response,response_action,selection_duration,staircase,time_commit,time_end,time_render,time_run,time_show,time_switch,total_blocks,total_trials,trialNo,url
informed_consent,html.Screen,0,2023-11-29T17:31:16.301Z,"{""labjs_version"":""20.2.4"",""labjs_build"":{""flavor"":""development"",""commit"":""f5b4a49f956347addd546a832a3327688c2c0fef""},""location"":""https://labjs.felixhenninger.com/api/labjs_preview/index.html"",""userAgent"":""Mozilla/5.0 (Windows NT 10.0; Win64; x64) AppleWebKit/537.36 (KHTML, like Gecko) Chrome/119.0.0.0 Safari/537.36"",""platform"":""Win32"",""language"":""en-US"",""locale"":""en-US"",""timeZone"":""America/Chicago"",""timezoneOffset"":360,""screen_width"":1680,""screen_height"":1050,""scroll_width"":825,""scroll_height"":888,""window_innerWidth"":825,""window_innerHeight"":936,""devicePixelRatio"":1}",,,,,,,,,,13503.541,response,,,,,,,,,,,,,,,,,consent,click button,,,14261,14252,731.772,722.5,748.459,14258.005,,,,{}
Demography form,html.Form,1,2023-11-29T17:31:23.469Z,,,18,,,,,,,,7170.694999809266,form submission,,,,,,,,,male,,,,,,,,,,,,21428.799999952316,21428.699999809265,14241.364,14261.199999809265,14258.005,21438.703,,,,
Welcome,html.Screen,2,2023-11-29T17:31:24.725Z,,,,,,,"[""asym"",""bor""]",,,,1245.1969998569475,response,,,,,,,,,,,,,,,,,continue,click button,,,22684.39999985695,22683.89999985695,21421.926,21428.89999985695,21438.703,22707.927,,,,
demo_instructions,html.Screen,3,2023-11-29T17:31:48.333Z,,,,,,,,,,,23583.97299985695,response,,,,,,,,,,,,,,,,,continue,click button,,,46292.59999990463,46291.89999985695,22691.192,22684.5,22707.927,46303.724,,,,
trial,html.Screen,4_0_0,2023-11-29T17:31:54.210Z,,,,0,-1.272699544571422,-1.12917997553565,,,true,hh,5865.075999952314,response,1.1210325063849345,1.2,-1.2,1.1498648320956202,1.2,-1.2,high,high,,ISIC_0012057.JPG,,ISIC_0032162.JPG,,26,true,0.15000000000000002,hh,keypress(i),100,false,52169,52168.799999952316,46287.28,46292.799999952316,46303.724,52198.735,1,16,1,
sequence,flow.Sequence,4_0,2023-11-29T17:31:54.217Z,,,,,,,,,,,5865.075999952314,completion,,,,,,,high,high,,,,,,,true,,,,,false,52176,52168.799999952316,46287.28,46292.799999952316,46303.724,52198.735,1,16,,
trial,html.Screen,4_1_0,2023-11-29T17:31:57.986Z,,,,0,-1.2071341803968807,-1.235960269089932,,,true,hh,3745.9649998092646,response,1.3411179702686655,1.2,-1.2,1.255103311449152,1.2,-1.2,high,high,,ISIC_0058174.JPG,,ISIC_5611010.JPG,,26,true,0.15000000000000002,hh,keypress(i),100,false,55945.299999952316,55944.699999809265,52181.839,52176.199999809265,52198.735,55972.56,1,16,2,
sequence,flow.Sequence,4_1,2023-11-29T17:31:57.987Z,,,,,,,,,,,3745.9649998092646,completion,,,,,,,high,high,,,,,,,true,,,,,false,55946.09999990463,55944.699999809265,52181.839,52176.09999990463,52198.735,55972.56,1,16,,
trial,html.Screen,4_2_0,2023-11-29T17:32:01.417Z,,,,0,-1.29026082950341,-1.144672688339213,,,true,hh,3402.839999856951,response,1.0789197754694622,1.2,-1.2,1.1654690806750023,1.2,-1.2,high,high,,ISIC_0054317.JPG,,ISIC_1576437.JPG,,26,true,0.15000000000000002,hh,keypress(i),100,false,59376,59375.39999985695,55955.907,55946.59999990463,55972.56,59395.873,1,16,3,
sequence,flow.Sequence,4_2,2023-11-29T17:32:01.418Z,,,,,,,,,,,3402.839999856951,completion,,,,,,,high,high,,,,,,,true,,,,,false,59376.699999809265,59375.39999985695,55955.907,55946.5,55972.56,59395.873,1,16,,
trial,html.Screen,4_3_0,2023-11-29T17:32:03.764Z,,,,0,-1.185875658992962,-1.2635548590325487,,,true,hh,2325.6270000000004,response,1.1137763092539212,1.2,-1.2,1.1599906701455132,1.2,-1.2,high,high,,ISIC_0011703.JPG,,ISIC_5413788.JPG,,26,true,0.15000000000000002,hh,keypress(i),100,false,61722.09999990463,61721.5,59379.276,59377.09999990463,59395.873,61750.649,1,16,4,
sequence,flow.Sequence,4_3,2023-11-29T17:32:03.764Z,,,,,,,,,,,2325.6270000000004,completion,,,,,,,high,high,,,,,,,true,,,,,false,61723,61721.5,59379.276,59377,59395.873,61750.649,1,16,,
trial,html.Screen,4_4_0,2023-11-29T17:32:06.955Z,,,,0,1.086647361897092,1.1528935990320313,,,true,ll,3162.7509998569512,response,-1.255256820488545,1.2,-1.2,-1.1206426433062562,1.2,-1.2,low,low,,ISIC_3505339.JPG,,ISIC_0024652.JPG,,30,true,0.1,ll,keypress(f),100,false,64913.89999985695,64913.39999985695,61733.794,61723.299999952316,61750.649,64940.005,1,16,5,
sequence,flow.Sequence,4_4,2023-11-29T17:32:06.956Z,,,,,,,,,,,3162.7509998569512,completion,,,,,,,low,low,,,,,,,true,,,,,false,64914.699999809265,64913.39999985695,61733.794,61723.09999990463,61750.649,64940.005,1,16,,
trial,html.Screen,4_5_0,2023-11-29T17:32:10.802Z,,,,0,1.201100953917304,1.1751492358160105,,,true,ll,3820.3949998569515,response,-1.2952503640839694,1.2,-1.2,-1.107234527385344,1.2,-1.2,low,low,,ISIC_0647224.JPG,,ISIC_0034134.JPG,,53,true,0.15000000000000002,ll,keypress(f),100,false,68761,68760.39999985695,64923.383,64915,64940.005,68780.82,1,16,6,
sequence,flow.Sequence,4_5,2023-11-29T17:32:10.803Z,,,,,,,,,,,3820.3949998569515,completion,,,,,,,low,low,,,,,,,true,,,,,false,68761.59999990463,68760.39999985695,64923.383,64915,64940.005,68780.82,1,16,,
trial,html.Screen,4_6_0,2023-11-29T17:32:13.627Z,,,,0,1.2318069697449794,1.1703576816778267,,,true,ll,2803.879999809258,response,-1.2249552940807693,1.2,-1.2,-1.1723015116910682,1.2,-1.2,low,low,,ISIC_2732573.JPG,,ISIC_0055251.JPG,,53,true,0.15000000000000002,ll,keypress(f),100,false,71585.09999990463,71584.69999980927,68764.168,68761.79999995232,68780.82,71603.008,1,16,7,
sequence,flow.Sequence,4_6,2023-11-29T17:32:13.627Z,,,,,,,,,,,2803.879999809258,completion,,,,,,,low,low,,,,,,,true,,,,,false,71585.69999980927,71584.69999980927,68764.168,68761.79999995232,68780.82,71603.008,1,16,,
trial,html.Screen,4_7_0,2023-11-29T17:32:15.762Z,,,,0,1.131522954199764,1.1047184491749509,,,true,ll,2116.9919999999984,response,-1.2974483548597415,1.2,-1.2,-1.34311625795084,1.2,-1.2,low,low,,ISIC_1868816.JPG,,ISIC_0011007.JPG,,53,true,0.15000000000000002,ll,keypress(f),100,false,73720.5,73720,71586.374,71586,71603.008,73773.837,1,16,8,
sequence,flow.Sequence,4_7,2023-11-29T17:32:15.763Z,,,,,,,,,,,2116.9919999999984,completion,,,,,,,low,low,,,,,,,true,,,,,false,73721.19999980927,73720,71586.374,71585.79999995232,71603.008,73773.837,1,16,,
trial,html.Screen,4_8_0,2023-11-29T17:32:20.836Z,,,,0,1.020990671779317,-1.0116513850520903,,,true,lh,5020.362999809266,response,-0.991146183030456,1.2,-1.2,0.9949639823722534,1.2,-1.2,low,high,,ISIC_0011995.JPG,,ISIC_6342224.JPG,,27,true,0.42000000000000026,lh,keypress(e),100,false,78794.39999985695,78794.19999980927,73723.857,73721.5,73773.837,78816.996,1,16,9,
sequence,flow.Sequence,4_8,2023-11-29T17:32:20.836Z,,,,,,,,,,,5020.362999809266,completion,,,,,,,low,high,,,,,,,true,,,,,false,78794.69999980927,78794.19999980927,73723.857,73721.39999985695,73773.837,78816.996,1,16,,
trial,html.Screen,4_9_0,2023-11-29T17:32:23.989Z,,,,0,0.869932994914832,-0.8880533324432531,,,true,lh,3130.6039999046334,response,-1.4092385398614515,1.2,-1.2,1.3046237992197836,1.2,-1.2,low,high,,ISIC_8617084.JPG,,ISIC_7254359.JPG,,27,true,0.42000000000000026,lh,keypress(e),100,false,81947.89999985695,81947.59999990463,78800.334,78794.89999985695,78816.996,81989.832,1,16,10,
sequence,flow.Sequence,4_9,2023-11-29T17:32:23.990Z,,,,,,,,,,,3130.6039999046334,completion,,,,,,,low,high,,,,,,,true,,,,,false,81948.5,81947.59999990463,78800.334,78794.79999995232,78816.996,81989.832,1,16,,
trial,html.Screen,4_10_0,2023-11-29T17:32:26.868Z,,,,0,0.869932994914832,-0.8880533324432531,,,true,lh,2836.567999856954,response,-0.796241477082623,1.2,-1.2,0.9017449335975743,1.2,-1.2,low,high,,ISIC_8617084.JPG,,ISIC_8588033.JPG,,27,true,0.42000000000000026,lh,keypress(e),100,false,84826.59999990463,84826.39999985695,81956.553,81948.79999995232,81989.832,84845.396,1,16,11,
sequence,flow.Sequence,4_10,2023-11-29T17:32:26.868Z,,,,,,,,,,,2836.567999856954,completion,,,,,,,low,high,,,,,,,true,,,,,false,84826.69999980927,84826.39999985695,81956.553,81948.69999980927,81989.832,84845.396,1,16,,
trial,html.Screen,4_11_0,2023-11-29T17:32:28.781Z,,,,0,0.8487429103619056,-0.9778257804233036,,,true,lh,1893.903999952323,response,-0.8816288864119318,1.2,-1.2,0.801867301188093,1.2,-1.2,low,high,,ISIC_4554863.JPG,,ISIC_9196783.JPG,,27,true,0.42000000000000026,lh,keypress(e),100,false,86739.5,86739.29999995232,84828.711,84826.79999995232,84845.396,86765.821,1,16,12,
sequence,flow.Sequence,4_11,2023-11-29T17:32:28.781Z,,,,,,,,,,,1893.903999952323,completion,,,,,,,low,high,,,,,,,true,,,,,false,86739.79999995232,86739.29999995232,84828.711,84826.79999995232,84845.396,86765.821,1,16,,
trial,html.Screen,4_12_0,2023-11-29T17:32:33.620Z,,,,0,-0.796241477082623,0.9017449335975743,,,true,hl,4812.378999809269,response,1.2364994561934892,1.2,-1.2,-0.9174173651516624,1.2,-1.2,high,low,,ISIC_8588033.JPG,,ISIC_3481133.JPG,,26,true,0.3600000000000002,hl,keypress(j),100,false,91578.59999990463,91578.19999980927,86749.144,86740,86765.821,91625.261,1,16,13,
sequence,flow.Sequence,4_12,2023-11-29T17:32:33.621Z,,,,,,,,,,,4812.378999809269,completion,,,,,,,high,low,,,,,,,true,,,,,false,91579.29999995232,91578.19999980927,86749.144,86739.89999985695,86765.821,91625.261,1,16,,
trial,html.Screen,4_13_0,2023-11-29T17:32:35.303Z,,,,0,-1.4092385398614515,1.3046237992197836,,,true,hl,1635.5389999523177,response,0.8534691366511764,1.2,-1.2,-1.03975580494588,1.2,-1.2,high,low,,ISIC_7254359.JPG,,ISIC_0056788.JPG,,33,true,0.42000000000000026,hl,keypress(j),100,false,93261.09999990463,93260.79999995232,91591.936,91579.69999980927,91625.261,93295.177,1,16,14,
sequence,flow.Sequence,4_13,2023-11-29T17:32:35.303Z,,,,,,,,,,,1635.5389999523177,completion,,,,,,,high,low,,,,,,,true,,,,,false,93261.69999980927,93260.79999995232,91591.936,91579.59999990463,91625.261,93295.177,1,16,,
trial,html.Screen,4_14_0,2023-11-29T17:32:37.833Z,,,,0,-0.7809949855371787,0.8493861117004308,,,true,hl,2496.022999809269,response,1.2075172235545184,1.2,-1.2,-0.9116724966267612,1.2,-1.2,high,low,,ISIC_7450481.JPG,,ISIC_0024235.JPG,,33,true,0.42000000000000026,hl,keypress(j),100,false,95791.59999990463,95791.19999980927,93261.889,93261.89999985695,93295.177,95833.46,1,16,15,
sequence,flow.Sequence,4_14,2023-11-29T17:32:37.834Z,,,,,,,,,,,2496.022999809269,completion,,,,,,,high,low,,,,,,,true,,,,,false,95792.19999980927,95791.19999980927,93261.889,93261.89999985695,93295.177,95833.46,1,16,,
trial,html.Screen,4_15_0,2023-11-29T17:32:39.365Z,,,,0,-0.7809949855371787,0.8493861117004308,,,true,hl,1489.4399998569424,response,1.011737552725394,1.2,-1.2,-0.8500530224490773,1.2,-1.2,high,low,,ISIC_7450481.JPG,,ISIC_2998367.JPG,,33,true,0.42000000000000026,hl,keypress(j),100,false,97323.29999995232,97322.89999985695,95800.158,95792.5,95833.46,97353.094,1,16,16,
sequence,flow.Sequence,4_15,2023-11-29T17:32:39.366Z,,,,,,,,,,,1489.4399998569424,completion,,,,,,,high,low,,,,,,,true,,,,,false,97324.09999990463,97322.89999985695,95800.158,95792.39999985695,95833.46,97353.094,1,16,,
demonstration_loop,flow.Loop,4,2023-11-29T17:32:39.366Z,,,,,,,,,,,51019.17599985695,completion,,,,,,,,,,,,,,,true,,,,,false,97324.5,97322.89999985695,46287.28,46292.699999809265,46303.724,97353.094,1,16,,
practice_instructions,html.Screen,5,2023-11-29T17:32:48.702Z,,,,,,,,,,,9298.906000000003,response,,,,,,,,,,,,,,,,,continue,click button,,,106660.39999985695,106652,97336.439,97324.79999995232,97353.094,106721.311,,,,
trial,html.Screen,6_0_0,2023-11-29T17:32:52.614Z,,,,1,-0.7809949855371787,0.8493861117004308,,,true,hl,3851.1889999999985,response,1.1181734135756094,1.2,-1.2,-0.944560381774994,1.2,-1.2,high,low,,ISIC_7450481.JPG,,ISIC_9688534.JPG,,26,true,0.3600000000000002,hl,keypress(j),0,false,110572.5,110572.5,106638.06,106660.5,106721.311,110595.492,1,40,1,
sequence,flow.Sequence,6_0,2023-11-29T17:32:52.614Z,,,,,,,,,,,3851.1889999999985,completion,,,,,,,high,low,,,,,,,true,,,,,false,110572.69999980927,110572.5,106638.06,106660.5,106721.311,110595.492,1,40,,
trial,html.Screen,6_1_0,2023-11-29T17:32:55.527Z,,,,1,1.0865333402803938,-1.0542635307358266,,,true,lh,2890.107999904634,response,-0.9388660854518424,1.2,-1.2,0.79533948698576,1.2,-1.2,low,high,,ISIC_0034006.JPG,,ISIC_9291926.JPG,,27,true,0.42000000000000026,lh,keypress(e),0,false,113486,113485.59999990463,110578.827,110572.79999995232,110595.492,113501.177,1,40,2,
sequence,flow.Sequence,6_1,2023-11-29T17:32:55.528Z,,,,,,,,,,,2890.107999904634,completion,,,,,,,low,high,,,,,,,true,,,,,false,113486.5,113485.59999990463,110578.827,110572.79999995232,110595.492,113501.177,1,40,,
trial,html.Screen,6_2_0,2023-11-29T17:32:59.511Z,,,,1,0.9696118525781644,-0.9244148283103414,,,true,lh,3967.823000000004,response,-0.7871162143493278,1.2,-1.2,0.8429329800778957,1.2,-1.2,low,high,,ISIC_7927525.JPG,,ISIC_3439215.JPG,,27,true,0.42000000000000026,lh,keypress(e),0,false,117469.29999995232,117469,113484.646,113486.79999995232,113501.177,117492.276,1,40,3,
sequence,flow.Sequence,6_2,2023-11-29T17:32:59.511Z,,,,,,,,,,,3967.823000000004,completion,,,,,,,low,high,,,,,,,true,,,,,false,117469.5,117469,113484.646,113486.69999980927,113501.177,117492.276,1,40,,
trial,html.Screen,6_3_0,2023-11-29T17:33:02.865Z,,,,1,-1.0115965332688306,0.8282633603842442,,,true,hl,3329.5239999523183,response,0.8579451262594331,1.2,-1.2,-0.9633172970727744,1.2,-1.2,high,low,,ISIC_1069587.JPG,,ISIC_0067172.JPG,,26,true,0.3600000000000002,hl,keypress(j),0,false,120822.19999980927,120821.79999995232,117459.144,117469.69999980927,117492.276,120848.805,1,40,4,
sequence,flow.Sequence,6_3,2023-11-29T17:33:02.866Z,,,,,,,,,,,3329.5239999523183,completion,,,,,,,high,low,,,,,,,true,,,,,false,120822.79999995232,120821.79999995232,117459.144,117469.59999990463,117492.276,120848.805,1,40,,
trial,html.Screen,6_4_0,2023-11-29T17:33:06.953Z,,,,1,-1.0264463986917702,1.2804054832904397,,,true,hl,4060.894999809272,response,1.0656673213158945,1.2,-1.2,-0.8082541692781954,1.2,-1.2,high,low,,ISIC_7889838.JPG,,ISIC_0033985.JPG,,33,true,0.42000000000000026,hl,keypress(j),0,false,124910,124909.69999980927,120815.672,120823.09999990463,120848.805,124923.449,1,40,5,
sequence,flow.Sequence,6_4,2023-11-29T17:33:06.953Z,,,,,,,,,,,4060.894999809272,completion,,,,,,,high,low,,,,,,,true,,,,,false,124910.5,124909.69999980927,120815.672,120823,120848.805,124923.449,1,40,,
trial,html.Screen,6_5_0,2023-11-29T17:33:08.617Z,,,,1,-1.156827121261563,-1.2544342720917778,,,true,hh,1650.1509999046393,response,0.9859190680307316,1.2,-1.2,1.0904756837966545,1.2,-1.2,high,high,,ISIC_0060397.JPG,,ISIC_0063151.JPG,,253,true,0.42000000000000026,hh,keypress(i),0,false,126573.89999985695,126573.59999990463,124906.907,124910.69999980927,124923.449,126576.704,1,40,6,
sequence,flow.Sequence,6_5,2023-11-29T17:33:08.617Z,,,,,,,,,,,1650.1509999046393,completion,,,,,,,high,high,,,,,,,true,,,,,false,126574.39999985695,126573.59999990463,124906.907,124910.69999980927,124923.449,126576.704,1,40,,
trial,html.Screen,6_6_0,2023-11-29T17:33:20.073Z,,,,1,1.201100953917304,1.1751492358160105,,,false,ll,11453.495999809267,response,-1.29026082950341,1.2,-1.2,-1.144672688339213,1.2,-1.2,low,low,,ISIC_0647224.JPG,,ISIC_0054317.JPG,,30,true,0.1,lh,keypress(e),0,false,138030.5,138030.19999980927,126560.186,126574.59999990463,126576.704,138065.751,1,40,7,
sequence,flow.Sequence,6_6,2023-11-29T17:33:20.074Z,,,,,,,,,,,11453.495999809267,completion,,,,,,,low,low,,,,,,,true,,,,,false,138031.19999980927,138030.19999980927,126560.186,126574.5,126576.704,138065.751,1,40,,
trial,html.Screen,6_7_0,2023-11-29T17:33:25.353Z,,,,1,1.0959058628476686,1.1684835186766898,,,true,ll,5243.948999809276,response,-1.2952503640839694,1.2,-1.2,-1.107234527385344,1.2,-1.2,low,low,,ISIC_5920470.JPG,,ISIC_0034134.JPG,,53,true,0.15000000000000002,ll,keypress(f),0,false,143310.19999980927,143309.69999980927,138049.189,138031.5,138065.751,143342.589,1,40,8,
sequence,flow.Sequence,6_7,2023-11-29T17:33:25.354Z,,,,,,,,,,,5243.948999809276,completion,,,,,,,low,low,,,,,,,true,,,,,false,143310.59999990463,143309.69999980927,138049.189,138031.5,138065.751,143342.589,1,40,,
trial,html.Screen,6_8_0,2023-11-29T17:33:31.353Z,,,,1,0.869932994914832,-0.8880533324432531,,,false,lh,5967.310999856942,response,-0.9873794329144926,1.2,-1.2,0.7991077882008257,1.2,-1.2,low,high,,ISIC_8617084.JPG,,ISIC_0013498.JPG,,27,true,0.42000000000000026,hh,keypress(i),0,false,149310.29999995232,149309.89999985695,143309.449,143311,143342.589,149337.593,1,40,9,
sequence,flow.Sequence,6_8,2023-11-29T17:33:31.354Z,,,,,,,,,,,5967.310999856942,completion,,,,,,,low,high,,,,,,,true,,,,,false,149310.89999985695,149309.89999985695,143309.449,143310.79999995232,143342.589,149337.593,1,40,,
trial,html.Screen,6_9_0,2023-11-29T17:33:32.928Z,,,,1,1.2364994561934892,-0.9174173651516624,,,true,lh,1547.006999904639,response,-0.7809949855371787,1.2,-1.2,0.8493861117004308,1.2,-1.2,low,high,,ISIC_3481133.JPG,,ISIC_7450481.JPG,,27,true,0.42000000000000026,lh,keypress(e),0,false,150884.79999995232,150884.59999990463,149304.445,149311.09999990463,149337.593,150890.619,1,40,10,
sequence,flow.Sequence,6_9,2023-11-29T17:33:32.928Z,,,,,,,,,,,1547.006999904639,completion,,,,,,,low,high,,,,,,,true,,,,,false,150884.89999985695,150884.59999990463,149304.445,149311,149337.593,150890.619,1,40,,
trial,html.Screen,6_10_0,2023-11-29T17:33:34.040Z,,,,1,1.201100953917304,1.1751492358160105,,,true,ll,1106.080999809259,response,-0.9937263454339066,1.2,-1.2,-1.3776511372249582,1.2,-1.2,low,low,,ISIC_0647224.JPG,,ISIC_1693572.JPG,,245,true,0.3600000000000002,ll,keypress(f),0,false,151996.79999995232,151996.69999980927,150874.166,150884.89999985695,150890.619,152009.539,1,40,11,
sequence,flow.Sequence,6_10,2023-11-29T17:33:34.040Z,,,,,,,,,,,1106.080999809259,completion,,,,,,,low,low,,,,,,,true,,,,,false,151997.09999990463,151996.69999980927,150874.166,150884.89999985695,150890.619,152009.539,1,40,,
trial,html.Screen,6_11_0,2023-11-29T17:33:41.279Z,,,,1,-1.1383813631375823,-1.1319312220332556,,,true,hh,7226.7609999523265,response,1.086647361897092,1.2,-1.2,1.1528935990320313,1.2,-1.2,high,high,,ISIC_6227397.JPG,,ISIC_3505339.JPG,,26,true,0.15000000000000002,hh,keypress(i),0,false,159236.5,159236.29999995232,151992.774,151997.19999980927,152009.539,159240.211,1,40,12,
sequence,flow.Sequence,6_11,2023-11-29T17:33:41.280Z,,,,,,,,,,,7226.7609999523265,completion,,,,,,,high,high,,,,,,,true,,,,,false,159236.59999990463,159236.29999995232,151992.774,151997.19999980927,152009.539,159240.211,1,40,,
trial,html.Screen,6_12_0,2023-11-29T17:33:43.985Z,,,,1,1.09666761087476,1.1072126870290426,,,true,ll,2701.8889999046223,response,-1.2493792664822851,1.2,-1.2,-1.1336008561684745,1.2,-1.2,low,low,,ISIC_0071754.JPG,,ISIC_0061475.JPG,,30,true,0.1,ll,keypress(f),0,false,161942.5,161942.09999990463,159223.713,159236.79999995232,159240.211,161945.575,1,40,13,
sequence,flow.Sequence,6_12,2023-11-29T17:33:43.986Z,,,,,,,,,,,2701.8889999046223,completion,,,,,,,low,low,,,,,,,true,,,,,false,161942.89999985695,161942.09999990463,159223.713,159236.69999980927,159240.211,161945.575,1,40,,
trial,html.Screen,6_13_0,2023-11-29T17:33:47.873Z,,,,1,1.09666761087476,1.1072126870290426,,,true,ll,3883.9249999999884,response,-1.1033977063872138,1.2,-1.2,-1.2513071571733083,1.2,-1.2,low,low,,ISIC_0071754.JPG,,ISIC_0025472.JPG,,53,true,0.15000000000000002,ll,keypress(f),0,false,165829.79999995232,165829.5,161929.024,161943.19999980927,161945.575,165869.774,1,40,14,
sequence,flow.Sequence,6_13,2023-11-29T17:33:47.873Z,,,,,,,,,,,3883.9249999999884,completion,,,,,,,low,low,,,,,,,true,,,,,false,165830.29999995232,165829.5,161929.024,161943.19999980927,161945.575,165869.774,1,40,,
trial,html.Screen,6_14_0,2023-11-29T17:33:49.889Z,,,,1,0.8534691366511764,-1.03975580494588,,,true,lh,1975.9259998092602,response,-0.7833710010171356,1.2,-1.2,0.9315588090336896,1.2,-1.2,low,high,,ISIC_0056788.JPG,,ISIC_3826102.JPG,,27,true,0.42000000000000026,lh,keypress(e),0,false,167846.09999990463,167845.69999980927,165819.921,165830.69999980927,165869.774,167856.98,1,40,15,
sequence,flow.Sequence,6_14,2023-11-29T17:33:49.889Z,,,,,,,,,,,1975.9259998092602,completion,,,,,,,low,high,,,,,,,true,,,,,false,167846.59999990463,167845.69999980927,165819.921,165830.59999990463,165869.774,167856.98,1,40,,
trial,html.Screen,6_15_0,2023-11-29T17:33:51.881Z,,,,1,1.3411179702686655,1.255103311449152,,,true,ll,1980.5199999999895,response,-1.3114122234470091,1.2,-1.2,-0.9157868672217788,1.2,-1.2,low,low,,ISIC_5611010.JPG,,ISIC_6176182.JPG,,245,true,0.3600000000000002,ll,keypress(f),0,false,169837.89999985695,169837.5,167840.511,167846.79999995232,167856.98,169844.156,1,40,16,
sequence,flow.Sequence,6_15,2023-11-29T17:33:51.881Z,,,,,,,,,,,1980.5199999999895,completion,,,,,,,low,low,,,,,,,true,,,,,false,169838.39999985695,169837.5,167840.511,167846.69999980927,167856.98,169844.156,1,40,,
trial,html.Screen,6_16_0,2023-11-29T17:33:53.321Z,,,,1,-1.2071341803968807,-1.235960269089932,,,true,hh,1433.3440000000119,response,1.2318069697449794,1.2,-1.2,1.1703576816778267,1.2,-1.2,high,high,,ISIC_0058174.JPG,,ISIC_2732573.JPG,,26,true,0.15000000000000002,hh,keypress(i),0,false,171277.89999985695,171277.5,169827.664,169838.69999980927,169844.156,171280.39,1,40,17,
sequence,flow.Sequence,6_16,2023-11-29T17:33:53.321Z,,,,,,,,,,,1433.3440000000119,completion,,,,,,,high,high,,,,,,,true,,,,,false,171278.39999985695,171277.5,169827.664,169838.59999990463,169844.156,171280.39,1,40,,
trial,html.Screen,6_17_0,2023-11-29T17:33:54.696Z,,,,1,1.2024083555600384,1.149077673153018,,,true,ll,1372.2099999046186,response,-1.2322060291690602,1.2,-1.2,-1.2686491386389651,1.2,-1.2,low,low,,ISIC_3566243.JPG,,ISIC_0011697.JPG,,30,true,0.1,ll,keypress(f),0,false,172652.69999980927,172652.59999990463,171263.8,171278.69999980927,171280.39,172666.503,1,40,18,
sequence,flow.Sequence,6_17,2023-11-29T17:33:54.696Z,,,,,,,,,,,1372.2099999046186,completion,,,,,,,low,low,,,,,,,true,,,,,false,172652.89999985695,172652.59999990463,171263.8,171278.59999990463,171280.39,172666.503,1,40,,
trial,html.Screen,6_18_0,2023-11-29T17:33:55.969Z,,,,1,-1.242586748440878,-1.1207933200172129,,,true,hh,1259.0969999046356,response,1.3411179702686655,1.2,-1.2,1.255103311449152,1.2,-1.2,high,high,,ISIC_0013073.JPG,,ISIC_5611010.JPG,,26,true,0.15000000000000002,hh,keypress(i),0,false,173926,173925.59999990463,172649.914,172652.89999985695,172666.503,173935.461,1,40,19,
sequence,flow.Sequence,6_18,2023-11-29T17:33:55.969Z,,,,,,,,,,,1259.0969999046356,completion,,,,,,,high,high,,,,,,,true,,,,,false,173926.5,173925.59999990463,172649.914,172652.89999985695,172666.503,173935.461,1,40,,
trial,html.Screen,6_19_0,2023-11-29T17:33:57.705Z,,,,1,-1.255256820488545,-1.1206426433062562,,,true,hh,1726.1389999046223,response,1.1642596483638106,1.2,-1.2,1.109799097093339,1.2,-1.2,high,high,,ISIC_0024652.JPG,,ISIC_0765584.JPG,,26,true,0.15000000000000002,hh,keypress(i),0,false,175661.89999985695,175661.59999990463,173918.926,173926.69999980927,173935.461,175672.201,1,40,20,
sequence,flow.Sequence,6_19,2023-11-29T17:33:57.705Z,,,,,,,,,,,1726.1389999046223,completion,,,,,,,high,high,,,,,,,true,,,,,false,175662.29999995232,175661.59999990463,173918.926,173926.59999990463,173935.461,175672.201,1,40,,
trial,html.Screen,6_20_0,2023-11-29T17:33:59.473Z,,,,1,-1.2750452296609045,-1.1682369131232675,,,true,hh,1757.298999999999,response,1.057008495826831,1.2,-1.2,1.1278122585028287,1.2,-1.2,high,high,,ISIC_0066399.JPG,,ISIC_2819798.JPG,,26,true,0.15000000000000002,hh,keypress(i),0,false,177429.79999995232,177429.5,175655.732,175662.59999990463,175672.201,177475.703,1,40,21,
sequence,flow.Sequence,6_20,2023-11-29T17:33:59.473Z,,,,,,,,,,,1757.298999999999,completion,,,,,,,high,high,,,,,,,true,,,,,false,177430.29999995232,177429.5,175655.732,175662.5,175672.201,177475.703,1,40,,
trial,html.Screen,6_21_0,2023-11-29T17:34:01.049Z,,,,1,1.331700944308701,-0.9395196143259436,,,true,lh,1529.2969999999914,response,-0.8947611078712571,1.2,-1.2,0.8960964505004638,1.2,-1.2,low,high,,ISIC_1668831.JPG,,ISIC_6441128.JPG,,27,true,0.42000000000000026,lh,keypress(e),0,false,179005.19999980927,179005,177425.628,177430.5,177475.703,179045.393,1,40,22,
sequence,flow.Sequence,6_21,2023-11-29T17:34:01.050Z,,,,,,,,,,,1529.2969999999914,completion,,,,,,,low,high,,,,,,,true,,,,,false,179005.59999990463,179005,177425.628,177430.39999985695,177475.703,179045.393,1,40,,
trial,html.Screen,6_22_0,2023-11-29T17:34:12.922Z,,,,1,1.011737552725394,-0.8500530224490773,,,false,lh,11832.306999809254,response,-1.0264463986917702,1.2,-1.2,1.2804054832904397,1.2,-1.2,low,high,,ISIC_2998367.JPG,,ISIC_7889838.JPG,,27,true,0.42000000000000026,hl,keypress(j),0,false,190877.89999985695,190877.69999980927,178995.52,179005.69999980927,179045.393,190901.857,1,40,23,
sequence,flow.Sequence,6_22,2023-11-29T17:34:12.923Z,,,,,,,,,,,11832.306999809254,completion,,,,,,,low,high,,,,,,,true,,,,,false,190878.5,190877.69999980927,178995.52,179005.69999980927,179045.393,190901.857,1,40,,
trial,html.Screen,6_23_0,2023-11-29T17:34:14.385Z,,,,1,1.1388430156686884,1.2700552354887775,,,true,ll,1438.643000000011,response,-1.0651492409820618,1.2,-1.2,-1.1862499256725747,1.2,-1.2,low,low,,ISIC_9939653.JPG,,ISIC_0065421.JPG,,245,true,0.3600000000000002,ll,keypress(f),0,false,192340.69999980927,192340.5,190868.624,190878.69999980927,190901.857,192371.361,1,40,24,
sequence,flow.Sequence,6_23,2023-11-29T17:34:14.385Z,,,,,,,,,,,1438.643000000011,completion,,,,,,,low,low,,,,,,,true,,,,,false,192340.79999995232,192340.5,190868.624,190878.59999990463,190901.857,192371.361,1,40,,
trial,html.Screen,6_24_0,2023-11-29T17:34:16.530Z,,,,1,-0.8655167308525522,0.9298580423306444,,,true,hl,2114.438999952312,response,0.8809306963311293,1.2,-1.2,-0.8614910030038974,1.2,-1.2,high,low,,ISIC_4603706.JPG,,ISIC_0013731.JPG,,26,true,0.3600000000000002,hl,keypress(j),0,false,194486.09999990463,194485.79999995232,192338.228,192340.89999985695,192371.361,194508.856,1,40,25,
sequence,flow.Sequence,6_24,2023-11-29T17:34:16.531Z,,,,,,,,,,,2114.438999952312,completion,,,,,,,high,low,,,,,,,true,,,,,false,194486.69999980927,194485.79999995232,192338.228,192340.89999985695,192371.361,194508.856,1,40,,
trial,html.Screen,6_25_0,2023-11-29T17:34:18.010Z,,,,1,1.011737552725394,-0.8500530224490773,,,true,lh,1456.9439999523165,response,-0.7911024675435955,1.2,-1.2,0.7975977016137676,1.2,-1.2,low,high,,ISIC_2998367.JPG,,ISIC_5813642.JPG,,27,true,0.42000000000000026,lh,keypress(e),0,false,195966.09999990463,195965.79999995232,194475.711,194487,194508.856,195978.46,1,40,26,
sequence,flow.Sequence,6_25,2023-11-29T17:34:18.011Z,,,,,,,,,,,1456.9439999523165,completion,,,,,,,low,high,,,,,,,true,,,,,false,195966.59999990463,195965.79999995232,194475.711,194486.89999985695,194508.856,195978.46,1,40,,
trial,html.Screen,6_26_0,2023-11-29T17:34:19.346Z,,,,1,-1.2750452296609045,-1.1682369131232675,,,true,hh,1323.2399998092733,response,0.970918963297818,1.2,-1.2,1.3950544338148037,1.2,-1.2,high,high,,ISIC_0066399.JPG,,ISIC_8354042.JPG,,179,true,0.3600000000000002,hh,keypress(i),0,false,197302,197301.69999980927,195961.944,195966.89999985695,195978.46,197347.731,1,40,27,
sequence,flow.Sequence,6_26,2023-11-29T17:34:19.347Z,,,,,,,,,,,1323.2399998092733,completion,,,,,,,high,high,,,,,,,true,,,,,false,197302.5,197301.69999980927,195961.944,195966.79999995232,195978.46,197347.731,1,40,,
trial,html.Screen,6_27_0,2023-11-29T17:34:20.937Z,,,,1,-0.7911024675435955,0.7975977016137676,,,true,hl,1544.7690000000002,response,1.020990671779317,1.2,-1.2,-1.0116513850520903,1.2,-1.2,high,low,,ISIC_5813642.JPG,,ISIC_0011995.JPG,,26,true,0.3600000000000002,hl,keypress(j),0,false,198892.69999980927,198892.5,197297.782,197302.79999995232,197347.731,198900.868,1,40,28,
sequence,flow.Sequence,6_27,2023-11-29T17:34:20.937Z,,,,,,,,,,,1544.7690000000002,completion,,,,,,,high,low,,,,,,,true,,,,,false,198892.89999985695,198892.5,197297.782,197302.69999980927,197347.731,198900.868,1,40,,
trial,html.Screen,6_28_0,2023-11-29T17:34:22.554Z,,,,1,1.1598623261077452,1.203269031614007,,,true,ll,1608.8319998092775,response,-1.4320119373485358,1.2,-1.2,-0.8012162547419382,1.2,-1.2,low,low,,ISIC_0002639.JPG,,ISIC_0056740.JPG,,339,true,0.42000000000000026,ll,keypress(f),0,false,200509.89999985695,200509.69999980927,198884.304,198892.89999985695,198900.868,200537.255,1,40,29,
sequence,flow.Sequence,6_28,2023-11-29T17:34:22.554Z,,,,,,,,,,,1608.8319998092775,completion,,,,,,,low,low,,,,,,,true,,,,,false,200510.5,200509.69999980927,198884.304,198892.89999985695,198900.868,200537.255,1,40,,
trial,html.Screen,6_29_0,2023-11-29T17:34:32.426Z,,,,1,-0.796241477082623,0.9017449335975743,,,false,hl,9844.744999999995,response,1.1181734135756094,1.2,-1.2,-0.944560381774994,1.2,-1.2,high,low,,ISIC_8588033.JPG,,ISIC_9688534.JPG,,26,true,0.3600000000000002,hh,keypress(i),0,false,210382.39999985695,210382,200503.879,200510.69999980927,200537.255,210406.472,1,40,30,
sequence,flow.Sequence,6_29,2023-11-29T17:34:32.427Z,,,,,,,,,,,9844.744999999995,completion,,,,,,,high,low,,,,,,,true,,,,,false,210382.79999995232,210382,200503.879,200510.59999990463,200537.255,210406.472,1,40,,
trial,html.Screen,6_30_0,2023-11-29T17:34:34.442Z,,,,1,-1.0022829373011404,0.8311726972863814,,,true,hl,1991.3279999523074,response,1.0751036484083878,1.2,-1.2,-1.143906455483852,1.2,-1.2,high,low,,ISIC_0033287.JPG,,ISIC_0064406.JPG,,33,true,0.42000000000000026,hl,keypress(j),0,false,212398.19999980927,212397.79999995232,210373.228,210383.09999990463,210406.472,212410.597,1,40,31,
sequence,flow.Sequence,6_30,2023-11-29T17:34:34.443Z,,,,,,,,,,,1991.3279999523074,completion,,,,,,,high,low,,,,,,,true,,,,,false,212398.59999990463,212397.79999995232,210373.228,210383.09999990463,210406.472,212410.597,1,40,,
trial,html.Screen,6_31_0,2023-11-29T17:34:36.042Z,,,,1,-1.2493792664822851,-1.1336008561684745,,,true,hh,1587.0029999046237,response,0.8856899178393457,1.2,-1.2,1.1903131706835868,1.2,-1.2,high,high,,ISIC_0061475.JPG,,ISIC_1233104.JPG,,253,true,0.42000000000000026,hh,keypress(i),0,false,213997.89999985695,213997.59999990463,212393.887,212398.79999995232,212410.597,214013.626,1,40,32,
sequence,flow.Sequence,6_31,2023-11-29T17:34:36.042Z,,,,,,,,,,,1587.0029999046237,completion,,,,,,,high,high,,,,,,,true,,,,,false,213998.39999985695,213997.59999990463,212393.887,212398.79999995232,212410.597,214013.626,1,40,,
trial,html.Screen,6_32_0,2023-11-29T17:34:39.818Z,,,,1,-1.101346104814838,-1.1225813067473052,,,true,hh,3760.073999809276,response,1.1388430156686884,1.2,-1.2,1.2700552354887775,1.2,-1.2,high,high,,ISIC_8175453.JPG,,ISIC_9939653.JPG,,26,true,0.15000000000000002,hh,keypress(i),0,false,217774.09999990463,217773.69999980927,213997.017,213998.69999980927,214013.626,217787.479,1,40,33,
sequence,flow.Sequence,6_32,2023-11-29T17:34:39.819Z,,,,,,,,,,,3760.073999809276,completion,,,,,,,high,high,,,,,,,true,,,,,false,217774.59999990463,217773.69999980927,213997.017,213998.59999990463,214013.626,217787.479,1,40,,
trial,html.Screen,6_33_0,2023-11-29T17:34:41.696Z,,,,1,-1.1033977063872138,-1.2513071571733083,,,true,hh,1864.9209998569568,response,1.2503149164557643,1.2,-1.2,1.0796591227570405,1.2,-1.2,high,high,,ISIC_0025472.JPG,,ISIC_2466892.JPG,,26,true,0.15000000000000002,hh,keypress(i),0,false,219652.39999985695,219652.39999985695,217771.007,217774.79999995232,217787.479,219691.217,1,40,34,
sequence,flow.Sequence,6_33,2023-11-29T17:34:41.697Z,,,,,,,,,,,1864.9209998569568,completion,,,,,,,high,high,,,,,,,true,,,,,false,219652.59999990463,219652.39999985695,217771.007,217774.69999980927,217787.479,219691.217,1,40,,
trial,html.Screen,6_34_0,2023-11-29T17:34:43.753Z,,,,1,1.020990671779317,-1.0116513850520903,,,true,lh,2017.1829998569447,response,-0.796241477082623,1.2,-1.2,0.9017449335975743,1.2,-1.2,low,high,,ISIC_0011995.JPG,,ISIC_8588033.JPG,,27,true,0.42000000000000026,lh,keypress(e),0,false,221708.59999990463,221708.39999985695,219641.134,219652.59999990463,219691.217,221745.197,1,40,35,
sequence,flow.Sequence,6_34,2023-11-29T17:34:43.753Z,,,,,,,,,,,2017.1829998569447,completion,,,,,,,low,high,,,,,,,true,,,,,false,221708.69999980927,221708.39999985695,219641.134,219652.59999990463,219691.217,221745.197,1,40,,
trial,html.Screen,6_35_0,2023-11-29T17:34:45.448Z,,,,1,-0.7870237732709365,0.9172955251119376,,,true,hl,1659.1029999523307,response,0.9433720631499012,1.2,-1.2,-1.0582071940347648,1.2,-1.2,high,low,,ISIC_0057716.JPG,,ISIC_4890201.JPG,,26,true,0.3600000000000002,hl,keypress(j),0,false,223404.39999985695,223404.29999995232,221695.101,221708.79999995232,221745.197,223415.13,1,40,36,
sequence,flow.Sequence,6_35,2023-11-29T17:34:45.449Z,,,,,,,,,,,1659.1029999523307,completion,,,,,,,high,low,,,,,,,true,,,,,false,223404.59999990463,223404.29999995232,221695.101,221708.79999995232,221745.197,223415.13,1,40,,
trial,html.Screen,6_36_0,2023-11-29T17:34:48.146Z,,,,1,1.131522954199764,1.1047184491749509,,,true,ll,2686.469999904628,response,-0.7998473707897232,1.2,-1.2,-1.276455551965589,1.2,-1.2,low,low,,ISIC_1868816.JPG,,ISIC_0061685.JPG,,339,true,0.42000000000000026,ll,keypress(f),0,false,226101.89999985695,226101.59999990463,223398.642,223404.59999990463,223415.13,226137.073,1,40,37,
sequence,flow.Sequence,6_36,2023-11-29T17:34:48.146Z,,,,,,,,,,,2686.469999904628,completion,,,,,,,low,low,,,,,,,true,,,,,false,226102.29999995232,226101.59999990463,223398.642,223404.59999990463,223415.13,226137.073,1,40,,
trial,html.Screen,6_37_0,2023-11-29T17:34:54.769Z,,,,1,-0.7998855902596425,1.1518579145663017,,,false,hl,6587.826999856945,response,1.0143509683988825,1.2,-1.2,-1.3163955902021656,1.2,-1.2,high,low,,ISIC_0025061.JPG,,ISIC_0062031.JPG,,26,true,0.3600000000000002,ll,keypress(f),0,false,232725.09999990463,232724.89999985695,226087.197,226102.59999990463,226137.073,232749.927,1,40,38,
sequence,flow.Sequence,6_37,2023-11-29T17:34:54.769Z,,,,,,,,,,,6587.826999856945,completion,,,,,,,high,low,,,,,,,true,,,,,false,232725.29999995232,232724.89999985695,226087.197,226102.5,226137.073,232749.927,1,40,,
trial,html.Screen,6_38_0,2023-11-29T17:35:09.859Z,,,,1,-0.8200962008791046,0.7936051642828523,,,false,hl,15064.073000000004,response,1.0656673213158945,1.2,-1.2,-0.8082541692781954,1.2,-1.2,high,low,,ISIC_0027031.JPG,,ISIC_0033985.JPG,,33,true,0.42000000000000026,hh,keypress(i),0,false,247814.29999995232,247814,232716.773,232725.29999995232,232749.927,247862.678,1,40,39,
sequence,flow.Sequence,6_38,2023-11-29T17:35:09.860Z,,,,,,,,,,,15064.073000000004,completion,,,,,,,high,low,,,,,,,true,,,,,false,247814.89999985695,247814,232716.773,232725.29999995232,232749.927,247862.678,1,40,,
trial,html.Screen,6_39_0,2023-11-29T17:35:16.179Z,,,,1,0.9696118525781644,-0.9244148283103414,,,true,lh,6271.121999952302,response,-1.0164576835546473,1.2,-1.2,0.8120626538423016,1.2,-1.2,low,high,,ISIC_7927525.JPG,,ISIC_6002694.JPG,,27,true,0.42000000000000026,lh,keypress(e),0,false,254134.19999980927,254133.79999995232,247812.52,247815.09999990463,247862.678,254141.601,1,40,40,
sequence,flow.Sequence,6_39,2023-11-29T17:35:16.180Z,,,,,,,,,,,6271.121999952302,completion,,,,,,,low,high,,,,,,,true,,,,,false,254134.69999980927,254133.79999995232,247812.52,247815.09999990463,247862.678,254141.601,1,40,,
practice_loop,flow.Loop,6,2023-11-29T17:35:16.180Z,,,,,,,,,,,147412.48899995233,completion,,,,,,,,,,,,,,,true,,,,,false,254135.09999990463,254133.79999995232,106638.06,106660.5,106721.311,254141.601,1,40,,
stair_instructions,html.Screen,7,2023-11-29T17:35:45.482Z,,,,,,,,,,,29294.298999856954,response,,,,,,,,,,,,,,,,,continue,click button,,,283436.39999985695,283435.89999985695,254125.152,254135.19999980927,254141.601,283465.371,,,,
trial,html.Screen,8_0_0,2023-11-29T17:35:58.081Z,,,,2,0.000047919190197942736,0.0462652940855003,,0.05,true,ll,12570.82899980928,response,-1.1346217981791904,1.2,-1.2,-1.1555132168806113,1.2,-1.2,low,low,,ISIC_0011507.JPG,,ISIC_0032771.JPG,33,245,false,0.3600000000000002,ll,keypress(f),0,true,296036.2999999523,296036.19999980927,283448.657,283436.5,283465.371,296056.514,1,40,1,
sequence,flow.Sequence,8_0,2023-11-29T17:35:58.082Z,,,,,,,,,,,12570.82899980928,completion,,,,,,,low,low,,,,,,,false,,,,,true,296036.5,296036.19999980927,283448.657,283436.5,283465.371,296056.514,1,40,,
trial,html.Screen,8_1_0,2023-11-29T17:36:13.422Z,,,,2,-0.0069555338059566,0.0310100918136373,,0.05,true,lh,15319.18599980924,response,-0.7998855902596425,1.15,-1.15,1.1518579145663017,1.15,-1.15,low,high,,ISIC_0011177.JPG,,ISIC_0025061.JPG,33,27,false,0.3700000000000002,lh,keypress(e),0,true,311375.89999985695,311375.69999980927,296039.834,296036.5,296056.514,311403.05,1,40,2,
sequence,flow.Sequence,8_1,2023-11-29T17:36:13.422Z,,,,,,,,,,,15319.18599980924,completion,,,,,,,low,high,,,,,,,false,,,,,true,311376.09999990463,311375.69999980927,296039.834,296036.5,296056.514,311403.05,1,40,,
trial,html.Screen,8_2_0,2023-11-29T17:36:20.756Z,,,,2,-0.0324770283903853,-0.0249968632204382,,0.05,true,lh,7306.8499998569605,response,-0.7871162143493278,1.15,-1.0999999999999999,0.8429329800778957,1.15,-1.15,low,high,,ISIC_7266462.JPG,,ISIC_3439215.JPG,33,28,false,0.3600000000000002,lh,keypress(e),0,true,318710.2999999523,318709.89999985695,311369.645,311376.09999990463,311403.05,318733.992,1,40,3,
sequence,flow.Sequence,8_2,2023-11-29T17:36:20.757Z,,,,,,,,,,,7306.8499998569605,completion,,,,,,,low,high,,,,,,,false,,,,,true,318710.7999999523,318709.89999985695,311369.645,311376.09999990463,311403.05,318733.992,1,40,,
trial,html.Screen,8_3_0,2023-11-29T17:36:27.027Z,,,,2,0.0277178575053843,-0.0395587463147856,,0.05,false,lh,6246.5079999999725,response,-0.7871162143493278,1.15,-1.0999999999999999,0.8429329800778957,1.0999999999999999,-1.15,low,high,,ISIC_0010807.JPG,,ISIC_3439215.JPG,33,27,false,0.3200000000000002,hh,keypress(i),0,true,324980.59999990463,324980.5,318700.831,318711.09999990463,318733.992,324996.266,1,40,4,
sequence,flow.Sequence,8_3,2023-11-29T17:36:27.027Z,,,,,,,,,,,6246.5079999999725,completion,,,,,,,low,high,,,,,,,false,,,,,true,324980.69999980927,324980.5,318700.831,318711,318733.992,324996.266,1,40,,
trial,html.Screen,8_4_0,2023-11-29T17:36:30.235Z,,,,2,-0.0324770283903853,-0.0249968632204382,,0.05,true,ll,3192.2339999999967,response,-1.101346104814838,1.15,-1.15,-1.1225813067473052,1.0999999999999999,-1.15,low,low,,ISIC_7266462.JPG,,ISIC_8175453.JPG,33,27,false,0.1,ll,keypress(f),0,true,328188.69999980927,328188.5,324979.612,324980.7999999523,324996.266,328202.42,1,40,5,
sequence,flow.Sequence,8_4,2023-11-29T17:36:30.235Z,,,,,,,,,,,3192.2339999999967,completion,,,,,,,low,low,,,,,,,false,,,,,true,328188.89999985695,328188.5,324979.612,324980.7999999523,324996.266,328202.42,1,40,,
trial,html.Screen,8_5_0,2023-11-29T17:36:32.820Z,,,,2,0.0102460616775615,-0.0309670599545429,,0.05,true,ll,2571.479999856965,response,-1.2169050727663315,1.15,-1.15,-1.1067845563421794,1.0999999999999999,-1.0619637057810716,low,low,,ISIC_0072041.JPG,,ISIC_7016261.JPG,33,31,false,0.1,ll,keypress(f),0,true,330774.19999980927,330773.89999985695,328185.973,328189,328202.42,330791.047,1,40,6,
sequence,flow.Sequence,8_5,2023-11-29T17:36:32.821Z,,,,,,,,,,,2571.479999856965,completion,,,,,,,low,low,,,,,,,false,,,,,true,330774.69999980927,330773.89999985695,328185.973,328188.89999985695,328202.42,330791.047,1,40,,
trial,html.Screen,8_6_0,2023-11-29T17:36:36.971Z,,,,2,-0.039728379742806,0.0228701131373768,,0.05,true,hh,4133.752999952296,response,1.1210325063849345,1.15,-1.1118448145542554,1.1498648320956202,1.0999999999999999,-1.0619637057810716,high,high,,ISIC_0054073.JPG,,ISIC_0032162.JPG,33,25,false,0.1,hh,keypress(i),0,true,334925,334924.7999999523,330774.18,330775,330791.047,334932.202,1,40,7,
sequence,flow.Sequence,8_6,2023-11-29T17:36:36.971Z,,,,,,,,,,,4133.752999952296,completion,,,,,,,high,high,,,,,,,false,,,,,true,334925.2999999523,334924.7999999523,330774.18,330774.89999985695,330791.047,334932.202,1,40,,
trial,html.Screen,8_7_0,2023-11-29T17:36:46.029Z,,,,2,-0.0027483411352856,-0.0100996915276271,,0.05,false,hl,9049.997999809275,response,0.9579209317488,1.15,-1.1118448145542554,-1.0147487101263497,1.0854486692402772,-1.0619637057810716,high,low,,ISIC_7364041.JPG,,ISIC_8124482.JPG,33,25,false,0.29000000000000015,hh,keypress(i),0,true,343982.59999990463,343982.19999980927,334915.648,334925.39999985695,334932.202,343999.919,1,40,8,
sequence,flow.Sequence,8_7,2023-11-29T17:36:46.029Z,,,,,,,,,,,9049.997999809275,completion,,,,,,,high,low,,,,,,,false,,,,,true,343983.09999990463,343982.19999980927,334915.648,334925.39999985695,334932.202,343999.919,1,40,,
trial,html.Screen,8_8_0,2023-11-29T17:36:48.565Z,,,,2,-0.0085520978188085,0.0464691161264081,,0.05,true,hh,2518.0810000000056,response,0.9962130178668478,0.9894767190668672,-1.1118448145542554,1.0198919808587756,1.0854486692402772,-1.1119637057810716,high,high,,ISIC_0758797.JPG,,ISIC_0595080.JPG,33,33,false,0.1,hh,keypress(i),0,true,346518.5,346518,343983.37,343983.2999999523,343999.919,346538.166,1,40,9,
sequence,flow.Sequence,8_8,2023-11-29T17:36:48.565Z,,,,,,,,,,,2518.0810000000056,completion,,,,,,,high,high,,,,,,,false,,,,,true,346519,346518,343983.37,343983.2999999523,343999.919,346538.166,1,40,,
trial,html.Screen,8_9_0,2023-11-29T17:36:53.037Z,,,,2,-0.0107854985447517,-0.0478010417136109,,0.05,false,ll,4451.933999904606,response,-1.1346217981791904,0.9894767190668672,-1.1118448145542554,-1.1555132168806113,1.0854486692402772,-1.1119637057810716,low,low,,ISIC_0010500.JPG,,ISIC_0032771.JPG,33,28,false,0.1,hh,keypress(i),0,true,350990.39999985695,350990.09999990463,346504.947,346519.19999980927,346538.166,351013.465,1,40,10,
sequence,flow.Sequence,8_9,2023-11-29T17:36:53.037Z,,,,,,,,,,,4451.933999904606,completion,,,,,,,low,low,,,,,,,false,,,,,true,350991,350990.09999990463,346504.947,346519.19999980927,346538.166,351013.465,1,40,,
trial,html.Screen,8_10_0,2023-11-29T17:36:55.899Z,,,,2,0.0362376068089956,0.047825070846155,,0.05,false,lh,2839.634999904607,response,-0.991146183030456,0.9894767190668672,-1.1618448145542555,0.9949639823722534,1.0854486692402772,-1.1619637057810717,low,high,,ISIC_6985114.JPG,,ISIC_6342224.JPG,33,25,false,0.3700000000000002,ll,keypress(f),0,true,353853.2999999523,353853.09999990463,350980.264,350991.19999980927,351013.465,353885.748,1,40,11,
sequence,flow.Sequence,8_10,2023-11-29T17:36:55.900Z,,,,,,,,,,,2839.634999904607,completion,,,,,,,low,high,,,,,,,false,,,,,true,353853.5,353853.09999990463,350980.264,350991.09999990463,351013.465,353885.748,1,40,,
trial,html.Screen,8_11_0,2023-11-29T17:37:01.701Z,,,,2,0.0113873532168551,0.0054999201556291,,0.05,false,hl,5768.251999999979,response,0.7622914383475332,0.9894767190668672,-1.1618448145542555,-1.2637655821850098,1.1354486692402772,-1.1619637057810717,high,low,,ISIC_8812621.JPG,,ISIC_0032005.JPG,33,26,false,0.2600000000000001,ll,keypress(f),0,true,359654.19999980927,359654,353852.505,353853.69999980927,353885.748,359663.668,1,40,12,
sequence,flow.Sequence,8_11,2023-11-29T17:37:01.702Z,,,,,,,,,,,5768.251999999979,completion,,,,,,,high,low,,,,,,,false,,,,,true,359654.69999980927,359654,353852.505,353853.59999990463,353885.748,359663.668,1,40,,
trial,html.Screen,8_12_0,2023-11-29T17:37:12.078Z,,,,2,0.000047919190197942736,0.0462652940855003,,0.05,false,hh,10366.731999856944,response,1.0565911491759823,1.0394767190668672,-1.1618448145542555,1.0221582682700174,1.1354486692402772,-1.1619637057810717,high,high,,ISIC_0011507.JPG,,ISIC_6604862.JPG,33,27,false,0.12,hl,keypress(j),0,true,370030.69999980927,370030.39999985695,359646.927,359654.89999985695,359663.668,370050.518,1,40,13,
sequence,flow.Sequence,8_12,2023-11-29T17:37:12.079Z,,,,,,,,,,,10366.731999856944,completion,,,,,,,high,high,,,,,,,false,,,,,true,370031.19999980927,370030.39999985695,359646.927,359654.89999985695,359663.668,370050.518,1,40,,
trial,html.Screen,8_13_0,2023-11-29T17:37:28.080Z,,,,2,0.0348234368746005,-0.0236866303880924,,0.05,,,16014.587,timeout,1.1181734135756094,1.0394767190668672,-1.1618448145542555,-0.944560381774994,1.1854486692402773,-1.1619637057810717,high,low,,ISIC_0011099.JPG,,ISIC_9688534.JPG,33,26,false,0.28000000000000014,,,0,true,386033.2999999523,386032.7999999523,370017.167,370031.5,370050.518,386065.105,1,40,14,
sequence,flow.Sequence,8_13,2023-11-29T17:37:28.081Z,,,,,,,,,,,15982.281999952334,completion,,,,,,,high,low,,,,,,,false,,,,,true,386033.69999980927,386032.7999999523,370017.167,370031.5,370050.518,386065.105,1,40,,
trial,html.Screen,8_14_0,2023-11-29T17:37:33.062Z,,,,2,0.0409338693593207,-0.0072462710499874,,0.05,false,hh,4949.2949998569675,response,1.057008495826831,1.0394767190668672,-1.1618448145542555,1.1278122585028287,1.1854486692402773,-1.1619637057810717,high,high,,ISIC_3608788.JPG,,ISIC_2819798.JPG,33,31,false,0.13,ll,keypress(f),0,true,391014.69999980927,391014.39999985695,386048.418,386034,386065.105,391024.709,1,40,15,
sequence,flow.Sequence,8_14,2023-11-29T17:37:33.063Z,,,,,,,,,,,4949.2949998569675,completion,,,,,,,high,high,,,,,,,false,,,,,true,391015.2999999523,391014.39999985695,386048.418,386034,386065.105,391024.709,1,40,,
trial,html.Screen,8_15_0,2023-11-29T17:37:40.406Z,,,,2,0.0188047466661863,-0.0288346930436979,,0.05,false,hl,7333.390999904659,response,0.7836356408583546,1.0894767190668673,-1.1618448145542555,-1.1197925594706428,1.1854486692402773,-1.1619637057810717,high,low,,ISIC_0014157.JPG,,ISIC_0024961.JPG,33,26,false,0.31000000000000016,hh,keypress(i),0,true,398358.2999999523,398358.09999990463,391008.028,391015.59999990463,391024.709,398372.383,1,40,16,
sequence,flow.Sequence,8_15,2023-11-29T17:37:40.406Z,,,,,,,,,,,7333.390999904659,completion,,,,,,,high,low,,,,,,,false,,,,,true,398358.89999985695,398358.09999990463,391008.028,391015.5,391024.709,398372.383,1,40,,
trial,html.Screen,8_16_0,2023-11-29T17:37:47.036Z,,,,2,0.0097091270150747,-0.0417921315885292,,0.05,false,hh,6616.016999856976,response,1.131522954199764,1.0894767190668673,-1.1618448145542555,1.1047184491749509,1.1854486692402773,-1.1619637057810717,high,high,,ISIC_3967213.JPG,,ISIC_1868816.JPG,33,29,false,0.13,lh,keypress(e),0,true,404988.59999990463,404988.39999985695,398355.732,398359.09999990463,398372.383,405001.902,1,40,17,
sequence,flow.Sequence,8_16,2023-11-29T17:37:47.036Z,,,,,,,,,,,6616.016999856976,completion,,,,,,,high,high,,,,,,,false,,,,,true,404988.69999980927,404988.39999985695,398355.732,398359.09999990463,398372.383,405001.902,1,40,,
trial,html.Screen,8_17_0,2023-11-29T17:37:51.382Z,,,,2,-0.0085520978188085,0.0464691161264081,,0.05,true,ll,4332.097999999998,response,-1.2181031651370575,1.1394767190668673,-1.1618448145542555,-1.2158573487067317,1.1854486692402773,-1.1619637057810717,low,low,,ISIC_0758797.JPG,,ISIC_7242312.JPG,33,29,false,0.1,ll,keypress(f),0,true,409334.39999985695,409334,404985.184,404988.7999999523,405001.902,409343.676,1,40,18,
sequence,flow.Sequence,8_17,2023-11-29T17:37:51.382Z,,,,,,,,,,,4332.097999999998,completion,,,,,,,low,low,,,,,,,false,,,,,true,409334.89999985695,409334,404985.184,404988.7999999523,405001.902,409343.676,1,40,,
trial,html.Screen,8_18_0,2023-11-29T17:37:58.998Z,,,,2,0.0277178575053843,-0.0395587463147856,,0.05,true,hh,7606.423999904655,response,1.131522954199764,1.1394767190668673,-1.1669802569218946,1.1047184491749509,1.1854486692402773,-1.1619637057810717,high,high,,ISIC_0010807.JPG,,ISIC_1868816.JPG,33,27,false,0.14,hh,keypress(i),0,true,416950.5,416950.09999990463,409327.127,409335.2999999523,409343.676,416958.528,1,40,19,
sequence,flow.Sequence,8_18,2023-11-29T17:37:58.998Z,,,,,,,,,,,7606.423999904655,completion,,,,,,,high,high,,,,,,,false,,,,,true,416951,416950.09999990463,409327.127,409335.09999990463,409343.676,416958.528,1,40,,
trial,html.Screen,8_19_0,2023-11-29T17:38:02.855Z,,,,2,0.0113873532168551,0.0054999201556291,,0.05,false,hh,3847.671999809274,response,1.131522954199764,1.1394767190668673,-1.1669802569218946,1.1047184491749509,1.0681207016873573,-1.1619637057810717,high,high,,ISIC_8812621.JPG,,ISIC_1868816.JPG,33,31,false,0.11,hl,keypress(j),0,true,420806.5,420806.19999980927,416941.789,416951.19999980927,416958.528,420832.73,1,40,20,
sequence,flow.Sequence,8_19,2023-11-29T17:38:02.855Z,,,,,,,,,,,3847.671999809274,completion,,,,,,,high,high,,,,,,,false,,,,,true,420807.09999990463,420806.19999980927,416941.789,416951.19999980927,416958.528,420832.73,1,40,,
trial,html.Screen,8_20_0,2023-11-29T17:38:10.871Z,,,,2,0.0134764727102299,0.0033499036460912,,0.05,false,hl,7989.469999809284,response,1.331700944308701,1.081522954199764,-1.1669802569218946,-0.9395196143259436,1.1181207016873573,-1.1619637057810717,high,low,,ISIC_0009998.JPG,,ISIC_1668831.JPG,33,28,false,0.31000000000000016,lh,keypress(e),0,true,428822.5,428822.19999980927,420799.274,420807.39999985695,420832.73,428848.303,1,40,21,
sequence,flow.Sequence,8_20,2023-11-29T17:38:10.871Z,,,,,,,,,,,7989.469999809284,completion,,,,,,,high,low,,,,,,,false,,,,,true,428823,428822.19999980927,420799.274,420807.19999980927,420832.73,428848.303,1,40,,
trial,html.Screen,8_21_0,2023-11-29T17:38:16.303Z,,,,2,-0.007397293189458,-0.0174716772037504,,0.05,false,lh,5405.696999999986,response,-0.8816288864119318,1.131522954199764,-1.1669802569218946,0.801867301188093,1.1181207016873573,-1.1619637057810717,low,high,,ISIC_0056226.JPG,,ISIC_9196783.JPG,33,27,false,0.3800000000000002,ll,keypress(f),0,true,434254.39999985695,434254,428815.004,428823.19999980927,428848.303,434258.876,1,40,22,
sequence,flow.Sequence,8_21,2023-11-29T17:38:16.303Z,,,,,,,,,,,5405.696999999986,completion,,,,,,,low,high,,,,,,,false,,,,,true,434254.7999999523,434254,428815.004,428823.09999990463,428848.303,434258.876,1,40,,
trial,html.Screen,8_22_0,2023-11-29T17:38:25.055Z,,,,2,0.0362376068089956,0.047825070846155,,0.05,false,hh,8747.52399985696,response,1.2012395086389958,1.131522954199764,-1.1669802569218946,1.0618985767073823,1.1681207016873574,-1.1619637057810717,high,high,,ISIC_6985114.JPG,,ISIC_9876004.JPG,33,27,false,0.14,lh,keypress(e),0,true,443006.69999980927,443006.39999985695,434242.397,434255,434258.876,443009.332,1,40,23,
sequence,flow.Sequence,8_22,2023-11-29T17:38:25.056Z,,,,,,,,,,,8747.52399985696,completion,,,,,,,high,high,,,,,,,false,,,,,true,443007.19999980927,443006.39999985695,434242.397,434255,434258.876,443009.332,1,40,,
trial,html.Screen,8_23_0,2023-11-29T17:38:28.231Z,,,,2,0.000047919190197942736,0.0462652940855003,,0.05,false,ll,3172.668000000005,response,-1.2181031651370575,1.181522954199764,-1.1669802569218946,-1.2158573487067317,1.1681207016873574,-1.1619637057810717,low,low,,ISIC_0011507.JPG,,ISIC_7242312.JPG,33,31,false,0.1,lh,keypress(e),0,true,446182.39999985695,446182,442992.728,443007.59999990463,443009.332,446232.173,1,40,24,
sequence,flow.Sequence,8_23,2023-11-29T17:38:28.231Z,,,,,,,,,,,3172.668000000005,completion,,,,,,,low,low,,,,,,,false,,,,,true,446182.89999985695,446182,442992.728,443007.5,443009.332,446232.173,1,40,,
trial,html.Screen,8_24_0,2023-11-29T17:38:44.263Z,,,,2,-0.0050679133050021,0.0009714874637896,,0.05,,,16031.448999999964,timeout,1.1181734135756094,1.181522954199764,-1.1169802569218945,-0.944560381774994,1.1681207016873574,-1.1619637057810717,high,low,,ISIC_9848743.JPG,,ISIC_9688534.JPG,33,25,false,0.3300000000000002,,,0,true,462214.69999980927,462214.2999999523,446182.304,446183.09999990463,446232.173,462263.622,1,40,25,
sequence,flow.Sequence,8_24,2023-11-29T17:38:44.264Z,,,,,,,,,,,15982.126999952307,completion,,,,,,,high,low,,,,,,,false,,,,,true,462215.09999990463,462214.2999999523,446182.304,446183,446232.173,462263.622,1,40,,
trial,html.Screen,8_25_0,2023-11-29T17:38:48.727Z,,,,2,0.0051189696037511,-0.0396625911332438,,0.05,false,lh,4414.378000000026,response,-0.796241477082623,1.181522954199764,-1.1169802569218945,0.9017449335975743,1.1681207016873574,-1.1619637057810717,low,high,,ISIC_9742891.JPG,,ISIC_8588033.JPG,33,28,false,0.3800000000000002,ll,keypress(f),0,true,466678.2999999523,466678,462246.672,462215.39999985695,462263.622,466688.66,1,40,26,
sequence,flow.Sequence,8_25,2023-11-29T17:38:48.727Z,,,,,,,,,,,4414.378000000026,completion,,,,,,,low,high,,,,,,,false,,,,,true,466678.89999985695,466678,462246.672,462215.39999985695,462263.622,466688.66,1,40,,
trial,html.Screen,8_26_0,2023-11-29T17:38:54.623Z,,,,2,-0.0069555338059566,0.0310100918136373,,0.05,true,hl,5885.439999904658,response,1.2364994561934892,1.181522954199764,-1.1169802569218945,-0.9174173651516624,1.1681207016873574,-1.1619637057810717,high,low,,ISIC_0011177.JPG,,ISIC_3481133.JPG,33,25,false,0.3300000000000002,hl,keypress(j),0,true,472574.5,472574.09999990463,466672.028,466679.09999990463,466688.66,472600.128,1,40,27,
sequence,flow.Sequence,8_26,2023-11-29T17:38:54.623Z,,,,,,,,,,,5885.439999904658,completion,,,,,,,high,low,,,,,,,false,,,,,true,472574.89999985695,472574.09999990463,466672.028,466679.09999990463,466688.66,472600.128,1,40,,
trial,html.Screen,8_27_0,2023-11-29T17:38:58.567Z,,,,2,-0.0057914759495055,-0.0074667911845194,,0.05,false,lh,3917.871999999974,response,-1.0264463986917702,1.181522954199764,-1.1169802569218945,1.2804054832904397,1.1681207016873574,-1.1619637057810717,low,high,,ISIC_0058723.JPG,,ISIC_7889838.JPG,33,28,false,0.3800000000000002,ll,keypress(f),0,true,476518.2999999523,476518,472566.73,472575.19999980927,472600.128,476524.467,1,40,28,
sequence,flow.Sequence,8_27,2023-11-29T17:38:58.567Z,,,,,,,,,,,3917.871999999974,completion,,,,,,,low,high,,,,,,,false,,,,,true,476518.7999999523,476518,472566.73,472575.09999990463,472600.128,476524.467,1,40,,
trial,html.Screen,8_28_0,2023-11-29T17:39:02.375Z,,,,2,-0.0070725527271049,-0.0049995141077508,,0.05,true,ll,3800.732999809261,response,-0.9787884514439864,1.181522954199764,-0.9219318819217163,-1.139528725910855,1.1681207016873574,-1.1619637057810717,low,low,,ISIC_6124481.JPG,,ISIC_0032726.JPG,33,28,false,0.1,ll,keypress(f),0,true,480325.39999985695,480325.19999980927,476507.891,476519,476524.467,480331.853,1,40,29,
sequence,flow.Sequence,8_28,2023-11-29T17:39:02.375Z,,,,,,,,,,,3800.732999809261,completion,,,,,,,low,low,,,,,,,false,,,,,true,480325.69999980927,480325.19999980927,476507.891,476519,476524.467,480331.853,1,40,,
trial,html.Screen,8_29_0,2023-11-29T17:39:05.160Z,,,,2,0.0362376068089956,0.047825070846155,,0.05,true,hh,2778.546999856946,response,1.0858641668099058,1.181522954199764,-0.9219318819217163,1.1638942560200525,1.1681207016873574,-1.0091585886774206,high,high,,ISIC_6985114.JPG,,ISIC_5439597.JPG,33,26,false,0.14,hh,keypress(i),0,true,483110.69999980927,483110.39999985695,480315.345,480325.7999999523,480331.853,483120.645,1,40,30,
sequence,flow.Sequence,8_29,2023-11-29T17:39:05.161Z,,,,,,,,,,,2778.546999856946,completion,,,,,,,high,high,,,,,,,false,,,,,true,483111.19999980927,483110.39999985695,480315.345,480325.7999999523,480331.853,483120.645,1,40,,
trial,html.Screen,8_30_0,2023-11-29T17:39:07.032Z,,,,2,-0.0456515796420274,0.0273567130070961,,0.05,false,hl,1861.1549999522977,response,0.8579451262594331,1.0748792114149792,-0.9219318819217163,-0.9633172970727744,1.1681207016873574,-1.0091585886774206,high,low,,ISIC_0068610.JPG,,ISIC_0067172.JPG,33,26,false,0.2300000000000001,hh,keypress(i),0,true,484982,484981.7999999523,483104.196,483111.5,483120.645,484990.959,1,40,31,
sequence,flow.Sequence,8_30,2023-11-29T17:39:07.032Z,,,,,,,,,,,1861.1549999522977,completion,,,,,,,high,low,,,,,,,false,,,,,true,484982.5,484981.7999999523,483104.196,483111.39999985695,483120.645,484990.959,1,40,,
trial,html.Screen,8_31_0,2023-11-29T17:39:13.296Z,,,,2,0.0097091270150747,-0.0417921315885292,,0.05,false,hh,6255.240999809292,response,1.057008495826831,1.0748792114149792,-0.9219318819217163,1.1278122585028287,1.1681207016873574,-1.0591585886774206,high,high,,ISIC_3967213.JPG,,ISIC_2819798.JPG,33,29,false,0.13,ll,keypress(f),0,true,491246.59999990463,491246.19999980927,484974.369,484982.69999980927,484990.959,491269.832,1,40,32,
sequence,flow.Sequence,8_31,2023-11-29T17:39:13.297Z,,,,,,,,,,,6255.240999809292,completion,,,,,,,high,high,,,,,,,false,,,,,true,491247.19999980927,491246.19999980927,484974.369,484982.59999990463,484990.959,491269.832,1,40,,
trial,html.Screen,8_32_0,2023-11-29T17:39:18.632Z,,,,2,0.0134764727102299,0.0033499036460912,,0.05,false,lh,5312.467999952321,response,-0.7833710010171356,1.1248792114149793,-0.9219318819217163,0.9315588090336896,1.1681207016873574,-1.0591585886774206,low,high,,ISIC_0009998.JPG,,ISIC_3826102.JPG,33,26,false,0.29000000000000015,hh,keypress(i),0,true,496582.69999980927,496582.2999999523,491236.455,491247.39999985695,491269.832,496596.948,1,40,33,
sequence,flow.Sequence,8_32,2023-11-29T17:39:18.633Z,,,,,,,,,,,5312.467999952321,completion,,,,,,,low,high,,,,,,,false,,,,,true,496583.19999980927,496582.2999999523,491236.455,491247.19999980927,491269.832,496596.948,1,40,,
trial,html.Screen,8_33_0,2023-11-29T17:39:26.976Z,,,,2,0.0051189696037511,-0.0396625911332438,,0.05,true,ll,8329.351999952341,response,-1.0130095662293503,1.1248792114149793,-0.9719318819217163,-1.098939882801048,1.1681207016873574,-1.0591585886774206,low,low,,ISIC_9742891.JPG,,ISIC_0059897.JPG,33,39,false,0.1,ll,keypress(f),0,true,504926.59999990463,504926.2999999523,496580.391,496583.5,496596.948,504946.452,1,40,34,
sequence,flow.Sequence,8_33,2023-11-29T17:39:26.977Z,,,,,,,,,,,8329.351999952341,completion,,,,,,,low,low,,,,,,,false,,,,,true,504927.19999980927,504926.2999999523,496580.391,496583.39999985695,496596.948,504946.452,1,40,,
trial,html.Screen,8_34_0,2023-11-29T17:39:30.319Z,,,,2,0.0409338693593207,-0.0072462710499874,,0.05,false,hl,3322.54800000001,response,0.8860551570327019,1.1248792114149793,-0.9719318819217163,-0.8067116931297591,1.1681207016873574,-1.0591585886774206,high,low,,ISIC_3608788.JPG,,ISIC_1457687.JPG,33,26,false,0.27000000000000013,hh,keypress(i),0,true,508269.09999990463,508269,504912.965,504927.5,504946.452,508286.274,1,40,35,
sequence,flow.Sequence,8_34,2023-11-29T17:39:30.319Z,,,,,,,,,,,3322.54800000001,completion,,,,,,,high,low,,,,,,,false,,,,,true,508269.2999999523,508269,504912.965,504927.2999999523,504946.452,508286.274,1,40,,
trial,html.Screen,8_35_0,2023-11-29T17:39:35.816Z,,,,2,-0.0363437082783146,-0.0333332186217051,,0.05,true,lh,5479.726000000024,response,-0.6629163102028129,1.1248792114149793,-0.9719318819217163,1.2268098550740514,1.1681207016873574,-1.1091585886774207,low,high,,ISIC_3314555.JPG,,ISIC_9562157.JPG,33,25,false,0.3200000000000002,lh,keypress(e),0,true,513766.2999999523,513766,508253.109,508269.39999985695,508286.274,513780.323,1,40,36,
sequence,flow.Sequence,8_35,2023-11-29T17:39:35.816Z,,,,,,,,,,,5479.726000000024,completion,,,,,,,low,high,,,,,,,false,,,,,true,513766.89999985695,513766,508253.109,508269.2999999523,508286.274,513780.323,1,40,,
trial,html.Screen,8_36_0,2023-11-29T17:39:40.966Z,,,,2,-0.0116094682222121,0.0258434522530318,,0.05,false,lh,5136.476999952341,response,-0.7468996036626098,1.1248792114149793,-0.9219318819217163,0.8073835700282378,1.0064325060533765,-1.1091585886774207,low,high,,ISIC_9239632.JPG,,ISIC_5335139.JPG,33,29,false,0.22000000000000008,ll,keypress(f),0,true,518916.89999985695,518916.7999999523,513763.836,513767.09999990463,513780.323,518923.666,1,40,37,
sequence,flow.Sequence,8_36,2023-11-29T17:39:40.967Z,,,,,,,,,,,5136.476999952341,completion,,,,,,,low,high,,,,,,,false,,,,,true,518917,518916.7999999523,513763.836,513767,513780.323,518923.666,1,40,,
trial,html.Screen,8_37_0,2023-11-29T17:39:44.856Z,,,,2,0.0051189696037511,-0.0396625911332438,,0.05,true,hl,3882.3339999999735,response,0.9579209317488,1.1248792114149793,-0.9219318819217163,-1.0147487101263497,1.0564325060533766,-1.1091585886774207,high,low,,ISIC_9742891.JPG,,ISIC_8124482.JPG,33,25,false,0.28000000000000014,hl,keypress(j),0,true,522806.2999999523,522806,518907.199,518917.09999990463,518923.666,522814.577,1,40,38,
sequence,flow.Sequence,8_37,2023-11-29T17:39:44.856Z,,,,,,,,,,,3882.3339999999735,completion,,,,,,,high,low,,,,,,,false,,,,,true,522806.7999999523,522806,518907.199,518917.09999990463,518923.666,522814.577,1,40,,
trial,html.Screen,8_38_0,2023-11-29T17:39:49.118Z,,,,2,0.0362376068089956,0.047825070846155,,0.05,true,ll,4254.122999809275,response,-1.0088070132449485,1.0748792114149792,-0.9219318819217163,-1.0292526683018866,1.0564325060533766,-1.1091585886774207,low,low,,ISIC_6985114.JPG,,ISIC_0059314.JPG,33,36,false,0.1,ll,keypress(f),0,true,527068.899999857,527068.6999998093,522797.856,522807.09999990463,522814.577,527072.858,1,40,39,
sequence,flow.Sequence,8_38,2023-11-29T17:39:49.118Z,,,,,,,,,,,4254.122999809275,completion,,,,,,,low,low,,,,,,,false,,,,,true,527069,527068.6999998093,522797.856,522807,522814.577,527072.858,1,40,,
trial,html.Screen,8_39_0,2023-11-29T17:39:53.880Z,,,,2,-0.0027483411352856,-0.0100996915276271,,0.05,true,ll,4757.341999809258,response,-0.9262674596267249,1.0748792114149792,-0.972000689214118,-1.0275767908572495,1.0564325060533766,-0.972000689214118,low,low,,ISIC_7364041.JPG,,ISIC_5415749.JPG,33,46,false,0.1,ll,keypress(f),0,true,531830.5,531830.1999998093,527056.286,527069,527072.858,531865.776,1,40,40,
sequence,flow.Sequence,8_39,2023-11-29T17:39:53.880Z,,,,,,,,,,,4757.341999809258,completion,,,,,,,low,low,,,,,,,false,,,,,true,531830.899999857,531830.1999998093,527056.286,527069,527072.858,531865.776,1,40,,
stair_loop,flow.Loop,8,2023-11-29T17:39:53.881Z,,,,,,,,,,,248364.82899980928,completion,,,,,,,,,,,,,,,false,,,,,true,531831.1999998093,531830.1999998093,283448.657,283436.5,283465.371,531865.776,1,40,,
exp_instructions,html.Screen,9,2023-11-29T17:40:06.313Z,,,,,,,,,,,12396.023999952362,response,,,,,,,,,,,,,,,,,continue,keypress(Space),,,544262.5999999046,544261.7999999523,531849.022,531831.399999857,531865.776,544289.901,,,,
trial,html.Screen,10_0_0,2023-11-29T17:40:11.350Z,,,,1,-0.0217698886732706,0.0410870915161425,,0.05,true,ll,5010.298999809311,response,-1.0678895386758027,1.1332010828073715,-1.0199546722864077,-1.0279759018569252,1.138283062560561,-1.1060629964008981,low,low,,ISIC_0072173.JPG,9,ISIC_0069933.JPG,33,31,false,0.1,ll,keypress(f),0,false,549300.2999999523,549300.1999998093,544273.023,544263,544289.901,549316.329,5,600,1,
break,html.Screen,10_0_1,2023-11-29T17:40:11.351Z,,,,,,,,,,,NaN,,,,,,,,low,low,,,,,,,false,,,,,false,549300.6999998093,549300.5999999046,,549300.399999857,,549316.329,5,600,,
break_continue,html.Screen,10_0_2,2023-11-29T17:40:11.351Z,,,,,,,,,,,NaN,,,,,,,,low,low,,,,,,,false,,,,,false,549300.899999857,549300.899999857,,549300.7999999523,,549316.329,5,600,,
sequence,flow.Sequence,10_0,2023-11-29T17:40:11.351Z,,,,,,,,,,,5010.9989998569945,completion,,,,,,,low,low,,,,,,,false,,,,,false,549301.0999999046,549300.899999857,544273.023,544263,544289.901,549316.329,5,600,,
trial,html.Screen,10_1_0,2023-11-29T17:40:15.512Z,,,,1,0.0409338693593207,-0.0072462710499874,,0.05,true,hh,4145.570999856922,response,1.1210325063849345,1.1332010828073715,-1.0199546722864077,1.1498648320956202,1.138283062560561,-1.1060629964008981,high,high,,ISIC_3608788.JPG,9,ISIC_0032162.JPG,33,26,false,0.12,hh,keypress(i),0,false,553462.2999999523,553461.899999857,549299.669,549301.0999999046,549316.329,553474.332,5,600,2,
break,html.Screen,10_1_1,2023-11-29T17:40:15.514Z,,,,,,,,,,,NaN,,,,,,,,high,high,,,,,,,false,,,,,false,553463.6999998093,553463.1999998093,,553462.5999999046,,553474.332,5,600,,
break_continue,html.Screen,10_1_2,2023-11-29T17:40:15.515Z,,,,,,,,,,,NaN,,,,,,,,high,high,,,,,,,false,,,,,false,553465,553464.5999999046,,553464.0999999046,,553474.332,5,600,,
sequence,flow.Sequence,10_1,2023-11-29T17:40:15.515Z,,,,,,,,,,,4148.270999904606,completion,,,,,,,high,high,,,,,,,false,,,,,false,553465.2999999523,553464.5999999046,549299.669,549301.0999999046,549316.329,553474.332,5,600,,
trial,html.Screen,10_2_0,2023-11-29T17:40:22.297Z,,,,1,-0.0057914759495055,-0.0074667911845194,,0.05,false,ll,6772.067999856896,response,-1.0910404089869363,1.1332010828073715,-1.0199546722864077,-1.119702461098404,1.138283062560561,-1.1060629964008981,low,low,,ISIC_0058723.JPG,9,ISIC_0067097.JPG,33,31,false,0.1,hl,keypress(j),0,false,560246.7999999523,560246.399999857,553457.771,553465.5,553474.332,560254.118,5,600,3,
break,html.Screen,10_2_1,2023-11-29T17:40:22.298Z,,,,,,,,,,,NaN,,,,,,,,low,low,,,,,,,false,,,,,false,560248,560247.6999998093,,560247.1999998093,,560254.118,5,600,,
break_continue,html.Screen,10_2_2,2023-11-29T17:40:22.299Z,,,,,,,,,,,NaN,,,,,,,,low,low,,,,,,,false,,,,,false,560248.7999999523,560248.5,,560248.2999999523,,560254.118,5,600,,
sequence,flow.Sequence,10_2,2023-11-29T17:40:22.299Z,,,,,,,,,,,6774.167999999947,completion,,,,,,,low,low,,,,,,,false,,,,,false,560249.0999999046,560248.5,553457.771,553465.5,553474.332,560254.118,5,600,,
trial,html.Screen,10_3_0,2023-11-29T17:40:26.552Z,,,,1,0,0.0264544974620926,,0.05,true,hh,4247.581999809248,response,1.241406480986552,1.1332010828073715,-1.0199546722864077,1.081912821786771,1.138283062560561,-1.1060629964008981,high,high,,ISIC_0056991.JPG,10,ISIC_4223155.JPG,33,26,false,0.12,hh,keypress(i),0,false,564502.0999999046,564501.6999998093,560237.513,560249.399999857,560254.118,564529.095,5,600,4,
break,html.Screen,10_3_1,2023-11-29T17:40:26.553Z,,,,,,,,,,,NaN,,,,,,,,high,high,,,,,,,false,,,,,false,564503.1999998093,564503,,564502.5,,564529.095,5,600,,
break_continue,html.Screen,10_3_2,2023-11-29T17:40:26.554Z,,,,,,,,,,,NaN,,,,,,,,high,high,,,,,,,false,,,,,false,564504,564503.6999998093,,564503.399999857,,564529.095,5,600,,
sequence,flow.Sequence,10_3,2023-11-29T17:40:26.554Z,,,,,,,,,,,4249.581999809248,completion,,,,,,,high,high,,,,,,,false,,,,,false,564504.2999999523,564503.6999998093,560237.513,560249.2999999523,560254.118,564529.095,5,600,,
trial,html.Screen,10_4_0,2023-11-29T17:40:32.216Z,,,,1,0.0277178575053843,-0.0395587463147856,,0.05,false,lh,5636.604999809293,response,-0.705042352333099,1.1332010828073715,-1.0199546722864077,0.9127244278050396,1.138283062560561,-1.1060629964008981,low,high,,ISIC_0010807.JPG,10,ISIC_0787229.JPG,33,25,false,0.3300000000000002,hh,keypress(i),0,false,570166,570165.6999998093,564495.952,564504.5,564529.095,570190.364,5,600,5,
break,html.Screen,10_4_1,2023-11-29T17:40:32.217Z,,,,,,,,,,,NaN,,,,,,,,low,high,,,,,,,false,,,,,false,570166.899999857,570166.6999998093,,570166.2999999523,,570190.364,5,600,,
break_continue,html.Screen,10_4_2,2023-11-29T17:40:32.218Z,,,,,,,,,,,NaN,,,,,,,,low,high,,,,,,,false,,,,,false,570167.6999998093,570167.5,,570167.1999998093,,570190.364,5,600,,
sequence,flow.Sequence,10_4,2023-11-29T17:40:32.218Z,,,,,,,,,,,5638.405000000028,completion,,,,,,,low,high,,,,,,,false,,,,,false,570168,570167.5,564495.952,564504.399999857,564529.095,570190.364,5,600,,
trial,html.Screen,10_5_0,2023-11-29T17:40:35.544Z,,,,1,0.0134764727102299,0.0033499036460912,,0.05,true,ll,3302.935999952373,response,-0.9562051868665176,1.1332010828073715,-1.0199546722864077,-1.110797661774712,1.138283062560561,-1.1060629964008981,low,low,,ISIC_0009998.JPG,9,ISIC_0061199.JPG,33,31,false,0.1,ll,keypress(f),0,false,573493.5,573493.2999999523,570173.434,570168.2999999523,570190.364,573513.252,5,600,6,
break,html.Screen,10_5_1,2023-11-29T17:40:35.544Z,,,,,,,,,,,NaN,,,,,,,,low,low,,,,,,,false,,,,,false,573494.1999998093,573494,,573493.7999999523,,573513.252,5,600,,
break_continue,html.Screen,10_5_2,2023-11-29T17:40:35.545Z,,,,,,,,,,,NaN,,,,,,,,low,low,,,,,,,false,,,,,false,573494.5999999046,573494.5,,573494.2999999523,,573513.252,5,600,,
sequence,flow.Sequence,10_5,2023-11-29T17:40:35.545Z,,,,,,,,,,,3304.136000000057,completion,,,,,,,low,low,,,,,,,false,,,,,false,573494.7999999523,573494.5,570173.434,570168.1999998093,570190.364,573513.252,5,600,,
trial,html.Screen,10_6_0,2023-11-29T17:40:43.167Z,,,,1,0.0113873532168551,0.0054999201556291,,0.05,false,lh,7603.64799985697,response,-1.0264463986917702,1.1332010828073715,-1.0199546722864077,1.2804054832904397,1.138283062560561,-1.1060629964008981,low,high,,ISIC_8812621.JPG,22,ISIC_7889838.JPG,33,25,false,0.3300000000000002,hl,keypress(j),0,false,581117,581116.899999857,573480.112,573495,573513.252,581128.053,5,600,7,
break,html.Screen,10_6_1,2023-11-29T17:40:43.167Z,,,,,,,,,,,NaN,,,,,,,,low,high,,,,,,,false,,,,,false,581117.2999999523,581117.1999998093,,581117,,581128.053,5,600,,
break_continue,html.Screen,10_6_2,2023-11-29T17:40:43.168Z,,,,,,,,,,,NaN,,,,,,,,low,high,,,,,,,false,,,,,false,581117.5999999046,581117.5,,581117.399999857,,581128.053,5,600,,
sequence,flow.Sequence,10_6,2023-11-29T17:40:43.168Z,,,,,,,,,,,7604.248000000021,completion,,,,,,,low,high,,,,,,,false,,,,,false,581117.5999999046,581117.5,573480.112,573494.899999857,573513.252,581128.053,5,600,,
trial,html.Screen,10_7_0,2023-11-29T17:40:50.193Z,,,,1,0.0277178575053843,-0.0395587463147856,,0.05,false,lh,7014.24699995236,response,-0.809764442462202,1.1332010828073715,-1.0199546722864077,1.005337148078696,1.138283062560561,-1.1060629964008981,low,high,,ISIC_0010807.JPG,8,ISIC_2379379.JPG,33,25,false,0.3300000000000002,hh,keypress(i),0,false,588142.6999998093,588142.2999999523,581111.382,581117.7999999523,581128.053,588158.465,5,600,8,
break,html.Screen,10_7_1,2023-11-29T17:40:50.194Z,,,,,,,,,,,NaN,,,,,,,,low,high,,,,,,,false,,,,,false,588143.899999857,588143.5999999046,,588143.0999999046,,588158.465,5,600,,
break_continue,html.Screen,10_7_2,2023-11-29T17:40:50.195Z,,,,,,,,,,,NaN,,,,,,,,low,high,,,,,,,false,,,,,false,588144.6999998093,588144.5,,588144.1999998093,,588158.465,5,600,,
sequence,flow.Sequence,10_7,2023-11-29T17:40:50.195Z,,,,,,,,,,,7016.447000000044,completion,,,,,,,low,high,,,,,,,false,,,,,false,588145,588144.5,581111.382,581117.6999998093,581128.053,588158.465,5,600,,
trial,html.Screen,10_8_0,2023-11-29T17:40:52.655Z,,,,1,-0.0057914759495055,-0.0074667911845194,,0.05,true,ll,2446.134999904665,response,-1.101214461533281,1.1332010828073715,-1.0199546722864077,-1.1849883512428183,1.138283062560561,-1.1060629964008981,low,low,,ISIC_0058723.JPG,9,ISIC_0064943.JPG,33,31,false,0.1,ll,keypress(f),0,false,590604.6999998093,590604.5999999046,588141.916,588145.1999998093,588158.465,590613.198,5,600,9,
break,html.Screen,10_8_1,2023-11-29T17:40:52.655Z,,,,,,,,,,,NaN,,,,,,,,low,low,,,,,,,false,,,,,false,590605.0999999046,590605,,590604.899999857,,590613.198,5,600,,
break_continue,html.Screen,10_8_2,2023-11-29T17:40:52.655Z,,,,,,,,,,,NaN,,,,,,,,low,low,,,,,,,false,,,,,false,590605.399999857,590605.2999999523,,590605.2999999523,,590613.198,5,600,,
sequence,flow.Sequence,10_8,2023-11-29T17:40:52.655Z,,,,,,,,,,,2446.834999952349,completion,,,,,,,low,low,,,,,,,false,,,,,false,590605.399999857,590605.2999999523,588141.916,588145.0999999046,588158.465,590613.198,5,600,,
trial,html.Screen,10_9_0,2023-11-29T17:40:55.745Z,,,,1,-0.039728379742806,0.0228701131373768,,0.05,true,hh,3081.1019999523414,response,1.1137763092539212,1.1332010828073715,-1.0199546722864077,1.1599906701455132,1.138283062560561,-1.1060629964008981,high,high,,ISIC_0054073.JPG,8,ISIC_5413788.JPG,33,26,false,0.12,hh,keypress(i),0,false,593694.5999999046,593694.2999999523,590596.743,590605.5,590613.198,593702.559,5,600,10,
break,html.Screen,10_9_1,2023-11-29T17:40:55.746Z,,,,,,,,,,,NaN,,,,,,,,high,high,,,,,,,false,,,,,false,593695.899999857,593695.5999999046,,593695.0999999046,,593702.559,5,600,,
break_continue,html.Screen,10_9_2,2023-11-29T17:40:55.747Z,,,,,,,,,,,NaN,,,,,,,,high,high,,,,,,,false,,,,,false,593696.7999999523,593696.5,,593696.1999998093,,593702.559,5,600,,
sequence,flow.Sequence,10_9,2023-11-29T17:40:55.747Z,,,,,,,,,,,3083.302000000025,completion,,,,,,,high,high,,,,,,,false,,,,,false,593697.0999999046,593696.5,590596.743,590605.5,590613.198,593702.559,5,600,,
trial,html.Screen,10_10_0,2023-11-29T17:40:57.864Z,,,,1,-0.0070725527271049,-0.0049995141077508,,0.05,true,hh,2111.3409998569405,response,1.2503149164557643,1.1332010828073715,-1.0199546722864077,1.0796591227570405,1.138283062560561,-1.1060629964008981,high,high,,ISIC_6124481.JPG,9,ISIC_2466892.JPG,33,26,false,0.12,hh,keypress(i),0,false,595814.2999999523,595813.899999857,593685.888,593697.2999999523,593702.559,595823.358,5,600,11,
break,html.Screen,10_10_1,2023-11-29T17:40:57.866Z,,,,,,,,,,,NaN,,,,,,,,high,high,,,,,,,false,,,,,false,595815.5999999046,595815.2999999523,,595814.6999998093,,595823.358,5,600,,
break_continue,html.Screen,10_10_2,2023-11-29T17:40:57.866Z,,,,,,,,,,,NaN,,,,,,,,high,high,,,,,,,false,,,,,false,595816.399999857,595816.0999999046,,595815.7999999523,,595823.358,5,600,,
sequence,flow.Sequence,10_10,2023-11-29T17:40:57.867Z,,,,,,,,,,,2113.540999904624,completion,,,,,,,high,high,,,,,,,false,,,,,false,595816.6999998093,595816.0999999046,593685.888,593697.2999999523,593702.559,595823.358,5,600,,
trial,html.Screen,10_11_0,2023-11-29T17:40:59.561Z,,,,1,0.0245376145053177,-0.0436993426328401,,0.05,false,hl,1686.8419998092577,response,1.0751036484083878,1.1332010828073715,-1.0199546722864077,-1.143906455483852,1.138283062560561,-1.1060629964008981,high,low,,ISIC_0056444.JPG,9,ISIC_0064406.JPG,33,25,false,0.29000000000000015,ll,keypress(f),0,false,597510.5,597510.1999998093,595806.852,595817,595823.358,597526.67,5,600,12,
break,html.Screen,10_11_1,2023-11-29T17:40:59.562Z,,,,,,,,,,,NaN,,,,,,,,high,low,,,,,,,false,,,,,false,597511.6999998093,597511.399999857,,597510.899999857,,597526.67,5,600,,
break_continue,html.Screen,10_11_2,2023-11-29T17:40:59.563Z,,,,,,,,,,,NaN,,,,,,,,high,low,,,,,,,false,,,,,false,597512.5,597512.2999999523,,597512.0999999046,,597526.67,5,600,,
sequence,flow.Sequence,10_11,2023-11-29T17:40:59.563Z,,,,,,,,,,,1688.9419999523088,completion,,,,,,,high,low,,,,,,,false,,,,,false,597512.899999857,597512.2999999523,595806.852,595816.899999857,595823.358,597526.67,5,600,,
trial,html.Screen,10_12_0,2023-11-29T17:41:05.282Z,,,,1,0.0102460616775615,-0.0309670599545429,,0.05,false,hl,5703.329999999958,response,0.8979276789594874,1.1332010828073715,-1.0199546722864077,-0.925374811016654,1.138283062560561,-1.1060629964008981,high,low,,ISIC_0072041.JPG,9,ISIC_4208361.JPG,33,25,false,0.29000000000000015,hh,keypress(i),0,false,603230.2999999523,603230,597510.155,597513.0999999046,597526.67,603254.491,5,600,13,
break,html.Screen,10_12_1,2023-11-29T17:41:05.283Z,,,,,,,,,,,NaN,,,,,,,,high,low,,,,,,,false,,,,,false,603231.1999998093,603231,,603230.5999999046,,603254.491,5,600,,
break_continue,html.Screen,10_12_2,2023-11-29T17:41:05.284Z,,,,,,,,,,,NaN,,,,,,,,high,low,,,,,,,false,,,,,false,603231.7999999523,603231.5999999046,,603231.399999857,,603254.491,5,600,,
sequence,flow.Sequence,10_12,2023-11-29T17:41:05.284Z,,,,,,,,,,,5704.929999904591,completion,,,,,,,high,low,,,,,,,false,,,,,false,603232.0999999046,603231.5999999046,597510.155,597513,597526.67,603254.491,5,600,,
trial,html.Screen,10_13_0,2023-11-29T17:41:08.018Z,,,,1,-0.0070725527271049,-0.0049995141077508,,0.05,false,hl,2711.6089999045944,response,1.331700944308701,1.1332010828073715,-1.0199546722864077,-0.9395196143259436,1.138283062560561,-1.1060629964008981,high,low,,ISIC_6124481.JPG,8,ISIC_1668831.JPG,33,25,false,0.29000000000000015,ll,keypress(f),0,false,605966.399999857,605966.0999999046,603221.337,603232.1999998093,603254.491,605976.452,5,600,14,
break,html.Screen,10_13_1,2023-11-29T17:41:08.019Z,,,,,,,,,,,NaN,,,,,,,,high,low,,,,,,,false,,,,,false,605967.5,605967.2999999523,,605966.7999999523,,605976.452,5,600,,
break_continue,html.Screen,10_13_2,2023-11-29T17:41:08.020Z,,,,,,,,,,,NaN,,,,,,,,high,low,,,,,,,false,,,,,false,605968.2999999523,605968,,605967.7999999523,,605976.452,5,600,,
sequence,flow.Sequence,10_13,2023-11-29T17:41:08.020Z,,,,,,,,,,,2713.508999999962,completion,,,,,,,high,low,,,,,,,false,,,,,false,605968.5,605968,603221.337,603232.1999998093,603254.491,605976.452,5,600,,
trial,html.Screen,10_14_0,2023-11-29T17:41:14.569Z,,,,1,-0.0070725527271049,-0.0049995141077508,,0.05,false,hl,6540.347999952268,response,1.020990671779317,1.1332010828073715,-1.0199546722864077,-1.0116513850520903,1.138283062560561,-1.1060629964008981,high,low,,ISIC_6124481.JPG,9,ISIC_0011995.JPG,33,25,false,0.29000000000000015,hh,keypress(i),0,false,612516.899999857,612516.7999999523,605959.983,605968.7999999523,605976.452,612539.224,5,600,15,
break,html.Screen,10_14_1,2023-11-29T17:41:14.569Z,,,,,,,,,,,NaN,,,,,,,,high,low,,,,,,,false,,,,,false,612517.2999999523,612517.1999998093,,612517.0999999046,,612539.224,5,600,,
break_continue,html.Screen,10_14_2,2023-11-29T17:41:14.569Z,,,,,,,,,,,NaN,,,,,,,,high,low,,,,,,,false,,,,,false,612517.5999999046,612517.5,,612517.5,,612539.224,5,600,,
sequence,flow.Sequence,10_14,2023-11-29T17:41:14.569Z,,,,,,,,,,,6541.047999999952,completion,,,,,,,high,low,,,,,,,false,,,,,false,612517.5999999046,612517.5,605959.983,605968.5999999046,605976.452,612539.224,5,600,,
trial,html.Screen,10_15_0,2023-11-29T17:41:20.827Z,,,,1,-0.039728379742806,0.0228701131373768,,0.05,false,lh,6235.275999999954,response,-0.7870237732709365,1.1332010828073715,-1.0199546722864077,0.9172955251119376,1.138283062560561,-1.1060629964008981,low,high,,ISIC_0054073.JPG,9,ISIC_0057716.JPG,33,25,false,0.3300000000000002,hl,keypress(j),0,false,618774.899999857,618774.5,612505.947,612517.7999999523,612539.224,618784.697,5,600,16,
break,html.Screen,10_15_1,2023-11-29T17:41:20.828Z,,,,,,,,,,,NaN,,,,,,,,low,high,,,,,,,false,,,,,false,618776.0999999046,618775.7999999523,,618775.2999999523,,618784.697,5,600,,
break_continue,html.Screen,10_15_2,2023-11-29T17:41:20.829Z,,,,,,,,,,,NaN,,,,,,,,low,high,,,,,,,false,,,,,false,618776.899999857,618776.5999999046,,618776.399999857,,618784.697,5,600,,
sequence,flow.Sequence,10_15,2023-11-29T17:41:20.829Z,,,,,,,,,,,6237.375999904587,completion,,,,,,,low,high,,,,,,,false,,,,,false,618777.1999998093,618776.5999999046,612505.947,612517.6999998093,612539.224,618784.697,5,600,,
trial,html.Screen,10_16_0,2023-11-29T17:41:25.723Z,,,,1,-0.0069555338059566,0.0310100918136373,,0.05,true,ll,4885.702999856905,response,-1.101214461533281,1.1332010828073715,-1.0199546722864077,-1.1849883512428183,1.138283062560561,-1.1060629964008981,low,low,,ISIC_0011177.JPG,9,ISIC_0064943.JPG,33,31,false,0.1,ll,keypress(f),0,false,623670.7999999523,623670.399999857,618768.07,618777.399999857,618784.697,623677.574,5,600,17,
break,html.Screen,10_16_1,2023-11-29T17:41:25.724Z,,,,,,,,,,,NaN,,,,,,,,low,low,,,,,,,false,,,,,false,623672,623671.6999998093,,623671.1999998093,,623677.574,5,600,,
break_continue,html.Screen,10_16_2,2023-11-29T17:41:25.725Z,,,,,,,,,,,NaN,,,,,,,,low,low,,,,,,,false,,,,,false,623672.6999998093,623672.5999999046,,623672.2999999523,,623677.574,5,600,,
sequence,flow.Sequence,10_16,2023-11-29T17:41:25.725Z,,,,,,,,,,,4887.902999904589,completion,,,,,,,low,low,,,,,,,false,,,,,false,623673.0999999046,623672.5999999046,618768.07,618777.399999857,618784.697,623677.574,5,600,,
trial,html.Screen,10_17_0,2023-11-29T17:41:29.954Z,,,,1,0.0051189696037511,-0.0396625911332438,,0.05,true,hh,4224.3259998569265,response,1.1598623261077452,1.1332010828073715,-1.0199546722864077,1.203269031614007,1.138283062560561,-1.1060629964008981,high,high,,ISIC_9742891.JPG,8,ISIC_0002639.JPG,33,26,false,0.12,hh,keypress(i),0,false,627902.2999999523,627901.899999857,623661.083,623673.2999999523,623677.574,627919.163,5,600,18,
break,html.Screen,10_17_1,2023-11-29T17:41:29.955Z,,,,,,,,,,,NaN,,,,,,,,high,high,,,,,,,false,,,,,false,627903.6999998093,627903.2999999523,,627902.7999999523,,627919.163,5,600,,
break_continue,html.Screen,10_17_2,2023-11-29T17:41:29.956Z,,,,,,,,,,,NaN,,,,,,,,high,high,,,,,,,false,,,,,false,627904.5,627904.1999998093,,627903.899999857,,627919.163,5,600,,
sequence,flow.Sequence,10_17,2023-11-29T17:41:29.957Z,,,,,,,,,,,4226.625999809243,completion,,,,,,,high,high,,,,,,,false,,,,,false,627904.899999857,627904.1999998093,623661.083,623673.1999998093,623677.574,627919.163,5,600,,
trial,html.Screen,10_18_0,2023-11-29T17:41:31.834Z,,,,1,-0.0070725527271049,-0.0049995141077508,,0.05,false,lh,1863.136999952374,response,-0.948927472020595,1.1332010828073715,-1.0199546722864077,1.0660437155921598,1.138283062560561,-1.1060629964008981,low,high,,ISIC_6124481.JPG,9,ISIC_5808758.JPG,33,25,false,0.3300000000000002,hh,keypress(i),0,false,629782.5999999046,629782.2999999523,627902.537,627905.0999999046,627919.163,629789.442,5,600,19,
break,html.Screen,10_18_1,2023-11-29T17:41:31.836Z,,,,,,,,,,,NaN,,,,,,,,low,high,,,,,,,false,,,,,false,629783.6999998093,629783.5,,629783,,629789.442,5,600,,
break_continue,html.Screen,10_18_2,2023-11-29T17:41:31.836Z,,,,,,,,,,,NaN,,,,,,,,low,high,,,,,,,false,,,,,false,629784.399999857,629784.1999998093,,629783.899999857,,629789.442,5,600,,
sequence,flow.Sequence,10_18,2023-11-29T17:41:31.836Z,,,,,,,,,,,1865.0369998093229,completion,,,,,,,low,high,,,,,,,false,,,,,false,629784.6999998093,629784.1999998093,627902.537,627905,627919.163,629789.442,5,600,,
trial,html.Screen,10_19_0,2023-11-29T17:41:33.506Z,,,,1,-0.0324770283903853,-0.0249968632204382,,0.05,true,hh,1664.757999809226,response,1.2503149164557643,1.1332010828073715,-1.0199546722864077,1.0796591227570405,1.138283062560561,-1.1060629964008981,high,high,,ISIC_7266462.JPG,9,ISIC_2466892.JPG,33,26,false,0.12,hh,keypress(i),0,false,631454.5,631454.1999998093,629772.972,629784.899999857,629789.442,631476.07,5,600,20,
break,html.Screen,10_19_1,2023-11-29T17:41:33.508Z,,,,,,,,,,,NaN,,,,,,,,high,high,,,,,,,false,,,,,false,631455.6999998093,631455.399999857,,631454.899999857,,631476.07,5,600,,
break_continue,html.Screen,10_19_2,2023-11-29T17:41:33.508Z,,,,,,,,,,,NaN,,,,,,,,high,high,,,,,,,false,,,,,false,631456.399999857,631456.1999998093,,631455.899999857,,631476.07,5,600,,
sequence,flow.Sequence,10_19,2023-11-29T17:41:33.509Z,,,,,,,,,,,1666.757999809226,completion,,,,,,,high,high,,,,,,,false,,,,,false,631456.7999999523,631456.1999998093,629772.972,629784.899999857,629789.442,631476.07,5,600,,
trial,html.Screen,10_20_0,2023-11-29T17:41:37.146Z,,,,1,0.0102460616775615,-0.0309670599545429,,0.05,false,lh,3617.829999857,response,-0.705042352333099,1.1332010828073715,-1.0199546722864077,0.9127244278050396,1.138283062560561,-1.1060629964008981,low,high,,ISIC_0072041.JPG,9,ISIC_0787229.JPG,33,25,false,0.3300000000000002,hh,keypress(i),0,false,635094.1999998093,635093.899999857,631442.762,631457,631476.07,635116.505,5,600,21,
break,html.Screen,10_20_1,2023-11-29T17:41:37.147Z,,,,,,,,,,,NaN,,,,,,,,low,high,,,,,,,false,,,,,false,635095.399999857,635095.0999999046,,635094.5999999046,,635116.505,5,600,,
break_continue,html.Screen,10_20_2,2023-11-29T17:41:37.148Z,,,,,,,,,,,NaN,,,,,,,,low,high,,,,,,,false,,,,,false,635096.0999999046,635095.7999999523,,635095.5999999046,,635116.505,5,600,,
sequence,flow.Sequence,10_20,2023-11-29T17:41:37.148Z,,,,,,,,,,,3619.7299999523675,completion,,,,,,,low,high,,,,,,,false,,,,,false,635096.2999999523,635095.7999999523,631442.762,631456.899999857,631476.07,635116.505,5,600,,
trial,html.Screen,10_21_0,2023-11-29T17:41:43.617Z,,,,1,-0.0324770283903853,-0.0249968632204382,,0.05,false,lh,6448.594999904628,response,-0.7870237732709365,1.1332010828073715,-1.0199546722864077,0.9172955251119376,1.138283062560561,-1.1060629964008981,low,high,,ISIC_7266462.JPG,9,ISIC_0057716.JPG,33,25,false,0.3300000000000002,ll,keypress(f),0,false,641565.1999998093,641565.0999999046,635083.301,635096.5,635116.505,641579.092,5,600,22,
break,html.Screen,10_21_1,2023-11-29T17:41:43.617Z,,,,,,,,,,,NaN,,,,,,,,low,high,,,,,,,false,,,,,false,641565.5,641565.399999857,,641565.2999999523,,641579.092,5,600,,
break_continue,html.Screen,10_21_2,2023-11-29T17:41:43.617Z,,,,,,,,,,,NaN,,,,,,,,low,high,,,,,,,false,,,,,false,641565.6999998093,641565.5999999046,,641565.5,,641579.092,5,600,,
sequence,flow.Sequence,10_21,2023-11-29T17:41:43.618Z,,,,,,,,,,,6449.094999904628,completion,,,,,,,low,high,,,,,,,false,,,,,false,641565.7999999523,641565.5999999046,635083.301,635096.5,635116.505,641579.092,5,600,,
trial,html.Screen,10_22_0,2023-11-29T17:41:46.386Z,,,,1,-0.0070725527271049,-0.0049995141077508,,0.05,false,hh,2755.2079999523703,response,1.1598623261077452,1.1332010828073715,-1.0199546722864077,1.203269031614007,1.138283062560561,-1.1060629964008981,high,high,,ISIC_6124481.JPG,9,ISIC_0002639.JPG,33,26,false,0.12,ll,keypress(f),0,false,644334.5999999046,644334.2999999523,641562.496,641565.899999857,641579.092,644351.148,5,600,23,
break,html.Screen,10_22_1,2023-11-29T17:41:46.388Z,,,,,,,,,,,NaN,,,,,,,,high,high,,,,,,,false,,,,,false,644335.899999857,644335.5,,644335,,644351.148,5,600,,
break_continue,html.Screen,10_22_2,2023-11-29T17:41:46.388Z,,,,,,,,,,,NaN,,,,,,,,high,high,,,,,,,false,,,,,false,644336.6999998093,644336.399999857,,644336.1999998093,,644351.148,5,600,,
sequence,flow.Sequence,10_22,2023-11-29T17:41:46.389Z,,,,,,,,,,,2757.307999857003,completion,,,,,,,high,high,,,,,,,false,,,,,false,644337,644336.399999857,641562.496,641565.7999999523,641579.092,644351.148,5,600,,
trial,html.Screen,10_23_0,2023-11-29T17:41:55.603Z,,,,1,0.0097091270150747,-0.0417921315885292,,0.05,true,hl,9199.351999999955,response,1.020990671779317,1.1332010828073715,-1.0199546722864077,-1.0116513850520903,1.138283062560561,-1.1060629964008981,high,low,,ISIC_3967213.JPG,10,ISIC_0011995.JPG,33,25,false,0.29000000000000015,hl,keypress(j),0,false,653550.7999999523,653550.5,644334.659,644337.1999998093,644351.148,653569.971,5,600,24,
break,html.Screen,10_23_1,2023-11-29T17:41:55.604Z,,,,,,,,,,,NaN,,,,,,,,high,low,,,,,,,false,,,,,false,653552,653551.6999998093,,653551.1999998093,,653569.971,5,600,,
break_continue,html.Screen,10_23_2,2023-11-29T17:41:55.605Z,,,,,,,,,,,NaN,,,,,,,,high,low,,,,,,,false,,,,,false,653552.7999999523,653552.5999999046,,653552.2999999523,,653569.971,5,600,,
sequence,flow.Sequence,10_23,2023-11-29T17:41:55.605Z,,,,,,,,,,,9201.451999904588,completion,,,,,,,high,low,,,,,,,false,,,,,false,653553.1999998093,653552.5999999046,644334.659,644337.0999999046,644351.148,653569.971,5,600,,
trial,html.Screen,10_24_0,2023-11-29T17:41:59.715Z,,,,1,-0.039728379742806,0.0228701131373768,,0.05,true,hl,4092.5289999999804,response,0.9579209317488,1.1332010828073715,-1.0199546722864077,-1.0147487101263497,1.138283062560561,-1.1060629964008981,high,low,,ISIC_0054073.JPG,9,ISIC_8124482.JPG,33,25,false,0.29000000000000015,hl,keypress(j),0,false,657662.7999999523,657662.5,653535.916,653553.399999857,653569.971,657677.148,5,600,25,
break,html.Screen,10_24_1,2023-11-29T17:41:59.716Z,,,,,,,,,,,NaN,,,,,,,,high,low,,,,,,,false,,,,,false,657664,657663.6999998093,,657663.1999998093,,657677.148,5,600,,
break_continue,html.Screen,10_24_2,2023-11-29T17:41:59.717Z,,,,,,,,,,,NaN,,,,,,,,high,low,,,,,,,false,,,,,false,657664.6999998093,657664.5999999046,,657664.1999998093,,657677.148,5,600,,
sequence,flow.Sequence,10_24,2023-11-29T17:41:59.717Z,,,,,,,,,,,4094.628999904613,completion,,,,,,,high,low,,,,,,,false,,,,,false,657665.0999999046,657664.5999999046,653535.916,653553.2999999523,653569.971,657677.148,5,600,,
trial,html.Screen,10_25_0,2023-11-29T17:42:02.994Z,,,,1,-0.0050679133050021,0.0009714874637896,,0.05,true,hh,3265.0519998092204,response,1.072671714258808,1.1332010828073715,-1.0199546722864077,1.0208498389771272,1.138283062560561,-1.1060629964008981,high,high,,ISIC_9848743.JPG,9,ISIC_5218773.JPG,33,26,false,0.12,hh,keypress(i),0,false,660942.5999999046,660942.1999998093,657660.405,657665.2999999523,657677.148,660950.12,5,600,26,
break,html.Screen,10_25_1,2023-11-29T17:42:02.996Z,,,,,,,,,,,NaN,,,,,,,,high,high,,,,,,,false,,,,,false,660943.7999999523,660943.5,,660943,,660950.12,5,600,,
break_continue,html.Screen,10_25_2,2023-11-29T17:42:02.996Z,,,,,,,,,,,NaN,,,,,,,,high,high,,,,,,,false,,,,,false,660944.5,660944.2999999523,,660944.0999999046,,660950.12,5,600,,
sequence,flow.Sequence,10_25,2023-11-29T17:42:02.997Z,,,,,,,,,,,3267.1519999522716,completion,,,,,,,high,high,,,,,,,false,,,,,false,660944.7999999523,660944.2999999523,657660.405,657665.1999998093,657677.148,660950.12,5,600,,
trial,html.Screen,10_26_0,2023-11-29T17:42:09.564Z,,,,1,-0.0329095507339554,0.0382899749693245,,0.05,true,ll,6560.380000000005,response,-0.9777849718157332,1.1332010828073715,-1.0199546722864077,-1.117811430082889,1.138283062560561,-1.1060629964008981,low,low,,ISIC_8812781.JPG,8,ISIC_3256887.JPG,33,31,false,0.1,ll,keypress(f),0,false,667510.7999999523,667510.5,660933.636,660945.0999999046,660950.12,667529.614,5,600,27,
break,html.Screen,10_26_1,2023-11-29T17:42:09.565Z,,,,,,,,,,,NaN,,,,,,,,low,low,,,,,,,false,,,,,false,667511.899999857,667511.6999998093,,667511.1999998093,,667529.614,5,600,,
break_continue,html.Screen,10_26_2,2023-11-29T17:42:09.565Z,,,,,,,,,,,NaN,,,,,,,,low,low,,,,,,,false,,,,,false,667512.5999999046,667512.2999999523,,667512.0999999046,,667529.614,5,600,,
sequence,flow.Sequence,10_26,2023-11-29T17:42:09.566Z,,,,,,,,,,,6562.179999952321,completion,,,,,,,low,low,,,,,,,false,,,,,false,667512.899999857,667512.2999999523,660933.636,660945,660950.12,667529.614,5,600,,
trial,html.Screen,10_27_0,2023-11-29T17:42:16.707Z,,,,1,0.0097091270150747,-0.0417921315885292,,0.05,false,lh,7124.285999857006,response,-0.7870237732709365,1.1332010828073715,-1.0199546722864077,0.9172955251119376,1.138283062560561,-1.1060629964008981,low,high,,ISIC_3967213.JPG,9,ISIC_0057716.JPG,33,25,false,0.3300000000000002,hl,keypress(j),0,false,674654.1999998093,674653.899999857,667496.142,667513.0999999046,667529.614,674676.821,5,600,28,
break,html.Screen,10_27_1,2023-11-29T17:42:16.708Z,,,,,,,,,,,NaN,,,,,,,,low,high,,,,,,,false,,,,,false,674655.399999857,674655,,674654.5999999046,,674676.821,5,600,,
break_continue,html.Screen,10_27_2,2023-11-29T17:42:16.709Z,,,,,,,,,,,NaN,,,,,,,,low,high,,,,,,,false,,,,,false,674656.0999999046,674655.899999857,,674655.6999998093,,674676.821,5,600,,
sequence,flow.Sequence,10_27,2023-11-29T17:42:16.709Z,,,,,,,,,,,7126.285999857006,completion,,,,,,,low,high,,,,,,,false,,,,,false,674656.2999999523,674655.899999857,667496.142,667513.0999999046,667529.614,674676.821,5,600,,
trial,html.Screen,10_28_0,2023-11-29T17:42:20.899Z,,,,1,-0.0389988030702649,-0.0143212271490256,,0.05,false,lh,4169.378999809269,response,-0.8092423703106274,1.1332010828073715,-1.0199546722864077,1.1870093485714288,1.138283062560561,-1.1060629964008981,low,high,,ISIC_0064669.JPG,9,ISIC_8592235.JPG,33,25,false,0.3300000000000002,ll,keypress(f),0,false,678846.5999999046,678846.1999998093,674643.658,674656.5999999046,674676.821,678851.616,5,600,29,
break,html.Screen,10_28_1,2023-11-29T17:42:20.901Z,,,,,,,,,,,NaN,,,,,,,,low,high,,,,,,,false,,,,,false,678847.899999857,678847.5999999046,,678847,,678851.616,5,600,,
break_continue,html.Screen,10_28_2,2023-11-29T17:42:20.902Z,,,,,,,,,,,NaN,,,,,,,,low,high,,,,,,,false,,,,,false,678848.899999857,678848.5999999046,,678848.1999998093,,678851.616,5,600,,
sequence,flow.Sequence,10_28,2023-11-29T17:42:20.902Z,,,,,,,,,,,4171.778999904636,completion,,,,,,,low,high,,,,,,,false,,,,,false,678849.399999857,678848.5999999046,674643.658,674656.5,674676.821,678851.616,5,600,,
trial,html.Screen,10_29_0,2023-11-29T17:42:22.764Z,,,,1,-0.0389988030702649,-0.0143212271490256,,0.05,true,ll,1858.7839998569107,response,-1.0387488172228707,1.1332010828073715,-1.0199546722864077,-1.186629690487006,1.138283062560561,-1.1060629964008981,low,low,,ISIC_0064669.JPG,8,ISIC_0015390.JPG,33,31,false,0.1,ll,keypress(f),0,false,680710.6999998093,680710.399999857,678835.135,678849.7999999523,678851.616,680721.939,5,600,30,
break,html.Screen,10_29_1,2023-11-29T17:42:22.765Z,,,,,,,,,,,NaN,,,,,,,,low,low,,,,,,,false,,,,,false,680711.899999857,680711.5999999046,,680711.0999999046,,680721.939,5,600,,
break_continue,html.Screen,10_29_2,2023-11-29T17:42:22.765Z,,,,,,,,,,,NaN,,,,,,,,low,low,,,,,,,false,,,,,false,680712.5999999046,680712.399999857,,680712.0999999046,,680721.939,5,600,,
sequence,flow.Sequence,10_29,2023-11-29T17:42:22.766Z,,,,,,,,,,,1860.7839998569107,completion,,,,,,,low,low,,,,,,,false,,,,,false,680712.899999857,680712.399999857,678835.135,678849.6999998093,678851.616,680721.939,5,600,,
trial,html.Screen,10_30_0,2023-11-29T17:42:25.523Z,,,,1,-0.0456515796420274,0.0273567130070961,,0.05,false,hl,2748.260999809252,response,1.020990671779317,1.1332010828073715,-1.0199546722864077,-1.0116513850520903,1.138283062560561,-1.1060629964008981,high,low,,ISIC_0068610.JPG,9,ISIC_0011995.JPG,33,25,false,0.29000000000000015,ll,keypress(f),0,false,683470.5999999046,683470.1999998093,680705.519,680713.0999999046,680721.939,683477.31,5,600,31,
break,html.Screen,10_30_1,2023-11-29T17:42:25.525Z,,,,,,,,,,,NaN,,,,,,,,high,low,,,,,,,false,,,,,false,683471.6999998093,683471.399999857,,683471,,683477.31,5,600,,
break_continue,html.Screen,10_30_2,2023-11-29T17:42:25.525Z,,,,,,,,,,,NaN,,,,,,,,high,low,,,,,,,false,,,,,false,683472.5,683472.2999999523,,683472,,683477.31,5,600,,
sequence,flow.Sequence,10_30,2023-11-29T17:42:25.526Z,,,,,,,,,,,2750.3609999523032,completion,,,,,,,high,low,,,,,,,false,,,,,false,683472.7999999523,683472.2999999523,680705.519,680713,680721.939,683477.31,5,600,,
trial,html.Screen,10_31_0,2023-11-29T17:42:28.700Z,,,,1,-0.0389988030702649,-0.0143212271490256,,0.05,false,hl,3169.089999856893,response,1.020990671779317,1.1332010828073715,-1.0199546722864077,-1.0116513850520903,1.138283062560561,-1.1060629964008981,high,low,,ISIC_0064669.JPG,9,ISIC_0011995.JPG,33,25,false,0.29000000000000015,ll,keypress(f),0,false,686646.7999999523,686646.399999857,683460.758,683473,683477.31,686650.257,5,600,32,
break,html.Screen,10_31_1,2023-11-29T17:42:28.701Z,,,,,,,,,,,NaN,,,,,,,,high,low,,,,,,,false,,,,,false,686647.899999857,686647.6999998093,,686647.1999998093,,686650.257,5,600,,
break_continue,html.Screen,10_31_2,2023-11-29T17:42:28.702Z,,,,,,,,,,,NaN,,,,,,,,high,low,,,,,,,false,,,,,false,686648.6999998093,686648.399999857,,686648.1999998093,,686650.257,5,600,,
sequence,flow.Sequence,10_31,2023-11-29T17:42:28.702Z,,,,,,,,,,,3171.089999856893,completion,,,,,,,high,low,,,,,,,false,,,,,false,686649,686648.399999857,683460.758,683472.899999857,683477.31,686650.257,5,600,,
trial,html.Screen,10_32_0,2023-11-29T17:42:31.931Z,,,,1,0.000047919190197942736,0.0462652940855003,,0.05,true,hh,3227.7430000000168,response,1.0316392011945703,1.1332010828073715,-1.0199546722864077,1.1580619988377847,1.138283062560561,-1.1060629964008981,high,high,,ISIC_0011507.JPG,9,ISIC_0054206.JPG,33,26,false,0.12,hh,keypress(i),0,false,689878.2999999523,689878,686633.566,686649.1999998093,686650.257,689889.793,5,600,33,
break,html.Screen,10_32_1,2023-11-29T17:42:31.932Z,,,,,,,,,,,NaN,,,,,,,,high,high,,,,,,,false,,,,,false,689879.5,689879.1999998093,,689878.6999998093,,689889.793,5,600,,
break_continue,html.Screen,10_32_2,2023-11-29T17:42:31.933Z,,,,,,,,,,,NaN,,,,,,,,high,high,,,,,,,false,,,,,false,689880.0999999046,689879.899999857,,689879.5999999046,,689889.793,5,600,,
sequence,flow.Sequence,10_32,2023-11-29T17:42:31.933Z,,,,,,,,,,,3229.6429998569656,completion,,,,,,,high,high,,,,,,,false,,,,,false,689880.2999999523,689879.899999857,686633.566,686649.1999998093,686650.257,689889.793,5,600,,
trial,html.Screen,10_33_0,2023-11-29T17:42:33.892Z,,,,1,0.0362376068089956,0.047825070846155,,0.05,true,ll,1948.5069999523694,response,-1.0651492409820618,1.1332010828073715,-1.0199546722864077,-1.1862499256725747,1.138283062560561,-1.1060629964008981,low,low,,ISIC_6985114.JPG,8,ISIC_0065421.JPG,33,31,false,0.1,ll,keypress(f),0,false,691838.6999998093,691838.2999999523,689873.334,689880.5999999046,689889.793,691860.262,5,600,34,
break,html.Screen,10_33_1,2023-11-29T17:42:33.893Z,,,,,,,,,,,NaN,,,,,,,,low,low,,,,,,,false,,,,,false,691840,691839.6999998093,,691839.0999999046,,691860.262,5,600,,
break_continue,html.Screen,10_33_2,2023-11-29T17:42:33.894Z,,,,,,,,,,,NaN,,,,,,,,low,low,,,,,,,false,,,,,false,691840.7999999523,691840.5,,691840.2999999523,,691860.262,5,600,,
sequence,flow.Sequence,10_33,2023-11-29T17:42:33.894Z,,,,,,,,,,,1950.707000000053,completion,,,,,,,low,low,,,,,,,false,,,,,false,691841.0999999046,691840.5,689873.334,689880.5999999046,689889.793,691860.262,5,600,,
trial,html.Screen,10_34_0,2023-11-29T17:42:36.450Z,,,,1,-0.0085520978188085,0.0464691161264081,,0.05,false,hl,2536.738000000012,response,0.8534691366511764,1.1332010828073715,-1.0199546722864077,-1.03975580494588,1.138283062560561,-1.1060629964008981,high,low,,ISIC_0758797.JPG,9,ISIC_0056788.JPG,33,25,false,0.29000000000000015,ll,keypress(f),0,false,694397.0999999046,694397,691827.138,691841.399999857,691860.262,694415.263,5,600,35,
break,html.Screen,10_34_1,2023-11-29T17:42:36.450Z,,,,,,,,,,,NaN,,,,,,,,high,low,,,,,,,false,,,,,false,694397.5,694397.2999999523,,694397.1999998093,,694415.263,5,600,,
break_continue,html.Screen,10_34_2,2023-11-29T17:42:36.451Z,,,,,,,,,,,NaN,,,,,,,,high,low,,,,,,,false,,,,,false,694397.5999999046,694397.5999999046,,694397.5,,694415.263,5,600,,
sequence,flow.Sequence,10_34,2023-11-29T17:42:36.451Z,,,,,,,,,,,2537.3379999046447,completion,,,,,,,high,low,,,,,,,false,,,,,false,694397.6999998093,694397.5999999046,691827.138,691841.2999999523,691860.262,694415.263,5,600,,
trial,html.Screen,10_35_0,2023-11-29T17:42:40.700Z,,,,1,0.0409338693593207,-0.0072462710499874,,0.05,false,hl,4231.036999952281,response,0.8979276789594874,1.1332010828073715,-1.0199546722864077,-0.925374811016654,1.138283062560561,-1.1060629964008981,high,low,,ISIC_3608788.JPG,9,ISIC_4208361.JPG,33,25,false,0.29000000000000015,ll,keypress(f),0,false,698646.5999999046,698646.2999999523,694381.837,694397.7999999523,694415.263,698690.247,5,600,36,
break,html.Screen,10_35_1,2023-11-29T17:42:40.701Z,,,,,,,,,,,NaN,,,,,,,,high,low,,,,,,,false,,,,,false,698647.7999999523,698647.5999999046,,698647.0999999046,,698690.247,5,600,,
break_continue,html.Screen,10_35_2,2023-11-29T17:42:40.701Z,,,,,,,,,,,NaN,,,,,,,,high,low,,,,,,,false,,,,,false,698648.5999999046,698648.2999999523,,698648,,698690.247,5,600,,
sequence,flow.Sequence,10_35,2023-11-29T17:42:40.702Z,,,,,,,,,,,4233.036999952281,completion,,,,,,,high,low,,,,,,,false,,,,,false,698648.7999999523,698648.2999999523,694381.837,694397.6999998093,694415.263,698690.247,5,600,,
trial,html.Screen,10_36_0,2023-11-29T17:42:43.932Z,,,,1,0.0409338693593207,-0.0072462710499874,,0.05,false,hl,3188.253000000026,response,1.331700944308701,1.1332010828073715,-1.0199546722864077,-0.9395196143259436,1.138283062560561,-1.1060629964008981,high,low,,ISIC_3608788.JPG,8,ISIC_1668831.JPG,33,25,false,0.29000000000000015,hh,keypress(i),0,false,701878.7999999523,701878.5,698640.43,698649.0999999046,698690.247,701879.871,5,600,37,
break,html.Screen,10_36_1,2023-11-29T17:42:43.933Z,,,,,,,,,,,NaN,,,,,,,,high,low,,,,,,,false,,,,,false,701880.0999999046,701879.6999998093,,701879.2999999523,,701879.871,5,600,,
break_continue,html.Screen,10_36_2,2023-11-29T17:42:43.934Z,,,,,,,,,,,NaN,,,,,,,,high,low,,,,,,,false,,,,,false,701880.7999999523,701880.5,,701880.1999998093,,701879.871,5,600,,
sequence,flow.Sequence,10_36,2023-11-29T17:42:43.934Z,,,,,,,,,,,3190.253000000026,completion,,,,,,,high,low,,,,,,,false,,,,,false,701881.0999999046,701880.5,698640.43,698649,698690.247,701879.871,5,600,,
trial,html.Screen,10_37_0,2023-11-29T17:42:46.251Z,,,,1,0.0134764727102299,0.0033499036460912,,0.05,true,ll,2318.3289998092223,response,-0.934130994804294,1.1332010828073715,-1.0199546722864077,-1.0454436589399478,1.138283062560561,-1.1060629964008981,low,low,,ISIC_0009998.JPG,10,ISIC_0053916.JPG,33,31,false,0.1,ll,keypress(f),0,false,704198.5999999046,704198.1999998093,701863.363,701881.2999999523,701879.871,704201.065,5,600,38,
break,html.Screen,10_37_1,2023-11-29T17:42:46.253Z,,,,,,,,,,,NaN,,,,,,,,low,low,,,,,,,false,,,,,false,704199.7999999523,704199.5999999046,,704199,,704201.065,5,600,,
break_continue,html.Screen,10_37_2,2023-11-29T17:42:46.253Z,,,,,,,,,,,NaN,,,,,,,,low,low,,,,,,,false,,,,,false,704200.5,704200.2999999523,,704200,,704201.065,5,600,,
sequence,flow.Sequence,10_37,2023-11-29T17:42:46.254Z,,,,,,,,,,,2320.4289999522734,completion,,,,,,,low,low,,,,,,,false,,,,,false,704200.7999999523,704200.2999999523,701863.363,701881.2999999523,701879.871,704201.065,5,600,,
