sender,sender_type,sender_id,timestamp,meta,,age,blockNo,c1,c2,condition,control_tolerance,correct,correctResponse,duration,ended_on,f1,f1_high,f1_low,f2,f2_high,f2_low,feature_level1,feature_level2,gender,img_left,img_reveal,img_right,n_control_images,n_target_images,practice,range_tolerance,response,response_action,selection_duration,staircase,time_commit,time_end,time_render,time_run,time_show,time_switch,total_blocks,total_trials,trialNo,url
informed_consent,html.Screen,0,2024-03-04T20:24:23.402Z,"{""labjs_version"":""20.2.4"",""labjs_build"":{""flavor"":""development"",""commit"":""f5b4a49f956347addd546a832a3327688c2c0fef""},""location"":""https://labjs.felixhenninger.com/api/labjs_preview/index.html"",""userAgent"":""Mozilla/5.0 (Windows NT 10.0; Win64; x64) AppleWebKit/537.36 (KHTML, like Gecko) Chrome/122.0.0.0 Safari/537.36"",""platform"":""Win32"",""language"":""en-US"",""locale"":""en-US"",""timeZone"":""America/Chicago"",""timezoneOffset"":360,""screen_width"":2560,""screen_height"":1440,""scroll_width"":1265,""scroll_height"":1278,""window_innerWidth"":1265,""window_innerHeight"":1326,""devicePixelRatio"":1}",,,,,,,,,,332176.10000038147,response,,,,,,,,,,,,,,,,,consent,click button,,,332682.9000005722,332677.10000038147,484.3,568.6000003814697,501,332608.2,,,,{}
Demography form,html.Form,1,2024-03-04T20:24:29.732Z,,,19,,,,,,,,6404.299999999988,form submission,,,,,,,,,male,,,,,,,,,,,,339012.60000038147,339012.5,332591.5,332683.10000038147,332608.2,338946.8,,,,
Welcome,html.Screen,2,2024-03-04T20:25:01.142Z,,,,,,,"[""bor"",""col""]",,,,31474.80000038148,response,,,,,,,,,,,,,,,,,continue,click button,,,370422.4000005722,370421.60000038147,338930.1,339012.70000076294,338946.8,370357.1,,,,
demo_instructions,html.Screen,3,2024-03-04T20:26:30.930Z,,,,,,,,,,,90096.30000057223,response,,,,,,,,,,,,,,,,,continue,click button,,,460453.9000005722,460453.4000005722,370339.362,370422.5,370357.1,460397.3,,,,
trial,html.Screen,4_0_0,2024-03-04T20:26:38.247Z,,,,0,-1.1746004947382946,-1.2207657619249948,,,true,hh,7373.200000000012,response,1.1409143352872226,1.2,-1.2,1.1323007949069106,1.2,-1.2,high,high,,ISIC_0012069.JPG,,ISIC_0030291.JPG,,25,true,0.14,hh,keypress(i),100,false,467771.20000076294,467770.5,460380.4,460454.10000038147,460397.3,467703.43,1,16,1,
sequence,flow.Sequence,4_0,2024-03-04T20:26:38.259Z,,,,,,,,,,,7373.200000000012,completion,,,,,,,high,high,,,,,,,true,,,,,false,467783.20000076294,467770.5,460380.4,460454.10000038147,460397.3,467703.43,1,16,,
trial,html.Screen,4_1_0,2024-03-04T20:26:41.449Z,,,,0,-1.14454137020797,-1.1082302786512033,,,true,hh,3268.7700007629464,response,1.0659165756604234,1.2,-1.2,1.0867497316848906,1.2,-1.2,high,high,,ISIC_0065128.JPG,,ISIC_5807608.JPG,,25,true,0.14,hh,keypress(i),100,false,470972.60000038147,470972.20000076294,467703.43,467783.30000019073,467703.43,470906,1,16,2,
sequence,flow.Sequence,4_1,2024-03-04T20:26:41.449Z,,,,,,,,,,,3268.7700007629464,completion,,,,,,,high,high,,,,,,,true,,,,,false,470973.30000019073,470972.20000076294,467703.43,467783.30000019073,467703.43,470906,1,16,,
trial,html.Screen,4_2_0,2024-03-04T20:26:44.209Z,,,,0,-1.1441767540243375,-1.0949087392471728,,,true,hh,2826.6000003814697,response,1.0943527860463682,1.2,-1.2,1.124481746658104,1.2,-1.2,high,high,,ISIC_0054146.JPG,,ISIC_0438136.JPG,,25,true,0.14,hh,keypress(i),100,false,473732.9000005722,473732.60000038147,470889.432,470973.60000038147,470906,473674.8,1,16,3,
sequence,flow.Sequence,4_2,2024-03-04T20:26:44.209Z,,,,,,,,,,,2826.6000003814697,completion,,,,,,,high,high,,,,,,,true,,,,,false,473733.10000038147,473732.60000038147,470889.432,470973.5,470906,473674.8,1,16,,
trial,html.Screen,4_3_0,2024-03-04T20:26:49.993Z,,,,0,-1.0769708994456726,-1.2196503533725178,,,true,hh,5841.300000381481,response,1.160746324899676,1.2,-1.2,1.1927876559115576,1.2,-1.2,high,high,,ISIC_0063824.JPG,,ISIC_8651053.JPG,,25,true,0.14,hh,keypress(i),100,false,479516.80000019073,479516.10000038147,473658.166,473733.20000076294,473674.8,479463,1,16,4,
sequence,flow.Sequence,4_3,2024-03-04T20:26:49.994Z,,,,,,,,,,,5841.300000381481,completion,,,,,,,high,high,,,,,,,true,,,,,false,479518.30000019073,479516.10000038147,473658.166,473733.20000076294,473674.8,479463,1,16,,
trial,html.Screen,4_4_0,2024-03-04T20:27:00.691Z,,,,0,1.1989130276493527,1.2666195460149832,,,true,ll,10751.70000076294,response,-1.2033647433750492,1.2,-1.2,-1.0718012192341555,1.2,-1.2,low,low,,ISIC_0031705.JPG,,ISIC_0061606.JPG,,30,true,0.13,ll,keypress(f),100,false,490215,490214.70000076294,479446.3,479518.60000038147,479463,490155.1,1,16,5,
sequence,flow.Sequence,4_4,2024-03-04T20:27:00.692Z,,,,,,,,,,,10751.70000076294,completion,,,,,,,low,low,,,,,,,true,,,,,false,490215.5,490214.70000076294,479446.3,479518.5,479463,490155.1,1,16,,
trial,html.Screen,4_5_0,2024-03-04T20:27:04.250Z,,,,0,1.109799097093339,1.091507924157762,,,true,ll,3618.800000572228,response,-1.2194553326562725,1.2,-1.2,-1.2381726989215684,1.2,-1.2,low,low,,ISIC_0765584.JPG,,ISIC_0068975.JPG,,40,true,0.14,ll,keypress(f),100,false,493774.4000005722,493773.9000005722,490138.4,490215.80000019073,490155.1,493708.2,1,16,6,
sequence,flow.Sequence,4_5,2024-03-04T20:27:04.251Z,,,,,,,,,,,3618.800000572228,completion,,,,,,,low,low,,,,,,,true,,,,,false,493775.10000038147,493773.9000005722,490138.4,490215.60000038147,490155.1,493708.2,1,16,,
trial,html.Screen,4_6_0,2024-03-04T20:27:10.372Z,,,,0,1.1870093485714288,1.3339880978442629,,,true,ll,6187.299999999988,response,-1.1048559518249943,1.2,-1.2,-1.2252457981338687,1.2,-1.2,low,low,,ISIC_8592235.JPG,,ISIC_0060817.JPG,,40,true,0.14,ll,keypress(f),100,false,499895.60000038147,499895.5,493691.664,493775.4000005722,493708.2,499829.7,1,16,7,
sequence,flow.Sequence,4_6,2024-03-04T20:27:10.372Z,,,,,,,,,,,6187.299999999988,completion,,,,,,,low,low,,,,,,,true,,,,,false,499895.80000019073,499895.5,493691.664,493775.4000005722,493708.2,499829.7,1,16,,
trial,html.Screen,4_7_0,2024-03-04T20:27:20.745Z,,,,0,1.1409143352872226,1.1323007949069106,,,true,ll,10438.600000190723,response,-1.0773466327271526,1.2,-1.2,-1.1601445610079184,1.2,-1.2,low,low,,ISIC_0030291.JPG,,ISIC_0055169.JPG,,40,true,0.14,ll,keypress(f),100,false,510268.60000038147,510268.30000019073,499813.33,499895.9000005722,499829.7,510205.198,1,16,8,
sequence,flow.Sequence,4_7,2024-03-04T20:27:20.745Z,,,,,,,,,,,10438.600000190723,completion,,,,,,,low,low,,,,,,,true,,,,,false,510269.20000076294,510268.30000019073,499813.33,499895.9000005722,499829.7,510205.198,1,16,,
trial,html.Screen,4_8_0,2024-03-04T20:27:23.161Z,,,,0,0.8830264383952469,-0.8635562538060516,,,true,lh,2479.5020007629646,response,-0.8500530224490773,1.2,-1.2,1.0893360711742854,1.2,-1.2,low,high,,ISIC_0032258.JPG,,ISIC_2998367.JPG,,27,true,0.40000000000000024,lh,keypress(e),100,false,512684.80000019073,512684.70000076294,510205.198,510269.4000005722,510205.198,512623.5,1,16,9,
sequence,flow.Sequence,4_8,2024-03-04T20:27:23.161Z,,,,,,,,,,,2479.5020007629646,completion,,,,,,,low,high,,,,,,,true,,,,,false,512685,512684.70000076294,510205.198,510269.4000005722,510205.198,512623.5,1,16,,
trial,html.Screen,4_9_0,2024-03-04T20:27:24.307Z,,,,0,0.8830264383952469,-0.8635562538060516,,,true,lh,1207.1000003814697,response,-1.423867498658875,1.2,-1.2,0.7901771595160324,1.2,-1.2,low,high,,ISIC_0032258.JPG,,ISIC_3136228.JPG,,40,true,0.4500000000000003,lh,keypress(e),100,false,513830.70000076294,513830.60000038147,512606.8,512685,512623.5,513774.4,1,16,10,
sequence,flow.Sequence,4_9,2024-03-04T20:27:24.307Z,,,,,,,,,,,1207.1000003814697,completion,,,,,,,low,high,,,,,,,true,,,,,false,513830.9000005722,513830.60000038147,512606.8,512685,512623.5,513774.4,1,16,,
trial,html.Screen,4_10_0,2024-03-04T20:27:26.139Z,,,,0,1.0453124399868816,-0.8986747280184286,,,true,lh,1888.0999999999767,response,-0.7856143618373893,1.2,-1.2,1.0273608829432213,1.2,-1.2,low,high,,ISIC_0013967.JPG,,ISIC_9303849.JPG,,40,true,0.4500000000000003,lh,keypress(e),100,false,515663.10000038147,515662.5,513757.8,513830.9000005722,513774.4,515609.5,1,16,11,
sequence,flow.Sequence,4_10,2024-03-04T20:27:26.140Z,,,,,,,,,,,1888.0999999999767,completion,,,,,,,low,high,,,,,,,true,,,,,false,515663.9000005722,515662.5,513757.8,513830.9000005722,513774.4,515609.5,1,16,,
trial,html.Screen,4_11_0,2024-03-04T20:27:27.645Z,,,,0,1.3046390428588206,-0.7942099232219556,,,true,lh,1558.7000007629395,response,-1.045301444872812,1.2,-1.2,1.0872560254441277,1.2,-1.2,low,high,,ISIC_0013096.JPG,,ISIC_4507700.JPG,,40,true,0.4500000000000003,lh,keypress(e),100,false,517168.5,517168.20000076294,515593.098,515664.30000019073,515609.5,517111,1,16,12,
sequence,flow.Sequence,4_11,2024-03-04T20:27:27.645Z,,,,,,,,,,,1558.7000007629395,completion,,,,,,,low,high,,,,,,,true,,,,,false,517169,517168.20000076294,515593.098,515664.30000019073,515609.5,517111,1,16,,
trial,html.Screen,4_12_0,2024-03-04T20:27:30.482Z,,,,0,-0.9662688541319592,0.929746784178986,,,true,hl,2894.1000003814697,response,1.075512775389519,1.2,-1.2,-1.0454702683049502,1.2,-1.2,high,low,,ISIC_0011077.JPG,,ISIC_0033603.JPG,,26,true,0.4500000000000003,hl,keypress(j),100,false,520005.5,520005.10000038147,517094.332,517169.20000076294,517111,519946.2,1,16,13,
sequence,flow.Sequence,4_12,2024-03-04T20:27:30.482Z,,,,,,,,,,,2894.1000003814697,completion,,,,,,,high,low,,,,,,,true,,,,,false,520006.10000038147,520005.10000038147,517094.332,517169.10000038147,517111,519946.2,1,16,,
trial,html.Screen,4_13_0,2024-03-04T20:27:31.911Z,,,,0,-0.9617893983965208,0.9453006131304652,,,true,hl,1487.700000572193,response,1.2054195059663604,1.2,-1.2,-0.7760611240296147,1.2,-1.2,high,low,,ISIC_4229473.JPG,,ISIC_8712559.JPG,,26,true,0.4500000000000003,hl,keypress(j),100,false,521434.30000019073,521433.9000005722,519929.998,520006.30000019073,519946.2,521381.1,1,16,14,
sequence,flow.Sequence,4_13,2024-03-04T20:27:31.911Z,,,,,,,,,,,1487.700000572193,completion,,,,,,,high,low,,,,,,,true,,,,,false,521435.20000076294,521433.9000005722,519929.998,520006.20000076294,519946.2,521381.1,1,16,,
trial,html.Screen,4_14_0,2024-03-04T20:27:33.788Z,,,,0,-0.9662688541319592,0.929746784178986,,,true,hl,1930.000000381493,response,0.8034318937720549,1.2,-1.2,-1.0024917298189338,1.2,-1.2,high,low,,ISIC_0011077.JPG,,ISIC_0032766.JPG,,26,true,0.4500000000000003,hl,keypress(j),100,false,523311.5,523311.10000038147,521364.498,521435.5,521381.1,523249.2,1,16,15,
sequence,flow.Sequence,4_14,2024-03-04T20:27:33.788Z,,,,,,,,,,,1930.000000381493,completion,,,,,,,high,low,,,,,,,true,,,,,false,523312,523311.10000038147,521364.498,521435.5,521381.1,523249.2,1,16,,
trial,html.Screen,4_15_0,2024-03-04T20:27:36.254Z,,,,0,-0.8307508446051526,1.1707575338936729,,,true,hl,2528.500000762928,response,1.3046390428588206,1.2,-1.2,-0.7942099232219556,1.2,-1.2,high,low,,ISIC_0028606.JPG,,ISIC_0013096.JPG,,26,true,0.4500000000000003,hl,keypress(j),100,false,525777.7000007629,525777.7000007629,523232.694,523312.30000019073,523249.2,525717.7,1,16,16,
sequence,flow.Sequence,4_15,2024-03-04T20:27:36.254Z,,,,,,,,,,,2528.500000762928,completion,,,,,,,high,low,,,,,,,true,,,,,false,525777.9000005722,525777.7000007629,523232.694,523312.20000076294,523249.2,525717.7,1,16,,
demonstration_loop,flow.Loop,4,2024-03-04T20:27:36.254Z,,,,,,,,,,,65380.40000076295,completion,,,,,,,,,,,,,,,true,,,,,false,525778.1000003815,525777.7000007629,460380.4,460454.10000038147,460397.3,525717.7,1,16,,
practice_instructions,html.Screen,5,2024-03-04T20:27:45.642Z,,,,,,,,,,,9440.000000762986,response,,,,,,,,,,,,,,,,,continue,click button,,,535166.2000007629,535157.7000007629,525701.1,525778.1000003815,525717.7,535092.5,,,,
trial,html.Screen,6_0_0,2024-03-04T20:27:51.525Z,,,,1,1.1409143352872226,1.1323007949069106,,,true,ll,5949.700000762939,response,-1.2014901828022857,1.2,-1.2,-1.1484096197304636,1.2,-1.2,low,low,,ISIC_0030291.JPG,,ISIC_0067808.JPG,,30,true,0.13,ll,keypress(f),0,false,541048.8000001907,541042.2000007629,535092.058,535166.3000001907,535092.5,540997.2,1,40,1,
sequence,flow.Sequence,6_0,2024-03-04T20:27:51.525Z,,,,,,,,,,,5949.700000762939,completion,,,,,,,low,low,,,,,,,true,,,,,false,541048.9000005722,541042.2000007629,535092.058,535166.3000001907,535092.5,540997.2,1,40,,
trial,html.Screen,6_1_0,2024-03-04T20:27:57.341Z,,,,1,1.0659165756604234,1.0867497316848906,,,true,ll,5867.400000381516,response,-1.0773466327271526,1.2,-1.2,-1.1601445610079184,1.2,-1.2,low,low,,ISIC_5807608.JPG,,ISIC_0055169.JPG,,40,true,0.14,ll,keypress(f),0,false,546864.9000005722,546864.6000003815,540980.532,541049,540997.2,546785.2,1,40,2,
sequence,flow.Sequence,6_1,2024-03-04T20:27:57.342Z,,,,,,,,,,,5867.400000381516,completion,,,,,,,low,low,,,,,,,true,,,,,false,546865.5,546864.6000003815,540980.532,541049,540997.2,546785.2,1,40,,
trial,html.Screen,6_2_0,2024-03-04T20:28:01.522Z,,,,1,-1.0769708994456726,-1.2196503533725178,,,true,hh,4260.400000381516,response,1.2253191093367526,1.2,-1.2,1.241905252673026,1.2,-1.2,high,high,,ISIC_0063824.JPG,,ISIC_1195689.JPG,,25,true,0.14,hh,keypress(i),0,false,551045.6000003815,551045.6000003815,546781.274,546865.7000007629,546785.2,550971.8,1,40,3,
sequence,flow.Sequence,6_2,2024-03-04T20:28:01.522Z,,,,,,,,,,,4260.400000381516,completion,,,,,,,high,high,,,,,,,true,,,,,false,551045.7000007629,551045.6000003815,546781.274,546865.7000007629,546785.2,550971.8,1,40,,
trial,html.Screen,6_3_0,2024-03-04T20:28:04.626Z,,,,1,-1.1936751736668425,-1.2584308630745344,,,true,hh,3178.0000001906883,response,1.0943527860463682,1.2,-1.2,1.124481746658104,1.2,-1.2,high,high,,ISIC_0061265.JPG,,ISIC_0438136.JPG,,25,true,0.14,hh,keypress(i),0,false,554149.9000005722,554149.8000001907,550955,551045.7000007629,550971.8,554074.3,1,40,4,
sequence,flow.Sequence,6_3,2024-03-04T20:28:04.626Z,,,,,,,,,,,3178.0000001906883,completion,,,,,,,high,high,,,,,,,true,,,,,false,554150.1000003815,554149.8000001907,550955,551045.7000007629,550971.8,554074.3,1,40,,
trial,html.Screen,6_4_0,2024-03-04T20:28:06.762Z,,,,1,-1.0788024398087033,0.9911875460374616,,,true,hl,2211.100000572158,response,0.989300717252516,1.2,-1.2,-0.7908280206937478,1.2,-1.2,high,low,,ISIC_5951430.JPG,,ISIC_6416533.JPG,,26,true,0.4500000000000003,hl,keypress(j),0,false,556285.6000003815,556285.4000005722,554072.516,554150.1000003815,554074.3,556209.5,1,40,5,
sequence,flow.Sequence,6_4,2024-03-04T20:28:06.762Z,,,,,,,,,,,2211.100000572158,completion,,,,,,,high,low,,,,,,,true,,,,,false,556285.6000003815,556285.4000005722,554072.516,554150.1000003815,554074.3,556209.5,1,40,,
trial,html.Screen,6_5_0,2024-03-04T20:28:11.290Z,,,,1,1.2219550761700546,1.2809901875733454,,,true,ll,4604.200000762939,response,-1.0915173513546716,1.2,-1.2,-1.266840220031473,1.2,-1.2,low,low,,ISIC_6463417.JPG,,ISIC_8241457.JPG,,288,true,0.40000000000000024,ll,keypress(f),0,false,560813.9000005722,560813.7000007629,556192.8,556285.7000007629,556209.5,560746.5,1,40,6,
sequence,flow.Sequence,6_5,2024-03-04T20:28:11.290Z,,,,,,,,,,,4604.200000762939,completion,,,,,,,low,low,,,,,,,true,,,,,false,560814.1000003815,560813.7000007629,556192.8,556285.7000007629,556209.5,560746.5,1,40,,
trial,html.Screen,6_6_0,2024-03-04T20:28:19.210Z,,,,1,0.8034318937720549,-1.0024917298189338,,,true,lh,7987.200000762939,response,-0.8350129142228142,1.2,-1.2,0.8172547818270586,1.2,-1.2,low,high,,ISIC_0032766.JPG,,ISIC_0301568.JPG,,27,true,0.40000000000000024,lh,keypress(e),0,false,568733.9000005722,568733.7000007629,560729.7,560814.1000003815,560746.5,568653,1,40,7,
sequence,flow.Sequence,6_6,2024-03-04T20:28:19.210Z,,,,,,,,,,,7987.200000762939,completion,,,,,,,low,high,,,,,,,true,,,,,false,568733.9000005722,568733.7000007629,560729.7,560814.1000003815,560746.5,568653,1,40,,
trial,html.Screen,6_7_0,2024-03-04T20:28:21.362Z,,,,1,-1.2081146885025262,1.195668832085049,,,true,hl,2232.800000190735,response,0.8034318937720549,1.2,-1.2,-1.0024917298189338,1.2,-1.2,high,low,,ISIC_7369690.JPG,,ISIC_0032766.JPG,,26,true,0.4500000000000003,hl,keypress(j),0,false,570885.9000005722,570885.8000001907,568647.124,568733.9000005722,568653,570804.8,1,40,8,
sequence,flow.Sequence,6_7,2024-03-04T20:28:21.362Z,,,,,,,,,,,2232.800000190735,completion,,,,,,,high,low,,,,,,,true,,,,,false,570886,570885.8000001907,568647.124,568733.9000005722,568653,570804.8,1,40,,
trial,html.Screen,6_8_0,2024-03-04T20:28:26.157Z,,,,1,-0.8307508446051526,1.1707575338936729,,,true,hl,4875.400000762893,response,1.075512775389519,1.2,-1.2,-1.0454702683049502,1.2,-1.2,high,low,,ISIC_0028606.JPG,,ISIC_0033603.JPG,,26,true,0.4500000000000003,hl,keypress(j),0,false,575680.5,575680.2000007629,570803.854,570886.1000003815,570804.8,575609,1,40,9,
sequence,flow.Sequence,6_8,2024-03-04T20:28:26.157Z,,,,,,,,,,,4875.400000762893,completion,,,,,,,high,low,,,,,,,true,,,,,false,575681,575680.2000007629,570803.854,570886.1000003815,570804.8,575609,1,40,,
trial,html.Screen,6_9_0,2024-03-04T20:28:29.963Z,,,,1,1.2600330864275875,1.0958628838888655,,,true,ll,3877.300000190735,response,-0.9778659253485126,1.2,-1.2,-1.073781767171294,1.2,-1.2,low,low,,ISIC_0026996.JPG,,ISIC_0067733.JPG,,288,true,0.40000000000000024,ll,keypress(f),0,false,579486.4000005722,579486.3000001907,575605.648,575681.3000001907,575609,579411.9,1,40,10,
sequence,flow.Sequence,6_9,2024-03-04T20:28:29.963Z,,,,,,,,,,,3877.300000190735,completion,,,,,,,low,low,,,,,,,true,,,,,false,579486.4000005722,579486.3000001907,575605.648,575681.2000007629,575609,579411.9,1,40,,
trial,html.Screen,6_10_0,2024-03-04T20:28:34.275Z,,,,1,-1.266079261381142,-1.312161506160336,,,true,hh,4386.000000572181,response,1.2600330864275875,1.2,-1.2,1.0958628838888655,1.2,-1.2,high,high,,ISIC_0065449.JPG,,ISIC_0026996.JPG,,25,true,0.14,hh,keypress(i),0,false,583798,583797.9000005722,579395.4,579486.5,579411.9,583733.4,1,40,11,
sequence,flow.Sequence,6_10,2024-03-04T20:28:34.275Z,,,,,,,,,,,4386.000000572181,completion,,,,,,,high,high,,,,,,,true,,,,,false,583798.1000003815,583797.9000005722,579395.4,579486.5,579411.9,583733.4,1,40,,
trial,html.Screen,6_11_0,2024-03-04T20:28:36.611Z,,,,1,0.9653573371180936,-0.854766800381037,,,true,lh,2400.300000762916,response,-1.045301444872812,1.2,-1.2,1.0872560254441277,1.2,-1.2,low,high,,ISIC_9640145.JPG,,ISIC_4507700.JPG,,27,true,0.40000000000000024,lh,keypress(e),0,false,586133.7000007629,586133.7000007629,583712.668,583798.1000003815,583733.4,586084.1,1,40,12,
sequence,flow.Sequence,6_11,2024-03-04T20:28:36.611Z,,,,,,,,,,,2400.300000762916,completion,,,,,,,low,high,,,,,,,true,,,,,false,586133.9000005722,586133.7000007629,583712.668,583798.1000003815,583733.4,586084.1,1,40,,
trial,html.Screen,6_12_0,2024-03-04T20:28:38.938Z,,,,1,0.7882758084023446,-0.8296405881378283,,,true,lh,2377.500000381493,response,-0.7723423895392068,1.2,-1.2,0.7630051745722757,1.2,-1.2,low,high,,ISIC_0065882.JPG,,ISIC_9694911.JPG,,40,true,0.4500000000000003,lh,keypress(e),0,false,588461.6000003815,588461.6000003815,586067.4,586133.9000005722,586084.1,588386,1,40,13,
sequence,flow.Sequence,6_12,2024-03-04T20:28:38.939Z,,,,,,,,,,,2377.500000381493,completion,,,,,,,low,high,,,,,,,true,,,,,false,588461.6000003815,588461.6000003815,586067.4,586133.9000005722,586084.1,588386,1,40,,
trial,html.Screen,6_13_0,2024-03-04T20:28:42.907Z,,,,1,-0.8500530224490773,1.0893360711742854,,,true,hl,4043.7000007629395,response,1.2578167348825195,1.2,-1.2,-0.8371819698254004,1.2,-1.2,high,low,,ISIC_2998367.JPG,,ISIC_9613570.JPG,,26,true,0.4500000000000003,hl,keypress(j),0,false,592429.7000007629,592429.7000007629,588384.78,588461.7000007629,588386,592356,1,40,14,
sequence,flow.Sequence,6_13,2024-03-04T20:28:42.907Z,,,,,,,,,,,4043.7000007629395,completion,,,,,,,high,low,,,,,,,true,,,,,false,592429.9000005722,592429.7000007629,588384.78,588461.7000007629,588386,592356,1,40,,
trial,html.Screen,6_14_0,2024-03-04T20:28:44.859Z,,,,1,1.1409143352872226,1.1323007949069106,,,true,ll,2025.7000007629395,response,-1.5802458134521296,1.2,-1.2,-0.9897762612081872,1.2,-1.2,low,low,,ISIC_0030291.JPG,,ISIC_0062048.JPG,,288,true,0.40000000000000024,ll,keypress(f),0,false,594381.8000001907,594381.7000007629,592339.2,592429.9000005722,592356,594307.5,1,40,15,
sequence,flow.Sequence,6_14,2024-03-04T20:28:44.859Z,,,,,,,,,,,2025.7000007629395,completion,,,,,,,low,low,,,,,,,true,,,,,false,594381.9000005722,594381.7000007629,592339.2,592429.9000005722,592356,594307.5,1,40,,
trial,html.Screen,6_15_0,2024-03-04T20:28:47.498Z,,,,1,1.0943527860463682,1.124481746658104,,,true,ll,2714,response,-1.1441767540243375,1.2,-1.2,-1.0949087392471728,1.2,-1.2,low,low,,ISIC_0438136.JPG,,ISIC_0054146.JPG,,40,true,0.14,ll,keypress(f),0,false,597021.7000007629,597021.5,594290.9,594382,594307.5,596943.1,1,40,16,
sequence,flow.Sequence,6_15,2024-03-04T20:28:47.499Z,,,,,,,,,,,2714,completion,,,,,,,low,low,,,,,,,true,,,,,false,597021.7000007629,597021.5,594290.9,594382,594307.5,596943.1,1,40,,
trial,html.Screen,6_16_0,2024-03-04T20:28:49.963Z,,,,1,-1.071312313440387,-1.0935391476164529,,,true,hh,2542.6000007629627,response,1.2724293858920366,1.2,-1.2,1.149360738769835,1.2,-1.2,high,high,,ISIC_0063680.JPG,,ISIC_1264725.JPG,,25,true,0.14,hh,keypress(i),0,false,599485.8000001907,599485.7000007629,596926.3,597021.8000001907,596943.1,599411.8,1,40,17,
sequence,flow.Sequence,6_16,2024-03-04T20:28:49.963Z,,,,,,,,,,,2542.6000007629627,completion,,,,,,,high,high,,,,,,,true,,,,,false,599485.8000001907,599485.7000007629,596926.3,597021.8000001907,596943.1,599411.8,1,40,,
trial,html.Screen,6_17_0,2024-03-04T20:28:51.411Z,,,,1,-1.1746004947382946,-1.2207657619249948,,,true,hh,1522.100000572158,response,1.2600330864275875,1.2,-1.2,1.0958628838888655,1.2,-1.2,high,high,,ISIC_0012069.JPG,,ISIC_0026996.JPG,,25,true,0.14,hh,keypress(i),0,false,600934,600933.9000005722,599395.1,599485.8000001907,599411.8,600863,1,40,18,
sequence,flow.Sequence,6_17,2024-03-04T20:28:51.411Z,,,,,,,,,,,1522.100000572158,completion,,,,,,,high,high,,,,,,,true,,,,,false,600934.1000003815,600933.9000005722,599395.1,599485.8000001907,599411.8,600863,1,40,,
trial,html.Screen,6_18_0,2024-03-04T20:28:52.707Z,,,,1,-1.2033647433750492,-1.0718012192341555,,,true,hh,1366.8000001907349,response,1.2804054832904397,1.2,-1.2,1.171271535505083,1.2,-1.2,high,high,,ISIC_0061606.JPG,,ISIC_7889838.JPG,,25,true,0.14,hh,keypress(i),0,false,602229.9000005722,602229.8000001907,600846.3,600934.2000007629,600863,602164.8,1,40,19,
sequence,flow.Sequence,6_18,2024-03-04T20:28:52.707Z,,,,,,,,,,,1366.8000001907349,completion,,,,,,,high,high,,,,,,,true,,,,,false,602229.9000005722,602229.8000001907,600846.3,600934.1000003815,600863,602164.8,1,40,,
trial,html.Screen,6_19_0,2024-03-04T20:28:54.003Z,,,,1,-1.082709423673037,-1.1184338818466155,,,true,hh,1360.8000003814232,response,1.1684835186766898,1.2,-1.2,1.2921331918483707,1.2,-1.2,high,high,,ISIC_0058666.JPG,,ISIC_5920470.JPG,,25,true,0.14,hh,keypress(i),0,false,603525.7000007629,603525.6000003815,602147.088,602229.9000005722,602164.8,603448.4,1,40,20,
sequence,flow.Sequence,6_19,2024-03-04T20:28:54.003Z,,,,,,,,,,,1360.8000003814232,completion,,,,,,,high,high,,,,,,,true,,,,,false,603525.9000005722,603525.6000003815,602147.088,602229.9000005722,602164.8,603448.4,1,40,,
trial,html.Screen,6_20_0,2024-03-04T20:28:55.211Z,,,,1,-0.90812608370647,1.2720026872926935,,,true,hl,1285.3000007629162,response,0.7991459998473059,1.2,-1.2,-1.0280788723474688,1.2,-1.2,high,low,,ISIC_0450295.JPG,,ISIC_7951202.JPG,,26,true,0.4500000000000003,hl,keypress(j),0,false,604733.8000001907,604733.7000007629,603448.188,603525.9000005722,603448.4,604666.1,1,40,21,
sequence,flow.Sequence,6_20,2024-03-04T20:28:55.211Z,,,,,,,,,,,1285.3000007629162,completion,,,,,,,high,low,,,,,,,true,,,,,false,604733.9000005722,604733.7000007629,603448.188,603525.9000005722,603448.4,604666.1,1,40,,
trial,html.Screen,6_21_0,2024-03-04T20:28:56.595Z,,,,1,1.0453124399868816,-0.8986747280184286,,,true,lh,1451.500000381493,response,-0.9089402323867112,1.2,-1.2,0.8034544077281132,1.2,-1.2,low,high,,ISIC_0013967.JPG,,ISIC_3585381.JPG,,27,true,0.40000000000000024,lh,keypress(e),0,false,606117.7000007629,606117.6000003815,604649.5,604733.9000005722,604666.1,606050.6,1,40,22,
sequence,flow.Sequence,6_21,2024-03-04T20:28:56.595Z,,,,,,,,,,,1451.500000381493,completion,,,,,,,low,high,,,,,,,true,,,,,false,606117.8000001907,606117.6000003815,604649.5,604733.9000005722,604666.1,606050.6,1,40,,
trial,html.Screen,6_22_0,2024-03-04T20:28:57.819Z,,,,1,-1.1302628852630028,-1.288906469447243,,,true,hh,1290.9000000000233,response,1.5111131740087482,1.2,-1.2,1.2323628206896138,1.2,-1.2,high,high,,ISIC_0071050.JPG,,ISIC_6588982.JPG,,265,true,0.4500000000000003,hh,keypress(i),0,false,607341.7000007629,607341.5,606033.9,606117.8000001907,606050.6,607268.3,1,40,23,
sequence,flow.Sequence,6_22,2024-03-04T20:28:57.819Z,,,,,,,,,,,1290.9000000000233,completion,,,,,,,high,high,,,,,,,true,,,,,false,607341.7000007629,607341.5,606033.9,606117.8000001907,606050.6,607268.3,1,40,,
trial,html.Screen,6_23_0,2024-03-04T20:28:59.282Z,,,,1,0.8828738626295417,-0.8288177599439582,,,true,lh,1537.1999999999534,response,-1.168911077628813,1.2,-1.2,1.2181838235193114,1.2,-1.2,low,high,,ISIC_0056041.JPG,,ISIC_7358691.JPG,,27,true,0.40000000000000024,lh,keypress(e),0,false,608805.7000007629,608805.5,607268.024,607341.8000001907,607268.3,608736.1,1,40,24,
sequence,flow.Sequence,6_23,2024-03-04T20:28:59.283Z,,,,,,,,,,,1537.1999999999534,completion,,,,,,,low,high,,,,,,,true,,,,,false,608805.7000007629,608805.5,607268.024,607341.8000001907,607268.3,608736.1,1,40,,
trial,html.Screen,6_24_0,2024-03-04T20:29:00.331Z,,,,1,-0.9244148283103414,0.9712966348713286,,,true,hl,1117.8000005722279,response,0.8513427412482127,1.2,-1.2,-0.9295303568095064,1.2,-1.2,high,low,,ISIC_7927525.JPG,,ISIC_0034164.JPG,,26,true,0.4500000000000003,hl,keypress(j),0,false,609853.9000005722,609853.9000005722,608719.5,608805.8000001907,608736.1,609803.7,1,40,25,
sequence,flow.Sequence,6_24,2024-03-04T20:29:00.331Z,,,,,,,,,,,1117.8000005722279,completion,,,,,,,high,low,,,,,,,true,,,,,false,609854,609853.9000005722,608719.5,608805.8000001907,608736.1,609803.7,1,40,,
trial,html.Screen,6_25_0,2024-03-04T20:29:01.786Z,,,,1,-1.0788024398087033,0.9911875460374616,,,true,hl,1505.9000003815163,response,0.8110121381849364,1.2,-1.2,-0.7563142141851558,1.2,-1.2,high,low,,ISIC_5951430.JPG,,ISIC_0033605.JPG,,26,true,0.4500000000000003,hl,keypress(j),0,false,611309.7000007629,611309.6000003815,609787.1,609854.1000003815,609803.7,611238.3,1,40,26,
sequence,flow.Sequence,6_25,2024-03-04T20:29:01.787Z,,,,,,,,,,,1505.9000003815163,completion,,,,,,,high,low,,,,,,,true,,,,,false,611309.7000007629,611309.6000003815,609787.1,609854,609803.7,611238.3,1,40,,
trial,html.Screen,6_26_0,2024-03-04T20:29:03.066Z,,,,1,1.3379750533585932,1.1671342614509763,,,true,ll,1351.1999999999534,response,-1.0470212693307346,1.2,-1.2,-1.097091139433204,1.2,-1.2,low,low,,ISIC_0063556.JPG,,ISIC_0068234.JPG,,288,true,0.40000000000000024,ll,keypress(f),0,false,612589.6000003815,612589.5,611221.5,611309.8000001907,611238.3,612522.6,1,40,27,
sequence,flow.Sequence,6_26,2024-03-04T20:29:03.067Z,,,,,,,,,,,1351.1999999999534,completion,,,,,,,low,low,,,,,,,true,,,,,false,612589.7000007629,612589.5,611221.5,611309.7000007629,611238.3,612522.6,1,40,,
trial,html.Screen,6_27_0,2024-03-04T20:29:04.242Z,,,,1,-1.168911077628813,1.2181838235193114,,,true,hl,1243.000000381493,response,1.2362557973341337,1.2,-1.2,-1.2548266183352603,1.2,-1.2,high,low,,ISIC_7358691.JPG,,ISIC_0033886.JPG,,26,true,0.4500000000000003,hl,keypress(j),0,false,613765.6000003815,613765.6000003815,612505.9,612589.7000007629,612522.6,613690.2,1,40,28,
sequence,flow.Sequence,6_27,2024-03-04T20:29:04.243Z,,,,,,,,,,,1243.000000381493,completion,,,,,,,high,low,,,,,,,true,,,,,false,613765.7000007629,613765.6000003815,612505.9,612589.7000007629,612522.6,613690.2,1,40,,
trial,html.Screen,6_28_0,2024-03-04T20:29:05.651Z,,,,1,-0.8500530224490773,1.0893360711742854,,,true,hl,1483.500000762986,response,0.8719231363109603,1.2,-1.2,-0.7704280220140033,1.2,-1.2,high,low,,ISIC_2998367.JPG,,ISIC_0029453.JPG,,26,true,0.4500000000000003,hl,keypress(j),0,false,615173.8000001907,615173.7000007629,613673.5,613765.7000007629,613690.2,615109.1,1,40,29,
sequence,flow.Sequence,6_28,2024-03-04T20:29:05.651Z,,,,,,,,,,,1483.500000762986,completion,,,,,,,high,low,,,,,,,true,,,,,false,615173.9000005722,615173.7000007629,613673.5,613765.7000007629,613690.2,615109.1,1,40,,
trial,html.Screen,6_29_0,2024-03-04T20:29:11.427Z,,,,1,1.077278111180185,1.1530533996184025,,,true,ll,5840.600000762963,response,-1.0665699221890637,1.2,-1.2,-1.0106762707163983,1.2,-1.2,low,low,,ISIC_9525136.JPG,,ISIC_1630301.JPG,,288,true,0.40000000000000024,ll,keypress(f),0,false,620949.7000007629,620949.7000007629,615091.084,615173.9000005722,615109.1,620879.5,1,40,30,
sequence,flow.Sequence,6_29,2024-03-04T20:29:11.427Z,,,,,,,,,,,5840.600000762963,completion,,,,,,,low,low,,,,,,,true,,,,,false,620949.8000001907,620949.7000007629,615091.084,615173.9000005722,615109.1,620879.5,1,40,,
trial,html.Screen,6_30_0,2024-03-04T20:29:17.907Z,,,,1,-1.268445326285509,-1.173734476257662,,,true,hh,6550.200000762939,response,1.1989130276493527,1.2,-1.2,1.2666195460149832,1.2,-1.2,high,high,,ISIC_5216586.JPG,,ISIC_0031705.JPG,,25,true,0.14,hh,keypress(i),0,false,627429.8000001907,627429.7000007629,620862.7,620949.8000001907,620879.5,627351.5,1,40,31,
sequence,flow.Sequence,6_30,2024-03-04T20:29:17.907Z,,,,,,,,,,,6550.200000762939,completion,,,,,,,high,high,,,,,,,true,,,,,false,627429.9000005722,627429.7000007629,620862.7,620949.8000001907,620879.5,627351.5,1,40,,
trial,html.Screen,6_31_0,2024-03-04T20:29:23.453Z,,,,1,0.8926515927689261,-0.7935960767768927,,,true,lh,5624.5,response,-1.2646773654288392,1.2,-1.2,0.952963803634235,1.2,-1.2,low,high,,ISIC_8901371.JPG,,ISIC_1996356.JPG,,27,true,0.40000000000000024,lh,keypress(e),0,false,632976.3000001907,632976,627346.714,627429.9000005722,627351.5,632906.2,1,40,32,
sequence,flow.Sequence,6_31,2024-03-04T20:29:23.454Z,,,,,,,,,,,5624.5,completion,,,,,,,low,high,,,,,,,true,,,,,false,632976.7000007629,632976,627346.714,627429.9000005722,627351.5,632906.2,1,40,,
trial,html.Screen,6_32_0,2024-03-04T20:29:29.077Z,,,,1,-1.0849202097813322,-1.0851127310415287,,,true,hh,5693.700000572251,response,0.8044219203899928,1.2,-1.2,0.7681076927463542,1.2,-1.2,high,high,,ISIC_0010289.JPG,,ISIC_0028768.JPG,,265,true,0.4500000000000003,hh,keypress(i),0,false,638600.2000007629,638599.9000005722,632889.3,632976.9000005722,632906.2,638540.514,1,40,33,
sequence,flow.Sequence,6_32,2024-03-04T20:29:29.077Z,,,,,,,,,,,5693.700000572251,completion,,,,,,,high,high,,,,,,,true,,,,,false,638600.6000003815,638599.9000005722,632889.3,632976.8000001907,632906.2,638540.514,1,40,,
trial,html.Screen,6_33_0,2024-03-04T20:29:32.982Z,,,,1,1.2054195059663604,-0.7760611240296147,,,false,lh,3964.2860001907684,response,-1.045301444872812,1.2,-1.2,1.0872560254441277,1.2,-1.2,low,high,,ISIC_8712559.JPG,,ISIC_4507700.JPG,,27,true,0.40000000000000024,ll,keypress(f),0,false,642505.3000001907,642504.8000001907,638540.514,638600.7000007629,638540.514,642430.8,1,40,34,
sequence,flow.Sequence,6_33,2024-03-04T20:29:32.983Z,,,,,,,,,,,3964.2860001907684,completion,,,,,,,low,high,,,,,,,true,,,,,false,642506,642504.8000001907,638540.514,638600.7000007629,638540.514,642430.8,1,40,,
trial,html.Screen,6_34_0,2024-03-04T20:29:41.459Z,,,,1,0.8472024037189965,-0.986370061404882,,,true,lh,8551.199999999953,response,-0.9544693251394116,1.2,-1.2,1.0727539917203766,1.2,-1.2,low,high,,ISIC_0054355.JPG,,ISIC_0055147.JPG,,40,true,0.4500000000000003,lh,keypress(e),0,false,650982.2000007629,650982,642428.418,642506.3000001907,642430.8,650904.4,1,40,35,
sequence,flow.Sequence,6_34,2024-03-04T20:29:41.459Z,,,,,,,,,,,8551.199999999953,completion,,,,,,,low,high,,,,,,,true,,,,,false,650982.3000001907,650982,642428.418,642506.3000001907,642430.8,650904.4,1,40,,
trial,html.Screen,6_35_0,2024-03-04T20:29:44.525Z,,,,1,1.2219550761700546,1.2809901875733454,,,true,ll,3143.7000003814464,response,-1.5802458134521296,1.2,-1.2,-0.9897762612081872,1.2,-1.2,low,low,,ISIC_6463417.JPG,,ISIC_0062048.JPG,,359,true,0.4500000000000003,ll,keypress(f),0,false,654048.5,654048.1000003815,650898.168,650982.3000001907,650904.4,653988.85,1,40,36,
sequence,flow.Sequence,6_35,2024-03-04T20:29:44.526Z,,,,,,,,,,,3143.7000003814464,completion,,,,,,,low,low,,,,,,,true,,,,,false,654048.8000001907,654048.1000003815,650898.168,650982.3000001907,650904.4,653988.85,1,40,,
trial,html.Screen,6_36_0,2024-03-04T20:29:45.565Z,,,,1,1.2362557973341337,-1.2548266183352603,,,true,lh,1099.3500007629627,response,-0.8500530224490773,1.2,-1.2,1.0893360711742854,1.2,-1.2,low,high,,ISIC_0033886.JPG,,ISIC_2998367.JPG,,27,true,0.40000000000000024,lh,keypress(e),0,false,655088.5,655088.2000007629,653988.85,654049.1000003815,653988.85,655024.7,1,40,37,
sequence,flow.Sequence,6_36,2024-03-04T20:29:45.566Z,,,,,,,,,,,1099.3500007629627,completion,,,,,,,low,high,,,,,,,true,,,,,false,655089,655088.2000007629,653988.85,654049,653988.85,655024.7,1,40,,
trial,html.Screen,6_37_0,2024-03-04T20:29:56.787Z,,,,1,0.9754077946987664,-1.1821868813141057,,,true,lh,11285.200000572251,response,-1.423867498658875,1.2,-1.2,0.7901771595160324,1.2,-1.2,low,high,,ISIC_0024317.JPG,,ISIC_3136228.JPG,,40,true,0.4500000000000003,lh,keypress(e),0,false,666310.1000003815,666309.9000005722,655008.066,655089.2000007629,655024.7,666233.8,1,40,38,
sequence,flow.Sequence,6_37,2024-03-04T20:29:56.787Z,,,,,,,,,,,11285.200000572251,completion,,,,,,,low,high,,,,,,,true,,,,,false,666310.3000001907,666309.9000005722,655008.066,655089.1000003815,655024.7,666233.8,1,40,,
trial,html.Screen,6_38_0,2024-03-04T20:30:00.541Z,,,,1,-1.0685314915436992,0.8203833713472237,,,true,hl,3830.100000572158,response,1.2362557973341337,1.2,-1.2,-1.2548266183352603,1.2,-1.2,high,low,,ISIC_0029374.JPG,,ISIC_0033886.JPG,,26,true,0.4500000000000003,hl,keypress(j),0,false,670064.3000001907,670063.9000005722,666225.092,666310.3000001907,666233.8,669986.7,1,40,39,
sequence,flow.Sequence,6_38,2024-03-04T20:30:00.542Z,,,,,,,,,,,3830.100000572158,completion,,,,,,,high,low,,,,,,,true,,,,,false,670064.8000001907,670063.9000005722,666225.092,666310.3000001907,666233.8,669986.7,1,40,,
trial,html.Screen,6_39_0,2024-03-04T20:30:05.237Z,,,,1,1.1989130276493527,1.2666195460149832,,,true,ll,4773.600000190781,response,-1.1325589611397748,1.2,-1.2,-1.3836342313293748,1.2,-1.2,low,low,,ISIC_0031705.JPG,,ISIC_0026188.JPG,,288,true,0.40000000000000024,ll,keypress(f),0,false,674760.7000007629,674760.3000001907,669984.59,670065.1000003815,669986.7,674690.7,1,40,40,
sequence,flow.Sequence,6_39,2024-03-04T20:30:05.238Z,,,,,,,,,,,4773.600000190781,completion,,,,,,,low,low,,,,,,,true,,,,,false,674761.2000007629,674760.3000001907,669984.59,670065.1000003815,669986.7,674690.7,1,40,,
practice_loop,flow.Loop,6,2024-03-04T20:30:05.238Z,,,,,,,,,,,139667.80000019073,completion,,,,,,,,,,,,,,,true,,,,,false,674761.5,674760.3000001907,535092.058,535166.2000007629,535092.5,674690.7,1,40,,
stair_instructions,html.Screen,7,2024-03-04T20:30:09.667Z,,,,,,,,,,,4498.800000000047,response,,,,,,,,,,,,,,,,,continue,click button,,,679190.2000007629,679189.5,674687.452,674761.7000007629,674690.7,679128,,,,
trial,html.Screen,8_0_0,2024-03-04T20:30:20.156Z,,,,2,0.0044063257337227,0.0172548282859886,,0.04,true,hh,10551.60000038147,response,1.1870093485714288,1.2,-1.2,1.3339880978442629,1.2,-1.2,high,high,,ISIC_7413786.JPG,,ISIC_8592235.JPG,28,25,false,0.14,hh,keypress(i),0,true,689679.8000001907,689679.6000003815,679111.366,679190.4000005722,679128,689619.9,1,40,1,
sequence,flow.Sequence,8_0,2024-03-04T20:30:20.157Z,,,,,,,,,,,10551.60000038147,completion,,,,,,,high,high,,,,,,,false,,,,,true,689679.9000005722,689679.6000003815,679111.366,679190.4000005722,679128,689619.9,1,40,,
trial,html.Screen,8_1_0,2024-03-04T20:30:26.374Z,,,,2,0.0119001144851157,-0.0063430114540141,,0.04,true,ll,6276.900000190712,response,-1.236306205926646,1.15,-1.15,-1.116612676102794,1.15,-1.15,low,low,,ISIC_0003822.JPG,,ISIC_0054341.JPG,28,27,false,0.1,ll,keypress(f),0,true,695897.1000003815,695896.8000001907,689603.3,689679.9000005722,689619.9,695824.9,1,40,2,
sequence,flow.Sequence,8_1,2024-03-04T20:30:26.374Z,,,,,,,,,,,6276.900000190712,completion,,,,,,,low,low,,,,,,,false,,,,,true,695897.7000007629,695896.8000001907,689603.3,689679.9000005722,689619.9,695824.9,1,40,,
trial,html.Screen,8_2_0,2024-03-04T20:30:39.660Z,,,,2,0.0367744112927588,0.0324865661712824,,0.04,true,lh,13358.700000381446,response,-0.8544507134472948,1.15,-1.15,0.9244388608707323,1.15,-1.15,low,high,,ISIC_4523565.JPG,,ISIC_3565564.JPG,28,26,false,0.3500000000000002,lh,keypress(e),0,true,709183.7000007629,709183.6000003815,695820.458,695897.9000005722,695824.9,709108.676,1,40,3,
sequence,flow.Sequence,8_2,2024-03-04T20:30:39.661Z,,,,,,,,,,,13358.700000381446,completion,,,,,,,low,high,,,,,,,false,,,,,true,709183.9000005722,709183.6000003815,695820.458,695897.9000005722,695824.9,709108.676,1,40,,
trial,html.Screen,8_3_0,2024-03-04T20:30:51.678Z,,,,2,0.0009714874637896,-0.0174815595031679,,0.04,true,hl,12092.024000762962,response,1.0329549150636406,1.15,-1.0999999999999999,-1.01584100839286,1.0999999999999999,-1.15,high,low,,ISIC_9848743.JPG,,ISIC_0054670.JPG,28,26,false,0.40000000000000024,hl,keypress(j),0,true,721201.1000003815,721200.7000007629,709108.676,709183.9000005722,709108.676,721129.3,1,40,4,
sequence,flow.Sequence,8_3,2024-03-04T20:30:51.678Z,,,,,,,,,,,12092.024000762962,completion,,,,,,,high,low,,,,,,,false,,,,,true,721201.7000007629,721200.7000007629,709108.676,709183.9000005722,709108.676,721129.3,1,40,,
trial,html.Screen,8_4_0,2024-03-04T20:31:01.364Z,,,,2,-0.0109416414475118,-0.005246498750811,,0.04,false,ll,9758.000000190688,response,-1.0437879361189135,1.0999999999999999,-1.0999999999999999,-1.0467954238943018,1.0999999999999999,-1.016226842247827,low,low,,ISIC_0064279.JPG,,ISIC_0011626.JPG,28,27,false,0.1,hl,keypress(j),0,true,730887.4000005722,730887.3000001907,721119.66,721202,721129.3,730820.4,1,40,5,
sequence,flow.Sequence,8_4,2024-03-04T20:31:01.364Z,,,,,,,,,,,9758.000000190688,completion,,,,,,,low,low,,,,,,,false,,,,,true,730887.5,730887.3000001907,721119.66,721201.8000001907,721129.3,730820.4,1,40,,
trial,html.Screen,8_5_0,2024-03-04T20:31:04.198Z,,,,2,0.0076984477620101,0.0069458408496562,,0.04,true,hh,2900.300000762916,response,1.1441960791049337,1.0999999999999999,-1.15,1.0156321899655198,1.0999999999999999,-1.016226842247827,high,high,,ISIC_0000434.JPG,,ISIC_4023381.JPG,28,32,false,0.13,hh,keypress(i),0,true,733721,733720.7000007629,730803.9,730887.6000003815,730820.4,733656.3,1,40,6,
sequence,flow.Sequence,8_5,2024-03-04T20:31:04.198Z,,,,,,,,,,,2900.300000762916,completion,,,,,,,high,high,,,,,,,false,,,,,true,733721.5,733720.7000007629,730803.9,730887.6000003815,730820.4,733656.3,1,40,,
trial,html.Screen,8_6_0,2024-03-04T20:31:10.910Z,,,,2,-0.0199950873045219,-0.0172506388509166,,0.04,false,ll,6776.300000381423,response,-1.219634566983089,1.0999999999999999,-1.15,-1.0648460966097275,1.0999999999999999,-1.016226842247827,low,low,,ISIC_0029906.JPG,,ISIC_0030552.JPG,28,33,false,0.11,lh,keypress(e),0,true,740432.9000005722,740432.6000003815,733638.16,733721.8000001907,733656.3,740361.9,1,40,7,
sequence,flow.Sequence,8_6,2024-03-04T20:31:10.910Z,,,,,,,,,,,6776.300000381423,completion,,,,,,,low,low,,,,,,,false,,,,,true,740433.5,740432.6000003815,733638.16,733721.8000001907,733656.3,740361.9,1,40,,
trial,html.Screen,8_7_0,2024-03-04T20:31:14.270Z,,,,2,0.0200295718112167,0.0155559071275806,,0.04,true,ll,3430.7000003814464,response,-1.063036912656269,1.0999999999999999,-1.15,-1.1534875859179432,1.0999999999999999,-1.066226842247827,low,low,,ISIC_0061343.JPG,,ISIC_0010772.JPG,28,27,false,0.1,ll,keypress(f),0,true,743793,743792.6000003815,740356.938,740433.8000001907,740361.9,743714.6,1,40,8,
sequence,flow.Sequence,8_7,2024-03-04T20:31:14.270Z,,,,,,,,,,,3430.7000003814464,completion,,,,,,,low,low,,,,,,,false,,,,,true,743793.6000003815,743792.6000003815,740356.938,740433.7000007629,740361.9,743714.6,1,40,,
trial,html.Screen,8_8_0,2024-03-04T20:31:17.637Z,,,,2,-0.0374659946425444,-0.0086043094957617,,0.04,true,ll,3445.500000381493,response,-1.0879680624915455,1.0999999999999999,-1.058262249287106,-0.9819300422707804,1.0999999999999999,-1.066226842247827,low,low,,ISIC_0033051.JPG,,ISIC_0011369.JPG,28,41,false,0.1,ll,keypress(f),0,true,747160.5,747160.1000003815,743712.706,743793.8000001907,743714.6,747084,1,40,9,
sequence,flow.Sequence,8_8,2024-03-04T20:31:17.638Z,,,,,,,,,,,3445.500000381493,completion,,,,,,,low,low,,,,,,,false,,,,,true,747161,747160.1000003815,743712.706,743793.8000001907,743714.6,747084,1,40,,
trial,html.Screen,8_9_0,2024-03-04T20:31:25.253Z,,,,2,0.0367706518941078,-0.0161069838272154,,0.04,false,lh,7692.300000190735,response,-1.2646773654288392,1.0999999999999999,-1.058262249287106,0.952963803634235,1.0999999999999999,-0.984949052381163,low,high,,ISIC_0033419.JPG,,ISIC_1996356.JPG,28,25,false,0.28000000000000014,hh,keypress(i),0,true,754776.7000007629,754776.3000001907,747082.172,747161.2000007629,747084,754706.9,1,40,10,
sequence,flow.Sequence,8_9,2024-03-04T20:31:25.254Z,,,,,,,,,,,7692.300000190735,completion,,,,,,,low,high,,,,,,,false,,,,,true,754777.1000003815,754776.3000001907,747082.172,747161.1000003815,747084,754706.9,1,40,,
trial,html.Screen,8_10_0,2024-03-04T20:31:27.643Z,,,,2,-0.0241900387072296,0.0339955304424736,,0.04,false,hl,2459.300000762916,response,0.8830264383952469,1.0999999999999999,-1.1082622492871061,-0.8635562538060516,1.0499999999999998,-0.984949052381163,high,low,,ISIC_0010789.JPG,,ISIC_0032258.JPG,28,25,false,0.28000000000000014,hh,keypress(i),0,true,757166.2000007629,757166.2000007629,754701.436,754777.3000001907,754706.9,757092.1,1,40,11,
sequence,flow.Sequence,8_10,2024-03-04T20:31:27.643Z,,,,,,,,,,,2459.300000762916,completion,,,,,,,high,low,,,,,,,false,,,,,true,757166.4000005722,757166.2000007629,754701.436,754777.3000001907,754706.9,757092.1,1,40,,
trial,html.Screen,8_11_0,2024-03-04T20:31:34.261Z,,,,2,0.0119001144851157,-0.0063430114540141,,0.04,true,lh,6691.700000190758,response,-1.004142980655507,1.0499999999999998,-1.1082622492871061,0.7749773174967559,1.0499999999999998,-1.034949052381163,low,high,,ISIC_0003822.JPG,,ISIC_3936223.JPG,28,28,false,0.28000000000000014,lh,keypress(e),0,true,763784.1000003815,763783.8000001907,757091.178,757166.4000005722,757092.1,763714.2,1,40,12,
sequence,flow.Sequence,8_11,2024-03-04T20:31:34.261Z,,,,,,,,,,,6691.700000190758,completion,,,,,,,low,high,,,,,,,false,,,,,true,763784.7000007629,763783.8000001907,757091.178,757166.4000005722,757092.1,763714.2,1,40,,
trial,html.Screen,8_12_0,2024-03-04T20:31:42.230Z,,,,2,-0.039520186367207,-0.0377961575607372,,0.04,true,hl,8038.400000381516,response,0.8719231363109603,1.0499999999999998,-1.1082622492871061,-0.7704280220140033,1.0499999999999998,-1.034949052381163,high,low,,ISIC_6356149.JPG,,ISIC_0029453.JPG,28,25,false,0.30000000000000016,hl,keypress(j),0,true,771753,771752.6000003815,763709.742,763784.9000005722,763714.2,771687.5,1,40,13,
sequence,flow.Sequence,8_12,2024-03-04T20:31:42.230Z,,,,,,,,,,,8038.400000381516,completion,,,,,,,high,low,,,,,,,false,,,,,true,771753.5,771752.6000003815,763709.742,763784.8000001907,763714.2,771687.5,1,40,,
trial,html.Screen,8_13_0,2024-03-04T20:31:45.413Z,,,,2,0.0258224118104549,-0.0029364553353019,,0.04,false,lh,3248.5,response,-0.9662688541319592,1.0499999999999998,-1.1082622492871061,0.929746784178986,1.0499999999999998,-1.034949052381163,low,high,,ISIC_8325226.JPG,,ISIC_0011077.JPG,28,28,false,0.28000000000000014,ll,keypress(f),0,true,774936.3000001907,774936,771681.788,771753.7000007629,771687.5,774856.9,1,40,14,
sequence,flow.Sequence,8_13,2024-03-04T20:31:45.413Z,,,,,,,,,,,3248.5,completion,,,,,,,low,high,,,,,,,false,,,,,true,774936.7000007629,774936,771681.788,771753.6000003815,771687.5,774856.9,1,40,,
trial,html.Screen,8_14_0,2024-03-04T20:31:50.318Z,,,,2,0.0118382036798625,0.0300588245877227,,0.04,false,ll,4983.500000572181,response,-0.7497331641141682,1.0499999999999998,-0.8183484380729812,-0.9543531879821028,1.0999999999999999,-1.034949052381163,low,low,,ISIC_4748605.JPG,,ISIC_0067801.JPG,28,33,false,0.1,hh,keypress(i),0,true,779840.9000005722,779840.4000005722,774854.98,774936.9000005722,774856.9,779760.9,1,40,15,
sequence,flow.Sequence,8_14,2024-03-04T20:31:50.318Z,,,,,,,,,,,4983.500000572181,completion,,,,,,,low,low,,,,,,,false,,,,,true,779841.4000005722,779840.4000005722,774854.98,774936.9000005722,774856.9,779760.9,1,40,,
trial,html.Screen,8_15_0,2024-03-04T20:31:52.262Z,,,,2,-0.0164027439304477,0.0082910758715273,,0.04,true,hh,2023.8000007629162,response,1.0943527860463682,1.0499999999999998,-0.8683484380729812,1.124481746658104,1.0999999999999999,-1.0849490523811631,high,high,,ISIC_7381224.JPG,,ISIC_0438136.JPG,28,27,false,0.12,hh,keypress(i),0,true,781785.1000003815,781784.7000007629,779757.644,779841.8000001907,779760.9,781712.4,1,40,16,
sequence,flow.Sequence,8_15,2024-03-04T20:31:52.262Z,,,,,,,,,,,2023.8000007629162,completion,,,,,,,high,high,,,,,,,false,,,,,true,781785.7000007629,781784.7000007629,779757.644,779841.7000007629,779760.9,781712.4,1,40,,
trial,html.Screen,8_16_0,2024-03-04T20:31:59.949Z,,,,2,0.0044063257337227,0.0172548282859886,,0.04,false,hl,7759.500000572181,response,0.8926515927689261,1.059417266352236,-0.8683484380729812,-0.7935960767768927,1.0999999999999999,-1.0849490523811631,high,low,,ISIC_7413786.JPG,,ISIC_8901371.JPG,28,25,false,0.3200000000000002,lh,keypress(e),0,true,789472.3000001907,789471.9000005722,781711.762,781786,781712.4,789402.2,1,40,17,
sequence,flow.Sequence,8_16,2024-03-04T20:31:59.949Z,,,,,,,,,,,7759.500000572181,completion,,,,,,,high,low,,,,,,,false,,,,,true,789472.7000007629,789471.9000005722,781711.762,781785.9000005722,781712.4,789402.2,1,40,,
trial,html.Screen,8_17_0,2024-03-04T20:32:02.294Z,,,,2,0,-0.0102871556606504,,0.04,true,hh,2414.6000001907814,response,1.151139267005652,1.1094172663522361,-0.8683484380729812,1.0838749490501327,1.0999999999999999,-1.1349490523811632,high,high,,ISIC_1805163.JPG,,ISIC_0002566.JPG,28,31,false,0.13,hh,keypress(i),0,true,791817.1000003815,791816.8000001907,789396.466,789472.9000005722,789402.2,791737.5,1,40,18,
sequence,flow.Sequence,8_17,2024-03-04T20:32:02.294Z,,,,,,,,,,,2414.6000001907814,completion,,,,,,,high,high,,,,,,,false,,,,,true,791817.7000007629,791816.8000001907,789396.466,789472.8000001907,789402.2,791737.5,1,40,,
trial,html.Screen,8_18_0,2024-03-04T20:32:06.077Z,,,,2,-0.0065172941585523,0.0118857043117315,,0.04,true,hh,3862.800000190735,response,1.001866590114321,1.1094172663522361,-0.8683484380729812,1.080719641270871,1.0675071080278922,-1.1349490523811632,high,high,,ISIC_6119202.JPG,,ISIC_0663941.JPG,28,26,false,0.11,hh,keypress(i),0,true,795600.7000007629,795600.3000001907,791736.48,791817.9000005722,791737.5,795523.9,1,40,19,
sequence,flow.Sequence,8_18,2024-03-04T20:32:06.078Z,,,,,,,,,,,3862.800000190735,completion,,,,,,,high,high,,,,,,,false,,,,,true,795601.1000003815,795600.3000001907,791736.48,791817.8000001907,791737.5,795523.9,1,40,,
trial,html.Screen,8_19_0,2024-03-04T20:32:10.042Z,,,,2,-0.0199950873045219,-0.0172506388509166,,0.04,false,hl,4041.800000762916,response,0.7518277461369444,0.9912931156925959,-0.8683484380729812,-1.3860759020802074,1.0675071080278922,-1.1349490523811632,high,low,,ISIC_0029906.JPG,,ISIC_7967397.JPG,28,26,false,0.31000000000000016,hh,keypress(i),0,true,799565.9000005722,799565.7000007629,795521.722,795601.4000005722,795523.9,799493.7,1,40,20,
sequence,flow.Sequence,8_19,2024-03-04T20:32:10.043Z,,,,,,,,,,,4041.800000762916,completion,,,,,,,high,low,,,,,,,false,,,,,true,799565.9000005722,799565.7000007629,795521.722,795601.4000005722,795523.9,799493.7,1,40,,
trial,html.Screen,8_20_0,2024-03-04T20:32:14.109Z,,,,2,0,-0.0102871556606504,,0.04,true,ll,4138.500000762986,response,-0.9077872390456172,0.9912931156925959,-0.8683484380729812,-1.1960893075698802,1.0675071080278922,-1.1849490523811632,low,low,,ISIC_1805163.JPG,,ISIC_0072393.JPG,28,32,false,0.1,ll,keypress(f),0,true,803632.6000003815,803632.2000007629,799477.1,799565.9000005722,799493.7,803563.9,1,40,21,
sequence,flow.Sequence,8_20,2024-03-04T20:32:14.110Z,,,,,,,,,,,4138.500000762986,completion,,,,,,,low,low,,,,,,,false,,,,,true,803633,803632.2000007629,799477.1,799565.9000005722,799493.7,803563.9,1,40,,
trial,html.Screen,8_21_0,2024-03-04T20:32:19.101Z,,,,2,-0.039520186367207,-0.0377961575607372,,0.04,true,lh,5060.400000190712,response,-1.045301444872812,0.9912931156925959,-0.8683484380729812,1.0872560254441277,1.0675071080278922,-1.1849490523811632,low,high,,ISIC_6356149.JPG,,ISIC_4507700.JPG,28,25,false,0.20000000000000007,lh,keypress(e),0,true,808624.6000003815,808624.3000001907,803561.31,803633.3000001907,803563.9,808551.3,1,40,22,
sequence,flow.Sequence,8_21,2024-03-04T20:32:19.102Z,,,,,,,,,,,5060.400000190712,completion,,,,,,,low,high,,,,,,,false,,,,,true,808625,808624.3000001907,803561.31,803633.2000007629,803563.9,808551.3,1,40,,
trial,html.Screen,8_22_0,2024-03-04T20:32:25.558Z,,,,2,0.0286056110007553,0.036125199756515,,0.04,false,hl,6529.800000381423,response,0.7991459998473059,0.9912931156925959,-0.8183484380729812,-1.0280788723474688,1.0175071080278921,-1.1849490523811632,high,low,,ISIC_6535558.JPG,,ISIC_7951202.JPG,28,25,false,0.3400000000000002,lh,keypress(e),0,true,815081.6000003815,815081.1000003815,808548.074,808625.3000001907,808551.3,815006.7,1,40,23,
sequence,flow.Sequence,8_22,2024-03-04T20:32:25.559Z,,,,,,,,,,,6529.800000381423,completion,,,,,,,high,low,,,,,,,false,,,,,true,815082.2000007629,815081.1000003815,808548.074,808625.2000007629,808551.3,815006.7,1,40,,
trial,html.Screen,8_23_0,2024-03-04T20:32:27.746Z,,,,2,0.0283578106329894,-0.0088840758711548,,0.04,false,lh,2263.000000762986,response,-0.6546079444168281,1.041293115692596,-0.8183484380729812,1.1750459687878738,1.0175071080278921,-1.1849490523811632,low,high,,ISIC_0060707.JPG,,ISIC_4352700.JPG,28,26,false,0.17000000000000004,hh,keypress(i),0,true,817269.8000001907,817269.7000007629,815001.982,815082.5,815006.7,817191.7,1,40,24,
sequence,flow.Sequence,8_23,2024-03-04T20:32:27.746Z,,,,,,,,,,,2263.000000762986,completion,,,,,,,low,high,,,,,,,false,,,,,true,817269.9000005722,817269.7000007629,815001.982,815082.4000005722,815006.7,817191.7,1,40,,
trial,html.Screen,8_24_0,2024-03-04T20:32:33.594Z,,,,2,0.0118382036798625,0.0300588245877227,,0.04,false,hl,5927.300000000047,response,0.8034318937720549,1.041293115692596,-0.8683484380729812,-1.0024917298189338,1.0175071080278921,-1.1849490523811632,high,low,,ISIC_4748605.JPG,,ISIC_0032766.JPG,28,27,false,0.3600000000000002,lh,keypress(e),0,true,823119.2000007629,823119,817191.086,817269.9000005722,817191.7,823046.5,1,40,25,
sequence,flow.Sequence,8_24,2024-03-04T20:32:33.595Z,,,,,,,,,,,5927.300000000047,completion,,,,,,,high,low,,,,,,,false,,,,,true,823119.3000001907,823119,817191.086,817269.9000005722,817191.7,823046.5,1,40,,
trial,html.Screen,8_25_0,2024-03-04T20:32:39.540Z,,,,2,0.0367706518941078,-0.0161069838272154,,0.04,false,lh,6017.900000572205,response,-0.7856143618373893,1.091293115692596,-0.8683484380729812,1.0273608829432213,1.0175071080278921,-1.1849490523811632,low,high,,ISIC_0033419.JPG,,ISIC_9303849.JPG,28,28,false,0.20000000000000007,hh,keypress(i),0,true,829064.8000001907,829064.4000005722,823029.7,823119.3000001907,823046.5,828985,1,40,26,
sequence,flow.Sequence,8_25,2024-03-04T20:32:39.541Z,,,,,,,,,,,6017.900000572205,completion,,,,,,,low,high,,,,,,,false,,,,,true,829065.4000005722,829064.4000005722,823029.7,823119.3000001907,823046.5,828985,1,40,,
trial,html.Screen,8_26_0,2024-03-04T20:32:43.186Z,,,,2,-0.001445457736793,-0.0165307427449982,,0.04,false,hl,3725.800000190735,response,0.7246771568562105,1.091293115692596,-0.9183484380729813,-0.9161385080362604,1.0512034258655476,-1.1849490523811632,high,low,,ISIC_0027350.JPG,,ISIC_0028225.JPG,28,30,false,0.40000000000000024,lh,keypress(e),0,true,832711,832710.8000001907,828980.736,829065.6000003815,828985,832638.1,1,40,27,
sequence,flow.Sequence,8_26,2024-03-04T20:32:43.186Z,,,,,,,,,,,3725.800000190735,completion,,,,,,,high,low,,,,,,,false,,,,,true,832711.2000007629,832710.8000001907,828980.736,829065.6000003815,828985,832638.1,1,40,,
trial,html.Screen,8_27_0,2024-03-04T20:32:45.185Z,,,,2,-0.0164027439304477,0.0082910758715273,,0.04,true,hh,2071.700000190758,response,1.151139267005652,1.141293115692596,-0.9183484380729813,1.0838749490501327,1.0512034258655476,-1.1849490523811632,high,high,,ISIC_7381224.JPG,,ISIC_0002566.JPG,28,25,false,0.12,hh,keypress(i),0,true,834709.9000005722,834709.8000001907,832621.4,832711.3000001907,832638.1,834639.7,1,40,28,
sequence,flow.Sequence,8_27,2024-03-04T20:32:45.185Z,,,,,,,,,,,2071.700000190758,completion,,,,,,,high,high,,,,,,,false,,,,,true,834710.1000003815,834709.8000001907,832621.4,832711.3000001907,832638.1,834639.7,1,40,,
trial,html.Screen,8_28_0,2024-03-04T20:32:52.796Z,,,,2,-0.039520186367207,-0.0377961575607372,,0.04,true,lh,7681.000000762986,response,-0.8544507134472948,1.141293115692596,-0.9183484380729813,0.9244388608707323,1.0512034258655476,-1.1849490523811632,low,high,,ISIC_6356149.JPG,,ISIC_3565564.JPG,28,25,false,0.2300000000000001,lh,keypress(e),0,true,842321.2000007629,842320.7000007629,834623,834710.1000003815,834639.7,842245.7,1,40,29,
sequence,flow.Sequence,8_28,2024-03-04T20:32:52.797Z,,,,,,,,,,,7681.000000762986,completion,,,,,,,low,high,,,,,,,false,,,,,true,842321.8000001907,842320.7000007629,834623,834710.1000003815,834639.7,842245.7,1,40,,
trial,html.Screen,8_29_0,2024-03-04T20:32:55.147Z,,,,2,0.0220026381002083,-0.0170756452911772,,0.04,true,hh,2426.200000572251,response,1.1756375305897409,1.141293115692596,-0.9183484380729813,0.910735965353392,1.0012034258655476,-1.1849490523811632,high,high,,ISIC_5347806.JPG,,ISIC_0005769.JPG,28,27,false,0.12,hh,keypress(i),0,true,844672.3000001907,844671.9000005722,842240.336,842321.9000005722,842245.7,844597.7,1,40,30,
sequence,flow.Sequence,8_29,2024-03-04T20:32:55.148Z,,,,,,,,,,,2426.200000572251,completion,,,,,,,high,high,,,,,,,false,,,,,true,844672.8000001907,844671.9000005722,842240.336,842321.9000005722,842245.7,844597.7,1,40,,
trial,html.Screen,8_30_0,2024-03-04T20:33:00.403Z,,,,2,0.0283578106329894,-0.0088840758711548,,0.04,true,hl,5330.100000190781,response,1.0329549150636406,0.9931867479715664,-0.9183484380729813,-1.01584100839286,1.0012034258655476,-1.1849490523811632,high,low,,ISIC_0060707.JPG,,ISIC_0054670.JPG,28,26,false,0.3500000000000002,hl,keypress(j),0,true,849928,849927.8000001907,844596.446,844672.9000005722,844597.7,849852.1,1,40,31,
sequence,flow.Sequence,8_30,2024-03-04T20:33:00.404Z,,,,,,,,,,,5330.100000190781,completion,,,,,,,high,low,,,,,,,false,,,,,true,849928.5,849927.8000001907,844596.446,844672.9000005722,844597.7,849852.1,1,40,,
trial,html.Screen,8_31_0,2024-03-04T20:33:02.148Z,,,,2,-0.0088741920055285,-0.0058246074740588,,0.04,true,hh,1820.1000007629627,response,1.0235331176078744,0.9931867479715664,-0.9183484380729813,0.9330258572707198,1.0012034258655476,-1.1849490523811632,high,high,,ISIC_4136663.JPG,,ISIC_0026889.JPG,28,28,false,0.11,hh,keypress(i),0,true,851672.6000003815,851672.2000007629,849848.53,849928.8000001907,849852.1,851603.6,1,40,32,
sequence,flow.Sequence,8_31,2024-03-04T20:33:02.148Z,,,,,,,,,,,1820.1000007629627,completion,,,,,,,high,high,,,,,,,false,,,,,true,851673.2000007629,851672.2000007629,849848.53,849928.7000007629,849852.1,851603.6,1,40,,
trial,html.Screen,8_32_0,2024-03-04T20:33:09.385Z,,,,2,-0.0109416414475118,-0.005246498750811,,0.04,false,ll,7306.400000000023,response,-0.955888202457274,0.9431867479715663,-0.9183484380729813,-1.1636701289603852,0.9512034258655475,-1.1849490523811632,low,low,,ISIC_0064279.JPG,,ISIC_0058098.JPG,28,33,false,0.1,lh,keypress(e),0,true,858910.2000007629,858910,851587,851673.4000005722,851603.6,858843.2,1,40,33,
sequence,flow.Sequence,8_32,2024-03-04T20:33:09.386Z,,,,,,,,,,,7306.400000000023,completion,,,,,,,low,low,,,,,,,false,,,,,true,858910.3000001907,858910,851587,851673.3000001907,851603.6,858843.2,1,40,,
trial,html.Screen,8_33_0,2024-03-04T20:33:19.388Z,,,,2,-0.0198696495649504,0.0387952353063878,,0.04,false,ll,10069.300000000047,response,-0.8816667030751715,0.9431867479715663,-0.935864605425067,-1.2147105025575802,0.9512034258655475,-1.1849490523811632,low,low,,ISIC_6735970.JPG,,ISIC_0066262.JPG,28,28,false,0.1,hl,keypress(j),0,true,868912.9000005722,868912.5,858826.2,858910.3000001907,858843.2,868834.5,1,40,34,
sequence,flow.Sequence,8_33,2024-03-04T20:33:19.389Z,,,,,,,,,,,10069.300000000047,completion,,,,,,,low,low,,,,,,,false,,,,,true,868913.3000001907,868912.5,858826.2,858910.3000001907,858843.2,868834.5,1,40,,
trial,html.Screen,8_34_0,2024-03-04T20:33:22.421Z,,,,2,-0.0199950873045219,-0.0172506388509166,,0.04,true,hh,3110.7000007629395,response,0.8583713655302294,0.9431867479715663,-0.985864605425067,0.865522810053245,0.9512034258655475,-1.1849490523811632,high,high,,ISIC_0029906.JPG,,ISIC_4320200.JPG,28,39,false,0.1,hh,keypress(i),0,true,871945.5,871945.2000007629,868826.74,868913.7000007629,868834.5,871870.3,1,40,35,
sequence,flow.Sequence,8_34,2024-03-04T20:33:22.421Z,,,,,,,,,,,3110.7000007629395,completion,,,,,,,high,high,,,,,,,false,,,,,true,871946.1000003815,871945.2000007629,868826.74,868913.6000003815,868834.5,871870.3,1,40,,
trial,html.Screen,8_35_0,2024-03-04T20:33:24.642Z,,,,2,0.0367744112927588,0.0324865661712824,,0.04,true,hh,2296.400000762893,response,0.8465917022244419,0.9431867479715663,-0.985864605425067,1.0121558062445464,0.9512034258655475,-1.1849490523811632,high,high,,ISIC_4523565.JPG,,ISIC_6914698.JPG,28,39,false,0.1,hh,keypress(i),0,true,874166.9000005722,874166.7000007629,871868.752,871946.3000001907,871870.3,874088.6,1,40,36,
sequence,flow.Sequence,8_35,2024-03-04T20:33:24.642Z,,,,,,,,,,,2296.400000762893,completion,,,,,,,high,high,,,,,,,false,,,,,true,874167.2000007629,874166.7000007629,871868.752,871946.2000007629,871870.3,874088.6,1,40,,
trial,html.Screen,8_36_0,2024-03-04T20:33:28.443Z,,,,2,0.0367744112927588,0.0324865661712824,,0.04,false,lh,3878.6000007629627,response,-0.8443403196524287,0.8888393081488957,-0.985864605425067,0.8858525429102605,0.8888393081488957,-1.1849490523811632,low,high,,ISIC_4523565.JPG,,ISIC_8777813.JPG,28,28,false,0.20000000000000007,hh,keypress(i),0,true,877967.3000001907,877967.2000007629,874087.918,874167.3000001907,874088.6,877891.8,1,40,37,
sequence,flow.Sequence,8_36,2024-03-04T20:33:28.443Z,,,,,,,,,,,3878.6000007629627,completion,,,,,,,low,high,,,,,,,false,,,,,true,877967.6000003815,877967.2000007629,874087.918,874167.3000001907,874088.6,877891.8,1,40,,
trial,html.Screen,8_37_0,2024-03-04T20:33:34.671Z,,,,2,0.0367744112927588,0.0324865661712824,,0.04,false,hl,6308.199999999953,response,0.7308116448711435,0.8888393081488957,-1.035864605425067,-0.908713834988551,0.8888393081488957,-1.1849490523811632,high,low,,ISIC_4523565.JPG,,ISIC_7811951.JPG,28,25,false,0.29000000000000015,lh,keypress(e),0,true,884200.4000005722,884200,877889.288,877967.6000003815,877891.8,884130.4,1,40,38,
sequence,flow.Sequence,8_37,2024-03-04T20:33:34.671Z,,,,,,,,,,,6308.199999999953,completion,,,,,,,high,low,,,,,,,false,,,,,true,884200.7000007629,884200,877889.288,877967.6000003815,877891.8,884130.4,1,40,,
trial,html.Screen,8_38_0,2024-03-04T20:33:41.112Z,,,,2,0.0257631352671967,0.0202837002774028,,0.04,true,lh,6510.200000381446,response,-0.8350129142228142,0.9388393081488957,-1.035864605425067,0.8172547818270586,0.8888393081488957,-1.1849490523811632,low,high,,ISIC_0032797.JPG,,ISIC_0301568.JPG,28,25,false,0.21000000000000008,lh,keypress(e),0,true,890641,890640.6000003815,884126.124,884200.9000005722,884130.4,890569.1,1,40,39,
sequence,flow.Sequence,8_38,2024-03-04T20:33:41.112Z,,,,,,,,,,,6510.200000381446,completion,,,,,,,low,high,,,,,,,false,,,,,true,890641.6000003815,890640.6000003815,884126.124,884200.8000001907,884130.4,890569.1,1,40,,
trial,html.Screen,8_39_0,2024-03-04T20:33:45.823Z,,,,2,-0.0074667911845194,0.018500200317654,,0.04,true,ll,4783.300000572228,response,-1.0653732408486678,0.9388393081488957,-1.035864605425067,-1.089675540151582,0.8388393081488956,-1.1849490523811632,low,low,,ISIC_0058723.JPG,,ISIC_0058315.JPG,28,34,false,0.1,ll,keypress(f),0,true,895352.7000007629,895352.4000005722,890564.616,890641.7000007629,890569.1,895272.9,1,40,40,
sequence,flow.Sequence,8_39,2024-03-04T20:33:45.824Z,,,,,,,,,,,4783.300000572228,completion,,,,,,,low,low,,,,,,,false,,,,,true,895353.1000003815,895352.4000005722,890564.616,890641.7000007629,890569.1,895272.9,1,40,,
stair_loop,flow.Loop,8,2024-03-04T20:33:45.824Z,,,,,,,,,,,216224.4000005722,completion,,,,,,,,,,,,,,,false,,,,,true,895353.4000005722,895352.4000005722,679111.366,679190.4000005722,679128,895272.9,1,40,,
exp_instructions,html.Screen,9,2024-03-04T20:33:53.101Z,,,,,,,,,,,7357.200000381446,response,,,,,,,,,,,,,,,,,continue,keypress(Space),,,902630.5,902630.1000003815,895269.852,895353.6000003815,895272.9,902562.3,,,,
trial,html.Screen,10_0_0,2024-03-04T20:33:56.824Z,,,,1,0.0308384937406319,-0.0038396364323947,,0.04,true,ll,3790.900000762893,response,-0.9682677628288195,1.0038704438675472,-0.9269790966462115,-1.1060047717990744,0.9836217069709206,-1.1849490523811634,low,low,,ISIC_0029825.JPG,9,ISIC_0011505.JPG,28,30,false,0.1,ll,keypress(f),0,false,906353.3000001907,906353.2000007629,902555.942,902630.6000003815,902562.3,906282.3,5,600,1,
break,html.Screen,10_0_1,2024-03-04T20:33:56.825Z,,,,,,,,,,,NaN,,,,,,,,low,low,,,,,,,false,,,,,false,906353.8000001907,906353.7000007629,,906353.4000005722,,906282.3,5,600,,
break_continue,html.Screen,10_0_2,2024-03-04T20:33:56.825Z,,,,,,,,,,,NaN,,,,,,,,low,low,,,,,,,false,,,,,false,906354.2000007629,906354,,906353.8000001907,,906282.3,5,600,,
sequence,flow.Sequence,10_0,2024-03-04T20:33:56.825Z,,,,,,,,,,,3791.6999999999534,completion,,,,,,,low,low,,,,,,,false,,,,,false,906354.3000001907,906354,902555.942,902630.6000003815,902562.3,906282.3,5,600,,
trial,html.Screen,10_1_0,2024-03-04T20:34:02.329Z,,,,1,-0.0164027439304477,0.0082910758715273,,0.04,false,ll,5575.100000572158,response,-0.8297929016123204,1.0038704438675472,-0.9269790966462115,-1.2477154484166904,0.9836217069709206,-1.1849490523811634,low,low,,ISIC_7381224.JPG,9,ISIC_0029495.JPG,28,30,false,0.1,lh,keypress(e),0,false,911857.9000005722,911857.4000005722,906265.4,906354.3000001907,906282.3,911786.6,5,600,2,
break,html.Screen,10_1_1,2024-03-04T20:34:02.331Z,,,,,,,,,,,NaN,,,,,,,,low,low,,,,,,,false,,,,,false,911860.3000001907,911859.6000003815,,911858.6000003815,,911786.6,5,600,,
break_continue,html.Screen,10_1_2,2024-03-04T20:34:02.332Z,,,,,,,,,,,NaN,,,,,,,,low,low,,,,,,,false,,,,,false,911861.3000001907,911861.1000003815,,911860.8000001907,,911786.6,5,600,,
sequence,flow.Sequence,10_1,2024-03-04T20:34:02.332Z,,,,,,,,,,,5578.800000381423,completion,,,,,,,low,low,,,,,,,false,,,,,false,911861.3000001907,911861.1000003815,906265.4,906354.3000001907,906282.3,911786.6,5,600,,
trial,html.Screen,10_2_0,2024-03-04T20:34:04.319Z,,,,1,-0.0074667911845194,0.018500200317654,,0.04,true,hh,2061.700000190758,response,1.0777929856705222,1.0038704438675472,-0.9269790966462115,1.0139833925057518,0.9836217069709206,-1.1849490523811634,high,high,,ISIC_0058723.JPG,8,ISIC_6171084.JPG,28,25,false,0.1,hh,keypress(i),0,false,913848.7000007629,913848.3000001907,911782.886,911861.4000005722,911786.6,913771.7,5,600,3,
break,html.Screen,10_2_1,2024-03-04T20:34:04.321Z,,,,,,,,,,,NaN,,,,,,,,high,high,,,,,,,false,,,,,false,913850.2000007629,913849.7000007629,,913849.1000003815,,913771.7,5,600,,
break_continue,html.Screen,10_2_2,2024-03-04T20:34:04.322Z,,,,,,,,,,,NaN,,,,,,,,high,high,,,,,,,false,,,,,false,913851.1000003815,913850.7000007629,,913850.4000005722,,913771.7,5,600,,
sequence,flow.Sequence,10_2,2024-03-04T20:34:04.322Z,,,,,,,,,,,2064.1000007629627,completion,,,,,,,high,high,,,,,,,false,,,,,false,913851.4000005722,913850.7000007629,911782.886,911861.4000005722,911786.6,913771.7,5,600,,
trial,html.Screen,10_3_0,2024-03-04T20:34:10.008Z,,,,1,-0.0109416414475118,-0.005246498750811,,0.04,true,ll,5764.800000000047,response,-1.011046725964536,1.0038704438675472,-0.9269790966462115,-1.2027346117133495,0.9836217069709206,-1.1849490523811634,low,low,,ISIC_0064279.JPG,9,ISIC_0000292.JPG,28,30,false,0.1,ll,keypress(f),0,false,919537,919536.5,913770.794,913851.7000007629,913771.7,919459.6,5,600,4,
break,html.Screen,10_3_1,2024-03-04T20:34:10.009Z,,,,,,,,,,,NaN,,,,,,,,low,low,,,,,,,false,,,,,false,919538.4000005722,919537.9000005722,,919537.4000005722,,919459.6,5,600,,
break_continue,html.Screen,10_3_2,2024-03-04T20:34:10.010Z,,,,,,,,,,,NaN,,,,,,,,low,low,,,,,,,false,,,,,false,919539.4000005722,919538.9000005722,,919538.6000003815,,919459.6,5,600,,
sequence,flow.Sequence,10_3,2024-03-04T20:34:10.010Z,,,,,,,,,,,5767.200000572251,completion,,,,,,,low,low,,,,,,,false,,,,,false,919539.7000007629,919538.9000005722,913770.794,913851.6000003815,913771.7,919459.6,5,600,,
trial,html.Screen,10_4_0,2024-03-04T20:34:17.031Z,,,,1,-0.039520186367207,-0.0377961575607372,,0.04,false,ll,7100.400000000023,response,-0.8288414156732227,1.0038704438675472,-0.9269790966462115,-1.238502573714157,0.9836217069709206,-1.1849490523811634,low,low,,ISIC_6356149.JPG,9,ISIC_7484771.JPG,28,30,false,0.1,hh,keypress(i),0,false,926560.3000001907,926560,919457.106,919539.8000001907,919459.6,926482.1,5,600,5,
break,html.Screen,10_4_1,2024-03-04T20:34:17.032Z,,,,,,,,,,,NaN,,,,,,,,low,low,,,,,,,false,,,,,false,926561.7000007629,926561.3000001907,,926560.8000001907,,926482.1,5,600,,
break_continue,html.Screen,10_4_2,2024-03-04T20:34:17.033Z,,,,,,,,,,,NaN,,,,,,,,low,low,,,,,,,false,,,,,false,926562.7000007629,926562.3000001907,,926561.9000005722,,926482.1,5,600,,
sequence,flow.Sequence,10_4,2024-03-04T20:34:17.034Z,,,,,,,,,,,7102.700000190758,completion,,,,,,,low,low,,,,,,,false,,,,,false,926562.9000005722,926562.3000001907,919457.106,919539.8000001907,919459.6,926482.1,5,600,,
trial,html.Screen,10_5_0,2024-03-04T20:34:18.871Z,,,,1,-0.039520186367207,-0.0377961575607372,,0.04,true,hh,1917.9000000000233,response,0.9833548049624848,1.0038704438675472,-0.9269790966462115,0.9129629471000654,0.9836217069709206,-1.1849490523811634,high,high,,ISIC_6356149.JPG,9,ISIC_0000848.JPG,28,25,false,0.1,hh,keypress(i),0,false,928400.4000005722,928400,926479.958,926563.2000007629,926482.1,928333.7,5,600,6,
break,html.Screen,10_5_1,2024-03-04T20:34:18.873Z,,,,,,,,,,,NaN,,,,,,,,high,high,,,,,,,false,,,,,false,928401.9000005722,928401.4000005722,,928400.8000001907,,928333.7,5,600,,
break_continue,html.Screen,10_5_2,2024-03-04T20:34:18.874Z,,,,,,,,,,,NaN,,,,,,,,high,high,,,,,,,false,,,,,false,928403,928402.5,,928402.2000007629,,928333.7,5,600,,
sequence,flow.Sequence,10_5,2024-03-04T20:34:18.874Z,,,,,,,,,,,1920.4000000000233,completion,,,,,,,high,high,,,,,,,false,,,,,false,928403.2000007629,928402.5,926479.958,926563.1000003815,926482.1,928333.7,5,600,,
trial,html.Screen,10_6_0,2024-03-04T20:34:21.936Z,,,,1,0.0283578106329894,-0.0088840758711548,,0.04,true,hh,3131.700000572251,response,0.9048246926578776,1.0038704438675472,-0.9269790966462115,1.0392108946107133,0.9836217069709206,-1.1849490523811634,high,high,,ISIC_0060707.JPG,9,ISIC_0068544.JPG,28,25,false,0.1,hh,keypress(i),0,false,931465.7000007629,931465.4000005722,928317.1,928403.5,928333.7,931386.1,5,600,7,
break,html.Screen,10_6_1,2024-03-04T20:34:21.938Z,,,,,,,,,,,NaN,,,,,,,,high,high,,,,,,,false,,,,,false,931467.2000007629,931466.8000001907,,931466.1000003815,,931386.1,5,600,,
break_continue,html.Screen,10_6_2,2024-03-04T20:34:21.939Z,,,,,,,,,,,NaN,,,,,,,,high,high,,,,,,,false,,,,,false,931468.3000001907,931467.8000001907,,931467.5,,931386.1,5,600,,
sequence,flow.Sequence,10_6,2024-03-04T20:34:21.939Z,,,,,,,,,,,3134.1000001907814,completion,,,,,,,high,high,,,,,,,false,,,,,false,931468.6000003815,931467.8000001907,928317.1,928403.4000005722,928333.7,931386.1,5,600,,
trial,html.Screen,10_7_0,2024-03-04T20:34:25.543Z,,,,1,-0.0074667911845194,0.018500200317654,,0.04,false,hh,3685.9000000000233,response,1.0257168197307909,1.0038704438675472,-0.9269790966462115,1.0403166496930305,0.9836217069709206,-1.1849490523811634,high,high,,ISIC_0058723.JPG,9,ISIC_1690909.JPG,28,25,false,0.1,lh,keypress(e),0,false,935072.4000005722,935072,931384.722,931468.7000007629,931386.1,935005.7,5,600,8,
break,html.Screen,10_7_1,2024-03-04T20:34:25.545Z,,,,,,,,,,,NaN,,,,,,,,high,high,,,,,,,false,,,,,false,935074.1000003815,935073.4000005722,,935072.8000001907,,935005.7,5,600,,
break_continue,html.Screen,10_7_2,2024-03-04T20:34:25.546Z,,,,,,,,,,,NaN,,,,,,,,high,high,,,,,,,false,,,,,false,935075.1000003815,935074.6000003815,,935074.2000007629,,935005.7,5,600,,
sequence,flow.Sequence,10_7,2024-03-04T20:34:25.546Z,,,,,,,,,,,3688.500000381493,completion,,,,,,,high,high,,,,,,,false,,,,,false,935075.4000005722,935074.6000003815,931384.722,931468.7000007629,931386.1,935005.7,5,600,,
trial,html.Screen,10_8_0,2024-03-04T20:34:27.807Z,,,,1,0.0258224118104549,-0.0029364553353019,,0.04,false,hl,2330.500000762986,response,1.199471562817528,1.0038704438675472,-0.9269790966462115,-0.8631260534979347,0.9836217069709206,-1.1849490523811634,high,low,,ISIC_8325226.JPG,9,ISIC_0030754.JPG,28,31,false,0.3600000000000002,ll,keypress(f),0,false,937336.6000003815,937336.2000007629,935003.662,935075.6000003815,935005.7,937257.7,5,600,9,
break,html.Screen,10_8_1,2024-03-04T20:34:27.809Z,,,,,,,,,,,NaN,,,,,,,,high,low,,,,,,,false,,,,,false,937337.9000005722,937337.5,,937336.9000005722,,937257.7,5,600,,
break_continue,html.Screen,10_8_2,2024-03-04T20:34:27.810Z,,,,,,,,,,,NaN,,,,,,,,high,low,,,,,,,false,,,,,false,937338.9000005722,937338.5,,937338.2000007629,,937257.7,5,600,,
sequence,flow.Sequence,10_8,2024-03-04T20:34:27.810Z,,,,,,,,,,,2332.8000000000466,completion,,,,,,,high,low,,,,,,,false,,,,,false,937339.2000007629,937338.5,935003.662,935075.6000003815,935005.7,937257.7,5,600,,
trial,html.Screen,10_9_0,2024-03-04T20:34:30.016Z,,,,1,0.0286056110007553,0.036125199756515,,0.04,false,lh,2286.9000003815163,response,-0.9544693251394116,1.0038704438675472,-0.9269790966462115,1.0727539917203766,0.9836217069709206,-1.1849490523811634,low,high,,ISIC_6535558.JPG,9,ISIC_0055147.JPG,28,25,false,0.20000000000000007,hh,keypress(i),0,false,939544.9000005722,939544.6000003815,937257.002,937339.4000005722,937257.7,939476.2,5,600,10,
break,html.Screen,10_9_1,2024-03-04T20:34:30.017Z,,,,,,,,,,,NaN,,,,,,,,low,high,,,,,,,false,,,,,false,939546.6000003815,939546.1000003815,,939545.4000005722,,939476.2,5,600,,
break_continue,html.Screen,10_9_2,2024-03-04T20:34:30.018Z,,,,,,,,,,,NaN,,,,,,,,low,high,,,,,,,false,,,,,false,939547.7000007629,939547.3000001907,,939546.8000001907,,939476.2,5,600,,
sequence,flow.Sequence,10_9,2024-03-04T20:34:30.019Z,,,,,,,,,,,2289.6000001907814,completion,,,,,,,low,high,,,,,,,false,,,,,false,939548,939547.3000001907,937257.002,937339.3000001907,937257.7,939476.2,5,600,,
trial,html.Screen,10_10_0,2024-03-04T20:34:34.577Z,,,,1,0.0308384937406319,-0.0038396364323947,,0.04,true,ll,4634.500000762986,response,-0.8505116507724536,1.0038704438675472,-0.9269790966462115,-1.198340108680766,0.9836217069709206,-1.1849490523811634,low,low,,ISIC_0029825.JPG,4,ISIC_0054851.JPG,28,30,false,0.1,ll,keypress(f),0,false,944110.8000001907,944110.7000007629,939459.7,939548.2000007629,939476.2,944029.7,5,600,11,
break,html.Screen,10_10_1,2024-03-04T20:34:34.577Z,,,,,,,,,,,NaN,,,,,,,,low,low,,,,,,,false,,,,,false,944111,944111,,944110.8000001907,,944029.7,5,600,,
break_continue,html.Screen,10_10_2,2024-03-04T20:34:34.577Z,,,,,,,,,,,NaN,,,,,,,,low,low,,,,,,,false,,,,,false,944111.1000003815,944111.1000003815,,944111,,944029.7,5,600,,
sequence,flow.Sequence,10_10,2024-03-04T20:34:34.577Z,,,,,,,,,,,4634.900000381516,completion,,,,,,,low,low,,,,,,,false,,,,,false,944111.1000003815,944111.1000003815,939459.7,939548.2000007629,939476.2,944029.7,5,600,,
trial,html.Screen,10_11_0,2024-03-04T20:34:40.738Z,,,,1,-0.0374659946425444,-0.0086043094957617,,0.04,false,lh,6241.600000190781,response,-0.8307508446051526,1.0038704438675472,-0.9269790966462115,1.1707575338936729,0.9836217069709206,-1.1849490523811634,low,high,,ISIC_0033051.JPG,9,ISIC_0028606.JPG,28,25,false,0.20000000000000007,ll,keypress(f),0,false,950271.5,950271.3000001907,944027.86,944111.1000003815,944029.7,950201.7,5,600,12,
break,html.Screen,10_11_1,2024-03-04T20:34:40.738Z,,,,,,,,,,,NaN,,,,,,,,low,high,,,,,,,false,,,,,false,950272.1000003815,950272,,950271.7000007629,,950201.7,5,600,,
break_continue,html.Screen,10_11_2,2024-03-04T20:34:40.739Z,,,,,,,,,,,NaN,,,,,,,,low,high,,,,,,,false,,,,,false,950272.4000005722,950272.2000007629,,950272.2000007629,,950201.7,5,600,,
sequence,flow.Sequence,10_11,2024-03-04T20:34:40.739Z,,,,,,,,,,,6242.500000762986,completion,,,,,,,low,high,,,,,,,false,,,,,false,950272.5,950272.2000007629,944027.86,944111.1000003815,944029.7,950201.7,5,600,,
trial,html.Screen,10_12_0,2024-03-04T20:34:44.233Z,,,,1,0.0119001144851157,-0.0063430114540141,,0.04,false,hh,3564.9000003815163,response,1.0257168197307909,1.0038704438675472,-0.9269790966462115,1.0403166496930305,0.9836217069709206,-1.1849490523811634,high,high,,ISIC_0003822.JPG,9,ISIC_1690909.JPG,28,25,false,0.1,ll,keypress(f),0,false,953766.7000007629,953766.6000003815,950184.9,950272.5,950201.7,953687.7,5,600,13,
break,html.Screen,10_12_1,2024-03-04T20:34:44.233Z,,,,,,,,,,,NaN,,,,,,,,high,high,,,,,,,false,,,,,false,953767.1000003815,953767,,953766.8000001907,,953687.7,5,600,,
break_continue,html.Screen,10_12_2,2024-03-04T20:34:44.233Z,,,,,,,,,,,NaN,,,,,,,,high,high,,,,,,,false,,,,,false,953767.2000007629,953767.1000003815,,953767.1000003815,,953687.7,5,600,,
sequence,flow.Sequence,10_12,2024-03-04T20:34:44.234Z,,,,,,,,,,,3565.4000003815163,completion,,,,,,,high,high,,,,,,,false,,,,,false,953767.3000001907,953767.1000003815,950184.9,950272.5,950201.7,953687.7,5,600,,
trial,html.Screen,10_13_0,2024-03-04T20:34:49.947Z,,,,1,0.0119001144851157,-0.0063430114540141,,0.04,true,ll,5792.900000381516,response,-1.011046725964536,1.0038704438675472,-0.9269790966462115,-1.2027346117133495,0.9836217069709206,-1.1849490523811634,low,low,,ISIC_0003822.JPG,10,ISIC_0000292.JPG,28,30,false,0.1,ll,keypress(f),0,false,959480.9000005722,959480.6000003815,953685.5,953767.3000001907,953687.7,959409.2,5,600,14,
break,html.Screen,10_13_1,2024-03-04T20:34:49.948Z,,,,,,,,,,,NaN,,,,,,,,low,low,,,,,,,false,,,,,false,959482.2000007629,959481.8000001907,,959481.3000001907,,959409.2,5,600,,
break_continue,html.Screen,10_13_2,2024-03-04T20:34:49.949Z,,,,,,,,,,,NaN,,,,,,,,low,low,,,,,,,false,,,,,false,959483.1000003815,959482.7000007629,,959482.4000005722,,959409.2,5,600,,
sequence,flow.Sequence,10_13,2024-03-04T20:34:49.950Z,,,,,,,,,,,5795.000000762986,completion,,,,,,,low,low,,,,,,,false,,,,,false,959483.4000005722,959482.7000007629,953685.5,953767.3000001907,953687.7,959409.2,5,600,,
trial,html.Screen,10_14_0,2024-03-04T20:34:54.833Z,,,,1,-0.039520186367207,-0.0377961575607372,,0.04,true,hh,4957.500000762986,response,0.9786113496628154,1.0038704438675472,-0.9269790966462115,1.040122402473425,0.9836217069709206,-1.1849490523811634,high,high,,ISIC_6356149.JPG,9,ISIC_8195528.JPG,28,25,false,0.1,hh,keypress(i),0,false,964366.8000001907,964366.7000007629,959405.278,959483.6000003815,959409.2,964296.6,5,600,15,
break,html.Screen,10_14_1,2024-03-04T20:34:54.833Z,,,,,,,,,,,NaN,,,,,,,,high,high,,,,,,,false,,,,,false,964367,964366.9000005722,,964366.9000005722,,964296.6,5,600,,
break_continue,html.Screen,10_14_2,2024-03-04T20:34:54.833Z,,,,,,,,,,,NaN,,,,,,,,high,high,,,,,,,false,,,,,false,964367.2000007629,964367.1000003815,,964367,,964296.6,5,600,,
sequence,flow.Sequence,10_14,2024-03-04T20:34:54.833Z,,,,,,,,,,,4957.900000381516,completion,,,,,,,high,high,,,,,,,false,,,,,false,964367.2000007629,964367.1000003815,959405.278,959483.5,959409.2,964296.6,5,600,,
trial,html.Screen,10_15_0,2024-03-04T20:35:02.273Z,,,,1,0.0220026381002083,-0.0170756452911772,,0.04,false,ll,7510.200000190758,response,-0.830218316692649,1.0038704438675472,-0.9269790966462115,-1.1850528225859975,0.9836217069709206,-1.1849490523811634,low,low,,ISIC_5347806.JPG,8,ISIC_0057180.JPG,28,30,false,0.1,lh,keypress(e),0,false,971806.8000001907,971806.8000001907,964280,964367.2000007629,964296.6,971736.2,5,600,16,
break,html.Screen,10_15_1,2024-03-04T20:35:02.273Z,,,,,,,,,,,NaN,,,,,,,,low,low,,,,,,,false,,,,,false,971807.1000003815,971807.1000003815,,971806.9000005722,,971736.2,5,600,,
break_continue,html.Screen,10_15_2,2024-03-04T20:35:02.273Z,,,,,,,,,,,NaN,,,,,,,,low,low,,,,,,,false,,,,,false,971807.2000007629,971807.1000003815,,971807.1000003815,,971736.2,5,600,,
sequence,flow.Sequence,10_15,2024-03-04T20:35:02.273Z,,,,,,,,,,,7510.500000381493,completion,,,,,,,low,low,,,,,,,false,,,,,false,971807.2000007629,971807.1000003815,964280,964367.2000007629,964296.6,971736.2,5,600,,
trial,html.Screen,10_16_0,2024-03-04T20:35:05.017Z,,,,1,-0.0164027439304477,0.0082910758715273,,0.04,false,hl,2814.700000572251,response,0.6526724457046548,1.0038704438675472,-0.9269790966462115,-1.080229511722363,0.9836217069709206,-1.1849490523811634,high,low,,ISIC_7381224.JPG,10,ISIC_4876193.JPG,28,31,false,0.3600000000000002,hh,keypress(i),0,false,974551,974550.9000005722,971719.2,971807.2000007629,971736.2,974471.6,5,600,17,
break,html.Screen,10_16_1,2024-03-04T20:35:05.018Z,,,,,,,,,,,NaN,,,,,,,,high,low,,,,,,,false,,,,,false,974551.7000007629,974551.4000005722,,974551.2000007629,,974471.6,5,600,,
break_continue,html.Screen,10_16_2,2024-03-04T20:35:05.018Z,,,,,,,,,,,NaN,,,,,,,,high,low,,,,,,,false,,,,,false,974552,974551.9000005722,,974551.7000007629,,974471.6,5,600,,
sequence,flow.Sequence,10_16,2024-03-04T20:35:05.018Z,,,,,,,,,,,2815.700000572251,completion,,,,,,,high,low,,,,,,,false,,,,,false,974552.1000003815,974551.9000005722,971719.2,971807.2000007629,971736.2,974471.6,5,600,,
trial,html.Screen,10_17_0,2024-03-04T20:35:10.065Z,,,,1,0.0044063257337227,0.0172548282859886,,0.04,true,ll,5126.700000190758,response,-1.011046725964536,1.0038704438675472,-0.9269790966462115,-1.2027346117133495,0.9836217069709206,-1.1849490523811634,low,low,,ISIC_7413786.JPG,9,ISIC_0000292.JPG,28,30,false,0.1,ll,keypress(f),0,false,979598.3000001907,979598.3000001907,974471.426,974552.2000007629,974471.6,979525.7,5,600,18,
break,html.Screen,10_17_1,2024-03-04T20:35:10.065Z,,,,,,,,,,,NaN,,,,,,,,low,low,,,,,,,false,,,,,false,979598.5,979598.5,,979598.3000001907,,979525.7,5,600,,
break_continue,html.Screen,10_17_2,2024-03-04T20:35:10.065Z,,,,,,,,,,,NaN,,,,,,,,low,low,,,,,,,false,,,,,false,979598.7000007629,979598.6000003815,,979598.5,,979525.7,5,600,,
sequence,flow.Sequence,10_17,2024-03-04T20:35:10.065Z,,,,,,,,,,,5127.000000381493,completion,,,,,,,low,low,,,,,,,false,,,,,false,979598.9000005722,979598.6000003815,974471.426,974552.2000007629,974471.6,979525.7,5,600,,
trial,html.Screen,10_18_0,2024-03-04T20:35:15.897Z,,,,1,-0.0388334549081915,0.0303399972963369,,0.04,false,ll,5904.500000762986,response,-1.0108177579726572,1.0038704438675472,-0.9269790966462115,-1.2740443651890667,0.9836217069709206,-1.1849490523811634,low,low,,ISIC_4961708.JPG,9,ISIC_0010295.JPG,28,30,false,0.1,hl,keypress(j),0,false,985430.3000001907,985430.2000007629,979509.3,979598.9000005722,979525.7,985364,5,600,19,
break,html.Screen,10_18_1,2024-03-04T20:35:15.897Z,,,,,,,,,,,NaN,,,,,,,,low,low,,,,,,,false,,,,,false,985430.7000007629,985430.6000003815,,985430.4000005722,,985364,5,600,,
break_continue,html.Screen,10_18_2,2024-03-04T20:35:15.897Z,,,,,,,,,,,NaN,,,,,,,,low,low,,,,,,,false,,,,,false,985431,985430.8000001907,,985430.7000007629,,985364,5,600,,
sequence,flow.Sequence,10_18,2024-03-04T20:35:15.897Z,,,,,,,,,,,5905.100000190781,completion,,,,,,,low,low,,,,,,,false,,,,,false,985431.1000003815,985430.8000001907,979509.3,979598.9000005722,979525.7,985364,5,600,,
trial,html.Screen,10_19_0,2024-03-04T20:35:21.352Z,,,,1,-0.0074667911845194,0.018500200317654,,0.04,true,lh,5522.10000038147,response,-1.045301444872812,1.0038704438675472,-0.9269790966462115,1.0872560254441277,0.9836217069709206,-1.1849490523811634,low,high,,ISIC_0058723.JPG,9,ISIC_4507700.JPG,28,25,false,0.20000000000000007,lh,keypress(e),0,false,990886.1000003815,990886.1000003815,985346.598,985431.2000007629,985364,990818.4,5,600,20,
break,html.Screen,10_19_1,2024-03-04T20:35:21.353Z,,,,,,,,,,,NaN,,,,,,,,low,high,,,,,,,false,,,,,false,990886.5,990886.5,,990886.2000007629,,990818.4,5,600,,
break_continue,html.Screen,10_19_2,2024-03-04T20:35:21.353Z,,,,,,,,,,,NaN,,,,,,,,low,high,,,,,,,false,,,,,false,990886.8000001907,990886.7000007629,,990886.6000003815,,990818.4,5,600,,
sequence,flow.Sequence,10_19,2024-03-04T20:35:21.353Z,,,,,,,,,,,5522.700000762939,completion,,,,,,,low,high,,,,,,,false,,,,,false,990886.9000005722,990886.7000007629,985346.598,985431.1000003815,985364,990818.4,5,600,,
trial,html.Screen,10_20_0,2024-03-04T20:35:24.940Z,,,,1,0.0009714874637896,-0.0174815595031679,,0.04,false,lh,3655.0999999999767,response,-0.9662688541319592,1.0038704438675472,-0.9269790966462115,0.929746784178986,0.9836217069709206,-1.1849490523811634,low,high,,ISIC_9848743.JPG,8,ISIC_0011077.JPG,28,25,false,0.20000000000000007,ll,keypress(f),0,false,994473.8000001907,994473.5,990802,990887,990818.4,994404.8,5,600,21,
break,html.Screen,10_20_1,2024-03-04T20:35:24.941Z,,,,,,,,,,,NaN,,,,,,,,low,high,,,,,,,false,,,,,false,994475.2000007629,994474.9000005722,,994474.3000001907,,994404.8,5,600,,
break_continue,html.Screen,10_20_2,2024-03-04T20:35:24.942Z,,,,,,,,,,,NaN,,,,,,,,low,high,,,,,,,false,,,,,false,994476.2000007629,994475.8000001907,,994475.5,,994404.8,5,600,,
sequence,flow.Sequence,10_20,2024-03-04T20:35:24.943Z,,,,,,,,,,,3657.4000001907116,completion,,,,,,,low,high,,,,,,,false,,,,,false,994476.5,994475.8000001907,990802,990887,990818.4,994404.8,5,600,,
trial,html.Screen,10_21_0,2024-03-04T20:35:32.733Z,,,,1,-0.001445457736793,-0.0165307427449982,,0.04,false,ll,7865.600000572158,response,-1.0108177579726572,1.0038704438675472,-0.9269790966462115,-1.2740443651890667,0.9836217069709206,-1.1849490523811634,low,low,,ISIC_0027350.JPG,9,ISIC_0010295.JPG,28,30,false,0.1,lh,keypress(e),0,false,1002270.6000003815,1002270.4000005722,994388.3,994476.7000007629,994404.8,1002194.4,5,600,22,
break,html.Screen,10_21_1,2024-03-04T20:35:32.733Z,,,,,,,,,,,NaN,,,,,,,,low,low,,,,,,,false,,,,,false,1002271,1002271,,1002270.8000001907,,1002194.4,5,600,,
break_continue,html.Screen,10_21_2,2024-03-04T20:35:32.733Z,,,,,,,,,,,NaN,,,,,,,,low,low,,,,,,,false,,,,,false,1002271.2000007629,1002271.1000003815,,1002271,,1002194.4,5,600,,
sequence,flow.Sequence,10_21,2024-03-04T20:35:32.733Z,,,,,,,,,,,7866.300000381423,completion,,,,,,,low,low,,,,,,,false,,,,,false,1002271.2000007629,1002271.1000003815,994388.3,994476.6000003815,994404.8,1002194.4,5,600,,
trial,html.Screen,10_22_0,2024-03-04T20:35:39.733Z,,,,1,0.0258224118104549,-0.0029364553353019,,0.04,false,ll,7076.800000762916,response,-0.8288414156732227,1.0038704438675472,-0.9269790966462115,-1.238502573714157,0.9836217069709206,-1.1849490523811634,low,low,,ISIC_8325226.JPG,8,ISIC_7484771.JPG,28,30,false,0.1,hh,keypress(i),0,false,1009271.2000007629,1009271.2000007629,1002178,1002271.3000001907,1002194.4,1009200.4,5,600,23,
break,html.Screen,10_22_1,2024-03-04T20:35:39.733Z,,,,,,,,,,,NaN,,,,,,,,low,low,,,,,,,false,,,,,false,1009271.6000003815,1009271.6000003815,,1009271.3000001907,,1009200.4,5,600,,
break_continue,html.Screen,10_22_2,2024-03-04T20:35:39.734Z,,,,,,,,,,,NaN,,,,,,,,low,low,,,,,,,false,,,,,false,1009271.7000007629,1009271.6000003815,,1009271.6000003815,,1009200.4,5,600,,
sequence,flow.Sequence,10_22,2024-03-04T20:35:39.734Z,,,,,,,,,,,7077.200000381446,completion,,,,,,,low,low,,,,,,,false,,,,,false,1009271.7000007629,1009271.6000003815,1002178,1002271.3000001907,1002194.4,1009200.4,5,600,,
trial,html.Screen,10_23_0,2024-03-04T20:35:42.798Z,,,,1,-0.0088741920055285,-0.0058246074740588,,0.04,false,lh,3135.800000762916,response,-0.9633172970727744,1.0038704438675472,-0.9269790966462115,0.8472659344792351,0.9836217069709206,-1.1849490523811634,low,high,,ISIC_4136663.JPG,9,ISIC_0067172.JPG,28,25,false,0.20000000000000007,hh,keypress(i),0,false,1012336.6000003815,1012336.2000007629,1009183.7,1009271.8000001907,1009200.4,1012269.5,5,600,24,
break,html.Screen,10_23_1,2024-03-04T20:35:42.800Z,,,,,,,,,,,NaN,,,,,,,,low,high,,,,,,,false,,,,,false,1012337.9000005722,1012337.5,,1012337,,1012269.5,5,600,,
break_continue,html.Screen,10_23_2,2024-03-04T20:35:42.801Z,,,,,,,,,,,NaN,,,,,,,,low,high,,,,,,,false,,,,,false,1012339,1012338.6000003815,,1012338.3000001907,,1012269.5,5,600,,
sequence,flow.Sequence,10_23,2024-03-04T20:35:42.801Z,,,,,,,,,,,3138.2000003814464,completion,,,,,,,low,high,,,,,,,false,,,,,false,1012339.2000007629,1012338.6000003815,1009183.7,1009271.7000007629,1009200.4,1012269.5,5,600,,
trial,html.Screen,10_24_0,2024-03-04T20:35:49.526Z,,,,1,0.0200295718112167,0.0155559071275806,,0.04,true,ll,6794.10000038147,response,-1.0108177579726572,1.0038704438675472,-0.9269790966462115,-1.2740443651890667,0.9836217069709206,-1.1849490523811634,low,low,,ISIC_0061343.JPG,10,ISIC_0010295.JPG,28,30,false,0.1,ll,keypress(f),0,false,1019063.9000005722,1019063.6000003815,1012253.2,1012339.3000001907,1012269.5,1019008.5,5,600,25,
break,html.Screen,10_24_1,2024-03-04T20:35:49.527Z,,,,,,,,,,,NaN,,,,,,,,low,low,,,,,,,false,,,,,false,1019064.9000005722,1019064.6000003815,,1019064.2000007629,,1019008.5,5,600,,
break_continue,html.Screen,10_24_2,2024-03-04T20:35:49.527Z,,,,,,,,,,,NaN,,,,,,,,low,low,,,,,,,false,,,,,false,1019065.5,1019065.2000007629,,1019065,,1019008.5,5,600,,
sequence,flow.Sequence,10_24,2024-03-04T20:35:49.527Z,,,,,,,,,,,6795.700000762939,completion,,,,,,,low,low,,,,,,,false,,,,,false,1019065.6000003815,1019065.2000007629,1012253.2,1012339.2000007629,1012269.5,1019008.5,5,600,,
trial,html.Screen,10_25_0,2024-03-04T20:35:52.039Z,,,,1,-0.0074667911845194,0.018500200317654,,0.04,true,ll,2568.1000003814697,response,-0.9430679164922772,1.0038704438675472,-0.9269790966462115,-1.124157865127501,0.9836217069709206,-1.1849490523811634,low,low,,ISIC_0058723.JPG,10,ISIC_0062111.JPG,28,30,false,0.1,ll,keypress(f),0,false,1021576.9000005722,1021576.6000003815,1018991.9,1019065.8000001907,1019008.5,1021510.8,5,600,26,
break,html.Screen,10_25_1,2024-03-04T20:35:52.040Z,,,,,,,,,,,NaN,,,,,,,,low,low,,,,,,,false,,,,,false,1021578.4000005722,1021577.9000005722,,1021577.3000001907,,1021510.8,5,600,,
break_continue,html.Screen,10_25_2,2024-03-04T20:35:52.041Z,,,,,,,,,,,NaN,,,,,,,,low,low,,,,,,,false,,,,,false,1021579.4000005722,1021578.9000005722,,1021578.6000003815,,1021510.8,5,600,,
sequence,flow.Sequence,10_25,2024-03-04T20:35:52.042Z,,,,,,,,,,,2570.4000005722046,completion,,,,,,,low,low,,,,,,,false,,,,,false,1021579.6000003815,1021578.9000005722,1018991.9,1019065.7000007629,1019008.5,1021510.8,5,600,,
trial,html.Screen,10_26_0,2024-03-04T20:35:55.703Z,,,,1,0.0076984477620101,0.0069458408496562,,0.04,true,ll,3730.100000572158,response,-0.8505116507724536,1.0038704438675472,-0.9269790966462115,-1.198340108680766,0.9836217069709206,-1.1849490523811634,low,low,,ISIC_0000434.JPG,8,ISIC_0054851.JPG,28,30,false,0.1,ll,keypress(f),0,false,1025241.3000001907,1025240.9000005722,1021493.9,1021579.9000005722,1021510.8,1025163.5,5,600,27,
break,html.Screen,10_26_1,2024-03-04T20:35:55.705Z,,,,,,,,,,,NaN,,,,,,,,low,low,,,,,,,false,,,,,false,1025242.9000005722,1025242.4000005722,,1025241.8000001907,,1025163.5,5,600,,
break_continue,html.Screen,10_26_2,2024-03-04T20:35:55.706Z,,,,,,,,,,,NaN,,,,,,,,low,low,,,,,,,false,,,,,false,1025244.4000005722,1025243.8000001907,,1025243.2000007629,,1025163.5,5,600,,
sequence,flow.Sequence,10_26,2024-03-04T20:35:55.707Z,,,,,,,,,,,3733.0000001906883,completion,,,,,,,low,low,,,,,,,false,,,,,false,1025244.8000001907,1025243.8000001907,1021493.9,1021579.8000001907,1021510.8,1025163.5,5,600,,
trial,html.Screen,10_27_0,2024-03-04T20:36:04.917Z,,,,1,-0.039520186367207,-0.0377961575607372,,0.04,false,ll,9291.400000572205,response,-0.8288414156732227,1.0038704438675472,-0.9269790966462115,-1.238502573714157,0.9836217069709206,-1.1849490523811634,low,low,,ISIC_6356149.JPG,9,ISIC_7484771.JPG,28,30,false,0.1,hl,keypress(j),0,false,1034455,1034454.9000005722,1025161.394,1025245.1000003815,1025163.5,1034388.1,5,600,28,
break,html.Screen,10_27_1,2024-03-04T20:36:04.917Z,,,,,,,,,,,NaN,,,,,,,,low,low,,,,,,,false,,,,,false,1034455.5,1034455.4000005722,,1034455.2000007629,,1034388.1,5,600,,
break_continue,html.Screen,10_27_2,2024-03-04T20:36:04.918Z,,,,,,,,,,,NaN,,,,,,,,low,low,,,,,,,false,,,,,false,1034455.7000007629,1034455.6000003815,,1034455.5,,1034388.1,5,600,,
sequence,flow.Sequence,10_27,2024-03-04T20:36:04.918Z,,,,,,,,,,,9292.10000038147,completion,,,,,,,low,low,,,,,,,false,,,,,false,1034455.7000007629,1034455.6000003815,1025161.394,1025245,1025163.5,1034388.1,5,600,,
trial,html.Screen,10_28_0,2024-03-04T20:36:13.023Z,,,,1,-0.0388334549081915,0.0303399972963369,,0.04,false,lh,8172.600000762963,response,-0.7714570894008278,1.0038704438675472,-0.9269790966462115,0.9113656554657036,0.9836217069709206,-1.1849490523811634,low,high,,ISIC_4961708.JPG,9,ISIC_4529092.JPG,28,25,false,0.20000000000000007,ll,keypress(f),0,false,1042561,1042560.7000007629,1034371,1034455.8000001907,1034388.1,1042494.5,5,600,29,
break,html.Screen,10_28_1,2024-03-04T20:36:13.024Z,,,,,,,,,,,NaN,,,,,,,,low,high,,,,,,,false,,,,,false,1042562.4000005722,1042562,,1042561.4000005722,,1042494.5,5,600,,
break_continue,html.Screen,10_28_2,2024-03-04T20:36:13.025Z,,,,,,,,,,,NaN,,,,,,,,low,high,,,,,,,false,,,,,false,1042563.4000005722,1042562.9000005722,,1042562.6000003815,,1042494.5,5,600,,
sequence,flow.Sequence,10_28,2024-03-04T20:36:13.025Z,,,,,,,,,,,8174.800000572228,completion,,,,,,,low,high,,,,,,,false,,,,,false,1042563.7000007629,1042562.9000005722,1034371,1034455.8000001907,1034388.1,1042494.5,5,600,,
trial,html.Screen,10_29_0,2024-03-04T20:36:17.839Z,,,,1,0.0283578106329894,-0.0088840758711548,,0.04,true,ll,4882.10000038147,response,-0.8288414156732227,1.0038704438675472,-0.9269790966462115,-1.238502573714157,0.9836217069709206,-1.1849490523811634,low,low,,ISIC_0060707.JPG,10,ISIC_7484771.JPG,28,30,false,0.1,ll,keypress(f),0,false,1047376.9000005722,1047376.6000003815,1042488.75,1042563.8000001907,1042494.5,1047298.6,5,600,30,
break,html.Screen,10_29_1,2024-03-04T20:36:17.840Z,,,,,,,,,,,NaN,,,,,,,,low,low,,,,,,,false,,,,,false,1047378.4000005722,1047377.9000005722,,1047377.3000001907,,1047298.6,5,600,,
break_continue,html.Screen,10_29_2,2024-03-04T20:36:17.841Z,,,,,,,,,,,NaN,,,,,,,,low,low,,,,,,,false,,,,,false,1047379.5,1047379.1000003815,,1047378.7000007629,,1047298.6,5,600,,
sequence,flow.Sequence,10_29,2024-03-04T20:36:17.842Z,,,,,,,,,,,4884.60000038147,completion,,,,,,,low,low,,,,,,,false,,,,,false,1047379.8000001907,1047379.1000003815,1042488.75,1042563.8000001907,1042494.5,1047298.6,5,600,,
trial,html.Screen,10_30_0,2024-03-04T20:36:20.180Z,,,,1,0.0076984477620101,0.0069458408496562,,0.04,true,hh,2419.800000572228,response,0.9048246926578776,1.0038704438675472,-0.9269790966462115,1.0392108946107133,0.9836217069709206,-1.1849490523811634,high,high,,ISIC_0000434.JPG,10,ISIC_0068544.JPG,28,25,false,0.1,hh,keypress(i),0,false,1049718.5,1049718.4000005722,1047296.25,1047380,1047298.6,1049650.5,5,600,31,
break,html.Screen,10_30_1,2024-03-04T20:36:20.181Z,,,,,,,,,,,NaN,,,,,,,,high,high,,,,,,,false,,,,,false,1049718.8000001907,1049718.700000763,,1049718.6000003815,,1049650.5,5,600,,
break_continue,html.Screen,10_30_2,2024-03-04T20:36:20.181Z,,,,,,,,,,,NaN,,,,,,,,high,high,,,,,,,false,,,,,false,1049719,1049718.9000005722,,1049718.9000005722,,1049650.5,5,600,,
sequence,flow.Sequence,10_30,2024-03-04T20:36:20.181Z,,,,,,,,,,,2420.300000572228,completion,,,,,,,high,high,,,,,,,false,,,,,false,1049719.1000003815,1049718.9000005722,1047296.25,1047379.9000005722,1047298.6,1049650.5,5,600,,
trial,html.Screen,10_31_0,2024-03-04T20:36:26.487Z,,,,1,0.0367744112927588,0.0324865661712824,,0.04,true,hh,6374.60000038147,response,1.00975234958099,1.0038704438675472,-0.9269790966462115,0.958677033057289,0.9836217069709206,-1.1849490523811634,high,high,,ISIC_4523565.JPG,9,ISIC_0976232.JPG,28,25,false,0.1,hh,keypress(i),0,false,1056025.5,1056025.1000003815,1049633.9,1049719.1000003815,1049650.5,1055955.6,5,600,32,
break,html.Screen,10_31_1,2024-03-04T20:36:26.489Z,,,,,,,,,,,NaN,,,,,,,,high,high,,,,,,,false,,,,,false,1056026.9000005722,1056026.5,,1056025.8000001907,,1055955.6,5,600,,
break_continue,html.Screen,10_31_2,2024-03-04T20:36:26.490Z,,,,,,,,,,,NaN,,,,,,,,high,high,,,,,,,false,,,,,false,1056027.9000005722,1056027.5,,1056027.200000763,,1055955.6,5,600,,
sequence,flow.Sequence,10_31,2024-03-04T20:36:26.490Z,,,,,,,,,,,6377,completion,,,,,,,high,high,,,,,,,false,,,,,false,1056028.3000001907,1056027.5,1049633.9,1049719.1000003815,1049650.5,1055955.6,5,600,,
trial,html.Screen,10_32_0,2024-03-04T20:36:28.644Z,,,,1,-0.0065172941585523,0.0118857043117315,,0.04,false,hl,2226.7000001906417,response,0.7883321712536753,1.0038704438675472,-0.9269790966462115,-1.0011430756825364,0.9836217069709206,-1.1849490523811634,high,low,,ISIC_6119202.JPG,8,ISIC_9828853.JPG,28,31,false,0.3600000000000002,hh,keypress(i),0,false,1058182.5,1058182.3000001907,1055952.728,1056028.4000005722,1055955.6,1058107.7,5,600,33,
break,html.Screen,10_32_1,2024-03-04T20:36:28.645Z,,,,,,,,,,,NaN,,,,,,,,high,low,,,,,,,false,,,,,false,1058182.9000005722,1058182.700000763,,1058182.5,,1058107.7,5,600,,
break_continue,html.Screen,10_32_2,2024-03-04T20:36:28.645Z,,,,,,,,,,,NaN,,,,,,,,high,low,,,,,,,false,,,,,false,1058183.1000003815,1058183,,1058182.9000005722,,1058107.7,5,600,,
sequence,flow.Sequence,10_32,2024-03-04T20:36:28.645Z,,,,,,,,,,,2227.399999999907,completion,,,,,,,high,low,,,,,,,false,,,,,false,1058183.200000763,1058183,1055952.728,1056028.4000005722,1055955.6,1058107.7,5,600,,
trial,html.Screen,10_33_0,2024-03-04T20:36:30.864Z,,,,1,-0.0065172941585523,0.0118857043117315,,0.04,true,hh,2299.3000000000466,response,1.0733807306669467,1.0038704438675472,-0.9269790966462115,0.9781766331161578,0.9836217069709206,-1.1849490523811634,high,high,,ISIC_6119202.JPG,9,ISIC_0032383.JPG,28,25,false,0.1,hh,keypress(i),0,false,1060407,1060407,1058090.8,1058183.200000763,1058107.7,1060325.8,5,600,34,
break,html.Screen,10_33_1,2024-03-04T20:36:30.865Z,,,,,,,,,,,NaN,,,,,,,,high,high,,,,,,,false,,,,,false,1060407.4000005722,1060407.4000005722,,1060407.200000763,,1060325.8,5,600,,
break_continue,html.Screen,10_33_2,2024-03-04T20:36:30.865Z,,,,,,,,,,,NaN,,,,,,,,high,high,,,,,,,false,,,,,false,1060407.700000763,1060407.6000003815,,1060407.5,,1060325.8,5,600,,
sequence,flow.Sequence,10_33,2024-03-04T20:36:30.865Z,,,,,,,,,,,2299.9000003815163,completion,,,,,,,high,high,,,,,,,false,,,,,false,1060407.8000001907,1060407.6000003815,1058090.8,1058183.200000763,1058107.7,1060325.8,5,600,,
trial,html.Screen,10_34_0,2024-03-04T20:36:33.352Z,,,,1,0.0258224118104549,-0.0029364553353019,,0.04,true,hh,2568.5000001906883,response,1.0733807306669467,1.0038704438675472,-0.9269790966462115,0.9781766331161578,0.9836217069709206,-1.1849490523811634,high,high,,ISIC_8325226.JPG,10,ISIC_0032383.JPG,28,25,false,0.1,hh,keypress(i),0,false,1062894.6000003815,1062894.3000001907,1060325.572,1060407.8000001907,1060325.8,1062827.9,5,600,35,
break,html.Screen,10_34_1,2024-03-04T20:36:33.353Z,,,,,,,,,,,NaN,,,,,,,,high,high,,,,,,,false,,,,,false,1062895.200000763,1062895.1000003815,,1062894.9000005722,,1062827.9,5,600,,
break_continue,html.Screen,10_34_2,2024-03-04T20:36:33.353Z,,,,,,,,,,,NaN,,,,,,,,high,high,,,,,,,false,,,,,false,1062895.5,1062895.4000005722,,1062895.3000001907,,1062827.9,5,600,,
sequence,flow.Sequence,10_34,2024-03-04T20:36:33.353Z,,,,,,,,,,,2569.600000572158,completion,,,,,,,high,high,,,,,,,false,,,,,false,1062895.6000003815,1062895.4000005722,1060325.572,1060407.8000001907,1060325.8,1062827.9,5,600,,
trial,html.Screen,10_35_0,2024-03-04T20:36:35.827Z,,,,1,0.0200295718112167,0.0155559071275806,,0.04,false,lh,2540.900000190828,response,-1.0116417541846066,1.0038704438675472,-0.9269790966462115,1.033442916947398,0.9836217069709206,-1.1849490523811634,low,high,,ISIC_0061343.JPG,9,ISIC_0031389.JPG,28,25,false,0.20000000000000007,ll,keypress(f),0,false,1065369.200000763,1065368.8000001907,1062811.2,1062895.6000003815,1062827.9,1065296.8,5,600,36,
break,html.Screen,10_35_1,2024-03-04T20:36:35.828Z,,,,,,,,,,,NaN,,,,,,,,low,high,,,,,,,false,,,,,false,1065370.5,1065370.1000003815,,1065369.6000003815,,1065296.8,5,600,,
break_continue,html.Screen,10_35_2,2024-03-04T20:36:35.829Z,,,,,,,,,,,NaN,,,,,,,,low,high,,,,,,,false,,,,,false,1065371.4000005722,1065371.1000003815,,1065370.700000763,,1065296.8,5,600,,
sequence,flow.Sequence,10_35,2024-03-04T20:36:35.829Z,,,,,,,,,,,2543.200000381563,completion,,,,,,,low,high,,,,,,,false,,,,,false,1065371.700000763,1065371.1000003815,1062811.2,1062895.6000003815,1062827.9,1065296.8,5,600,,
trial,html.Screen,10_36_0,2024-03-04T20:36:38.451Z,,,,1,-0.0374659946425444,-0.0086043094957617,,0.04,true,ll,2695.900000762893,response,-1.0108177579726572,1.0038704438675472,-0.9269790966462115,-1.2740443651890667,0.9836217069709206,-1.1849490523811634,low,low,,ISIC_0033051.JPG,9,ISIC_0010295.JPG,28,30,false,0.1,ll,keypress(f),0,false,1067993.1000003815,1067992.700000763,1065295.474,1065372,1065296.8,1067915.5,5,600,37,
break,html.Screen,10_36_1,2024-03-04T20:36:38.452Z,,,,,,,,,,,NaN,,,,,,,,low,low,,,,,,,false,,,,,false,1067994.5,1067994.1000003815,,1067993.5,,1067915.5,5,600,,
break_continue,html.Screen,10_36_2,2024-03-04T20:36:38.453Z,,,,,,,,,,,NaN,,,,,,,,low,low,,,,,,,false,,,,,false,1067995.5,1067995.1000003815,,1067994.8000001907,,1067915.5,5,600,,
sequence,flow.Sequence,10_36,2024-03-04T20:36:38.453Z,,,,,,,,,,,2698.300000381423,completion,,,,,,,low,low,,,,,,,false,,,,,false,1067995.8000001907,1067995.1000003815,1065295.474,1065371.9000005722,1065296.8,1067915.5,5,600,,
trial,html.Screen,10_37_0,2024-03-04T20:36:43.759Z,,,,1,-0.0109416414475118,-0.005246498750811,,0.04,true,ll,5386.300000190735,response,-0.9818230031674032,1.0038704438675472,-0.9269790966462115,-1.2791121042047748,0.9836217069709206,-1.1849490523811634,low,low,,ISIC_0064279.JPG,9,ISIC_0057286.JPG,28,30,false,0.1,ll,keypress(f),0,false,1073302,1073301.8000001907,1067915.298,1067995.9000005722,1067915.5,1073237.8,5,600,38,
break,html.Screen,10_37_1,2024-03-04T20:36:43.760Z,,,,,,,,,,,NaN,,,,,,,,low,low,,,,,,,false,,,,,false,1073302.200000763,1073302.1000003815,,1073302,,1073237.8,5,600,,
break_continue,html.Screen,10_37_2,2024-03-04T20:36:43.760Z,,,,,,,,,,,NaN,,,,,,,,low,low,,,,,,,false,,,,,false,1073302.200000763,1073302.200000763,,1073302.200000763,,1073237.8,5,600,,
sequence,flow.Sequence,10_37,2024-03-04T20:36:43.760Z,,,,,,,,,,,5386.700000762939,completion,,,,,,,low,low,,,,,,,false,,,,,false,1073302.3000001907,1073302.200000763,1067915.298,1067995.8000001907,1067915.5,1073237.8,5,600,,
trial,html.Screen,10_38_0,2024-03-04T20:36:46.978Z,,,,1,0.0367744112927588,0.0324865661712824,,0.04,true,hh,3282.300000381423,response,1.0058354021163274,1.0038704438675472,-0.9269790966462115,0.8916720716393026,0.9836217069709206,-1.1849490523811634,high,high,,ISIC_4523565.JPG,9,ISIC_5581936.JPG,28,25,false,0.1,hh,keypress(i),0,false,1076520.4000005722,1076520.1000003815,1073219.484,1073302.3000001907,1073237.8,1076439.3,5,600,39,
break,html.Screen,10_38_1,2024-03-04T20:36:46.979Z,,,,,,,,,,,NaN,,,,,,,,high,high,,,,,,,false,,,,,false,1076521.8000001907,1076521.4000005722,,1076520.8000001907,,1076439.3,5,600,,
break_continue,html.Screen,10_38_2,2024-03-04T20:36:46.980Z,,,,,,,,,,,NaN,,,,,,,,high,high,,,,,,,false,,,,,false,1076522.700000763,1076522.3000001907,,1076522,,1076439.3,5,600,,
sequence,flow.Sequence,10_38,2024-03-04T20:36:46.980Z,,,,,,,,,,,3284.5000001906883,completion,,,,,,,high,high,,,,,,,false,,,,,false,1076523,1076522.3000001907,1073219.484,1073302.3000001907,1073237.8,1076439.3,5,600,,
